Data from AgNP_FTO_APTES_UA_10uM_CRN_1000uM_R6G_10uM_NaF_0.1M_Addition_RamanShift__15__19-38-40-996.txt Node

Date: Thu Feb 10 19:38:40 GMT 2022
User: TCL
Spectrometer: QEP01345
Trigger mode: 4
Integration Time (sec): 7.000000E0
Scans to average: 10
Electric dark correction enabled: true
Nonlinearity correction enabled: false
Boxcar width: 0
XAxis mode: Raman Shifts
Number of Pixels in Spectrum: 1044
>>>>>Begin Spectral Data<<<<<
46.04893	0.8
50.45542	-0.5
54.85868	-1.8
59.25871	-0.2
63.6555	53.4
68.04907	58.6
72.43941	62
76.82654	59.9
81.21044	64.5
85.59113	66.7
89.96862	70.1
94.34289	70.4
98.71396	73.4
103.08183	75.4
107.4465	81.4
111.80798	78.4
116.16626	81.3
120.52136	86.2
124.87327	90.4
129.222	92.8
133.56755	100.1
137.90993	109.9
142.24913	115.3
146.58517	126
150.91804	153
155.24774	185.6
159.57429	222.3
163.89768	285
168.21792	379.5
172.53501	517.9
176.84895	724.6
181.15975	1010.7
185.46741	1430.7
189.77193	1989.9
194.07331	2666
198.37157	3447.4
202.6667	4256.5
206.9587	5075.8
211.24758	5869.3
215.53334	6655.1
219.81599	7488.9
224.09553	8384.5
228.37195	9359.5
232.64527	10474
236.91549	11607.4
241.18261	12789.9
245.44663	13909.4
249.70755	14909.5
253.96539	15832.3
258.22014	16570.4
262.4718	17197.8
266.72039	17642.6
270.96589	17902.5
275.20832	17977.1
279.44768	17903.7
283.68397	17730.5
287.91719	17597.8
292.14735	17471.8
296.37445	17470.1
300.59849	17522.1
304.81948	17530.4
309.03742	17481.8
313.25231	17238.9
317.46415	16909.1
321.67296	16470.9
325.87872	16147.7
330.08145	16005.1
334.28114	15955.7
338.47781	16112.3
342.67145	16283.8
346.86207	16534.1
351.04966	16793.1
355.23424	17115.8
359.4158	17371.9
363.59435	17611.1
367.76989	17711.5
371.94243	17868
376.11196	18012.1
380.27849	18094.3
384.44203	18163.1
388.60257	18300.9
392.76012	18396.3
396.91468	18536.2
401.06626	18808.3
405.21485	18918.1
409.36047	18850.3
413.50311	18670.9
417.64277	18470.5
421.77947	18414.1
425.9132	18456.3
430.04396	18604.8
434.17176	18690.8
438.2966	18834.1
442.41849	19084
446.53742	19477.3
450.6534	19845.8
454.76644	20116.9
458.87653	20215.7
462.98368	20224.6
467.08789	20170.1
471.18916	20121
475.2875	20024.1
479.38291	19998.8
483.4754	19942.8
487.56496	19785.2
491.6516	19561.7
495.73531	19301.1
499.81612	19116
503.89401	19095.1
507.96899	19139
512.04106	19167.2
516.11023	19134.9
520.1765	19029.7
524.23987	18934.8
528.30034	18795.2
532.35792	18708.5
536.41261	18544.1
540.46441	18458.3
544.51333	18492.8
548.55936	18634
552.60252	18956.3
556.64279	19302.8
560.6802	19564.6
564.71473	19741
568.7464	20048.1
572.7752	20436.5
576.80114	20666.9
580.82422	20715.6
584.84444	20740.4
588.86181	20782.8
592.87633	20856.1
596.888	20841
600.89682	20717
604.9028	21062.8
608.90594	22413.8
612.90624	23962.4
616.90371	23109.9
620.89834	20250.1
624.89015	18934.2
628.87913	18704.9
632.86528	18839.6
636.84862	18912.7
640.82913	18851.8
644.80683	18549.5
648.78172	18310.4
652.75379	18274.6
656.72306	18400.3
660.68952	18588.6
664.65319	18534.1
668.61405	18309
672.57211	18282.5
676.52738	18376.5
680.47986	18428.3
684.42955	18387.5
688.37646	18286.7
692.32058	18306.8
696.26192	18431.4
700.20048	18560.3
704.13626	18613.3
708.06928	18632.5
711.99952	18608.6
715.927	18555.1
719.85171	18551.7
723.77365	18510.7
727.69284	18386.5
731.60928	18250.8
735.52295	18204.5
739.43388	18163.6
743.34206	18180.7
747.24749	18223.9
751.15017	18311
755.05012	18469.8
758.94733	18839.8
762.8418	19456.4
766.73354	20548.5
770.62254	21595
774.50882	21931
778.39237	21331.1
782.27321	20131.9
786.15132	19134.1
790.02671	18500.5
793.89938	18209.9
797.76935	18055.9
801.6366	17978.8
805.50115	17998.1
809.36299	17902.5
813.22213	17822.3
817.07857	17829.4
820.93231	17786.7
824.78336	17712.1
828.63172	17693.5
832.47738	17644
836.32036	17596.2
840.16066	17610.1
843.99827	17628
847.8332	17600
851.66546	17623.8
855.49504	17661.4
859.32195	17661.1
863.1462	17640.5
866.96777	17617
870.78668	17603.4
874.60293	17617.7
878.41652	17600
882.22745	17593.9
886.03573	17667
889.84136	17687.8
893.64433	17644
897.44466	17594.5
901.24235	17550.2
905.0374	17463.8
908.8298	17427.7
912.61957	17411.4
916.40671	17424.7
920.19121	17548.5
923.97308	17644.2
927.75233	17646.5
931.52895	17536.3
935.30295	17440.4
939.07433	17238.8
942.84309	17028.6
946.60924	16931.3
950.37278	16867.8
954.13371	16856.9
957.89203	16802.2
961.64774	16800.7
965.40086	16765
969.15137	16703.7
972.89929	16641.2
976.64461	16596.4
980.38733	16544.4
984.12747	16579.6
987.86502	16658
991.59999	16780.4
995.33237	16845.8
999.06217	17069.9
1002.78939	17228.7
1006.51404	17387.4
1010.23611	17491
1013.95561	17613
1017.67255	17657.4
1021.38692	17590.9
1025.09872	17446.1
1028.80796	17362.1
1032.51465	17416.4
1036.21877	17516.4
1039.92035	17548.4
1043.61937	17510.8
1047.31584	17412.8
1051.00976	17387.2
1054.70114	17446.3
1058.38998	17475.8
1062.07627	17548.7
1065.76003	17687.8
1069.44126	17739.1
1073.11995	17837.2
1076.79611	17978.9
1080.46974	18014.9
1084.14085	18131.2
1087.80943	18224.7
1091.47549	18363.2
1095.13903	18415.4
1098.80005	18288.2
1102.45857	18058.1
1106.11456	17884.8
1109.76805	17811.4
1113.41903	17855.2
1117.06751	17928.9
1120.71348	18086.9
1124.35696	18243.5
1127.99793	18453.5
1131.63641	18560.7
1135.2724	18469.8
1138.90589	18308.2
1142.5369	18193.3
1146.16542	18176.9
1149.79145	18211.8
1153.415	18299.3
1157.03607	18463.9
1160.65467	18826.4
1164.27079	19377.2
1167.88443	20053.3
1171.49561	20905.1
1175.10432	21982.8
1178.71056	23352.2
1182.31434	24706.9
1185.91565	25479.8
1189.51451	25595.2
1193.11091	25240.5
1196.70485	24518.6
1200.29634	23742.1
1203.88538	23057.1
1207.47197	22492.4
1211.05612	22009.2
1214.63782	21585.2
1218.21708	21246.9
1221.79391	20968.6
1225.36829	20798.6
1228.94024	20580.5
1232.50976	20316.9
1236.07685	20100.3
1239.6415	20027.1
1243.20374	20026
1246.76355	20162.1
1250.32093	20254
1253.8759	20477
1257.42845	20861.5
1260.97859	21268.8
1264.52631	21695.9
1268.07163	22056.7
1271.61453	22449.5
1275.15503	22835.8
1278.69312	23242.6
1282.22882	23604.4
1285.76211	24082.8
1289.29301	24653.6
1292.82151	25428
1296.34761	26424.6
1299.87133	27622.8
1303.39266	28805.6
1306.9116	30055.4
1310.42815	31220.7
1313.94233	31995.7
1317.45412	31957.7
1320.96354	31527.6
1324.47058	31061.7
1327.97525	30660.1
1331.47754	30425.1
1334.97747	30333.3
1338.47502	30346.5
1341.97022	30474.6
1345.46305	30451.6
1348.95352	30324.3
1352.44163	30196.5
1355.92738	30239.5
1359.41078	30815.2
1362.89183	31469
1366.37053	30930.2
1369.84688	28825.4
1373.32088	26364.8
1376.79254	24739.9
1380.26186	24060.7
1383.72883	23978.9
1387.19347	24033.8
1390.65578	24007.1
1394.11575	24024.1
1397.57339	24139.8
1401.0287	24366.3
1404.48168	24468.5
1407.93234	24320.1
1411.38068	23929.5
1414.82669	23302.7
1418.27039	22523.1
1421.71177	21793.9
1425.15083	21140
1428.58758	20808.3
1432.02203	20847.5
1435.45416	21114.5
1438.88399	21523.1
1442.31151	21877
1445.73673	22174.2
1449.15965	22420.1
1452.58027	22714.7
1455.9986	22895.6
1459.41463	23072.2
1462.82837	23291.8
1466.23982	23483.5
1469.64898	23640
1473.05586	23657.3
1476.46045	23550.6
1479.86276	23393.2
1483.26279	23189.9
1486.66054	23120.6
1490.05602	23172.3
1493.44922	23368.4
1496.84016	23706.4
1500.22882	24298.6
1503.61521	25228.5
1506.99934	26238.1
1510.38121	27167.3
1513.76081	27446.7
1517.13816	26888.2
1520.51324	25861.2
1523.88607	24898.1
1527.25665	24372.7
1530.62498	24149
1533.99105	24054.7
1537.35488	23982.9
1540.71647	23717.4
1544.07581	23330.8
1547.4329	22956.9
1550.78776	22637
1554.14038	22385.2
1557.49077	22288.2
1560.83892	22244.4
1564.18484	22350
1567.52853	22385.3
1570.86999	22596.7
1574.20922	22826.6
1577.54624	23082.5
1580.88103	23106.6
1584.2136	23043.3
1587.54395	23213.3
1590.87208	23721.3
1594.19801	24472.6
1597.52172	25306.2
1600.84321	25600.5
1604.16251	24935.2
1607.47959	23766.2
1610.79447	22436.6
1614.10715	21045.8
1617.41763	19874.6
1620.7259	18976.4
1624.03199	18409.3
1627.33587	18278.5
1630.63757	18501.2
1633.93707	19223.2
1637.23439	20388
1640.52951	22107.2
1643.82246	24068.3
1647.11321	25739.6
1650.40179	26360.7
1653.68819	25312.1
1656.97241	23019.5
1660.25446	20521.8
1663.53433	18552
1666.81203	17254.3
1670.08756	16413.4
1673.36092	15874.1
1676.63211	15506.5
1679.90115	15269.4
1683.16801	15074.1
1686.43272	14924.2
1689.69527	14796.8
1692.95567	14732.7
1696.2139	14660.5
1699.46999	14656.9
1702.72392	14569.7
1705.97571	14523
1709.22535	14475.7
1712.47284	14431.7
1715.71819	14396.8
1718.96139	14393.6
1722.20246	14330.7
1725.44139	14297.9
1728.67818	14218.3
1731.91284	14157
1735.14537	14042.6
1738.37576	14032.4
1741.60403	13977.6
1744.83017	13966.7
1748.05418	13907.8
1751.27607	13940
1754.49584	13908.4
1757.71349	13893.5
1760.92903	13880.2
1764.14244	13870.4
1767.35375	13837.2
1770.56294	13814.5
1773.77002	13777.2
1776.97499	13735.7
1780.17785	13705.8
1783.37861	13665
1786.57727	13608.5
1789.77382	13559.3
1792.96828	13581.2
1796.16064	13530
1799.3509	13492.6
1802.53907	13454.8
1805.72514	13427.5
1808.90913	13394.7
1812.09102	13354.6
1815.27083	13348.6
1818.44856	13288.4
1821.6242	13276.1
1824.79776	13217.7
1827.96924	13248.5
1831.13864	13217.5
1834.30597	13183.8
1837.47122	13151.1
1840.6344	13147.9
1843.7955	13155.3
1846.95454	13128.9
1850.11151	13136.1
1853.26642	13103.2
1856.41926	13096.9
1859.57004	13095.2
1862.71876	13075.3
1865.86542	13067.2
1869.01003	13053.9
1872.15258	13014.1
1875.29308	13052.1
1878.43152	12990.5
1881.56792	12974.9
1884.70227	12973.5
1887.83457	12962.3
1890.96482	12925.1
1894.09304	12873.6
1897.21921	12848.7
1900.34335	12856.7
1903.46544	12865.1
1906.58551	12858.2
1909.70353	12817
1912.81953	12805
1915.93349	12792
1919.04543	12742.9
1922.15534	12720.1
1925.26322	12671.5
1928.36908	12637.9
1931.47292	12645.1
1934.57473	12633.8
1937.67453	12589.3
1940.77232	12564
1943.86808	12515.6
1946.96184	12474
1950.05358	12461.3
1953.14331	12395.1
1956.23103	12346.4
1959.31675	12330.6
1962.40046	12264.6
1965.48217	12258
1968.56188	12223.4
1971.63959	12155.7
1974.7153	12139.1
1977.78901	12100.1
1980.86073	12082.1
1983.93046	12027.3
1986.99819	12014
1990.06394	11977.2
1993.1277	11936.8
1996.18947	11870.8
1999.24925	11829.9
2002.30706	11763.9
2005.36288	11772.7
2008.41672	11740.4
2011.46859	11705.2
2014.51848	11668
2017.56639	11638.5
2020.61233	11611
2023.6563	11560
2026.6983	11540.9
2029.73833	11489.2
2032.7764	11483.1
2035.8125	11426.4
2038.84664	11401.4
2041.87881	11383.4
2044.90903	11342.4
2047.93729	11345.4
2050.96359	11324.9
2053.98794	11297
2057.01034	11283.4
2060.03078	11271.9
2063.04927	11302.4
2066.06582	11269.4
2069.08042	11269.8
2072.09307	11273.4
2075.10378	11245
2078.11255	11249.2
2081.11938	11242.7
2084.12426	11225
2087.12722	11205.4
2090.12824	11205.6
2093.12732	11187.2
2096.12447	11187.3
2099.11969	11174.7
2102.11299	11169.2
2105.10435	11195.6
2108.09379	11190.2
2111.08131	11191.1
2114.0669	11195.5
2117.05057	11205.3
2120.03233	11208.2
2123.01216	11184
2125.99008	11208.8
2128.96609	11238
2131.94018	11234.2
2134.91236	11215.2
2137.88263	11223.1
2140.851	11249.7
2143.81746	11247.5
2146.78201	11246.9
2149.74466	11252.7
2152.7054	11257.7
2155.66425	11245.8
2158.6212	11210
2161.57625	11202.7
2164.52941	11198.4
2167.48067	11183.9
2170.43004	11206
2173.37752	11215
2176.32311	11190.3
2179.26681	11176
2182.20863	11174.9
2185.14856	11163.9
2188.08661	11162
2191.02278	11180.3
2193.95707	11182.5
2196.88948	11161.2
2199.82001	11131.8
2202.74867	11123.7
2205.67545	11089.7
2208.60037	11102
2211.52341	11067.9
2214.44458	11054
2217.36388	11044.7
2220.28132	11015
2223.1969	10992
2226.11061	10959.1
2229.02246	10909.1
2231.93245	10899.1
2234.84058	10888.4
2237.74686	10868.5
2240.65128	10841.2
2243.55385	10823.3
2246.45456	10802.4
2249.35343	10775.7
2252.25044	10763.4
2255.14561	10747.7
2258.03893	10736
2260.93041	10710.2
2263.82004	10655.1
2266.70783	10674
2269.59378	10630.1
2272.4779	10572.1
2275.36017	10571
2278.24061	10536.5
2281.11922	10528.4
2283.996	10532.5
2286.87094	10508.3
2289.74405	10498.1
2292.61534	10482.7
2295.4848	10478.7
2298.35243	10436.9
2301.21824	10427.5
2304.08223	10413
2306.94439	10439
2309.80474	10439.3
2312.66327	10417.8
2315.51999	10381.4
2318.37489	10391.6
2321.22797	10372.7
2324.07925	10367
2326.92871	10327.6
2329.77637	10301.8
2332.62222	10301.8
2335.46626	10283.6
2338.3085	10284.7
2341.14893	10240.7
2343.98756	10253.7
2346.8244	10230
2349.65943	10229.6
2352.49267	10223.2
2355.32411	10202.4
2358.15376	10190.6
2360.98161	10198.5
2363.80768	10182.7
2366.63195	10189.6
2369.45444	10190.3
2372.27514	10163.3
2375.09405	10154.3
2377.91118	10142.3
2380.72652	10102.9
2383.54009	10062.5
2386.35187	10057.1
2389.16188	9992.9
2391.97011	9990.4
2394.77657	9987
2397.58125	9961
2400.38416	9953.8
2403.18529	9927.7
2405.98466	9924.1
2408.78226	9892.7
2411.57809	9882
2414.37216	9863.4
2417.16446	9868.2
2419.955	9847.2
2422.74378	9813.6
2425.5308	9811.3
2428.31606	9799.7
2431.09956	9826.9
2433.88131	9796.1
2436.6613	9772.6
2439.43954	9754.3
2442.21603	9740.2
2444.99077	9737.4
2447.76377	9745.4
2450.53501	9740.8
2453.30451	9710.9
2456.07226	9688.1
2458.83827	9685.2
2461.60254	9700.1
2464.36507	9691.1
2467.12586	9647.7
2469.88492	9649
2472.64224	9652.7
2475.39782	9647.5
2478.15167	9655.6
2480.90379	9646.3
2483.65417	9639.3
2486.40283	9639.5
2489.14976	9632.1
2491.89497	9620.3
2494.63845	9643.3
2497.3802	9601.5
2500.12024	9603.1
2502.85855	9578.3
2505.59514	9600.9
2508.33002	9591.9
2511.06318	9572
2513.79462	9543.9
2516.52435	9520.8
2519.25237	9514.5
2521.97867	9498.1
2524.70327	9503.9
2527.42616	9457.7
2530.14734	9451.3
2532.86681	9476.6
2535.58458	9478.1
2538.30065	9449.9
2541.01501	9446.4
2543.72768	9414.2
2546.43864	9418
2549.14791	9407.4
2551.85548	9379.9
2554.56136	9361.1
2557.26554	9337.3
2559.96803	9316.9
2562.66883	9299.6
2565.36794	9258.8
2568.06536	9261.5
2570.7611	9246.5
2573.45514	9226.5
2576.14751	9220.5
2578.83819	9199.8
2581.52719	9187
2584.21451	9170.6
2586.90015	9156.8
2589.58411	9142.8
2592.2664	9135.8
2594.94701	9124.5
2597.62594	9110.2
2600.30321	9107.6
2602.9788	9092.1
2605.65273	9051.5
2608.32498	9064.3
2610.99557	9054.5
2613.66449	9051.6
2616.33175	9042.2
2618.99734	9032.8
2621.66128	9015.6
2624.32355	9000.1
2626.98416	8993.8
2629.64311	8974
2632.30041	8987.5
2634.95605	8957.6
2637.61004	8947.5
2640.26238	8939.1
2642.91306	8925.7
2645.56209	8939.1
2648.20948	8918.2
2650.85521	8918.8
2653.4993	8920.1
2656.14175	8910.6
2658.78255	8917.5
2661.42171	8905.6
2664.05923	8922.6
2666.6951	8911.3
2669.32934	8920.1
2671.96194	8917
2674.59291	8913.3
2677.22224	8888.9
2679.84993	8872.1
2682.476	8877.8
2685.10043	8861.7
2687.72324	8859.1
2690.34441	8880.8
2692.96396	8849.1
2695.58188	8858.3
2698.19818	8848.6
2700.81285	8870.3
2703.4259	8855.8
2706.03733	8872.8
2708.64714	8864.3
2711.25533	8865.6
2713.86191	8856.7
2716.46687	8865.8
2719.07021	8847.7
2721.67194	8872.3
2724.27206	8843.8
2726.87057	8873.4
2729.46747	8855.2
2732.06276	8873.4
2734.65644	8848.8
2737.24852	8844.3
2739.83899	8825.1
2742.42786	8824.9
2745.01513	8823
2747.60079	8823.5
2750.18486	8778.6
2752.76733	8795.2
2755.3482	8775.6
2757.92747	8775.8
2760.50515	8749.8
2763.08123	8754
2765.65573	8717.2
2768.22863	8713.6
2770.79994	8716.3
2773.36967	8695.9
2775.9378	8688.7
2778.50435	8704.6
2781.06932	8678.3
2783.6327	8701.8
2786.1945	8674.1
2788.75471	8684.8
2791.31335	8655.7
2793.87041	8653.2
2796.42589	8606.7
2798.97979	8624.5
2801.53212	8574.6
2804.08288	8580.7
2806.63206	8534.6
2809.17967	8513.6
2811.72571	8523.9
2814.27018	8493.2
2816.81308	8457.5
2819.35442	8447.6
2821.89419	8418.9
2824.43239	8423.5
2826.96904	8407.8
2829.50412	8422.2
2832.03763	8390.6
2834.56959	8411.1
2837.1	8400.7
2839.62884	8401.6
2842.15613	8414.7
2844.68186	8432.3
2847.20604	8448.6
2849.72867	8455.3
2852.24974	8437.7
2854.76927	8426.1
2857.28724	8394.9
2859.80367	8397.9
2862.31855	8370.4
2864.83189	8363
2867.34368	8352.7
2869.85393	8334.4
2872.36264	8341.9
2874.8698	8335.1
2877.37543	8316.3
2879.87952	8339.8
2882.38207	8335.8
2884.88308	8321.9
2887.38256	8323
2889.88051	8300.1
2892.37692	8309.5
2894.8718	8322.9
2897.36515	8343.3
2899.85698	8339.9
2902.34727	8335.2
2904.83604	8346.9
2907.32328	8369
2909.809	8345.5
2912.29319	8362.1
2914.77587	8356.6
2917.25702	8333.5
2919.73665	8309.3
2922.21476	8340.4
2924.69136	8335.8
2927.16644	8329
2929.64	8325.6
2932.11205	8317.9
2934.58258	8297.1
2937.05161	8310.8
2939.51912	8312.3
2941.98513	8301.6
2944.44962	8285.2
2946.91261	8242.5
2949.37409	8254.4
2951.83407	8238.6
2954.29254	8236
2956.74951	8214.4
2959.20498	8200.9
2961.65895	8208.5
2964.11142	8201.2
2966.56239	8198.1
2969.01186	8161
2971.45984	8158.1
2973.90632	8135.7
2976.35131	8130.3
2978.7948	8086.5
2981.23681	8069.8
2983.67732	8042.7
2986.11635	8037.4
2988.55388	8002.1
2990.98993	7988.4
2993.4245	7963.6
2995.85758	7959.3
2998.28917	7914.5
3000.71928	7915.4
3003.14791	7891.6
3005.57506	7893.8
3008.00073	7871.2
3010.42493	7847.5
3012.84764	7818.2
3015.26888	7822
3017.68865	7804.7
3020.10694	7784.5
3022.52376	7793.3
3024.9391	7776.4
3027.35298	7781.2
3029.76539	7748.5
3032.17632	7766.7
3034.5858	7761.1
3036.9938	7765.8
3039.40034	7747.1
3041.80542	7733.6
3044.20903	7712.6
3046.61118	7714
3049.01187	7699.2
3051.4111	7691.7
3053.80888	7685.3
3056.20519	7647.7
3058.60005	7616.8
3060.99345	7622.4
3063.3854	7606.1
3065.7759	7564.7
3068.16494	7569.3
3070.55254	7563.4
3072.93868	7563.4
3075.32338	7534.1
3077.70662	7488.1
3080.08842	7485.7
3082.46878	7493.5
3084.84769	7469.1
3087.22515	7488.2
3089.60118	7473.6
3091.97576	7464.8
3094.3489	7472.2
3096.72061	7468.4
3099.09087	7465.4
3101.4597	7449
3103.82709	7444.3
3106.19305	7438.1
3108.55757	7444.8
3110.92066	7431.6
3113.28232	7412.8
3115.64255	7401.2
3118.00134	7394.6
3120.35871	7393.7
3122.71466	7366.8
3125.06917	7349.1
3127.42226	7326.9
3129.77393	7348
3132.12417	7322.1
3134.47299	7344.3
3136.82039	7339.9
3139.16636	7316
3141.51092	7319.6
3143.85406	7327.7
3146.19579	7319.9
3148.53609	7313.1
3150.87499	7329.5
3153.21246	7331.8
3155.54853	7364.8
3157.88318	7365.1
3160.21642	7358.7
3162.54826	7344.3
3164.87868	7350.9
3167.2077	7360.3
3169.5353	7360.1
3171.86151	7352.2
3174.18631	7356.5
3176.5097	7355.7
3178.83169	7356.4
3181.15228	7348.3
3183.47147	7341.5
3185.78926	7323.7
3188.10565	7316.4
3190.42065	7308.4
3192.73424	7290.2
3195.04645	7310.1
3197.35725	7300.1
3199.66667	7292.4
3201.97469	7291
3204.28132	7294.3
3206.58656	7313.6
3208.8904	7294.2
3211.19287	7311.9
3213.49394	7302.3
3215.79363	7313
3218.09193	7306.3
3220.38884	7314
3222.68438	7327.9
3224.97853	7285.6
3227.2713	7288.4
3229.56269	7267.9
3231.8527	7269.8
3234.14133	7240.8
3236.42858	7259.9
3238.71446	7242.2
3240.99896	7225.1
3243.28209	7226.1
3245.56384	7213.6
3247.84423	7207.7
3250.12324	7188.8
3252.40088	7196.8
3254.67715	7180.6
3256.95205	7172.9
3259.22558	7158.6
3261.49775	7153.7
3263.76855	7146.2
3266.03799	7142.3
3268.30606	7131.5
3270.57277	7118.6
3272.83812	7114.7
3275.10211	7084.1
3277.36474	7099.1
3279.62601	7061.9
3281.88593	7042.1
3284.14448	7053.9
3286.40168	7046.3
3288.65753	7061.8
3290.91202	7043.5
3293.16516	7025.9
3295.41695	7000.9
3297.66738	6968.1
3299.91647	6931.7
3302.16421	6900.9
3304.4106	6859.7
3306.65564	6829.7
3308.89933	6757.8
3311.14169	6707.5
3313.38269	6679.1
3315.62236	6621.2
3317.86068	6582.7
3320.09766	6508.1
3322.3333	6474.4
3324.5676	6441.9
3326.80056	6335.1
3329.03219	6308.8
3331.26248	3.1
3333.49143	-0.4
3335.71905	-1.6
