Data from AgNP_FTO_APTES_UA_10uM_CRN_0uM_R6G_10uM_NaF_0.1M_Addition_RamanShift__30__12-43-20-478.txt Node

Date: Thu Feb 10 12:43:20 GMT 2022
User: TCL
Spectrometer: QEP01345
Trigger mode: 4
Integration Time (sec): 7.000000E0
Scans to average: 10
Electric dark correction enabled: true
Nonlinearity correction enabled: false
Boxcar width: 0
XAxis mode: Raman Shifts
Number of Pixels in Spectrum: 1044
>>>>>Begin Spectral Data<<<<<
46.04893	0.2875
50.45542	0.1875
54.85868	-0.4125
59.25871	-1.0125
63.6555	36.6875
68.04907	37.2875
72.43941	42.2875
76.82654	38.9875
81.21044	43.8875
85.59113	44.0875
89.96862	48.4875
94.34289	51.4875
98.71396	51.9875
103.08183	52.7875
107.4465	54.7875
111.80798	54.2875
116.16626	53.0875
120.52136	56.9875
124.87327	57.5875
129.222	58.1875
133.56755	61.6875
137.90993	61.8875
142.24913	67.7875
146.58517	68.2875
150.91804	78.4875
155.24774	92.9875
159.57429	112.2875
163.89768	137.9875
168.21792	185.2875
172.53501	243.9875
176.84895	325.7875
181.15975	461.9875
185.46741	640.5875
189.77193	884.7875
194.07331	1164.2875
198.37157	1513.6875
202.6667	1866.6875
206.9587	2215.8875
211.24758	2546.3875
215.53334	2939.4875
219.81599	3386.3875
224.09553	3869.2875
228.37195	4391.2875
232.64527	4980.9875
236.91549	5556.0875
241.18261	6041.8875
245.44663	6442.4875
249.70755	6700.5875
253.96539	6909.9875
258.22014	7105.8875
262.4718	7296.7875
266.72039	7450.7875
270.96589	7552.3875
275.20832	7532.4875
279.44768	7433.0875
283.68397	7309.5875
287.91719	7241.9875
292.14735	7284.8875
296.37445	7499.6875
300.59849	7874.8875
304.81948	8352.5875
309.03742	8669.5875
313.25231	8653.3875
317.46415	8118.9875
321.67296	7298.0875
325.87872	6659.5875
330.08145	6323.8875
334.28114	6313.4875
338.47781	6464.4875
342.67145	6687.8875
346.86207	7072.2875
351.04966	7653.7875
355.23424	8311.0875
359.4158	8859.5875
363.59435	9056.1875
367.76989	9108.1875
371.94243	9051.8875
376.11196	8932.9875
380.27849	8836.3875
384.44203	8681.9875
388.60257	8511.5875
392.76012	8385.3875
396.91468	8457.8875
401.06626	8727.2875
405.21485	8960.3875
409.36047	8682.9875
413.50311	8069.9875
417.64277	7475.9875
421.77947	7126.0875
425.9132	6972.7875
430.04396	6935.8875
434.17176	6959.1875
438.2966	7097.6875
442.41849	7326.1875
446.53742	7609.4875
450.6534	7895.1875
454.76644	8018.6875
458.87653	8002.4875
462.98368	7856.1875
467.08789	7653.3875
471.18916	7431.5875
475.2875	7209.0875
479.38291	7017.5875
483.4754	6885.3875
487.56496	6738.6875
491.6516	6678.6875
495.73531	6617.7875
499.81612	6676.0875
503.89401	6754.8875
507.96899	6918.8875
512.04106	7094.0875
516.11023	7272.8875
520.1765	7394.3875
524.23987	7385.4875
528.30034	7185.5875
532.35792	6949.4875
536.41261	6697.4875
540.46441	6416.4875
544.51333	6277.3875
548.55936	6287.0875
552.60252	6493.8875
556.64279	6728.5875
560.6802	6855.4875
564.71473	7028.3875
568.7464	7495.3875
572.7752	7797.7875
576.80114	7542.6875
580.82422	7181.1875
584.84444	7047.3875
588.86181	7008.1875
592.87633	7015.1875
596.888	7142.9875
600.89682	7524.2875
604.9028	8646.0875
608.90594	11787.3875
612.90624	16143.9875
616.90371	15631.1875
620.89834	9998.7875
624.89015	7286.4875
628.87913	6754.3875
632.86528	6820.5875
636.84862	6975.6875
640.82913	6839.7875
644.80683	6398.5875
648.78172	6097.5875
652.75379	6131.6875
656.72306	6565.2875
660.68952	7089.7875
664.65319	6971.3875
668.61405	6403.7875
672.57211	6123.1875
676.52738	6088.1875
680.47986	6050.3875
684.42955	5986.0875
688.37646	5944.3875
692.32058	5971.2875
696.26192	6040.3875
700.20048	6164.2875
704.13626	6293.5875
708.06928	6302.3875
711.99952	6224.1875
715.927	6150.1875
719.85171	6151.2875
723.77365	6133.8875
727.69284	6030.8875
731.60928	5949.6875
735.52295	5967.4875
739.43388	5982.7875
743.34206	6054.0875
747.24749	6094.9875
751.15017	6165.2875
755.05012	6333.5875
758.94733	6760.6875
762.8418	7743.3875
766.73354	9505.9875
770.62254	11463.3875
774.50882	12591.2875
778.39237	12129.1875
782.27321	10179.3875
786.15132	8121.0875
790.02671	6942.6875
793.89938	6425.4875
797.76935	6225.1875
801.6366	6111.1875
805.50115	6075.0875
809.36299	6034.1875
813.22213	5995.3875
817.07857	5927.0875
820.93231	5929.3875
824.78336	5945.0875
828.63172	5979.4875
832.47738	6010.8875
836.32036	5971.6875
840.16066	5921.3875
843.99827	5861.0875
847.8332	5832.8875
851.66546	5817.8875
855.49504	5837.3875
859.32195	5825.0875
863.1462	5788.9875
866.96777	5739.9875
870.78668	5734.5875
874.60293	5740.1875
878.41652	5802.5875
882.22745	5875.9875
886.03573	5903.9875
889.84136	5887.9875
893.64433	5841.1875
897.44466	5810.6875
901.24235	5803.7875
905.0374	5760.5875
908.8298	5710.1875
912.61957	5680.1875
916.40671	5715.1875
920.19121	5755.5875
923.97308	5852.7875
927.75233	5964.9875
931.52895	6049.8875
935.30295	5977.6875
939.07433	5723.5875
942.84309	5499.0875
946.60924	5354.9875
950.37278	5297.5875
954.13371	5263.1875
957.89203	5244.7875
961.64774	5222.0875
965.40086	5205.3875
969.15137	5213.7875
972.89929	5175.4875
976.64461	5168.3875
980.38733	5161.5875
984.12747	5171.2875
987.86502	5199.4875
991.59999	5234.5875
995.33237	5301.8875
999.06217	5466.0875
1002.78939	5669.7875
1006.51404	5875.6875
1010.23611	6079.9875
1013.95561	6178.6875
1017.67255	6153.7875
1021.38692	6013.2875
1025.09872	5854.5875
1028.80796	5693.0875
1032.51465	5702.8875
1036.21877	5772.4875
1039.92035	5896.9875
1043.61937	5944.7875
1047.31584	5937.6875
1051.00976	5907.1875
1054.70114	5850.1875
1058.38998	5825.0875
1062.07627	5850.1875
1065.76003	5907.1875
1069.44126	5981.1875
1073.11995	6111.2875
1076.79611	6223.7875
1080.46974	6389.5875
1084.14085	6617.6875
1087.80943	6888.4875
1091.47549	6965.2875
1095.13903	6791.2875
1098.80005	6407.4875
1102.45857	6116.6875
1106.11456	5992.9875
1109.76805	6043.9875
1113.41903	6269.6875
1117.06751	6588.2875
1120.71348	7022.0875
1124.35696	7478.2875
1127.99793	7892.2875
1131.63641	7836.8875
1135.2724	7338.9875
1138.90589	6829.0875
1142.5369	6550.5875
1146.16542	6323.6875
1149.79145	6211.6875
1153.415	6179.5875
1157.03607	6270.1875
1160.65467	6457.6875
1164.27079	6775.1875
1167.88443	7271.4875
1171.49561	8112.7875
1175.10432	9562.8875
1178.71056	11464.2875
1182.31434	12916.7875
1185.91565	13304.1875
1189.51451	12881.4875
1193.11091	11837.1875
1196.70485	10572.1875
1200.29634	9580.6875
1203.88538	8871.4875
1207.47197	8071.1875
1211.05612	7442.4875
1214.63782	7096.1875
1218.21708	6997.0875
1221.79391	7026.8875
1225.36829	7126.7875
1228.94024	7251.6875
1232.50976	7299.1875
1236.07685	7344.3875
1239.6415	7286.6875
1243.20374	7237.4875
1246.76355	7231.1875
1250.32093	7290.3875
1253.8759	7487.5875
1257.42845	7764.2875
1260.97859	8107.0875
1264.52631	8495.1875
1268.07163	8894.5875
1271.61453	9261.7875
1275.15503	9499.3875
1278.69312	9570.8875
1282.22882	9633.0875
1285.76211	9918.9875
1289.29301	10328.6875
1292.82151	10792.3875
1296.34761	11249.5875
1299.87133	11887.7875
1303.39266	13037.2875
1306.9116	14852.1875
1310.42815	17008.3875
1313.94233	18305.6875
1317.45412	18011.3875
1320.96354	16661.5875
1324.47058	14993.9875
1327.97525	13543.7875
1331.47754	12641.9875
1334.97747	12192.2875
1338.47502	12073.5875
1341.97022	12274.7875
1345.46305	12820.9875
1348.95352	13796.3875
1352.44163	15255.5875
1355.92738	17299.8875
1359.41078	20242.9875
1362.89183	22871.4875
1366.37053	22204.6875
1369.84688	18675.1875
1373.32088	15054.3875
1376.79254	12551.1875
1380.26186	11252.2875
1383.72883	10532.7875
1387.19347	9991.8875
1390.65578	9404.1875
1394.11575	9014.5875
1397.57339	8810.1875
1401.0287	8868.1875
1404.48168	9016.9875
1407.93234	9157.7875
1411.38068	9213.6875
1414.82669	9135.5875
1418.27039	8920.1875
1421.71177	8675.0875
1425.15083	8471.5875
1428.58758	8334.2875
1432.02203	8358.6875
1435.45416	8463.1875
1438.88399	8528.3875
1442.31151	8523.3875
1445.73673	8576.9875
1449.15965	8637.7875
1452.58027	8622.9875
1455.9986	8506.3875
1459.41463	8520.4875
1462.82837	8649.3875
1466.23982	8849.8875
1469.64898	9107.1875
1473.05586	9216.1875
1476.46045	9276.9875
1479.86276	9427.8875
1483.26279	9659.3875
1486.66054	9997.7875
1490.05602	10426.9875
1493.44922	11089.6875
1496.84016	12119.5875
1500.22882	13721.0875
1503.61521	15834.2875
1506.99934	18182.1875
1510.38121	20321.1875
1513.76081	21182.4875
1517.13816	19861.7875
1520.51324	16951.6875
1523.88607	14073.1875
1527.25665	12124.1875
1530.62498	11064.2875
1533.99105	10475.4875
1537.35488	10075.9875
1540.71647	9818.2875
1544.07581	9706.8875
1547.4329	9638.1875
1550.78776	9569.6875
1554.14038	9519.1875
1557.49077	9539.2875
1560.83892	9702.6875
1564.18484	10053.8875
1567.52853	10443.0875
1570.86999	10878.1875
1574.20922	11185.9875
1577.54624	11151.2875
1580.88103	10486.7875
1584.2136	9544.0875
1587.54395	9043.4875
1590.87208	9173.1875
1594.19801	9867.5875
1597.52172	10759.7875
1600.84321	11182.9875
1604.16251	10746.0875
1607.47959	9889.6875
1610.79447	8922.3875
1614.10715	7977.2875
1617.41763	7260.5875
1620.7259	6847.3875
1624.03199	6655.1875
1627.33587	6695.3875
1630.63757	6950.5875
1633.93707	7431.1875
1637.23439	8164.6875
1640.52951	9282.2875
1643.82246	10732.8875
1647.11321	12441.2875
1650.40179	13724.2875
1653.68819	13370.1875
1656.97241	11313.1875
1660.25446	8997.4875
1663.53433	7350.4875
1666.81203	6403.0875
1670.08756	5849.4875
1673.36092	5533.9875
1676.63211	5328.1875
1679.90115	5189.5875
1683.16801	5078.0875
1686.43272	5016.7875
1689.69527	4961.3875
1692.95567	4920.3875
1696.2139	4892.5875
1699.46999	4899.8875
1702.72392	4863.3875
1705.97571	4843.3875
1709.22535	4842.5875
1712.47284	4829.9875
1715.71819	4838.8875
1718.96139	4827.4875
1722.20246	4833.7875
1725.44139	4779.7875
1728.67818	4745.0875
1731.91284	4677.5875
1735.14537	4620.7875
1738.37576	4589.5875
1741.60403	4543.1875
1744.83017	4528.1875
1748.05418	4502.9875
1751.27607	4496.7875
1754.49584	4472.0875
1757.71349	4474.8875
1760.92903	4464.5875
1764.14244	4462.7875
1767.35375	4442.0875
1770.56294	4423.4875
1773.77002	4420.4875
1776.97499	4387.5875
1780.17785	4350.5875
1783.37861	4345.0875
1786.57727	4328.7875
1789.77382	4333.2875
1792.96828	4320.2875
1796.16064	4302.3875
1799.3509	4301.6875
1802.53907	4292.5875
1805.72514	4281.3875
1808.90913	4252.6875
1812.09102	4246.3875
1815.27083	4231.8875
1818.44856	4220.2875
1821.6242	4197.2875
1824.79776	4209.1875
1827.96924	4186.7875
1831.13864	4193.5875
1834.30597	4162.9875
1837.47122	4174.1875
1840.6344	4165.6875
1843.7955	4169.4875
1846.95454	4172.7875
1850.11151	4161.1875
1853.26642	4160.5875
1856.41926	4162.9875
1859.57004	4181.9875
1862.71876	4169.0875
1865.86542	4187.6875
1869.01003	4178.2875
1872.15258	4180.1875
1875.29308	4201.6875
1878.43152	4202.3875
1881.56792	4206.6875
1884.70227	4220.9875
1887.83457	4214.1875
1890.96482	4216.2875
1894.09304	4216.7875
1897.21921	4235.0875
1900.34335	4235.0875
1903.46544	4236.7875
1906.58551	4249.5875
1909.70353	4245.3875
1912.81953	4260.3875
1915.93349	4258.2875
1919.04543	4252.8875
1922.15534	4230.3875
1925.26322	4225.0875
1928.36908	4197.4875
1931.47292	4167.3875
1934.57473	4144.6875
1937.67453	4101.6875
1940.77232	4074.7875
1943.86808	4031.8875
1946.96184	4008.4875
1950.05358	3989.5875
1953.14331	3959.9875
1956.23103	3934.2875
1959.31675	3921.4875
1962.40046	3912.1875
1965.48217	3905.9875
1968.56188	3888.0875
1971.63959	3875.1875
1974.7153	3862.9875
1977.78901	3851.2875
1980.86073	3825.6875
1983.93046	3813.9875
1986.99819	3796.4875
1990.06394	3797.8875
1993.1277	3773.1875
1996.18947	3759.0875
1999.24925	3738.5875
2002.30706	3724.3875
2005.36288	3708.6875
2008.41672	3712.1875
2011.46859	3699.9875
2014.51848	3683.3875
2017.56639	3679.9875
2020.61233	3659.4875
2023.6563	3639.9875
2026.6983	3636.4875
2029.73833	3613.5875
2032.7764	3621.3875
2035.8125	3608.8875
2038.84664	3607.6875
2041.87881	3589.4875
2044.90903	3574.5875
2047.93729	3576.7875
2050.96359	3569.5875
2053.98794	3566.6875
2057.01034	3566.8875
2060.03078	3549.4875
2063.04927	3549.1875
2066.06582	3537.7875
2069.08042	3537.6875
2072.09307	3546.8875
2075.10378	3551.3875
2078.11255	3534.5875
2081.11938	3528.0875
2084.12426	3511.2875
2087.12722	3521.8875
2090.12824	3526.0875
2093.12732	3521.7875
2096.12447	3528.5875
2099.11969	3526.8875
2102.11299	3521.2875
2105.10435	3514.5875
2108.09379	3529.4875
2111.08131	3508.4875
2114.0669	3504.0875
2117.05057	3508.2875
2120.03233	3521.6875
2123.01216	3527.0875
2125.99008	3526.9875
2128.96609	3528.6875
2131.94018	3519.3875
2134.91236	3518.4875
2137.88263	3526.8875
2140.851	3522.3875
2143.81746	3518.2875
2146.78201	3503.1875
2149.74466	3505.9875
2152.7054	3501.5875
2155.66425	3503.0875
2158.6212	3505.8875
2161.57625	3485.4875
2164.52941	3495.8875
2167.48067	3488.6875
2170.43004	3469.9875
2173.37752	3480.5875
2176.32311	3474.7875
2179.26681	3483.7875
2182.20863	3475.5875
2185.14856	3472.8875
2188.08661	3467.3875
2191.02278	3474.5875
2193.95707	3485.3875
2196.88948	3460.6875
2199.82001	3457.2875
2202.74867	3458.6875
2205.67545	3454.7875
2208.60037	3438.6875
2211.52341	3445.2875
2214.44458	3435.3875
2217.36388	3426.2875
2220.28132	3407.0875
2223.1969	3386.9875
2226.11061	3391.1875
2229.02246	3372.7875
2231.93245	3368.5875
2234.84058	3359.8875
2237.74686	3352.4875
2240.65128	3367.9875
2243.55385	3351.9875
2246.45456	3361.2875
2249.35343	3351.0875
2252.25044	3343.8875
2255.14561	3347.1875
2258.03893	3339.5875
2260.93041	3347.2875
2263.82004	3342.6875
2266.70783	3328.6875
2269.59378	3307.3875
2272.4779	3304.9875
2275.36017	3291.7875
2278.24061	3306.1875
2281.11922	3286.3875
2283.996	3288.7875
2286.87094	3282.7875
2289.74405	3260.1875
2292.61534	3254.3875
2295.4848	3226.7875
2298.35243	3245.7875
2301.21824	3243.9875
2304.08223	3236.3875
2306.94439	3220.3875
2309.80474	3227.8875
2312.66327	3236.3875
2315.51999	3229.2875
2318.37489	3225.6875
2321.22797	3212.8875
2324.07925	3212.1875
2326.92871	3216.7875
2329.77637	3209.8875
2332.62222	3188.2875
2335.46626	3200.0875
2338.3085	3199.8875
2341.14893	3200.0875
2343.98756	3210.7875
2346.8244	3208.2875
2349.65943	3203.1875
2352.49267	3206.9875
2355.32411	3213.8875
2358.15376	3230.2875
2360.98161	3235.7875
2363.80768	3243.7875
2366.63195	3254.5875
2369.45444	3242.0875
2372.27514	3238.9875
2375.09405	3241.1875
2377.91118	3232.6875
2380.72652	3203.2875
2383.54009	3207.8875
2386.35187	3183.8875
2389.16188	3165.9875
2391.97011	3138.7875
2394.77657	3124.8875
2397.58125	3110.8875
2400.38416	3105.5875
2403.18529	3104.4875
2405.98466	3101.1875
2408.78226	3090.9875
2411.57809	3080.4875
2414.37216	3084.3875
2417.16446	3070.2875
2419.955	3065.0875
2422.74378	3077.5875
2425.5308	3056.3875
2428.31606	3061.0875
2431.09956	3068.5875
2433.88131	3070.4875
2436.6613	3070.4875
2439.43954	3077.2875
2442.21603	3065.6875
2444.99077	3073.7875
2447.76377	3066.5875
2450.53501	3076.4875
2453.30451	3081.4875
2456.07226	3076.7875
2458.83827	3092.1875
2461.60254	3086.1875
2464.36507	3076.6875
2467.12586	3072.5875
2469.88492	3067.0875
2472.64224	3085.5875
2475.39782	3082.6875
2478.15167	3077.3875
2480.90379	3088.8875
2483.65417	3091.4875
2486.40283	3120.3875
2489.14976	3121.8875
2491.89497	3125.2875
2494.63845	3131.8875
2497.3802	3111.7875
2500.12024	3124.9875
2502.85855	3126.0875
2505.59514	3091.2875
2508.33002	3083.9875
2511.06318	3074.1875
2513.79462	3045.1875
2516.52435	3024.1875
2519.25237	3027.2875
2521.97867	3005.2875
2524.70327	3005.2875
2527.42616	2989.3875
2530.14734	2998.7875
2532.86681	2983.1875
2535.58458	2997.5875
2538.30065	2989.6875
2541.01501	2997.4875
2543.72768	2992.4875
2546.43864	2980.0875
2549.14791	2990.5875
2551.85548	2998.4875
2554.56136	2997.8875
2557.26554	2984.0875
2559.96803	2981.5875
2562.66883	2970.0875
2565.36794	2980.4875
2568.06536	2975.4875
2570.7611	2971.5875
2573.45514	2959.4875
2576.14751	2965.8875
2578.83819	2953.9875
2581.52719	2934.2875
2584.21451	2951.2875
2586.90015	2932.2875
2589.58411	2934.9875
2592.2664	2938.2875
2594.94701	2936.5875
2597.62594	2934.5875
2600.30321	2924.5875
2602.9788	2939.2875
2605.65273	2924.2875
2608.32498	2927.8875
2610.99557	2928.0875
2613.66449	2925.0875
2616.33175	2923.2875
2618.99734	2919.4875
2621.66128	2932.1875
2624.32355	2910.3875
2626.98416	2910.3875
2629.64311	2901.4875
2632.30041	2908.3875
2634.95605	2894.6875
2637.61004	2888.4875
2640.26238	2891.3875
2642.91306	2890.6875
2645.56209	2872.3875
2648.20948	2876.2875
2650.85521	2875.5875
2653.4993	2865.2875
2656.14175	2884.7875
2658.78255	2881.5875
2661.42171	2888.1875
2664.05923	2895.6875
2666.6951	2896.2875
2669.32934	2898.3875
2671.96194	2900.6875
2674.59291	2906.4875
2677.22224	2908.6875
2679.84993	2918.0875
2682.476	2909.0875
2685.10043	2907.9875
2687.72324	2906.4875
2690.34441	2914.4875
2692.96396	2917.0875
2695.58188	2903.2875
2698.19818	2901.7875
2700.81285	2906.0875
2703.4259	2897.4875
2706.03733	2899.7875
2708.64714	2891.5875
2711.25533	2910.3875
2713.86191	2929.9875
2716.46687	2924.7875
2719.07021	2929.3875
2721.67194	2937.8875
2724.27206	2949.3875
2726.87057	2934.7875
2729.46747	2942.9875
2732.06276	2942.4875
2734.65644	2931.7875
2737.24852	2940.5875
2739.83899	2924.6875
2742.42786	2917.0875
2745.01513	2917.4875
2747.60079	2902.3875
2750.18486	2906.1875
2752.76733	2883.0875
2755.3482	2894.7875
2757.92747	2894.2875
2760.50515	2875.3875
2763.08123	2882.3875
2765.65573	2878.6875
2768.22863	2873.2875
2770.79994	2878.1875
2773.36967	2879.8875
2775.9378	2882.2875
2778.50435	2884.5875
2781.06932	2886.5875
2783.6327	2886.4875
2786.1945	2901.7875
2788.75471	2890.0875
2791.31335	2899.7875
2793.87041	2890.2875
2796.42589	2889.2875
2798.97979	2903.7875
2801.53212	2892.1875
2804.08288	2905.3875
2806.63206	2891.6875
2809.17967	2897.5875
2811.72571	2909.4875
2814.27018	2922.6875
2816.81308	2908.2875
2819.35442	2914.4875
2821.89419	2913.4875
2824.43239	2946.9875
2826.96904	2944.9875
2829.50412	2950.4875
2832.03763	2952.4875
2834.56959	2958.8875
2837.1	2970.5875
2839.62884	2995.7875
2842.15613	3019.9875
2844.68186	3071.4875
2847.20604	3108.3875
2849.72867	3151.3875
2852.24974	3173.4875
2854.76927	3165.8875
2857.28724	3157.3875
2859.80367	3143.9875
2862.31855	3142.6875
2864.83189	3131.8875
2867.34368	3123.5875
2869.85393	3119.7875
2872.36264	3103.0875
2874.8698	3107.1875
2877.37543	3109.3875
2879.87952	3102.7875
2882.38207	3105.7875
2884.88308	3095.4875
2887.38256	3091.9875
2889.88051	3086.3875
2892.37692	3073.1875
2894.8718	3078.0875
2897.36515	3083.1875
2899.85698	3090.6875
2902.34727	3095.3875
2904.83604	3091.6875
2907.32328	3100.3875
2909.809	3096.2875
2912.29319	3090.5875
2914.77587	3077.1875
2917.25702	3079.4875
2919.73665	3069.7875
2922.21476	3081.8875
2924.69136	3076.5875
2927.16644	3065.0875
2929.64	3063.6875
2932.11205	3040.9875
2934.58258	3026.4875
2937.05161	3018.4875
2939.51912	3004.5875
2941.98513	2974.4875
2944.44962	2949.2875
2946.91261	2909.9875
2949.37409	2897.7875
2951.83407	2875.1875
2954.29254	2861.9875
2956.74951	2835.6875
2959.20498	2829.3875
2961.65895	2817.8875
2964.11142	2818.5875
2966.56239	2800.0875
2969.01186	2799.4875
2971.45984	2785.3875
2973.90632	2776.6875
2976.35131	2768.2875
2978.7948	2755.2875
2981.23681	2746.6875
2983.67732	2728.5875
2986.11635	2729.7875
2988.55388	2706.2875
2990.98993	2706.0875
2993.4245	2693.3875
2995.85758	2682.9875
2998.28917	2674.3875
3000.71928	2680.1875
3003.14791	2661.1875
3005.57506	2653.8875
3008.00073	2648.1875
3010.42493	2648.1875
3012.84764	2648.0875
3015.26888	2631.9875
3017.68865	2624.2875
3020.10694	2620.4875
3022.52376	2619.3875
3024.9391	2623.8875
3027.35298	2621.9875
3029.76539	2605.2875
3032.17632	2607.8875
3034.5858	2619.5875
3036.9938	2611.8875
3039.40034	2598.6875
3041.80542	2611.0875
3044.20903	2602.7875
3046.61118	2595.4875
3049.01187	2599.8875
3051.4111	2589.6875
3053.80888	2584.3875
3056.20519	2584.1875
3058.60005	2574.8875
3060.99345	2565.7875
3063.3854	2561.2875
3065.7759	2564.4875
3068.16494	2566.0875
3070.55254	2553.5875
3072.93868	2554.6875
3075.32338	2550.6875
3077.70662	2527.4875
3080.08842	2521.8875
3082.46878	2523.0875
3084.84769	2503.6875
3087.22515	2511.9875
3089.60118	2521.3875
3091.97576	2514.5875
3094.3489	2504.5875
3096.72061	2512.6875
3099.09087	2514.6875
3101.4597	2512.1875
3103.82709	2505.6875
3106.19305	2504.1875
3108.55757	2498.8875
3110.92066	2498.7875
3113.28232	2491.7875
3115.64255	2495.9875
3118.00134	2494.5875
3120.35871	2493.2875
3122.71466	2495.2875
3125.06917	2498.2875
3127.42226	2493.1875
3129.77393	2506.1875
3132.12417	2505.4875
3134.47299	2501.6875
3136.82039	2503.2875
3139.16636	2505.7875
3141.51092	2513.8875
3143.85406	2525.9875
3146.19579	2534.3875
3148.53609	2530.6875
3150.87499	2537.6875
3153.21246	2537.6875
3155.54853	2555.2875
3157.88318	2546.2875
3160.21642	2559.7875
3162.54826	2547.9875
3164.87868	2561.9875
3167.2077	2576.1875
3169.5353	2572.2875
3171.86151	2581.9875
3174.18631	2568.4875
3176.5097	2577.8875
3178.83169	2572.7875
3181.15228	2568.6875
3183.47147	2570.4875
3185.78926	2579.4875
3188.10565	2595.7875
3190.42065	2583.8875
3192.73424	2604.2875
3195.04645	2607.7875
3197.35725	2601.5875
3199.66667	2612.9875
3201.97469	2625.1875
3204.28132	2605.1875
3206.58656	2618.8875
3208.8904	2613.9875
3211.19287	2635.7875
3213.49394	2630.2875
3215.79363	2642.3875
3218.09193	2638.9875
3220.38884	2640.0875
3222.68438	2633.3875
3224.97853	2643.9875
3227.2713	2642.1875
3229.56269	2655.2875
3231.8527	2647.1875
3234.14133	2646.1875
3236.42858	2630.1875
3238.71446	2633.3875
3240.99896	2624.0875
3243.28209	2622.6875
3245.56384	2623.5875
3247.84423	2623.1875
3250.12324	2616.4875
3252.40088	2606.6875
3254.67715	2620.1875
3256.95205	2615.2875
3259.22558	2605.5875
3261.49775	2612.1875
3263.76855	2602.4875
3266.03799	2600.5875
3268.30606	2598.8875
3270.57277	2604.2875
3272.83812	2589.0875
3275.10211	2580.7875
3277.36474	2575.1875
3279.62601	2580.6875
3281.88593	2582.8875
3284.14448	2582.4875
3286.40168	2583.3875
3288.65753	2579.4875
3290.91202	2569.6875
3293.16516	2574.7875
3295.41695	2570.8875
3297.66738	2555.9875
3299.91647	2552.2875
3302.16421	2533.3875
3304.4106	2515.2875
3306.65564	2505.3875
3308.89933	2483.4875
3311.14169	2462.7875
3313.38269	2439.6875
3315.62236	2425.7875
3317.86068	2411.3875
3320.09766	2380.4875
3322.3333	2367.6875
3324.5676	2353.5875
3326.80056	2306.5875
3329.03219	2300.8875
3331.26248	1.7875
3333.49143	-0.2125
3335.71905	-1.0125
