Data from AgNP_FTO_APTES_UA_10uM_CRN_200uM_R6G_10uM_NaF_0.1M_Addition_RamanShift__22__18-26-20-900.txt Node

Date: Thu Feb 10 18:26:20 GMT 2022
User: TCL
Spectrometer: QEP01345
Trigger mode: 4
Integration Time (sec): 7.000000E0
Scans to average: 10
Electric dark correction enabled: true
Nonlinearity correction enabled: false
Boxcar width: 0
XAxis mode: Raman Shifts
Number of Pixels in Spectrum: 1044
>>>>>Begin Spectral Data<<<<<
46.04893	0.3375
50.45542	-0.7625
54.85868	-0.9625
59.25871	-1.1625
63.6555	66.5375
68.04907	69.8375
72.43941	74.1375
76.82654	67.9375
81.21044	77.9375
85.59113	79.4375
89.96862	82.4375
94.34289	86.0375
98.71396	84.8375
103.08183	90.2375
107.4465	93.5375
111.80798	91.2375
116.16626	94.5375
120.52136	98.4375
124.87327	103.3375
129.222	107.1375
133.56755	116.0375
137.90993	121.9375
142.24913	128.6375
146.58517	145.2375
150.91804	171.0375
155.24774	200.9375
159.57429	243.6375
163.89768	309.0375
168.21792	413.4375
172.53501	561.3375
176.84895	782.5375
181.15975	1098.0375
185.46741	1548.5375
189.77193	2146.4375
194.07331	2861.6375
198.37157	3705.3375
202.6667	4569.8375
206.9587	5439.8375
211.24758	6301.0375
215.53334	7141.0375
219.81599	8023.0375
224.09553	8983.2375
228.37195	10064.9375
232.64527	11229.0375
236.91549	12508.1375
241.18261	13804.8375
245.44663	15066.3375
249.70755	16189.5375
253.96539	17154.7375
258.22014	18062.1375
262.4718	18731.9375
266.72039	19280.8375
270.96589	19552.1375
275.20832	19650.0375
279.44768	19572.9375
283.68397	19390.4375
287.91719	19252.4375
292.14735	19099.9375
296.37445	19106.8375
300.59849	19097.4375
304.81948	19103.8375
309.03742	18971.5375
313.25231	18752.9375
317.46415	18420.3375
321.67296	17949.7375
325.87872	17656.2375
330.08145	17532.9375
334.28114	17548.6375
338.47781	17672.9375
342.67145	17900.1375
346.86207	18150.8375
351.04966	18485.3375
355.23424	18792.1375
359.4158	19149.6375
363.59435	19453.7375
367.76989	19615.0375
371.94243	19806.3375
376.11196	19930.2375
380.27849	20075.3375
384.44203	20252.7375
388.60257	20377.9375
392.76012	20503.2375
396.91468	20641.5375
401.06626	20894.4375
405.21485	21096.0375
409.36047	21109.4375
413.50311	20888.8375
417.64277	20711.4375
421.77947	20678.6375
425.9132	20755.6375
430.04396	20889.0375
434.17176	21065.3375
438.2966	21313.7375
442.41849	21632.4375
446.53742	22095.2375
450.6534	22600.1375
454.76644	23045.1375
458.87653	23216.9375
462.98368	23141.8375
467.08789	22938.3375
471.18916	22725.5375
475.2875	22547.9375
479.38291	22518.2375
483.4754	22418.5375
487.56496	22196.8375
491.6516	21906.2375
495.73531	21612.1375
499.81612	21421.1375
503.89401	21492.4375
507.96899	21529.3375
512.04106	21471.4375
516.11023	21472.6375
520.1765	21383.7375
524.23987	21275.4375
528.30034	21127.1375
532.35792	21034.0375
536.41261	20915.5375
540.46441	20807.2375
544.51333	20808.5375
548.55936	20951.2375
552.60252	21247.8375
556.64279	21610.7375
560.6802	21831.1375
564.71473	21977.0375
568.7464	22237.7375
572.7752	22593.4375
576.80114	22746.9375
580.82422	22840.6375
584.84444	22923.0375
588.86181	23159.6375
592.87633	23458.1375
596.888	23662.3375
600.89682	23673.3375
604.9028	24087.7375
608.90594	25513.9375
612.90624	27241.0375
616.90371	26188.1375
620.89834	22969.4375
624.89015	21613.8375
628.87913	21432.2375
632.86528	21486.2375
636.84862	21477.9375
640.82913	21307.1375
644.80683	20964.3375
648.78172	20686.3375
652.75379	20609.3375
656.72306	20776.7375
660.68952	21029.4375
664.65319	21001.9375
668.61405	20771.0375
672.57211	20676.5375
676.52738	20741.9375
680.47986	20773.0375
684.42955	20705.0375
688.37646	20656.3375
692.32058	20691.4375
696.26192	20824.8375
700.20048	20988.8375
704.13626	21080.1375
708.06928	21051.1375
711.99952	20959.4375
715.927	20901.4375
719.85171	20897.9375
723.77365	20949.0375
727.69284	20873.7375
731.60928	20748.4375
735.52295	20722.3375
739.43388	20725.9375
743.34206	20746.9375
747.24749	20830.3375
751.15017	20917.7375
755.05012	21119.8375
758.94733	21546.3375
762.8418	22276.8375
766.73354	23385.9375
770.62254	24501.0375
774.50882	24904.7375
778.39237	24195.1375
782.27321	22768.7375
786.15132	21691.5375
790.02671	21031.7375
793.89938	20696.3375
797.76935	20569.5375
801.6366	20582.8375
805.50115	20561.0375
809.36299	20492.1375
813.22213	20402.6375
817.07857	20395.6375
820.93231	20365.4375
824.78336	20348.0375
828.63172	20294.5375
832.47738	20313.7375
836.32036	20330.2375
840.16066	20320.8375
843.99827	20371.0375
847.8332	20368.1375
851.66546	20312.7375
855.49504	20317.6375
859.32195	20331.3375
863.1462	20316.5375
866.96777	20283.4375
870.78668	20237.6375
874.60293	20236.7375
878.41652	20265.3375
882.22745	20282.6375
886.03573	20318.2375
889.84136	20314.2375
893.64433	20275.3375
897.44466	20231.8375
901.24235	20151.4375
905.0374	20071.1375
908.8298	20022.0375
912.61957	20020.8375
916.40671	20113.2375
920.19121	20275.8375
923.97308	20438.0375
927.75233	20452.0375
931.52895	20400.8375
935.30295	20262.4375
939.07433	20033.2375
942.84309	19822.8375
946.60924	19725.9375
950.37278	19692.9375
954.13371	19609.5375
957.89203	19515.8375
961.64774	19508.6375
965.40086	19461.0375
969.15137	19368.2375
972.89929	19325.3375
976.64461	19282.3375
980.38733	19276.3375
984.12747	19337.0375
987.86502	19463.3375
991.59999	19625.4375
995.33237	19877.7375
999.06217	20224.9375
1002.78939	20630.3375
1006.51404	20897.0375
1010.23611	20926.5375
1013.95561	21075.9375
1017.67255	21094.8375
1021.38692	20967.1375
1025.09872	20822.5375
1028.80796	20871.7375
1032.51465	21161.6375
1036.21877	21518.7375
1039.92035	21527.4375
1043.61937	21326.8375
1047.31584	21050.2375
1051.00976	20740.9375
1054.70114	20606.2375
1058.38998	20586.7375
1062.07627	20697.8375
1065.76003	20756.2375
1069.44126	20819.9375
1073.11995	20890.3375
1076.79611	21023.7375
1080.46974	21107.9375
1084.14085	21192.8375
1087.80943	21361.7375
1091.47549	21483.8375
1095.13903	21469.2375
1098.80005	21336.3375
1102.45857	21102.5375
1106.11456	20922.4375
1109.76805	20890.1375
1113.41903	21017.7375
1117.06751	21202.4375
1120.71348	21399.4375
1124.35696	21553.0375
1127.99793	21721.3375
1131.63641	21821.3375
1135.2724	21713.4375
1138.90589	21502.8375
1142.5369	21364.8375
1146.16542	21318.0375
1149.79145	21365.1375
1153.415	21456.6375
1157.03607	21652.7375
1160.65467	22036.0375
1164.27079	22660.5375
1167.88443	23457.6375
1171.49561	24437.9375
1175.10432	25760.3375
1178.71056	27410.0375
1182.31434	28947.0375
1185.91565	29827.0375
1189.51451	29745.7375
1193.11091	29168.6375
1196.70485	28299.6375
1200.29634	27440.9375
1203.88538	26747.4375
1207.47197	26195.5375
1211.05612	25716.4375
1214.63782	25273.9375
1218.21708	24983.4375
1221.79391	24820.0375
1225.36829	24697.7375
1228.94024	24434.6375
1232.50976	24089.9375
1236.07685	23814.1375
1239.6415	23717.4375
1243.20374	23735.5375
1246.76355	23923.7375
1250.32093	24191.8375
1253.8759	24571.5375
1257.42845	24999.3375
1260.97859	25463.3375
1264.52631	25872.1375
1268.07163	26301.7375
1271.61453	26826.0375
1275.15503	27357.6375
1278.69312	27970.8375
1282.22882	28461.6375
1285.76211	28920.5375
1289.29301	29555.8375
1292.82151	30398.2375
1296.34761	31496.7375
1299.87133	32916.4375
1303.39266	34500.3375
1306.9116	36203.5375
1310.42815	37922.3375
1313.94233	39041.5375
1317.45412	39095.5375
1320.96354	38531.2375
1324.47058	37755.1375
1327.97525	37101.9375
1331.47754	36619.1375
1334.97747	36551.6375
1338.47502	36645.7375
1341.97022	36878.1375
1345.46305	36713.1375
1348.95352	36245.0375
1352.44163	35812.8375
1355.92738	35990.4375
1359.41078	36958.4375
1362.89183	37924.4375
1366.37053	37273.4375
1369.84688	34652.8375
1373.32088	31628.5375
1376.79254	29509.5375
1380.26186	28746.5375
1383.72883	28606.2375
1387.19347	28663.6375
1390.65578	28612.8375
1394.11575	28722.4375
1397.57339	29124.8375
1401.0287	29733.3375
1404.48168	30322.2375
1407.93234	30593.2375
1411.38068	30469.9375
1414.82669	29896.3375
1418.27039	28895.8375
1421.71177	27766.9375
1425.15083	26784.7375
1428.58758	26172.3375
1432.02203	26147.1375
1435.45416	26367.0375
1438.88399	26887.0375
1442.31151	27345.5375
1445.73673	27838.3375
1449.15965	28182.5375
1452.58027	28512.1375
1455.9986	28669.7375
1459.41463	28833.3375
1462.82837	29164.7375
1466.23982	29551.7375
1469.64898	29953.7375
1473.05586	30161.8375
1476.46045	30165.8375
1479.86276	29981.3375
1483.26279	29713.4375
1486.66054	29541.4375
1490.05602	29437.8375
1493.44922	29466.3375
1496.84016	29486.5375
1500.22882	29677.5375
1503.61521	30128.5375
1506.99934	30979.2375
1510.38121	31834.4375
1513.76081	32138.3375
1517.13816	31667.7375
1520.51324	30648.8375
1523.88607	29628.1375
1527.25665	28997.2375
1530.62498	28775.5375
1533.99105	28679.0375
1537.35488	28701.8375
1540.71647	28583.0375
1544.07581	28341.4375
1547.4329	28036.2375
1550.78776	27650.3375
1554.14038	27416.5375
1557.49077	27284.4375
1560.83892	27255.8375
1564.18484	27237.0375
1567.52853	27218.7375
1570.86999	27286.2375
1574.20922	27513.0375
1577.54624	27783.5375
1580.88103	27891.4375
1584.2136	28022.5375
1587.54395	28559.9375
1590.87208	29577.1375
1594.19801	30958.7375
1597.52172	32410.8375
1600.84321	33059.2375
1604.16251	32151.3375
1607.47959	30314.9375
1610.79447	28242.2375
1614.10715	26246.5375
1617.41763	24628.4375
1620.7259	23513.5375
1624.03199	22907.4375
1627.33587	22806.9375
1630.63757	23197.6375
1633.93707	24154.4375
1637.23439	25672.8375
1640.52951	27766.5375
1643.82246	30121.8375
1647.11321	31973.7375
1650.40179	32380.3375
1653.68819	30821.1375
1656.97241	27879.2375
1660.25446	24912.3375
1663.53433	22634.0375
1666.81203	21100.2375
1670.08756	20157.8375
1673.36092	19495.4375
1676.63211	19093.5375
1679.90115	18790.0375
1683.16801	18556.1375
1686.43272	18434.4375
1689.69527	18284.9375
1692.95567	18190.2375
1696.2139	18158.3375
1699.46999	18106.6375
1702.72392	18097.4375
1705.97571	18019.8375
1709.22535	17983.4375
1712.47284	17934.0375
1715.71819	17954.7375
1718.96139	17918.7375
1722.20246	17864.3375
1725.44139	17785.1375
1728.67818	17725.2375
1731.91284	17650.6375
1735.14537	17588.0375
1738.37576	17541.4375
1741.60403	17490.8375
1744.83017	17460.1375
1748.05418	17432.0375
1751.27607	17414.6375
1754.49584	17389.0375
1757.71349	17384.8375
1760.92903	17408.9375
1764.14244	17351.3375
1767.35375	17305.7375
1770.56294	17331.0375
1773.77002	17287.4375
1776.97499	17285.7375
1780.17785	17236.9375
1783.37861	17218.8375
1786.57727	17176.6375
1789.77382	17151.8375
1792.96828	17135.4375
1796.16064	17109.3375
1799.3509	17080.9375
1802.53907	17036.6375
1805.72514	17012.4375
1808.90913	16982.0375
1812.09102	16924.8375
1815.27083	16874.7375
1818.44856	16862.6375
1821.6242	16879.9375
1824.79776	16829.3375
1827.96924	16829.9375
1831.13864	16780.4375
1834.30597	16759.1375
1837.47122	16760.9375
1840.6344	16769.5375
1843.7955	16739.8375
1846.95454	16770.6375
1850.11151	16750.5375
1853.26642	16739.9375
1856.41926	16742.6375
1859.57004	16758.3375
1862.71876	16738.9375
1865.86542	16709.9375
1869.01003	16692.2375
1872.15258	16700.9375
1875.29308	16722.5375
1878.43152	16699.5375
1881.56792	16695.4375
1884.70227	16682.2375
1887.83457	16652.3375
1890.96482	16625.3375
1894.09304	16591.0375
1897.21921	16574.9375
1900.34335	16560.4375
1903.46544	16582.9375
1906.58551	16563.9375
1909.70353	16542.0375
1912.81953	16505.8375
1915.93349	16531.0375
1919.04543	16451.1375
1922.15534	16443.9375
1925.26322	16376.9375
1928.36908	16377.2375
1931.47292	16342.3375
1934.57473	16342.6375
1937.67453	16311.2375
1940.77232	16287.5375
1943.86808	16201.2375
1946.96184	16137.9375
1950.05358	16110.7375
1953.14331	16058.3375
1956.23103	15974.1375
1959.31675	15953.6375
1962.40046	15897.2375
1965.48217	15875.3375
1968.56188	15797.3375
1971.63959	15765.0375
1974.7153	15719.5375
1977.78901	15669.1375
1980.86073	15637.0375
1983.93046	15609.0375
1986.99819	15564.0375
1990.06394	15546.0375
1993.1277	15518.5375
1996.18947	15485.1375
1999.24925	15383.8375
2002.30706	15342.7375
2005.36288	15284.0375
2008.41672	15264.6375
2011.46859	15207.5375
2014.51848	15187.3375
2017.56639	15193.1375
2020.61233	15127.5375
2023.6563	15093.4375
2026.6983	15060.2375
2029.73833	15026.4375
2032.7764	14976.7375
2035.8125	14980.6375
2038.84664	14913.1375
2041.87881	14897.8375
2044.90903	14898.6375
2047.93729	14853.4375
2050.96359	14844.0375
2053.98794	14829.9375
2057.01034	14820.3375
2060.03078	14812.3375
2063.04927	14798.4375
2066.06582	14784.0375
2069.08042	14771.5375
2072.09307	14764.5375
2075.10378	14772.6375
2078.11255	14747.1375
2081.11938	14780.4375
2084.12426	14748.8375
2087.12722	14752.1375
2090.12824	14695.2375
2093.12732	14718.0375
2096.12447	14706.4375
2099.11969	14713.5375
2102.11299	14701.7375
2105.10435	14728.1375
2108.09379	14731.8375
2111.08131	14715.6375
2114.0669	14709.1375
2117.05057	14736.7375
2120.03233	14754.5375
2123.01216	14782.1375
2125.99008	14755.8375
2128.96609	14768.5375
2131.94018	14794.3375
2134.91236	14812.7375
2137.88263	14816.2375
2140.851	14808.8375
2143.81746	14833.8375
2146.78201	14843.4375
2149.74466	14855.6375
2152.7054	14829.3375
2155.66425	14833.7375
2158.6212	14829.5375
2161.57625	14825.6375
2164.52941	14818.7375
2167.48067	14818.5375
2170.43004	14835.5375
2173.37752	14788.5375
2176.32311	14811.2375
2179.26681	14817.6375
2182.20863	14819.5375
2185.14856	14832.4375
2188.08661	14804.4375
2191.02278	14847.5375
2193.95707	14820.4375
2196.88948	14768.9375
2199.82001	14828.2375
2202.74867	14798.9375
2205.67545	14778.1375
2208.60037	14779.3375
2211.52341	14731.6375
2214.44458	14752.4375
2217.36388	14700.1375
2220.28132	14695.4375
2223.1969	14668.0375
2226.11061	14651.3375
2229.02246	14617.7375
2231.93245	14583.8375
2234.84058	14556.2375
2237.74686	14520.5375
2240.65128	14514.4375
2243.55385	14475.5375
2246.45456	14456.7375
2249.35343	14446.5375
2252.25044	14436.2375
2255.14561	14396.5375
2258.03893	14408.8375
2260.93041	14376.2375
2263.82004	14341.8375
2266.70783	14306.2375
2269.59378	14239.0375
2272.4779	14186.5375
2275.36017	14193.1375
2278.24061	14146.3375
2281.11922	14158.1375
2283.996	14140.7375
2286.87094	14114.0375
2289.74405	14119.8375
2292.61534	14129.2375
2295.4848	14090.1375
2298.35243	14085.8375
2301.21824	14085.5375
2304.08223	14101.8375
2306.94439	14099.3375
2309.80474	14109.4375
2312.66327	14082.6375
2315.51999	14066.9375
2318.37489	14069.1375
2321.22797	14046.8375
2324.07925	14047.1375
2326.92871	14036.5375
2329.77637	13995.8375
2332.62222	13960.1375
2335.46626	13965.3375
2338.3085	13957.0375
2341.14893	13983.5375
2343.98756	13972.3375
2346.8244	13958.0375
2349.65943	13926.9375
2352.49267	13946.4375
2355.32411	13952.1375
2358.15376	13913.5375
2360.98161	13936.0375
2363.80768	13933.3375
2366.63195	13879.8375
2369.45444	13850.5375
2372.27514	13847.9375
2375.09405	13837.2375
2377.91118	13818.2375
2380.72652	13786.6375
2383.54009	13732.0375
2386.35187	13715.9375
2389.16188	13700.1375
2391.97011	13688.5375
2394.77657	13631.4375
2397.58125	13600.9375
2400.38416	13617.5375
2403.18529	13591.2375
2405.98466	13581.4375
2408.78226	13515.8375
2411.57809	13464.7375
2414.37216	13475.0375
2417.16446	13457.5375
2419.955	13443.4375
2422.74378	13467.1375
2425.5308	13457.9375
2428.31606	13428.4375
2431.09956	13429.1375
2433.88131	13415.0375
2436.6613	13418.3375
2439.43954	13418.2375
2442.21603	13404.6375
2444.99077	13382.6375
2447.76377	13391.1375
2450.53501	13384.2375
2453.30451	13388.0375
2456.07226	13337.0375
2458.83827	13331.0375
2461.60254	13361.0375
2464.36507	13326.0375
2467.12586	13321.9375
2469.88492	13318.5375
2472.64224	13307.4375
2475.39782	13287.0375
2478.15167	13314.0375
2480.90379	13314.1375
2483.65417	13325.1375
2486.40283	13333.0375
2489.14976	13329.7375
2491.89497	13341.4375
2494.63845	13325.8375
2497.3802	13327.6375
2500.12024	13311.9375
2502.85855	13289.7375
2505.59514	13318.1375
2508.33002	13288.3375
2511.06318	13268.6375
2513.79462	13245.7375
2516.52435	13251.4375
2519.25237	13228.8375
2521.97867	13215.2375
2524.70327	13173.1375
2527.42616	13176.5375
2530.14734	13211.9375
2532.86681	13188.8375
2535.58458	13194.3375
2538.30065	13179.8375
2541.01501	13195.6375
2543.72768	13148.7375
2546.43864	13136.9375
2549.14791	13113.6375
2551.85548	13140.7375
2554.56136	13105.7375
2557.26554	13069.0375
2559.96803	13063.6375
2562.66883	13025.0375
2565.36794	13019.5375
2568.06536	12973.0375
2570.7611	12960.5375
2573.45514	12939.1375
2576.14751	12960.5375
2578.83819	12926.8375
2581.52719	12918.8375
2584.21451	12925.0375
2586.90015	12911.3375
2589.58411	12882.9375
2592.2664	12869.3375
2594.94701	12844.2375
2597.62594	12878.5375
2600.30321	12841.6375
2602.9788	12826.3375
2605.65273	12796.8375
2608.32498	12817.6375
2610.99557	12785.2375
2613.66449	12782.8375
2616.33175	12771.4375
2618.99734	12805.8375
2621.66128	12765.3375
2624.32355	12781.1375
2626.98416	12769.2375
2629.64311	12740.9375
2632.30041	12739.7375
2634.95605	12721.7375
2637.61004	12711.7375
2640.26238	12684.0375
2642.91306	12699.1375
2645.56209	12699.5375
2648.20948	12700.0375
2650.85521	12632.5375
2653.4993	12673.2375
2656.14175	12669.2375
2658.78255	12681.8375
2661.42171	12667.5375
2664.05923	12720.5375
2666.6951	12711.0375
2669.32934	12707.4375
2671.96194	12727.4375
2674.59291	12693.2375
2677.22224	12671.9375
2679.84993	12701.7375
2682.476	12690.1375
2685.10043	12696.0375
2687.72324	12640.1375
2690.34441	12643.3375
2692.96396	12682.6375
2695.58188	12651.3375
2698.19818	12644.5375
2700.81285	12653.4375
2703.4259	12661.2375
2706.03733	12696.9375
2708.64714	12654.2375
2711.25533	12667.2375
2713.86191	12647.4375
2716.46687	12659.4375
2719.07021	12661.2375
2721.67194	12681.3375
2724.27206	12654.6375
2726.87057	12710.2375
2729.46747	12703.2375
2732.06276	12694.4375
2734.65644	12707.6375
2737.24852	12700.6375
2739.83899	12668.7375
2742.42786	12690.9375
2745.01513	12641.2375
2747.60079	12654.3375
2750.18486	12629.3375
2752.76733	12619.9375
2755.3482	12605.8375
2757.92747	12596.1375
2760.50515	12568.1375
2763.08123	12569.8375
2765.65573	12560.1375
2768.22863	12569.8375
2770.79994	12576.1375
2773.36967	12564.5375
2775.9378	12564.6375
2778.50435	12559.4375
2781.06932	12549.8375
2783.6327	12530.9375
2786.1945	12551.5375
2788.75471	12542.4375
2791.31335	12526.5375
2793.87041	12537.9375
2796.42589	12484.6375
2798.97979	12472.4375
2801.53212	12451.4375
2804.08288	12413.6375
2806.63206	12408.5375
2809.17967	12337.2375
2811.72571	12298.4375
2814.27018	12314.1375
2816.81308	12276.9375
2819.35442	12272.0375
2821.89419	12259.0375
2824.43239	12228.5375
2826.96904	12211.3375
2829.50412	12176.7375
2832.03763	12188.7375
2834.56959	12217.0375
2837.1	12174.0375
2839.62884	12183.1375
2842.15613	12172.0375
2844.68186	12223.5375
2847.20604	12222.3375
2849.72867	12257.7375
2852.24974	12226.6375
2854.76927	12201.5375
2857.28724	12200.8375
2859.80367	12174.5375
2862.31855	12149.8375
2864.83189	12132.4375
2867.34368	12086.8375
2869.85393	12091.2375
2872.36264	12105.6375
2874.8698	12089.0375
2877.37543	12112.3375
2879.87952	12100.1375
2882.38207	12087.1375
2884.88308	12071.6375
2887.38256	12075.5375
2889.88051	12111.5375
2892.37692	12092.9375
2894.8718	12079.3375
2897.36515	12099.1375
2899.85698	12084.1375
2902.34727	12152.6375
2904.83604	12141.1375
2907.32328	12177.0375
2909.809	12149.0375
2912.29319	12170.9375
2914.77587	12145.7375
2917.25702	12156.9375
2919.73665	12128.4375
2922.21476	12155.4375
2924.69136	12140.1375
2927.16644	12134.0375
2929.64	12137.2375
2932.11205	12114.5375
2934.58258	12092.5375
2937.05161	12108.1375
2939.51912	12093.6375
2941.98513	12104.8375
2944.44962	12060.7375
2946.91261	11983.8375
2949.37409	12036.3375
2951.83407	12038.4375
2954.29254	11974.0375
2956.74951	12016.0375
2959.20498	12000.7375
2961.65895	11941.5375
2964.11142	11971.3375
2966.56239	11941.0375
2969.01186	11944.8375
2971.45984	11930.4375
2973.90632	11901.2375
2976.35131	11876.6375
2978.7948	11894.7375
2981.23681	11836.1375
2983.67732	11823.3375
2986.11635	11826.2375
2988.55388	11770.1375
2990.98993	11737.0375
2993.4245	11726.2375
2995.85758	11693.9375
2998.28917	11650.8375
3000.71928	11653.3375
3003.14791	11630.2375
3005.57506	11647.2375
3008.00073	11626.4375
3010.42493	11598.6375
3012.84764	11583.6375
3015.26888	11542.6375
3017.68865	11507.2375
3020.10694	11507.8375
3022.52376	11524.1375
3024.9391	11479.2375
3027.35298	11453.6375
3029.76539	11480.4375
3032.17632	11453.0375
3034.5858	11461.9375
3036.9938	11463.0375
3039.40034	11466.7375
3041.80542	11471.4375
3044.20903	11402.2375
3046.61118	11394.7375
3049.01187	11382.9375
3051.4111	11379.4375
3053.80888	11347.4375
3056.20519	11351.5375
3058.60005	11306.7375
3060.99345	11291.6375
3063.3854	11263.5375
3065.7759	11242.2375
3068.16494	11242.1375
3070.55254	11204.5375
3072.93868	11192.3375
3075.32338	11146.8375
3077.70662	11156.2375
3080.08842	11115.5375
3082.46878	11085.1375
3084.84769	11091.8375
3087.22515	11084.9375
3089.60118	11084.4375
3091.97576	11075.9375
3094.3489	11060.7375
3096.72061	11076.1375
3099.09087	11083.1375
3101.4597	11058.8375
3103.82709	11072.0375
3106.19305	11041.8375
3108.55757	11062.6375
3110.92066	11016.3375
3113.28232	11001.8375
3115.64255	10981.6375
3118.00134	10981.2375
3120.35871	10947.0375
3122.71466	10948.1375
3125.06917	10901.1375
3127.42226	10872.8375
3129.77393	10888.9375
3132.12417	10868.5375
3134.47299	10889.9375
3136.82039	10871.3375
3139.16636	10853.3375
3141.51092	10854.1375
3143.85406	10861.5375
3146.19579	10856.6375
3148.53609	10843.2375
3150.87499	10853.1375
3153.21246	10841.8375
3155.54853	10913.1375
3157.88318	10860.3375
3160.21642	10912.7375
3162.54826	10872.6375
3164.87868	10892.1375
3167.2077	10905.9375
3169.5353	10886.3375
3171.86151	10912.3375
3174.18631	10918.7375
3176.5097	10892.7375
3178.83169	10868.8375
3181.15228	10891.1375
3183.47147	10874.8375
3185.78926	10864.2375
3188.10565	10837.9375
3190.42065	10847.2375
3192.73424	10808.5375
3195.04645	10810.7375
3197.35725	10796.5375
3199.66667	10817.1375
3201.97469	10844.9375
3204.28132	10838.1375
3206.58656	10862.4375
3208.8904	10847.5375
3211.19287	10818.4375
3213.49394	10848.0375
3215.79363	10876.7375
3218.09193	10877.3375
3220.38884	10868.3375
3222.68438	10874.8375
3224.97853	10837.9375
3227.2713	10835.8375
3229.56269	10815.2375
3231.8527	10821.9375
3234.14133	10788.2375
3236.42858	10796.6375
3238.71446	10800.6375
3240.99896	10766.7375
3243.28209	10740.0375
3245.56384	10720.7375
3247.84423	10722.6375
3250.12324	10726.9375
3252.40088	10680.1375
3254.67715	10674.3375
3256.95205	10674.9375
3259.22558	10662.8375
3261.49775	10647.0375
3263.76855	10637.4375
3266.03799	10642.3375
3268.30606	10615.4375
3270.57277	10601.7375
3272.83812	10588.1375
3275.10211	10580.1375
3277.36474	10563.0375
3279.62601	10581.0375
3281.88593	10528.6375
3284.14448	10537.5375
3286.40168	10549.2375
3288.65753	10536.9375
3290.91202	10522.4375
3293.16516	10498.6375
3295.41695	10475.4375
3297.66738	10429.3375
3299.91647	10389.3375
3302.16421	10304.1375
3304.4106	10229.1375
3306.65564	10211.4375
3308.89933	10127.1375
3311.14169	10059.9375
3313.38269	9956.0375
3315.62236	9912.8375
3317.86068	9823.5375
3320.09766	9739.8375
3322.3333	9705.9375
3324.5676	9636.6375
3326.80056	9503.2375
3329.03219	9434.8375
3331.26248	3.0375
3333.49143	0.8375
3335.71905	-1.1625
