Data from AgNP_FTO_APTES_UA_10uM_CRN_2uM_R6G_10uM_NaF_0.1M_Addition_RamanShift__21__14-21-20-604.txt Node

Date: Thu Feb 10 14:21:20 GMT 2022
User: TCL
Spectrometer: QEP01345
Trigger mode: 4
Integration Time (sec): 7.000000E0
Scans to average: 10
Electric dark correction enabled: true
Nonlinearity correction enabled: false
Boxcar width: 0
XAxis mode: Raman Shifts
Number of Pixels in Spectrum: 1044
>>>>>Begin Spectral Data<<<<<
46.04893	-0.7
50.45542	-0.9
54.85868	-2.1
59.25871	-1.1
63.6555	70.1
68.04907	78.3
72.43941	76
76.82654	76.8
81.21044	85.8
85.59113	81.3
89.96862	89.4
94.34289	95.3
98.71396	92.2
103.08183	97.6
107.4465	101.8
111.80798	100.9
116.16626	104.1
120.52136	108.2
124.87327	118.7
129.222	118.7
133.56755	129.9
137.90993	137.3
142.24913	150.7
146.58517	169.9
150.91804	198.9
155.24774	235.8
159.57429	288.9
163.89768	371.7
168.21792	496
172.53501	683.3
176.84895	939.4
181.15975	1322.6
185.46741	1856.9
189.77193	2564.8
194.07331	3408.4
198.37157	4395.6
202.6667	5438
206.9587	6444.7
211.24758	7448.9
215.53334	8470.4
219.81599	9567.8
224.09553	10755.6
228.37195	12094.4
232.64527	13542.3
236.91549	15116.3
241.18261	16610.9
245.44663	18020.6
249.70755	19237.3
253.96539	20329.6
258.22014	21261.2
262.4718	22012.8
266.72039	22557.4
270.96589	22926.1
275.20832	23001.7
279.44768	22920.9
283.68397	22719
287.91719	22581.7
292.14735	22538.2
296.37445	22571.1
300.59849	22698.9
304.81948	22826.6
309.03742	22804.8
313.25231	22481.2
317.46415	21863.7
321.67296	21074.1
325.87872	20478.7
330.08145	20110.4
334.28114	20125.4
338.47781	20240
342.67145	20569.5
346.86207	20944.2
351.04966	21448.7
355.23424	22040.5
359.4158	22464
363.59435	22770.8
367.76989	22948.6
371.94243	23093.3
376.11196	23146.1
380.27849	23227.7
384.44203	23309.1
388.60257	23414.3
392.76012	23608.2
396.91468	23891.7
401.06626	24276.9
405.21485	24538.8
409.36047	24382.2
413.50311	23904.8
417.64277	23523.5
421.77947	23405
425.9132	23468.5
430.04396	23592.7
434.17176	23748.7
438.2966	23917.7
442.41849	24368.2
446.53742	25037.4
450.6534	25784.3
454.76644	26404.1
458.87653	26643.9
462.98368	26508.8
467.08789	26176.6
471.18916	25754.4
475.2875	25406.3
479.38291	25169
483.4754	25016.7
487.56496	24667.3
491.6516	24187.6
495.73531	23807.3
499.81612	23594.8
503.89401	23677.2
507.96899	23761.5
512.04106	23681
516.11023	23657.1
520.1765	23514.6
524.23987	23443.7
528.30034	23175.2
532.35792	22919
536.41261	22599.3
540.46441	22299.7
544.51333	22307.4
548.55936	22592.2
552.60252	23179.7
556.64279	23793.1
560.6802	24125.5
564.71473	24349.5
568.7464	24755.9
572.7752	25371.9
576.80114	25704.4
580.82422	25926.3
584.84444	26187.1
588.86181	26495.3
592.87633	26848.4
596.888	27063
600.89682	27192.5
604.9028	28199.2
608.90594	31173.5
612.90624	34405.5
616.90371	32206.3
620.89834	26307.3
624.89015	23957.9
628.87913	23785.3
632.86528	23712.2
636.84862	23422.8
640.82913	22894.9
644.80683	22198.9
648.78172	21710
652.75379	21597.1
656.72306	21909.9
660.68952	22320.2
664.65319	22237.2
668.61405	21755
672.57211	21584.7
676.52738	21557.4
680.47986	21553.8
684.42955	21412.2
688.37646	21394.7
692.32058	21502.8
696.26192	21766.5
700.20048	22074.3
704.13626	22220.4
708.06928	22146.6
711.99952	21947.1
715.927	21852.7
719.85171	21854.9
723.77365	21809.3
727.69284	21550.2
731.60928	21329.1
735.52295	21291.4
739.43388	21287.4
743.34206	21384
747.24749	21517.9
751.15017	21753.4
755.05012	22150
758.94733	22908.5
762.8418	24298.2
766.73354	26504.6
770.62254	28613.3
774.50882	29144.6
778.39237	27665.2
782.27321	25249.8
786.15132	23327.3
790.02671	22153.7
793.89938	21654.4
797.76935	21459
801.6366	21400.2
805.50115	21331.8
809.36299	21168.9
813.22213	20974.5
817.07857	20874.8
820.93231	20832.1
824.78336	20749.2
828.63172	20707.6
832.47738	20711.8
836.32036	20788.5
840.16066	20883.1
843.99827	21029.1
847.8332	20956.9
851.66546	20782.7
855.49504	20730.8
859.32195	20724
863.1462	20584.7
866.96777	20479.7
870.78668	20408.3
874.60293	20405.7
878.41652	20462
882.22745	20509.9
886.03573	20529.4
889.84136	20511.5
893.64433	20437.7
897.44466	20365.6
901.24235	20249.4
905.0374	20181.5
908.8298	20155.1
912.61957	20231
916.40671	20420.1
920.19121	20730.1
923.97308	21051.7
927.75233	21195.7
931.52895	21173.3
935.30295	20928.5
939.07433	20462.5
942.84309	20007.6
946.60924	19832.8
950.37278	19743.1
954.13371	19664.7
957.89203	19508.9
961.64774	19417.5
965.40086	19370.8
969.15137	19286
972.89929	19212.7
976.64461	19188.2
980.38733	19191.1
984.12747	19312.1
987.86502	19560.8
991.59999	19922.1
995.33237	20400.4
999.06217	21246.8
1002.78939	22189
1006.51404	22595.7
1010.23611	22743.4
1013.95561	22912
1017.67255	22961
1021.38692	22657.2
1025.09872	22460.4
1028.80796	22870.9
1032.51465	23849.3
1036.21877	24777.2
1039.92035	24864.4
1043.61937	24314.8
1047.31584	23389
1051.00976	22454.2
1054.70114	21999.2
1058.38998	21924.5
1062.07627	22003.6
1065.76003	22009.1
1069.44126	22133
1073.11995	22333.9
1076.79611	22595.9
1080.46974	22812.9
1084.14085	23090.2
1087.80943	23340.9
1091.47549	23518.5
1095.13903	23373.4
1098.80005	22995.9
1102.45857	22518
1106.11456	22182.9
1109.76805	22144
1113.41903	22319.5
1117.06751	22564.8
1120.71348	22845.9
1124.35696	23192
1127.99793	23517.7
1131.63641	23619.1
1135.2724	23467.5
1138.90589	23145.2
1142.5369	22932.1
1146.16542	22871.2
1149.79145	22919.6
1153.415	23084.6
1157.03607	23449.2
1160.65467	24110.6
1164.27079	25193.4
1167.88443	26683.1
1171.49561	28578.7
1175.10432	31240.9
1178.71056	34546.2
1182.31434	37591
1185.91565	39285.2
1189.51451	39206.7
1193.11091	37796.3
1196.70485	35711.2
1200.29634	33703.4
1203.88538	32180.7
1207.47197	30993.6
1211.05612	30060.9
1214.63782	29426.7
1218.21708	29123.6
1221.79391	29145.9
1225.36829	29170.9
1228.94024	28861.3
1232.50976	28208.6
1236.07685	27632.9
1239.6415	27332.1
1243.20374	27248.5
1246.76355	27386.6
1250.32093	27846.6
1253.8759	28610
1257.42845	29532.5
1260.97859	30508.4
1264.52631	31439.1
1268.07163	32467.2
1271.61453	33567.2
1275.15503	34753
1278.69312	35966.9
1282.22882	36987.4
1285.76211	37818.7
1289.29301	38549
1292.82151	39618.1
1296.34761	41235.5
1299.87133	43597.6
1303.39266	46617.3
1306.9116	50269.1
1310.42815	54045.4
1313.94233	56360
1317.45412	56370.4
1320.96354	54850.8
1324.47058	52950.1
1327.97525	51282.5
1331.47754	50154.1
1334.97747	49688.9
1338.47502	49699.7
1341.97022	49844.2
1345.46305	49620.6
1348.95352	48945.4
1352.44163	48422
1355.92738	49077.1
1359.41078	51352.1
1362.89183	53534.6
1366.37053	52193.4
1369.84688	47267.6
1373.32088	41781.2
1376.79254	38210.2
1380.26186	36718.9
1383.72883	36319.6
1387.19347	36097.1
1390.65578	35854.5
1394.11575	35855.8
1397.57339	36350.4
1401.0287	37152.6
1404.48168	37888.6
1407.93234	38175.7
1411.38068	37842.1
1414.82669	36849.5
1418.27039	35384.9
1421.71177	33836.7
1425.15083	32521.7
1428.58758	31779.5
1432.02203	31796.7
1435.45416	32376.5
1438.88399	33213.7
1442.31151	33901.5
1445.73673	34501.3
1449.15965	35000.7
1452.58027	35443.2
1455.9986	35701.1
1459.41463	36074.3
1462.82837	36678.7
1466.23982	37451.5
1469.64898	38173.2
1473.05586	38491.6
1476.46045	38449.1
1479.86276	38175.8
1483.26279	37777.8
1486.66054	37562.9
1490.05602	37684.6
1493.44922	38029.7
1496.84016	38365.8
1500.22882	39267.8
1503.61521	40692.3
1506.99934	42605.3
1510.38121	44329.2
1513.76081	44872.4
1517.13816	43713.4
1520.51324	41530
1523.88607	39378.7
1527.25665	37999.7
1530.62498	37343.6
1533.99105	36996.6
1537.35488	36691.4
1540.71647	36386
1544.07581	35845.1
1547.4329	35263.2
1550.78776	34764
1554.14038	34426.5
1557.49077	34204.6
1560.83892	34058.2
1564.18484	34031.8
1567.52853	34051
1570.86999	34131.9
1574.20922	34470.8
1577.54624	34728.1
1580.88103	34666.1
1584.2136	34588.2
1587.54395	35476.9
1590.87208	37213.2
1594.19801	39863.4
1597.52172	42703.5
1600.84321	43650.2
1604.16251	41859
1607.47959	38541.6
1610.79447	34889.5
1614.10715	31553.2
1617.41763	28877.1
1620.7259	27009
1624.03199	26065.3
1627.33587	26085.7
1630.63757	26982.8
1633.93707	28896.7
1637.23439	31804.9
1640.52951	35581.3
1643.82246	39656
1647.11321	42657.8
1650.40179	43059.1
1653.68819	40124.8
1656.97241	34758.4
1660.25446	29461.5
1663.53433	25609.8
1666.81203	23132.5
1670.08756	21578.8
1673.36092	20585.9
1676.63211	19929.7
1679.90115	19475.4
1683.16801	19139.8
1686.43272	18866.8
1689.69527	18701.6
1692.95567	18509.7
1696.2139	18450.6
1699.46999	18369.4
1702.72392	18316.3
1705.97571	18224.9
1709.22535	18206.4
1712.47284	18140.3
1715.71819	18111.1
1718.96139	18078.8
1722.20246	18013.7
1725.44139	17929.2
1728.67818	17839.2
1731.91284	17695.4
1735.14537	17598.2
1738.37576	17507.7
1741.60403	17465.9
1744.83017	17367.4
1748.05418	17319.4
1751.27607	17281.3
1754.49584	17259.8
1757.71349	17253.3
1760.92903	17261.1
1764.14244	17224.7
1767.35375	17225.6
1770.56294	17176.2
1773.77002	17141
1776.97499	17104.2
1780.17785	17064.1
1783.37861	17038.6
1786.57727	17002.3
1789.77382	16950.7
1792.96828	16920
1796.16064	16885.9
1799.3509	16864.4
1802.53907	16858.9
1805.72514	16779.8
1808.90913	16743.5
1812.09102	16704.9
1815.27083	16701.7
1818.44856	16674.7
1821.6242	16610.4
1824.79776	16637
1827.96924	16595.1
1831.13864	16603
1834.30597	16601.3
1837.47122	16579.3
1840.6344	16607.1
1843.7955	16615.8
1846.95454	16611
1850.11151	16628.1
1853.26642	16584.3
1856.41926	16597
1859.57004	16591.4
1862.71876	16603.1
1865.86542	16605.1
1869.01003	16581.6
1872.15258	16543.7
1875.29308	16593.7
1878.43152	16545.1
1881.56792	16525.9
1884.70227	16579.3
1887.83457	16555.6
1890.96482	16513.4
1894.09304	16504.5
1897.21921	16485.9
1900.34335	16466.5
1903.46544	16452.9
1906.58551	16470.8
1909.70353	16448.4
1912.81953	16450.7
1915.93349	16451.9
1919.04543	16408.1
1922.15534	16356.2
1925.26322	16290.6
1928.36908	16289.7
1931.47292	16231.7
1934.57473	16196.4
1937.67453	16132.6
1940.77232	16069.4
1943.86808	16013
1946.96184	15916.9
1950.05358	15874.8
1953.14331	15840
1956.23103	15780.1
1959.31675	15706.6
1962.40046	15665.9
1965.48217	15660.8
1968.56188	15594.4
1971.63959	15530.3
1974.7153	15516.1
1977.78901	15462.6
1980.86073	15393.7
1983.93046	15354.9
1986.99819	15315.6
1990.06394	15288.5
1993.1277	15263.2
1996.18947	15207.3
1999.24925	15127.8
2002.30706	15088.7
2005.36288	15050.3
2008.41672	14965.1
2011.46859	14953.9
2014.51848	14909.9
2017.56639	14910.5
2020.61233	14868.5
2023.6563	14840.8
2026.6983	14820.3
2029.73833	14757.8
2032.7764	14777.4
2035.8125	14747.8
2038.84664	14701.7
2041.87881	14663.9
2044.90903	14661.4
2047.93729	14630.7
2050.96359	14640.3
2053.98794	14618
2057.01034	14589
2060.03078	14590
2063.04927	14577.3
2066.06582	14573.1
2069.08042	14554.2
2072.09307	14554.8
2075.10378	14545.4
2078.11255	14483.9
2081.11938	14509.7
2084.12426	14465
2087.12722	14472.1
2090.12824	14467.4
2093.12732	14448.2
2096.12447	14413.8
2099.11969	14449.8
2102.11299	14457.2
2105.10435	14463.4
2108.09379	14454.8
2111.08131	14478.6
2114.0669	14481.3
2117.05057	14490.4
2120.03233	14478.4
2123.01216	14498.9
2125.99008	14501.8
2128.96609	14528.8
2131.94018	14574.3
2134.91236	14564.3
2137.88263	14562.7
2140.851	14562.7
2143.81746	14602.5
2146.78201	14595.5
2149.74466	14603.3
2152.7054	14585.7
2155.66425	14564.5
2158.6212	14541.4
2161.57625	14535.4
2164.52941	14542.7
2167.48067	14546.8
2170.43004	14565.1
2173.37752	14521.6
2176.32311	14559.5
2179.26681	14525.6
2182.20863	14515.9
2185.14856	14523.1
2188.08661	14547.8
2191.02278	14558.1
2193.95707	14558.9
2196.88948	14574.6
2199.82001	14572.8
2202.74867	14547.2
2205.67545	14546.3
2208.60037	14514.6
2211.52341	14530.3
2214.44458	14529.9
2217.36388	14517.1
2220.28132	14509.5
2223.1969	14493.2
2226.11061	14459.8
2229.02246	14427.2
2231.93245	14396.1
2234.84058	14354.6
2237.74686	14294.2
2240.65128	14311.3
2243.55385	14318.2
2246.45456	14266.4
2249.35343	14244.7
2252.25044	14237.1
2255.14561	14211.2
2258.03893	14196.6
2260.93041	14155
2263.82004	14119.8
2266.70783	14103
2269.59378	14037.3
2272.4779	14025.2
2275.36017	13956.4
2278.24061	13974.4
2281.11922	13938
2283.996	13925.2
2286.87094	13924.9
2289.74405	13912.4
2292.61534	13920.1
2295.4848	13915.4
2298.35243	13912.7
2301.21824	13915.7
2304.08223	13915.1
2306.94439	13958.3
2309.80474	13961.2
2312.66327	13985.8
2315.51999	13966.6
2318.37489	13977.2
2321.22797	13952.9
2324.07925	13962.6
2326.92871	13938.5
2329.77637	13946.2
2332.62222	13927.9
2335.46626	13952.4
2338.3085	13943
2341.14893	13984.5
2343.98756	14004.3
2346.8244	14015.8
2349.65943	14005.5
2352.49267	13991
2355.32411	13998.1
2358.15376	13987.4
2360.98161	13998.6
2363.80768	13980.5
2366.63195	13967.5
2369.45444	13896.2
2372.27514	13856.8
2375.09405	13830.3
2377.91118	13791.1
2380.72652	13771.7
2383.54009	13731.7
2386.35187	13703.1
2389.16188	13650.7
2391.97011	13618.9
2394.77657	13618.8
2397.58125	13638.1
2400.38416	13587
2403.18529	13569.4
2405.98466	13563.3
2408.78226	13492.9
2411.57809	13483.6
2414.37216	13465.1
2417.16446	13429.5
2419.955	13404.4
2422.74378	13420.4
2425.5308	13376.8
2428.31606	13382.6
2431.09956	13380.8
2433.88131	13394.5
2436.6613	13398.7
2439.43954	13391.5
2442.21603	13408.4
2444.99077	13381.6
2447.76377	13353.5
2450.53501	13353.6
2453.30451	13331.7
2456.07226	13367.2
2458.83827	13369.3
2461.60254	13334.5
2464.36507	13345.8
2467.12586	13339.6
2469.88492	13362.2
2472.64224	13388.2
2475.39782	13360.1
2478.15167	13404.8
2480.90379	13455.7
2483.65417	13493.5
2486.40283	13482.9
2489.14976	13455.5
2491.89497	13492
2494.63845	13497.5
2497.3802	13510.9
2500.12024	13485.4
2502.85855	13464.7
2505.59514	13438.9
2508.33002	13424.2
2511.06318	13416.3
2513.79462	13397.5
2516.52435	13379.9
2519.25237	13411.6
2521.97867	13385.6
2524.70327	13350.2
2527.42616	13334.9
2530.14734	13377.2
2532.86681	13350.3
2535.58458	13342.9
2538.30065	13356.7
2541.01501	13335.1
2543.72768	13361.1
2546.43864	13353.8
2549.14791	13337.6
2551.85548	13355.3
2554.56136	13336.4
2557.26554	13317.8
2559.96803	13294.6
2562.66883	13256.1
2565.36794	13253.7
2568.06536	13271.4
2570.7611	13240.6
2573.45514	13209.2
2576.14751	13236.4
2578.83819	13236.7
2581.52719	13234.9
2584.21451	13236.2
2586.90015	13257.7
2589.58411	13229.1
2592.2664	13243.3
2594.94701	13236.9
2597.62594	13220.3
2600.30321	13201.6
2602.9788	13215.2
2605.65273	13209.3
2608.32498	13221.6
2610.99557	13223.6
2613.66449	13212
2616.33175	13239
2618.99734	13269.8
2621.66128	13273.3
2624.32355	13274
2626.98416	13287.4
2629.64311	13261.8
2632.30041	13270.8
2634.95605	13250.2
2637.61004	13225
2640.26238	13209.3
2642.91306	13183.6
2645.56209	13197.5
2648.20948	13194.1
2650.85521	13164.1
2653.4993	13146.6
2656.14175	13165.6
2658.78255	13124.5
2661.42171	13164.5
2664.05923	13187.3
2666.6951	13206.5
2669.32934	13220.3
2671.96194	13228.9
2674.59291	13256.2
2677.22224	13204.7
2679.84993	13210.6
2682.476	13202.9
2685.10043	13192.4
2687.72324	13162.8
2690.34441	13137.4
2692.96396	13163.9
2695.58188	13158.4
2698.19818	13118.2
2700.81285	13124.9
2703.4259	13140.4
2706.03733	13148.5
2708.64714	13137.5
2711.25533	13147.2
2713.86191	13171.8
2716.46687	13189.7
2719.07021	13190.1
2721.67194	13204.8
2724.27206	13187.5
2726.87057	13204.8
2729.46747	13201.7
2732.06276	13215.8
2734.65644	13204
2737.24852	13201.2
2739.83899	13194.7
2742.42786	13231.8
2745.01513	13186.4
2747.60079	13186.8
2750.18486	13186.4
2752.76733	13186.2
2755.3482	13146.5
2757.92747	13132.1
2760.50515	13146.1
2763.08123	13161.3
2765.65573	13120.7
2768.22863	13128.5
2770.79994	13130.3
2773.36967	13151.8
2775.9378	13130.6
2778.50435	13140.4
2781.06932	13171.6
2783.6327	13155.9
2786.1945	13172.3
2788.75471	13140
2791.31335	13116.4
2793.87041	13127
2796.42589	13120.3
2798.97979	13104.9
2801.53212	13061.8
2804.08288	13070.1
2806.63206	13012.5
2809.17967	12980.6
2811.72571	13009.9
2814.27018	12966.9
2816.81308	12954.1
2819.35442	12917
2821.89419	12906.6
2824.43239	12906.8
2826.96904	12920.3
2829.50412	12888.2
2832.03763	12871.5
2834.56959	12883.3
2837.1	12867.7
2839.62884	12902.2
2842.15613	12901.8
2844.68186	12891.4
2847.20604	12903.9
2849.72867	12934.6
2852.24974	12888
2854.76927	12868.8
2857.28724	12874.3
2859.80367	12835.6
2862.31855	12821.9
2864.83189	12823
2867.34368	12829.2
2869.85393	12788.5
2872.36264	12814.4
2874.8698	12820.6
2877.37543	12822.7
2879.87952	12814.3
2882.38207	12805
2884.88308	12833
2887.38256	12831.2
2889.88051	12810.9
2892.37692	12829.3
2894.8718	12834.8
2897.36515	12862.2
2899.85698	12872.5
2902.34727	12905.4
2904.83604	12931.5
2907.32328	12966.8
2909.809	12972.9
2912.29319	12971.9
2914.77587	12954.7
2917.25702	12930.3
2919.73665	12923.1
2922.21476	12941.7
2924.69136	12937.3
2927.16644	12894.5
2929.64	12852.1
2932.11205	12846.7
2934.58258	12838.9
2937.05161	12826.9
2939.51912	12813.2
2941.98513	12803.6
2944.44962	12786.9
2946.91261	12747.8
2949.37409	12802.6
2951.83407	12739.1
2954.29254	12723.2
2956.74951	12720.8
2959.20498	12726.5
2961.65895	12716.9
2964.11142	12711.2
2966.56239	12715.9
2969.01186	12692.6
2971.45984	12651
2973.90632	12648
2976.35131	12614
2978.7948	12577.7
2981.23681	12527.3
2983.67732	12532.6
2986.11635	12490.7
2988.55388	12468.4
2990.98993	12433.4
2993.4245	12413.5
2995.85758	12396.6
2998.28917	12367.9
3000.71928	12361.8
3003.14791	12325.6
3005.57506	12332.1
3008.00073	12284.9
3010.42493	12134.2
3012.84764	12221.2
3015.26888	12196.3
3017.68865	12191.8
3020.10694	12153.6
3022.52376	12125.6
3024.9391	12095.1
3027.35298	12127.4
3029.76539	12128.4
3032.17632	12127.1
3034.5858	12105.2
3036.9938	12103.5
3039.40034	12078.3
3041.80542	12106.1
3044.20903	12055.8
3046.61118	12073.3
3049.01187	12023
3051.4111	12023.6
3053.80888	12014.9
3056.20519	11980
3058.60005	11955
3060.99345	11935.5
3063.3854	11916.6
3065.7759	11860.7
3068.16494	11862.6
3070.55254	11823.7
3072.93868	11797
3075.32338	11762.9
3077.70662	11711.9
3080.08842	11698
3082.46878	11684.6
3084.84769	11664.8
3087.22515	11690.3
3089.60118	11670.1
3091.97576	11666
3094.3489	11632
3096.72061	11671.7
3099.09087	11666.8
3101.4597	11638.6
3103.82709	11631.5
3106.19305	11625.5
3108.55757	11619.7
3110.92066	11615.3
3113.28232	11572.4
3115.64255	11558.7
3118.00134	11514.7
3120.35871	11509
3122.71466	11499.7
3125.06917	11475.8
3127.42226	11466.6
3129.77393	11476.3
3132.12417	11450.6
3134.47299	11397.3
3136.82039	11421.2
3139.16636	11424.5
3141.51092	11428.1
3143.85406	11437
3146.19579	11418.3
3148.53609	11426
3150.87499	11387.6
3153.21246	11391.2
3155.54853	11421.4
3157.88318	11460.3
3160.21642	11453.5
3162.54826	11453.9
3164.87868	11461.8
3167.2077	11445.6
3169.5353	11478.6
3171.86151	11465.9
3174.18631	11468.9
3176.5097	11451.3
3178.83169	11422.5
3181.15228	11433.1
3183.47147	11404.2
3185.78926	11402.9
3188.10565	11387.2
3190.42065	11362.7
3192.73424	11352.2
3195.04645	11383.6
3197.35725	11383.9
3199.66667	11392
3201.97469	11401.8
3204.28132	11394.2
3206.58656	11427.8
3208.8904	11397.6
3211.19287	11383.6
3213.49394	11403.3
3215.79363	11400.2
3218.09193	11433.5
3220.38884	11422.9
3222.68438	11419
3224.97853	11422.3
3227.2713	11430.5
3229.56269	11420.8
3231.8527	11399.3
3234.14133	11365.3
3236.42858	11365.9
3238.71446	11362.4
3240.99896	11328.5
3243.28209	11313.4
3245.56384	11331.1
3247.84423	11337.3
3250.12324	11277.6
3252.40088	11270.5
3254.67715	11254.7
3256.95205	11265
3259.22558	11256.4
3261.49775	11235.9
3263.76855	11232.9
3266.03799	11214
3268.30606	11224
3270.57277	11201.1
3272.83812	11151.2
3275.10211	11143.2
3277.36474	11152.9
3279.62601	11128.1
3281.88593	11082.7
3284.14448	11113.7
3286.40168	11124.2
3288.65753	11124.5
3290.91202	11127.5
3293.16516	11099.9
3295.41695	11086.2
3297.66738	11041.3
3299.91647	10996.9
3302.16421	10890.2
3304.4106	10868.6
3306.65564	10766
3308.89933	10725.3
3311.14169	10636
3313.38269	10559.5
3315.62236	10489.4
3317.86068	10397.9
3320.09766	10330.6
3322.3333	10265.5
3324.5676	10206.9
3326.80056	10074.5
3329.03219	9993.6
3331.26248	4.6
3333.49143	0
3335.71905	0.4
