Data from AgNP_FTO_APTES_UA_10uM_CRN_20uM_R6G_10uM_NaF_0.1M_Addition_RamanShift__20__16-26-10-758.txt Node

Date: Thu Feb 10 16:26:10 GMT 2022
User: TCL
Spectrometer: QEP01345
Trigger mode: 4
Integration Time (sec): 7.000000E0
Scans to average: 10
Electric dark correction enabled: true
Nonlinearity correction enabled: false
Boxcar width: 0
XAxis mode: Raman Shifts
Number of Pixels in Spectrum: 1044
>>>>>Begin Spectral Data<<<<<
46.04893	0.1875
50.45542	-0.3125
54.85868	-2.1125
59.25871	-1.7125
63.6555	66.7875
68.04907	69.6875
72.43941	76.4875
76.82654	76.0875
81.21044	80.8875
85.59113	83.0875
89.96862	87.5875
94.34289	90.5875
98.71396	89.9875
103.08183	95.0875
107.4465	101.6875
111.80798	97.6875
116.16626	103.2875
120.52136	105.2875
124.87327	111.5875
129.222	113.8875
133.56755	123.4875
137.90993	131.2875
142.24913	144.3875
146.58517	165.4875
150.91804	188.5875
155.24774	225.0875
159.57429	276.6875
163.89768	353.4875
168.21792	469.4875
172.53501	638.4875
176.84895	889.9875
181.15975	1252.9875
185.46741	1758.4875
189.77193	2424.4875
194.07331	3228.3875
198.37157	4166.6875
202.6667	5133.0875
206.9587	6097.0875
211.24758	7030.1875
215.53334	7966.1875
219.81599	8962.1875
224.09553	10051.4875
228.37195	11232.9875
232.64527	12586.7875
236.91549	14014.3875
241.18261	15437.7875
245.44663	16749.3875
249.70755	17980.8875
253.96539	19052.3875
258.22014	20016.9875
262.4718	20791.4875
266.72039	21354.2875
270.96589	21737.3875
275.20832	21853.4875
279.44768	21860.4875
283.68397	21789.3875
287.91719	21699.7875
292.14735	21652.8875
296.37445	21692.5875
300.59849	21703.0875
304.81948	21667.6875
309.03742	21446.0875
313.25231	21112.3875
317.46415	20574.6875
321.67296	20009.5875
325.87872	19525.3875
330.08145	19351.6875
334.28114	19372.7875
338.47781	19458.2875
342.67145	19739.0875
346.86207	20028.3875
351.04966	20387.0875
355.23424	20799.4875
359.4158	21135.7875
363.59435	21337.5875
367.76989	21512.7875
371.94243	21662.0875
376.11196	21781.4875
380.27849	21826.9875
384.44203	21990.4875
388.60257	22177.3875
392.76012	22362.8875
396.91468	22630.2875
401.06626	22958.0875
405.21485	23174.8875
409.36047	23089.9875
413.50311	22806.2875
417.64277	22582.1875
421.77947	22581.5875
425.9132	22665.9875
430.04396	22847.5875
434.17176	23017.5875
438.2966	23215.3875
442.41849	23600.2875
446.53742	24175.7875
450.6534	24805.0875
454.76644	25327.1875
458.87653	25578.4875
462.98368	25592.8875
467.08789	25391.5875
471.18916	25176.7875
475.2875	24933.2875
479.38291	24858.6875
483.4754	24718.5875
487.56496	24378.5875
491.6516	23901.5875
495.73531	23505.9875
499.81612	23314.1875
503.89401	23316.7875
507.96899	23391.1875
512.04106	23313.5875
516.11023	23152.2875
520.1765	22906.3875
524.23987	22760.3875
528.30034	22578.9875
532.35792	22375.9875
536.41261	22163.4875
540.46441	21990.9875
544.51333	22115.9875
548.55936	22430.2875
552.60252	22883.5875
556.64279	23430.2875
560.6802	23748.5875
564.71473	23924.6875
568.7464	24233.2875
572.7752	24717.0875
576.80114	25085.3875
580.82422	25266.2875
584.84444	25423.5875
588.86181	25602.4875
592.87633	25785.7875
596.888	25963.9875
600.89682	26071.5875
604.9028	26874.6875
608.90594	28805.5875
612.90624	30488.2875
616.90371	28547.0875
620.89834	24590.5875
624.89015	23093.0875
628.87913	22975.9875
632.86528	23008.0875
636.84862	22854.4875
640.82913	22520.1875
644.80683	22018.2875
648.78172	21583.0875
652.75379	21491.0875
656.72306	21681.9875
660.68952	21973.8875
664.65319	21865.4875
668.61405	21599.0875
672.57211	21514.0875
676.52738	21551.3875
680.47986	21560.9875
684.42955	21470.1875
688.37646	21475.2875
692.32058	21519.0875
696.26192	21736.6875
700.20048	21956.7875
704.13626	22121.5875
708.06928	22122.9875
711.99952	21948.0875
715.927	21851.2875
719.85171	21890.8875
723.77365	21808.2875
727.69284	21623.2875
731.60928	21424.2875
735.52295	21365.6875
739.43388	21362.8875
743.34206	21412.1875
747.24749	21512.2875
751.15017	21712.5875
755.05012	22112.3875
758.94733	22743.7875
762.8418	23824.5875
766.73354	25382.0875
770.62254	26758.6875
774.50882	26953.6875
778.39237	25685.2875
782.27321	23960.4875
786.15132	22611.6875
790.02671	21829.9875
793.89938	21474.2875
797.76935	21301.9875
801.6366	21234.9875
805.50115	21208.1875
809.36299	21092.9875
813.22213	20972.0875
817.07857	20904.4875
820.93231	20878.7875
824.78336	20812.0875
828.63172	20708.5875
832.47738	20710.4875
836.32036	20743.7875
840.16066	20796.5875
843.99827	20929.3875
847.8332	20859.3875
851.66546	20751.0875
855.49504	20714.4875
859.32195	20683.1875
863.1462	20597.2875
866.96777	20559.4875
870.78668	20453.6875
874.60293	20468.1875
878.41652	20457.4875
882.22745	20522.0875
886.03573	20567.4875
889.84136	20505.4875
893.64433	20452.0875
897.44466	20368.0875
901.24235	20312.1875
905.0374	20240.6875
908.8298	20238.6875
912.61957	20334.7875
916.40671	20526.0875
920.19121	20759.5875
923.97308	20997.2875
927.75233	21009.9875
931.52895	20861.2875
935.30295	20637.7875
939.07433	20248.3875
942.84309	19988.0875
946.60924	19909.5875
950.37278	19837.4875
954.13371	19782.5875
957.89203	19701.6875
961.64774	19643.8875
965.40086	19594.5875
969.15137	19534.2875
972.89929	19455.7875
976.64461	19381.0875
980.38733	19363.7875
984.12747	19470.8875
987.86502	19673.2875
991.59999	19899.2875
995.33237	20265.4875
999.06217	20893.3875
1002.78939	21530.2875
1006.51404	21908.6875
1010.23611	22031.5875
1013.95561	22219.5875
1017.67255	22218.4875
1021.38692	22026.4875
1025.09872	21875.3875
1028.80796	22056.4875
1032.51465	22686.2875
1036.21877	23218.3875
1039.92035	23323.4875
1043.61937	22961.4875
1047.31584	22415.0875
1051.00976	21855.7875
1054.70114	21611.6875
1058.38998	21632.2875
1062.07627	21772.4875
1065.76003	21895.2875
1069.44126	21957.9875
1073.11995	22152.9875
1076.79611	22305.1875
1080.46974	22425.0875
1084.14085	22600.8875
1087.80943	22809.5875
1091.47549	22963.5875
1095.13903	22916.3875
1098.80005	22700.5875
1102.45857	22310.3875
1106.11456	22047.8875
1109.76805	21934.4875
1113.41903	22068.9875
1117.06751	22230.5875
1120.71348	22413.2875
1124.35696	22589.2875
1127.99793	22810.9875
1131.63641	22905.7875
1135.2724	22832.1875
1138.90589	22714.8875
1142.5369	22670.0875
1146.16542	22667.3875
1149.79145	22785.0875
1153.415	23050.2875
1157.03607	23468.0875
1160.65467	24045.8875
1164.27079	25028.7875
1167.88443	26256.4875
1171.49561	27785.5875
1175.10432	29795.0875
1178.71056	32116.1875
1182.31434	34426.2875
1185.91565	35742.4875
1189.51451	36023.8875
1193.11091	35266.4875
1196.70485	33941.3875
1200.29634	32453.6875
1203.88538	31340.0875
1207.47197	30455.2875
1211.05612	29770.6875
1214.63782	29151.2875
1218.21708	28666.3875
1221.79391	28419.1875
1225.36829	28193.1875
1228.94024	27943.2875
1232.50976	27457.6875
1236.07685	27097.6875
1239.6415	26936.8875
1243.20374	26947.4875
1246.76355	27122.3875
1250.32093	27505.0875
1253.8759	28080.8875
1257.42845	28851.6875
1260.97859	29630.6875
1264.52631	30287.3875
1268.07163	31001.3875
1271.61453	31847.4875
1275.15503	32821.7875
1278.69312	33866.6875
1282.22882	34690.2875
1285.76211	35453.8875
1289.29301	36259.5875
1292.82151	37410.6875
1296.34761	38993.2875
1299.87133	40921.6875
1303.39266	43205.0875
1306.9116	45830.3875
1310.42815	48164.8875
1313.94233	49697.6875
1317.45412	49906.6875
1320.96354	49365.4875
1324.47058	48799.4875
1327.97525	48153.4875
1331.47754	47689.5875
1334.97747	47727.4875
1338.47502	48013.3875
1341.97022	48163.6875
1345.46305	47748.0875
1348.95352	46673.6875
1352.44163	45628.3875
1355.92738	45169.4875
1359.41078	45898.1875
1362.89183	46721.9875
1366.37053	45471.3875
1369.84688	42149.3875
1373.32088	38527.9875
1376.79254	36110.5875
1380.26186	35147.1875
1383.72883	35160.3875
1387.19347	35266.5875
1390.65578	35224.2875
1394.11575	35397.2875
1397.57339	35933.4875
1401.0287	36724.3875
1404.48168	37399.3875
1407.93234	37647.4875
1411.38068	37306.5875
1414.82669	36252.0875
1418.27039	34736.4875
1421.71177	33109.0875
1425.15083	31756.7875
1428.58758	30958.0875
1432.02203	30952.4875
1435.45416	31479.6875
1438.88399	32230.7875
1442.31151	32930.9875
1445.73673	33615.0875
1449.15965	34241.7875
1452.58027	34692.6875
1455.9986	35082.5875
1459.41463	35427.6875
1462.82837	35902.5875
1466.23982	36492.1875
1469.64898	37105.1875
1473.05586	37310.4875
1476.46045	37151.0875
1479.86276	36824.1875
1483.26279	36339.0875
1486.66054	36050.2875
1490.05602	35917.1875
1493.44922	35944.2875
1496.84016	36052.9875
1500.22882	36325.2875
1503.61521	36997.1875
1506.99934	37923.0875
1510.38121	38899.3875
1513.76081	39292.0875
1517.13816	38848.2875
1520.51324	37788.1875
1523.88607	36869.7875
1527.25665	36254.4875
1530.62498	36101.6875
1533.99105	36037.9875
1537.35488	35977.8875
1540.71647	35663.3875
1544.07581	35162.5875
1547.4329	34500.9875
1550.78776	33913.6875
1554.14038	33474.6875
1557.49077	33296.4875
1560.83892	33102.0875
1564.18484	32976.3875
1567.52853	32934.2875
1570.86999	33005.4875
1574.20922	33304.6875
1577.54624	33686.3875
1580.88103	33910.1875
1584.2136	34287.1875
1587.54395	35238.2875
1590.87208	36820.2875
1594.19801	38822.6875
1597.52172	40821.1875
1600.84321	41466.1875
1604.16251	39866.0875
1607.47959	37049.1875
1610.79447	34018.6875
1614.10715	31222.1875
1617.41763	28918.2875
1620.7259	27228.4875
1624.03199	26326.3875
1627.33587	26210.6875
1630.63757	26922.9875
1633.93707	28530.3875
1637.23439	30965.1875
1640.52951	34160.1875
1643.82246	37453.3875
1647.11321	39712.4875
1650.40179	39751.8875
1653.68819	37152.7875
1656.97241	32970.2875
1660.25446	28761.6875
1663.53433	25505.3875
1666.81203	23322.2875
1670.08756	21873.5875
1673.36092	20983.0875
1676.63211	20361.7875
1679.90115	19909.0875
1683.16801	19603.0875
1686.43272	19347.6875
1689.69527	19178.5875
1692.95567	19035.8875
1696.2139	18901.7875
1699.46999	18884.8875
1702.72392	18777.9875
1705.97571	18700.5875
1709.22535	18672.0875
1712.47284	18610.6875
1715.71819	18544.9875
1718.96139	18528.2875
1722.20246	18461.5875
1725.44139	18385.7875
1728.67818	18269.7875
1731.91284	18149.7875
1735.14537	18037.9875
1738.37576	17982.6875
1741.60403	17929.1875
1744.83017	17852.0875
1748.05418	17821.0875
1751.27607	17791.8875
1754.49584	17780.2875
1757.71349	17787.6875
1760.92903	17721.0875
1764.14244	17709.2875
1767.35375	17711.4875
1770.56294	17659.5875
1773.77002	17647.8875
1776.97499	17619.0875
1780.17785	17572.5875
1783.37861	17522.6875
1786.57727	17497.0875
1789.77382	17495.7875
1792.96828	17467.5875
1796.16064	17400.5875
1799.3509	17398.3875
1802.53907	17354.7875
1805.72514	17327.8875
1808.90913	17295.5875
1812.09102	17222.1875
1815.27083	17243.1875
1818.44856	17165.3875
1821.6242	17124.4875
1824.79776	17125.8875
1827.96924	17158.7875
1831.13864	17089.7875
1834.30597	17139.9875
1837.47122	17103.9875
1840.6344	17120.3875
1843.7955	17112.5875
1846.95454	17120.5875
1850.11151	17134.7875
1853.26642	17133.7875
1856.41926	17117.5875
1859.57004	17146.2875
1862.71876	17105.7875
1865.86542	17100.5875
1869.01003	17076.3875
1872.15258	17078.1875
1875.29308	17082.7875
1878.43152	17044.4875
1881.56792	17048.4875
1884.70227	17054.0875
1887.83457	17016.7875
1890.96482	17006.9875
1894.09304	16995.8875
1897.21921	16990.8875
1900.34335	16988.0875
1903.46544	16946.1875
1906.58551	16941.4875
1909.70353	16934.7875
1912.81953	16919.8875
1915.93349	16900.4875
1919.04543	16852.1875
1922.15534	16814.6875
1925.26322	16764.6875
1928.36908	16749.4875
1931.47292	16694.8875
1934.57473	16666.6875
1937.67453	16607.6875
1940.77232	16598.1875
1943.86808	16510.7875
1946.96184	16428.8875
1950.05358	16383.7875
1953.14331	16310.6875
1956.23103	16289.0875
1959.31675	16218.8875
1962.40046	16170.0875
1965.48217	16124.7875
1968.56188	16092.0875
1971.63959	16022.2875
1974.7153	15960.9875
1977.78901	15953.4875
1980.86073	15893.5875
1983.93046	15858.5875
1986.99819	15803.4875
1990.06394	15728.8875
1993.1277	15720.7875
1996.18947	15647.4875
1999.24925	15596.5875
2002.30706	15545.5875
2005.36288	15536.8875
2008.41672	15471.2875
2011.46859	15422.1875
2014.51848	15400.0875
2017.56639	15372.4875
2020.61233	15342.1875
2023.6563	15318.0875
2026.6983	15269.1875
2029.73833	15240.4875
2032.7764	15204.4875
2035.8125	15182.8875
2038.84664	15144.5875
2041.87881	15127.2875
2044.90903	15080.7875
2047.93729	15053.6875
2050.96359	15057.7875
2053.98794	15018.3875
2057.01034	15030.5875
2060.03078	15014.7875
2063.04927	14988.5875
2066.06582	15010.7875
2069.08042	15029.0875
2072.09307	14958.0875
2075.10378	14976.2875
2078.11255	14953.1875
2081.11938	14967.5875
2084.12426	14923.2875
2087.12722	14906.7875
2090.12824	14901.0875
2093.12732	14882.6875
2096.12447	14891.7875
2099.11969	14885.1875
2102.11299	14883.8875
2105.10435	14881.1875
2108.09379	14897.4875
2111.08131	14903.4875
2114.0669	14878.0875
2117.05057	14888.3875
2120.03233	14950.1875
2123.01216	14926.8875
2125.99008	14949.8875
2128.96609	14966.1875
2131.94018	14981.0875
2134.91236	15007.6875
2137.88263	14994.8875
2140.851	14992.9875
2143.81746	15000.4875
2146.78201	14997.6875
2149.74466	15008.8875
2152.7054	14999.6875
2155.66425	15000.2875
2158.6212	15023.5875
2161.57625	15035.7875
2164.52941	14994.1875
2167.48067	15010.0875
2170.43004	14973.1875
2173.37752	14973.8875
2176.32311	14990.0875
2179.26681	14993.0875
2182.20863	15006.1875
2185.14856	14992.6875
2188.08661	14995.5875
2191.02278	14971.8875
2193.95707	15004.1875
2196.88948	15015.0875
2199.82001	15005.8875
2202.74867	14977.7875
2205.67545	14956.7875
2208.60037	14946.9875
2211.52341	14947.0875
2214.44458	14940.4875
2217.36388	14900.6875
2220.28132	14904.7875
2223.1969	14859.8875
2226.11061	14865.3875
2229.02246	14827.1875
2231.93245	14778.8875
2234.84058	14734.5875
2237.74686	14727.5875
2240.65128	14701.3875
2243.55385	14687.4875
2246.45456	14629.9875
2249.35343	14618.3875
2252.25044	14631.5875
2255.14561	14595.4875
2258.03893	14568.1875
2260.93041	14546.0875
2263.82004	14500.1875
2266.70783	14457.0875
2269.59378	14404.2875
2272.4779	14361.3875
2275.36017	14357.6875
2278.24061	14349.6875
2281.11922	14298.4875
2283.996	14273.1875
2286.87094	14301.9875
2289.74405	14274.3875
2292.61534	14274.8875
2295.4848	14282.5875
2298.35243	14286.3875
2301.21824	14266.2875
2304.08223	14270.1875
2306.94439	14254.4875
2309.80474	14287.8875
2312.66327	14289.9875
2315.51999	14272.1875
2318.37489	14293.0875
2321.22797	14277.9875
2324.07925	14270.7875
2326.92871	14240.4875
2329.77637	14243.2875
2332.62222	14190.1875
2335.46626	14206.2875
2338.3085	14195.9875
2341.14893	14187.8875
2343.98756	14212.6875
2346.8244	14240.0875
2349.65943	14224.5875
2352.49267	14262.0875
2355.32411	14218.2875
2358.15376	14221.8875
2360.98161	14234.6875
2363.80768	14223.0875
2366.63195	14174.5875
2369.45444	14143.8875
2372.27514	14134.9875
2375.09405	14101.9875
2377.91118	14085.4875
2380.72652	14032.5875
2383.54009	14019.8875
2386.35187	13978.0875
2389.16188	13960.2875
2391.97011	13899.4875
2394.77657	13880.9875
2397.58125	13881.1875
2400.38416	13885.6875
2403.18529	13833.1875
2405.98466	13810.9875
2408.78226	13801.4875
2411.57809	13774.5875
2414.37216	13756.3875
2417.16446	13767.0875
2419.955	13721.4875
2422.74378	13714.7875
2425.5308	13676.8875
2428.31606	13704.3875
2431.09956	13709.7875
2433.88131	13657.6875
2436.6613	13682.1875
2439.43954	13691.7875
2442.21603	13676.4875
2444.99077	13688.6875
2447.76377	13653.0875
2450.53501	13642.2875
2453.30451	13670.8875
2456.07226	13635.2875
2458.83827	13647.1875
2461.60254	13635.4875
2464.36507	13623.9875
2467.12586	13596.2875
2469.88492	13613.5875
2472.64224	13612.7875
2475.39782	13629.2875
2478.15167	13638.1875
2480.90379	13646.7875
2483.65417	13690.2875
2486.40283	13681.9875
2489.14976	13695.2875
2491.89497	13679.2875
2494.63845	13729.5875
2497.3802	13709.4875
2500.12024	13714.3875
2502.85855	13709.8875
2505.59514	13696.6875
2508.33002	13682.4875
2511.06318	13690.6875
2513.79462	13646.8875
2516.52435	13645.2875
2519.25237	13607.2875
2521.97867	13632.5875
2524.70327	13612.3875
2527.42616	13573.7875
2530.14734	13604.8875
2532.86681	13579.2875
2535.58458	13602.1875
2538.30065	13596.7875
2541.01501	13614.1875
2543.72768	13599.3875
2546.43864	13588.9875
2549.14791	13532.9875
2551.85548	13558.9875
2554.56136	13554.2875
2557.26554	13529.7875
2559.96803	13505.5875
2562.66883	13473.0875
2565.36794	13443.0875
2568.06536	13448.3875
2570.7611	13453.0875
2573.45514	13456.6875
2576.14751	13434.9875
2578.83819	13442.5875
2581.52719	13423.3875
2584.21451	13436.7875
2586.90015	13432.2875
2589.58411	13426.4875
2592.2664	13443.9875
2594.94701	13409.9875
2597.62594	13423.1875
2600.30321	13357.0875
2602.9788	13410.0875
2605.65273	13389.0875
2608.32498	13393.4875
2610.99557	13437.5875
2613.66449	13434.7875
2616.33175	13410.7875
2618.99734	13417.7875
2621.66128	13416.0875
2624.32355	13396.8875
2626.98416	13402.0875
2629.64311	13368.7875
2632.30041	13398.6875
2634.95605	13389.7875
2637.61004	13367.1875
2640.26238	13339.6875
2642.91306	13347.4875
2645.56209	13333.0875
2648.20948	13347.3875
2650.85521	13346.3875
2653.4993	13358.3875
2656.14175	13313.2875
2658.78255	13327.4875
2661.42171	13335.7875
2664.05923	13353.2875
2666.6951	13333.9875
2669.32934	13416.4875
2671.96194	13400.6875
2674.59291	13392.7875
2677.22224	13410.7875
2679.84993	13404.6875
2682.476	13391.7875
2685.10043	13358.2875
2687.72324	13326.9875
2690.34441	13335.9875
2692.96396	13361.5875
2695.58188	13354.0875
2698.19818	13312.2875
2700.81285	13353.7875
2703.4259	13342.2875
2706.03733	13357.3875
2708.64714	13333.9875
2711.25533	13403.3875
2713.86191	13350.2875
2716.46687	13366.5875
2719.07021	13374.6875
2721.67194	13403.3875
2724.27206	13397.5875
2726.87057	13392.0875
2729.46747	13422.1875
2732.06276	13435.6875
2734.65644	13425.7875
2737.24852	13406.3875
2739.83899	13391.7875
2742.42786	13416.6875
2745.01513	13390.8875
2747.60079	13382.7875
2750.18486	13353.6875
2752.76733	13362.7875
2755.3482	13359.8875
2757.92747	13373.6875
2760.50515	13355.5875
2763.08123	13375.5875
2765.65573	13327.3875
2768.22863	13354.4875
2770.79994	13334.9875
2773.36967	13363.3875
2775.9378	13354.2875
2778.50435	13359.5875
2781.06932	13364.2875
2783.6327	13374.3875
2786.1945	13376.5875
2788.75471	13355.5875
2791.31335	13323.8875
2793.87041	13330.1875
2796.42589	13309.2875
2798.97979	13294.0875
2801.53212	13262.0875
2804.08288	13271.2875
2806.63206	13222.7875
2809.17967	13218.7875
2811.72571	13186.3875
2814.27018	13147.4875
2816.81308	13140.8875
2819.35442	13102.7875
2821.89419	13103.2875
2824.43239	13082.4875
2826.96904	13069.8875
2829.50412	13067.7875
2832.03763	13044.1875
2834.56959	13026.1875
2837.1	13014.3875
2839.62884	13045.1875
2842.15613	13039.2875
2844.68186	13036.4875
2847.20604	13019.8875
2849.72867	13017.9875
2852.24974	13013.7875
2854.76927	13022.0875
2857.28724	12966.7875
2859.80367	12969.4875
2862.31855	12966.9875
2864.83189	12926.2875
2867.34368	12920.0875
2869.85393	12933.2875
2872.36264	12928.6875
2874.8698	12894.8875
2877.37543	12903.4875
2879.87952	12928.2875
2882.38207	12932.1875
2884.88308	12902.6875
2887.38256	12933.0875
2889.88051	12930.6875
2892.37692	12942.1875
2894.8718	12940.2875
2897.36515	12972.9875
2899.85698	13008.0875
2902.34727	13008.7875
2904.83604	13004.9875
2907.32328	13040.7875
2909.809	13036.0875
2912.29319	13028.9875
2914.77587	13030.6875
2917.25702	13034.5875
2919.73665	13029.4875
2922.21476	13043.4875
2924.69136	12996.4875
2927.16644	13023.1875
2929.64	13011.9875
2932.11205	12978.3875
2934.58258	12911.3875
2937.05161	12931.3875
2939.51912	12922.1875
2941.98513	12934.3875
2944.44962	12883.6875
2946.91261	12888.2875
2949.37409	12890.3875
2951.83407	12886.2875
2954.29254	12887.0875
2956.74951	12879.7875
2959.20498	12867.7875
2961.65895	12853.2875
2964.11142	12840.7875
2966.56239	12845.0875
2969.01186	12836.2875
2971.45984	12795.6875
2973.90632	12793.6875
2976.35131	12725.0875
2978.7948	12745.2875
2981.23681	12719.4875
2983.67732	12703.3875
2986.11635	12653.9875
2988.55388	12623.2875
2990.98993	12596.3875
2993.4245	12589.0875
2995.85758	12535.6875
2998.28917	12512.2875
3000.71928	12476.9875
3003.14791	12471.9875
3005.57506	12455.1875
3008.00073	12409.9875
3010.42493	12357.6875
3012.84764	12366.0875
3015.26888	12347.3875
3017.68865	12317.3875
3020.10694	12301.5875
3022.52376	12273.6875
3024.9391	12283.9875
3027.35298	12292.2875
3029.76539	12283.0875
3032.17632	12285.2875
3034.5858	12275.5875
3036.9938	12275.8875
3039.40034	12278.8875
3041.80542	12265.0875
3044.20903	12254.8875
3046.61118	12256.0875
3049.01187	12199.7875
3051.4111	12197.5875
3053.80888	12129.5875
3056.20519	12111.0875
3058.60005	12088.2875
3060.99345	12094.8875
3063.3854	12084.2875
3065.7759	12024.6875
3068.16494	11986.3875
3070.55254	11942.8875
3072.93868	11935.7875
3075.32338	11929.6875
3077.70662	11885.4875
3080.08842	11863.8875
3082.46878	11856.6875
3084.84769	11843.7875
3087.22515	11852.9875
3089.60118	11843.4875
3091.97576	11808.2875
3094.3489	11814.4875
3096.72061	11831.0875
3099.09087	11835.2875
3101.4597	11811.1875
3103.82709	11785.8875
3106.19305	11803.6875
3108.55757	11781.3875
3110.92066	11744.6875
3113.28232	11726.2875
3115.64255	11695.1875
3118.00134	11708.8875
3120.35871	11660.9875
3122.71466	11657.9875
3125.06917	11619.6875
3127.42226	11619.4875
3129.77393	11610.6875
3132.12417	11576.1875
3134.47299	11585.1875
3136.82039	11590.3875
3139.16636	11604.2875
3141.51092	11550.3875
3143.85406	11559.8875
3146.19579	11565.4875
3148.53609	11562.0875
3150.87499	11540.6875
3153.21246	11581.7875
3155.54853	11569.3875
3157.88318	11591.4875
3160.21642	11606.4875
3162.54826	11589.2875
3164.87868	11607.0875
3167.2077	11610.0875
3169.5353	11625.3875
3171.86151	11642.1875
3174.18631	11615.5875
3176.5097	11591.7875
3178.83169	11567.8875
3181.15228	11590.3875
3183.47147	11553.8875
3185.78926	11554.3875
3188.10565	11526.1875
3190.42065	11526.2875
3192.73424	11529.6875
3195.04645	11511.4875
3197.35725	11511.3875
3199.66667	11506.6875
3201.97469	11536.3875
3204.28132	11494.1875
3206.58656	11552.9875
3208.8904	11548.4875
3211.19287	11553.2875
3213.49394	11546.4875
3215.79363	11532.8875
3218.09193	11545.9875
3220.38884	11557.3875
3222.68438	11567.2875
3224.97853	11545.9875
3227.2713	11545.4875
3229.56269	11539.1875
3231.8527	11498.3875
3234.14133	11479.0875
3236.42858	11466.5875
3238.71446	11457.7875
3240.99896	11441.3875
3243.28209	11429.4875
3245.56384	11433.8875
3247.84423	11439.8875
3250.12324	11425.6875
3252.40088	11381.4875
3254.67715	11377.1875
3256.95205	11354.8875
3259.22558	11393.8875
3261.49775	11356.3875
3263.76855	11378.0875
3266.03799	11318.5875
3268.30606	11336.1875
3270.57277	11285.7875
3272.83812	11263.8875
3275.10211	11259.7875
3277.36474	11242.3875
3279.62601	11226.5875
3281.88593	11191.3875
3284.14448	11221.4875
3286.40168	11216.5875
3288.65753	11215.9875
3290.91202	11228.8875
3293.16516	11181.4875
3295.41695	11154.3875
3297.66738	11104.0875
3299.91647	11065.1875
3302.16421	10987.6875
3304.4106	10930.3875
3306.65564	10863.1875
3308.89933	10765.4875
3311.14169	10692.9875
3313.38269	10611.3875
3315.62236	10553.5875
3317.86068	10451.6875
3320.09766	10380.0875
3322.3333	10308.1875
3324.5676	10262.2875
3326.80056	10130.8875
3329.03219	10079.6875
3331.26248	4.4875
3333.49143	-0.1125
3335.71905	-0.4125
