Data from AgNP_FTO_APTES_UA_10uM_CRN_5uM_R6G_10uM_NaF_0.1M_Addition_RamanShift__21__15-06-50-661.txt Node

Date: Thu Feb 10 15:06:50 GMT 2022
User: TCL
Spectrometer: QEP01345
Trigger mode: 4
Integration Time (sec): 7.000000E0
Scans to average: 10
Electric dark correction enabled: true
Nonlinearity correction enabled: false
Boxcar width: 0
XAxis mode: Raman Shifts
Number of Pixels in Spectrum: 1044
>>>>>Begin Spectral Data<<<<<
46.04893	-0.5625
50.45542	-0.9625
54.85868	-3.0625
59.25871	-0.7625
63.6555	76.8375
68.04907	79.7375
72.43941	85.6375
76.82654	83.8375
81.21044	93.5375
85.59113	90.1375
89.96862	99.6375
94.34289	99.7375
98.71396	103.3375
103.08183	106.4375
107.4465	110.8375
111.80798	110.1375
116.16626	113.1375
120.52136	122.5375
124.87327	125.1375
129.222	130.9375
133.56755	139.0375
137.90993	151.4375
142.24913	165.7375
146.58517	188.7375
150.91804	218.6375
155.24774	263.3375
159.57429	327.0375
163.89768	413.2375
168.21792	549.7375
172.53501	751.9375
176.84895	1049.4375
181.15975	1472.7375
185.46741	2062.9375
189.77193	2844.9375
194.07331	3798.7375
198.37157	4884.1375
202.6667	6045.1375
206.9587	7161.2375
211.24758	8251.6375
215.53334	9405.9375
219.81599	10586.1375
224.09553	11909.4375
228.37195	13382.1375
232.64527	14990.5375
236.91549	16708.2375
241.18261	18366.7375
245.44663	19922.6375
249.70755	21311.0375
253.96539	22528.3375
258.22014	23612.7375
262.4718	24549.9375
266.72039	25194.5375
270.96589	25616.6375
275.20832	25770.2375
279.44768	25680.2375
283.68397	25539.4375
287.91719	25436.1375
292.14735	25355.1375
296.37445	25420.7375
300.59849	25507.8375
304.81948	25582.4375
309.03742	25456.3375
313.25231	25094.2375
317.46415	24390.2375
321.67296	23557.9375
325.87872	22899.9375
330.08145	22646.5375
334.28114	22611.9375
338.47781	22841.7375
342.67145	23164.5375
346.86207	23614.9375
351.04966	24182.7375
355.23424	24763.6375
359.4158	25238.9375
363.59435	25588.1375
367.76989	25779.9375
371.94243	25914.8375
376.11196	26078.3375
380.27849	26129.8375
384.44203	26235.6375
388.60257	26326.1375
392.76012	26549.5375
396.91468	26881.4375
401.06626	27339.8375
405.21485	27685.7375
409.36047	27523.0375
413.50311	27083.2375
417.64277	26710.2375
421.77947	26653.5375
425.9132	26791.5375
430.04396	27004.0375
434.17176	27160.6375
438.2966	27445.2375
442.41849	27938.7375
446.53742	28659.8375
450.6534	29570.2375
454.76644	30208.2375
458.87653	30506.8375
462.98368	30371.6375
467.08789	30022.2375
471.18916	29527.2375
475.2875	29065.3375
479.38291	28859.2375
483.4754	28593.4375
487.56496	28237.0375
491.6516	27690.0375
495.73531	27281.0375
499.81612	27106.5375
503.89401	27221.6375
507.96899	27255.7375
512.04106	27208.2375
516.11023	27085.3375
520.1765	26900.9375
524.23987	26692.7375
528.30034	26443.8375
532.35792	26112.5375
536.41261	25798.0375
540.46441	25488.8375
544.51333	25579.9375
548.55936	25896.7375
552.60252	26535.3375
556.64279	27245.4375
560.6802	27593.9375
564.71473	27832.6375
568.7464	28286.6375
572.7752	28966.8375
576.80114	29332.5375
580.82422	29587.4375
584.84444	29834.4375
588.86181	30091.2375
592.87633	30448.2375
596.888	30729.9375
600.89682	30903.3375
604.9028	32101.9375
608.90594	35302.9375
612.90624	38580.3375
616.90371	36004.7375
620.89834	29823.8375
624.89015	27410.5375
628.87913	27168.9375
632.86528	27135.0375
636.84862	26785.6375
640.82913	26227.6375
644.80683	25499.9375
648.78172	24934.8375
652.75379	24875.2375
656.72306	25238.6375
660.68952	25753.2375
664.65319	25640.5375
668.61405	25155.3375
672.57211	24968.8375
676.52738	25003.2375
680.47986	24962.9375
684.42955	24876.7375
688.37646	24859.5375
692.32058	25040.2375
696.26192	25273.9375
700.20048	25595.6375
704.13626	25763.9375
708.06928	25711.1375
711.99952	25466.5375
715.927	25353.3375
719.85171	25412.3375
723.77365	25290.9375
727.69284	24989.5375
731.60928	24716.8375
735.52295	24683.1375
739.43388	24722.2375
743.34206	24821.0375
747.24749	24975.4375
751.15017	25278.7375
755.05012	25756.7375
758.94733	26615.5375
762.8418	28126.9375
766.73354	30488.4375
770.62254	32612.4375
774.50882	33050.9375
778.39237	31328.6375
782.27321	28747.9375
786.15132	26739.7375
790.02671	25584.6375
793.89938	25057.3375
797.76935	24857.5375
801.6366	24824.7375
805.50115	24721.6375
809.36299	24579.5375
813.22213	24341.9375
817.07857	24298.1375
820.93231	24268.5375
824.78336	24190.5375
828.63172	24169.7375
832.47738	24181.9375
836.32036	24246.3375
840.16066	24372.7375
843.99827	24464.8375
847.8332	24398.2375
851.66546	24223.8375
855.49504	24137.6375
859.32195	24162.0375
863.1462	24021.4375
866.96777	23854.1375
870.78668	23795.6375
874.60293	23784.1375
878.41652	23762.8375
882.22745	23861.5375
886.03573	23954.1375
889.84136	23901.3375
893.64433	23783.4375
897.44466	23679.7375
901.24235	23605.2375
905.0374	23544.2375
908.8298	23529.9375
912.61957	23579.0375
916.40671	23838.4375
920.19121	24216.5375
923.97308	24580.2375
927.75233	24721.9375
931.52895	24595.5375
935.30295	24296.0375
939.07433	23795.5375
942.84309	23396.5375
946.60924	23251.7375
950.37278	23145.0375
954.13371	23068.4375
957.89203	22887.4375
961.64774	22827.5375
965.40086	22772.5375
969.15137	22671.1375
972.89929	22567.8375
976.64461	22504.2375
980.38733	22543.5375
984.12747	22705.4375
987.86502	22991.3375
991.59999	23352.3375
995.33237	23975.8375
999.06217	24953.1375
1002.78939	25990.3375
1006.51404	26543.5375
1010.23611	26814.5375
1013.95561	26980.4375
1017.67255	26906.4375
1021.38692	26630.0375
1025.09872	26380.3375
1028.80796	26841.8375
1032.51465	28033.3375
1036.21877	29036.4375
1039.92035	29079.4375
1043.61937	28474.5375
1047.31584	27465.8375
1051.00976	26371.1375
1054.70114	25820.8375
1058.38998	25764.6375
1062.07627	25836.6375
1065.76003	25917.2375
1069.44126	26052.9375
1073.11995	26223.9375
1076.79611	26522.7375
1080.46974	26711.5375
1084.14085	26985.3375
1087.80943	27233.5375
1091.47549	27470.8375
1095.13903	27314.2375
1098.80005	26893.0375
1102.45857	26342.2375
1106.11456	26021.8375
1109.76805	25970.1375
1113.41903	26183.8375
1117.06751	26476.3375
1120.71348	26737.7375
1124.35696	27070.7375
1127.99793	27351.4375
1131.63641	27502.4375
1135.2724	27264.4375
1138.90589	27005.6375
1142.5369	26836.4375
1146.16542	26771.1375
1149.79145	26825.4375
1153.415	27018.0375
1157.03607	27449.6375
1160.65467	28219.9375
1164.27079	29414.0375
1167.88443	31007.6375
1171.49561	33164.0375
1175.10432	35948.4375
1178.71056	39563.9375
1182.31434	42836.6375
1185.91565	44681.8375
1189.51451	44749.8375
1193.11091	43212.4375
1196.70485	41056.0375
1200.29634	38944.7375
1203.88538	37304.7375
1207.47197	36081.6375
1211.05612	35050.7375
1214.63782	34335.7375
1218.21708	34030.3375
1221.79391	33997.3375
1225.36829	34057.3375
1228.94024	33692.0375
1232.50976	33016.1375
1236.07685	32565.6375
1239.6415	32229.4375
1243.20374	32142.1375
1246.76355	32341.1375
1250.32093	32858.9375
1253.8759	33724.0375
1257.42845	34741.4375
1260.97859	35808.3375
1264.52631	36784.1375
1268.07163	37827.5375
1271.61453	39034.3375
1275.15503	40400.0375
1278.69312	41795.0375
1282.22882	42891.5375
1285.76211	43742.3375
1289.29301	44597.3375
1292.82151	45772.9375
1296.34761	47535.3375
1299.87133	50088.4375
1303.39266	53382.8375
1306.9116	57275.2375
1310.42815	61230.5375
1313.94233	63824.6375
1317.45412	63932.0375
1320.96354	62558.5375
1324.47058	60839.7375
1327.97525	59174.0375
1331.47754	58136.7375
1334.97747	58012.0375
1338.47502	58336.5375
1341.97022	58632.8375
1345.46305	58193.4375
1348.95352	57057.7375
1352.44163	56017.2375
1355.92738	56380.3375
1359.41078	58596.2375
1362.89183	60627.0375
1366.37053	58976.1375
1369.84688	53669.4375
1373.32088	48020.2375
1376.79254	44317.3375
1380.26186	42817.3375
1383.72883	42417.5375
1387.19347	42284.7375
1390.65578	41948.0375
1394.11575	42060.5375
1397.57339	42730.6375
1401.0287	43776.0375
1404.48168	44774.5375
1407.93234	45566.5375
1411.38068	45480.9375
1414.82669	44507.1375
1418.27039	42737.7375
1421.71177	40770.1375
1425.15083	39049.4375
1428.58758	38098.1375
1432.02203	38030.6375
1435.45416	38594.5375
1438.88399	39452.5375
1442.31151	40287.0375
1445.73673	40938.2375
1449.15965	41587.0375
1452.58027	42045.2375
1455.9986	42298.3375
1459.41463	42689.0375
1462.82837	43330.2375
1466.23982	44229.2375
1469.64898	45088.7375
1473.05586	45484.2375
1476.46045	45543.0375
1479.86276	45274.1375
1483.26279	44944.8375
1486.66054	44812.9375
1490.05602	44869.9375
1493.44922	45090.9375
1496.84016	45327.7375
1500.22882	45865.5375
1503.61521	46875.6375
1506.99934	48447.4375
1510.38121	49981.1375
1513.76081	50651.9375
1517.13816	49738.2375
1520.51324	47615.2375
1523.88607	45654.9375
1527.25665	44379.1375
1530.62498	43701.9375
1533.99105	43406.1375
1537.35488	43123.8375
1540.71647	42857.7375
1544.07581	42372.6375
1547.4329	41691.1375
1550.78776	41123.4375
1554.14038	40702.0375
1557.49077	40449.4375
1560.83892	40334.2375
1564.18484	40293.4375
1567.52853	40024.4375
1570.86999	39997.8375
1574.20922	40314.5375
1577.54624	40591.7375
1580.88103	40620.3375
1584.2136	40860.0375
1587.54395	42080.3375
1590.87208	44284.4375
1594.19801	47411.0375
1597.52172	50611.6375
1600.84321	51644.6375
1604.16251	49645.9375
1607.47959	45716.0375
1610.79447	41576.1375
1614.10715	37657.4375
1617.41763	34613.3375
1620.7259	32438.3375
1624.03199	31359.9375
1627.33587	31380.7375
1630.63757	32443.0375
1633.93707	34546.4375
1637.23439	37749.2375
1640.52951	41767.8375
1643.82246	45963.4375
1647.11321	48867.0375
1650.40179	49038.9375
1653.68819	45622.1375
1656.97241	39901.9375
1660.25446	34266.2375
1663.53433	30074.1375
1666.81203	27401.4375
1670.08756	25671.9375
1673.36092	24607.4375
1676.63211	23893.1375
1679.90115	23364.3375
1683.16801	22984.9375
1686.43272	22707.0375
1689.69527	22495.8375
1692.95567	22316.5375
1696.2139	22237.4375
1699.46999	22234.6375
1702.72392	22076.3375
1705.97571	22009.8375
1709.22535	21963.3375
1712.47284	21900.9375
1715.71819	21870.2375
1718.96139	21821.3375
1722.20246	21726.9375
1725.44139	21627.0375
1728.67818	21500.3375
1731.91284	21355.3375
1735.14537	21263.1375
1738.37576	21157.2375
1741.60403	21106.0375
1744.83017	21023.8375
1748.05418	20986.4375
1751.27607	20966.3375
1754.49584	20931.0375
1757.71349	20897.2375
1760.92903	20858.7375
1764.14244	20890.9375
1767.35375	20860.0375
1770.56294	20835.5375
1773.77002	20797.7375
1776.97499	20749.7375
1780.17785	20705.9375
1783.37861	20664.1375
1786.57727	20611.3375
1789.77382	20582.1375
1792.96828	20538.3375
1796.16064	20522.6375
1799.3509	20495.1375
1802.53907	20502.5375
1805.72514	20423.1375
1808.90913	20371.9375
1812.09102	20343.0375
1815.27083	20298.3375
1818.44856	20250.4375
1821.6242	20211.3375
1824.79776	20214.6375
1827.96924	20194.3375
1831.13864	20196.0375
1834.30597	20223.5375
1837.47122	20166.1375
1840.6344	20197.1375
1843.7955	20237.1375
1846.95454	20233.2375
1850.11151	20223.0375
1853.26642	20244.9375
1856.41926	20241.8375
1859.57004	20267.4375
1862.71876	20253.1375
1865.86542	20211.8375
1869.01003	20243.1375
1872.15258	20227.4375
1875.29308	20220.8375
1878.43152	20231.2375
1881.56792	20210.6375
1884.70227	20222.5375
1887.83457	20258.8375
1890.96482	20250.0375
1894.09304	20256.7375
1897.21921	20200.7375
1900.34335	20212.1375
1903.46544	20232.6375
1906.58551	20206.8375
1909.70353	20196.3375
1912.81953	20196.7375
1915.93349	20194.0375
1919.04543	20121.0375
1922.15534	20099.9375
1925.26322	20013.8375
1928.36908	19983.1375
1931.47292	19896.9375
1934.57473	19856.4375
1937.67453	19766.3375
1940.77232	19696.4375
1943.86808	19606.9375
1946.96184	19514.8375
1950.05358	19453.9375
1953.14331	19369.7375
1956.23103	19279.0375
1959.31675	19233.2375
1962.40046	19149.5375
1965.48217	19117.5375
1968.56188	19074.9375
1971.63959	18995.0375
1974.7153	18985.8375
1977.78901	18883.9375
1980.86073	18794.2375
1983.93046	18762.3375
1986.99819	18731.0375
1990.06394	18688.8375
1993.1277	18614.9375
1996.18947	18558.7375
1999.24925	18479.8375
2002.30706	18424.2375
2005.36288	18359.2375
2008.41672	18354.7375
2011.46859	18307.8375
2014.51848	18274.2375
2017.56639	18240.2375
2020.61233	18160.3375
2023.6563	18158.6375
2026.6983	18128.1375
2029.73833	18076.6375
2032.7764	18063.0375
2035.8125	18035.8375
2038.84664	17996.2375
2041.87881	17985.4375
2044.90903	17952.2375
2047.93729	17921.3375
2050.96359	17934.6375
2053.98794	17904.9375
2057.01034	17885.5375
2060.03078	17842.6375
2063.04927	17835.6375
2066.06582	17829.2375
2069.08042	17799.4375
2072.09307	17797.2375
2075.10378	17787.2375
2078.11255	17787.4375
2081.11938	17754.7375
2084.12426	17708.5375
2087.12722	17721.4375
2090.12824	17704.2375
2093.12732	17654.7375
2096.12447	17699.1375
2099.11969	17698.8375
2102.11299	17703.6375
2105.10435	17705.8375
2108.09379	17709.2375
2111.08131	17692.6375
2114.0669	17680.2375
2117.05057	17729.7375
2120.03233	17740.1375
2123.01216	17729.8375
2125.99008	17749.6375
2128.96609	17780.6375
2131.94018	17794.4375
2134.91236	17791.4375
2137.88263	17841.7375
2140.851	17835.0375
2143.81746	17828.1375
2146.78201	17807.4375
2149.74466	17833.0375
2152.7054	17821.2375
2155.66425	17831.2375
2158.6212	17820.1375
2161.57625	17817.9375
2164.52941	17833.3375
2167.48067	17806.5375
2170.43004	17814.3375
2173.37752	17783.7375
2176.32311	17766.7375
2179.26681	17799.7375
2182.20863	17807.4375
2185.14856	17812.0375
2188.08661	17831.2375
2191.02278	17839.0375
2193.95707	17815.6375
2196.88948	17802.0375
2199.82001	17789.2375
2202.74867	17798.2375
2205.67545	17792.0375
2208.60037	17774.9375
2211.52341	17778.7375
2214.44458	17789.0375
2217.36388	17777.3375
2220.28132	17727.6375
2223.1969	17689.3375
2226.11061	17711.0375
2229.02246	17666.1375
2231.93245	17607.6375
2234.84058	17558.9375
2237.74686	17525.3375
2240.65128	17526.9375
2243.55385	17493.0375
2246.45456	17455.2375
2249.35343	17450.0375
2252.25044	17448.0375
2255.14561	17427.0375
2258.03893	17422.9375
2260.93041	17346.6375
2263.82004	17297.1375
2266.70783	17260.0375
2269.59378	17215.6375
2272.4779	17108.8375
2275.36017	17110.0375
2278.24061	17087.8375
2281.11922	17094.6375
2283.996	17065.8375
2286.87094	17063.1375
2289.74405	17066.2375
2292.61534	17028.1375
2295.4848	17015.9375
2298.35243	17037.7375
2301.21824	17050.6375
2304.08223	17054.5375
2306.94439	17066.2375
2309.80474	17094.1375
2312.66327	17099.9375
2315.51999	17120.6375
2318.37489	17124.8375
2321.22797	17099.1375
2324.07925	17053.8375
2326.92871	17042.4375
2329.77637	17063.6375
2332.62222	17091.0375
2335.46626	17081.0375
2338.3085	17059.7375
2341.14893	17126.9375
2343.98756	17156.3375
2346.8244	17152.5375
2349.65943	17147.5375
2352.49267	17134.2375
2355.32411	17125.6375
2358.15376	17101.5375
2360.98161	17092.7375
2363.80768	17070.2375
2366.63195	17049.0375
2369.45444	17016.0375
2372.27514	16949.4375
2375.09405	16928.0375
2377.91118	16862.8375
2380.72652	16840.9375
2383.54009	16782.0375
2386.35187	16791.5375
2389.16188	16732.2375
2391.97011	16693.3375
2394.77657	16688.6375
2397.58125	16674.1375
2400.38416	16647.6375
2403.18529	16667.7375
2405.98466	16590.5375
2408.78226	16545.2375
2411.57809	16509.7375
2414.37216	16493.0375
2417.16446	16457.7375
2419.955	16429.1375
2422.74378	16417.0375
2425.5308	16414.7375
2428.31606	16425.3375
2431.09956	16428.6375
2433.88131	16390.1375
2436.6613	16371.8375
2439.43954	16416.4375
2442.21603	16396.3375
2444.99077	16407.3375
2447.76377	16370.9375
2450.53501	16335.6375
2453.30451	16334.6375
2456.07226	16344.7375
2458.83827	16333.6375
2461.60254	16346.3375
2464.36507	16365.8375
2467.12586	16364.1375
2469.88492	16359.9375
2472.64224	16375.7375
2475.39782	16393.4375
2478.15167	16431.0375
2480.90379	16418.0375
2483.65417	16471.6375
2486.40283	16481.3375
2489.14976	16489.5375
2491.89497	16480.3375
2494.63845	16516.7375
2497.3802	16538.9375
2500.12024	16474.2375
2502.85855	16474.5375
2505.59514	16443.3375
2508.33002	16464.5375
2511.06318	16424.8375
2513.79462	16435.6375
2516.52435	16428.3375
2519.25237	16393.2375
2521.97867	16402.8375
2524.70327	16425.5375
2527.42616	16406.2375
2530.14734	16369.5375
2532.86681	16341.7375
2535.58458	16379.1375
2538.30065	16378.1375
2541.01501	16345.7375
2543.72768	16355.3375
2546.43864	16355.5375
2549.14791	16348.4375
2551.85548	16351.6375
2554.56136	16313.1375
2557.26554	16300.8375
2559.96803	16274.1375
2562.66883	16260.4375
2565.36794	16279.5375
2568.06536	16243.3375
2570.7611	16194.7375
2573.45514	16214.2375
2576.14751	16238.5375
2578.83819	16189.0375
2581.52719	16211.3375
2584.21451	16203.6375
2586.90015	16223.4375
2589.58411	16240.6375
2592.2664	16244.7375
2594.94701	16261.2375
2597.62594	16247.3375
2600.30321	16194.2375
2602.9788	16234.8375
2605.65273	16221.2375
2608.32498	16193.5375
2610.99557	16234.5375
2613.66449	16214.8375
2616.33175	16230.5375
2618.99734	16250.0375
2621.66128	16262.8375
2624.32355	16263.3375
2626.98416	16276.3375
2629.64311	16299.5375
2632.30041	16263.5375
2634.95605	16268.3375
2637.61004	16246.8375
2640.26238	16199.1375
2642.91306	16177.4375
2645.56209	16184.8375
2648.20948	16196.4375
2650.85521	16160.4375
2653.4993	16150.6375
2656.14175	16155.3375
2658.78255	16161.6375
2661.42171	16198.1375
2664.05923	16192.4375
2666.6951	16195.8375
2669.32934	16241.2375
2671.96194	16242.0375
2674.59291	16255.7375
2677.22224	16238.6375
2679.84993	16260.9375
2682.476	16247.0375
2685.10043	16182.6375
2687.72324	16204.5375
2690.34441	16208.5375
2692.96396	16158.0375
2695.58188	16141.5375
2698.19818	16154.1375
2700.81285	16126.3375
2703.4259	16167.2375
2706.03733	16187.0375
2708.64714	16158.0375
2711.25533	16171.9375
2713.86191	16193.1375
2716.46687	16183.4375
2719.07021	16179.7375
2721.67194	16231.6375
2724.27206	16228.1375
2726.87057	16252.7375
2729.46747	16204.3375
2732.06276	16220.7375
2734.65644	16227.0375
2737.24852	16272.4375
2739.83899	16239.8375
2742.42786	16257.3375
2745.01513	16218.9375
2747.60079	16214.1375
2750.18486	16151.4375
2752.76733	16173.4375
2755.3482	16203.0375
2757.92747	16200.5375
2760.50515	16154.7375
2763.08123	16130.2375
2765.65573	16142.1375
2768.22863	16173.6375
2770.79994	16147.1375
2773.36967	16144.0375
2775.9378	16173.0375
2778.50435	16176.1375
2781.06932	16186.9375
2783.6327	16171.0375
2786.1945	16175.0375
2788.75471	16155.5375
2791.31335	16125.7375
2793.87041	16109.4375
2796.42589	16075.1375
2798.97979	16080.6375
2801.53212	16052.3375
2804.08288	16042.0375
2806.63206	15988.7375
2809.17967	16050.1375
2811.72571	15978.9375
2814.27018	15953.5375
2816.81308	15898.0375
2819.35442	15888.0375
2821.89419	15847.5375
2824.43239	15876.9375
2826.96904	15859.6375
2829.50412	15864.6375
2832.03763	15825.5375
2834.56959	15811.4375
2837.1	15824.1375
2839.62884	15806.9375
2842.15613	15826.6375
2844.68186	15801.1375
2847.20604	15823.0375
2849.72867	15821.1375
2852.24974	15817.7375
2854.76927	15763.4375
2857.28724	15771.7375
2859.80367	15733.9375
2862.31855	15725.2375
2864.83189	15694.8375
2867.34368	15669.8375
2869.85393	15668.1375
2872.36264	15669.1375
2874.8698	15681.7375
2877.37543	15664.3375
2879.87952	15700.4375
2882.38207	15722.2375
2884.88308	15685.1375
2887.38256	15727.4375
2889.88051	15722.6375
2892.37692	15718.8375
2894.8718	15706.5375
2897.36515	15754.7375
2899.85698	15758.5375
2902.34727	15796.3375
2904.83604	15824.8375
2907.32328	15840.0375
2909.809	15838.7375
2912.29319	15839.7375
2914.77587	15864.5375
2917.25702	15787.9375
2919.73665	15795.7375
2922.21476	15815.7375
2924.69136	15790.6375
2927.16644	15758.3375
2929.64	15738.7375
2932.11205	15724.9375
2934.58258	15691.7375
2937.05161	15710.3375
2939.51912	15686.6375
2941.98513	15690.4375
2944.44962	15637.5375
2946.91261	15604.6375
2949.37409	15626.4375
2951.83407	15608.8375
2954.29254	15585.4375
2956.74951	15565.3375
2959.20498	15560.2375
2961.65895	15559.9375
2964.11142	15566.9375
2966.56239	15518.5375
2969.01186	15543.8375
2971.45984	15495.1375
2973.90632	15492.5375
2976.35131	15435.2375
2978.7948	15401.6375
2981.23681	15354.0375
2983.67732	15313.2375
2986.11635	15267.3375
2988.55388	15220.4375
2990.98993	15214.8375
2993.4245	15174.8375
2995.85758	15124.8375
2998.28917	15093.6375
3000.71928	15094.5375
3003.14791	15056.8375
3005.57506	15071.4375
3008.00073	15010.9375
3010.42493	14844.5375
3012.84764	14916.8375
3015.26888	14899.2375
3017.68865	14844.5375
3020.10694	14862.5375
3022.52376	14807.2375
3024.9391	14829.1375
3027.35298	14790.4375
3029.76539	14790.6375
3032.17632	14776.3375
3034.5858	14764.1375
3036.9938	14776.2375
3039.40034	14764.0375
3041.80542	14742.9375
3044.20903	14716.4375
3046.61118	14687.8375
3049.01187	14671.3375
3051.4111	14688.0375
3053.80888	14634.5375
3056.20519	14638.0375
3058.60005	14593.4375
3060.99345	14570.0375
3063.3854	14494.6375
3065.7759	14445.7375
3068.16494	14423.9375
3070.55254	14379.2375
3072.93868	14356.6375
3075.32338	14279.3375
3077.70662	14284.5375
3080.08842	14224.8375
3082.46878	14210.7375
3084.84769	14203.9375
3087.22515	14182.8375
3089.60118	14207.9375
3091.97576	14175.0375
3094.3489	14166.7375
3096.72061	14184.6375
3099.09087	14203.4375
3101.4597	14144.4375
3103.82709	14148.3375
3106.19305	14130.9375
3108.55757	14124.2375
3110.92066	14077.0375
3113.28232	14040.8375
3115.64255	14024.8375
3118.00134	14007.6375
3120.35871	13988.5375
3122.71466	13967.4375
3125.06917	13920.7375
3127.42226	13919.5375
3129.77393	13923.2375
3132.12417	13878.9375
3134.47299	13847.5375
3136.82039	13837.5375
3139.16636	13842.1375
3141.51092	13847.7375
3143.85406	13860.6375
3146.19579	13823.8375
3148.53609	13810.1375
3150.87499	13806.5375
3153.21246	13825.3375
3155.54853	13834.9375
3157.88318	13838.0375
3160.21642	13856.8375
3162.54826	13825.5375
3164.87868	13859.7375
3167.2077	13847.4375
3169.5353	13857.0375
3171.86151	13856.2375
3174.18631	13850.3375
3176.5097	13812.6375
3178.83169	13801.1375
3181.15228	13799.4375
3183.47147	13801.6375
3185.78926	13781.5375
3188.10565	13734.8375
3190.42065	13734.0375
3192.73424	13723.6375
3195.04645	13747.3375
3197.35725	13737.3375
3199.66667	13738.0375
3201.97469	13736.0375
3204.28132	13752.0375
3206.58656	13758.9375
3208.8904	13758.4375
3211.19287	13776.4375
3213.49394	13735.7375
3215.79363	13753.9375
3218.09193	13769.6375
3220.38884	13752.5375
3222.68438	13762.3375
3224.97853	13770.0375
3227.2713	13783.3375
3229.56269	13777.6375
3231.8527	13730.0375
3234.14133	13725.6375
3236.42858	13670.2375
3238.71446	13642.2375
3240.99896	13621.0375
3243.28209	13646.5375
3245.56384	13642.1375
3247.84423	13624.2375
3250.12324	13600.8375
3252.40088	13548.8375
3254.67715	13548.4375
3256.95205	13534.9375
3259.22558	13531.1375
3261.49775	13532.8375
3263.76855	13504.9375
3266.03799	13479.6375
3268.30606	13474.6375
3270.57277	13462.8375
3272.83812	13449.6375
3275.10211	13373.8375
3277.36474	13393.9375
3279.62601	13367.7375
3281.88593	13337.1375
3284.14448	13349.9375
3286.40168	13357.7375
3288.65753	13387.5375
3290.91202	13367.3375
3293.16516	13339.9375
3295.41695	13296.3375
3297.66738	13260.9375
3299.91647	13208.3375
3302.16421	13102.5375
3304.4106	13055.7375
3306.65564	12958.9375
3308.89933	12842.3375
3311.14169	12776.2375
3313.38269	12663.0375
3315.62236	12598.9375
3317.86068	12494.5375
3320.09766	12404.6375
3322.3333	12326.1375
3324.5676	12290.7375
3326.80056	12062.1375
3329.03219	11994.2375
3331.26248	5.6375
3333.49143	0.7375
3335.71905	-0.2625
