Data from AgNP_FTO_APTES_UA_10uM_CRN_1000uM_R6G_10uM_NaF_0.1M_Addition_RamanShift__9__19-31-40-987.txt Node

Date: Thu Feb 10 19:31:40 GMT 2022
User: TCL
Spectrometer: QEP01345
Trigger mode: 4
Integration Time (sec): 7.000000E0
Scans to average: 10
Electric dark correction enabled: true
Nonlinearity correction enabled: false
Boxcar width: 0
XAxis mode: Raman Shifts
Number of Pixels in Spectrum: 1044
>>>>>Begin Spectral Data<<<<<
46.04893	0.6375
50.45542	-1.0625
54.85868	-1.5625
59.25871	-0.7625
63.6555	55.0375
68.04907	60.0375
72.43941	58.8375
76.82654	60.7375
81.21044	67.8375
85.59113	66.5375
89.96862	68.8375
94.34289	74.4375
98.71396	73.8375
103.08183	72.8375
107.4465	82.0375
111.80798	78.8375
116.16626	81.5375
120.52136	86.5375
124.87327	89.2375
129.222	89.3375
133.56755	99.1375
137.90993	103.6375
142.24913	109.3375
146.58517	125.6375
150.91804	145.2375
155.24774	169.7375
159.57429	212.5375
163.89768	262.7375
168.21792	351.4375
172.53501	473.8375
176.84895	667.2375
181.15975	942.6375
185.46741	1311.6375
189.77193	1825.8375
194.07331	2457.1375
198.37157	3156.0375
202.6667	3918.1375
206.9587	4653.2375
211.24758	5385.1375
215.53334	6108.1375
219.81599	6867.5375
224.09553	7703.4375
228.37195	8576.3375
232.64527	9576.8375
236.91549	10630.0375
241.18261	11706.9375
245.44663	12816.4375
249.70755	13731.1375
253.96539	14554.6375
258.22014	15247.5375
262.4718	15848.3375
266.72039	16297.0375
270.96589	16511.2375
275.20832	16563.4375
279.44768	16535.8375
283.68397	16380.6375
287.91719	16238.7375
292.14735	16170.8375
296.37445	16126.0375
300.59849	16131.0375
304.81948	16135.4375
309.03742	16069.5375
313.25231	15910.2375
317.46415	15682.3375
321.67296	15387.0375
325.87872	15132.2375
330.08145	15026.3375
334.28114	15012.3375
338.47781	15117.1375
342.67145	15204.9375
346.86207	15456.4375
351.04966	15624.8375
355.23424	15860.4375
359.4158	16041.9375
363.59435	16224.5375
367.76989	16372.1375
371.94243	16480.2375
376.11196	16582.1375
380.27849	16675.4375
384.44203	16765.6375
388.60257	16862.5375
392.76012	17004.3375
396.91468	17211.0375
401.06626	17391.0375
405.21485	17552.1375
409.36047	17508.6375
413.50311	17354.7375
417.64277	17203.7375
421.77947	17257.7375
425.9132	17348.1375
430.04396	17503.5375
434.17176	17580.4375
438.2966	17675.6375
442.41849	17900.3375
446.53742	18207.5375
450.6534	18513.0375
454.76644	18850.8375
458.87653	18952.6375
462.98368	18972.4375
467.08789	18913.8375
471.18916	18838.1375
475.2875	18775.6375
479.38291	18753.7375
483.4754	18770.3375
487.56496	18607.3375
491.6516	18332.0375
495.73531	18101.1375
499.81612	17917.4375
503.89401	17916.9375
507.96899	17930.6375
512.04106	17945.4375
516.11023	17916.6375
520.1765	17792.0375
524.23987	17681.5375
528.30034	17559.6375
532.35792	17465.0375
536.41261	17362.2375
540.46441	17243.3375
544.51333	17277.8375
548.55936	17449.5375
552.60252	17742.1375
556.64279	18036.4375
560.6802	18320.0375
564.71473	18469.3375
568.7464	18723.3375
572.7752	19148.4375
576.80114	19600.6375
580.82422	19865.9375
584.84444	20071.9375
588.86181	20397.2375
592.87633	20723.6375
596.888	20624.4375
600.89682	20082.2375
604.9028	19990.5375
608.90594	20669.4375
612.90624	21604.6375
616.90371	20737.2375
620.89834	18583.8375
624.89015	17600.6375
628.87913	17518.4375
632.86528	17611.2375
636.84862	17707.8375
640.82913	17612.7375
644.80683	17374.5375
648.78172	17189.3375
652.75379	17116.3375
656.72306	17217.8375
660.68952	17383.9375
664.65319	17304.0375
668.61405	17150.6375
672.57211	17131.7375
676.52738	17202.4375
680.47986	17205.9375
684.42955	17187.6375
688.37646	17126.5375
692.32058	17205.8375
696.26192	17316.4375
700.20048	17419.0375
704.13626	17516.8375
708.06928	17561.1375
711.99952	17587.7375
715.927	17509.0375
719.85171	17506.7375
723.77365	17453.1375
727.69284	17293.4375
731.60928	17145.0375
735.52295	17104.8375
739.43388	17044.7375
743.34206	17083.2375
747.24749	17174.9375
751.15017	17274.1375
755.05012	17462.1375
758.94733	17781.2375
762.8418	18316.0375
766.73354	19171.5375
770.62254	19922.6375
774.50882	20093.1375
778.39237	19524.8375
782.27321	18599.5375
786.15132	17835.3375
790.02671	17395.0375
793.89938	17153.7375
797.76935	17025.1375
801.6366	16977.9375
805.50115	16931.8375
809.36299	16873.0375
813.22213	16833.8375
817.07857	16808.2375
820.93231	16788.5375
824.78336	16749.8375
828.63172	16673.1375
832.47738	16603.2375
836.32036	16555.1375
840.16066	16556.8375
843.99827	16570.9375
847.8332	16561.0375
851.66546	16602.9375
855.49504	16606.9375
859.32195	16606.8375
863.1462	16599.1375
866.96777	16563.3375
870.78668	16554.3375
874.60293	16567.1375
878.41652	16563.5375
882.22745	16598.0375
886.03573	16642.9375
889.84136	16637.7375
893.64433	16591.8375
897.44466	16602.2375
901.24235	16555.5375
905.0374	16527.0375
908.8298	16465.3375
912.61957	16472.2375
916.40671	16562.5375
920.19121	16697.3375
923.97308	16811.2375
927.75233	16733.9375
931.52895	16594.9375
935.30295	16431.7375
939.07433	16239.8375
942.84309	16079.3375
946.60924	15967.8375
950.37278	15909.8375
954.13371	15917.4375
957.89203	15901.6375
961.64774	15882.6375
965.40086	15881.0375
969.15137	15814.9375
972.89929	15765.8375
976.64461	15684.2375
980.38733	15626.2375
984.12747	15630.8375
987.86502	15669.9375
991.59999	15698.1375
995.33237	15745.9375
999.06217	15891.8375
1002.78939	16008.6375
1006.51404	16153.9375
1010.23611	16335.1375
1013.95561	16470.2375
1017.67255	16571.0375
1021.38692	16482.3375
1025.09872	16361.9375
1028.80796	16209.0375
1032.51465	16112.9375
1036.21877	16089.8375
1039.92035	16130.9375
1043.61937	16181.5375
1047.31584	16246.7375
1051.00976	16278.2375
1054.70114	16355.2375
1058.38998	16467.9375
1062.07627	16530.1375
1065.76003	16686.3375
1069.44126	16785.0375
1073.11995	16891.9375
1076.79611	17047.1375
1080.46974	17093.0375
1084.14085	17141.5375
1087.80943	17216.5375
1091.47549	17341.2375
1095.13903	17388.6375
1098.80005	17283.1375
1102.45857	17066.4375
1106.11456	16800.6375
1109.76805	16698.7375
1113.41903	16674.9375
1117.06751	16780.2375
1120.71348	16889.2375
1124.35696	17018.8375
1127.99793	17230.7375
1131.63641	17373.3375
1135.2724	17269.5375
1138.90589	17147.8375
1142.5369	17161.8375
1146.16542	17215.6375
1149.79145	17361.7375
1153.415	17464.2375
1157.03607	17616.7375
1160.65467	17985.7375
1164.27079	18527.3375
1167.88443	19178.9375
1171.49561	19965.8375
1175.10432	20819.8375
1178.71056	21952.5375
1182.31434	22992.7375
1185.91565	23589.5375
1189.51451	23729.0375
1193.11091	23516.0375
1196.70485	22915.7375
1200.29634	22295.8375
1203.88538	21784.0375
1207.47197	21487.0375
1211.05612	21194.3375
1214.63782	20829.7375
1218.21708	20363.0375
1221.79391	19897.8375
1225.36829	19515.8375
1228.94024	19337.4375
1232.50976	19161.2375
1236.07685	19027.3375
1239.6415	18953.0375
1243.20374	18957.6375
1246.76355	19040.4375
1250.32093	19181.5375
1253.8759	19406.6375
1257.42845	19760.0375
1260.97859	20152.3375
1264.52631	20579.5375
1268.07163	20924.8375
1271.61453	21276.5375
1275.15503	21620.2375
1278.69312	22054.7375
1282.22882	22498.9375
1285.76211	23069.9375
1289.29301	23779.8375
1292.82151	24664.7375
1296.34761	25829.8375
1299.87133	26974.7375
1303.39266	28139.0375
1306.9116	29058.7375
1310.42815	29757.0375
1313.94233	30175.7375
1317.45412	30036.2375
1320.96354	29740.7375
1324.47058	29500.3375
1327.97525	29266.8375
1331.47754	29089.4375
1334.97747	28985.4375
1338.47502	28900.2375
1341.97022	28777.8375
1345.46305	28595.7375
1348.95352	28436.0375
1352.44163	28369.8375
1355.92738	28563.4375
1359.41078	28963.3375
1362.89183	29384.8375
1366.37053	28867.8375
1369.84688	27149.2375
1373.32088	24954.9375
1376.79254	23506.4375
1380.26186	23025.9375
1383.72883	23045.2375
1387.19347	23112.5375
1390.65578	23084.1375
1394.11575	23072.5375
1397.57339	23180.8375
1401.0287	23290.5375
1404.48168	23373.9375
1407.93234	23127.6375
1411.38068	22584.3375
1414.82669	21888.1375
1418.27039	21133.0375
1421.71177	20386.8375
1425.15083	19794.3375
1428.58758	19481.3375
1432.02203	19589.2375
1435.45416	19949.4375
1438.88399	20413.1375
1442.31151	20758.6375
1445.73673	20966.2375
1449.15965	21193.8375
1452.58027	21295.4375
1455.9986	21437.0375
1459.41463	21564.2375
1462.82837	21721.9375
1466.23982	21873.2375
1469.64898	22054.0375
1473.05586	22104.4375
1476.46045	22025.4375
1479.86276	21900.4375
1483.26279	21664.0375
1486.66054	21609.6375
1490.05602	21647.5375
1493.44922	21868.3375
1496.84016	22208.0375
1500.22882	22732.2375
1503.61521	23417.0375
1506.99934	24203.5375
1510.38121	24781.0375
1513.76081	24939.0375
1517.13816	24558.1375
1520.51324	24077.5375
1523.88607	23618.9375
1527.25665	23506.5375
1530.62498	23486.7375
1533.99105	23455.0375
1537.35488	23233.4375
1540.71647	22838.2375
1544.07581	22276.3375
1547.4329	21786.2375
1550.78776	21313.1375
1554.14038	20976.9375
1557.49077	20807.3375
1560.83892	20679.2375
1564.18484	20655.8375
1567.52853	20696.1375
1570.86999	20915.2375
1574.20922	21317.0375
1577.54624	21655.2375
1580.88103	21801.7375
1584.2136	21889.0375
1587.54395	22212.0375
1590.87208	22662.8375
1594.19801	23367.8375
1597.52172	24062.6375
1600.84321	24179.0375
1604.16251	23451.4375
1607.47959	22223.1375
1610.79447	20909.4375
1614.10715	19623.5375
1617.41763	18548.3375
1620.7259	17752.2375
1624.03199	17253.2375
1627.33587	17195.2375
1630.63757	17513.7375
1633.93707	18254.2375
1637.23439	19567.4375
1640.52951	21388.0375
1643.82246	23627.4375
1647.11321	25369.9375
1650.40179	25777.9375
1653.68819	24451.2375
1656.97241	21921.5375
1660.25446	19408.6375
1663.53433	17513.2375
1666.81203	16221.0375
1670.08756	15358.9375
1673.36092	14860.9375
1676.63211	14498.3375
1679.90115	14255.5375
1683.16801	14073.4375
1686.43272	13959.5375
1689.69527	13816.9375
1692.95567	13750.0375
1696.2139	13726.8375
1699.46999	13703.0375
1702.72392	13607.7375
1705.97571	13571.3375
1709.22535	13528.9375
1712.47284	13480.9375
1715.71819	13476.8375
1718.96139	13421.3375
1722.20246	13363.2375
1725.44139	13308.4375
1728.67818	13253.6375
1731.91284	13186.4375
1735.14537	13095.9375
1738.37576	13064.6375
1741.60403	13016.7375
1744.83017	12990.4375
1748.05418	12959.3375
1751.27607	12943.1375
1754.49584	12947.4375
1757.71349	12922.6375
1760.92903	12925.9375
1764.14244	12870.0375
1767.35375	12874.8375
1770.56294	12848.6375
1773.77002	12837.0375
1776.97499	12781.6375
1780.17785	12761.4375
1783.37861	12733.9375
1786.57727	12693.7375
1789.77382	12633.3375
1792.96828	12631.3375
1796.16064	12603.9375
1799.3509	12569.9375
1802.53907	12545.1375
1805.72514	12500.1375
1808.90913	12457.6375
1812.09102	12429.4375
1815.27083	12387.8375
1818.44856	12375.6375
1821.6242	12357.6375
1824.79776	12335.1375
1827.96924	12295.9375
1831.13864	12290.4375
1834.30597	12269.3375
1837.47122	12242.0375
1840.6344	12262.7375
1843.7955	12219.9375
1846.95454	12206.8375
1850.11151	12211.8375
1853.26642	12192.1375
1856.41926	12180.2375
1859.57004	12165.2375
1862.71876	12134.6375
1865.86542	12120.8375
1869.01003	12093.7375
1872.15258	12098.2375
1875.29308	12078.1375
1878.43152	12045.1375
1881.56792	12029.2375
1884.70227	12028.0375
1887.83457	11990.7375
1890.96482	11947.0375
1894.09304	11918.1375
1897.21921	11899.2375
1900.34335	11878.7375
1903.46544	11891.4375
1906.58551	11883.4375
1909.70353	11832.9375
1912.81953	11837.3375
1915.93349	11828.1375
1919.04543	11770.8375
1922.15534	11723.8375
1925.26322	11703.6375
1928.36908	11691.2375
1931.47292	11673.1375
1934.57473	11649.8375
1937.67453	11614.4375
1940.77232	11599.8375
1943.86808	11557.8375
1946.96184	11532.2375
1950.05358	11507.8375
1953.14331	11453.8375
1956.23103	11391.6375
1959.31675	11370.0375
1962.40046	11327.5375
1965.48217	11302.0375
1968.56188	11287.1375
1971.63959	11222.0375
1974.7153	11183.8375
1977.78901	11126.9375
1980.86073	11103.6375
1983.93046	11096.2375
1986.99819	11001.0375
1990.06394	11034.8375
1993.1277	10987.9375
1996.18947	10932.5375
1999.24925	10899.0375
2002.30706	10839.3375
2005.36288	10812.1375
2008.41672	10776.3375
2011.46859	10754.9375
2014.51848	10736.4375
2017.56639	10668.0375
2020.61233	10662.0375
2023.6563	10655.1375
2026.6983	10608.2375
2029.73833	10572.1375
2032.7764	10541.1375
2035.8125	10505.2375
2038.84664	10478.6375
2041.87881	10449.2375
2044.90903	10390.9375
2047.93729	10376.6375
2050.96359	10390.7375
2053.98794	10376.3375
2057.01034	10356.6375
2060.03078	10325.0375
2063.04927	10339.8375
2066.06582	10301.3375
2069.08042	10333.0375
2072.09307	10312.0375
2075.10378	10337.9375
2078.11255	10290.1375
2081.11938	10304.6375
2084.12426	10273.5375
2087.12722	10254.8375
2090.12824	10232.3375
2093.12732	10242.2375
2096.12447	10217.4375
2099.11969	10228.8375
2102.11299	10217.4375
2105.10435	10235.1375
2108.09379	10208.3375
2111.08131	10212.3375
2114.0669	10223.5375
2117.05057	10223.8375
2120.03233	10220.0375
2123.01216	10231.7375
2125.99008	10232.4375
2128.96609	10226.4375
2131.94018	10272.0375
2134.91236	10271.0375
2137.88263	10258.8375
2140.851	10247.7375
2143.81746	10252.7375
2146.78201	10240.5375
2149.74466	10257.1375
2152.7054	10239.5375
2155.66425	10227.1375
2158.6212	10213.6375
2161.57625	10226.6375
2164.52941	10199.9375
2167.48067	10177.2375
2170.43004	10203.9375
2173.37752	10197.8375
2176.32311	10185.9375
2179.26681	10167.8375
2182.20863	10179.8375
2185.14856	10152.5375
2188.08661	10120.7375
2191.02278	10150.3375
2193.95707	10147.6375
2196.88948	10124.1375
2199.82001	10104.8375
2202.74867	10076.7375
2205.67545	10075.0375
2208.60037	10041.9375
2211.52341	10043.0375
2214.44458	10027.5375
2217.36388	10027.7375
2220.28132	9992.3375
2223.1969	9943.4375
2226.11061	9941.4375
2229.02246	9889.4375
2231.93245	9893.6375
2234.84058	9855.5375
2237.74686	9837.7375
2240.65128	9846.9375
2243.55385	9794.7375
2246.45456	9798.1375
2249.35343	9771.7375
2252.25044	9752.1375
2255.14561	9736.0375
2258.03893	9723.6375
2260.93041	9689.9375
2263.82004	9666.1375
2266.70783	9635.5375
2269.59378	9592.0375
2272.4779	9566.0375
2275.36017	9526.3375
2278.24061	9530.2375
2281.11922	9518.0375
2283.996	9494.4375
2286.87094	9498.8375
2289.74405	9475.7375
2292.61534	9453.3375
2295.4848	9417.9375
2298.35243	9434.5375
2301.21824	9405.6375
2304.08223	9391.5375
2306.94439	9389.1375
2309.80474	9400.8375
2312.66327	9371.7375
2315.51999	9356.1375
2318.37489	9355.8375
2321.22797	9333.7375
2324.07925	9299.5375
2326.92871	9288.9375
2329.77637	9281.4375
2332.62222	9245.8375
2335.46626	9231.5375
2338.3085	9232.9375
2341.14893	9200.2375
2343.98756	9213.4375
2346.8244	9210.9375
2349.65943	9179.6375
2352.49267	9165.4375
2355.32411	9160.7375
2358.15376	9138.8375
2360.98161	9136.0375
2363.80768	9132.7375
2366.63195	9145.6375
2369.45444	9131.1375
2372.27514	9103.3375
2375.09405	9124.2375
2377.91118	9095.7375
2380.72652	9063.8375
2383.54009	9027.8375
2386.35187	9005.3375
2389.16188	8957.2375
2391.97011	8951.0375
2394.77657	8949.3375
2397.58125	8927.4375
2400.38416	8920.1375
2403.18529	8888.6375
2405.98466	8876.2375
2408.78226	8857.6375
2411.57809	8840.9375
2414.37216	8840.4375
2417.16446	8813.3375
2419.955	8795.6375
2422.74378	8800.8375
2425.5308	8767.6375
2428.31606	8780.1375
2431.09956	8771.5375
2433.88131	8746.2375
2436.6613	8724.3375
2439.43954	8738.1375
2442.21603	8703.7375
2444.99077	8704.5375
2447.76377	8704.5375
2450.53501	8680.8375
2453.30451	8700.4375
2456.07226	8663.3375
2458.83827	8668.2375
2461.60254	8647.6375
2464.36507	8628.6375
2467.12586	8610.8375
2469.88492	8611.4375
2472.64224	8619.0375
2475.39782	8609.3375
2478.15167	8614.3375
2480.90379	8600.4375
2483.65417	8606.1375
2486.40283	8578.3375
2489.14976	8577.4375
2491.89497	8552.3375
2494.63845	8561.7375
2497.3802	8536.9375
2500.12024	8534.3375
2502.85855	8520.1375
2505.59514	8519.1375
2508.33002	8512.2375
2511.06318	8524.4375
2513.79462	8492.2375
2516.52435	8479.7375
2519.25237	8451.7375
2521.97867	8446.4375
2524.70327	8446.1375
2527.42616	8428.6375
2530.14734	8432.4375
2532.86681	8393.8375
2535.58458	8397.1375
2538.30065	8395.7375
2541.01501	8383.5375
2543.72768	8360.1375
2546.43864	8370.2375
2549.14791	8340.2375
2551.85548	8314.5375
2554.56136	8299.0375
2557.26554	8271.5375
2559.96803	8257.7375
2562.66883	8238.5375
2565.36794	8208.0375
2568.06536	8224.7375
2570.7611	8170.2375
2573.45514	8171.4375
2576.14751	8160.4375
2578.83819	8143.1375
2581.52719	8132.8375
2584.21451	8131.2375
2586.90015	8110.4375
2589.58411	8086.3375
2592.2664	8071.3375
2594.94701	8060.2375
2597.62594	8061.5375
2600.30321	8032.8375
2602.9788	8029.0375
2605.65273	8002.0375
2608.32498	8004.1375
2610.99557	8007.2375
2613.66449	7996.6375
2616.33175	7981.5375
2618.99734	7991.2375
2621.66128	7962.4375
2624.32355	7956.9375
2626.98416	7924.0375
2629.64311	7920.2375
2632.30041	7904.0375
2634.95605	7879.5375
2637.61004	7884.8375
2640.26238	7870.3375
2642.91306	7868.9375
2645.56209	7866.9375
2648.20948	7856.4375
2650.85521	7853.9375
2653.4993	7846.5375
2656.14175	7834.0375
2658.78255	7859.6375
2661.42171	7842.9375
2664.05923	7857.1375
2666.6951	7865.9375
2669.32934	7845.6375
2671.96194	7834.9375
2674.59291	7832.4375
2677.22224	7827.3375
2679.84993	7828.1375
2682.476	7815.1375
2685.10043	7813.4375
2687.72324	7780.0375
2690.34441	7802.9375
2692.96396	7780.1375
2695.58188	7808.1375
2698.19818	7769.8375
2700.81285	7797.4375
2703.4259	7796.8375
2706.03733	7793.0375
2708.64714	7789.0375
2711.25533	7771.7375
2713.86191	7772.6375
2716.46687	7794.8375
2719.07021	7784.3375
2721.67194	7805.5375
2724.27206	7776.7375
2726.87057	7802.2375
2729.46747	7777.5375
2732.06276	7781.7375
2734.65644	7786.7375
2737.24852	7761.6375
2739.83899	7767.1375
2742.42786	7787.8375
2745.01513	7744.2375
2747.60079	7744.7375
2750.18486	7693.1375
2752.76733	7699.3375
2755.3482	7700.3375
2757.92747	7681.7375
2760.50515	7669.3375
2763.08123	7646.7375
2765.65573	7638.3375
2768.22863	7643.2375
2770.79994	7635.3375
2773.36967	7628.0375
2775.9378	7590.3375
2778.50435	7596.2375
2781.06932	7584.6375
2783.6327	7574.8375
2786.1945	7575.0375
2788.75471	7576.2375
2791.31335	7536.2375
2793.87041	7545.0375
2796.42589	7503.9375
2798.97979	7529.5375
2801.53212	7508.6375
2804.08288	7484.9375
2806.63206	7452.4375
2809.17967	7421.6375
2811.72571	7412.2375
2814.27018	7413.4375
2816.81308	7389.0375
2819.35442	7353.6375
2821.89419	7342.9375
2824.43239	7356.2375
2826.96904	7331.2375
2829.50412	7333.6375
2832.03763	7317.6375
2834.56959	7306.1375
2837.1	7300.3375
2839.62884	7311.9375
2842.15613	7328.2375
2844.68186	7366.4375
2847.20604	7370.6375
2849.72867	7388.8375
2852.24974	7373.6375
2854.76927	7346.2375
2857.28724	7330.6375
2859.80367	7320.6375
2862.31855	7288.1375
2864.83189	7288.8375
2867.34368	7263.4375
2869.85393	7264.6375
2872.36264	7262.1375
2874.8698	7269.9375
2877.37543	7250.4375
2879.87952	7233.9375
2882.38207	7223.1375
2884.88308	7210.6375
2887.38256	7233.4375
2889.88051	7205.2375
2892.37692	7193.5375
2894.8718	7215.2375
2897.36515	7220.2375
2899.85698	7222.8375
2902.34727	7238.7375
2904.83604	7226.0375
2907.32328	7224.3375
2909.809	7207.6375
2912.29319	7222.9375
2914.77587	7204.2375
2917.25702	7203.5375
2919.73665	7193.9375
2922.21476	7201.8375
2924.69136	7189.8375
2927.16644	7199.6375
2929.64	7192.5375
2932.11205	7170.7375
2934.58258	7162.9375
2937.05161	7155.0375
2939.51912	7166.5375
2941.98513	7143.2375
2944.44962	7129.5375
2946.91261	7080.4375
2949.37409	7098.6375
2951.83407	7082.5375
2954.29254	7087.9375
2956.74951	7068.3375
2959.20498	7044.9375
2961.65895	7034.9375
2964.11142	7045.7375
2966.56239	7029.2375
2969.01186	7016.9375
2971.45984	6995.8375
2973.90632	6974.6375
2976.35131	6983.6375
2978.7948	6950.7375
2981.23681	6934.2375
2983.67732	6900.7375
2986.11635	6904.4375
2988.55388	6876.6375
2990.98993	6846.9375
2993.4245	6812.4375
2995.85758	6806.2375
2998.28917	6784.2375
3000.71928	6769.6375
3003.14791	6750.1375
3005.57506	6766.1375
3008.00073	6726.2375
3010.42493	6726.2375
3012.84764	6709.5375
3015.26888	6670.3375
3017.68865	6689.8375
3020.10694	6675.2375
3022.52376	6664.4375
3024.9391	6660.9375
3027.35298	6637.7375
3029.76539	6623.8375
3032.17632	6639.3375
3034.5858	6630.6375
3036.9938	6629.4375
3039.40034	6627.7375
3041.80542	6620.8375
3044.20903	6581.3375
3046.61118	6602.1375
3049.01187	6564.8375
3051.4111	6575.5375
3053.80888	6548.1375
3056.20519	6526.9375
3058.60005	6506.8375
3060.99345	6480.6375
3063.3854	6482.7375
3065.7759	6478.5375
3068.16494	6466.3375
3070.55254	6426.3375
3072.93868	6431.3375
3075.32338	6404.8375
3077.70662	6387.5375
3080.08842	6382.5375
3082.46878	6367.8375
3084.84769	6366.9375
3087.22515	6371.9375
3089.60118	6374.8375
3091.97576	6346.9375
3094.3489	6357.4375
3096.72061	6328.1375
3099.09087	6341.4375
3101.4597	6340.4375
3103.82709	6327.4375
3106.19305	6315.5375
3108.55757	6343.1375
3110.92066	6299.7375
3113.28232	6308.1375
3115.64255	6306.9375
3118.00134	6279.4375
3120.35871	6271.6375
3122.71466	6251.5375
3125.06917	6239.1375
3127.42226	6227.3375
3129.77393	6221.4375
3132.12417	6229.9375
3134.47299	6212.4375
3136.82039	6221.6375
3139.16636	6209.9375
3141.51092	6202.8375
3143.85406	6201.8375
3146.19579	6208.8375
3148.53609	6213.9375
3150.87499	6212.0375
3153.21246	6226.1375
3155.54853	6232.1375
3157.88318	6218.2375
3160.21642	6246.6375
3162.54826	6210.1375
3164.87868	6235.1375
3167.2077	6228.9375
3169.5353	6232.6375
3171.86151	6232.2375
3174.18631	6231.3375
3176.5097	6234.2375
3178.83169	6207.6375
3181.15228	6218.8375
3183.47147	6204.9375
3185.78926	6183.4375
3188.10565	6190.1375
3190.42065	6199.8375
3192.73424	6171.8375
3195.04645	6187.9375
3197.35725	6152.5375
3199.66667	6163.5375
3201.97469	6173.6375
3204.28132	6168.7375
3206.58656	6190.9375
3208.8904	6169.1375
3211.19287	6140.0375
3213.49394	6160.8375
3215.79363	6166.4375
3218.09193	6172.0375
3220.38884	6167.4375
3222.68438	6148.9375
3224.97853	6160.5375
3227.2713	6139.9375
3229.56269	6136.6375
3231.8527	6135.4375
3234.14133	6110.5375
3236.42858	6101.6375
3238.71446	6106.8375
3240.99896	6071.4375
3243.28209	6082.1375
3245.56384	6066.8375
3247.84423	6075.5375
3250.12324	6057.5375
3252.40088	6051.5375
3254.67715	6043.9375
3256.95205	6035.8375
3259.22558	6021.8375
3261.49775	6007.7375
3263.76855	5995.9375
3266.03799	5992.0375
3268.30606	5987.4375
3270.57277	5970.3375
3272.83812	5965.1375
3275.10211	5950.1375
3277.36474	5946.0375
3279.62601	5919.7375
3281.88593	5904.2375
3284.14448	5913.4375
3286.40168	5906.1375
3288.65753	5916.5375
3290.91202	5908.6375
3293.16516	5897.2375
3295.41695	5882.5375
3297.66738	5838.2375
3299.91647	5823.8375
3302.16421	5768.2375
3304.4106	5733.6375
3306.65564	5680.8375
3308.89933	5656.8375
3311.14169	5609.8375
3313.38269	5557.7375
3315.62236	5521.9375
3317.86068	5471.7375
3320.09766	5433.6375
3322.3333	5396.6375
3324.5676	5352.0375
3326.80056	5283.7375
3329.03219	5233.1375
3331.26248	3.5375
3333.49143	-0.5625
3335.71905	0.1375
