Data from AgNP_FTO_APTES_UA_10uM_CRN_5uM_R6G_10uM_NaF_0.1M_Addition_RamanShift__3__14-45-50-635.txt Node

Date: Thu Feb 10 14:45:50 GMT 2022
User: TCL
Spectrometer: QEP01345
Trigger mode: 4
Integration Time (sec): 7.000000E0
Scans to average: 10
Electric dark correction enabled: true
Nonlinearity correction enabled: false
Boxcar width: 0
XAxis mode: Raman Shifts
Number of Pixels in Spectrum: 1044
>>>>>Begin Spectral Data<<<<<
46.04893	-0.0875
50.45542	-0.5875
54.85868	-1.8875
59.25871	-1.9875
63.6555	77.0125
68.04907	80.3125
72.43941	85.9125
76.82654	84.1125
81.21044	90.8125
85.59113	88.7125
89.96862	96.5125
94.34289	98.6125
98.71396	101.4125
103.08183	105.5125
107.4465	109.1125
111.80798	107.1125
116.16626	113.6125
120.52136	117.4125
124.87327	124.1125
129.222	129.0125
133.56755	139.9125
137.90993	145.6125
142.24913	157.2125
146.58517	181.5125
150.91804	220.8125
155.24774	254.4125
159.57429	321.2125
163.89768	411.7125
168.21792	542.1125
172.53501	745.7125
176.84895	1038.4125
181.15975	1462.5125
185.46741	2049.5125
189.77193	2832.0125
194.07331	3783.4125
198.37157	4846.8125
202.6667	5983.5125
206.9587	7092.3125
211.24758	8209.8125
215.53334	9325.8125
219.81599	10519.3125
224.09553	11837.5125
228.37195	13261.9125
232.64527	14854.9125
236.91549	16485.8125
241.18261	18124.6125
245.44663	19586.4125
249.70755	20940.8125
253.96539	22127.0125
258.22014	23159.7125
262.4718	23978.0125
266.72039	24553.1125
270.96589	24845.9125
275.20832	24851.0125
279.44768	24704.1125
283.68397	24488.9125
287.91719	24250.6125
292.14735	24071.9125
296.37445	24118.6125
300.59849	24183.0125
304.81948	24282.4125
309.03742	24362.0125
313.25231	24216.2125
317.46415	23917.3125
321.67296	23396.6125
325.87872	23056.0125
330.08145	22854.0125
334.28114	22817.9125
338.47781	22947.3125
342.67145	23255.8125
346.86207	23643.6125
351.04966	24144.7125
355.23424	24583.7125
359.4158	24960.4125
363.59435	25255.5125
367.76989	25464.1125
371.94243	25634.9125
376.11196	25724.4125
380.27849	25816.9125
384.44203	25999.2125
388.60257	26207.4125
392.76012	26477.1125
396.91468	26831.3125
401.06626	27216.3125
405.21485	27433.5125
409.36047	27314.2125
413.50311	27156.4125
417.64277	27085.1125
421.77947	27267.5125
425.9132	27450.2125
430.04396	27657.7125
434.17176	27765.9125
438.2966	27875.9125
442.41849	28348.7125
446.53742	29172.2125
450.6534	30107.9125
454.76644	30715.9125
458.87653	30839.7125
462.98368	30556.9125
467.08789	29987.7125
471.18916	29341.2125
475.2875	28684.1125
479.38291	28267.1125
483.4754	28014.2125
487.56496	27726.3125
491.6516	27308.2125
495.73531	27041.0125
499.81612	26979.5125
503.89401	27170.1125
507.96899	27403.4125
512.04106	27335.3125
516.11023	27113.8125
520.1765	26821.4125
524.23987	26568.5125
528.30034	26394.8125
532.35792	26136.3125
536.41261	25816.4125
540.46441	25461.1125
544.51333	25362.9125
548.55936	25694.3125
552.60252	26261.8125
556.64279	26939.8125
560.6802	27510.7125
564.71473	27784.6125
568.7464	28162.0125
572.7752	29010.4125
576.80114	30008.2125
580.82422	31149.1125
584.84444	32633.1125
588.86181	34559.2125
592.87633	35923.7125
596.888	35456.7125
600.89682	33441.4125
604.9028	32577.5125
608.90594	34116.1125
612.90624	35875.5125
616.90371	33468.8125
620.89834	28781.0125
624.89015	26772.5125
628.87913	26552.0125
632.86528	26570.4125
636.84862	26429.9125
640.82913	25898.8125
644.80683	25279.0125
648.78172	24911.9125
652.75379	24977.7125
656.72306	25253.5125
660.68952	25594.2125
664.65319	25439.9125
668.61405	24994.8125
672.57211	24971.0125
676.52738	25142.4125
680.47986	25080.2125
684.42955	24854.5125
688.37646	24803.2125
692.32058	25041.8125
696.26192	25482.2125
700.20048	25954.9125
704.13626	26109.5125
708.06928	26057.6125
711.99952	25901.7125
715.927	25886.6125
719.85171	26053.7125
723.77365	25946.5125
727.69284	25485.2125
731.60928	25096.8125
735.52295	24952.9125
739.43388	24989.6125
743.34206	25055.1125
747.24749	25263.9125
751.15017	25533.5125
755.05012	25983.5125
758.94733	26750.2125
762.8418	27954.5125
766.73354	29675.0125
770.62254	31221.8125
774.50882	31291.0125
778.39237	29932.5125
782.27321	28116.9125
786.15132	26674.3125
790.02671	25808.8125
793.89938	25350.5125
797.76935	25218.6125
801.6366	25208.7125
805.50115	25172.8125
809.36299	25011.2125
813.22213	24768.7125
817.07857	24581.8125
820.93231	24418.7125
824.78336	24334.9125
828.63172	24229.5125
832.47738	24204.1125
836.32036	24235.3125
840.16066	24358.9125
843.99827	24363.9125
847.8332	24356.7125
851.66546	24295.0125
855.49504	24348.8125
859.32195	24372.8125
863.1462	24266.6125
866.96777	24180.4125
870.78668	24127.8125
874.60293	24161.4125
878.41652	24164.6125
882.22745	24259.1125
886.03573	24370.3125
889.84136	24285.8125
893.64433	24175.9125
897.44466	24039.7125
901.24235	23952.9125
905.0374	23913.0125
908.8298	23891.3125
912.61957	23889.1125
916.40671	24153.3125
920.19121	24449.5125
923.97308	24829.2125
927.75233	24908.9125
931.52895	24695.1125
935.30295	24293.7125
939.07433	23904.0125
942.84309	23608.3125
946.60924	23539.8125
950.37278	23473.5125
954.13371	23520.4125
957.89203	23410.4125
961.64774	23412.8125
965.40086	23403.5125
969.15137	23399.6125
972.89929	23303.6125
976.64461	23238.6125
980.38733	23259.5125
984.12747	23382.0125
987.86502	23600.7125
991.59999	23853.4125
995.33237	24203.7125
999.06217	24875.9125
1002.78939	25639.0125
1006.51404	26267.8125
1010.23611	26786.7125
1013.95561	27105.0125
1017.67255	27084.2125
1021.38692	26744.1125
1025.09872	26238.2125
1028.80796	26136.1125
1032.51465	26544.4125
1036.21877	27104.7125
1039.92035	27269.4125
1043.61937	27097.3125
1047.31584	26583.0125
1051.00976	26077.9125
1054.70114	25759.3125
1058.38998	25783.6125
1062.07627	25913.9125
1065.76003	26101.1125
1069.44126	26382.8125
1073.11995	26850.8125
1076.79611	27211.2125
1080.46974	27500.5125
1084.14085	27697.9125
1087.80943	28020.6125
1091.47549	28252.9125
1095.13903	28180.5125
1098.80005	27804.7125
1102.45857	27273.0125
1106.11456	26809.9125
1109.76805	26622.8125
1113.41903	26602.4125
1117.06751	26693.7125
1120.71348	26898.7125
1124.35696	27073.7125
1127.99793	27347.2125
1131.63641	27522.3125
1135.2724	27499.8125
1138.90589	27447.1125
1142.5369	27623.6125
1146.16542	27759.2125
1149.79145	27980.7125
1153.415	28194.4125
1157.03607	28726.9125
1160.65467	29633.0125
1164.27079	31130.1125
1167.88443	32920.7125
1171.49561	34779.7125
1175.10432	37043.0125
1178.71056	40034.5125
1182.31434	42866.8125
1185.91565	44176.4125
1189.51451	43764.4125
1193.11091	42322.3125
1196.70485	40705.0125
1200.29634	39304.0125
1203.88538	38386.1125
1207.47197	37996.5125
1211.05612	37621.2125
1214.63782	36935.6125
1218.21708	36033.4125
1221.79391	35145.4125
1225.36829	34570.8125
1228.94024	34094.9125
1232.50976	33438.7125
1236.07685	32736.3125
1239.6415	32276.6125
1243.20374	32171.9125
1246.76355	32478.3125
1250.32093	33078.6125
1253.8759	33894.5125
1257.42845	34862.8125
1260.97859	35917.9125
1264.52631	37116.0125
1268.07163	38424.9125
1271.61453	39744.2125
1275.15503	40934.1125
1278.69312	42138.3125
1282.22882	43283.6125
1285.76211	44546.3125
1289.29301	46163.2125
1292.82151	48201.1125
1296.34761	50981.0125
1299.87133	54406.8125
1303.39266	58273.9125
1306.9116	61740.6125
1310.42815	64433.7125
1313.94233	65613.0125
1317.45412	64729.7125
1320.96354	62945.0125
1324.47058	61352.0125
1327.97525	60456.1125
1331.47754	59849.6125
1334.97747	59592.7125
1338.47502	59028.7125
1341.97022	57950.4125
1345.46305	56634.0125
1348.95352	55497.3125
1352.44163	55340.6125
1355.92738	56727.7125
1359.41078	59260.2125
1362.89183	60996.8125
1366.37053	59513.4125
1369.84688	54756.2125
1373.32088	48819.2125
1376.79254	44843.0125
1380.26186	43604.5125
1383.72883	43840.3125
1387.19347	43920.6125
1390.65578	43625.8125
1394.11575	43630.3125
1397.57339	44336.7125
1401.0287	45340.5125
1404.48168	46156.9125
1407.93234	46481.5125
1411.38068	45767.6125
1414.82669	44431.7125
1418.27039	42536.2125
1421.71177	40650.1125
1425.15083	39062.2125
1428.58758	38562.3125
1432.02203	39195.1125
1435.45416	40540.0125
1438.88399	42112.1125
1442.31151	43118.0125
1445.73673	43470.3125
1449.15965	43566.7125
1452.58027	43338.4125
1455.9986	43078.5125
1459.41463	43309.2125
1462.82837	44028.9125
1466.23982	44897.7125
1469.64898	45811.0125
1473.05586	46279.7125
1476.46045	46288.6125
1479.86276	45786.8125
1483.26279	45032.8125
1486.66054	44662.4125
1490.05602	44653.9125
1493.44922	44790.3125
1496.84016	44899.8125
1500.22882	45318.2125
1503.61521	46000.9125
1506.99934	46977.8125
1510.38121	47592.3125
1513.76081	47431.6125
1517.13816	46476.8125
1520.51324	45149.1125
1523.88607	44386.1125
1527.25665	44399.6125
1530.62498	44829.4125
1533.99105	44972.1125
1537.35488	44729.3125
1540.71647	43980.1125
1544.07581	42888.5125
1547.4329	41671.6125
1550.78776	40614.1125
1554.14038	39728.0125
1557.49077	39112.1125
1560.83892	38734.2125
1564.18484	38530.8125
1567.52853	38484.6125
1570.86999	38710.2125
1574.20922	39419.2125
1577.54624	40124.2125
1580.88103	40583.7125
1584.2136	41247.4125
1587.54395	43218.9125
1590.87208	46095.9125
1594.19801	49787.1125
1597.52172	53162.1125
1600.84321	54028.9125
1604.16251	51437.6125
1607.47959	46617.3125
1610.79447	41568.4125
1614.10715	37277.3125
1617.41763	34069.9125
1620.7259	32101.1125
1624.03199	31234.3125
1627.33587	31414.6125
1630.63757	32616.9125
1633.93707	35169.5125
1637.23439	39280.4125
1640.52951	45122.9125
1643.82246	51689.5125
1647.11321	56398.8125
1650.40179	56113.6125
1653.68819	50573.4125
1656.97241	42703.7125
1660.25446	35905.6125
1663.53433	31164.8125
1666.81203	28284.5125
1670.08756	26462.7125
1673.36092	25389.7125
1676.63211	24607.9125
1679.90115	24068.1125
1683.16801	23722.9125
1686.43272	23443.6125
1689.69527	23220.5125
1692.95567	23048.8125
1696.2139	22975.1125
1699.46999	22909.7125
1702.72392	22818.6125
1705.97571	22742.2125
1709.22535	22629.9125
1712.47284	22621.9125
1715.71819	22554.9125
1718.96139	22520.5125
1722.20246	22468.9125
1725.44139	22354.6125
1728.67818	22188.3125
1731.91284	22045.7125
1735.14537	21933.6125
1738.37576	21833.9125
1741.60403	21798.6125
1744.83017	21655.9125
1748.05418	21608.7125
1751.27607	21575.8125
1754.49584	21553.0125
1757.71349	21558.7125
1760.92903	21551.9125
1764.14244	21515.8125
1767.35375	21527.0125
1770.56294	21455.5125
1773.77002	21469.2125
1776.97499	21402.9125
1780.17785	21329.8125
1783.37861	21290.9125
1786.57727	21269.3125
1789.77382	21191.3125
1792.96828	21182.9125
1796.16064	21133.3125
1799.3509	21085.4125
1802.53907	21063.6125
1805.72514	21013.7125
1808.90913	20964.5125
1812.09102	20907.0125
1815.27083	20899.1125
1818.44856	20863.9125
1821.6242	20837.6125
1824.79776	20807.3125
1827.96924	20783.7125
1831.13864	20829.9125
1834.30597	20829.7125
1837.47122	20769.7125
1840.6344	20773.6125
1843.7955	20862.6125
1846.95454	20776.4125
1850.11151	20770.0125
1853.26642	20799.8125
1856.41926	20782.4125
1859.57004	20774.7125
1862.71876	20738.3125
1865.86542	20681.6125
1869.01003	20688.6125
1872.15258	20659.3125
1875.29308	20652.4125
1878.43152	20626.6125
1881.56792	20615.4125
1884.70227	20625.3125
1887.83457	20613.7125
1890.96482	20575.0125
1894.09304	20569.9125
1897.21921	20529.1125
1900.34335	20467.9125
1903.46544	20500.1125
1906.58551	20434.2125
1909.70353	20410.7125
1912.81953	20372.4125
1915.93349	20386.3125
1919.04543	20363.1125
1922.15534	20275.5125
1925.26322	20225.6125
1928.36908	20157.7125
1931.47292	20177.1125
1934.57473	20131.4125
1937.67453	20091.6125
1940.77232	20037.0125
1943.86808	19953.4125
1946.96184	19911.3125
1950.05358	19848.6125
1953.14331	19805.5125
1956.23103	19720.9125
1959.31675	19661.6125
1962.40046	19646.7125
1965.48217	19566.9125
1968.56188	19534.5125
1971.63959	19454.8125
1974.7153	19453.3125
1977.78901	19379.5125
1980.86073	19315.2125
1983.93046	19254.7125
1986.99819	19220.3125
1990.06394	19160.5125
1993.1277	19106.9125
1996.18947	19062.9125
1999.24925	19032.0125
2002.30706	18954.5125
2005.36288	18901.3125
2008.41672	18841.1125
2011.46859	18780.7125
2014.51848	18787.4125
2017.56639	18733.6125
2020.61233	18694.0125
2023.6563	18671.3125
2026.6983	18637.1125
2029.73833	18603.4125
2032.7764	18554.7125
2035.8125	18519.6125
2038.84664	18488.1125
2041.87881	18441.7125
2044.90903	18404.1125
2047.93729	18403.9125
2050.96359	18427.8125
2053.98794	18381.1125
2057.01034	18359.6125
2060.03078	18330.9125
2063.04927	18326.4125
2066.06582	18322.2125
2069.08042	18299.9125
2072.09307	18304.1125
2075.10378	18278.8125
2078.11255	18256.6125
2081.11938	18302.0125
2084.12426	18231.1125
2087.12722	18252.2125
2090.12824	18240.3125
2093.12732	18240.8125
2096.12447	18243.2125
2099.11969	18238.7125
2102.11299	18276.3125
2105.10435	18235.3125
2108.09379	18229.2125
2111.08131	18247.0125
2114.0669	18275.9125
2117.05057	18300.2125
2120.03233	18296.2125
2123.01216	18328.3125
2125.99008	18321.2125
2128.96609	18319.2125
2131.94018	18380.3125
2134.91236	18355.8125
2137.88263	18400.0125
2140.851	18414.8125
2143.81746	18399.6125
2146.78201	18415.1125
2149.74466	18422.6125
2152.7054	18391.7125
2155.66425	18406.0125
2158.6212	18401.0125
2161.57625	18406.6125
2164.52941	18406.9125
2167.48067	18381.3125
2170.43004	18373.4125
2173.37752	18386.3125
2176.32311	18393.1125
2179.26681	18380.0125
2182.20863	18374.0125
2185.14856	18380.8125
2188.08661	18387.9125
2191.02278	18424.0125
2193.95707	18423.9125
2196.88948	18403.2125
2199.82001	18377.1125
2202.74867	18345.5125
2205.67545	18376.6125
2208.60037	18327.8125
2211.52341	18336.0125
2214.44458	18285.6125
2217.36388	18252.6125
2220.28132	18214.4125
2223.1969	18187.5125
2226.11061	18204.0125
2229.02246	18169.1125
2231.93245	18134.2125
2234.84058	18127.1125
2237.74686	18108.2125
2240.65128	18078.1125
2243.55385	18050.6125
2246.45456	18022.6125
2249.35343	17989.9125
2252.25044	18003.4125
2255.14561	18001.3125
2258.03893	17949.3125
2260.93041	17909.0125
2263.82004	17812.1125
2266.70783	17802.1125
2269.59378	17747.1125
2272.4779	17665.8125
2275.36017	17650.0125
2278.24061	17622.0125
2281.11922	17620.4125
2283.996	17577.4125
2286.87094	17581.2125
2289.74405	17575.6125
2292.61534	17560.6125
2295.4848	17552.2125
2298.35243	17590.8125
2301.21824	17600.6125
2304.08223	17617.3125
2306.94439	17603.8125
2309.80474	17638.8125
2312.66327	17596.6125
2315.51999	17617.0125
2318.37489	17585.4125
2321.22797	17578.8125
2324.07925	17529.4125
2326.92871	17536.3125
2329.77637	17565.4125
2332.62222	17511.1125
2335.46626	17530.9125
2338.3085	17505.3125
2341.14893	17527.4125
2343.98756	17546.0125
2346.8244	17530.6125
2349.65943	17521.5125
2352.49267	17508.5125
2355.32411	17503.3125
2358.15376	17491.1125
2360.98161	17476.0125
2363.80768	17469.8125
2366.63195	17446.1125
2369.45444	17416.3125
2372.27514	17389.1125
2375.09405	17360.4125
2377.91118	17346.6125
2380.72652	17275.2125
2383.54009	17285.7125
2386.35187	17252.4125
2389.16188	17231.4125
2391.97011	17197.5125
2394.77657	17161.6125
2397.58125	17137.4125
2400.38416	17152.0125
2403.18529	17111.9125
2405.98466	17105.6125
2408.78226	17090.8125
2411.57809	17051.0125
2414.37216	17039.7125
2417.16446	17020.4125
2419.955	16988.4125
2422.74378	16995.2125
2425.5308	16989.0125
2428.31606	16968.3125
2431.09956	16995.3125
2433.88131	16971.9125
2436.6613	16958.2125
2439.43954	16966.8125
2442.21603	16969.7125
2444.99077	16957.6125
2447.76377	16950.3125
2450.53501	16938.7125
2453.30451	16928.9125
2456.07226	16927.6125
2458.83827	16940.0125
2461.60254	16950.6125
2464.36507	16925.9125
2467.12586	16907.8125
2469.88492	16928.4125
2472.64224	16934.4125
2475.39782	16984.1125
2478.15167	16993.9125
2480.90379	16981.7125
2483.65417	17010.3125
2486.40283	17018.6125
2489.14976	17030.3125
2491.89497	17013.4125
2494.63845	17010.2125
2497.3802	17024.4125
2500.12024	17005.9125
2502.85855	16980.9125
2505.59514	16972.0125
2508.33002	16987.9125
2511.06318	16979.5125
2513.79462	16946.1125
2516.52435	16952.0125
2519.25237	16963.3125
2521.97867	16940.1125
2524.70327	16962.1125
2527.42616	16958.9125
2530.14734	16971.5125
2532.86681	16938.6125
2535.58458	16912.4125
2538.30065	16910.2125
2541.01501	16892.1125
2543.72768	16894.7125
2546.43864	16935.0125
2549.14791	16934.3125
2551.85548	16926.6125
2554.56136	16902.1125
2557.26554	16866.3125
2559.96803	16846.2125
2562.66883	16864.6125
2565.36794	16835.8125
2568.06536	16815.6125
2570.7611	16794.6125
2573.45514	16786.3125
2576.14751	16805.6125
2578.83819	16772.3125
2581.52719	16769.7125
2584.21451	16773.9125
2586.90015	16782.9125
2589.58411	16771.8125
2592.2664	16749.1125
2594.94701	16743.3125
2597.62594	16731.0125
2600.30321	16698.0125
2602.9788	16732.6125
2605.65273	16738.2125
2608.32498	16773.2125
2610.99557	16721.2125
2613.66449	16781.5125
2616.33175	16771.2125
2618.99734	16769.8125
2621.66128	16734.0125
2624.32355	16750.6125
2626.98416	16674.7125
2629.64311	16702.4125
2632.30041	16719.0125
2634.95605	16671.5125
2637.61004	16694.9125
2640.26238	16635.0125
2642.91306	16633.5125
2645.56209	16645.3125
2648.20948	16678.3125
2650.85521	16634.6125
2653.4993	16712.6125
2656.14175	16663.9125
2658.78255	16678.8125
2661.42171	16715.1125
2664.05923	16764.9125
2666.6951	16783.5125
2669.32934	16778.1125
2671.96194	16740.1125
2674.59291	16755.8125
2677.22224	16782.2125
2679.84993	16793.5125
2682.476	16766.1125
2685.10043	16758.8125
2687.72324	16735.8125
2690.34441	16762.9125
2692.96396	16734.6125
2695.58188	16722.4125
2698.19818	16715.5125
2700.81285	16731.5125
2703.4259	16774.6125
2706.03733	16815.4125
2708.64714	16774.4125
2711.25533	16833.6125
2713.86191	16796.3125
2716.46687	16821.1125
2719.07021	16828.2125
2721.67194	16850.2125
2724.27206	16850.6125
2726.87057	16871.9125
2729.46747	16864.2125
2732.06276	16863.3125
2734.65644	16891.2125
2737.24852	16923.3125
2739.83899	16888.8125
2742.42786	16913.3125
2745.01513	16874.8125
2747.60079	16879.9125
2750.18486	16842.7125
2752.76733	16818.3125
2755.3482	16851.2125
2757.92747	16855.5125
2760.50515	16811.1125
2763.08123	16804.1125
2765.65573	16800.8125
2768.22863	16851.4125
2770.79994	16816.0125
2773.36967	16848.3125
2775.9378	16843.4125
2778.50435	16831.9125
2781.06932	16853.1125
2783.6327	16869.9125
2786.1945	16838.5125
2788.75471	16802.4125
2791.31335	16764.8125
2793.87041	16792.6125
2796.42589	16730.4125
2798.97979	16743.0125
2801.53212	16690.9125
2804.08288	16692.0125
2806.63206	16693.2125
2809.17967	16660.7125
2811.72571	16630.2125
2814.27018	16561.6125
2816.81308	16545.8125
2819.35442	16496.9125
2821.89419	16474.7125
2824.43239	16492.8125
2826.96904	16448.3125
2829.50412	16447.0125
2832.03763	16410.2125
2834.56959	16420.8125
2837.1	16412.8125
2839.62884	16390.8125
2842.15613	16410.5125
2844.68186	16428.0125
2847.20604	16428.0125
2849.72867	16444.4125
2852.24974	16427.4125
2854.76927	16409.4125
2857.28724	16382.2125
2859.80367	16377.5125
2862.31855	16314.2125
2864.83189	16282.7125
2867.34368	16260.5125
2869.85393	16275.0125
2872.36264	16278.9125
2874.8698	16282.4125
2877.37543	16262.8125
2879.87952	16279.5125
2882.38207	16285.0125
2884.88308	16269.0125
2887.38256	16291.8125
2889.88051	16282.8125
2892.37692	16327.5125
2894.8718	16311.9125
2897.36515	16343.8125
2899.85698	16383.4125
2902.34727	16411.0125
2904.83604	16419.4125
2907.32328	16470.2125
2909.809	16454.4125
2912.29319	16448.0125
2914.77587	16414.6125
2917.25702	16405.2125
2919.73665	16427.9125
2922.21476	16429.1125
2924.69136	16401.6125
2927.16644	16403.4125
2929.64	16386.1125
2932.11205	16368.6125
2934.58258	16291.0125
2937.05161	16346.3125
2939.51912	16333.7125
2941.98513	16327.9125
2944.44962	16315.2125
2946.91261	16240.2125
2949.37409	16301.4125
2951.83407	16230.9125
2954.29254	16240.6125
2956.74951	16250.2125
2959.20498	16234.4125
2961.65895	16208.6125
2964.11142	16232.4125
2966.56239	16226.2125
2969.01186	16221.5125
2971.45984	16203.7125
2973.90632	16196.8125
2976.35131	16125.6125
2978.7948	16068.8125
2981.23681	16048.5125
2983.67732	16027.5125
2986.11635	15961.9125
2988.55388	15925.1125
2990.98993	15907.3125
2993.4245	15880.2125
2995.85758	15838.3125
2998.28917	15786.4125
3000.71928	15790.8125
3003.14791	15753.3125
3005.57506	15765.9125
3008.00073	15717.3125
3010.42493	15535.7125
3012.84764	15634.9125
3015.26888	15600.6125
3017.68865	15590.8125
3020.10694	15542.0125
3022.52376	15533.8125
3024.9391	15537.8125
3027.35298	15494.4125
3029.76539	15522.9125
3032.17632	15520.7125
3034.5858	15496.6125
3036.9938	15485.2125
3039.40034	15486.6125
3041.80542	15483.1125
3044.20903	15456.5125
3046.61118	15469.2125
3049.01187	15427.3125
3051.4111	15397.6125
3053.80888	15379.8125
3056.20519	15353.0125
3058.60005	15344.0125
3060.99345	15308.6125
3063.3854	15235.1125
3065.7759	15231.5125
3068.16494	15165.1125
3070.55254	15121.9125
3072.93868	15084.6125
3075.32338	15044.8125
3077.70662	15004.9125
3080.08842	14969.4125
3082.46878	14968.3125
3084.84769	14983.7125
3087.22515	14933.0125
3089.60118	14977.3125
3091.97576	14942.9125
3094.3489	14909.7125
3096.72061	14913.6125
3099.09087	14922.1125
3101.4597	14902.6125
3103.82709	14885.3125
3106.19305	14901.7125
3108.55757	14879.2125
3110.92066	14837.1125
3113.28232	14800.6125
3115.64255	14786.8125
3118.00134	14753.8125
3120.35871	14736.3125
3122.71466	14695.9125
3125.06917	14674.7125
3127.42226	14636.6125
3129.77393	14626.7125
3132.12417	14591.0125
3134.47299	14580.3125
3136.82039	14567.3125
3139.16636	14604.0125
3141.51092	14575.6125
3143.85406	14580.5125
3146.19579	14566.1125
3148.53609	14546.3125
3150.87499	14551.4125
3153.21246	14559.0125
3155.54853	14547.3125
3157.88318	14560.2125
3160.21642	14571.8125
3162.54826	14570.0125
3164.87868	14594.0125
3167.2077	14591.6125
3169.5353	14609.2125
3171.86151	14569.4125
3174.18631	14550.1125
3176.5097	14553.8125
3178.83169	14519.2125
3181.15228	14523.6125
3183.47147	14483.3125
3185.78926	14489.3125
3188.10565	14458.6125
3190.42065	14416.9125
3192.73424	14426.1125
3195.04645	14434.3125
3197.35725	14414.0125
3199.66667	14413.2125
3201.97469	14471.1125
3204.28132	14446.1125
3206.58656	14446.5125
3208.8904	14438.0125
3211.19287	14435.1125
3213.49394	14421.4125
3215.79363	14439.2125
3218.09193	14422.2125
3220.38884	14442.0125
3222.68438	14466.5125
3224.97853	14419.0125
3227.2713	14427.8125
3229.56269	14418.3125
3231.8527	14400.4125
3234.14133	14397.3125
3236.42858	14352.4125
3238.71446	14343.8125
3240.99896	14307.2125
3243.28209	14293.8125
3245.56384	14287.7125
3247.84423	14265.7125
3250.12324	14246.0125
3252.40088	14227.8125
3254.67715	14203.5125
3256.95205	14195.4125
3259.22558	14164.5125
3261.49775	14147.7125
3263.76855	14134.2125
3266.03799	14125.1125
3268.30606	14120.9125
3270.57277	14064.5125
3272.83812	14039.0125
3275.10211	14027.7125
3277.36474	14008.0125
3279.62601	14007.2125
3281.88593	13982.3125
3284.14448	13963.9125
3286.40168	14014.3125
3288.65753	13998.3125
3290.91202	13997.2125
3293.16516	13945.3125
3295.41695	13937.2125
3297.66738	13875.9125
3299.91647	13774.2125
3302.16421	13720.0125
3304.4106	13629.6125
3306.65564	13526.6125
3308.89933	13438.6125
3311.14169	13319.2125
3313.38269	13216.6125
3315.62236	13154.2125
3317.86068	13056.4125
3320.09766	12955.1125
3322.3333	12863.6125
3324.5676	12799.7125
3326.80056	12589.1125
3329.03219	12507.6125
3331.26248	5.5125
3333.49143	0.0125
3335.71905	-0.6875
