Data from AgNP_FTO_APTES_UA_10uM_CRN_50uM_R6G_10uM_NaF_0.1M_Addition_RamanShift__21__17-07-00-809.txt Node

Date: Thu Feb 10 17:07:00 GMT 2022
User: TCL
Spectrometer: QEP01345
Trigger mode: 4
Integration Time (sec): 7.000000E0
Scans to average: 10
Electric dark correction enabled: true
Nonlinearity correction enabled: false
Boxcar width: 0
XAxis mode: Raman Shifts
Number of Pixels in Spectrum: 1044
>>>>>Begin Spectral Data<<<<<
46.04893	-1.7125
50.45542	-0.9125
54.85868	-1.3125
59.25871	-1.3125
63.6555	63.6875
68.04907	64.3875
72.43941	70.5875
76.82654	67.6875
81.21044	77.1875
85.59113	74.8875
89.96862	79.6875
94.34289	83.0875
98.71396	83.4875
103.08183	87.5875
107.4465	93.4875
111.80798	85.2875
116.16626	97.0875
120.52136	96.5875
124.87327	103.3875
129.222	106.5875
133.56755	111.4875
137.90993	118.9875
142.24913	133.6875
146.58517	143.6875
150.91804	165.2875
155.24774	198.8875
159.57429	244.4875
163.89768	313.4875
168.21792	410.5875
172.53501	558.4875
176.84895	778.6875
181.15975	1093.0875
185.46741	1533.8875
189.77193	2127.5875
194.07331	2844.2875
198.37157	3647.3875
202.6667	4525.3875
206.9587	5346.7875
211.24758	6216.0875
215.53334	7050.3875
219.81599	7894.1875
224.09553	8842.7875
228.37195	9882.4875
232.64527	11064.1875
236.91549	12301.6875
241.18261	13604.3875
245.44663	14822.3875
249.70755	15958.8875
253.96539	16925.2875
258.22014	17806.3875
262.4718	18511.6875
266.72039	19071.3875
270.96589	19320.2875
275.20832	19470.4875
279.44768	19429.0875
283.68397	19277.5875
287.91719	19173.1875
292.14735	19109.7875
296.37445	19088.2875
300.59849	19097.6875
304.81948	19047.1875
309.03742	18871.3875
313.25231	18608.9875
317.46415	18209.7875
321.67296	17766.5875
325.87872	17382.8875
330.08145	17305.1875
334.28114	17322.3875
338.47781	17461.3875
342.67145	17652.8875
346.86207	17906.3875
351.04966	18228.1875
355.23424	18585.0875
359.4158	18839.0875
363.59435	19096.2875
367.76989	19261.6875
371.94243	19405.7875
376.11196	19515.6875
380.27849	19643.0875
384.44203	19778.8875
388.60257	19927.3875
392.76012	20041.0875
396.91468	20271.7875
401.06626	20558.2875
405.21485	20748.2875
409.36047	20670.5875
413.50311	20555.5875
417.64277	20381.9875
421.77947	20369.7875
425.9132	20397.6875
430.04396	20561.2875
434.17176	20665.8875
438.2966	20876.7875
442.41849	21144.2875
446.53742	21565.5875
450.6534	22053.0875
454.76644	22457.2875
458.87653	22711.2875
462.98368	22677.0875
467.08789	22536.8875
471.18916	22353.7875
475.2875	22202.1875
479.38291	22141.3875
483.4754	22019.9875
487.56496	21757.3875
491.6516	21447.5875
495.73531	21179.5875
499.81612	21056.7875
503.89401	21108.8875
507.96899	21121.6875
512.04106	21133.2875
516.11023	21028.5875
520.1765	20934.1875
524.23987	20823.7875
528.30034	20667.3875
532.35792	20545.0875
536.41261	20434.6875
540.46441	20317.7875
544.51333	20401.2875
548.55936	20615.5875
552.60252	20967.3875
556.64279	21305.8875
560.6802	21457.2875
564.71473	21495.6875
568.7464	21722.2875
572.7752	21985.7875
576.80114	22242.1875
580.82422	22380.9875
584.84444	22488.7875
588.86181	22610.9875
592.87633	22822.4875
596.888	23018.9875
600.89682	23235.0875
604.9028	23868.5875
608.90594	25379.2875
612.90624	26861.7875
616.90371	25587.9875
620.89834	22508.1875
624.89015	21322.7875
628.87913	21223.8875
632.86528	21241.2875
636.84862	21168.3875
640.82913	20926.4875
644.80683	20535.0875
648.78172	20238.6875
652.75379	20179.1875
656.72306	20299.4875
660.68952	20557.9875
664.65319	20536.5875
668.61405	20330.0875
672.57211	20268.1875
676.52738	20277.7875
680.47986	20321.3875
684.42955	20307.9875
688.37646	20244.6875
692.32058	20343.9875
696.26192	20447.8875
700.20048	20631.1875
704.13626	20769.1875
708.06928	20692.0875
711.99952	20562.7875
715.927	20501.5875
719.85171	20529.5875
723.77365	20478.1875
727.69284	20387.9875
731.60928	20252.7875
735.52295	20242.8875
739.43388	20240.6875
743.34206	20285.3875
747.24749	20382.2875
751.15017	20534.4875
755.05012	20779.7875
758.94733	21194.7875
762.8418	22009.8875
766.73354	23175.4875
770.62254	24221.0875
774.50882	24475.7875
778.39237	23617.7875
782.27321	22279.4875
786.15132	21198.9875
790.02671	20569.4875
793.89938	20287.3875
797.76935	20166.2875
801.6366	20117.1875
805.50115	20136.9875
809.36299	20027.2875
813.22213	19947.2875
817.07857	19892.4875
820.93231	19895.9875
824.78336	19893.0875
828.63172	19881.9875
832.47738	19905.7875
836.32036	19912.8875
840.16066	19953.0875
843.99827	20012.4875
847.8332	20000.4875
851.66546	19954.1875
855.49504	19916.3875
859.32195	19944.4875
863.1462	19873.4875
866.96777	19835.8875
870.78668	19793.5875
874.60293	19807.4875
878.41652	19756.3875
882.22745	19802.9875
886.03573	19823.9875
889.84136	19835.0875
893.64433	19772.7875
897.44466	19701.1875
901.24235	19646.2875
905.0374	19595.8875
908.8298	19639.6875
912.61957	19686.6875
916.40671	19839.1875
920.19121	19992.4875
923.97308	20138.9875
927.75233	20156.8875
931.52895	20098.3875
935.30295	19930.7875
939.07433	19679.9875
942.84309	19478.4875
946.60924	19393.7875
950.37278	19335.0875
954.13371	19219.0875
957.89203	19220.8875
961.64774	19137.9875
965.40086	19083.6875
969.15137	19040.3875
972.89929	18968.1875
976.64461	18947.1875
980.38733	18917.9875
984.12747	19013.7875
987.86502	19162.4875
991.59999	19355.9875
995.33237	19697.4875
999.06217	20102.1875
1002.78939	20558.1875
1006.51404	20772.6875
1010.23611	20863.5875
1013.95561	21006.1875
1017.67255	21016.8875
1021.38692	20912.1875
1025.09872	20852.4875
1028.80796	21031.6875
1032.51465	21553.2875
1036.21877	22016.8875
1039.92035	22078.2875
1043.61937	21800.0875
1047.31584	21361.0875
1051.00976	20887.4875
1054.70114	20677.6875
1058.38998	20683.9875
1062.07627	20775.1875
1065.76003	20854.0875
1069.44126	20875.0875
1073.11995	21001.5875
1076.79611	21113.8875
1080.46974	21182.7875
1084.14085	21261.7875
1087.80943	21453.2875
1091.47549	21544.5875
1095.13903	21505.1875
1098.80005	21354.3875
1102.45857	21074.9875
1106.11456	20925.5875
1109.76805	20927.5875
1113.41903	20972.0875
1117.06751	21106.1875
1120.71348	21322.5875
1124.35696	21445.5875
1127.99793	21594.8875
1131.63641	21673.4875
1135.2724	21532.0875
1138.90589	21400.3875
1142.5369	21320.0875
1146.16542	21254.5875
1149.79145	21338.2875
1153.415	21424.3875
1157.03607	21669.2875
1160.65467	22091.8875
1164.27079	22722.3875
1167.88443	23561.3875
1171.49561	24613.1875
1175.10432	25979.2875
1178.71056	27626.1875
1182.31434	29236.7875
1185.91565	30189.6875
1189.51451	30241.4875
1193.11091	29655.6875
1196.70485	28609.5875
1200.29634	27605.7875
1203.88538	26839.9875
1207.47197	26251.6875
1211.05612	25738.6875
1214.63782	25286.4875
1218.21708	25007.8875
1221.79391	24869.4875
1225.36829	24773.9875
1228.94024	24567.7875
1232.50976	24288.3875
1236.07685	24047.3875
1239.6415	23994.1875
1243.20374	24066.0875
1246.76355	24201.3875
1250.32093	24512.5875
1253.8759	24934.8875
1257.42845	25508.0875
1260.97859	25934.8875
1264.52631	26312.8875
1268.07163	26785.2875
1271.61453	27345.9875
1275.15503	27983.5875
1278.69312	28726.0875
1282.22882	29260.4875
1285.76211	29711.9875
1289.29301	30225.9875
1292.82151	30927.9875
1296.34761	31944.3875
1299.87133	33268.3875
1303.39266	34900.9875
1306.9116	36667.4875
1310.42815	38424.8875
1313.94233	39521.8875
1317.45412	39512.2875
1320.96354	38981.3875
1324.47058	38326.5875
1327.97525	37787.2875
1331.47754	37409.2875
1334.97747	37414.8875
1338.47502	37712.3875
1341.97022	38038.5875
1345.46305	37925.9875
1348.95352	37381.8875
1352.44163	36782.9875
1355.92738	36692.1875
1359.41078	37526.8875
1362.89183	38338.8875
1366.37053	37518.3875
1369.84688	34850.4875
1373.32088	32039.6875
1376.79254	30123.2875
1380.26186	29300.1875
1383.72883	29150.3875
1387.19347	29149.0875
1390.65578	29039.0875
1394.11575	29030.9875
1397.57339	29335.4875
1401.0287	29836.3875
1404.48168	30314.8875
1407.93234	30594.7875
1411.38068	30551.8875
1414.82669	29969.0875
1418.27039	28958.7875
1421.71177	27963.9875
1425.15083	27043.6875
1428.58758	26429.2875
1432.02203	26388.1875
1435.45416	26674.3875
1438.88399	27092.8875
1442.31151	27520.7875
1445.73673	27919.5875
1449.15965	28277.1875
1452.58027	28596.1875
1455.9986	28759.9875
1459.41463	29033.0875
1462.82837	29435.7875
1466.23982	29889.2875
1469.64898	30328.7875
1473.05586	30582.9875
1476.46045	30646.8875
1479.86276	30565.7875
1483.26279	30354.6875
1486.66054	30208.3875
1490.05602	30179.5875
1493.44922	30271.7875
1496.84016	30348.1875
1500.22882	30611.9875
1503.61521	31169.8875
1506.99934	32025.0875
1510.38121	32880.8875
1513.76081	33212.0875
1517.13816	32735.0875
1520.51324	31830.7875
1523.88607	30888.0875
1527.25665	30293.4875
1530.62498	30021.1875
1533.99105	29895.5875
1537.35488	29807.9875
1540.71647	29608.8875
1544.07581	29376.6875
1547.4329	28977.6875
1550.78776	28573.6875
1554.14038	28326.0875
1557.49077	28239.3875
1560.83892	28188.2875
1564.18484	28159.9875
1567.52853	28093.3875
1570.86999	28120.6875
1574.20922	28276.5875
1577.54624	28486.2875
1580.88103	28536.8875
1584.2136	28696.3875
1587.54395	29231.2875
1590.87208	30221.7875
1594.19801	31681.7875
1597.52172	33176.9875
1600.84321	33714.9875
1604.16251	32681.2875
1607.47959	30864.0875
1610.79447	28830.2875
1614.10715	26924.6875
1617.41763	25322.5875
1620.7259	24221.3875
1624.03199	23565.9875
1627.33587	23500.4875
1630.63757	23936.0875
1633.93707	24962.4875
1637.23439	26477.5875
1640.52951	28442.2875
1643.82246	30596.3875
1647.11321	32112.8875
1650.40179	32365.2875
1653.68819	30882.5875
1656.97241	28120.8875
1660.25446	25208.5875
1663.53433	23035.4875
1666.81203	21493.0875
1670.08756	20522.6875
1673.36092	19893.1875
1676.63211	19458.2875
1679.90115	19132.4875
1683.16801	18850.7875
1686.43272	18768.3875
1689.69527	18644.0875
1692.95567	18516.2875
1696.2139	18454.7875
1699.46999	18425.3875
1702.72392	18381.0875
1705.97571	18316.4875
1709.22535	18290.0875
1712.47284	18254.6875
1715.71819	18224.4875
1718.96139	18225.3875
1722.20246	18161.5875
1725.44139	18111.3875
1728.67818	18012.9875
1731.91284	17943.0875
1735.14537	17845.3875
1738.37576	17789.0875
1741.60403	17797.8875
1744.83017	17755.8875
1748.05418	17716.5875
1751.27607	17676.0875
1754.49584	17712.8875
1757.71349	17678.1875
1760.92903	17669.4875
1764.14244	17668.3875
1767.35375	17646.1875
1770.56294	17617.6875
1773.77002	17628.2875
1776.97499	17536.2875
1780.17785	17506.7875
1783.37861	17518.7875
1786.57727	17445.9875
1789.77382	17451.7875
1792.96828	17411.3875
1796.16064	17397.5875
1799.3509	17390.3875
1802.53907	17351.1875
1805.72514	17320.5875
1808.90913	17281.4875
1812.09102	17240.2875
1815.27083	17229.7875
1818.44856	17198.3875
1821.6242	17152.3875
1824.79776	17167.7875
1827.96924	17156.3875
1831.13864	17142.0875
1834.30597	17161.7875
1837.47122	17144.8875
1840.6344	17118.6875
1843.7955	17130.9875
1846.95454	17115.9875
1850.11151	17094.9875
1853.26642	17110.5875
1856.41926	17122.4875
1859.57004	17124.1875
1862.71876	17108.0875
1865.86542	17068.2875
1869.01003	17070.8875
1872.15258	17089.6875
1875.29308	17076.1875
1878.43152	17068.9875
1881.56792	17070.8875
1884.70227	17026.9875
1887.83457	17009.6875
1890.96482	17002.3875
1894.09304	16974.5875
1897.21921	16947.3875
1900.34335	16931.7875
1903.46544	16930.0875
1906.58551	16944.7875
1909.70353	16899.3875
1912.81953	16885.9875
1915.93349	16889.5875
1919.04543	16863.3875
1922.15534	16829.9875
1925.26322	16790.0875
1928.36908	16794.5875
1931.47292	16766.9875
1934.57473	16747.0875
1937.67453	16699.3875
1940.77232	16657.7875
1943.86808	16586.6875
1946.96184	16512.8875
1950.05358	16502.5875
1953.14331	16481.1875
1956.23103	16424.8875
1959.31675	16357.3875
1962.40046	16330.3875
1965.48217	16265.6875
1968.56188	16215.5875
1971.63959	16195.1875
1974.7153	16108.2875
1977.78901	16078.4875
1980.86073	16049.2875
1983.93046	16003.5875
1986.99819	15968.8875
1990.06394	15912.3875
1993.1277	15883.4875
1996.18947	15857.5875
1999.24925	15772.6875
2002.30706	15743.6875
2005.36288	15696.5875
2008.41672	15661.0875
2011.46859	15622.9875
2014.51848	15639.2875
2017.56639	15595.7875
2020.61233	15548.9875
2023.6563	15491.2875
2026.6983	15469.7875
2029.73833	15433.6875
2032.7764	15396.3875
2035.8125	15357.2875
2038.84664	15334.3875
2041.87881	15302.6875
2044.90903	15257.7875
2047.93729	15278.9875
2050.96359	15259.4875
2053.98794	15235.6875
2057.01034	15220.7875
2060.03078	15233.3875
2063.04927	15207.7875
2066.06582	15196.3875
2069.08042	15193.4875
2072.09307	15188.9875
2075.10378	15174.5875
2078.11255	15149.9875
2081.11938	15161.1875
2084.12426	15142.5875
2087.12722	15118.1875
2090.12824	15087.6875
2093.12732	15119.4875
2096.12447	15097.5875
2099.11969	15106.2875
2102.11299	15084.4875
2105.10435	15110.7875
2108.09379	15123.4875
2111.08131	15122.3875
2114.0669	15122.2875
2117.05057	15158.8875
2120.03233	15160.6875
2123.01216	15191.5875
2125.99008	15204.8875
2128.96609	15182.1875
2131.94018	15224.6875
2134.91236	15233.9875
2137.88263	15259.1875
2140.851	15268.0875
2143.81746	15296.3875
2146.78201	15290.0875
2149.74466	15316.6875
2152.7054	15299.0875
2155.66425	15277.2875
2158.6212	15294.0875
2161.57625	15287.1875
2164.52941	15281.9875
2167.48067	15286.2875
2170.43004	15256.6875
2173.37752	15256.3875
2176.32311	15262.6875
2179.26681	15265.2875
2182.20863	15248.8875
2185.14856	15253.2875
2188.08661	15258.1875
2191.02278	15267.8875
2193.95707	15294.5875
2196.88948	15289.5875
2199.82001	15300.2875
2202.74867	15284.7875
2205.67545	15252.6875
2208.60037	15241.9875
2211.52341	15256.8875
2214.44458	15221.1875
2217.36388	15214.6875
2220.28132	15198.8875
2223.1969	15148.2875
2226.11061	15134.1875
2229.02246	15101.8875
2231.93245	15075.4875
2234.84058	15055.2875
2237.74686	15015.0875
2240.65128	15024.0875
2243.55385	14984.6875
2246.45456	14962.5875
2249.35343	14959.7875
2252.25044	14925.3875
2255.14561	14901.8875
2258.03893	14879.7875
2260.93041	14847.5875
2263.82004	14817.8875
2266.70783	14788.5875
2269.59378	14757.7875
2272.4779	14722.3875
2275.36017	14678.9875
2278.24061	14666.2875
2281.11922	14662.6875
2283.996	14612.8875
2286.87094	14610.2875
2289.74405	14590.8875
2292.61534	14572.2875
2295.4848	14591.9875
2298.35243	14607.7875
2301.21824	14574.8875
2304.08223	14589.8875
2306.94439	14556.4875
2309.80474	14590.5875
2312.66327	14601.5875
2315.51999	14611.2875
2318.37489	14616.1875
2321.22797	14585.3875
2324.07925	14544.1875
2326.92871	14528.3875
2329.77637	14536.8875
2332.62222	14515.2875
2335.46626	14516.4875
2338.3085	14499.8875
2341.14893	14524.6875
2343.98756	14500.0875
2346.8244	14532.0875
2349.65943	14494.2875
2352.49267	14505.0875
2355.32411	14518.9875
2358.15376	14488.2875
2360.98161	14489.2875
2363.80768	14484.1875
2366.63195	14448.1875
2369.45444	14417.0875
2372.27514	14400.3875
2375.09405	14357.9875
2377.91118	14329.4875
2380.72652	14281.8875
2383.54009	14267.5875
2386.35187	14269.3875
2389.16188	14221.5875
2391.97011	14173.3875
2394.77657	14163.7875
2397.58125	14146.4875
2400.38416	14109.8875
2403.18529	14120.2875
2405.98466	14100.4875
2408.78226	14088.2875
2411.57809	14059.0875
2414.37216	14054.6875
2417.16446	14018.7875
2419.955	14025.6875
2422.74378	14030.2875
2425.5308	13988.0875
2428.31606	14000.1875
2431.09956	13972.9875
2433.88131	13964.4875
2436.6613	13970.5875
2439.43954	13924.2875
2442.21603	13941.1875
2444.99077	13946.0875
2447.76377	13943.7875
2450.53501	13913.9875
2453.30451	13954.3875
2456.07226	13897.5875
2458.83827	13885.0875
2461.60254	13885.2875
2464.36507	13873.7875
2467.12586	13887.4875
2469.88492	13898.3875
2472.64224	13881.6875
2475.39782	13869.3875
2478.15167	13891.5875
2480.90379	13885.3875
2483.65417	13899.6875
2486.40283	13912.2875
2489.14976	13918.9875
2491.89497	13887.1875
2494.63845	13946.7875
2497.3802	13932.9875
2500.12024	13919.3875
2502.85855	13904.8875
2505.59514	13889.3875
2508.33002	13876.2875
2511.06318	13858.9875
2513.79462	13855.3875
2516.52435	13840.7875
2519.25237	13841.1875
2521.97867	13811.9875
2524.70327	13822.9875
2527.42616	13810.1875
2530.14734	13783.7875
2532.86681	13809.3875
2535.58458	13809.8875
2538.30065	13784.0875
2541.01501	13791.6875
2543.72768	13788.7875
2546.43864	13745.3875
2549.14791	13770.3875
2551.85548	13749.1875
2554.56136	13722.1875
2557.26554	13681.8875
2559.96803	13629.9875
2562.66883	13657.7875
2565.36794	13640.0875
2568.06536	13612.9875
2570.7611	13598.0875
2573.45514	13594.8875
2576.14751	13575.4875
2578.83819	13573.7875
2581.52719	13552.4875
2584.21451	13540.6875
2586.90015	13553.2875
2589.58411	13547.6875
2592.2664	13552.5875
2594.94701	13545.3875
2597.62594	13541.1875
2600.30321	13491.0875
2602.9788	13483.9875
2605.65273	13451.2875
2608.32498	13486.3875
2610.99557	13446.4875
2613.66449	13450.3875
2616.33175	13435.0875
2618.99734	13476.5875
2621.66128	13492.0875
2624.32355	13458.4875
2626.98416	13477.4875
2629.64311	13439.5875
2632.30041	13461.0875
2634.95605	13437.6875
2637.61004	13452.6875
2640.26238	13390.0875
2642.91306	13393.1875
2645.56209	13382.6875
2648.20948	13366.2875
2650.85521	13383.8875
2653.4993	13364.0875
2656.14175	13366.1875
2658.78255	13359.6875
2661.42171	13377.1875
2664.05923	13403.5875
2666.6951	13407.5875
2669.32934	13412.4875
2671.96194	13401.2875
2674.59291	13452.7875
2677.22224	13420.5875
2679.84993	13391.4875
2682.476	13366.9875
2685.10043	13358.6875
2687.72324	13337.4875
2690.34441	13370.7875
2692.96396	13369.8875
2695.58188	13342.9875
2698.19818	13315.0875
2700.81285	13377.0875
2703.4259	13369.1875
2706.03733	13394.9875
2708.64714	13356.3875
2711.25533	13394.5875
2713.86191	13358.3875
2716.46687	13386.5875
2719.07021	13373.3875
2721.67194	13429.3875
2724.27206	13397.6875
2726.87057	13422.5875
2729.46747	13425.8875
2732.06276	13426.1875
2734.65644	13407.5875
2737.24852	13442.2875
2739.83899	13404.4875
2742.42786	13403.8875
2745.01513	13364.9875
2747.60079	13369.2875
2750.18486	13362.0875
2752.76733	13334.8875
2755.3482	13327.5875
2757.92747	13351.7875
2760.50515	13306.5875
2763.08123	13302.0875
2765.65573	13317.8875
2768.22863	13299.3875
2770.79994	13313.9875
2773.36967	13292.3875
2775.9378	13282.3875
2778.50435	13306.6875
2781.06932	13324.6875
2783.6327	13301.6875
2786.1945	13317.8875
2788.75471	13292.6875
2791.31335	13233.7875
2793.87041	13270.1875
2796.42589	13230.2875
2798.97979	13219.7875
2801.53212	13206.3875
2804.08288	13172.4875
2806.63206	13134.4875
2809.17967	13111.0875
2811.72571	13089.8875
2814.27018	13065.9875
2816.81308	13069.3875
2819.35442	13029.6875
2821.89419	13037.6875
2824.43239	13027.2875
2826.96904	12998.2875
2829.50412	12993.2875
2832.03763	12959.4875
2834.56959	12993.6875
2837.1	12959.7875
2839.62884	12935.3875
2842.15613	12946.3875
2844.68186	12952.9875
2847.20604	12936.2875
2849.72867	12975.7875
2852.24974	12988.4875
2854.76927	12927.2875
2857.28724	12929.7875
2859.80367	12894.1875
2862.31855	12847.3875
2864.83189	12873.8875
2867.34368	12862.1875
2869.85393	12835.7875
2872.36264	12853.0875
2874.8698	12833.9875
2877.37543	12828.0875
2879.87952	12855.8875
2882.38207	12851.1875
2884.88308	12843.9875
2887.38256	12855.3875
2889.88051	12815.5875
2892.37692	12820.5875
2894.8718	12857.6875
2897.36515	12885.2875
2899.85698	12879.8875
2902.34727	12907.0875
2904.83604	12906.5875
2907.32328	12923.4875
2909.809	12951.2875
2912.29319	12934.9875
2914.77587	12931.5875
2917.25702	12913.0875
2919.73665	12934.0875
2922.21476	12912.0875
2924.69136	12920.4875
2927.16644	12888.2875
2929.64	12866.4875
2932.11205	12875.0875
2934.58258	12831.4875
2937.05161	12882.6875
2939.51912	12873.5875
2941.98513	12861.1875
2944.44962	12837.9875
2946.91261	12794.3875
2949.37409	12824.7875
2951.83407	12789.7875
2954.29254	12823.5875
2956.74951	12759.8875
2959.20498	12781.0875
2961.65895	12778.3875
2964.11142	12780.6875
2966.56239	12754.5875
2969.01186	12745.3875
2971.45984	12755.4875
2973.90632	12731.6875
2976.35131	12698.7875
2978.7948	12678.5875
2981.23681	12641.9875
2983.67732	12649.5875
2986.11635	12632.4875
2988.55388	12582.7875
2990.98993	12586.8875
2993.4245	12550.8875
2995.85758	12523.5875
2998.28917	12496.7875
3000.71928	12469.7875
3003.14791	12452.1875
3005.57506	12441.8875
3008.00073	12439.8875
3010.42493	12391.6875
3012.84764	12345.7875
3015.26888	12357.1875
3017.68865	12306.0875
3020.10694	12356.8875
3022.52376	12311.5875
3024.9391	12297.2875
3027.35298	12277.9875
3029.76539	12271.9875
3032.17632	12283.4875
3034.5858	12259.4875
3036.9938	12249.8875
3039.40034	12262.0875
3041.80542	12254.6875
3044.20903	12200.2875
3046.61118	12224.7875
3049.01187	12206.3875
3051.4111	12182.6875
3053.80888	12157.6875
3056.20519	12110.2875
3058.60005	12116.3875
3060.99345	12094.0875
3063.3854	12049.1875
3065.7759	12036.2875
3068.16494	12045.6875
3070.55254	12003.0875
3072.93868	11988.2875
3075.32338	11947.9875
3077.70662	11930.8875
3080.08842	11906.9875
3082.46878	11884.0875
3084.84769	11878.7875
3087.22515	11885.1875
3089.60118	11875.5875
3091.97576	11888.0875
3094.3489	11863.7875
3096.72061	11882.2875
3099.09087	11853.9875
3101.4597	11863.1875
3103.82709	11864.9875
3106.19305	11857.7875
3108.55757	11881.5875
3110.92066	11818.5875
3113.28232	11832.7875
3115.64255	11787.6875
3118.00134	11757.2875
3120.35871	11754.3875
3122.71466	11733.6875
3125.06917	11705.0875
3127.42226	11690.9875
3129.77393	11694.7875
3132.12417	11672.6875
3134.47299	11693.5875
3136.82039	11651.9875
3139.16636	11678.0875
3141.51092	11684.0875
3143.85406	11671.3875
3146.19579	11667.3875
3148.53609	11649.3875
3150.87499	11690.4875
3153.21246	11685.5875
3155.54853	11699.0875
3157.88318	11698.7875
3160.21642	11699.3875
3162.54826	11714.3875
3164.87868	11735.3875
3167.2077	11757.1875
3169.5353	11754.2875
3171.86151	11722.3875
3174.18631	11729.6875
3176.5097	11724.3875
3178.83169	11707.5875
3181.15228	11672.6875
3183.47147	11686.5875
3185.78926	11704.5875
3188.10565	11663.3875
3190.42065	11641.3875
3192.73424	11651.0875
3195.04645	11632.0875
3197.35725	11645.7875
3199.66667	11626.5875
3201.97469	11660.3875
3204.28132	11633.9875
3206.58656	11664.1875
3208.8904	11654.8875
3211.19287	11674.3875
3213.49394	11651.5875
3215.79363	11673.6875
3218.09193	11706.6875
3220.38884	11706.8875
3222.68438	11708.1875
3224.97853	11712.8875
3227.2713	11699.3875
3229.56269	11659.1875
3231.8527	11697.0875
3234.14133	11626.5875
3236.42858	11611.4875
3238.71446	11613.6875
3240.99896	11586.4875
3243.28209	11569.0875
3245.56384	11567.8875
3247.84423	11577.4875
3250.12324	11566.1875
3252.40088	11568.9875
3254.67715	11554.0875
3256.95205	11533.6875
3259.22558	11526.8875
3261.49775	11505.3875
3263.76855	11533.3875
3266.03799	11526.4875
3268.30606	11499.0875
3270.57277	11481.3875
3272.83812	11460.5875
3275.10211	11441.0875
3277.36474	11402.4875
3279.62601	11389.4875
3281.88593	11372.3875
3284.14448	11379.9875
3286.40168	11387.8875
3288.65753	11378.5875
3290.91202	11401.8875
3293.16516	11349.6875
3295.41695	11334.6875
3297.66738	11275.5875
3299.91647	11251.5875
3302.16421	11201.6875
3304.4106	11145.2875
3306.65564	11083.8875
3308.89933	10951.9875
3311.14169	10928.6875
3313.38269	10807.7875
3315.62236	10764.7875
3317.86068	10658.0875
3320.09766	10581.3875
3322.3333	10530.0875
3324.5676	10474.9875
3326.80056	10322.6875
3329.03219	10229.7875
3331.26248	4.3875
3333.49143	0.3875
3335.71905	0.2875
