Data from AgNP_FTO_APTES_UA_10uM_CRN_5uM_R6G_10uM_NaF_0.1M_Addition_RamanShift__4__14-47-00-636.txt Node

Date: Thu Feb 10 14:47:00 GMT 2022
User: TCL
Spectrometer: QEP01345
Trigger mode: 4
Integration Time (sec): 7.000000E0
Scans to average: 10
Electric dark correction enabled: true
Nonlinearity correction enabled: false
Boxcar width: 0
XAxis mode: Raman Shifts
Number of Pixels in Spectrum: 1044
>>>>>Begin Spectral Data<<<<<
46.04893	-0.6125
50.45542	-1.9125
54.85868	-2.2125
59.25871	-0.8125
63.6555	75.0875
68.04907	79.2875
72.43941	81.6875
76.82654	82.5875
81.21044	89.1875
85.59113	88.7875
89.96862	92.7875
94.34289	96.8875
98.71396	98.8875
103.08183	104.3875
107.4465	109.9875
111.80798	107.7875
116.16626	111.4875
120.52136	115.5875
124.87327	122.1875
129.222	126.8875
133.56755	136.5875
137.90993	143.6875
142.24913	159.7875
146.58517	180.4875
150.91804	213.9875
155.24774	256.5875
159.57429	317.2875
163.89768	403.3875
168.21792	542.5875
172.53501	735.4875
176.84895	1021.0875
181.15975	1446.2875
185.46741	2007.4875
189.77193	2776.6875
194.07331	3712.7875
198.37157	4763.1875
202.6667	5873.0875
206.9587	6954.5875
211.24758	8062.4875
215.53334	9151.3875
219.81599	10313.1875
224.09553	11614.7875
228.37195	13044.9875
232.64527	14565.9875
236.91549	16196.2875
241.18261	17809.4875
245.44663	19245.3875
249.70755	20579.5875
253.96539	21745.4875
258.22014	22690.1875
262.4718	23526.4875
266.72039	24063.0875
270.96589	24334.8875
275.20832	24395.4875
279.44768	24241.1875
283.68397	24028.9875
287.91719	23792.6875
292.14735	23696.0875
296.37445	23674.2875
300.59849	23750.8875
304.81948	23911.1875
309.03742	23910.1875
313.25231	23836.3875
317.46415	23452.6875
321.67296	23024.9875
325.87872	22617.6875
330.08145	22385.9875
334.28114	22341.2875
338.47781	22491.8875
342.67145	22802.7875
346.86207	23196.0875
351.04966	23629.5875
355.23424	24076.5875
359.4158	24468.6875
363.59435	24746.3875
367.76989	24926.6875
371.94243	25073.1875
376.11196	25206.2875
380.27849	25241.7875
384.44203	25455.2875
388.60257	25655.6875
392.76012	25991.1875
396.91468	26255.4875
401.06626	26643.1875
405.21485	26861.8875
409.36047	26791.2875
413.50311	26564.3875
417.64277	26560.1875
421.77947	26720.8875
425.9132	26940.2875
430.04396	27147.2875
434.17176	27216.2875
438.2966	27304.3875
442.41849	27745.2875
446.53742	28577.6875
450.6534	29546.7875
454.76644	30127.9875
458.87653	30230.2875
462.98368	29916.3875
467.08789	29412.6875
471.18916	28768.8875
475.2875	28124.8875
479.38291	27724.9875
483.4754	27461.4875
487.56496	27154.2875
491.6516	26769.4875
495.73531	26452.6875
499.81612	26385.0875
503.89401	26593.3875
507.96899	26793.9875
512.04106	26767.2875
516.11023	26531.9875
520.1765	26229.3875
524.23987	25992.1875
528.30034	25751.4875
532.35792	25484.5875
536.41261	25169.6875
540.46441	24839.5875
544.51333	24801.4875
548.55936	25027.5875
552.60252	25648.7875
556.64279	26339.1875
560.6802	26907.6875
564.71473	27165.3875
568.7464	27574.8875
572.7752	28418.9875
576.80114	29414.9875
580.82422	30558.6875
584.84444	32122.3875
588.86181	33954.1875
592.87633	35372.2875
596.888	34828.6875
600.89682	32814.7875
604.9028	31917.8875
608.90594	33416.6875
612.90624	35157.9875
616.90371	32740.4875
620.89834	28042.7875
624.89015	26118.8875
628.87913	25897.1875
632.86528	25951.1875
636.84862	25737.5875
640.82913	25195.8875
644.80683	24593.3875
648.78172	24289.9875
652.75379	24274.3875
656.72306	24574.1875
660.68952	24921.7875
664.65319	24731.9875
668.61405	24344.4875
672.57211	24332.0875
676.52738	24446.1875
680.47986	24405.9875
684.42955	24172.4875
688.37646	24117.8875
692.32058	24341.9875
696.26192	24785.1875
700.20048	25227.0875
704.13626	25408.4875
708.06928	25291.5875
711.99952	25154.0875
715.927	25165.7875
719.85171	25334.9875
723.77365	25227.2875
727.69284	24828.8875
731.60928	24418.5875
735.52295	24257.2875
739.43388	24286.1875
743.34206	24369.6875
747.24749	24565.4875
751.15017	24854.9875
755.05012	25342.4875
758.94733	26067.6875
762.8418	27304.9875
766.73354	29013.2875
770.62254	30500.3875
774.50882	30533.8875
778.39237	29161.5875
782.27321	27387.8875
786.15132	25961.3875
790.02671	25065.1875
793.89938	24716.4875
797.76935	24500.9875
801.6366	24527.8875
805.50115	24431.0875
809.36299	24289.1875
813.22213	24073.5875
817.07857	23849.4875
820.93231	23736.5875
824.78336	23594.8875
828.63172	23522.0875
832.47738	23443.3875
836.32036	23495.1875
840.16066	23623.0875
843.99827	23660.3875
847.8332	23618.3875
851.66546	23573.6875
855.49504	23616.5875
859.32195	23604.3875
863.1462	23518.4875
866.96777	23454.5875
870.78668	23393.4875
874.60293	23382.4875
878.41652	23454.9875
882.22745	23515.0875
886.03573	23579.2875
889.84136	23529.5875
893.64433	23458.3875
897.44466	23350.6875
901.24235	23217.9875
905.0374	23168.7875
908.8298	23168.1875
912.61957	23198.0875
916.40671	23426.1875
920.19121	23752.2875
923.97308	24095.5875
927.75233	24168.0875
931.52895	23951.1875
935.30295	23584.9875
939.07433	23168.8875
942.84309	22884.6875
946.60924	22744.0875
950.37278	22761.7875
954.13371	22754.8875
957.89203	22694.2875
961.64774	22688.9875
965.40086	22678.3875
969.15137	22618.7875
972.89929	22552.0875
976.64461	22500.9875
980.38733	22518.6875
984.12747	22574.5875
987.86502	22805.7875
991.59999	23074.8875
995.33237	23456.0875
999.06217	24089.1875
1002.78939	24853.0875
1006.51404	25552.2875
1010.23611	26005.1875
1013.95561	26367.5875
1017.67255	26361.5875
1021.38692	25990.8875
1025.09872	25466.2875
1028.80796	25380.9875
1032.51465	25816.2875
1036.21877	26446.2875
1039.92035	26582.4875
1043.61937	26370.6875
1047.31584	25895.7875
1051.00976	25312.4875
1054.70114	25005.3875
1058.38998	24998.6875
1062.07627	25106.8875
1065.76003	25343.0875
1069.44126	25602.5875
1073.11995	25999.2875
1076.79611	26428.3875
1080.46974	26658.9875
1084.14085	26930.8875
1087.80943	27189.8875
1091.47549	27421.0875
1095.13903	27416.6875
1098.80005	26992.9875
1102.45857	26426.9875
1106.11456	25970.6875
1109.76805	25819.6875
1113.41903	25812.4875
1117.06751	25893.1875
1120.71348	26065.5875
1124.35696	26305.5875
1127.99793	26591.3875
1131.63641	26752.8875
1135.2724	26734.0875
1138.90589	26758.4875
1142.5369	26818.3875
1146.16542	27042.7875
1149.79145	27261.2875
1153.415	27509.7875
1157.03607	27960.8875
1160.65467	28903.0875
1164.27079	30454.4875
1167.88443	32271.9875
1171.49561	34138.8875
1175.10432	36407.3875
1178.71056	39356.2875
1182.31434	42199.2875
1185.91565	43578.3875
1189.51451	43067.7875
1193.11091	41713.5875
1196.70485	40078.3875
1200.29634	38678.3875
1203.88538	37691.7875
1207.47197	37347.1875
1211.05612	37055.7875
1214.63782	36323.9875
1218.21708	35397.3875
1221.79391	34486.2875
1225.36829	33856.5875
1228.94024	33373.6875
1232.50976	32715.1875
1236.07685	31998.7875
1239.6415	31547.7875
1243.20374	31447.9875
1246.76355	31739.1875
1250.32093	32399.7875
1253.8759	33181.7875
1257.42845	34153.1875
1260.97859	35229.4875
1264.52631	36410.5875
1268.07163	37707.1875
1271.61453	39004.9875
1275.15503	40238.9875
1278.69312	41471.7875
1282.22882	42556.9875
1285.76211	43866.3875
1289.29301	45486.7875
1292.82151	47645.4875
1296.34761	50385.0875
1299.87133	53914.3875
1303.39266	57696.9875
1306.9116	61345.6875
1310.42815	64024.8875
1313.94233	65140.0875
1317.45412	64249.4875
1320.96354	62559.2875
1324.47058	60993.9875
1327.97525	60083.3875
1331.47754	59525.5875
1334.97747	59154.3875
1338.47502	58637.2875
1341.97022	57599.4875
1345.46305	56224.2875
1348.95352	55061.3875
1352.44163	54863.0875
1355.92738	56203.4875
1359.41078	58661.5875
1362.89183	60329.1875
1366.37053	58968.3875
1369.84688	54147.9875
1373.32088	48260.8875
1376.79254	44237.8875
1380.26186	42951.4875
1383.72883	43262.6875
1387.19347	43446.2875
1390.65578	43139.9875
1394.11575	43177.0875
1397.57339	43878.8875
1401.0287	44888.2875
1404.48168	45850.6875
1407.93234	46039.8875
1411.38068	45407.7875
1414.82669	43925.9875
1418.27039	42075.7875
1421.71177	40071.7875
1425.15083	38516.5875
1428.58758	37894.4875
1432.02203	38535.0875
1435.45416	39923.0875
1438.88399	41478.7875
1442.31151	42541.0875
1445.73673	42955.9875
1449.15965	42993.8875
1452.58027	42834.6875
1455.9986	42556.8875
1459.41463	42766.0875
1462.82837	43517.4875
1466.23982	44459.2875
1469.64898	45330.5875
1473.05586	45705.6875
1476.46045	45675.6875
1479.86276	45112.0875
1483.26279	44398.5875
1486.66054	43989.7875
1490.05602	44016.1875
1493.44922	44100.3875
1496.84016	44246.9875
1500.22882	44558.4875
1503.61521	45220.1875
1506.99934	46122.0875
1510.38121	46836.6875
1513.76081	46650.9875
1517.13816	45708.3875
1520.51324	44450.7875
1523.88607	43779.4875
1527.25665	43874.1875
1530.62498	44290.6875
1533.99105	44519.3875
1537.35488	44230.0875
1540.71647	43533.9875
1544.07581	42354.3875
1547.4329	41094.4875
1550.78776	40033.3875
1554.14038	39141.9875
1557.49077	38571.9875
1560.83892	38120.6875
1564.18484	37875.2875
1567.52853	37801.5875
1570.86999	38098.4875
1574.20922	38777.6875
1577.54624	39512.6875
1580.88103	39963.2875
1584.2136	40796.9875
1587.54395	42683.6875
1590.87208	45681.9875
1594.19801	49373.9875
1597.52172	52767.1875
1600.84321	53620.9875
1604.16251	51001.3875
1607.47959	46065.5875
1610.79447	41033.1875
1614.10715	36695.2875
1617.41763	33510.8875
1620.7259	31450.5875
1624.03199	30594.8875
1627.33587	30727.6875
1630.63757	31979.1875
1633.93707	34530.1875
1637.23439	38663.7875
1640.52951	44523.1875
1643.82246	51214.9875
1647.11321	55875.3875
1650.40179	55597.3875
1653.68819	49977.0875
1656.97241	42106.3875
1660.25446	35161.7875
1663.53433	30501.6875
1666.81203	27503.7875
1670.08756	25732.9875
1673.36092	24587.0875
1676.63211	23873.0875
1679.90115	23317.4875
1683.16801	22980.7875
1686.43272	22678.4875
1689.69527	22465.7875
1692.95567	22294.8875
1696.2139	22188.1875
1699.46999	22169.2875
1702.72392	22052.5875
1705.97571	21973.3875
1709.22535	21905.9875
1712.47284	21843.7875
1715.71819	21819.8875
1718.96139	21743.9875
1722.20246	21688.1875
1725.44139	21593.2875
1728.67818	21434.7875
1731.91284	21264.2875
1735.14537	21122.0875
1738.37576	21094.4875
1741.60403	20975.2875
1744.83017	20932.6875
1748.05418	20854.7875
1751.27607	20827.1875
1754.49584	20795.5875
1757.71349	20769.7875
1760.92903	20775.0875
1764.14244	20780.6875
1767.35375	20752.0875
1770.56294	20725.0875
1773.77002	20705.6875
1776.97499	20603.9875
1780.17785	20571.4875
1783.37861	20508.5875
1786.57727	20502.6875
1789.77382	20465.3875
1792.96828	20409.8875
1796.16064	20370.7875
1799.3509	20340.4875
1802.53907	20316.9875
1805.72514	20280.4875
1808.90913	20203.8875
1812.09102	20197.2875
1815.27083	20130.4875
1818.44856	20134.1875
1821.6242	20078.5875
1824.79776	20045.0875
1827.96924	20039.1875
1831.13864	20027.9875
1834.30597	20039.5875
1837.47122	20007.3875
1840.6344	20039.8875
1843.7955	20090.7875
1846.95454	20067.3875
1850.11151	20047.1875
1853.26642	20019.5875
1856.41926	20035.7875
1859.57004	20003.6875
1862.71876	19997.2875
1865.86542	19930.8875
1869.01003	19917.5875
1872.15258	19897.3875
1875.29308	19897.4875
1878.43152	19893.0875
1881.56792	19868.7875
1884.70227	19861.8875
1887.83457	19849.2875
1890.96482	19813.6875
1894.09304	19793.4875
1897.21921	19754.8875
1900.34335	19738.5875
1903.46544	19709.5875
1906.58551	19675.9875
1909.70353	19667.6875
1912.81953	19611.5875
1915.93349	19591.8875
1919.04543	19595.9875
1922.15534	19530.6875
1925.26322	19449.1875
1928.36908	19436.6875
1931.47292	19403.5875
1934.57473	19365.2875
1937.67453	19328.4875
1940.77232	19272.4875
1943.86808	19182.3875
1946.96184	19151.1875
1950.05358	19121.9875
1953.14331	19023.5875
1956.23103	18978.3875
1959.31675	18937.9875
1962.40046	18888.2875
1965.48217	18838.4875
1968.56188	18783.4875
1971.63959	18730.6875
1974.7153	18697.9875
1977.78901	18653.0875
1980.86073	18567.6875
1983.93046	18534.0875
1986.99819	18492.4875
1990.06394	18420.0875
1993.1277	18405.5875
1996.18947	18326.8875
1999.24925	18266.9875
2002.30706	18199.7875
2005.36288	18181.9875
2008.41672	18108.2875
2011.46859	18075.0875
2014.51848	18045.3875
2017.56639	17994.6875
2020.61233	17990.6875
2023.6563	17935.8875
2026.6983	17911.7875
2029.73833	17902.7875
2032.7764	17846.2875
2035.8125	17804.2875
2038.84664	17769.1875
2041.87881	17759.7875
2044.90903	17749.4875
2047.93729	17699.8875
2050.96359	17699.3875
2053.98794	17691.1875
2057.01034	17666.2875
2060.03078	17639.5875
2063.04927	17664.1875
2066.06582	17639.8875
2069.08042	17607.4875
2072.09307	17587.6875
2075.10378	17606.5875
2078.11255	17577.8875
2081.11938	17515.8875
2084.12426	17537.7875
2087.12722	17533.5875
2090.12824	17520.6875
2093.12732	17553.9875
2096.12447	17510.5875
2099.11969	17534.5875
2102.11299	17524.5875
2105.10435	17534.6875
2108.09379	17540.8875
2111.08131	17594.6875
2114.0669	17567.7875
2117.05057	17544.2875
2120.03233	17593.7875
2123.01216	17609.0875
2125.99008	17615.5875
2128.96609	17617.9875
2131.94018	17644.4875
2134.91236	17667.2875
2137.88263	17673.9875
2140.851	17697.4875
2143.81746	17708.6875
2146.78201	17673.7875
2149.74466	17674.2875
2152.7054	17666.4875
2155.66425	17681.6875
2158.6212	17675.9875
2161.57625	17690.0875
2164.52941	17650.3875
2167.48067	17685.4875
2170.43004	17651.5875
2173.37752	17673.1875
2176.32311	17659.6875
2179.26681	17700.9875
2182.20863	17650.5875
2185.14856	17651.9875
2188.08661	17681.7875
2191.02278	17706.4875
2193.95707	17725.7875
2196.88948	17677.2875
2199.82001	17644.7875
2202.74867	17639.5875
2205.67545	17632.2875
2208.60037	17588.8875
2211.52341	17609.4875
2214.44458	17601.5875
2217.36388	17570.5875
2220.28132	17505.2875
2223.1969	17502.1875
2226.11061	17463.9875
2229.02246	17428.7875
2231.93245	17440.1875
2234.84058	17418.5875
2237.74686	17373.8875
2240.65128	17398.2875
2243.55385	17355.4875
2246.45456	17292.0875
2249.35343	17309.3875
2252.25044	17279.0875
2255.14561	17234.6875
2258.03893	17235.7875
2260.93041	17174.3875
2263.82004	17088.8875
2266.70783	17057.8875
2269.59378	17023.9875
2272.4779	16987.0875
2275.36017	16921.8875
2278.24061	16886.4875
2281.11922	16896.9875
2283.996	16874.4875
2286.87094	16887.6875
2289.74405	16851.7875
2292.61534	16889.5875
2295.4848	16881.8875
2298.35243	16905.9875
2301.21824	16911.2875
2304.08223	16910.8875
2306.94439	16909.3875
2309.80474	16912.5875
2312.66327	16890.9875
2315.51999	16913.1875
2318.37489	16925.1875
2321.22797	16898.2875
2324.07925	16858.4875
2326.92871	16846.0875
2329.77637	16861.2875
2332.62222	16805.0875
2335.46626	16838.8875
2338.3085	16849.6875
2341.14893	16874.3875
2343.98756	16841.9875
2346.8244	16840.9875
2349.65943	16828.0875
2352.49267	16826.6875
2355.32411	16809.3875
2358.15376	16842.5875
2360.98161	16794.2875
2363.80768	16783.6875
2366.63195	16756.4875
2369.45444	16721.5875
2372.27514	16693.2875
2375.09405	16682.5875
2377.91118	16643.0875
2380.72652	16618.0875
2383.54009	16593.6875
2386.35187	16586.4875
2389.16188	16549.2875
2391.97011	16500.2875
2394.77657	16504.9875
2397.58125	16480.6875
2400.38416	16473.5875
2403.18529	16445.8875
2405.98466	16423.6875
2408.78226	16398.6875
2411.57809	16365.6875
2414.37216	16365.9875
2417.16446	16379.0875
2419.955	16325.6875
2422.74378	16313.4875
2425.5308	16327.4875
2428.31606	16294.3875
2431.09956	16317.2875
2433.88131	16291.1875
2436.6613	16310.1875
2439.43954	16307.7875
2442.21603	16321.9875
2444.99077	16269.7875
2447.76377	16263.4875
2450.53501	16248.1875
2453.30451	16251.9875
2456.07226	16253.6875
2458.83827	16270.0875
2461.60254	16278.3875
2464.36507	16258.0875
2467.12586	16299.5875
2469.88492	16271.7875
2472.64224	16296.7875
2475.39782	16310.9875
2478.15167	16322.9875
2480.90379	16356.2875
2483.65417	16360.9875
2486.40283	16384.1875
2489.14976	16360.3875
2491.89497	16369.1875
2494.63845	16351.8875
2497.3802	16388.4875
2500.12024	16381.1875
2502.85855	16346.8875
2505.59514	16346.0875
2508.33002	16327.5875
2511.06318	16315.4875
2513.79462	16318.8875
2516.52435	16342.0875
2519.25237	16315.8875
2521.97867	16305.6875
2524.70327	16321.5875
2527.42616	16288.3875
2530.14734	16299.1875
2532.86681	16260.0875
2535.58458	16295.5875
2538.30065	16287.8875
2541.01501	16285.0875
2543.72768	16228.3875
2546.43864	16270.8875
2549.14791	16286.7875
2551.85548	16295.5875
2554.56136	16242.4875
2557.26554	16233.9875
2559.96803	16219.1875
2562.66883	16228.2875
2565.36794	16184.0875
2568.06536	16196.8875
2570.7611	16174.7875
2573.45514	16178.9875
2576.14751	16140.5875
2578.83819	16144.0875
2581.52719	16160.6875
2584.21451	16148.4875
2586.90015	16145.7875
2589.58411	16146.2875
2592.2664	16151.2875
2594.94701	16141.8875
2597.62594	16132.4875
2600.30321	16096.3875
2602.9788	16114.8875
2605.65273	16120.4875
2608.32498	16118.1875
2610.99557	16151.4875
2613.66449	16151.2875
2616.33175	16153.6875
2618.99734	16156.3875
2621.66128	16134.6875
2624.32355	16109.9875
2626.98416	16096.5875
2629.64311	16095.0875
2632.30041	16086.4875
2634.95605	16067.0875
2637.61004	16074.3875
2640.26238	16029.0875
2642.91306	16057.9875
2645.56209	16089.7875
2648.20948	16061.6875
2650.85521	16058.7875
2653.4993	16075.4875
2656.14175	16057.5875
2658.78255	16091.9875
2661.42171	16110.4875
2664.05923	16164.9875
2666.6951	16139.5875
2669.32934	16141.6875
2671.96194	16150.1875
2674.59291	16166.6875
2677.22224	16156.8875
2679.84993	16180.8875
2682.476	16145.7875
2685.10043	16133.2875
2687.72324	16141.4875
2690.34441	16135.8875
2692.96396	16118.8875
2695.58188	16147.0875
2698.19818	16114.0875
2700.81285	16153.9875
2703.4259	16155.4875
2706.03733	16212.8875
2708.64714	16185.0875
2711.25533	16206.8875
2713.86191	16190.5875
2716.46687	16223.5875
2719.07021	16225.0875
2721.67194	16259.9875
2724.27206	16249.0875
2726.87057	16291.9875
2729.46747	16244.3875
2732.06276	16292.3875
2734.65644	16262.5875
2737.24852	16313.5875
2739.83899	16310.5875
2742.42786	16316.8875
2745.01513	16274.8875
2747.60079	16273.4875
2750.18486	16238.2875
2752.76733	16239.2875
2755.3482	16240.9875
2757.92747	16252.2875
2760.50515	16242.3875
2763.08123	16248.3875
2765.65573	16217.2875
2768.22863	16241.6875
2770.79994	16207.8875
2773.36967	16253.5875
2775.9378	16253.6875
2778.50435	16265.7875
2781.06932	16258.0875
2783.6327	16268.6875
2786.1945	16246.5875
2788.75471	16250.6875
2791.31335	16197.2875
2793.87041	16194.3875
2796.42589	16153.5875
2798.97979	16166.7875
2801.53212	16138.1875
2804.08288	16166.2875
2806.63206	16108.3875
2809.17967	16060.6875
2811.72571	16045.3875
2814.27018	16011.3875
2816.81308	15976.4875
2819.35442	15956.7875
2821.89419	15908.9875
2824.43239	15924.1875
2826.96904	15859.2875
2829.50412	15885.1875
2832.03763	15881.0875
2834.56959	15861.8875
2837.1	15832.2875
2839.62884	15837.7875
2842.15613	15849.0875
2844.68186	15862.8875
2847.20604	15861.3875
2849.72867	15838.7875
2852.24974	15828.7875
2854.76927	15832.5875
2857.28724	15802.1875
2859.80367	15783.5875
2862.31855	15778.7875
2864.83189	15766.8875
2867.34368	15727.1875
2869.85393	15744.8875
2872.36264	15718.2875
2874.8698	15732.1875
2877.37543	15701.3875
2879.87952	15743.2875
2882.38207	15724.3875
2884.88308	15707.6875
2887.38256	15737.1875
2889.88051	15737.9875
2892.37692	15753.4875
2894.8718	15768.3875
2897.36515	15820.4875
2899.85698	15836.2875
2902.34727	15850.5875
2904.83604	15846.0875
2907.32328	15906.7875
2909.809	15899.7875
2912.29319	15871.8875
2914.77587	15869.6875
2917.25702	15868.2875
2919.73665	15862.5875
2922.21476	15840.0875
2924.69136	15843.9875
2927.16644	15844.0875
2929.64	15820.0875
2932.11205	15805.7875
2934.58258	15768.0875
2937.05161	15805.6875
2939.51912	15787.6875
2941.98513	15773.9875
2944.44962	15734.7875
2946.91261	15696.4875
2949.37409	15741.9875
2951.83407	15711.2875
2954.29254	15716.5875
2956.74951	15697.0875
2959.20498	15699.0875
2961.65895	15689.1875
2964.11142	15696.2875
2966.56239	15689.6875
2969.01186	15652.0875
2971.45984	15628.1875
2973.90632	15626.5875
2976.35131	15557.3875
2978.7948	15549.0875
2981.23681	15491.5875
2983.67732	15468.4875
2986.11635	15430.7875
2988.55388	15373.5875
2990.98993	15344.9875
2993.4245	15334.1875
2995.85758	15294.8875
2998.28917	15279.4875
3000.71928	15232.5875
3003.14791	15202.0875
3005.57506	15214.9875
3008.00073	15181.7875
3010.42493	15031.8875
3012.84764	15070.0875
3015.26888	15059.0875
3017.68865	15039.5875
3020.10694	15020.2875
3022.52376	15000.5875
3024.9391	14971.3875
3027.35298	14997.0875
3029.76539	14971.7875
3032.17632	14977.2875
3034.5858	14957.4875
3036.9938	14968.0875
3039.40034	14964.3875
3041.80542	14936.1875
3044.20903	14919.3875
3046.61118	14924.2875
3049.01187	14874.0875
3051.4111	14851.3875
3053.80888	14828.0875
3056.20519	14834.6875
3058.60005	14766.1875
3060.99345	14753.0875
3063.3854	14714.9875
3065.7759	14660.6875
3068.16494	14637.6875
3070.55254	14604.2875
3072.93868	14564.6875
3075.32338	14486.4875
3077.70662	14490.0875
3080.08842	14462.6875
3082.46878	14428.2875
3084.84769	14411.7875
3087.22515	14451.3875
3089.60118	14456.5875
3091.97576	14418.6875
3094.3489	14417.3875
3096.72061	14399.4875
3099.09087	14396.4875
3101.4597	14368.5875
3103.82709	14372.5875
3106.19305	14346.6875
3108.55757	14370.5875
3110.92066	14309.6875
3113.28232	14283.4875
3115.64255	14240.5875
3118.00134	14204.0875
3120.35871	14198.2875
3122.71466	14180.1875
3125.06917	14139.9875
3127.42226	14122.0875
3129.77393	14139.4875
3132.12417	14097.7875
3134.47299	14073.3875
3136.82039	14063.3875
3139.16636	14066.2875
3141.51092	14071.9875
3143.85406	14051.3875
3146.19579	14053.7875
3148.53609	14033.8875
3150.87499	14044.9875
3153.21246	14035.2875
3155.54853	14072.9875
3157.88318	14066.4875
3160.21642	14068.0875
3162.54826	14052.0875
3164.87868	14045.8875
3167.2077	14067.0875
3169.5353	14069.3875
3171.86151	14026.0875
3174.18631	14053.0875
3176.5097	14047.5875
3178.83169	14026.0875
3181.15228	14007.4875
3183.47147	13971.0875
3185.78926	13986.8875
3188.10565	13948.9875
3190.42065	13932.9875
3192.73424	13926.6875
3195.04645	13923.4875
3197.35725	13922.9875
3199.66667	13943.2875
3201.97469	13920.4875
3204.28132	13922.0875
3206.58656	13938.0875
3208.8904	13923.5875
3211.19287	13910.9875
3213.49394	13917.4875
3215.79363	13906.6875
3218.09193	13924.8875
3220.38884	13945.0875
3222.68438	13957.7875
3224.97853	13943.8875
3227.2713	13936.4875
3229.56269	13915.5875
3231.8527	13886.2875
3234.14133	13874.2875
3236.42858	13837.0875
3238.71446	13819.4875
3240.99896	13794.1875
3243.28209	13786.5875
3245.56384	13803.1875
3247.84423	13778.0875
3250.12324	13762.5875
3252.40088	13732.7875
3254.67715	13738.2875
3256.95205	13662.5875
3259.22558	13697.8875
3261.49775	13622.6875
3263.76855	13645.2875
3266.03799	13632.7875
3268.30606	13642.0875
3270.57277	13549.3875
3272.83812	13530.1875
3275.10211	13514.5875
3277.36474	13539.6875
3279.62601	13511.0875
3281.88593	13501.5875
3284.14448	13485.6875
3286.40168	13475.3875
3288.65753	13495.0875
3290.91202	13485.1875
3293.16516	13486.1875
3295.41695	13450.4875
3297.66738	13413.7875
3299.91647	13306.0875
3302.16421	13214.9875
3304.4106	13156.0875
3306.65564	13050.0875
3308.89933	12939.7875
3311.14169	12850.2875
3313.38269	12779.0875
3315.62236	12705.6875
3317.86068	12595.4875
3320.09766	12506.4875
3322.3333	12370.2875
3324.5676	12328.8875
3326.80056	12172.3875
3329.03219	12107.6875
3331.26248	5.2875
3333.49143	1.0875
3335.71905	-0.6125
