Data from AgNP_FTO_APTES_UA_10uM_CRN_2uM_R6G_10uM_NaF_0.1M_Addition_RamanShift__24__14-24-50-609.txt Node

Date: Thu Feb 10 14:24:50 GMT 2022
User: TCL
Spectrometer: QEP01345
Trigger mode: 4
Integration Time (sec): 7.000000E0
Scans to average: 10
Electric dark correction enabled: true
Nonlinearity correction enabled: false
Boxcar width: 0
XAxis mode: Raman Shifts
Number of Pixels in Spectrum: 1044
>>>>>Begin Spectral Data<<<<<
46.04893	-0.9625
50.45542	-0.6625
54.85868	-1.8625
59.25871	-0.8625
63.6555	69.3375
68.04907	74.2375
72.43941	78.3375
76.82654	79.9375
81.21044	84.5375
85.59113	84.6375
89.96862	87.6375
94.34289	92.0375
98.71396	96.5375
103.08183	100.2375
107.4465	104.0375
111.80798	101.3375
116.16626	107.3375
120.52136	110.1375
124.87327	113.7375
129.222	121.4375
133.56755	133.4375
137.90993	133.9375
142.24913	149.2375
146.58517	168.8375
150.91804	201.8375
155.24774	234.5375
159.57429	288.8375
163.89768	369.8375
168.21792	495.4375
172.53501	677.6375
176.84895	943.0375
181.15975	1321.9375
185.46741	1844.4375
189.77193	2562.4375
194.07331	3417.0375
198.37157	4404.5375
202.6667	5417.2375
206.9587	6418.2375
211.24758	7433.0375
215.53334	8450.4375
219.81599	9548.8375
224.09553	10789.1375
228.37195	12164.0375
232.64527	13672.6375
236.91549	15217.6375
241.18261	16732.3375
245.44663	18085.5375
249.70755	19228.0375
253.96539	20305.0375
258.22014	21232.0375
262.4718	21976.7375
266.72039	22586.4375
270.96589	22910.5375
275.20832	23037.8375
279.44768	22942.5375
283.68397	22777.3375
287.91719	22589.1375
292.14735	22547.4375
296.37445	22702.1375
300.59849	22912.3375
304.81948	23175.6375
309.03742	23216.1375
313.25231	22905.9375
317.46415	22143.2375
321.67296	21157.6375
325.87872	20382.0375
330.08145	20000.9375
334.28114	20017.4375
338.47781	20195.4375
342.67145	20560.9375
346.86207	21042.4375
351.04966	21698.2375
355.23424	22419.2375
359.4158	22995.1375
363.59435	23307.5375
367.76989	23490.1375
371.94243	23594.6375
376.11196	23648.9375
380.27849	23693.6375
384.44203	23716.4375
388.60257	23730.6375
392.76012	23847.4375
396.91468	24127.7375
401.06626	24568.5375
405.21485	24927.8375
409.36047	24705.5375
413.50311	24081.4375
417.64277	23571.6375
421.77947	23359.6375
425.9132	23376.5375
430.04396	23502.3375
434.17176	23607.3375
438.2966	23872.5375
442.41849	24362.4375
446.53742	25117.8375
450.6534	25898.8375
454.76644	26489.6375
458.87653	26717.5375
462.98368	26544.8375
467.08789	26171.3375
471.18916	25724.0375
475.2875	25286.7375
479.38291	25018.8375
483.4754	24785.9375
487.56496	24450.3375
491.6516	23992.8375
495.73531	23551.1375
499.81612	23406.5375
503.89401	23480.3375
507.96899	23588.1375
512.04106	23552.7375
516.11023	23541.2375
520.1765	23516.6375
524.23987	23427.4375
528.30034	23176.0375
532.35792	22848.5375
536.41261	22511.0375
540.46441	22163.4375
544.51333	22095.8375
548.55936	22408.6375
552.60252	22962.1375
556.64279	23563.1375
560.6802	23973.5375
564.71473	24199.5375
568.7464	24752.0375
572.7752	25342.8375
576.80114	25476.9375
580.82422	25490.0375
584.84444	25622.6375
588.86181	25853.0375
592.87633	26246.0375
596.888	26646.0375
600.89682	26965.6375
604.9028	28310.7375
608.90594	32071.0375
612.90624	36462.9375
616.90371	34155.4375
620.89834	27014.2375
624.89015	24000.2375
628.87913	23655.7375
632.86528	23592.6375
636.84862	23404.0375
640.82913	22855.3375
644.80683	22042.7375
648.78172	21504.1375
652.75379	21423.4375
656.72306	21809.6375
660.68952	22456.4375
664.65319	22334.5375
668.61405	21754.7375
672.57211	21493.0375
676.52738	21493.1375
680.47986	21460.9375
684.42955	21365.8375
688.37646	21290.1375
692.32058	21403.3375
696.26192	21643.6375
700.20048	21931.7375
704.13626	22071.3375
708.06928	21984.2375
711.99952	21807.0375
715.927	21685.5375
719.85171	21700.5375
723.77365	21660.5375
727.69284	21376.8375
731.60928	21161.8375
735.52295	21154.1375
739.43388	21176.6375
743.34206	21267.1375
747.24749	21418.4375
751.15017	21660.8375
755.05012	22079.2375
758.94733	22899.4375
762.8418	24502.6375
766.73354	27133.8375
770.62254	29672.9375
774.50882	30444.9375
778.39237	28774.4375
782.27321	25916.0375
786.15132	23591.1375
790.02671	22203.1375
793.89938	21557.4375
797.76935	21349.6375
801.6366	21236.6375
805.50115	21166.0375
809.36299	20987.9375
813.22213	20864.4375
817.07857	20828.2375
820.93231	20755.9375
824.78336	20762.2375
828.63172	20727.4375
832.47738	20754.4375
836.32036	20798.2375
840.16066	20889.7375
843.99827	20968.3375
847.8332	20918.2375
851.66546	20746.6375
855.49504	20698.9375
859.32195	20680.5375
863.1462	20522.9375
866.96777	20410.9375
870.78668	20306.3375
874.60293	20324.3375
878.41652	20364.3375
882.22745	20413.1375
886.03573	20475.7375
889.84136	20435.7375
893.64433	20360.9375
897.44466	20248.3375
901.24235	20199.5375
905.0374	20132.9375
908.8298	20120.6375
912.61957	20156.5375
916.40671	20373.6375
920.19121	20676.1375
923.97308	20994.6375
927.75233	21165.7375
931.52895	21161.4375
935.30295	20856.8375
939.07433	20412.5375
942.84309	19986.2375
946.60924	19736.3375
950.37278	19656.1375
954.13371	19544.2375
957.89203	19382.6375
961.64774	19318.7375
965.40086	19270.7375
969.15137	19187.2375
972.89929	19116.7375
976.64461	19085.5375
980.38733	19063.0375
984.12747	19234.5375
987.86502	19418.1375
991.59999	19819.1375
995.33237	20362.4375
999.06217	21205.6375
1002.78939	22202.6375
1006.51404	22676.1375
1010.23611	22958.9375
1013.95561	23151.2375
1017.67255	23131.8375
1021.38692	22812.2375
1025.09872	22630.6375
1028.80796	22992.4375
1032.51465	23985.7375
1036.21877	24920.6375
1039.92035	24991.8375
1043.61937	24445.1375
1047.31584	23521.9375
1051.00976	22518.7375
1054.70114	22013.7375
1058.38998	21859.3375
1062.07627	21907.1375
1065.76003	21933.3375
1069.44126	22000.8375
1073.11995	22226.8375
1076.79611	22482.1375
1080.46974	22692.8375
1084.14085	22974.5375
1087.80943	23315.3375
1091.47549	23475.7375
1095.13903	23298.1375
1098.80005	22819.5375
1102.45857	22299.1375
1106.11456	22028.7375
1109.76805	22030.2375
1113.41903	22266.4375
1117.06751	22586.0375
1120.71348	23014.6375
1124.35696	23409.8375
1127.99793	23848.2375
1131.63641	23929.7375
1135.2724	23542.8375
1138.90589	23154.5375
1142.5369	22851.8375
1146.16542	22680.5375
1149.79145	22689.2375
1153.415	22856.4375
1157.03607	23191.6375
1160.65467	23806.7375
1164.27079	24812.1375
1167.88443	26233.0375
1171.49561	28279.6375
1175.10432	31102.0375
1178.71056	34807.1375
1182.31434	37988.8375
1185.91565	39639.2375
1189.51451	39493.8375
1193.11091	37823.5375
1196.70485	35567.1375
1200.29634	33450.4375
1203.88538	31792.2375
1207.47197	30440.8375
1211.05612	29386.1375
1214.63782	28763.3375
1218.21708	28593.7375
1221.79391	28708.3375
1225.36829	28835.8375
1228.94024	28572.1375
1232.50976	27987.2375
1236.07685	27523.2375
1239.6415	27279.1375
1243.20374	27233.4375
1246.76355	27354.7375
1250.32093	27815.8375
1253.8759	28575.3375
1257.42845	29581.6375
1260.97859	30537.7375
1264.52631	31460.0375
1268.07163	32398.3375
1271.61453	33457.7375
1275.15503	34649.5375
1278.69312	35744.9375
1282.22882	36695.0375
1285.76211	37474.3375
1289.29301	38264.5375
1292.82151	39387.6375
1296.34761	40977.0375
1299.87133	43245.1375
1303.39266	46405.9375
1306.9116	50336.2375
1310.42815	54402.5375
1313.94233	57047.7375
1317.45412	57030.7375
1320.96354	55196.0375
1324.47058	52921.2375
1327.97525	50875.7375
1331.47754	49511.8375
1334.97747	48983.1375
1338.47502	49199.0375
1341.97022	49521.3375
1345.46305	49451.9375
1348.95352	49089.5375
1352.44163	48928.0375
1355.92738	50079.9375
1359.41078	53224.3375
1362.89183	56326.1375
1366.37053	54902.0375
1369.84688	48992.0375
1373.32088	42777.7375
1376.79254	38706.5375
1380.26186	36955.4375
1383.72883	36311.9375
1387.19347	36004.4375
1390.65578	35668.4375
1394.11575	35660.5375
1397.57339	36191.9375
1401.0287	37116.2375
1404.48168	37967.3375
1407.93234	38560.0375
1411.38068	38471.5375
1414.82669	37656.6375
1418.27039	36120.2375
1421.71177	34517.9375
1425.15083	33174.2375
1428.58758	32343.1375
1432.02203	32320.8375
1435.45416	32772.4375
1438.88399	33446.2375
1442.31151	33999.9375
1445.73673	34585.9375
1449.15965	35143.3375
1452.58027	35503.2375
1455.9986	35708.5375
1459.41463	36046.4375
1462.82837	36628.4375
1466.23982	37468.7375
1469.64898	38238.4375
1473.05586	38589.6375
1476.46045	38556.7375
1479.86276	38348.8375
1483.26279	38185.0375
1486.66054	38214.9375
1490.05602	38502.7375
1493.44922	38910.5375
1496.84016	39503.2375
1500.22882	40510.1375
1503.61521	42212.9375
1506.99934	44511.2375
1510.38121	46783.7375
1513.76081	47812.8375
1517.13816	46547.6375
1520.51324	43688.8375
1523.88607	40779.9375
1527.25665	38790.2375
1530.62498	37654.7375
1533.99105	37061.9375
1537.35488	36598.4375
1540.71647	36311.2375
1544.07581	35898.8375
1547.4329	35423.9375
1550.78776	35001.6375
1554.14038	34756.1375
1557.49077	34678.2375
1560.83892	34716.3375
1564.18484	34773.9375
1567.52853	34803.7375
1570.86999	34807.4375
1574.20922	35021.3375
1577.54624	35249.4375
1580.88103	34957.7375
1584.2136	34700.7375
1587.54395	35459.1375
1590.87208	37256.8375
1594.19801	39943.8375
1597.52172	42893.5375
1600.84321	43956.3375
1604.16251	42201.0375
1607.47959	38766.9375
1610.79447	35041.7375
1614.10715	31636.4375
1617.41763	28950.7375
1620.7259	27148.6375
1624.03199	26229.5375
1627.33587	26278.3375
1630.63757	27254.6375
1633.93707	29140.0375
1637.23439	31919.8375
1640.52951	35466.8375
1643.82246	39410.7375
1647.11321	42497.7375
1650.40179	43336.4375
1653.68819	40662.2375
1656.97241	35202.5375
1660.25446	29781.9375
1663.53433	25732.1375
1666.81203	23180.5375
1670.08756	21635.0375
1673.36092	20614.2375
1676.63211	19962.2375
1679.90115	19539.6375
1683.16801	19179.8375
1686.43272	18960.8375
1689.69527	18789.0375
1692.95567	18615.9375
1696.2139	18552.6375
1699.46999	18492.8375
1702.72392	18418.8375
1705.97571	18366.8375
1709.22535	18295.0375
1712.47284	18260.4375
1715.71819	18223.1375
1718.96139	18194.2375
1722.20246	18148.0375
1725.44139	18059.3375
1728.67818	17964.2375
1731.91284	17825.6375
1735.14537	17715.6375
1738.37576	17632.7375
1741.60403	17581.3375
1744.83017	17501.4375
1748.05418	17458.6375
1751.27607	17444.4375
1754.49584	17408.3375
1757.71349	17378.7375
1760.92903	17391.1375
1764.14244	17390.7375
1767.35375	17339.8375
1770.56294	17295.5375
1773.77002	17300.4375
1776.97499	17245.7375
1780.17785	17209.1375
1783.37861	17179.2375
1786.57727	17135.2375
1789.77382	17076.7375
1792.96828	17075.7375
1796.16064	17035.4375
1799.3509	17048.6375
1802.53907	17018.9375
1805.72514	16963.9375
1808.90913	16923.2375
1812.09102	16884.2375
1815.27083	16850.0375
1818.44856	16835.5375
1821.6242	16787.3375
1824.79776	16770.6375
1827.96924	16785.2375
1831.13864	16726.2375
1834.30597	16760.0375
1837.47122	16701.2375
1840.6344	16726.7375
1843.7955	16755.7375
1846.95454	16742.3375
1850.11151	16757.7375
1853.26642	16747.1375
1856.41926	16744.9375
1859.57004	16803.6375
1862.71876	16767.1375
1865.86542	16738.3375
1869.01003	16769.1375
1872.15258	16749.0375
1875.29308	16756.2375
1878.43152	16786.5375
1881.56792	16772.1375
1884.70227	16764.3375
1887.83457	16756.3375
1890.96482	16730.6375
1894.09304	16760.8375
1897.21921	16721.4375
1900.34335	16719.8375
1903.46544	16737.3375
1906.58551	16715.6375
1909.70353	16762.7375
1912.81953	16730.9375
1915.93349	16725.5375
1919.04543	16702.4375
1922.15534	16636.4375
1925.26322	16615.2375
1928.36908	16571.4375
1931.47292	16522.1375
1934.57473	16463.4375
1937.67453	16386.7375
1940.77232	16338.3375
1943.86808	16273.9375
1946.96184	16182.4375
1950.05358	16134.7375
1953.14331	16058.1375
1956.23103	16000.7375
1959.31675	15923.8375
1962.40046	15905.4375
1965.48217	15860.1375
1968.56188	15837.0375
1971.63959	15771.9375
1974.7153	15734.0375
1977.78901	15685.9375
1980.86073	15623.2375
1983.93046	15573.6375
1986.99819	15556.8375
1990.06394	15486.2375
1993.1277	15476.6375
1996.18947	15396.8375
1999.24925	15341.4375
2002.30706	15285.1375
2005.36288	15244.1375
2008.41672	15198.3375
2011.46859	15156.7375
2014.51848	15144.9375
2017.56639	15113.6375
2020.61233	15055.1375
2023.6563	15059.5375
2026.6983	15025.6375
2029.73833	14964.5375
2032.7764	14957.2375
2035.8125	14962.4375
2038.84664	14905.2375
2041.87881	14883.6375
2044.90903	14883.2375
2047.93729	14849.6375
2050.96359	14849.3375
2053.98794	14816.3375
2057.01034	14807.0375
2060.03078	14801.4375
2063.04927	14769.1375
2066.06582	14785.7375
2069.08042	14776.2375
2072.09307	14753.1375
2075.10378	14725.4375
2078.11255	14688.7375
2081.11938	14667.3375
2084.12426	14653.5375
2087.12722	14652.8375
2090.12824	14630.7375
2093.12732	14622.2375
2096.12447	14624.4375
2099.11969	14623.3375
2102.11299	14620.5375
2105.10435	14607.1375
2108.09379	14621.5375
2111.08131	14631.9375
2114.0669	14651.9375
2117.05057	14666.4375
2120.03233	14651.2375
2123.01216	14676.8375
2125.99008	14686.8375
2128.96609	14683.9375
2131.94018	14701.4375
2134.91236	14717.0375
2137.88263	14729.8375
2140.851	14727.1375
2143.81746	14728.5375
2146.78201	14722.2375
2149.74466	14785.2375
2152.7054	14754.4375
2155.66425	14737.6375
2158.6212	14704.5375
2161.57625	14690.1375
2164.52941	14707.7375
2167.48067	14708.5375
2170.43004	14677.6375
2173.37752	14667.5375
2176.32311	14695.5375
2179.26681	14668.0375
2182.20863	14683.2375
2185.14856	14685.3375
2188.08661	14682.9375
2191.02278	14710.8375
2193.95707	14744.4375
2196.88948	14713.8375
2199.82001	14709.8375
2202.74867	14700.0375
2205.67545	14711.0375
2208.60037	14700.4375
2211.52341	14687.9375
2214.44458	14693.9375
2217.36388	14694.5375
2220.28132	14672.1375
2223.1969	14628.8375
2226.11061	14641.6375
2229.02246	14576.6375
2231.93245	14552.8375
2234.84058	14501.9375
2237.74686	14478.6375
2240.65128	14508.1375
2243.55385	14430.2375
2246.45456	14427.7375
2249.35343	14402.7375
2252.25044	14395.0375
2255.14561	14393.7375
2258.03893	14366.2375
2260.93041	14324.6375
2263.82004	14285.3375
2266.70783	14229.3375
2269.59378	14216.3375
2272.4779	14154.3375
2275.36017	14119.0375
2278.24061	14090.2375
2281.11922	14092.2375
2283.996	14063.0375
2286.87094	14078.5375
2289.74405	14066.7375
2292.61534	14033.8375
2295.4848	14051.9375
2298.35243	14050.8375
2301.21824	14058.3375
2304.08223	14086.8375
2306.94439	14075.8375
2309.80474	14093.0375
2312.66327	14126.9375
2315.51999	14108.5375
2318.37489	14129.6375
2321.22797	14138.1375
2324.07925	14120.0375
2326.92871	14096.2375
2329.77637	14098.0375
2332.62222	14090.2375
2335.46626	14108.8375
2338.3085	14070.4375
2341.14893	14135.7375
2343.98756	14154.3375
2346.8244	14193.2375
2349.65943	14160.0375
2352.49267	14128.5375
2355.32411	14146.0375
2358.15376	14160.4375
2360.98161	14142.7375
2363.80768	14133.5375
2366.63195	14115.1375
2369.45444	14053.8375
2372.27514	14062.3375
2375.09405	13999.7375
2377.91118	13932.5375
2380.72652	13891.5375
2383.54009	13866.1375
2386.35187	13880.7375
2389.16188	13810.0375
2391.97011	13768.1375
2394.77657	13764.7375
2397.58125	13751.3375
2400.38416	13755.1375
2403.18529	13709.6375
2405.98466	13702.9375
2408.78226	13653.7375
2411.57809	13582.5375
2414.37216	13597.1375
2417.16446	13586.7375
2419.955	13544.2375
2422.74378	13523.7375
2425.5308	13528.2375
2428.31606	13507.1375
2431.09956	13540.3375
2433.88131	13510.1375
2436.6613	13495.0375
2439.43954	13538.4375
2442.21603	13522.6375
2444.99077	13492.9375
2447.76377	13507.5375
2450.53501	13487.7375
2453.30451	13472.0375
2456.07226	13486.8375
2458.83827	13472.6375
2461.60254	13483.2375
2464.36507	13475.5375
2467.12586	13476.4375
2469.88492	13464.5375
2472.64224	13484.9375
2475.39782	13520.2375
2478.15167	13569.0375
2480.90379	13573.8375
2483.65417	13622.6375
2486.40283	13625.5375
2489.14976	13619.5375
2491.89497	13613.4375
2494.63845	13636.7375
2497.3802	13638.2375
2500.12024	13661.8375
2502.85855	13627.8375
2505.59514	13609.9375
2508.33002	13585.0375
2511.06318	13541.8375
2513.79462	13547.8375
2516.52435	13523.2375
2519.25237	13491.2375
2521.97867	13487.4375
2524.70327	13489.1375
2527.42616	13481.0375
2530.14734	13466.4375
2532.86681	13458.0375
2535.58458	13438.3375
2538.30065	13472.2375
2541.01501	13439.1375
2543.72768	13455.3375
2546.43864	13439.2375
2549.14791	13475.1375
2551.85548	13476.8375
2554.56136	13433.6375
2557.26554	13418.3375
2559.96803	13410.4375
2562.66883	13406.6375
2565.36794	13395.2375
2568.06536	13382.5375
2570.7611	13319.8375
2573.45514	13354.0375
2576.14751	13335.7375
2578.83819	13338.1375
2581.52719	13374.3375
2584.21451	13361.0375
2586.90015	13341.7375
2589.58411	13356.6375
2592.2664	13371.5375
2594.94701	13380.4375
2597.62594	13373.8375
2600.30321	13367.1375
2602.9788	13352.5375
2605.65273	13363.8375
2608.32498	13370.2375
2610.99557	13347.8375
2613.66449	13369.2375
2616.33175	13374.3375
2618.99734	13390.2375
2621.66128	13399.9375
2624.32355	13406.9375
2626.98416	13396.7375
2629.64311	13412.9375
2632.30041	13423.3375
2634.95605	13388.1375
2637.61004	13399.7375
2640.26238	13350.7375
2642.91306	13333.8375
2645.56209	13347.8375
2648.20948	13320.1375
2650.85521	13297.0375
2653.4993	13282.5375
2656.14175	13285.9375
2658.78255	13278.9375
2661.42171	13304.5375
2664.05923	13327.8375
2666.6951	13337.8375
2669.32934	13354.6375
2671.96194	13373.4375
2674.59291	13393.5375
2677.22224	13370.0375
2679.84993	13377.8375
2682.476	13378.7375
2685.10043	13347.5375
2687.72324	13306.9375
2690.34441	13303.2375
2692.96396	13305.2375
2695.58188	13292.1375
2698.19818	13268.0375
2700.81285	13278.7375
2703.4259	13279.4375
2706.03733	13308.7375
2708.64714	13300.2375
2711.25533	13290.6375
2713.86191	13291.8375
2716.46687	13309.1375
2719.07021	13304.9375
2721.67194	13322.3375
2724.27206	13337.1375
2726.87057	13351.3375
2729.46747	13345.9375
2732.06276	13340.4375
2734.65644	13351.6375
2737.24852	13333.4375
2739.83899	13372.0375
2742.42786	13363.1375
2745.01513	13312.5375
2747.60079	13316.2375
2750.18486	13302.3375
2752.76733	13266.6375
2755.3482	13303.5375
2757.92747	13311.0375
2760.50515	13281.7375
2763.08123	13298.5375
2765.65573	13265.1375
2768.22863	13285.5375
2770.79994	13287.7375
2773.36967	13278.3375
2775.9378	13281.5375
2778.50435	13308.1375
2781.06932	13296.6375
2783.6327	13317.5375
2786.1945	13302.2375
2788.75471	13299.6375
2791.31335	13275.0375
2793.87041	13256.8375
2796.42589	13250.1375
2798.97979	13232.7375
2801.53212	13203.1375
2804.08288	13177.6375
2806.63206	13171.4375
2809.17967	13142.6375
2811.72571	13140.8375
2814.27018	13138.6375
2816.81308	13101.0375
2819.35442	13096.4375
2821.89419	13064.6375
2824.43239	13088.3375
2826.96904	13069.2375
2829.50412	13085.9375
2832.03763	13050.8375
2834.56959	13051.3375
2837.1	13033.1375
2839.62884	13089.1375
2842.15613	13050.3375
2844.68186	13102.3375
2847.20604	13075.6375
2849.72867	13076.8375
2852.24974	13067.6375
2854.76927	13054.6375
2857.28724	13029.7375
2859.80367	12996.5375
2862.31855	13001.0375
2864.83189	12998.4375
2867.34368	12976.2375
2869.85393	12988.0375
2872.36264	12994.0375
2874.8698	13002.4375
2877.37543	12996.4375
2879.87952	12994.9375
2882.38207	12987.6375
2884.88308	12975.0375
2887.38256	12989.0375
2889.88051	12990.6375
2892.37692	12962.3375
2894.8718	12999.9375
2897.36515	13016.0375
2899.85698	13039.1375
2902.34727	13069.1375
2904.83604	13065.1375
2907.32328	13103.1375
2909.809	13105.1375
2912.29319	13103.2375
2914.77587	13116.0375
2917.25702	13093.5375
2919.73665	13046.4375
2922.21476	13062.2375
2924.69136	13060.8375
2927.16644	13043.5375
2929.64	13001.5375
2932.11205	13018.7375
2934.58258	12939.3375
2937.05161	12985.6375
2939.51912	12960.8375
2941.98513	12950.8375
2944.44962	12908.9375
2946.91261	12879.7375
2949.37409	12890.5375
2951.83407	12890.5375
2954.29254	12847.0375
2956.74951	12852.7375
2959.20498	12852.8375
2961.65895	12823.8375
2964.11142	12833.8375
2966.56239	12791.9375
2969.01186	12796.7375
2971.45984	12762.8375
2973.90632	12755.9375
2976.35131	12727.5375
2978.7948	12659.0375
2981.23681	12630.4375
2983.67732	12627.2375
2986.11635	12584.7375
2988.55388	12508.8375
2990.98993	12526.2375
2993.4245	12521.3375
2995.85758	12500.5375
2998.28917	12452.9375
3000.71928	12466.7375
3003.14791	12397.5375
3005.57506	12416.9375
3008.00073	12357.4375
3010.42493	12238.3375
3012.84764	12306.7375
3015.26888	12297.3375
3017.68865	12255.1375
3020.10694	12234.1375
3022.52376	12222.5375
3024.9391	12190.2375
3027.35298	12202.3375
3029.76539	12177.8375
3032.17632	12184.5375
3034.5858	12159.4375
3036.9938	12153.6375
3039.40034	12154.0375
3041.80542	12147.6375
3044.20903	12119.7375
3046.61118	12123.0375
3049.01187	12088.7375
3051.4111	12101.9375
3053.80888	12056.9375
3056.20519	12032.1375
3058.60005	12018.0375
3060.99345	11992.3375
3063.3854	11953.0375
3065.7759	11893.3375
3068.16494	11894.3375
3070.55254	11840.8375
3072.93868	11816.3375
3075.32338	11760.8375
3077.70662	11759.3375
3080.08842	11706.8375
3082.46878	11704.4375
3084.84769	11684.9375
3087.22515	11682.0375
3089.60118	11697.0375
3091.97576	11659.1375
3094.3489	11640.0375
3096.72061	11644.9375
3099.09087	11647.4375
3101.4597	11628.8375
3103.82709	11642.4375
3106.19305	11615.9375
3108.55757	11603.3375
3110.92066	11563.4375
3113.28232	11575.1375
3115.64255	11529.1375
3118.00134	11503.6375
3120.35871	11491.2375
3122.71466	11479.6375
3125.06917	11464.4375
3127.42226	11455.8375
3129.77393	11447.7375
3132.12417	11400.9375
3134.47299	11398.8375
3136.82039	11393.0375
3139.16636	11404.8375
3141.51092	11410.5375
3143.85406	11397.7375
3146.19579	11407.1375
3148.53609	11370.5375
3150.87499	11387.1375
3153.21246	11366.3375
3155.54853	11433.9375
3157.88318	11379.5375
3160.21642	11398.7375
3162.54826	11423.3375
3164.87868	11399.1375
3167.2077	11387.9375
3169.5353	11414.7375
3171.86151	11411.2375
3174.18631	11408.0375
3176.5097	11399.3375
3178.83169	11363.8375
3181.15228	11362.8375
3183.47147	11356.4375
3185.78926	11349.9375
3188.10565	11317.1375
3190.42065	11317.7375
3192.73424	11322.1375
3195.04645	11324.7375
3197.35725	11299.1375
3199.66667	11333.4375
3201.97469	11342.4375
3204.28132	11321.4375
3206.58656	11325.2375
3208.8904	11357.3375
3211.19287	11367.7375
3213.49394	11354.7375
3215.79363	11361.5375
3218.09193	11360.2375
3220.38884	11339.2375
3222.68438	11349.3375
3224.97853	11349.4375
3227.2713	11374.5375
3229.56269	11350.5375
3231.8527	11360.6375
3234.14133	11311.2375
3236.42858	11292.0375
3238.71446	11283.6375
3240.99896	11250.9375
3243.28209	11244.3375
3245.56384	11236.5375
3247.84423	11222.2375
3250.12324	11208.2375
3252.40088	11203.5375
3254.67715	11185.0375
3256.95205	11166.2375
3259.22558	11139.5375
3261.49775	11135.6375
3263.76855	11147.1375
3266.03799	11145.1375
3268.30606	11111.8375
3270.57277	11092.6375
3272.83812	11070.0375
3275.10211	11065.2375
3277.36474	11051.1375
3279.62601	11064.3375
3281.88593	11028.0375
3284.14448	11023.6375
3286.40168	11035.8375
3288.65753	11052.9375
3290.91202	11019.6375
3293.16516	11018.0375
3295.41695	11012.8375
3297.66738	10930.0375
3299.91647	10874.9375
3302.16421	10808.4375
3304.4106	10757.6375
3306.65564	10702.5375
3308.89933	10623.6375
3311.14169	10555.8375
3313.38269	10454.9375
3315.62236	10390.2375
3317.86068	10326.2375
3320.09766	10235.9375
3322.3333	10181.0375
3324.5676	10121.4375
3326.80056	9972.9375
3329.03219	9893.4375
3331.26248	4.2375
3333.49143	-0.3625
3335.71905	-0.4625
