Data from AgNP_FTO_APTES_UA_10uM_CRN_200uM_R6G_10uM_NaF_0.1M_Addition_RamanShift__3__18-04-10-880.txt Node

Date: Thu Feb 10 18:04:10 GMT 2022
User: TCL
Spectrometer: QEP01345
Trigger mode: 4
Integration Time (sec): 7.000000E0
Scans to average: 10
Electric dark correction enabled: true
Nonlinearity correction enabled: false
Boxcar width: 0
XAxis mode: Raman Shifts
Number of Pixels in Spectrum: 1044
>>>>>Begin Spectral Data<<<<<
46.04893	-0.1625
50.45542	1.1375
54.85868	-2.2625
59.25871	-1.3625
63.6555	59.0375
68.04907	63.9375
72.43941	66.9375
76.82654	65.4375
81.21044	71.8375
85.59113	70.2375
89.96862	76.9375
94.34289	81.5375
98.71396	80.1375
103.08183	86.4375
107.4465	87.7375
111.80798	90.9375
116.16626	91.6375
120.52136	92.7375
124.87327	95.2375
129.222	104.7375
133.56755	108.3375
137.90993	111.7375
142.24913	124.2375
146.58517	136.6375
150.91804	164.0375
155.24774	188.6375
159.57429	230.8375
163.89768	294.4375
168.21792	395.4375
172.53501	539.7375
176.84895	743.9375
181.15975	1044.8375
185.46741	1478.7375
189.77193	2047.0375
194.07331	2736.1375
198.37157	3523.3375
202.6667	4351.2375
206.9587	5172.0375
211.24758	5968.9375
215.53334	6774.5375
219.81599	7621.3375
224.09553	8528.8375
228.37195	9561.9375
232.64527	10664.6375
236.91549	11867.0375
241.18261	13091.9375
245.44663	14237.0375
249.70755	15296.6375
253.96539	16254.9375
258.22014	17010.9375
262.4718	17630.7375
266.72039	18087.6375
270.96589	18339.2375
275.20832	18383.7375
279.44768	18259.4375
283.68397	18073.9375
287.91719	17847.2375
292.14735	17728.8375
296.37445	17721.9375
300.59849	17728.3375
304.81948	17778.7375
309.03742	17792.4375
313.25231	17619.8375
317.46415	17384.3375
321.67296	17064.9375
325.87872	16796.2375
330.08145	16679.8375
334.28114	16662.7375
338.47781	16780.1375
342.67145	16955.9375
346.86207	17228.2375
351.04966	17472.5375
355.23424	17799.1375
359.4158	18043.2375
363.59435	18306.3375
367.76989	18467.1375
371.94243	18614.6375
376.11196	18700.1375
380.27849	18850.2375
384.44203	18965.3375
388.60257	19131.5375
392.76012	19300.2375
396.91468	19501.1375
401.06626	19739.0375
405.21485	19861.7375
409.36047	19824.2375
413.50311	19653.1375
417.64277	19484.1375
421.77947	19530.2375
425.9132	19586.3375
430.04396	19671.8375
434.17176	19797.2375
438.2966	19867.0375
442.41849	20129.3375
446.53742	20544.5375
450.6534	21045.4375
454.76644	21358.1375
458.87653	21438.1375
462.98368	21327.1375
467.08789	21122.2375
471.18916	20892.9375
475.2875	20694.1375
479.38291	20605.2375
483.4754	20520.6375
487.56496	20352.9375
491.6516	20146.6375
495.73531	19929.2375
499.81612	19803.6375
503.89401	19867.8375
507.96899	19974.3375
512.04106	19930.1375
516.11023	19892.3375
520.1765	19769.5375
524.23987	19626.9375
528.30034	19570.1375
532.35792	19449.7375
536.41261	19319.9375
540.46441	19166.7375
544.51333	19197.7375
548.55936	19299.5375
552.60252	19626.5375
556.64279	19994.1375
560.6802	20251.6375
564.71473	20324.4375
568.7464	20506.7375
572.7752	20881.9375
576.80114	21226.1375
580.82422	21621.5375
584.84444	22110.5375
588.86181	22801.5375
592.87633	23281.9375
596.888	23202.8375
600.89682	22556.7375
604.9028	22526.3375
608.90594	23745.1375
612.90624	25218.3375
616.90371	24086.2375
620.89834	21195.1375
624.89015	19947.4375
628.87913	19784.0375
632.86528	19878.9375
636.84862	19807.3375
640.82913	19606.5375
644.80683	19308.5375
648.78172	19067.6375
652.75379	19069.7375
656.72306	19256.7375
660.68952	19472.7375
664.65319	19398.3375
668.61405	19104.9375
672.57211	19061.7375
676.52738	19169.9375
680.47986	19161.6375
684.42955	19098.9375
688.37646	19041.9375
692.32058	19108.9375
696.26192	19281.5375
700.20048	19519.1375
704.13626	19641.7375
708.06928	19618.3375
711.99952	19559.8375
715.927	19548.2375
719.85171	19587.4375
723.77365	19543.5375
727.69284	19409.3375
731.60928	19201.5375
735.52295	19152.8375
739.43388	19154.3375
743.34206	19187.1375
747.24749	19275.2375
751.15017	19373.9375
755.05012	19623.7375
758.94733	19959.9375
762.8418	20607.6375
766.73354	21638.2375
770.62254	22642.4375
774.50882	22951.0375
778.39237	22288.0375
782.27321	21114.5375
786.15132	20156.1375
790.02671	19553.8375
793.89938	19265.0375
797.76935	19144.4375
801.6366	19142.6375
805.50115	19115.3375
809.36299	19021.0375
813.22213	18952.4375
817.07857	18841.7375
820.93231	18831.9375
824.78336	18761.2375
828.63172	18756.3375
832.47738	18745.4375
836.32036	18753.1375
840.16066	18838.4375
843.99827	18851.5375
847.8332	18857.0375
851.66546	18805.9375
855.49504	18810.0375
859.32195	18813.7375
863.1462	18766.3375
866.96777	18760.1375
870.78668	18705.2375
874.60293	18719.2375
878.41652	18707.2375
882.22745	18798.0375
886.03573	18841.0375
889.84136	18796.5375
893.64433	18773.0375
897.44466	18712.3375
901.24235	18636.4375
905.0374	18598.6375
908.8298	18565.8375
912.61957	18607.4375
916.40671	18666.0375
920.19121	18822.1375
923.97308	19009.2375
927.75233	19016.2375
931.52895	18976.0375
935.30295	18785.2375
939.07433	18543.9375
942.84309	18352.5375
946.60924	18272.2375
950.37278	18204.0375
954.13371	18161.3375
957.89203	18123.2375
961.64774	18079.2375
965.40086	18054.4375
969.15137	18043.5375
972.89929	17958.2375
976.64461	17971.5375
980.38733	17962.4375
984.12747	18017.3375
987.86502	18137.4375
991.59999	18238.0375
995.33237	18456.9375
999.06217	18792.3375
1002.78939	19121.4375
1006.51404	19338.6375
1010.23611	19439.9375
1013.95561	19576.9375
1017.67255	19567.4375
1021.38692	19455.7375
1025.09872	19287.3375
1028.80796	19297.3375
1032.51465	19571.6375
1036.21877	19902.6375
1039.92035	20074.1375
1043.61937	19926.4375
1047.31584	19688.3375
1051.00976	19387.7375
1054.70114	19271.3375
1058.38998	19245.1375
1062.07627	19316.1375
1065.76003	19418.5375
1069.44126	19502.9375
1073.11995	19694.6375
1076.79611	19859.2375
1080.46974	19955.4375
1084.14085	20014.9375
1087.80943	20216.3375
1091.47549	20304.3375
1095.13903	20306.8375
1098.80005	20135.8375
1102.45857	19839.5375
1106.11456	19656.6375
1109.76805	19546.2375
1113.41903	19593.7375
1117.06751	19692.1375
1120.71348	19802.8375
1124.35696	19941.9375
1127.99793	20144.8375
1131.63641	20234.1375
1135.2724	20170.2375
1138.90589	20025.1375
1142.5369	19979.9375
1146.16542	20000.2375
1149.79145	20067.1375
1153.415	20150.2375
1157.03607	20357.7375
1160.65467	20785.0375
1164.27079	21517.9375
1167.88443	22359.0375
1171.49561	23228.1375
1175.10432	24355.9375
1178.71056	25831.7375
1182.31434	27274.7375
1185.91565	28020.5375
1189.51451	27817.1375
1193.11091	27118.9375
1196.70485	26316.1375
1200.29634	25484.9375
1203.88538	24938.6375
1207.47197	24622.1375
1211.05612	24270.7375
1214.63782	23819.9375
1218.21708	23391.6375
1221.79391	23059.0375
1225.36829	22764.7375
1228.94024	22527.2375
1232.50976	22207.5375
1236.07685	21978.1375
1239.6415	21854.5375
1243.20374	21943.3375
1246.76355	22084.9375
1250.32093	22366.5375
1253.8759	22716.6375
1257.42845	23155.7375
1260.97859	23640.3375
1264.52631	24083.6375
1268.07163	24632.0375
1271.61453	25198.6375
1275.15503	25738.5375
1278.69312	26270.2375
1282.22882	26797.3375
1285.76211	27397.0375
1289.29301	28190.3375
1292.82151	29213.1375
1296.34761	30545.7375
1299.87133	32079.0375
1303.39266	33838.6375
1306.9116	35451.7375
1310.42815	36664.4375
1313.94233	37168.5375
1317.45412	36772.8375
1320.96354	35867.1375
1324.47058	35098.5375
1327.97525	34354.2375
1331.47754	33903.5375
1334.97747	33515.5375
1338.47502	33157.9375
1341.97022	32826.3375
1345.46305	32416.5375
1348.95352	32288.8375
1352.44163	32651.2375
1355.92738	33566.7375
1359.41078	35013.6375
1362.89183	36106.5375
1366.37053	35434.2375
1369.84688	32863.3375
1373.32088	29752.7375
1376.79254	27631.6375
1380.26186	26831.1375
1383.72883	26827.2375
1387.19347	26801.3375
1390.65578	26570.5375
1394.11575	26488.3375
1397.57339	26687.1375
1401.0287	27009.7375
1404.48168	27297.4375
1407.93234	27184.0375
1411.38068	26716.4375
1414.82669	26050.1375
1418.27039	25215.5375
1421.71177	24426.3375
1425.15083	23731.2375
1428.58758	23413.2375
1432.02203	23523.8375
1435.45416	24043.8375
1438.88399	24576.0375
1442.31151	24926.7375
1445.73673	25218.9375
1449.15965	25396.0375
1452.58027	25351.6375
1455.9986	25260.9375
1459.41463	25360.3375
1462.82837	25567.2375
1466.23982	25988.3375
1469.64898	26340.1375
1473.05586	26615.1375
1476.46045	26674.5375
1479.86276	26597.8375
1483.26279	26410.0375
1486.66054	26322.4375
1490.05602	26418.8375
1493.44922	26565.1375
1496.84016	26913.0375
1500.22882	27382.8375
1503.61521	28200.2375
1506.99934	29067.7375
1510.38121	29815.5375
1513.76081	29921.2375
1517.13816	29342.0375
1520.51324	28464.3375
1523.88607	27670.3375
1527.25665	27341.1375
1530.62498	27225.2375
1533.99105	27128.4375
1537.35488	26891.8375
1540.71647	26504.5375
1544.07581	25978.3375
1547.4329	25448.5375
1550.78776	24977.3375
1554.14038	24684.1375
1557.49077	24484.4375
1560.83892	24358.3375
1564.18484	24360.5375
1567.52853	24422.0375
1570.86999	24644.0375
1574.20922	25030.1375
1577.54624	25283.8375
1580.88103	25478.6375
1584.2136	25611.1375
1587.54395	26160.7375
1590.87208	27207.2375
1594.19801	28472.3375
1597.52172	29705.7375
1600.84321	30056.6375
1604.16251	28980.1375
1607.47959	27097.6375
1610.79447	25134.0375
1614.10715	23380.5375
1617.41763	22020.5375
1620.7259	21132.0375
1624.03199	20705.6375
1627.33587	20752.4375
1630.63757	21268.9375
1633.93707	22185.3375
1637.23439	23776.4375
1640.52951	26109.4375
1643.82246	28848.0375
1647.11321	31060.5375
1650.40179	31417.4375
1653.68819	29536.7375
1656.97241	26248.9375
1660.25446	23135.1375
1663.53433	20935.5375
1666.81203	19496.2375
1670.08756	18554.9375
1673.36092	18031.7375
1676.63211	17680.3375
1679.90115	17432.5375
1683.16801	17153.4375
1686.43272	17048.2375
1689.69527	16982.7375
1692.95567	16888.2375
1696.2139	16841.2375
1699.46999	16806.1375
1702.72392	16756.4375
1705.97571	16717.4375
1709.22535	16647.9375
1712.47284	16665.8375
1715.71819	16618.4375
1718.96139	16585.2375
1722.20246	16567.4375
1725.44139	16493.0375
1728.67818	16427.2375
1731.91284	16375.8375
1735.14537	16294.2375
1738.37576	16265.4375
1741.60403	16224.8375
1744.83017	16158.9375
1748.05418	16131.5375
1751.27607	16108.3375
1754.49584	16103.7375
1757.71349	16112.1375
1760.92903	16091.8375
1764.14244	16057.6375
1767.35375	16047.5375
1770.56294	16038.8375
1773.77002	16018.1375
1776.97499	16010.4375
1780.17785	15946.6375
1783.37861	15914.1375
1786.57727	15904.7375
1789.77382	15845.9375
1792.96828	15803.1375
1796.16064	15789.1375
1799.3509	15766.2375
1802.53907	15768.6375
1805.72514	15711.7375
1808.90913	15704.0375
1812.09102	15658.1375
1815.27083	15632.2375
1818.44856	15598.8375
1821.6242	15573.8375
1824.79776	15553.7375
1827.96924	15558.8375
1831.13864	15544.8375
1834.30597	15521.2375
1837.47122	15515.0375
1840.6344	15509.1375
1843.7955	15500.6375
1846.95454	15481.5375
1850.11151	15472.1375
1853.26642	15454.6375
1856.41926	15479.3375
1859.57004	15477.0375
1862.71876	15460.1375
1865.86542	15402.2375
1869.01003	15404.1375
1872.15258	15393.6375
1875.29308	15383.3375
1878.43152	15358.3375
1881.56792	15357.2375
1884.70227	15347.9375
1887.83457	15322.6375
1890.96482	15311.8375
1894.09304	15255.0375
1897.21921	15233.2375
1900.34335	15225.6375
1903.46544	15221.2375
1906.58551	15208.8375
1909.70353	15183.0375
1912.81953	15133.8375
1915.93349	15173.7375
1919.04543	15107.6375
1922.15534	15081.6375
1925.26322	15055.4375
1928.36908	15024.9375
1931.47292	15005.1375
1934.57473	14997.2375
1937.67453	14983.6375
1940.77232	14928.2375
1943.86808	14876.7375
1946.96184	14832.8375
1950.05358	14809.5375
1953.14331	14771.6375
1956.23103	14718.0375
1959.31675	14648.7375
1962.40046	14668.3375
1965.48217	14600.2375
1968.56188	14556.1375
1971.63959	14505.4375
1974.7153	14465.5375
1977.78901	14447.6375
1980.86073	14387.6375
1983.93046	14343.5375
1986.99819	14312.8375
1990.06394	14281.7375
1993.1277	14257.9375
1996.18947	14208.4375
1999.24925	14167.9375
2002.30706	14152.5375
2005.36288	14052.5375
2008.41672	14062.4375
2011.46859	13996.9375
2014.51848	13998.0375
2017.56639	13944.3375
2020.61233	13903.8375
2023.6563	13863.0375
2026.6983	13859.2375
2029.73833	13811.9375
2032.7764	13794.0375
2035.8125	13779.1375
2038.84664	13742.5375
2041.87881	13731.5375
2044.90903	13683.9375
2047.93729	13669.3375
2050.96359	13644.1375
2053.98794	13640.3375
2057.01034	13628.1375
2060.03078	13606.2375
2063.04927	13603.6375
2066.06582	13599.0375
2069.08042	13605.0375
2072.09307	13610.0375
2075.10378	13575.0375
2078.11255	13559.9375
2081.11938	13559.3375
2084.12426	13549.8375
2087.12722	13560.9375
2090.12824	13536.7375
2093.12732	13529.3375
2096.12447	13544.1375
2099.11969	13523.2375
2102.11299	13566.5375
2105.10435	13534.8375
2108.09379	13527.3375
2111.08131	13568.0375
2114.0669	13538.2375
2117.05057	13572.7375
2120.03233	13611.6375
2123.01216	13624.8375
2125.99008	13580.0375
2128.96609	13605.3375
2131.94018	13633.6375
2134.91236	13659.7375
2137.88263	13638.6375
2140.851	13683.8375
2143.81746	13684.9375
2146.78201	13674.4375
2149.74466	13657.7375
2152.7054	13663.7375
2155.66425	13666.3375
2158.6212	13656.8375
2161.57625	13643.0375
2164.52941	13647.7375
2167.48067	13655.6375
2170.43004	13623.7375
2173.37752	13614.5375
2176.32311	13669.5375
2179.26681	13662.4375
2182.20863	13657.5375
2185.14856	13669.0375
2188.08661	13648.9375
2191.02278	13688.5375
2193.95707	13662.0375
2196.88948	13643.1375
2199.82001	13664.8375
2202.74867	13641.3375
2205.67545	13634.1375
2208.60037	13586.8375
2211.52341	13571.1375
2214.44458	13537.4375
2217.36388	13550.7375
2220.28132	13515.5375
2223.1969	13521.4375
2226.11061	13498.2375
2229.02246	13461.0375
2231.93245	13453.2375
2234.84058	13419.1375
2237.74686	13406.0375
2240.65128	13406.4375
2243.55385	13329.2375
2246.45456	13300.7375
2249.35343	13310.0375
2252.25044	13289.4375
2255.14561	13273.5375
2258.03893	13289.0375
2260.93041	13273.2375
2263.82004	13205.4375
2266.70783	13198.6375
2269.59378	13125.6375
2272.4779	13079.0375
2275.36017	13044.9375
2278.24061	13041.6375
2281.11922	13057.7375
2283.996	13066.9375
2286.87094	13034.3375
2289.74405	13001.7375
2292.61534	13001.7375
2295.4848	13007.4375
2298.35243	13026.0375
2301.21824	12988.5375
2304.08223	13000.6375
2306.94439	13023.1375
2309.80474	13017.9375
2312.66327	12999.1375
2315.51999	12982.6375
2318.37489	13001.9375
2321.22797	12954.3375
2324.07925	12945.5375
2326.92871	12904.2375
2329.77637	12915.8375
2332.62222	12865.4375
2335.46626	12890.6375
2338.3085	12872.7375
2341.14893	12885.3375
2343.98756	12855.2375
2346.8244	12834.5375
2349.65943	12857.5375
2352.49267	12834.8375
2355.32411	12858.4375
2358.15376	12823.0375
2360.98161	12808.5375
2363.80768	12831.0375
2366.63195	12796.8375
2369.45444	12772.3375
2372.27514	12767.5375
2375.09405	12751.7375
2377.91118	12765.4375
2380.72652	12706.9375
2383.54009	12669.8375
2386.35187	12678.9375
2389.16188	12605.3375
2391.97011	12609.9375
2394.77657	12581.3375
2397.58125	12561.5375
2400.38416	12547.7375
2403.18529	12540.3375
2405.98466	12508.5375
2408.78226	12466.6375
2411.57809	12477.1375
2414.37216	12459.4375
2417.16446	12449.2375
2419.955	12438.1375
2422.74378	12457.5375
2425.5308	12420.4375
2428.31606	12408.6375
2431.09956	12417.0375
2433.88131	12391.7375
2436.6613	12410.7375
2439.43954	12386.9375
2442.21603	12391.9375
2444.99077	12377.8375
2447.76377	12394.3375
2450.53501	12347.9375
2453.30451	12339.9375
2456.07226	12341.2375
2458.83827	12337.7375
2461.60254	12339.1375
2464.36507	12321.2375
2467.12586	12298.3375
2469.88492	12292.8375
2472.64224	12289.1375
2475.39782	12288.7375
2478.15167	12337.8375
2480.90379	12308.3375
2483.65417	12302.4375
2486.40283	12320.2375
2489.14976	12316.8375
2491.89497	12306.8375
2494.63845	12309.3375
2497.3802	12302.1375
2500.12024	12268.2375
2502.85855	12262.7375
2505.59514	12236.8375
2508.33002	12252.0375
2511.06318	12229.9375
2513.79462	12198.8375
2516.52435	12207.1375
2519.25237	12209.3375
2521.97867	12201.8375
2524.70327	12199.7375
2527.42616	12153.9375
2530.14734	12189.0375
2532.86681	12179.5375
2535.58458	12186.6375
2538.30065	12194.7375
2541.01501	12159.4375
2543.72768	12150.5375
2546.43864	12125.1375
2549.14791	12126.8375
2551.85548	12123.1375
2554.56136	12097.9375
2557.26554	12062.6375
2559.96803	12049.7375
2562.66883	12037.9375
2565.36794	12006.9375
2568.06536	12001.4375
2570.7611	11980.6375
2573.45514	11984.0375
2576.14751	11952.7375
2578.83819	11977.4375
2581.52719	11957.1375
2584.21451	11936.9375
2586.90015	11913.1375
2589.58411	11922.4375
2592.2664	11905.2375
2594.94701	11905.3375
2597.62594	11903.4375
2600.30321	11860.5375
2602.9788	11838.2375
2605.65273	11819.3375
2608.32498	11811.7375
2610.99557	11826.9375
2613.66449	11828.2375
2616.33175	11801.5375
2618.99734	11783.2375
2621.66128	11770.3375
2624.32355	11776.8375
2626.98416	11754.5375
2629.64311	11754.9375
2632.30041	11735.7375
2634.95605	11722.3375
2637.61004	11670.8375
2640.26238	11716.6375
2642.91306	11683.7375
2645.56209	11689.7375
2648.20948	11688.5375
2650.85521	11674.7375
2653.4993	11681.6375
2656.14175	11681.2375
2658.78255	11678.1375
2661.42171	11681.9375
2664.05923	11709.8375
2666.6951	11739.9375
2669.32934	11729.8375
2671.96194	11719.8375
2674.59291	11725.3375
2677.22224	11710.0375
2679.84993	11709.9375
2682.476	11667.9375
2685.10043	11683.9375
2687.72324	11674.7375
2690.34441	11675.5375
2692.96396	11665.4375
2695.58188	11700.6375
2698.19818	11646.8375
2700.81285	11650.4375
2703.4259	11679.6375
2706.03733	11708.9375
2708.64714	11688.3375
2711.25533	11705.0375
2713.86191	11677.9375
2716.46687	11683.3375
2719.07021	11702.4375
2721.67194	11710.0375
2724.27206	11693.3375
2726.87057	11724.3375
2729.46747	11750.3375
2732.06276	11730.2375
2734.65644	11733.9375
2737.24852	11737.5375
2739.83899	11699.5375
2742.42786	11684.9375
2745.01513	11661.8375
2747.60079	11668.0375
2750.18486	11654.6375
2752.76733	11647.3375
2755.3482	11634.8375
2757.92747	11630.4375
2760.50515	11611.7375
2763.08123	11610.7375
2765.65573	11579.5375
2768.22863	11592.8375
2770.79994	11599.3375
2773.36967	11593.3375
2775.9378	11576.6375
2778.50435	11579.0375
2781.06932	11569.7375
2783.6327	11567.7375
2786.1945	11542.8375
2788.75471	11564.2375
2791.31335	11531.9375
2793.87041	11537.1375
2796.42589	11490.6375
2798.97979	11493.7375
2801.53212	11468.1375
2804.08288	11447.9375
2806.63206	11442.6375
2809.17967	11406.4375
2811.72571	11352.4375
2814.27018	11356.9375
2816.81308	11327.7375
2819.35442	11327.6375
2821.89419	11296.3375
2824.43239	11281.2375
2826.96904	11264.2375
2829.50412	11275.0375
2832.03763	11252.0375
2834.56959	11249.4375
2837.1	11244.1375
2839.62884	11240.5375
2842.15613	11249.2375
2844.68186	11277.6375
2847.20604	11273.6375
2849.72867	11297.3375
2852.24974	11312.3375
2854.76927	11314.2375
2857.28724	11269.6375
2859.80367	11243.6375
2862.31855	11222.1375
2864.83189	11221.2375
2867.34368	11188.4375
2869.85393	11188.7375
2872.36264	11202.2375
2874.8698	11188.2375
2877.37543	11186.7375
2879.87952	11200.8375
2882.38207	11185.3375
2884.88308	11168.3375
2887.38256	11177.7375
2889.88051	11201.5375
2892.37692	11174.3375
2894.8718	11170.8375
2897.36515	11240.0375
2899.85698	11199.4375
2902.34727	11235.3375
2904.83604	11218.4375
2907.32328	11267.0375
2909.809	11246.3375
2912.29319	11262.2375
2914.77587	11239.0375
2917.25702	11247.7375
2919.73665	11219.9375
2922.21476	11271.9375
2924.69136	11241.5375
2927.16644	11231.4375
2929.64	11228.7375
2932.11205	11216.8375
2934.58258	11188.0375
2937.05161	11181.2375
2939.51912	11176.9375
2941.98513	11205.0375
2944.44962	11151.5375
2946.91261	11111.0375
2949.37409	11133.2375
2951.83407	11141.0375
2954.29254	11114.6375
2956.74951	11092.3375
2959.20498	11125.8375
2961.65895	11108.0375
2964.11142	11107.2375
2966.56239	11094.4375
2969.01186	11079.8375
2971.45984	11064.1375
2973.90632	11055.4375
2976.35131	11012.5375
2978.7948	11007.8375
2981.23681	10996.5375
2983.67732	10983.3375
2986.11635	10969.3375
2988.55388	10915.1375
2990.98993	10907.0375
2993.4245	10896.3375
2995.85758	10860.5375
2998.28917	10822.7375
3000.71928	10835.2375
3003.14791	10823.5375
3005.57506	10809.9375
3008.00073	10798.9375
3010.42493	10768.0375
3012.84764	10735.8375
3015.26888	10753.9375
3017.68865	10714.9375
3020.10694	10718.9375
3022.52376	10722.9375
3024.9391	10684.6375
3027.35298	10657.4375
3029.76539	10650.0375
3032.17632	10679.3375
3034.5858	10672.4375
3036.9938	10660.7375
3039.40034	10637.4375
3041.80542	10654.0375
3044.20903	10642.0375
3046.61118	10613.8375
3049.01187	10601.1375
3051.4111	10591.8375
3053.80888	10562.6375
3056.20519	10560.8375
3058.60005	10542.2375
3060.99345	10518.4375
3063.3854	10503.6375
3065.7759	10467.7375
3068.16494	10482.8375
3070.55254	10424.9375
3072.93868	10415.7375
3075.32338	10389.3375
3077.70662	10387.2375
3080.08842	10388.3375
3082.46878	10400.9375
3084.84769	10360.0375
3087.22515	10365.6375
3089.60118	10356.7375
3091.97576	10370.5375
3094.3489	10329.6375
3096.72061	10348.4375
3099.09087	10370.7375
3101.4597	10359.0375
3103.82709	10359.2375
3106.19305	10348.5375
3108.55757	10330.4375
3110.92066	10313.6375
3113.28232	10313.8375
3115.64255	10282.5375
3118.00134	10267.8375
3120.35871	10257.2375
3122.71466	10248.7375
3125.06917	10210.3375
3127.42226	10184.1375
3129.77393	10204.9375
3132.12417	10191.8375
3134.47299	10201.0375
3136.82039	10214.2375
3139.16636	10205.1375
3141.51092	10210.9375
3143.85406	10207.4375
3146.19579	10197.2375
3148.53609	10191.3375
3150.87499	10204.3375
3153.21246	10212.6375
3155.54853	10218.2375
3157.88318	10212.6375
3160.21642	10224.3375
3162.54826	10256.7375
3164.87868	10243.5375
3167.2077	10261.0375
3169.5353	10234.5375
3171.86151	10257.8375
3174.18631	10254.5375
3176.5097	10240.1375
3178.83169	10229.5375
3181.15228	10238.9375
3183.47147	10202.7375
3185.78926	10211.9375
3188.10565	10179.4375
3190.42065	10182.2375
3192.73424	10172.1375
3195.04645	10171.6375
3197.35725	10173.7375
3199.66667	10167.6375
3201.97469	10198.8375
3204.28132	10171.8375
3206.58656	10189.3375
3208.8904	10171.8375
3211.19287	10198.7375
3213.49394	10199.3375
3215.79363	10187.0375
3218.09193	10228.7375
3220.38884	10214.9375
3222.68438	10198.7375
3224.97853	10197.8375
3227.2713	10199.2375
3229.56269	10181.8375
3231.8527	10192.9375
3234.14133	10151.5375
3236.42858	10130.3375
3238.71446	10143.5375
3240.99896	10124.8375
3243.28209	10103.9375
3245.56384	10083.0375
3247.84423	10097.1375
3250.12324	10088.7375
3252.40088	10085.7375
3254.67715	10055.1375
3256.95205	10026.4375
3259.22558	10047.9375
3261.49775	10044.4375
3263.76855	10023.0375
3266.03799	10014.1375
3268.30606	9994.9375
3270.57277	9974.3375
3272.83812	9975.7375
3275.10211	9941.2375
3277.36474	9947.5375
3279.62601	9922.7375
3281.88593	9905.9375
3284.14448	9916.1375
3286.40168	9923.0375
3288.65753	9930.0375
3290.91202	9904.3375
3293.16516	9891.0375
3295.41695	9898.8375
3297.66738	9816.0375
3299.91647	9777.8375
3302.16421	9699.8375
3304.4106	9661.7375
3306.65564	9633.2375
3308.89933	9533.0375
3311.14169	9477.1375
3313.38269	9408.4375
3315.62236	9342.6375
3317.86068	9277.5375
3320.09766	9198.7375
3322.3333	9132.9375
3324.5676	9087.5375
3326.80056	8945.8375
3329.03219	8881.3375
3331.26248	3.9375
3333.49143	-0.2625
3335.71905	-0.9625
