Data from AgNP_FTO_APTES_UA_10uM_CRN_5uM_R6G_10uM_NaF_0.1M_Addition_RamanShift__6__14-49-20-639.txt Node

Date: Thu Feb 10 14:49:20 GMT 2022
User: TCL
Spectrometer: QEP01345
Trigger mode: 4
Integration Time (sec): 7.000000E0
Scans to average: 10
Electric dark correction enabled: true
Nonlinearity correction enabled: false
Boxcar width: 0
XAxis mode: Raman Shifts
Number of Pixels in Spectrum: 1044
>>>>>Begin Spectral Data<<<<<
46.04893	-1.6125
50.45542	-0.4125
54.85868	-1.9125
59.25871	-0.4125
63.6555	76.0875
68.04907	81.3875
72.43941	83.5875
76.82654	84.1875
81.21044	90.8875
85.59113	88.8875
89.96862	94.6875
94.34289	101.2875
98.71396	102.1875
103.08183	105.8875
107.4465	111.7875
111.80798	109.7875
116.16626	113.8875
120.52136	118.5875
124.87327	124.4875
129.222	129.9875
133.56755	141.3875
137.90993	149.8875
142.24913	161.4875
146.58517	186.1875
150.91804	218.8875
155.24774	261.0875
159.57429	327.3875
163.89768	419.7875
168.21792	557.3875
172.53501	764.3875
176.84895	1067.0875
181.15975	1497.4875
185.46741	2094.7875
189.77193	2877.3875
194.07331	3849.3875
198.37157	4967.8875
202.6667	6122.2875
206.9587	7234.4875
211.24758	8363.3875
215.53334	9496.3875
219.81599	10715.7875
224.09553	12046.4875
228.37195	13476.5875
232.64527	15094.4875
236.91549	16751.8875
241.18261	18443.3875
245.44663	19958.3875
249.70755	21323.3875
253.96539	22580.6875
258.22014	23580.8875
262.4718	24420.5875
266.72039	25000.5875
270.96589	25283.8875
275.20832	25317.4875
279.44768	25156.4875
283.68397	24895.8875
287.91719	24702.7875
292.14735	24564.8875
296.37445	24544.9875
300.59849	24635.6875
304.81948	24695.1875
309.03742	24813.8875
313.25231	24622.4875
317.46415	24392.4875
321.67296	23941.9875
325.87872	23546.3875
330.08145	23365.3875
334.28114	23333.6875
338.47781	23443.7875
342.67145	23744.1875
346.86207	24141.2875
351.04966	24600.1875
355.23424	25036.6875
359.4158	25363.9875
363.59435	25592.0875
367.76989	25817.0875
371.94243	25942.9875
376.11196	25978.0875
380.27849	26081.4875
384.44203	26202.6875
388.60257	26469.6875
392.76012	26751.6875
396.91468	27101.7875
401.06626	27554.4875
405.21485	27755.2875
409.36047	27690.8875
413.50311	27426.7875
417.64277	27489.8875
421.77947	27704.6875
425.9132	27997.8875
430.04396	28157.9875
434.17176	28240.5875
438.2966	28325.3875
442.41849	28694.2875
446.53742	29560.3875
450.6534	30468.7875
454.76644	31087.2875
458.87653	31223.2875
462.98368	30964.2875
467.08789	30468.2875
471.18916	29769.4875
475.2875	29166.3875
479.38291	28787.3875
483.4754	28500.7875
487.56496	28161.2875
491.6516	27752.5875
495.73531	27389.1875
499.81612	27253.3875
503.89401	27469.1875
507.96899	27698.7875
512.04106	27686.7875
516.11023	27459.8875
520.1765	27157.6875
524.23987	26853.0875
528.30034	26603.5875
532.35792	26357.5875
536.41261	25990.6875
540.46441	25700.1875
544.51333	25642.2875
548.55936	25899.6875
552.60252	26487.2875
556.64279	27177.4875
560.6802	27806.6875
564.71473	28083.3875
568.7464	28579.8875
572.7752	29563.3875
576.80114	30766.5875
580.82422	32142.5875
584.84444	33852.0875
588.86181	36145.9875
592.87633	37925.2875
596.888	37412.7875
600.89682	34780.4875
604.9028	33330.3875
608.90594	34313.9875
612.90624	35582.3875
616.90371	33091.8875
620.89834	28696.6875
624.89015	26873.6875
628.87913	26789.2875
632.86528	26885.3875
636.84862	26685.8875
640.82913	26114.9875
644.80683	25471.9875
648.78172	25128.1875
652.75379	25152.0875
656.72306	25470.9875
660.68952	25785.3875
664.65319	25576.9875
668.61405	25209.0875
672.57211	25120.9875
676.52738	25280.1875
680.47986	25224.9875
684.42955	25023.6875
688.37646	24969.2875
692.32058	25174.1875
696.26192	25616.4875
700.20048	26065.9875
704.13626	26316.6875
708.06928	26289.6875
711.99952	26155.0875
715.927	26194.7875
719.85171	26252.4875
723.77365	26103.6875
727.69284	25632.9875
731.60928	25195.9875
735.52295	25065.6875
739.43388	25018.7875
743.34206	25171.9875
747.24749	25381.3875
751.15017	25687.6875
755.05012	26204.2875
758.94733	26999.8875
762.8418	28194.7875
766.73354	29933.3875
770.62254	31364.5875
774.50882	31317.7875
778.39237	29850.8875
782.27321	28123.9875
786.15132	26675.0875
790.02671	25823.9875
793.89938	25406.2875
797.76935	25216.8875
801.6366	25168.3875
805.50115	25153.6875
809.36299	25010.9875
813.22213	24756.4875
817.07857	24579.2875
820.93231	24458.9875
824.78336	24325.3875
828.63172	24222.1875
832.47738	24123.8875
836.32036	24132.2875
840.16066	24196.7875
843.99827	24269.9875
847.8332	24258.0875
851.66546	24254.5875
855.49504	24297.7875
859.32195	24378.4875
863.1462	24235.6875
866.96777	24125.6875
870.78668	24082.7875
874.60293	24098.0875
878.41652	24172.7875
882.22745	24200.5875
886.03573	24222.5875
889.84136	24224.6875
893.64433	24102.8875
897.44466	23984.5875
901.24235	23911.5875
905.0374	23888.3875
908.8298	23847.4875
912.61957	23906.7875
916.40671	24146.3875
920.19121	24560.4875
923.97308	24894.6875
927.75233	24955.3875
931.52895	24598.0875
935.30295	24145.5875
939.07433	23768.3875
942.84309	23475.7875
946.60924	23302.5875
950.37278	23326.7875
954.13371	23314.6875
957.89203	23304.1875
961.64774	23296.0875
965.40086	23326.6875
969.15137	23289.8875
972.89929	23244.6875
976.64461	23168.7875
980.38733	23167.6875
984.12747	23249.9875
987.86502	23384.7875
991.59999	23536.4875
995.33237	23823.9875
999.06217	24331.3875
1002.78939	25001.4875
1006.51404	25611.2875
1010.23611	26151.3875
1013.95561	26522.1875
1017.67255	26560.0875
1021.38692	26176.4875
1025.09872	25658.4875
1028.80796	25321.6875
1032.51465	25495.0875
1036.21877	25860.8875
1039.92035	25982.3875
1043.61937	25950.7875
1047.31584	25674.4875
1051.00976	25386.3875
1054.70114	25309.9875
1058.38998	25414.0875
1062.07627	25638.4875
1065.76003	25905.6875
1069.44126	26242.9875
1073.11995	26706.3875
1076.79611	27097.5875
1080.46974	27303.0875
1084.14085	27530.7875
1087.80943	27813.2875
1091.47549	28087.6875
1095.13903	28098.2875
1098.80005	27677.1875
1102.45857	27020.9875
1106.11456	26565.8875
1109.76805	26302.7875
1113.41903	26310.6875
1117.06751	26402.6875
1120.71348	26589.2875
1124.35696	26789.5875
1127.99793	27105.5875
1131.63641	27281.0875
1135.2724	27295.2875
1138.90589	27327.8875
1142.5369	27467.5875
1146.16542	27738.8875
1149.79145	28020.2875
1153.415	28367.6875
1157.03607	28819.2875
1160.65467	29783.8875
1164.27079	31391.3875
1167.88443	33167.1875
1171.49561	34981.5875
1175.10432	37133.4875
1178.71056	39898.0875
1182.31434	42509.0875
1185.91565	43783.6875
1189.51451	43293.4875
1193.11091	42095.7875
1196.70485	40705.8875
1200.29634	39352.5875
1203.88538	38525.4875
1207.47197	38346.8875
1211.05612	38175.0875
1214.63782	37524.5875
1218.21708	36448.0875
1221.79391	35261.4875
1225.36829	34546.1875
1228.94024	33989.5875
1232.50976	33392.4875
1236.07685	32689.7875
1239.6415	32262.5875
1243.20374	32143.2875
1246.76355	32412.2875
1250.32093	32964.8875
1253.8759	33756.2875
1257.42845	34683.1875
1260.97859	35761.2875
1264.52631	36950.6875
1268.07163	38243.2875
1271.61453	39490.6875
1275.15503	40708.0875
1278.69312	41874.4875
1282.22882	43122.6875
1285.76211	44694.8875
1289.29301	46586.8875
1292.82151	48896.0875
1296.34761	51824.1875
1299.87133	55427.2875
1303.39266	59172.6875
1306.9116	62341.5875
1310.42815	64577.4875
1313.94233	65540.6875
1317.45412	64735.9875
1320.96354	63169.0875
1324.47058	62104.3875
1327.97525	61432.7875
1331.47754	61081.4875
1334.97747	60815.0875
1338.47502	60149.5875
1341.97022	59107.4875
1345.46305	57848.2875
1348.95352	56662.2875
1352.44163	56129.6875
1355.92738	57107.9875
1359.41078	59263.8875
1362.89183	60665.1875
1366.37053	59500.0875
1369.84688	55048.5875
1373.32088	49209.0875
1376.79254	45160.9875
1380.26186	44039.7875
1383.72883	44429.6875
1387.19347	44783.4875
1390.65578	44586.2875
1394.11575	44558.4875
1397.57339	45363.2875
1401.0287	46434.8875
1404.48168	47314.9875
1407.93234	47404.4875
1411.38068	46495.3875
1414.82669	44839.3875
1418.27039	42809.1875
1421.71177	40738.0875
1425.15083	39099.7875
1428.58758	38529.9875
1432.02203	39185.1875
1435.45416	40626.4875
1438.88399	42230.8875
1442.31151	43317.2875
1445.73673	43777.8875
1449.15965	43868.1875
1452.58027	43653.3875
1455.9986	43467.8875
1459.41463	43658.0875
1462.82837	44349.2875
1466.23982	45256.9875
1469.64898	46023.2875
1473.05586	46390.5875
1476.46045	46398.5875
1479.86276	45842.1875
1483.26279	45077.9875
1486.66054	44680.8875
1490.05602	44650.2875
1493.44922	44858.2875
1496.84016	45097.0875
1500.22882	45401.0875
1503.61521	45981.7875
1506.99934	46734.9875
1510.38121	47277.5875
1513.76081	47155.7875
1517.13816	46434.3875
1520.51324	45617.3875
1523.88607	45355.9875
1527.25665	45666.6875
1530.62498	46144.5875
1533.99105	46355.2875
1537.35488	45817.7875
1540.71647	44846.5875
1544.07581	43467.2875
1547.4329	41977.9875
1550.78776	40814.9875
1554.14038	39856.5875
1557.49077	39243.0875
1560.83892	38858.5875
1564.18484	38606.8875
1567.52853	38555.4875
1570.86999	38843.6875
1574.20922	39682.8875
1577.54624	40538.9875
1580.88103	41050.8875
1584.2136	41939.5875
1587.54395	43970.0875
1590.87208	46945.9875
1594.19801	50485.7875
1597.52172	53748.9875
1600.84321	54351.1875
1604.16251	51473.9875
1607.47959	46645.7875
1610.79447	41663.5875
1614.10715	37369.0875
1617.41763	34182.7875
1620.7259	32130.4875
1624.03199	31205.7875
1627.33587	31362.3875
1630.63757	32587.9875
1633.93707	35282.8875
1637.23439	39676.6875
1640.52951	45934.0875
1643.82246	53140.9875
1647.11321	58274.2875
1650.40179	58111.1875
1653.68819	52184.6875
1656.97241	43860.8875
1660.25446	36510.9875
1663.53433	31469.6875
1666.81203	28352.0875
1670.08756	26387.5875
1673.36092	25217.5875
1676.63211	24400.0875
1679.90115	23856.7875
1683.16801	23400.2875
1686.43272	23114.3875
1689.69527	22887.2875
1692.95567	22702.1875
1696.2139	22613.7875
1699.46999	22538.0875
1702.72392	22448.4875
1705.97571	22322.3875
1709.22535	22286.2875
1712.47284	22182.2875
1715.71819	22189.8875
1718.96139	22098.5875
1722.20246	22033.8875
1725.44139	21921.5875
1728.67818	21794.5875
1731.91284	21628.0875
1735.14537	21485.5875
1738.37576	21404.5875
1741.60403	21277.2875
1744.83017	21194.3875
1748.05418	21127.4875
1751.27607	21112.8875
1754.49584	21079.3875
1757.71349	21083.5875
1760.92903	21066.5875
1764.14244	21078.4875
1767.35375	21027.0875
1770.56294	20964.2875
1773.77002	20955.6875
1776.97499	20900.6875
1780.17785	20811.1875
1783.37861	20804.3875
1786.57727	20725.2875
1789.77382	20714.4875
1792.96828	20651.9875
1796.16064	20599.6875
1799.3509	20572.4875
1802.53907	20563.2875
1805.72514	20463.7875
1808.90913	20416.7875
1812.09102	20404.2875
1815.27083	20323.0875
1818.44856	20301.7875
1821.6242	20320.2875
1824.79776	20256.0875
1827.96924	20263.8875
1831.13864	20204.1875
1834.30597	20252.4875
1837.47122	20219.6875
1840.6344	20212.7875
1843.7955	20237.4875
1846.95454	20238.4875
1850.11151	20229.8875
1853.26642	20190.2875
1856.41926	20200.1875
1859.57004	20216.6875
1862.71876	20180.5875
1865.86542	20108.1875
1869.01003	20088.7875
1872.15258	20066.3875
1875.29308	20040.9875
1878.43152	20010.3875
1881.56792	20020.0875
1884.70227	19994.5875
1887.83457	20007.0875
1890.96482	19961.4875
1894.09304	19974.3875
1897.21921	19913.7875
1900.34335	19859.1875
1903.46544	19851.8875
1906.58551	19807.2875
1909.70353	19803.1875
1912.81953	19742.0875
1915.93349	19761.7875
1919.04543	19690.0875
1922.15534	19649.8875
1925.26322	19583.5875
1928.36908	19570.2875
1931.47292	19556.6875
1934.57473	19498.0875
1937.67453	19410.5875
1940.77232	19390.7875
1943.86808	19331.0875
1946.96184	19269.1875
1950.05358	19200.4875
1953.14331	19149.4875
1956.23103	19108.5875
1959.31675	19087.0875
1962.40046	19013.4875
1965.48217	18930.0875
1968.56188	18861.1875
1971.63959	18814.8875
1974.7153	18788.6875
1977.78901	18735.3875
1980.86073	18639.1875
1983.93046	18611.0875
1986.99819	18557.8875
1990.06394	18520.6875
1993.1277	18476.1875
1996.18947	18408.7875
1999.24925	18324.3875
2002.30706	18284.9875
2005.36288	18235.3875
2008.41672	18179.6875
2011.46859	18135.6875
2014.51848	18125.8875
2017.56639	18087.0875
2020.61233	17962.5875
2023.6563	18005.9875
2026.6983	17983.2875
2029.73833	17939.9875
2032.7764	17893.8875
2035.8125	17842.9875
2038.84664	17798.8875
2041.87881	17788.1875
2044.90903	17768.6875
2047.93729	17760.0875
2050.96359	17735.3875
2053.98794	17676.5875
2057.01034	17733.0875
2060.03078	17659.9875
2063.04927	17649.2875
2066.06582	17632.2875
2069.08042	17605.0875
2072.09307	17602.7875
2075.10378	17581.4875
2078.11255	17559.9875
2081.11938	17572.1875
2084.12426	17548.4875
2087.12722	17589.1875
2090.12824	17533.6875
2093.12732	17523.7875
2096.12447	17552.8875
2099.11969	17556.5875
2102.11299	17541.4875
2105.10435	17567.1875
2108.09379	17526.8875
2111.08131	17559.9875
2114.0669	17540.3875
2117.05057	17546.4875
2120.03233	17603.7875
2123.01216	17596.6875
2125.99008	17640.1875
2128.96609	17614.3875
2131.94018	17655.0875
2134.91236	17662.4875
2137.88263	17620.2875
2140.851	17651.4875
2143.81746	17645.0875
2146.78201	17650.5875
2149.74466	17648.0875
2152.7054	17658.2875
2155.66425	17630.2875
2158.6212	17631.6875
2161.57625	17638.1875
2164.52941	17622.4875
2167.48067	17629.6875
2170.43004	17594.0875
2173.37752	17616.0875
2176.32311	17598.7875
2179.26681	17589.5875
2182.20863	17611.0875
2185.14856	17625.8875
2188.08661	17611.6875
2191.02278	17611.0875
2193.95707	17638.2875
2196.88948	17586.1875
2199.82001	17581.9875
2202.74867	17515.0875
2205.67545	17528.4875
2208.60037	17512.4875
2211.52341	17500.4875
2214.44458	17474.8875
2217.36388	17443.7875
2220.28132	17391.2875
2223.1969	17361.9875
2226.11061	17342.5875
2229.02246	17366.1875
2231.93245	17314.0875
2234.84058	17301.6875
2237.74686	17262.7875
2240.65128	17312.1875
2243.55385	17212.3875
2246.45456	17201.6875
2249.35343	17169.6875
2252.25044	17140.3875
2255.14561	17145.0875
2258.03893	17118.7875
2260.93041	17031.8875
2263.82004	17004.1875
2266.70783	16928.7875
2269.59378	16853.9875
2272.4779	16803.5875
2275.36017	16801.8875
2278.24061	16770.2875
2281.11922	16773.0875
2283.996	16723.2875
2286.87094	16756.8875
2289.74405	16721.6875
2292.61534	16699.2875
2295.4848	16713.2875
2298.35243	16687.8875
2301.21824	16706.7875
2304.08223	16709.1875
2306.94439	16703.2875
2309.80474	16688.2875
2312.66327	16718.4875
2315.51999	16687.3875
2318.37489	16660.1875
2321.22797	16656.0875
2324.07925	16615.5875
2326.92871	16609.9875
2329.77637	16617.7875
2332.62222	16589.3875
2335.46626	16589.0875
2338.3085	16579.3875
2341.14893	16597.5875
2343.98756	16586.8875
2346.8244	16578.7875
2349.65943	16577.3875
2352.49267	16544.1875
2355.32411	16556.6875
2358.15376	16572.3875
2360.98161	16563.2875
2363.80768	16538.4875
2366.63195	16502.7875
2369.45444	16486.2875
2372.27514	16465.4875
2375.09405	16442.9875
2377.91118	16399.6875
2380.72652	16372.8875
2383.54009	16327.1875
2386.35187	16350.4875
2389.16188	16307.4875
2391.97011	16252.8875
2394.77657	16246.4875
2397.58125	16233.9875
2400.38416	16237.2875
2403.18529	16204.1875
2405.98466	16169.7875
2408.78226	16107.4875
2411.57809	16140.5875
2414.37216	16111.3875
2417.16446	16080.8875
2419.955	16071.7875
2422.74378	16074.2875
2425.5308	16045.2875
2428.31606	16064.5875
2431.09956	16031.0875
2433.88131	16030.5875
2436.6613	16033.0875
2439.43954	16054.4875
2442.21603	16046.2875
2444.99077	16018.2875
2447.76377	16009.4875
2450.53501	15999.8875
2453.30451	16000.0875
2456.07226	15975.9875
2458.83827	16011.2875
2461.60254	16010.7875
2464.36507	15986.5875
2467.12586	15978.0875
2469.88492	15976.6875
2472.64224	15996.9875
2475.39782	15993.9875
2478.15167	16005.7875
2480.90379	16052.4875
2483.65417	16056.9875
2486.40283	16057.9875
2489.14976	16021.9875
2491.89497	16018.9875
2494.63845	16061.1875
2497.3802	16045.8875
2500.12024	16023.3875
2502.85855	16022.5875
2505.59514	15990.4875
2508.33002	15990.3875
2511.06318	15983.8875
2513.79462	15975.8875
2516.52435	15994.1875
2519.25237	15976.7875
2521.97867	15973.9875
2524.70327	15972.8875
2527.42616	15961.8875
2530.14734	15939.6875
2532.86681	15930.8875
2535.58458	15957.6875
2538.30065	15921.3875
2541.01501	15953.8875
2543.72768	15928.6875
2546.43864	15926.5875
2549.14791	15929.6875
2551.85548	15927.4875
2554.56136	15898.5875
2557.26554	15884.3875
2559.96803	15848.6875
2562.66883	15865.2875
2565.36794	15846.8875
2568.06536	15772.6875
2570.7611	15803.1875
2573.45514	15789.8875
2576.14751	15786.7875
2578.83819	15788.4875
2581.52719	15792.0875
2584.21451	15774.6875
2586.90015	15764.7875
2589.58411	15736.4875
2592.2664	15758.7875
2594.94701	15731.6875
2597.62594	15752.3875
2600.30321	15728.0875
2602.9788	15730.8875
2605.65273	15715.1875
2608.32498	15727.5875
2610.99557	15749.1875
2613.66449	15771.9875
2616.33175	15738.9875
2618.99734	15759.2875
2621.66128	15758.3875
2624.32355	15715.8875
2626.98416	15696.4875
2629.64311	15691.0875
2632.30041	15643.7875
2634.95605	15639.7875
2637.61004	15640.1875
2640.26238	15650.4875
2642.91306	15608.9875
2645.56209	15645.4875
2648.20948	15678.6875
2650.85521	15642.9875
2653.4993	15661.4875
2656.14175	15678.0875
2658.78255	15704.3875
2661.42171	15673.4875
2664.05923	15743.9875
2666.6951	15763.3875
2669.32934	15754.7875
2671.96194	15759.3875
2674.59291	15758.6875
2677.22224	15746.3875
2679.84993	15758.9875
2682.476	15745.1875
2685.10043	15733.8875
2687.72324	15730.4875
2690.34441	15692.2875
2692.96396	15724.8875
2695.58188	15727.2875
2698.19818	15697.3875
2700.81285	15739.1875
2703.4259	15780.5875
2706.03733	15825.1875
2708.64714	15773.1875
2711.25533	15821.0875
2713.86191	15786.3875
2716.46687	15814.9875
2719.07021	15825.6875
2721.67194	15824.1875
2724.27206	15834.0875
2726.87057	15841.6875
2729.46747	15862.7875
2732.06276	15885.5875
2734.65644	15862.5875
2737.24852	15887.5875
2739.83899	15876.6875
2742.42786	15863.2875
2745.01513	15819.3875
2747.60079	15822.3875
2750.18486	15817.5875
2752.76733	15829.9875
2755.3482	15823.1875
2757.92747	15800.6875
2760.50515	15807.9875
2763.08123	15787.8875
2765.65573	15764.8875
2768.22863	15809.1875
2770.79994	15800.2875
2773.36967	15788.6875
2775.9378	15826.0875
2778.50435	15825.7875
2781.06932	15787.8875
2783.6327	15799.2875
2786.1945	15823.1875
2788.75471	15796.0875
2791.31335	15738.7875
2793.87041	15718.0875
2796.42589	15717.3875
2798.97979	15698.2875
2801.53212	15654.4875
2804.08288	15685.8875
2806.63206	15635.2875
2809.17967	15606.0875
2811.72571	15578.6875
2814.27018	15570.1875
2816.81308	15500.8875
2819.35442	15458.4875
2821.89419	15426.6875
2824.43239	15412.2875
2826.96904	15391.8875
2829.50412	15418.5875
2832.03763	15363.8875
2834.56959	15349.4875
2837.1	15321.4875
2839.62884	15383.6875
2842.15613	15332.9875
2844.68186	15375.1875
2847.20604	15375.8875
2849.72867	15368.7875
2852.24974	15373.9875
2854.76927	15349.9875
2857.28724	15298.8875
2859.80367	15274.9875
2862.31855	15277.4875
2864.83189	15253.4875
2867.34368	15209.1875
2869.85393	15249.4875
2872.36264	15219.1875
2874.8698	15241.9875
2877.37543	15200.8875
2879.87952	15207.2875
2882.38207	15226.5875
2884.88308	15199.2875
2887.38256	15239.7875
2889.88051	15198.1875
2892.37692	15233.6875
2894.8718	15235.6875
2897.36515	15286.6875
2899.85698	15267.5875
2902.34727	15316.0875
2904.83604	15309.0875
2907.32328	15336.1875
2909.809	15312.7875
2912.29319	15333.3875
2914.77587	15313.8875
2917.25702	15312.7875
2919.73665	15310.1875
2922.21476	15307.9875
2924.69136	15278.3875
2927.16644	15309.6875
2929.64	15260.4875
2932.11205	15245.2875
2934.58258	15215.7875
2937.05161	15258.4875
2939.51912	15209.9875
2941.98513	15243.1875
2944.44962	15189.0875
2946.91261	15123.6875
2949.37409	15187.8875
2951.83407	15162.8875
2954.29254	15115.4875
2956.74951	15127.2875
2959.20498	15126.5875
2961.65895	15119.2875
2964.11142	15109.3875
2966.56239	15102.3875
2969.01186	15075.3875
2971.45984	15075.1875
2973.90632	15073.7875
2976.35131	15009.3875
2978.7948	14982.5875
2981.23681	14904.5875
2983.67732	14892.1875
2986.11635	14852.6875
2988.55388	14798.1875
2990.98993	14796.2875
2993.4245	14750.0875
2995.85758	14729.2875
2998.28917	14697.6875
3000.71928	14669.4875
3003.14791	14641.8875
3005.57506	14656.0875
3008.00073	14583.5875
3010.42493	14430.1875
3012.84764	14485.4875
3015.26888	14480.2875
3017.68865	14441.8875
3020.10694	14417.6875
3022.52376	14398.2875
3024.9391	14338.8875
3027.35298	14357.7875
3029.76539	14355.6875
3032.17632	14374.3875
3034.5858	14343.0875
3036.9938	14349.9875
3039.40034	14343.5875
3041.80542	14339.7875
3044.20903	14315.7875
3046.61118	14306.1875
3049.01187	14278.9875
3051.4111	14261.8875
3053.80888	14212.6875
3056.20519	14186.9875
3058.60005	14162.6875
3060.99345	14133.0875
3063.3854	14075.5875
3065.7759	14050.0875
3068.16494	13992.2875
3070.55254	13955.0875
3072.93868	13933.3875
3075.32338	13834.4875
3077.70662	13844.6875
3080.08842	13797.2875
3082.46878	13780.4875
3084.84769	13774.6875
3087.22515	13779.5875
3089.60118	13774.3875
3091.97576	13782.8875
3094.3489	13738.4875
3096.72061	13753.6875
3099.09087	13742.1875
3101.4597	13717.1875
3103.82709	13721.8875
3106.19305	13663.0875
3108.55757	13683.4875
3110.92066	13622.6875
3113.28232	13648.0875
3115.64255	13585.9875
3118.00134	13542.9875
3120.35871	13534.1875
3122.71466	13491.6875
3125.06917	13457.6875
3127.42226	13458.1875
3129.77393	13456.7875
3132.12417	13395.2875
3134.47299	13396.1875
3136.82039	13354.0875
3139.16636	13391.6875
3141.51092	13388.5875
3143.85406	13388.9875
3146.19579	13329.0875
3148.53609	13349.1875
3150.87499	13325.1875
3153.21246	13306.8875
3155.54853	13334.5875
3157.88318	13345.9875
3160.21642	13355.3875
3162.54826	13355.5875
3164.87868	13319.6875
3167.2077	13342.4875
3169.5353	13367.1875
3171.86151	13347.0875
3174.18631	13307.6875
3176.5097	13322.4875
3178.83169	13278.4875
3181.15228	13305.5875
3183.47147	13255.1875
3185.78926	13253.2875
3188.10565	13222.2875
3190.42065	13190.8875
3192.73424	13172.9875
3195.04645	13185.1875
3197.35725	13169.8875
3199.66667	13174.3875
3201.97469	13188.8875
3204.28132	13150.0875
3206.58656	13167.2875
3208.8904	13154.5875
3211.19287	13178.5875
3213.49394	13130.8875
3215.79363	13168.8875
3218.09193	13172.6875
3220.38884	13160.4875
3222.68438	13171.9875
3224.97853	13135.0875
3227.2713	13172.3875
3229.56269	13123.2875
3231.8527	13122.5875
3234.14133	13092.5875
3236.42858	13052.4875
3238.71446	13051.2875
3240.99896	13034.6875
3243.28209	13027.3875
3245.56384	12986.4875
3247.84423	12997.6875
3250.12324	12964.9875
3252.40088	12938.8875
3254.67715	12907.2875
3256.95205	12867.3875
3259.22558	12875.8875
3261.49775	12839.3875
3263.76855	12856.5875
3266.03799	12838.6875
3268.30606	12812.5875
3270.57277	12778.8875
3272.83812	12738.3875
3275.10211	12729.7875
3277.36474	12685.0875
3279.62601	12707.2875
3281.88593	12691.2875
3284.14448	12691.5875
3286.40168	12672.6875
3288.65753	12721.4875
3290.91202	12680.2875
3293.16516	12672.1875
3295.41695	12643.3875
3297.66738	12573.7875
3299.91647	12518.8875
3302.16421	12440.3875
3304.4106	12321.9875
3306.65564	12260.2875
3308.89933	12170.4875
3311.14169	12077.1875
3313.38269	11959.0875
3315.62236	11870.2875
3317.86068	11803.6875
3320.09766	11681.6875
3322.3333	11634.0875
3324.5676	11560.8875
3326.80056	11394.3875
3329.03219	11326.0875
3331.26248	4.6875
3333.49143	-0.2125
3335.71905	-0.0125
