Data from AgNP_FTO_APTES_UA_10uM_CRN_20uM_R6G_10uM_NaF_0.1M_Addition_RamanShift__11__16-15-40-745.txt Node

Date: Thu Feb 10 16:15:40 GMT 2022
User: TCL
Spectrometer: QEP01345
Trigger mode: 4
Integration Time (sec): 7.000000E0
Scans to average: 10
Electric dark correction enabled: true
Nonlinearity correction enabled: false
Boxcar width: 0
XAxis mode: Raman Shifts
Number of Pixels in Spectrum: 1044
>>>>>Begin Spectral Data<<<<<
46.04893	0.5
50.45542	-0.9
54.85868	-0.6
59.25871	-1.1
63.6555	65
68.04907	67.3
72.43941	71.1
76.82654	72.5
81.21044	80.4
85.59113	75.1
89.96862	80.4
94.34289	86.4
98.71396	85.1
103.08183	91
107.4465	96.3
111.80798	92
116.16626	98.8
120.52136	103.5
124.87327	105.9
129.222	111
133.56755	118.4
137.90993	126.8
142.24913	137.1
146.58517	154.1
150.91804	182.9
155.24774	216.2
159.57429	271.7
163.89768	342.3
168.21792	458.6
172.53501	623.8
176.84895	868.4
181.15975	1226.2
185.46741	1720.1
189.77193	2371.5
194.07331	3169.9
198.37157	4093.4
202.6667	5045.6
206.9587	6012.6
211.24758	6953.4
215.53334	7873.8
219.81599	8837.9
224.09553	9880.3
228.37195	11071.4
232.64527	12344.3
236.91549	13727.8
241.18261	15093
245.44663	16381.1
249.70755	17621.4
253.96539	18703.1
258.22014	19560.9
262.4718	20285.1
266.72039	20798.1
270.96589	21061.4
275.20832	21177.9
279.44768	21118.1
283.68397	21008.3
287.91719	20884.3
292.14735	20773.7
296.37445	20766.2
300.59849	20814.9
304.81948	20887.3
309.03742	20842.1
313.25231	20669.8
317.46415	20341.1
321.67296	19925.8
325.87872	19540.2
330.08145	19398.3
334.28114	19376.3
338.47781	19510.6
342.67145	19674.9
346.86207	19949.7
351.04966	20183
355.23424	20434.2
359.4158	20647.3
363.59435	20799.4
367.76989	20950.8
371.94243	21066.2
376.11196	21133.7
380.27849	21167.3
384.44203	21254.9
388.60257	21356.3
392.76012	21640.1
396.91468	21964.6
401.06626	22297.8
405.21485	22516.8
409.36047	22488.3
413.50311	22257.9
417.64277	22122.6
421.77947	22182.7
425.9132	22305.8
430.04396	22461.8
434.17176	22549.5
438.2966	22672.6
442.41849	22915.2
446.53742	23280.8
450.6534	23743.1
454.76644	24043.7
458.87653	24273.1
462.98368	24313.7
467.08789	24219.3
471.18916	24063.9
475.2875	23869.2
479.38291	23792.3
483.4754	23673.6
487.56496	23524.1
491.6516	23234.8
495.73531	22910.6
499.81612	22689.1
503.89401	22696.3
507.96899	22806
512.04106	22844.9
516.11023	22776.1
520.1765	22596.5
524.23987	22360.8
528.30034	22162.7
532.35792	21967.5
536.41261	21782.2
540.46441	21677.4
544.51333	21721.2
548.55936	21955.2
552.60252	22331
556.64279	22731.7
560.6802	23058.2
564.71473	23305.6
568.7464	23777.2
572.7752	24552.3
576.80114	25479.5
580.82422	26311.8
584.84444	26838.7
588.86181	27230.8
592.87633	27595.9
596.888	27353.3
600.89682	26623.8
604.9028	26335.5
608.90594	27188.2
612.90624	27946.1
616.90371	26272.2
620.89834	23509
624.89015	22430.9
628.87913	22366.9
632.86528	22650.1
636.84862	22695
640.82913	22355.4
644.80683	21888.8
648.78172	21606.8
652.75379	21484
656.72306	21642.1
660.68952	21869.3
664.65319	21805.4
668.61405	21633.4
672.57211	21622.6
676.52738	21684.8
680.47986	21650.8
684.42955	21555.7
688.37646	21533.1
692.32058	21613.2
696.26192	21816.6
700.20048	22045.3
704.13626	22204.4
708.06928	22345.4
711.99952	22289
715.927	22219.8
719.85171	22164.4
723.77365	22011.5
727.69284	21743.9
731.60928	21471.7
735.52295	21328.2
739.43388	21261.9
743.34206	21327.6
747.24749	21401.4
751.15017	21642.4
755.05012	21992
758.94733	22537.4
762.8418	23427.8
766.73354	24629.1
770.62254	25659.2
774.50882	25682.2
778.39237	24697.8
782.27321	23451.4
786.15132	22489.5
790.02671	21855.5
793.89938	21472.8
797.76935	21315.1
801.6366	21158.9
805.50115	21118.9
809.36299	20980.1
813.22213	20932.2
817.07857	20932.3
820.93231	20947.6
824.78336	20865
828.63172	20722.9
832.47738	20695.7
836.32036	20623.1
840.16066	20606.3
843.99827	20645.3
847.8332	20643.4
851.66546	20692.7
855.49504	20729.1
859.32195	20747.5
863.1462	20696.3
866.96777	20657.3
870.78668	20633.6
874.60293	20618.6
878.41652	20650.7
882.22745	20657.7
886.03573	20676.5
889.84136	20689.5
893.64433	20612.1
897.44466	20615.4
901.24235	20573.4
905.0374	20507.2
908.8298	20559.7
912.61957	20625
916.40671	20850.9
920.19121	21097.2
923.97308	21266.2
927.75233	21167.8
931.52895	20876.7
935.30295	20602.3
939.07433	20270.8
942.84309	20067.3
946.60924	19937
950.37278	19882.6
954.13371	19902
957.89203	19895.8
961.64774	19874.9
965.40086	19888.6
969.15137	19838.8
972.89929	19787
976.64461	19675.2
980.38733	19658.4
984.12747	19642.8
987.86502	19701.7
991.59999	19772.8
995.33237	19880.7
999.06217	20080.6
1002.78939	20351.6
1006.51404	20605.9
1010.23611	20890.7
1013.95561	21091.8
1017.67255	21138.6
1021.38692	20980
1025.09872	20781.5
1028.80796	20538.9
1032.51465	20459.9
1036.21877	20504.9
1039.92035	20549.4
1043.61937	20687.2
1047.31584	20757.2
1051.00976	20819
1054.70114	20960.7
1058.38998	21112.5
1062.07627	21408.4
1065.76003	21700.1
1069.44126	21953.2
1073.11995	22208
1076.79611	22438.2
1080.46974	22517.6
1084.14085	22610.8
1087.80943	22783.6
1091.47549	22990.5
1095.13903	23047.5
1098.80005	22858.6
1102.45857	22384.9
1106.11456	21954.8
1109.76805	21706.8
1113.41903	21611.3
1117.06751	21675.9
1120.71348	21799.9
1124.35696	22009.1
1127.99793	22161.4
1131.63641	22296.2
1135.2724	22320
1138.90589	22345.8
1142.5369	22390.9
1146.16542	22523.2
1149.79145	22735.6
1153.415	23017.6
1157.03607	23310.9
1160.65467	23835.6
1164.27079	24610.2
1167.88443	25632.4
1171.49561	26703.3
1175.10432	27896.9
1178.71056	29410.6
1182.31434	30828.5
1185.91565	31760.9
1189.51451	32114
1193.11091	31952.6
1196.70485	31302.2
1200.29634	30334
1203.88538	29600.9
1207.47197	29262.2
1211.05612	29032.8
1214.63782	28665.5
1218.21708	27894.1
1221.79391	26988.7
1225.36829	26298.4
1228.94024	25847.8
1232.50976	25651.1
1236.07685	25539
1239.6415	25517.5
1243.20374	25564.5
1246.76355	25723.5
1250.32093	25960.8
1253.8759	26435.2
1257.42845	27044.9
1260.97859	27696.2
1264.52631	28407.6
1268.07163	29104.2
1271.61453	29739.4
1275.15503	30316.1
1278.69312	31047.5
1282.22882	31737.7
1285.76211	32588.6
1289.29301	33607.4
1292.82151	34817.9
1296.34761	36352.1
1299.87133	37891.6
1303.39266	39364.3
1306.9116	40576.6
1310.42815	41280.8
1313.94233	41525.3
1317.45412	41385.2
1320.96354	41294.6
1324.47058	41392.8
1327.97525	41644
1331.47754	41953.1
1334.97747	42268.5
1338.47502	42543.7
1341.97022	42767.8
1345.46305	42812.2
1348.95352	42413.4
1352.44163	41800.9
1355.92738	41181.3
1359.41078	41000.9
1362.89183	40835.2
1366.37053	39823.2
1369.84688	37677.9
1373.32088	35047.1
1376.79254	33138.9
1380.26186	32457.9
1383.72883	32541.6
1387.19347	32670.8
1390.65578	32593.9
1394.11575	32443.5
1397.57339	32473.4
1401.0287	32645.4
1404.48168	32730.6
1407.93234	32447.3
1411.38068	31792.8
1414.82669	30731.8
1418.27039	29599.4
1421.71177	28577.6
1425.15083	27760.7
1428.58758	27404.4
1432.02203	27616
1435.45416	28195.5
1438.88399	28904.1
1442.31151	29528.8
1445.73673	29886.8
1449.15965	30277.5
1452.58027	30594.4
1455.9986	30797.2
1459.41463	31067
1462.82837	31513.7
1466.23982	31938.5
1469.64898	32281.3
1473.05586	32435.5
1476.46045	32418.7
1479.86276	32199.9
1483.26279	31995.8
1486.66054	31873.1
1490.05602	31978.9
1493.44922	32217.9
1496.84016	32767.3
1500.22882	33492.6
1503.61521	34373.1
1506.99934	35216.2
1510.38121	35779
1513.76081	35922
1517.13816	35586.2
1520.51324	35179.4
1523.88607	34994.8
1527.25665	34989.4
1530.62498	34986.9
1533.99105	34780.7
1537.35488	34266.3
1540.71647	33402.8
1544.07581	32451.1
1547.4329	31518.5
1550.78776	30744.4
1554.14038	30344.1
1557.49077	30038.3
1560.83892	29893.3
1564.18484	29826.7
1567.52853	29860.2
1570.86999	30014.4
1574.20922	30522.5
1577.54624	31036.2
1580.88103	31264.2
1584.2136	31482.7
1587.54395	32043.4
1590.87208	33053
1594.19801	34210.4
1597.52172	35224.7
1600.84321	35208.1
1604.16251	33857.9
1607.47959	31957.3
1610.79447	29978
1614.10715	28043.5
1617.41763	26394
1620.7259	25106.1
1624.03199	24392
1627.33587	24312.3
1630.63757	24812.6
1633.93707	26081.8
1637.23439	28209.9
1640.52951	31268.5
1643.82246	34825.5
1647.11321	37583.2
1650.40179	38163.5
1653.68819	36034
1656.97241	32145
1660.25446	28196.2
1663.53433	25060.1
1666.81203	22846
1670.08756	21418.3
1673.36092	20537
1676.63211	19967.2
1679.90115	19612.1
1683.16801	19235.6
1686.43272	19047.8
1689.69527	18878.6
1692.95567	18742.9
1696.2139	18685.1
1699.46999	18602.2
1702.72392	18507.5
1705.97571	18426.3
1709.22535	18354.1
1712.47284	18285.8
1715.71819	18270.6
1718.96139	18202.1
1722.20246	18184
1725.44139	18058.2
1728.67818	18001.1
1731.91284	17861.4
1735.14537	17771
1738.37576	17725.1
1741.60403	17640.9
1744.83017	17592.6
1748.05418	17536
1751.27607	17505.8
1754.49584	17454.6
1757.71349	17441.5
1760.92903	17440.8
1764.14244	17416.3
1767.35375	17427.9
1770.56294	17333.1
1773.77002	17347.1
1776.97499	17284.4
1780.17785	17241.9
1783.37861	17209.6
1786.57727	17171.2
1789.77382	17116.3
1792.96828	17082.5
1796.16064	17031.4
1799.3509	17032.9
1802.53907	17030.1
1805.72514	16956.2
1808.90913	16923
1812.09102	16900.7
1815.27083	16805.2
1818.44856	16806.9
1821.6242	16801.5
1824.79776	16743.2
1827.96924	16759.4
1831.13864	16708.6
1834.30597	16718.5
1837.47122	16740.9
1840.6344	16733.6
1843.7955	16739.1
1846.95454	16696.7
1850.11151	16710.7
1853.26642	16660.6
1856.41926	16662.9
1859.57004	16615.2
1862.71876	16595.8
1865.86542	16553.7
1869.01003	16533.6
1872.15258	16508.4
1875.29308	16519
1878.43152	16469.3
1881.56792	16475.4
1884.70227	16415.7
1887.83457	16418
1890.96482	16380.1
1894.09304	16337.8
1897.21921	16320.5
1900.34335	16312
1903.46544	16281
1906.58551	16240.6
1909.70353	16218.9
1912.81953	16177.1
1915.93349	16179.4
1919.04543	16130.6
1922.15534	16097.8
1925.26322	16062.3
1928.36908	16053.7
1931.47292	16012.4
1934.57473	15954.8
1937.67453	15939.3
1940.77232	15895.2
1943.86808	15843.7
1946.96184	15806.6
1950.05358	15759.3
1953.14331	15674.7
1956.23103	15635.4
1959.31675	15608.6
1962.40046	15546.2
1965.48217	15532.4
1968.56188	15435.2
1971.63959	15406.3
1974.7153	15347.9
1977.78901	15314.6
1980.86073	15256.5
1983.93046	15216.1
1986.99819	15171.5
1990.06394	15132.3
1993.1277	15075.8
1996.18947	15044.7
1999.24925	14982.5
2002.30706	14951.6
2005.36288	14902.3
2008.41672	14844.5
2011.46859	14786
2014.51848	14772.7
2017.56639	14747
2020.61233	14683.3
2023.6563	14638.6
2026.6983	14582.1
2029.73833	14560.9
2032.7764	14532.9
2035.8125	14513.9
2038.84664	14437
2041.87881	14431.3
2044.90903	14396.2
2047.93729	14345.1
2050.96359	14349
2053.98794	14296.2
2057.01034	14303.5
2060.03078	14287
2063.04927	14241.9
2066.06582	14245.5
2069.08042	14284.5
2072.09307	14238.6
2075.10378	14239.2
2078.11255	14238.2
2081.11938	14229.1
2084.12426	14196.4
2087.12722	14229
2090.12824	14187.4
2093.12732	14174
2096.12447	14177.7
2099.11969	14177
2102.11299	14175.1
2105.10435	14169.3
2108.09379	14190.8
2111.08131	14186.4
2114.0669	14194.8
2117.05057	14184.2
2120.03233	14185
2123.01216	14210.9
2125.99008	14214.5
2128.96609	14220.8
2131.94018	14246.8
2134.91236	14237
2137.88263	14280.1
2140.851	14226.5
2143.81746	14239.3
2146.78201	14230.6
2149.74466	14207.8
2152.7054	14213.2
2155.66425	14222.2
2158.6212	14230.1
2161.57625	14239.6
2164.52941	14223.3
2167.48067	14192.8
2170.43004	14187.9
2173.37752	14192.3
2176.32311	14193.9
2179.26681	14187.1
2182.20863	14193.2
2185.14856	14170.8
2188.08661	14140.8
2191.02278	14159.9
2193.95707	14140.1
2196.88948	14147.3
2199.82001	14107.2
2202.74867	14091.8
2205.67545	14099.9
2208.60037	14038.6
2211.52341	14028
2214.44458	14012.7
2217.36388	13967.7
2220.28132	13965.3
2223.1969	13931.9
2226.11061	13909.5
2229.02246	13877.8
2231.93245	13843.1
2234.84058	13803.3
2237.74686	13822.4
2240.65128	13800.9
2243.55385	13763.2
2246.45456	13714.5
2249.35343	13702.2
2252.25044	13692.6
2255.14561	13680.3
2258.03893	13638.8
2260.93041	13603.7
2263.82004	13550.4
2266.70783	13525.4
2269.59378	13481.4
2272.4779	13457.6
2275.36017	13439.9
2278.24061	13399.8
2281.11922	13353.4
2283.996	13357.8
2286.87094	13328.1
2289.74405	13324.4
2292.61534	13274
2295.4848	13269
2298.35243	13278.1
2301.21824	13246.9
2304.08223	13254.9
2306.94439	13231
2309.80474	13232.1
2312.66327	13227.6
2315.51999	13203.1
2318.37489	13201.2
2321.22797	13146.3
2324.07925	13172.3
2326.92871	13103.5
2329.77637	13063.3
2332.62222	13047.6
2335.46626	13058.2
2338.3085	13013.9
2341.14893	13008.3
2343.98756	12996.5
2346.8244	13026.2
2349.65943	13003.4
2352.49267	12987.1
2355.32411	12990.6
2358.15376	12998.8
2360.98161	13023.5
2363.80768	13022.8
2366.63195	12988.7
2369.45444	12980.7
2372.27514	12969.7
2375.09405	12936.8
2377.91118	12923.5
2380.72652	12887.1
2383.54009	12873.1
2386.35187	12826.8
2389.16188	12758.4
2391.97011	12770.3
2394.77657	12737.2
2397.58125	12722.6
2400.38416	12699.8
2403.18529	12664.6
2405.98466	12651.1
2408.78226	12663.6
2411.57809	12620.6
2414.37216	12615.4
2417.16446	12622.9
2419.955	12625.4
2422.74378	12586.9
2425.5308	12562.1
2428.31606	12571.4
2431.09956	12549.3
2433.88131	12545.5
2436.6613	12553.9
2439.43954	12538.2
2442.21603	12529.5
2444.99077	12522.1
2447.76377	12500
2450.53501	12486.2
2453.30451	12473.1
2456.07226	12446.4
2458.83827	12468.4
2461.60254	12449.2
2464.36507	12413.6
2467.12586	12402.9
2469.88492	12386.2
2472.64224	12370.9
2475.39782	12406.3
2478.15167	12395.3
2480.90379	12388.3
2483.65417	12379.4
2486.40283	12403.8
2489.14976	12421.8
2491.89497	12381.9
2494.63845	12385.3
2497.3802	12365.5
2500.12024	12342.9
2502.85855	12357.9
2505.59514	12339
2508.33002	12313.4
2511.06318	12327.5
2513.79462	12322.4
2516.52435	12291
2519.25237	12259.6
2521.97867	12275.2
2524.70327	12253.7
2527.42616	12238.2
2530.14734	12268
2532.86681	12210.5
2535.58458	12240.9
2538.30065	12207.3
2541.01501	12203.9
2543.72768	12180
2546.43864	12164.3
2549.14791	12179.8
2551.85548	12151.1
2554.56136	12123.2
2557.26554	12116.9
2559.96803	12077.7
2562.66883	12061.3
2565.36794	12039.9
2568.06536	12018.1
2570.7611	12007
2573.45514	12020.5
2576.14751	11967.7
2578.83819	11963.7
2581.52719	11948
2584.21451	11932.5
2586.90015	11928
2589.58411	11915.7
2592.2664	11901.8
2594.94701	11842.4
2597.62594	11877.5
2600.30321	11830.1
2602.9788	11815
2605.65273	11822.1
2608.32498	11836.1
2610.99557	11808.4
2613.66449	11806.6
2616.33175	11799.9
2618.99734	11778.9
2621.66128	11780.4
2624.32355	11763.6
2626.98416	11739.1
2629.64311	11741.7
2632.30041	11720.9
2634.95605	11693.6
2637.61004	11696.8
2640.26238	11671.2
2642.91306	11674.3
2645.56209	11659.2
2648.20948	11644.9
2650.85521	11648.7
2653.4993	11659.5
2656.14175	11677.7
2658.78255	11649.2
2661.42171	11681.3
2664.05923	11683.7
2666.6951	11695.2
2669.32934	11694.9
2671.96194	11694.9
2674.59291	11697.8
2677.22224	11701.4
2679.84993	11682
2682.476	11695.5
2685.10043	11699.8
2687.72324	11677.9
2690.34441	11647.6
2692.96396	11684.8
2695.58188	11683.2
2698.19818	11645.7
2700.81285	11680.1
2703.4259	11688.6
2706.03733	11668.6
2708.64714	11681.3
2711.25533	11677.2
2713.86191	11674.2
2716.46687	11672.5
2719.07021	11688.4
2721.67194	11702.6
2724.27206	11708.5
2726.87057	11704.5
2729.46747	11707.7
2732.06276	11726.1
2734.65644	11705.5
2737.24852	11701.1
2739.83899	11689.2
2742.42786	11702.2
2745.01513	11704.3
2747.60079	11688.1
2750.18486	11626.5
2752.76733	11622.1
2755.3482	11624.7
2757.92747	11607.1
2760.50515	11586.6
2763.08123	11585.1
2765.65573	11546.1
2768.22863	11559.1
2770.79994	11543.9
2773.36967	11555.4
2775.9378	11529.7
2778.50435	11548.2
2781.06932	11541.1
2783.6327	11541.8
2786.1945	11518.7
2788.75471	11516.9
2791.31335	11505.8
2793.87041	11469.3
2796.42589	11444.9
2798.97979	11441
2801.53212	11426.5
2804.08288	11437.6
2806.63206	11376.4
2809.17967	11351.4
2811.72571	11329.5
2814.27018	11305.6
2816.81308	11289.4
2819.35442	11250
2821.89419	11222.2
2824.43239	11198.2
2826.96904	11206.9
2829.50412	11186.9
2832.03763	11175.2
2834.56959	11173.9
2837.1	11168.4
2839.62884	11143
2842.15613	11173.5
2844.68186	11149.7
2847.20604	11130.5
2849.72867	11152.9
2852.24974	11135.6
2854.76927	11110.4
2857.28724	11118.5
2859.80367	11058.7
2862.31855	11066.7
2864.83189	11042.1
2867.34368	11011.4
2869.85393	11013.5
2872.36264	10988.9
2874.8698	10985
2877.37543	10977.4
2879.87952	10972.6
2882.38207	10971.4
2884.88308	10956.1
2887.38256	10974.8
2889.88051	10962.4
2892.37692	10953
2894.8718	10956.4
2897.36515	10986
2899.85698	10953.3
2902.34727	10988.9
2904.83604	10985.1
2907.32328	10986.4
2909.809	10999.9
2912.29319	10997.9
2914.77587	10994.6
2917.25702	11014.3
2919.73665	10964.3
2922.21476	10983.9
2924.69136	10952.1
2927.16644	10951.2
2929.64	10966.2
2932.11205	10919.3
2934.58258	10884.3
2937.05161	10914
2939.51912	10898.8
2941.98513	10871.4
2944.44962	10860.8
2946.91261	10846.6
2949.37409	10861.7
2951.83407	10851.4
2954.29254	10850.4
2956.74951	10797.4
2959.20498	10827.7
2961.65895	10807.6
2964.11142	10806.9
2966.56239	10806.2
2969.01186	10793.4
2971.45984	10771.9
2973.90632	10734.5
2976.35131	10733.3
2978.7948	10713
2981.23681	10694.4
2983.67732	10674.4
2986.11635	10654.2
2988.55388	10613.8
2990.98993	10599
2993.4245	10559.3
2995.85758	10542.2
2998.28917	10506.4
3000.71928	10491.8
3003.14791	10458.6
3005.57506	10461.5
3008.00073	10391.9
3010.42493	10256.8
3012.84764	10330.3
3015.26888	10335.4
3017.68865	10299.6
3020.10694	10297.2
3022.52376	10287
3024.9391	10266.7
3027.35298	10275.3
3029.76539	10269.6
3032.17632	10250.8
3034.5858	10244.2
3036.9938	10247.9
3039.40034	10249.6
3041.80542	10245.1
3044.20903	10211.4
3046.61118	10195.2
3049.01187	10161.1
3051.4111	10149.4
3053.80888	10113.4
3056.20519	10110
3058.60005	10057.5
3060.99345	10066.1
3063.3854	10037.4
3065.7759	10006.8
3068.16494	9970.2
3070.55254	9958.9
3072.93868	9935.6
3075.32338	9903.6
3077.70662	9861
3080.08842	9849.2
3082.46878	9838.9
3084.84769	9837.4
3087.22515	9823.5
3089.60118	9797.9
3091.97576	9819
3094.3489	9778.1
3096.72061	9796.7
3099.09087	9783.9
3101.4597	9786.8
3103.82709	9770.8
3106.19305	9753.3
3108.55757	9746.6
3110.92066	9702.1
3113.28232	9700
3115.64255	9695.1
3118.00134	9657.4
3120.35871	9626.6
3122.71466	9648.1
3125.06917	9594.2
3127.42226	9596.3
3129.77393	9577.9
3132.12417	9556.7
3134.47299	9560.6
3136.82039	9559.5
3139.16636	9549.6
3141.51092	9556.4
3143.85406	9543.3
3146.19579	9517.7
3148.53609	9538.3
3150.87499	9528
3153.21246	9501.3
3155.54853	9534
3157.88318	9534.7
3160.21642	9528.7
3162.54826	9529.3
3164.87868	9535.6
3167.2077	9553.2
3169.5353	9541
3171.86151	9562.2
3174.18631	9530.6
3176.5097	9531.3
3178.83169	9507.9
3181.15228	9488
3183.47147	9454
3185.78926	9456.4
3188.10565	9414.2
3190.42065	9432.8
3192.73424	9415.4
3195.04645	9393.2
3197.35725	9390.9
3199.66667	9394.4
3201.97469	9380.2
3204.28132	9364.8
3206.58656	9388
3208.8904	9378.5
3211.19287	9383.6
3213.49394	9362.3
3215.79363	9373.8
3218.09193	9375
3220.38884	9385.3
3222.68438	9398
3224.97853	9367.9
3227.2713	9345.8
3229.56269	9342.6
3231.8527	9337.9
3234.14133	9313.5
3236.42858	9294.6
3238.71446	9260.6
3240.99896	9248.8
3243.28209	9238.4
3245.56384	9243.3
3247.84423	9209.8
3250.12324	9211.5
3252.40088	9187.1
3254.67715	9175.6
3256.95205	9154.4
3259.22558	9187.9
3261.49775	9149.4
3263.76855	9147.6
3266.03799	9107.7
3268.30606	9093.2
3270.57277	9070.2
3272.83812	9074.6
3275.10211	9029.5
3277.36474	9034.4
3279.62601	9018.1
3281.88593	8977.1
3284.14448	8997
3286.40168	8974.9
3288.65753	8991.9
3290.91202	8987.5
3293.16516	8966.3
3295.41695	8925.1
3297.66738	8887.2
3299.91647	8870.3
3302.16421	8782
3304.4106	8735.7
3306.65564	8673.3
3308.89933	8605.7
3311.14169	8524.8
3313.38269	8449.3
3315.62236	8390.7
3317.86068	8342.5
3320.09766	8267.5
3322.3333	8197.1
3324.5676	8146
3326.80056	8046.8
3329.03219	7981.1
3331.26248	3.4
3333.49143	0.9
3335.71905	-2.1
