Data from AgNP_FTO_APTES_UA_10uM_CRN_50uM_R6G_10uM_NaF_0.1M_Addition_RamanShift__4__16-47-10-784.txt Node

Date: Thu Feb 10 16:47:10 GMT 2022
User: TCL
Spectrometer: QEP01345
Trigger mode: 4
Integration Time (sec): 7.000000E0
Scans to average: 10
Electric dark correction enabled: true
Nonlinearity correction enabled: false
Boxcar width: 0
XAxis mode: Raman Shifts
Number of Pixels in Spectrum: 1044
>>>>>Begin Spectral Data<<<<<
46.04893	-0.1625
50.45542	-0.6625
54.85868	-2.4625
59.25871	-0.3625
63.6555	65.5375
68.04907	69.0375
72.43941	72.6375
76.82654	69.5375
81.21044	81.2375
85.59113	79.1375
89.96862	82.7375
94.34289	91.0375
98.71396	90.9375
103.08183	95.8375
107.4465	99.3375
111.80798	96.8375
116.16626	98.8375
120.52136	104.8375
124.87327	110.9375
129.222	113.7375
133.56755	125.5375
137.90993	127.2375
142.24913	141.8375
146.58517	158.2375
150.91804	182.0375
155.24774	223.1375
159.57429	274.5375
163.89768	348.8375
168.21792	464.7375
172.53501	626.7375
176.84895	871.3375
181.15975	1229.1375
185.46741	1710.2375
189.77193	2383.8375
194.07331	3166.9375
198.37157	4064.4375
202.6667	5016.7375
206.9587	5959.3375
211.24758	6878.8375
215.53334	7804.3375
219.81599	8791.2375
224.09553	9868.3375
228.37195	11013.1375
232.64527	12352.5375
236.91549	13705.3375
241.18261	15046.1375
245.44663	16340.4375
249.70755	17499.4375
253.96539	18499.9375
258.22014	19373.3375
262.4718	20105.0375
266.72039	20659.8375
270.96589	20956.8375
275.20832	21006.6375
279.44768	20940.9375
283.68397	20816.2375
287.91719	20653.1375
292.14735	20555.1375
296.37445	20597.7375
300.59849	20689.8375
304.81948	20734.6375
309.03742	20700.7375
313.25231	20455.6375
317.46415	20045.7375
321.67296	19532.8375
325.87872	19182.5375
330.08145	19001.7375
334.28114	18953.2375
338.47781	19100.3375
342.67145	19267.4375
346.86207	19553.2375
351.04966	19847.9375
355.23424	20201.6375
359.4158	20506.4375
363.59435	20726.3375
367.76989	20931.3375
371.94243	21054.4375
376.11196	21131.5375
380.27849	21209.3375
384.44203	21357.3375
388.60257	21481.6375
392.76012	21719.4375
396.91468	22026.0375
401.06626	22320.8375
405.21485	22562.6375
409.36047	22454.5375
413.50311	22252.8375
417.64277	22109.7375
421.77947	22180.0375
425.9132	22274.1375
430.04396	22365.7375
434.17176	22473.3375
438.2966	22597.0375
442.41849	22913.1375
446.53742	23499.7375
450.6534	24145.6375
454.76644	24656.2375
458.87653	24844.4375
462.98368	24748.2375
467.08789	24494.3375
471.18916	24233.8375
475.2875	23993.7375
479.38291	23937.8375
483.4754	23868.7375
487.56496	23612.4375
491.6516	23154.5375
495.73531	22693.1375
499.81612	22392.6375
503.89401	22462.4375
507.96899	22563.0375
512.04106	22512.5375
516.11023	22349.7375
520.1765	22131.9375
524.23987	21838.4375
528.30034	21609.1375
532.35792	21441.9375
536.41261	21206.1375
540.46441	21062.5375
544.51333	21101.0375
548.55936	21398.3375
552.60252	21874.0375
556.64279	22389.5375
560.6802	22772.3375
564.71473	23060.0375
568.7464	23510.0375
572.7752	24256.8375
576.80114	24962.7375
580.82422	25567.2375
584.84444	26292.7375
588.86181	27065.2375
592.87633	27583.6375
596.888	27140.4375
600.89682	26227.3375
604.9028	26097.8375
608.90594	27471.5375
612.90624	28774.1375
616.90371	26947.8375
620.89834	23300.7375
624.89015	21824.0375
628.87913	21655.0375
632.86528	21744.4375
636.84862	21672.8375
640.82913	21328.6375
644.80683	20903.1375
648.78172	20587.5375
652.75379	20551.3375
656.72306	20766.5375
660.68952	21000.1375
664.65319	20865.8375
668.61405	20536.3375
672.57211	20519.1375
676.52738	20619.3375
680.47986	20587.2375
684.42955	20516.4375
688.37646	20460.6375
692.32058	20568.4375
696.26192	20852.2375
700.20048	21147.4375
704.13626	21298.7375
708.06928	21292.8375
711.99952	21232.1375
715.927	21214.0375
719.85171	21279.0375
723.77365	21188.9375
727.69284	20936.9375
731.60928	20650.6375
735.52295	20538.7375
739.43388	20521.6375
743.34206	20556.5375
747.24749	20694.8375
751.15017	20943.5375
755.05012	21339.4375
758.94733	21946.1375
762.8418	22910.4375
766.73354	24249.5375
770.62254	25360.0375
774.50882	25385.4375
778.39237	24300.0375
782.27321	22808.6375
786.15132	21666.8375
790.02671	20949.4375
793.89938	20620.5375
797.76935	20508.6375
801.6366	20447.5375
805.50115	20415.1375
809.36299	20306.9375
813.22213	20180.9375
817.07857	20128.1375
820.93231	20052.5375
824.78336	19953.9375
828.63172	19828.7375
832.47738	19778.1375
836.32036	19816.5375
840.16066	19844.4375
843.99827	19939.3375
847.8332	19920.7375
851.66546	19841.9375
855.49504	19840.4375
859.32195	19848.9375
863.1462	19816.5375
866.96777	19723.6375
870.78668	19677.0375
874.60293	19664.6375
878.41652	19693.7375
882.22745	19725.7375
886.03573	19766.6375
889.84136	19772.9375
893.64433	19656.0375
897.44466	19600.5375
901.24235	19551.1375
905.0374	19499.3375
908.8298	19531.6375
912.61957	19557.7375
916.40671	19797.8375
920.19121	20110.6375
923.97308	20286.3375
927.75233	20262.8375
931.52895	20015.8375
935.30295	19704.5375
939.07433	19400.6375
942.84309	19183.1375
946.60924	19096.8375
950.37278	19056.1375
954.13371	19024.1375
957.89203	19033.6375
961.64774	18988.2375
965.40086	18995.1375
969.15137	18922.9375
972.89929	18837.8375
976.64461	18745.0375
980.38733	18745.0375
984.12747	18821.4375
987.86502	18922.7375
991.59999	19079.1375
995.33237	19372.7375
999.06217	19802.3375
1002.78939	20238.0375
1006.51404	20573.8375
1010.23611	20838.0375
1013.95561	21020.6375
1017.67255	21035.0375
1021.38692	20810.8375
1025.09872	20577.8375
1028.80796	20568.7375
1032.51465	20945.7375
1036.21877	21314.8375
1039.92035	21469.1375
1043.61937	21354.6375
1047.31584	21021.0375
1051.00976	20705.9375
1054.70114	20595.0375
1058.38998	20568.6375
1062.07627	20701.0375
1065.76003	20894.4375
1069.44126	21081.8375
1073.11995	21353.6375
1076.79611	21572.1375
1080.46974	21748.5375
1084.14085	21863.6375
1087.80943	22077.0375
1091.47549	22266.4375
1095.13903	22327.5375
1098.80005	22093.2375
1102.45857	21595.5375
1106.11456	21287.4375
1109.76805	21114.1375
1113.41903	21085.8375
1117.06751	21170.1375
1120.71348	21356.2375
1124.35696	21537.2375
1127.99793	21713.7375
1131.63641	21875.4375
1135.2724	21868.4375
1138.90589	21809.0375
1142.5369	21940.7375
1146.16542	22110.1375
1149.79145	22327.6375
1153.415	22598.6375
1157.03607	23031.9375
1160.65467	23774.7375
1164.27079	24966.8375
1167.88443	26376.6375
1171.49561	27740.8375
1175.10432	29325.7375
1178.71056	31330.9375
1182.31434	33197.6375
1185.91565	34167.7375
1189.51451	33989.1375
1193.11091	33181.2375
1196.70485	32096.3375
1200.29634	31032.7375
1203.88538	30504.8375
1207.47197	30274.4375
1211.05612	29991.6375
1214.63782	29415.3375
1218.21708	28571.6375
1221.79391	27604.8375
1225.36829	26953.8375
1228.94024	26401.1375
1232.50976	25935.7375
1236.07685	25576.7375
1239.6415	25472.6375
1243.20374	25601.2375
1246.76355	25810.8375
1250.32093	26262.6375
1253.8759	26830.9375
1257.42845	27543.7375
1260.97859	28245.9375
1264.52631	29045.2375
1268.07163	29839.6375
1271.61453	30699.8375
1275.15503	31564.9375
1278.69312	32550.7375
1282.22882	33512.2375
1285.76211	34583.3375
1289.29301	35988.4375
1292.82151	37756.6375
1296.34761	40095.1375
1299.87133	42630.2375
1303.39266	45201.3375
1306.9116	47329.4375
1310.42815	48717.8375
1313.94233	49203.2375
1317.45412	48753.3375
1320.96354	48057.4375
1324.47058	47615.2375
1327.97525	47337.3375
1331.47754	47075.7375
1334.97747	46796.9375
1338.47502	46402.5375
1341.97022	45640.4375
1345.46305	44670.3375
1348.95352	43735.7375
1352.44163	43294.4375
1355.92738	43752.3375
1359.41078	44978.1375
1362.89183	45845.3375
1366.37053	44860.1375
1369.84688	41577.9375
1373.32088	37602.0375
1376.79254	35011.1375
1380.26186	34211.2375
1383.72883	34585.9375
1387.19347	34923.4375
1390.65578	34810.8375
1394.11575	34847.9375
1397.57339	35276.7375
1401.0287	35910.7375
1404.48168	36391.4375
1407.93234	36259.7375
1411.38068	35329.2375
1414.82669	33963.5375
1418.27039	32329.9375
1421.71177	30766.9375
1425.15083	29544.4375
1428.58758	29002.4375
1432.02203	29276.3375
1435.45416	30141.3375
1438.88399	31194.4375
1442.31151	32047.2375
1445.73673	32635.8375
1449.15965	33027.7375
1452.58027	33138.3375
1455.9986	33168.8375
1459.41463	33321.7375
1462.82837	33642.3375
1466.23982	34173.3375
1469.64898	34651.4375
1473.05586	34955.4375
1476.46045	34915.6375
1479.86276	34590.5375
1483.26279	34042.4375
1486.66054	33704.4375
1490.05602	33669.4375
1493.44922	33884.4375
1496.84016	34141.3375
1500.22882	34513.2375
1503.61521	35250.3375
1506.99934	36165.2375
1510.38121	36885.1375
1513.76081	37041.0375
1517.13816	36593.8375
1520.51324	35812.3375
1523.88607	35361.5375
1527.25665	35302.8375
1530.62498	35541.0375
1533.99105	35600.3375
1537.35488	35121.6375
1540.71647	34421.6375
1544.07581	33383.6375
1547.4329	32347.4375
1550.78776	31502.2375
1554.14038	30907.5375
1557.49077	30532.8375
1560.83892	30334.2375
1564.18484	30241.0375
1567.52853	30307.2375
1570.86999	30650.4375
1574.20922	31295.0375
1577.54624	32015.6375
1580.88103	32510.1375
1584.2136	33224.6375
1587.54395	34549.9375
1590.87208	36361.3375
1594.19801	38481.6375
1597.52172	40115.5375
1600.84321	40032.6375
1604.16251	37878.1375
1607.47959	34665.0375
1610.79447	31447.9375
1614.10715	28703.2375
1617.41763	26561.5375
1620.7259	25174.5375
1624.03199	24586.9375
1627.33587	24719.8375
1630.63757	25555.6375
1633.93707	27323.7375
1637.23439	30103.0375
1640.52951	34054.4375
1643.82246	38579.3375
1647.11321	41887.4375
1650.40179	42091.0375
1653.68819	38766.3375
1656.97241	33436.3375
1660.25446	28555.6375
1663.53433	24904.9375
1666.81203	22539.0375
1670.08756	21055.4375
1673.36092	20082.2375
1676.63211	19478.8375
1679.90115	19081.8375
1683.16801	18769.9375
1686.43272	18539.5375
1689.69527	18385.1375
1692.95567	18238.3375
1696.2139	18136.6375
1699.46999	18089.8375
1702.72392	18001.7375
1705.97571	17935.9375
1709.22535	17849.7375
1712.47284	17811.4375
1715.71819	17802.9375
1718.96139	17733.9375
1722.20246	17680.9375
1725.44139	17601.0375
1728.67818	17455.8375
1731.91284	17373.5375
1735.14537	17274.6375
1738.37576	17210.1375
1741.60403	17156.3375
1744.83017	17107.1375
1748.05418	17048.1375
1751.27607	17049.7375
1754.49584	17034.9375
1757.71349	17017.9375
1760.92903	16996.6375
1764.14244	16962.8375
1767.35375	16949.1375
1770.56294	16938.6375
1773.77002	16915.6375
1776.97499	16862.0375
1780.17785	16808.2375
1783.37861	16790.6375
1786.57727	16703.1375
1789.77382	16723.1375
1792.96828	16667.5375
1796.16064	16622.3375
1799.3509	16589.5375
1802.53907	16579.7375
1805.72514	16532.6375
1808.90913	16503.9375
1812.09102	16464.4375
1815.27083	16427.4375
1818.44856	16415.5375
1821.6242	16378.8375
1824.79776	16360.8375
1827.96924	16347.9375
1831.13864	16351.4375
1834.30597	16390.7375
1837.47122	16350.8375
1840.6344	16365.9375
1843.7955	16375.0375
1846.95454	16317.5375
1850.11151	16290.1375
1853.26642	16326.7375
1856.41926	16285.7375
1859.57004	16286.5375
1862.71876	16249.9375
1865.86542	16246.2375
1869.01003	16236.7375
1872.15258	16193.3375
1875.29308	16208.6375
1878.43152	16185.8375
1881.56792	16163.1375
1884.70227	16149.0375
1887.83457	16131.5375
1890.96482	16081.9375
1894.09304	16067.8375
1897.21921	16047.6375
1900.34335	16028.1375
1903.46544	16011.1375
1906.58551	15995.6375
1909.70353	15978.4375
1912.81953	15942.0375
1915.93349	15933.8375
1919.04543	15909.4375
1922.15534	15843.8375
1925.26322	15812.7375
1928.36908	15815.8375
1931.47292	15779.2375
1934.57473	15757.3375
1937.67453	15711.9375
1940.77232	15678.8375
1943.86808	15616.4375
1946.96184	15574.0375
1950.05358	15523.4375
1953.14331	15494.1375
1956.23103	15445.7375
1959.31675	15421.2375
1962.40046	15345.0375
1965.48217	15320.0375
1968.56188	15253.8375
1971.63959	15218.9375
1974.7153	15177.9375
1977.78901	15148.7375
1980.86073	15101.4375
1983.93046	15067.9375
1986.99819	15024.1375
1990.06394	14964.1375
1993.1277	14924.4375
1996.18947	14911.8375
1999.24925	14851.0375
2002.30706	14802.5375
2005.36288	14772.0375
2008.41672	14728.9375
2011.46859	14662.3375
2014.51848	14661.0375
2017.56639	14626.4375
2020.61233	14596.5375
2023.6563	14574.5375
2026.6983	14550.2375
2029.73833	14478.1375
2032.7764	14492.2375
2035.8125	14468.2375
2038.84664	14393.8375
2041.87881	14396.1375
2044.90903	14349.0375
2047.93729	14338.7375
2050.96359	14329.0375
2053.98794	14293.7375
2057.01034	14284.3375
2060.03078	14283.7375
2063.04927	14274.5375
2066.06582	14279.2375
2069.08042	14255.0375
2072.09307	14242.9375
2075.10378	14214.8375
2078.11255	14230.8375
2081.11938	14224.7375
2084.12426	14207.4375
2087.12722	14202.5375
2090.12824	14160.5375
2093.12732	14165.6375
2096.12447	14164.5375
2099.11969	14175.3375
2102.11299	14180.9375
2105.10435	14190.8375
2108.09379	14212.3375
2111.08131	14174.5375
2114.0669	14198.9375
2117.05057	14210.1375
2120.03233	14201.0375
2123.01216	14251.8375
2125.99008	14240.8375
2128.96609	14253.4375
2131.94018	14282.5375
2134.91236	14267.0375
2137.88263	14286.1375
2140.851	14298.5375
2143.81746	14297.7375
2146.78201	14321.8375
2149.74466	14279.4375
2152.7054	14281.0375
2155.66425	14308.8375
2158.6212	14294.2375
2161.57625	14286.9375
2164.52941	14275.1375
2167.48067	14298.7375
2170.43004	14263.8375
2173.37752	14238.9375
2176.32311	14269.4375
2179.26681	14273.1375
2182.20863	14262.7375
2185.14856	14292.6375
2188.08661	14269.4375
2191.02278	14285.7375
2193.95707	14272.9375
2196.88948	14280.6375
2199.82001	14277.1375
2202.74867	14255.8375
2205.67545	14235.6375
2208.60037	14223.9375
2211.52341	14212.9375
2214.44458	14173.6375
2217.36388	14184.6375
2220.28132	14153.9375
2223.1969	14138.6375
2226.11061	14100.4375
2229.02246	14085.8375
2231.93245	14057.8375
2234.84058	14054.2375
2237.74686	14046.6375
2240.65128	14025.4375
2243.55385	13996.8375
2246.45456	13985.7375
2249.35343	13931.5375
2252.25044	13902.3375
2255.14561	13900.9375
2258.03893	13894.8375
2260.93041	13806.0375
2263.82004	13773.5375
2266.70783	13746.8375
2269.59378	13746.9375
2272.4779	13697.3375
2275.36017	13655.4375
2278.24061	13660.9375
2281.11922	13608.1375
2283.996	13624.7375
2286.87094	13582.3375
2289.74405	13592.1375
2292.61534	13571.0375
2295.4848	13604.7375
2298.35243	13573.1375
2301.21824	13536.5375
2304.08223	13564.6375
2306.94439	13577.2375
2309.80474	13603.4375
2312.66327	13582.5375
2315.51999	13585.0375
2318.37489	13588.2375
2321.22797	13540.8375
2324.07925	13526.3375
2326.92871	13523.9375
2329.77637	13528.1375
2332.62222	13535.3375
2335.46626	13503.6375
2338.3085	13461.2375
2341.14893	13460.8375
2343.98756	13474.6375
2346.8244	13471.9375
2349.65943	13498.9375
2352.49267	13457.4375
2355.32411	13484.0375
2358.15376	13466.1375
2360.98161	13480.1375
2363.80768	13469.1375
2366.63195	13423.4375
2369.45444	13418.4375
2372.27514	13363.9375
2375.09405	13351.8375
2377.91118	13353.0375
2380.72652	13304.3375
2383.54009	13276.5375
2386.35187	13268.7375
2389.16188	13214.8375
2391.97011	13203.2375
2394.77657	13155.6375
2397.58125	13174.1375
2400.38416	13160.2375
2403.18529	13150.9375
2405.98466	13145.2375
2408.78226	13092.5375
2411.57809	13113.9375
2414.37216	13101.9375
2417.16446	13098.6375
2419.955	13087.0375
2422.74378	13070.9375
2425.5308	13028.8375
2428.31606	13079.9375
2431.09956	13058.0375
2433.88131	13055.9375
2436.6613	13049.2375
2439.43954	13030.9375
2442.21603	13034.8375
2444.99077	13000.7375
2447.76377	13037.4375
2450.53501	12998.7375
2453.30451	13037.5375
2456.07226	13010.4375
2458.83827	13015.2375
2461.60254	12992.1375
2464.36507	12974.8375
2467.12586	12995.7375
2469.88492	12997.3375
2472.64224	13021.0375
2475.39782	13020.3375
2478.15167	13017.4375
2480.90379	13000.8375
2483.65417	13002.8375
2486.40283	13043.9375
2489.14976	13029.1375
2491.89497	13030.2375
2494.63845	13056.8375
2497.3802	13047.0375
2500.12024	13036.0375
2502.85855	13038.6375
2505.59514	13016.2375
2508.33002	13016.4375
2511.06318	13012.3375
2513.79462	12993.7375
2516.52435	12975.2375
2519.25237	12976.3375
2521.97867	12957.1375
2524.70327	12969.9375
2527.42616	12961.3375
2530.14734	12963.6375
2532.86681	12961.9375
2535.58458	12943.4375
2538.30065	12943.2375
2541.01501	12943.1375
2543.72768	12947.0375
2546.43864	12935.8375
2549.14791	12931.1375
2551.85548	12924.1375
2554.56136	12925.1375
2557.26554	12880.5375
2559.96803	12876.4375
2562.66883	12865.0375
2565.36794	12828.6375
2568.06536	12863.9375
2570.7611	12834.2375
2573.45514	12822.4375
2576.14751	12839.5375
2578.83819	12801.5375
2581.52719	12800.9375
2584.21451	12788.1375
2586.90015	12809.3375
2589.58411	12766.9375
2592.2664	12762.6375
2594.94701	12778.7375
2597.62594	12775.2375
2600.30321	12730.1375
2602.9788	12749.0375
2605.65273	12721.0375
2608.32498	12740.3375
2610.99557	12712.6375
2613.66449	12743.9375
2616.33175	12738.4375
2618.99734	12750.2375
2621.66128	12747.4375
2624.32355	12728.4375
2626.98416	12722.6375
2629.64311	12737.1375
2632.30041	12712.9375
2634.95605	12694.0375
2637.61004	12701.1375
2640.26238	12655.0375
2642.91306	12653.7375
2645.56209	12659.2375
2648.20948	12661.5375
2650.85521	12666.6375
2653.4993	12649.5375
2656.14175	12667.9375
2658.78255	12693.9375
2661.42171	12685.3375
2664.05923	12725.4375
2666.6951	12750.1375
2669.32934	12728.6375
2671.96194	12739.3375
2674.59291	12730.8375
2677.22224	12731.2375
2679.84993	12728.8375
2682.476	12698.2375
2685.10043	12700.4375
2687.72324	12666.7375
2690.34441	12698.7375
2692.96396	12708.4375
2695.58188	12712.2375
2698.19818	12672.2375
2700.81285	12704.8375
2703.4259	12741.1375
2706.03733	12758.2375
2708.64714	12722.5375
2711.25533	12731.3375
2713.86191	12735.4375
2716.46687	12751.0375
2719.07021	12751.0375
2721.67194	12792.8375
2724.27206	12791.6375
2726.87057	12792.2375
2729.46747	12817.3375
2732.06276	12829.9375
2734.65644	12796.1375
2737.24852	12798.7375
2739.83899	12793.4375
2742.42786	12797.3375
2745.01513	12761.7375
2747.60079	12778.1375
2750.18486	12747.1375
2752.76733	12752.9375
2755.3482	12758.3375
2757.92747	12744.4375
2760.50515	12732.9375
2763.08123	12731.5375
2765.65573	12701.9375
2768.22863	12730.6375
2770.79994	12720.2375
2773.36967	12732.9375
2775.9378	12759.4375
2778.50435	12747.8375
2781.06932	12750.4375
2783.6327	12731.8375
2786.1945	12766.5375
2788.75471	12730.5375
2791.31335	12714.6375
2793.87041	12711.8375
2796.42589	12683.1375
2798.97979	12686.0375
2801.53212	12669.7375
2804.08288	12664.5375
2806.63206	12612.5375
2809.17967	12586.7375
2811.72571	12566.0375
2814.27018	12573.0375
2816.81308	12531.2375
2819.35442	12526.6375
2821.89419	12489.1375
2824.43239	12476.2375
2826.96904	12470.0375
2829.50412	12472.0375
2832.03763	12437.2375
2834.56959	12431.5375
2837.1	12406.9375
2839.62884	12412.4375
2842.15613	12401.3375
2844.68186	12450.0375
2847.20604	12470.0375
2849.72867	12444.9375
2852.24974	12468.4375
2854.76927	12444.9375
2857.28724	12422.7375
2859.80367	12399.7375
2862.31855	12401.1375
2864.83189	12371.5375
2867.34368	12353.6375
2869.85393	12339.3375
2872.36264	12348.7375
2874.8698	12344.5375
2877.37543	12307.6375
2879.87952	12344.0375
2882.38207	12332.8375
2884.88308	12350.5375
2887.38256	12367.3375
2889.88051	12338.9375
2892.37692	12353.4375
2894.8718	12366.8375
2897.36515	12381.6375
2899.85698	12396.1375
2902.34727	12408.1375
2904.83604	12429.1375
2907.32328	12470.3375
2909.809	12446.5375
2912.29319	12444.0375
2914.77587	12423.3375
2917.25702	12450.9375
2919.73665	12426.9375
2922.21476	12431.0375
2924.69136	12421.0375
2927.16644	12431.4375
2929.64	12410.4375
2932.11205	12417.8375
2934.58258	12369.7375
2937.05161	12387.7375
2939.51912	12384.1375
2941.98513	12383.8375
2944.44962	12356.9375
2946.91261	12330.4375
2949.37409	12333.6375
2951.83407	12313.5375
2954.29254	12305.1375
2956.74951	12297.6375
2959.20498	12301.1375
2961.65895	12282.6375
2964.11142	12314.4375
2966.56239	12293.7375
2969.01186	12282.9375
2971.45984	12282.1375
2973.90632	12257.0375
2976.35131	12258.1375
2978.7948	12218.7375
2981.23681	12222.7375
2983.67732	12162.3375
2986.11635	12150.6375
2988.55388	12138.2375
2990.98993	12112.0375
2993.4245	12095.2375
2995.85758	12072.9375
2998.28917	12032.3375
3000.71928	11998.8375
3003.14791	11970.0375
3005.57506	11984.0375
3008.00073	11955.6375
3010.42493	11922.8375
3012.84764	11893.2375
3015.26888	11907.4375
3017.68865	11820.2375
3020.10694	11845.9375
3022.52376	11800.0375
3024.9391	11811.8375
3027.35298	11807.7375
3029.76539	11807.0375
3032.17632	11787.6375
3034.5858	11801.3375
3036.9938	11776.5375
3039.40034	11788.1375
3041.80542	11785.2375
3044.20903	11762.9375
3046.61118	11771.6375
3049.01187	11748.4375
3051.4111	11731.1375
3053.80888	11722.9375
3056.20519	11678.4375
3058.60005	11643.8375
3060.99345	11644.8375
3063.3854	11611.1375
3065.7759	11597.6375
3068.16494	11561.8375
3070.55254	11525.4375
3072.93868	11522.7375
3075.32338	11486.3375
3077.70662	11459.8375
3080.08842	11438.3375
3082.46878	11437.7375
3084.84769	11424.2375
3087.22515	11404.5375
3089.60118	11412.6375
3091.97576	11407.1375
3094.3489	11395.5375
3096.72061	11395.2375
3099.09087	11410.9375
3101.4597	11404.9375
3103.82709	11364.3375
3106.19305	11377.4375
3108.55757	11383.1375
3110.92066	11358.5375
3113.28232	11370.2375
3115.64255	11327.0375
3118.00134	11249.2375
3120.35871	11274.1375
3122.71466	11226.2375
3125.06917	11222.7375
3127.42226	11197.0375
3129.77393	11212.9375
3132.12417	11180.9375
3134.47299	11171.0375
3136.82039	11179.3375
3139.16636	11200.9375
3141.51092	11200.9375
3143.85406	11176.1375
3146.19579	11157.1375
3148.53609	11161.4375
3150.87499	11197.2375
3153.21246	11170.9375
3155.54853	11198.7375
3157.88318	11177.0375
3160.21642	11187.1375
3162.54826	11187.0375
3164.87868	11218.1375
3167.2077	11262.7375
3169.5353	11250.0375
3171.86151	11235.4375
3174.18631	11217.1375
3176.5097	11209.8375
3178.83169	11206.6375
3181.15228	11197.3375
3183.47147	11187.6375
3185.78926	11173.3375
3188.10565	11182.2375
3190.42065	11127.3375
3192.73424	11129.0375
3195.04645	11102.1375
3197.35725	11098.9375
3199.66667	11125.0375
3201.97469	11084.9375
3204.28132	11102.2375
3206.58656	11090.4375
3208.8904	11070.6375
3211.19287	11096.8375
3213.49394	11091.0375
3215.79363	11118.4375
3218.09193	11133.6375
3220.38884	11139.1375
3222.68438	11159.7375
3224.97853	11141.4375
3227.2713	11130.2375
3229.56269	11138.8375
3231.8527	11102.9375
3234.14133	11097.6375
3236.42858	11075.8375
3238.71446	11048.5375
3240.99896	11024.5375
3243.28209	11043.3375
3245.56384	11020.4375
3247.84423	11003.0375
3250.12324	11005.5375
3252.40088	10983.5375
3254.67715	10972.3375
3256.95205	10950.4375
3259.22558	10966.3375
3261.49775	10959.5375
3263.76855	10945.7375
3266.03799	10937.6375
3268.30606	10918.6375
3270.57277	10905.2375
3272.83812	10871.0375
3275.10211	10846.7375
3277.36474	10839.7375
3279.62601	10849.1375
3281.88593	10794.6375
3284.14448	10819.7375
3286.40168	10833.5375
3288.65753	10833.9375
3290.91202	10834.4375
3293.16516	10792.0375
3295.41695	10782.6375
3297.66738	10732.6375
3299.91647	10681.5375
3302.16421	10589.1375
3304.4106	10577.5375
3306.65564	10509.3375
3308.89933	10407.1375
3311.14169	10356.0375
3313.38269	10242.8375
3315.62236	10191.8375
3317.86068	10106.1375
3320.09766	10050.0375
3322.3333	9969.6375
3324.5676	9897.0375
3326.80056	9768.0375
3329.03219	9699.1375
3331.26248	4.7375
3333.49143	-0.8625
3335.71905	0.4375
