Data from AgNP_FTO_APTES_UA_10uM_CRN_0uM_R6G_10uM_NaF_0.1M_Addition_RamanShift__22__12-34-00-465.txt Node

Date: Thu Feb 10 12:34:00 GMT 2022
User: TCL
Spectrometer: QEP01345
Trigger mode: 4
Integration Time (sec): 7.000000E0
Scans to average: 10
Electric dark correction enabled: true
Nonlinearity correction enabled: false
Boxcar width: 0
XAxis mode: Raman Shifts
Number of Pixels in Spectrum: 1044
>>>>>Begin Spectral Data<<<<<
46.04893	-0.5125
50.45542	0.3875
54.85868	-0.9125
59.25871	-1.2125
63.6555	59.9875
68.04907	63.0875
72.43941	67.9875
76.82654	67.4875
81.21044	69.6875
85.59113	70.9875
89.96862	71.8875
94.34289	76.7875
98.71396	79.2875
103.08183	84.7875
107.4465	87.5875
111.80798	84.1875
116.16626	88.6875
120.52136	94.8875
124.87327	97.7875
129.222	103.2875
133.56755	108.5875
137.90993	115.9875
142.24913	121.1875
146.58517	139.9875
150.91804	165.6875
155.24774	197.8875
159.57429	248.5875
163.89768	311.2875
168.21792	413.7875
172.53501	572.3875
176.84895	803.1875
181.15975	1116.4875
185.46741	1558.6875
189.77193	2169.1875
194.07331	2897.2875
198.37157	3734.3875
202.6667	4606.1875
206.9587	5487.6875
211.24758	6351.8875
215.53334	7231.3875
219.81599	8203.7875
224.09553	9272.8875
228.37195	10469.6875
232.64527	11768.8875
236.91549	13105.0875
241.18261	14376.9875
245.44663	15483.6875
249.70755	16423.8875
253.96539	17210.3875
258.22014	17952.8875
262.4718	18577.0875
266.72039	19009.6875
270.96589	19246.2875
275.20832	19282.6875
279.44768	19124.0875
283.68397	18871.2875
287.91719	18722.8875
292.14735	18724.9875
296.37445	18826.1875
300.59849	19099.5875
304.81948	19532.3875
309.03742	19761.2875
313.25231	19633.6875
317.46415	18959.9875
321.67296	17977.0875
325.87872	17143.5875
330.08145	16762.3875
334.28114	16741.1875
338.47781	16917.7875
342.67145	17237.3875
346.86207	17705.7875
351.04966	18388.0875
355.23424	19185.7875
359.4158	19838.1875
363.59435	20227.3875
367.76989	20381.3875
371.94243	20397.4875
376.11196	20413.3875
380.27849	20421.5875
384.44203	20374.1875
388.60257	20348.5875
392.76012	20406.2875
396.91468	20617.6875
401.06626	21082.9875
405.21485	21427.9875
409.36047	21198.5875
413.50311	20550.8875
417.64277	19912.6875
421.77947	19662.6875
425.9132	19655.5875
430.04396	19696.6875
434.17176	19795.7875
438.2966	19968.4875
442.41849	20420.6875
446.53742	21081.4875
450.6534	21744.5875
454.76644	22234.8875
458.87653	22348.7875
462.98368	22121.5875
467.08789	21746.4875
471.18916	21221.8875
475.2875	20755.9875
479.38291	20484.9875
483.4754	20304.4875
487.56496	20123.7875
491.6516	19832.6875
495.73531	19579.6875
499.81612	19488.0875
503.89401	19577.8875
507.96899	19682.8875
512.04106	19782.4875
516.11023	19885.9875
520.1765	19847.6875
524.23987	19741.2875
528.30034	19520.9875
532.35792	19212.0875
536.41261	18821.0875
540.46441	18412.7875
544.51333	18286.3875
548.55936	18432.7875
552.60252	18899.4875
556.64279	19379.0875
560.6802	19665.4875
564.71473	19879.0875
568.7464	20534.9875
572.7752	21130.6875
576.80114	21193.8875
580.82422	21133.3875
584.84444	21273.7875
588.86181	21521.0875
592.87633	21878.2875
596.888	22229.7875
600.89682	22450.4875
604.9028	23728.9875
608.90594	27641.4875
612.90624	32573.8875
616.90371	31003.5875
620.89834	23671.0875
624.89015	20294.3875
628.87913	19798.8875
632.86528	19821.9875
636.84862	19749.0875
640.82913	19275.0875
644.80683	18537.2875
648.78172	17962.3875
652.75379	17882.0875
656.72306	18319.6875
660.68952	18954.3875
664.65319	18902.1875
668.61405	18285.9875
672.57211	17958.4875
676.52738	17931.3875
680.47986	17910.5875
684.42955	17836.6875
688.37646	17738.8875
692.32058	17826.8875
696.26192	17955.3875
700.20048	18228.9875
704.13626	18362.2875
708.06928	18362.3875
711.99952	18144.3875
715.927	18068.2875
719.85171	18059.7875
723.77365	17945.1875
727.69284	17784.7875
731.60928	17553.4875
735.52295	17547.9875
739.43388	17612.8875
743.34206	17721.4875
747.24749	17859.0875
751.15017	18045.5875
755.05012	18396.1875
758.94733	19075.8875
762.8418	20521.4875
766.73354	23097.6875
770.62254	25755.8875
774.50882	26816.9875
778.39237	25485.3875
782.27321	22785.8875
786.15132	20340.0875
790.02671	18842.6875
793.89938	18163.3875
797.76935	17854.9875
801.6366	17755.0875
805.50115	17669.4875
809.36299	17511.4875
813.22213	17332.0875
817.07857	17261.3875
820.93231	17224.4875
824.78336	17223.5875
828.63172	17243.4875
832.47738	17299.4875
836.32036	17362.7875
840.16066	17434.3875
843.99827	17475.6875
847.8332	17454.9875
851.66546	17334.6875
855.49504	17244.7875
859.32195	17193.9875
863.1462	17095.1875
866.96777	17003.5875
870.78668	16916.5875
874.60293	16920.7875
878.41652	16961.1875
882.22745	17040.9875
886.03573	17122.8875
889.84136	17129.5875
893.64433	17045.2875
897.44466	16937.7875
901.24235	16907.2875
905.0374	16826.2875
908.8298	16818.7875
912.61957	16752.7875
916.40671	16875.6875
920.19121	17150.0875
923.97308	17499.3875
927.75233	17709.3875
931.52895	17843.4875
935.30295	17617.2875
939.07433	17074.6875
942.84309	16642.7875
946.60924	16448.8875
950.37278	16343.8875
954.13371	16269.2875
957.89203	16112.4875
961.64774	16018.9875
965.40086	15923.7875
969.15137	15867.0875
972.89929	15793.3875
976.64461	15768.1875
980.38733	15802.7875
984.12747	15893.5875
987.86502	16026.8875
991.59999	16359.7875
995.33237	16863.9875
999.06217	17587.0875
1002.78939	18562.6875
1006.51404	19112.8875
1010.23611	19347.1875
1013.95561	19547.2875
1017.67255	19540.7875
1021.38692	19206.0875
1025.09872	19005.0875
1028.80796	19202.4875
1032.51465	20035.0875
1036.21877	20763.0875
1039.92035	20824.3875
1043.61937	20366.4875
1047.31584	19606.8875
1051.00976	18755.5875
1054.70114	18269.9875
1058.38998	18083.4875
1062.07627	18086.0875
1065.76003	18120.1875
1069.44126	18198.2875
1073.11995	18368.7875
1076.79611	18677.4875
1080.46974	18841.8875
1084.14085	19117.2875
1087.80943	19625.7875
1091.47549	19793.6875
1095.13903	19568.3875
1098.80005	19018.1875
1102.45857	18498.3875
1106.11456	18188.5875
1109.76805	18171.2875
1113.41903	18417.8875
1117.06751	18702.7875
1120.71348	19136.3875
1124.35696	19618.7875
1127.99793	20120.2875
1131.63641	20280.0875
1135.2724	19860.2875
1138.90589	19376.2875
1142.5369	18954.4875
1146.16542	18773.9875
1149.79145	18633.8875
1153.415	18631.7875
1157.03607	18861.7875
1160.65467	19322.8875
1164.27079	20126.2875
1167.88443	21370.7875
1171.49561	23215.8875
1175.10432	25845.6875
1178.71056	29271.0875
1182.31434	32360.4875
1185.91565	33955.7875
1189.51451	33702.2875
1193.11091	31984.7875
1196.70485	29584.9875
1200.29634	27440.7875
1203.88538	25814.0875
1207.47197	24557.9875
1211.05612	23547.5875
1214.63782	23012.6875
1218.21708	22972.2875
1221.79391	23255.4875
1225.36829	23490.1875
1228.94024	23493.8875
1232.50976	23130.4875
1236.07685	22789.4875
1239.6415	22522.9875
1243.20374	22299.8875
1246.76355	22266.5875
1250.32093	22511.3875
1253.8759	23123.1875
1257.42845	24026.1875
1260.97859	24927.1875
1264.52631	25778.8875
1268.07163	26730.6875
1271.61453	27759.6875
1275.15503	28815.7875
1278.69312	29818.0875
1282.22882	30587.9875
1285.76211	31261.2875
1289.29301	31988.5875
1292.82151	32832.3875
1296.34761	33956.0875
1299.87133	35698.7875
1303.39266	38326.3875
1306.9116	41867.5875
1310.42815	45984.9875
1313.94233	48776.5875
1317.45412	48801.1875
1320.96354	46841.5875
1324.47058	44354.1875
1327.97525	42100.9875
1331.47754	40545.4875
1334.97747	39674.8875
1338.47502	39500.9875
1341.97022	39632.9875
1345.46305	39596.6875
1348.95352	39625.5875
1352.44163	40134.2875
1355.92738	41846.2875
1359.41078	45516.2875
1362.89183	49336.7875
1366.37053	48864.3875
1369.84688	43386.7875
1373.32088	37062.0875
1376.79254	32777.6875
1380.26186	30721.0875
1383.72883	29811.4875
1387.19347	29142.7875
1390.65578	28506.2875
1394.11575	28343.8875
1397.57339	28729.4875
1401.0287	29366.5875
1404.48168	30119.4875
1407.93234	30521.7875
1411.38068	30625.7875
1414.82669	30067.3875
1418.27039	29115.2875
1421.71177	27991.6875
1425.15083	27033.6875
1428.58758	26424.4875
1432.02203	26388.1875
1435.45416	26717.4875
1438.88399	27064.7875
1442.31151	27375.6875
1445.73673	27742.2875
1449.15965	28151.4875
1452.58027	28329.7875
1455.9986	28326.9875
1459.41463	28491.5875
1462.82837	29009.7875
1466.23982	29649.8875
1469.64898	30252.8875
1473.05586	30567.9875
1476.46045	30577.8875
1479.86276	30518.5875
1483.26279	30619.7875
1486.66054	30890.0875
1490.05602	31440.8875
1493.44922	32099.6875
1496.84016	32999.3875
1500.22882	34289.6875
1503.61521	36170.2875
1506.99934	38689.6875
1510.38121	41318.1875
1513.76081	42493.3875
1517.13816	41185.5875
1520.51324	37835.7875
1523.88607	34520.7875
1527.25665	32143.1875
1530.62498	30740.4875
1533.99105	29868.4875
1537.35488	29346.4875
1540.71647	28935.7875
1544.07581	28606.1875
1547.4329	28271.1875
1550.78776	27988.5875
1554.14038	27835.6875
1557.49077	27872.1875
1560.83892	28035.1875
1564.18484	28177.2875
1567.52853	28325.4875
1570.86999	28487.4875
1574.20922	28678.0875
1577.54624	28686.7875
1580.88103	28231.1875
1584.2136	27680.0875
1587.54395	27947.5875
1590.87208	29378.1875
1594.19801	31782.8875
1597.52172	34412.8875
1600.84321	35532.3875
1604.16251	34065.4875
1607.47959	31219.5875
1610.79447	28036.1875
1614.10715	25157.6875
1617.41763	22989.6875
1620.7259	21571.2875
1624.03199	20932.8875
1627.33587	21048.1875
1630.63757	21833.9875
1633.93707	23477.7875
1637.23439	25797.2875
1640.52951	28849.8875
1643.82246	32236.4875
1647.11321	35150.8875
1650.40179	36191.8875
1653.68819	34256.5875
1656.97241	29639.3875
1660.25446	24762.6875
1663.53433	21166.1875
1666.81203	18943.4875
1670.08756	17589.0875
1673.36092	16783.4875
1676.63211	16248.9875
1679.90115	15902.2875
1683.16801	15624.0875
1686.43272	15464.8875
1689.69527	15294.8875
1692.95567	15183.7875
1696.2139	15131.6875
1699.46999	15093.2875
1702.72392	15014.9875
1705.97571	14998.6875
1709.22535	14969.1875
1712.47284	14939.1875
1715.71819	14959.1875
1718.96139	14893.5875
1722.20246	14826.7875
1725.44139	14731.6875
1728.67818	14671.9875
1731.91284	14538.9875
1735.14537	14447.0875
1738.37576	14371.8875
1741.60403	14350.0875
1744.83017	14276.3875
1748.05418	14235.9875
1751.27607	14194.9875
1754.49584	14147.5875
1757.71349	14176.6875
1760.92903	14136.1875
1764.14244	14134.7875
1767.35375	14147.1875
1770.56294	14098.1875
1773.77002	14078.3875
1776.97499	14050.7875
1780.17785	13994.4875
1783.37861	14010.9875
1786.57727	13966.9875
1789.77382	13924.8875
1792.96828	13952.1875
1796.16064	13894.7875
1799.3509	13914.1875
1802.53907	13882.6875
1805.72514	13831.9875
1808.90913	13775.8875
1812.09102	13771.1875
1815.27083	13731.1875
1818.44856	13722.7875
1821.6242	13659.0875
1824.79776	13670.1875
1827.96924	13651.2875
1831.13864	13657.5875
1834.30597	13666.0875
1837.47122	13657.7875
1840.6344	13671.7875
1843.7955	13683.0875
1846.95454	13676.6875
1850.11151	13677.2875
1853.26642	13701.0875
1856.41926	13701.3875
1859.57004	13738.6875
1862.71876	13743.4875
1865.86542	13762.1875
1869.01003	13748.2875
1872.15258	13766.6875
1875.29308	13780.0875
1878.43152	13789.9875
1881.56792	13811.9875
1884.70227	13842.6875
1887.83457	13851.0875
1890.96482	13870.2875
1894.09304	13824.0875
1897.21921	13839.6875
1900.34335	13870.6875
1903.46544	13846.1875
1906.58551	13870.0875
1909.70353	13880.6875
1912.81953	13865.2875
1915.93349	13836.6875
1919.04543	13818.7875
1922.15534	13771.5875
1925.26322	13687.2875
1928.36908	13635.3875
1931.47292	13575.7875
1934.57473	13513.9875
1937.67453	13447.5875
1940.77232	13415.6875
1943.86808	13291.3875
1946.96184	13257.8875
1950.05358	13192.6875
1953.14331	13106.0875
1956.23103	13057.2875
1959.31675	13001.3875
1962.40046	12973.5875
1965.48217	12916.3875
1968.56188	12896.4875
1971.63959	12864.3875
1974.7153	12779.4875
1977.78901	12774.7875
1980.86073	12697.8875
1983.93046	12662.6875
1986.99819	12636.1875
1990.06394	12620.5875
1993.1277	12580.6875
1996.18947	12517.9875
1999.24925	12470.6875
2002.30706	12454.6875
2005.36288	12389.6875
2008.41672	12377.3875
2011.46859	12343.9875
2014.51848	12308.6875
2017.56639	12282.0875
2020.61233	12266.5875
2023.6563	12240.5875
2026.6983	12197.6875
2029.73833	12167.3875
2032.7764	12161.9875
2035.8125	12154.4875
2038.84664	12143.8875
2041.87881	12127.1875
2044.90903	12127.5875
2047.93729	12089.0875
2050.96359	12091.9875
2053.98794	12035.2875
2057.01034	12061.8875
2060.03078	12028.7875
2063.04927	12007.5875
2066.06582	12018.6875
2069.08042	12002.2875
2072.09307	11974.8875
2075.10378	11954.4875
2078.11255	11943.5875
2081.11938	11938.9875
2084.12426	11924.7875
2087.12722	11920.9875
2090.12824	11931.7875
2093.12732	11886.9875
2096.12447	11892.9875
2099.11969	11898.2875
2102.11299	11886.5875
2105.10435	11881.5875
2108.09379	11892.4875
2111.08131	11901.1875
2114.0669	11913.9875
2117.05057	11909.9875
2120.03233	11931.2875
2123.01216	11932.9875
2125.99008	11944.7875
2128.96609	11946.6875
2131.94018	11965.1875
2134.91236	11974.6875
2137.88263	11980.3875
2140.851	11948.3875
2143.81746	11969.3875
2146.78201	11968.1875
2149.74466	11958.3875
2152.7054	11963.5875
2155.66425	11944.9875
2158.6212	11936.8875
2161.57625	11933.3875
2164.52941	11950.4875
2167.48067	11919.7875
2170.43004	11942.4875
2173.37752	11944.1875
2176.32311	11941.6875
2179.26681	11945.0875
2182.20863	11938.5875
2185.14856	11945.2875
2188.08661	11910.2875
2191.02278	11945.9875
2193.95707	11959.6875
2196.88948	11969.0875
2199.82001	11936.9875
2202.74867	11919.5875
2205.67545	11937.3875
2208.60037	11964.7875
2211.52341	11921.3875
2214.44458	11935.5875
2217.36388	11921.6875
2220.28132	11902.5875
2223.1969	11873.1875
2226.11061	11867.4875
2229.02246	11849.5875
2231.93245	11807.3875
2234.84058	11772.2875
2237.74686	11757.5875
2240.65128	11756.0875
2243.55385	11725.4875
2246.45456	11724.4875
2249.35343	11680.2875
2252.25044	11670.2875
2255.14561	11679.9875
2258.03893	11662.9875
2260.93041	11631.1875
2263.82004	11618.3875
2266.70783	11593.1875
2269.59378	11533.3875
2272.4779	11523.2875
2275.36017	11462.2875
2278.24061	11468.9875
2281.11922	11480.1875
2283.996	11455.0875
2286.87094	11441.6875
2289.74405	11431.6875
2292.61534	11415.3875
2295.4848	11388.2875
2298.35243	11425.6875
2301.21824	11404.6875
2304.08223	11453.7875
2306.94439	11445.0875
2309.80474	11469.4875
2312.66327	11459.1875
2315.51999	11480.0875
2318.37489	11495.4875
2321.22797	11497.9875
2324.07925	11462.1875
2326.92871	11470.9875
2329.77637	11460.3875
2332.62222	11429.8875
2335.46626	11446.9875
2338.3085	11461.4875
2341.14893	11479.4875
2343.98756	11514.8875
2346.8244	11522.6875
2349.65943	11528.2875
2352.49267	11524.5875
2355.32411	11507.8875
2358.15376	11543.6875
2360.98161	11521.3875
2363.80768	11513.0875
2366.63195	11468.1875
2369.45444	11454.6875
2372.27514	11417.9875
2375.09405	11418.7875
2377.91118	11355.4875
2380.72652	11318.9875
2383.54009	11286.2875
2386.35187	11263.7875
2389.16188	11207.8875
2391.97011	11218.4875
2394.77657	11162.8875
2397.58125	11167.6875
2400.38416	11155.7875
2403.18529	11142.9875
2405.98466	11096.2875
2408.78226	11068.7875
2411.57809	11043.2875
2414.37216	11001.3875
2417.16446	11002.1875
2419.955	10977.4875
2422.74378	10977.6875
2425.5308	10974.8875
2428.31606	10970.2875
2431.09956	10998.2875
2433.88131	10972.5875
2436.6613	10989.0875
2439.43954	10987.5875
2442.21603	10965.5875
2444.99077	10972.6875
2447.76377	10965.2875
2450.53501	10953.8875
2453.30451	10960.8875
2456.07226	10952.8875
2458.83827	10975.5875
2461.60254	10976.3875
2464.36507	10963.2875
2467.12586	10938.9875
2469.88492	10966.3875
2472.64224	10979.4875
2475.39782	10989.7875
2478.15167	11022.5875
2480.90379	11034.5875
2483.65417	11057.5875
2486.40283	11055.0875
2489.14976	11088.2875
2491.89497	11083.9875
2494.63845	11083.2875
2497.3802	11076.2875
2500.12024	11091.0875
2502.85855	11099.9875
2505.59514	11093.1875
2508.33002	11057.4875
2511.06318	11030.3875
2513.79462	10996.5875
2516.52435	10969.3875
2519.25237	10972.8875
2521.97867	10936.1875
2524.70327	10954.6875
2527.42616	10925.2875
2530.14734	10927.9875
2532.86681	10940.7875
2535.58458	10930.1875
2538.30065	10942.6875
2541.01501	10947.0875
2543.72768	10950.9875
2546.43864	10939.7875
2549.14791	10901.1875
2551.85548	10936.8875
2554.56136	10927.5875
2557.26554	10902.2875
2559.96803	10877.4875
2562.66883	10881.6875
2565.36794	10854.8875
2568.06536	10851.6875
2570.7611	10865.0875
2573.45514	10833.5875
2576.14751	10835.7875
2578.83819	10816.4875
2581.52719	10847.0875
2584.21451	10818.8875
2586.90015	10838.0875
2589.58411	10841.1875
2592.2664	10851.9875
2594.94701	10834.9875
2597.62594	10843.9875
2600.30321	10848.2875
2602.9788	10834.5875
2605.65273	10822.1875
2608.32498	10836.9875
2610.99557	10844.3875
2613.66449	10830.9875
2616.33175	10837.3875
2618.99734	10822.9875
2621.66128	10862.0875
2624.32355	10856.3875
2626.98416	10885.5875
2629.64311	10869.4875
2632.30041	10857.4875
2634.95605	10858.6875
2637.61004	10821.2875
2640.26238	10808.4875
2642.91306	10804.9875
2645.56209	10780.0875
2648.20948	10767.7875
2650.85521	10741.5875
2653.4993	10749.7875
2656.14175	10759.9875
2658.78255	10780.7875
2661.42171	10779.2875
2664.05923	10769.8875
2666.6951	10799.8875
2669.32934	10819.9875
2671.96194	10827.1875
2674.59291	10837.3875
2677.22224	10810.2875
2679.84993	10804.9875
2682.476	10802.2875
2685.10043	10804.2875
2687.72324	10736.0875
2690.34441	10760.9875
2692.96396	10747.9875
2695.58188	10729.8875
2698.19818	10695.3875
2700.81285	10702.7875
2703.4259	10697.6875
2706.03733	10702.6875
2708.64714	10702.8875
2711.25533	10723.7875
2713.86191	10700.7875
2716.46687	10760.5875
2719.07021	10763.3875
2721.67194	10767.4875
2724.27206	10769.4875
2726.87057	10768.0875
2729.46747	10773.1875
2732.06276	10809.8875
2734.65644	10774.4875
2737.24852	10801.5875
2739.83899	10770.5875
2742.42786	10782.1875
2745.01513	10744.5875
2747.60079	10747.5875
2750.18486	10740.0875
2752.76733	10742.5875
2755.3482	10723.2875
2757.92747	10699.4875
2760.50515	10691.1875
2763.08123	10709.1875
2765.65573	10704.6875
2768.22863	10693.4875
2770.79994	10693.0875
2773.36967	10687.1875
2775.9378	10699.7875
2778.50435	10698.5875
2781.06932	10690.0875
2783.6327	10698.5875
2786.1945	10737.9875
2788.75471	10704.6875
2791.31335	10694.1875
2793.87041	10684.6875
2796.42589	10684.0875
2798.97979	10642.0875
2801.53212	10638.6875
2804.08288	10613.7875
2806.63206	10597.8875
2809.17967	10585.8875
2811.72571	10570.8875
2814.27018	10552.7875
2816.81308	10552.5875
2819.35442	10526.4875
2821.89419	10541.6875
2824.43239	10559.0875
2826.96904	10544.9875
2829.50412	10572.3875
2832.03763	10547.6875
2834.56959	10553.1875
2837.1	10519.9875
2839.62884	10557.5875
2842.15613	10545.7875
2844.68186	10582.7875
2847.20604	10606.0875
2849.72867	10598.7875
2852.24974	10600.0875
2854.76927	10603.8875
2857.28724	10593.7875
2859.80367	10565.4875
2862.31855	10545.5875
2864.83189	10547.4875
2867.34368	10549.7875
2869.85393	10571.3875
2872.36264	10553.5875
2874.8698	10550.9875
2877.37543	10558.6875
2879.87952	10564.1875
2882.38207	10586.6875
2884.88308	10533.7875
2887.38256	10557.2875
2889.88051	10549.4875
2892.37692	10562.1875
2894.8718	10584.5875
2897.36515	10577.3875
2899.85698	10587.9875
2902.34727	10623.6875
2904.83604	10625.7875
2907.32328	10661.6875
2909.809	10649.2875
2912.29319	10619.4875
2914.77587	10631.3875
2917.25702	10622.5875
2919.73665	10612.4875
2922.21476	10659.5875
2924.69136	10602.9875
2927.16644	10591.9875
2929.64	10563.4875
2932.11205	10516.7875
2934.58258	10467.0875
2937.05161	10490.4875
2939.51912	10498.7875
2941.98513	10497.4875
2944.44962	10460.0875
2946.91261	10416.4875
2949.37409	10417.1875
2951.83407	10390.3875
2954.29254	10386.2875
2956.74951	10364.5875
2959.20498	10380.4875
2961.65895	10368.3875
2964.11142	10366.7875
2966.56239	10321.5875
2969.01186	10304.0875
2971.45984	10277.1875
2973.90632	10258.7875
2976.35131	10234.6875
2978.7948	10198.8875
2981.23681	10160.4875
2983.67732	10121.9875
2986.11635	10101.7875
2988.55388	10060.9875
2990.98993	10053.8875
2993.4245	10071.8875
2995.85758	10017.1875
2998.28917	10009.5875
3000.71928	9998.6875
3003.14791	9978.5875
3005.57506	9961.4875
3008.00073	9951.0875
3010.42493	9920.1875
3012.84764	9899.8875
3015.26888	9861.7875
3017.68865	9835.4875
3020.10694	9835.2875
3022.52376	9810.3875
3024.9391	9817.1875
3027.35298	9805.4875
3029.76539	9789.1875
3032.17632	9772.1875
3034.5858	9792.3875
3036.9938	9755.6875
3039.40034	9770.5875
3041.80542	9770.6875
3044.20903	9743.3875
3046.61118	9739.1875
3049.01187	9735.7875
3051.4111	9727.4875
3053.80888	9676.7875
3056.20519	9659.0875
3058.60005	9637.7875
3060.99345	9632.1875
3063.3854	9590.4875
3065.7759	9578.7875
3068.16494	9583.7875
3070.55254	9518.6875
3072.93868	9491.1875
3075.32338	9457.4875
3077.70662	9465.3875
3080.08842	9438.6875
3082.46878	9423.8875
3084.84769	9403.0875
3087.22515	9377.6875
3089.60118	9423.6875
3091.97576	9396.4875
3094.3489	9405.2875
3096.72061	9397.7875
3099.09087	9395.4875
3101.4597	9385.9875
3103.82709	9373.2875
3106.19305	9363.9875
3108.55757	9341.1875
3110.92066	9331.6875
3113.28232	9327.1875
3115.64255	9296.0875
3118.00134	9302.7875
3120.35871	9285.3875
3122.71466	9246.7875
3125.06917	9239.3875
3127.42226	9228.6875
3129.77393	9259.4875
3132.12417	9238.4875
3134.47299	9210.0875
3136.82039	9230.6875
3139.16636	9208.7875
3141.51092	9220.5875
3143.85406	9194.2875
3146.19579	9186.6875
3148.53609	9198.1875
3150.87499	9200.8875
3153.21246	9209.0875
3155.54853	9225.9875
3157.88318	9218.0875
3160.21642	9216.9875
3162.54826	9229.5875
3164.87868	9213.9875
3167.2077	9241.8875
3169.5353	9228.2875
3171.86151	9231.8875
3174.18631	9221.7875
3176.5097	9214.1875
3178.83169	9214.1875
3181.15228	9206.2875
3183.47147	9184.7875
3185.78926	9204.5875
3188.10565	9202.4875
3190.42065	9211.5875
3192.73424	9185.5875
3195.04645	9208.5875
3197.35725	9178.4875
3199.66667	9194.7875
3201.97469	9193.8875
3204.28132	9188.3875
3206.58656	9214.7875
3208.8904	9192.3875
3211.19287	9217.9875
3213.49394	9228.5875
3215.79363	9238.0875
3218.09193	9239.3875
3220.38884	9237.9875
3222.68438	9229.5875
3224.97853	9251.4875
3227.2713	9236.0875
3229.56269	9214.0875
3231.8527	9235.6875
3234.14133	9181.9875
3236.42858	9176.3875
3238.71446	9168.3875
3240.99896	9147.3875
3243.28209	9163.7875
3245.56384	9125.2875
3247.84423	9145.8875
3250.12324	9139.4875
3252.40088	9136.8875
3254.67715	9111.0875
3256.95205	9097.4875
3259.22558	9083.7875
3261.49775	9096.0875
3263.76855	9095.2875
3266.03799	9086.9875
3268.30606	9080.2875
3270.57277	9058.7875
3272.83812	9018.8875
3275.10211	9014.3875
3277.36474	8993.4875
3279.62601	9000.5875
3281.88593	8982.6875
3284.14448	8996.4875
3286.40168	8984.1875
3288.65753	9020.6875
3290.91202	8995.0875
3293.16516	8964.2875
3295.41695	8959.0875
3297.66738	8910.8875
3299.91647	8889.8875
3302.16421	8816.0875
3304.4106	8771.3875
3306.65564	8719.1875
3308.89933	8685.9875
3311.14169	8621.4875
3313.38269	8539.3875
3315.62236	8495.1875
3317.86068	8414.8875
3320.09766	8358.2875
3322.3333	8290.6875
3324.5676	8277.7875
3326.80056	8130.4875
3329.03219	8081.8875
3331.26248	3.9875
3333.49143	-0.1125
3335.71905	-0.8125
