Data from AgNP_FTO_APTES_UA_10uM_CRN_5uM_R6G_10uM_NaF_0.1M_Addition_RamanShift__24__15-10-20-665.txt Node

Date: Thu Feb 10 15:10:20 GMT 2022
User: TCL
Spectrometer: QEP01345
Trigger mode: 4
Integration Time (sec): 7.000000E0
Scans to average: 10
Electric dark correction enabled: true
Nonlinearity correction enabled: false
Boxcar width: 0
XAxis mode: Raman Shifts
Number of Pixels in Spectrum: 1044
>>>>>Begin Spectral Data<<<<<
46.04893	0.7125
50.45542	-0.5875
54.85868	-2.2875
59.25871	-0.7875
63.6555	77.2125
68.04907	77.1125
72.43941	84.1125
76.82654	80.5125
81.21044	88.3125
85.59113	88.9125
89.96862	95.4125
94.34289	99.4125
98.71396	102.8125
103.08183	105.9125
107.4465	108.0125
111.80798	108.4125
116.16626	114.0125
120.52136	116.2125
124.87327	124.1125
129.222	130.0125
133.56755	139.4125
137.90993	146.4125
142.24913	155.0125
146.58517	182.7125
150.91804	207.5125
155.24774	248.9125
159.57429	308.1125
163.89768	393.7125
168.21792	522.9125
172.53501	716.3125
176.84895	1002.7125
181.15975	1399.7125
185.46741	1967.0125
189.77193	2722.6125
194.07331	3606.4125
198.37157	4657.7125
202.6667	5729.9125
206.9587	6798.4125
211.24758	7848.2125
215.53334	8945.6125
219.81599	10097.3125
224.09553	11375.4125
228.37195	12792.2125
232.64527	14352.9125
236.91549	16012.3125
241.18261	17579.0125
245.44663	19002.3125
249.70755	20323.1125
253.96539	21448.6125
258.22014	22454.1125
262.4718	23317.1125
266.72039	23984.5125
270.96589	24334.2125
275.20832	24526.8125
279.44768	24499.8125
283.68397	24359.6125
287.91719	24231.3125
292.14735	24196.3125
296.37445	24338.4125
300.59849	24469.7125
304.81948	24640.2125
309.03742	24596.4125
313.25231	24229.4125
317.46415	23481.2125
321.67296	22599.9125
325.87872	21868.9125
330.08145	21541.1125
334.28114	21558.1125
338.47781	21797.6125
342.67145	22132.2125
346.86207	22613.9125
351.04966	23252.9125
355.23424	23870.5125
359.4158	24411.5125
363.59435	24754.7125
367.76989	24930.0125
371.94243	25075.2125
376.11196	25104.8125
380.27849	25211.8125
384.44203	25237.1125
388.60257	25325.3125
392.76012	25522.9125
396.91468	25784.5125
401.06626	26269.5125
405.21485	26617.7125
409.36047	26426.7125
413.50311	25912.4125
417.64277	25483.2125
421.77947	25339.2125
425.9132	25431.8125
430.04396	25643.8125
434.17176	25788.1125
438.2966	26099.1125
442.41849	26594.4125
446.53742	27318.5125
450.6534	28169.6125
454.76644	28841.3125
458.87653	29088.1125
462.98368	28913.1125
467.08789	28570.4125
471.18916	28047.9125
475.2875	27620.8125
479.38291	27307.3125
483.4754	27072.3125
487.56496	26695.1125
491.6516	26263.1125
495.73531	25837.8125
499.81612	25636.3125
503.89401	25782.1125
507.96899	25853.9125
512.04106	25803.5125
516.11023	25784.8125
520.1765	25644.9125
524.23987	25488.5125
528.30034	25190.4125
532.35792	24908.9125
536.41261	24587.7125
540.46441	24283.1125
544.51333	24267.8125
548.55936	24610.9125
552.60252	25222.6125
556.64279	25892.6125
560.6802	26248.7125
564.71473	26487.7125
568.7464	27001.6125
572.7752	27659.8125
576.80114	27878.3125
580.82422	27973.1125
584.84444	28186.5125
588.86181	28356.4125
592.87633	28726.1125
596.888	29014.6125
600.89682	29348.9125
604.9028	30696.9125
608.90594	34343.4125
612.90624	38244.9125
616.90371	35746.2125
620.89834	28988.9125
624.89015	26258.8125
628.87913	25989.2125
632.86528	25851.0125
636.84862	25605.0125
640.82913	25060.8125
644.80683	24305.2125
648.78172	23773.7125
652.75379	23655.5125
656.72306	24162.0125
660.68952	24686.3125
664.65319	24595.6125
668.61405	24032.3125
672.57211	23828.2125
676.52738	23830.1125
680.47986	23815.1125
684.42955	23741.0125
688.37646	23698.1125
692.32058	23875.9125
696.26192	24110.1125
700.20048	24462.4125
704.13626	24571.9125
708.06928	24500.0125
711.99952	24283.1125
715.927	24188.6125
719.85171	24207.3125
723.77365	24111.8125
727.69284	23844.1125
731.60928	23601.0125
735.52295	23529.4125
739.43388	23620.8125
743.34206	23708.9125
747.24749	23841.6125
751.15017	24131.4125
755.05012	24589.6125
758.94733	25459.6125
762.8418	27125.8125
766.73354	29629.6125
770.62254	32052.2125
774.50882	32582.0125
778.39237	30774.4125
782.27321	28022.1125
786.15132	25816.0125
790.02671	24569.2125
793.89938	23974.2125
797.76935	23780.5125
801.6366	23701.3125
805.50115	23598.0125
809.36299	23453.1125
813.22213	23290.2125
817.07857	23234.9125
820.93231	23196.9125
824.78336	23177.1125
828.63172	23154.0125
832.47738	23216.8125
836.32036	23289.0125
840.16066	23362.2125
843.99827	23432.2125
847.8332	23364.2125
851.66546	23217.7125
855.49504	23155.4125
859.32195	23090.3125
863.1462	22972.2125
866.96777	22817.5125
870.78668	22727.3125
874.60293	22748.2125
878.41652	22740.3125
882.22745	22881.6125
886.03573	22901.6125
889.84136	22873.2125
893.64433	22754.6125
897.44466	22671.3125
901.24235	22615.9125
905.0374	22556.9125
908.8298	22542.7125
912.61957	22630.8125
916.40671	22885.3125
920.19121	23213.0125
923.97308	23584.5125
927.75233	23738.9125
931.52895	23630.4125
935.30295	23334.6125
939.07433	22814.7125
942.84309	22419.2125
946.60924	22285.2125
950.37278	22195.4125
954.13371	22055.0125
957.89203	21940.1125
961.64774	21836.6125
965.40086	21751.7125
969.15137	21663.4125
972.89929	21590.2125
976.64461	21533.1125
980.38733	21588.1125
984.12747	21697.4125
987.86502	21943.2125
991.59999	22311.6125
995.33237	22898.4125
999.06217	23809.1125
1002.78939	24903.2125
1006.51404	25481.1125
1010.23611	25739.4125
1013.95561	25974.6125
1017.67255	25912.3125
1021.38692	25597.5125
1025.09872	25433.5125
1028.80796	25856.9125
1032.51465	26935.5125
1036.21877	27913.7125
1039.92035	28022.4125
1043.61937	27400.1125
1047.31584	26412.9125
1051.00976	25314.1125
1054.70114	24762.4125
1058.38998	24683.9125
1062.07627	24751.7125
1065.76003	24842.5125
1069.44126	24906.8125
1073.11995	25151.0125
1076.79611	25352.8125
1080.46974	25570.6125
1084.14085	25823.0125
1087.80943	26198.9125
1091.47549	26333.3125
1095.13903	26170.1125
1098.80005	25685.2125
1102.45857	25188.5125
1106.11456	24826.2125
1109.76805	24843.6125
1113.41903	25027.1125
1117.06751	25366.0125
1120.71348	25747.8125
1124.35696	26080.9125
1127.99793	26440.3125
1131.63641	26534.2125
1135.2724	26234.3125
1138.90589	25919.3125
1142.5369	25676.3125
1146.16542	25559.6125
1149.79145	25592.6125
1153.415	25815.4125
1157.03607	26279.4125
1160.65467	26928.1125
1164.27079	27977.3125
1167.88443	29497.5125
1171.49561	31561.0125
1175.10432	34398.6125
1178.71056	37988.0125
1182.31434	41289.3125
1185.91565	43061.3125
1189.51451	43040.9125
1193.11091	41408.4125
1196.70485	39179.4125
1200.29634	37144.8125
1203.88538	35498.4125
1207.47197	34184.1125
1211.05612	33064.5125
1214.63782	32430.8125
1218.21708	32194.9125
1221.79391	32302.4125
1225.36829	32314.9125
1228.94024	32020.0125
1232.50976	31488.7125
1236.07685	31031.6125
1239.6415	30798.9125
1243.20374	30697.6125
1246.76355	30918.7125
1250.32093	31381.4125
1253.8759	32239.7125
1257.42845	33279.4125
1260.97859	34291.9125
1264.52631	35249.9125
1268.07163	36159.6125
1271.61453	37295.4125
1275.15503	38537.4125
1278.69312	39841.7125
1282.22882	40815.1125
1285.76211	41657.3125
1289.29301	42524.3125
1292.82151	43673.9125
1296.34761	45289.9125
1299.87133	47721.0125
1303.39266	50834.9125
1306.9116	54837.0125
1310.42815	58894.5125
1313.94233	61577.8125
1317.45412	61628.1125
1320.96354	60042.6125
1324.47058	58169.0125
1327.97525	56301.5125
1331.47754	55053.5125
1334.97747	54786.5125
1338.47502	55134.2125
1341.97022	55470.5125
1345.46305	55226.6125
1348.95352	54493.8125
1352.44163	53786.8125
1355.92738	54536.2125
1359.41078	57321.8125
1362.89183	59902.8125
1366.37053	58220.9125
1369.84688	52519.9125
1373.32088	46560.9125
1376.79254	42729.7125
1380.26186	41079.4125
1383.72883	40629.5125
1387.19347	40367.4125
1390.65578	40036.9125
1394.11575	40028.0125
1397.57339	40613.6125
1401.0287	41533.6125
1404.48168	42597.3125
1407.93234	43294.5125
1411.38068	43337.1125
1414.82669	42529.6125
1418.27039	40877.2125
1421.71177	39054.2125
1425.15083	37462.5125
1428.58758	36501.7125
1432.02203	36430.0125
1435.45416	36917.7125
1438.88399	37684.6125
1442.31151	38305.4125
1445.73673	38898.7125
1449.15965	39468.4125
1452.58027	39885.3125
1455.9986	40020.5125
1459.41463	40335.0125
1462.82837	40969.4125
1466.23982	41819.3125
1469.64898	42625.0125
1473.05586	43093.3125
1476.46045	43212.1125
1479.86276	43036.6125
1483.26279	42883.3125
1486.66054	42816.7125
1490.05602	43048.8125
1493.44922	43432.7125
1496.84016	43820.3125
1500.22882	44587.6125
1503.61521	45915.4125
1506.99934	47782.5125
1510.38121	49729.7125
1513.76081	50659.8125
1517.13816	49717.9125
1520.51324	47291.7125
1523.88607	44848.5125
1527.25665	43192.8125
1530.62498	42252.1125
1533.99105	41749.2125
1537.35488	41355.9125
1540.71647	41053.6125
1544.07581	40571.7125
1547.4329	39978.3125
1550.78776	39467.7125
1554.14038	39081.3125
1557.49077	38963.7125
1560.83892	38955.3125
1564.18484	38939.9125
1567.52853	38872.9125
1570.86999	38781.7125
1574.20922	38990.8125
1577.54624	39227.1125
1580.88103	39113.0125
1584.2136	39127.6125
1587.54395	40097.1125
1590.87208	42213.3125
1594.19801	45213.5125
1597.52172	48311.2125
1600.84321	49313.0125
1604.16251	47360.9125
1607.47959	43645.0125
1610.79447	39686.4125
1614.10715	36031.8125
1617.41763	33082.1125
1620.7259	31087.5125
1624.03199	30157.2125
1627.33587	30211.9125
1630.63757	31218.6125
1633.93707	33252.0125
1637.23439	36241.8125
1640.52951	39923.0125
1643.82246	43837.5125
1647.11321	46725.3125
1650.40179	47162.4125
1653.68819	44172.1125
1656.97241	38658.7125
1660.25446	33185.0125
1663.53433	29079.8125
1666.81203	26513.5125
1670.08756	24845.1125
1673.36092	23793.7125
1676.63211	23122.1125
1679.90115	22618.9125
1683.16801	22256.2125
1686.43272	22033.3125
1689.69527	21845.0125
1692.95567	21662.1125
1696.2139	21569.5125
1699.46999	21535.2125
1702.72392	21462.7125
1705.97571	21387.0125
1709.22535	21345.5125
1712.47284	21281.4125
1715.71819	21250.2125
1718.96139	21193.3125
1722.20246	21136.7125
1725.44139	21036.7125
1728.67818	20918.5125
1731.91284	20794.3125
1735.14537	20674.4125
1738.37576	20590.7125
1741.60403	20515.0125
1744.83017	20482.4125
1748.05418	20425.0125
1751.27607	20358.8125
1754.49584	20373.9125
1757.71349	20344.8125
1760.92903	20343.5125
1764.14244	20332.4125
1767.35375	20338.7125
1770.56294	20255.4125
1773.77002	20245.9125
1776.97499	20208.6125
1780.17785	20141.1125
1783.37861	20120.9125
1786.57727	20101.8125
1789.77382	20074.6125
1792.96828	20028.4125
1796.16064	19986.1125
1799.3509	19984.8125
1802.53907	19946.1125
1805.72514	19887.9125
1808.90913	19870.9125
1812.09102	19825.0125
1815.27083	19760.1125
1818.44856	19775.9125
1821.6242	19729.8125
1824.79776	19725.6125
1827.96924	19713.2125
1831.13864	19680.2125
1834.30597	19714.7125
1837.47122	19684.7125
1840.6344	19664.7125
1843.7955	19700.5125
1846.95454	19731.9125
1850.11151	19715.1125
1853.26642	19715.1125
1856.41926	19725.9125
1859.57004	19749.1125
1862.71876	19728.4125
1865.86542	19724.5125
1869.01003	19760.8125
1872.15258	19743.4125
1875.29308	19749.1125
1878.43152	19784.0125
1881.56792	19761.1125
1884.70227	19788.2125
1887.83457	19790.3125
1890.96482	19797.7125
1894.09304	19750.7125
1897.21921	19784.4125
1900.34335	19740.0125
1903.46544	19768.2125
1906.58551	19784.2125
1909.70353	19779.4125
1912.81953	19741.7125
1915.93349	19768.1125
1919.04543	19733.4125
1922.15534	19697.6125
1925.26322	19610.3125
1928.36908	19594.7125
1931.47292	19527.5125
1934.57473	19447.8125
1937.67453	19344.9125
1940.77232	19275.9125
1943.86808	19184.3125
1946.96184	19137.4125
1950.05358	19025.9125
1953.14331	18939.7125
1956.23103	18887.5125
1959.31675	18825.9125
1962.40046	18795.7125
1965.48217	18714.1125
1968.56188	18647.2125
1971.63959	18598.0125
1974.7153	18563.0125
1977.78901	18528.2125
1980.86073	18416.3125
1983.93046	18374.6125
1986.99819	18312.7125
1990.06394	18284.7125
1993.1277	18237.6125
1996.18947	18165.1125
1999.24925	18124.5125
2002.30706	18051.3125
2005.36288	18030.7125
2008.41672	17939.4125
2011.46859	17930.1125
2014.51848	17887.1125
2017.56639	17842.2125
2020.61233	17832.1125
2023.6563	17755.3125
2026.6983	17754.3125
2029.73833	17681.2125
2032.7764	17703.6125
2035.8125	17639.7125
2038.84664	17603.7125
2041.87881	17593.1125
2044.90903	17584.0125
2047.93729	17570.3125
2050.96359	17581.2125
2053.98794	17499.8125
2057.01034	17486.4125
2060.03078	17500.4125
2063.04927	17484.7125
2066.06582	17461.2125
2069.08042	17426.0125
2072.09307	17424.0125
2075.10378	17445.1125
2078.11255	17374.8125
2081.11938	17379.5125
2084.12426	17376.2125
2087.12722	17355.1125
2090.12824	17335.7125
2093.12732	17316.3125
2096.12447	17305.6125
2099.11969	17302.9125
2102.11299	17333.8125
2105.10435	17305.9125
2108.09379	17336.8125
2111.08131	17315.6125
2114.0669	17324.2125
2117.05057	17334.0125
2120.03233	17373.7125
2123.01216	17391.6125
2125.99008	17399.3125
2128.96609	17414.7125
2131.94018	17427.4125
2134.91236	17458.2125
2137.88263	17469.9125
2140.851	17454.9125
2143.81746	17464.3125
2146.78201	17484.9125
2149.74466	17479.0125
2152.7054	17451.5125
2155.66425	17451.0125
2158.6212	17449.5125
2161.57625	17456.6125
2164.52941	17477.0125
2167.48067	17431.8125
2170.43004	17422.7125
2173.37752	17427.1125
2176.32311	17399.1125
2179.26681	17442.9125
2182.20863	17434.9125
2185.14856	17415.2125
2188.08661	17457.7125
2191.02278	17480.0125
2193.95707	17478.0125
2196.88948	17442.7125
2199.82001	17452.2125
2202.74867	17449.6125
2205.67545	17441.8125
2208.60037	17447.3125
2211.52341	17437.4125
2214.44458	17442.3125
2217.36388	17386.5125
2220.28132	17357.1125
2223.1969	17334.7125
2226.11061	17336.0125
2229.02246	17321.3125
2231.93245	17274.2125
2234.84058	17225.3125
2237.74686	17183.7125
2240.65128	17178.4125
2243.55385	17165.1125
2246.45456	17093.7125
2249.35343	17113.4125
2252.25044	17110.3125
2255.14561	17066.2125
2258.03893	17085.0125
2260.93041	17048.2125
2263.82004	16977.2125
2266.70783	16929.1125
2269.59378	16835.6125
2272.4779	16820.6125
2275.36017	16765.8125
2278.24061	16762.3125
2281.11922	16727.0125
2283.996	16713.8125
2286.87094	16687.1125
2289.74405	16711.0125
2292.61534	16684.3125
2295.4848	16700.7125
2298.35243	16712.4125
2301.21824	16726.2125
2304.08223	16737.1125
2306.94439	16747.1125
2309.80474	16758.9125
2312.66327	16808.5125
2315.51999	16777.6125
2318.37489	16788.4125
2321.22797	16791.8125
2324.07925	16777.7125
2326.92871	16727.6125
2329.77637	16755.9125
2332.62222	16735.7125
2335.46626	16766.2125
2338.3085	16782.8125
2341.14893	16789.3125
2343.98756	16834.9125
2346.8244	16839.7125
2349.65943	16867.4125
2352.49267	16839.8125
2355.32411	16830.8125
2358.15376	16808.5125
2360.98161	16825.9125
2363.80768	16795.9125
2366.63195	16754.7125
2369.45444	16730.1125
2372.27514	16652.1125
2375.09405	16623.7125
2377.91118	16608.5125
2380.72652	16555.0125
2383.54009	16500.7125
2386.35187	16505.6125
2389.16188	16446.3125
2391.97011	16411.7125
2394.77657	16361.0125
2397.58125	16363.4125
2400.38416	16389.0125
2403.18529	16329.4125
2405.98466	16309.0125
2408.78226	16240.2125
2411.57809	16202.2125
2414.37216	16175.8125
2417.16446	16176.9125
2419.955	16116.9125
2422.74378	16108.7125
2425.5308	16093.8125
2428.31606	16112.8125
2431.09956	16110.6125
2433.88131	16083.9125
2436.6613	16076.7125
2439.43954	16109.1125
2442.21603	16088.7125
2444.99077	16082.4125
2447.76377	16046.4125
2450.53501	16040.5125
2453.30451	16061.2125
2456.07226	16048.5125
2458.83827	16078.3125
2461.60254	16055.4125
2464.36507	16059.5125
2467.12586	16062.7125
2469.88492	16058.4125
2472.64224	16058.3125
2475.39782	16096.1125
2478.15167	16110.2125
2480.90379	16132.6125
2483.65417	16184.9125
2486.40283	16186.6125
2489.14976	16203.1125
2491.89497	16194.9125
2494.63845	16216.0125
2497.3802	16267.9125
2500.12024	16221.3125
2502.85855	16201.7125
2505.59514	16184.6125
2508.33002	16156.7125
2511.06318	16137.3125
2513.79462	16131.4125
2516.52435	16100.1125
2519.25237	16129.8125
2521.97867	16083.8125
2524.70327	16078.6125
2527.42616	16018.0125
2530.14734	16086.3125
2532.86681	16089.0125
2535.58458	16042.0125
2538.30065	16052.4125
2541.01501	16054.8125
2543.72768	16055.2125
2546.43864	16038.0125
2549.14791	16027.9125
2551.85548	16038.1125
2554.56136	16032.5125
2557.26554	16009.6125
2559.96803	15960.5125
2562.66883	15960.8125
2565.36794	15951.3125
2568.06536	15932.6125
2570.7611	15941.7125
2573.45514	15907.5125
2576.14751	15926.5125
2578.83819	15900.7125
2581.52719	15903.4125
2584.21451	15893.5125
2586.90015	15939.4125
2589.58411	15896.1125
2592.2664	15930.1125
2594.94701	15931.3125
2597.62594	15954.1125
2600.30321	15909.0125
2602.9788	15941.9125
2605.65273	15917.7125
2608.32498	15910.6125
2610.99557	15948.9125
2613.66449	15940.6125
2616.33175	15949.8125
2618.99734	15962.8125
2621.66128	15985.8125
2624.32355	15981.3125
2626.98416	15967.0125
2629.64311	15986.7125
2632.30041	15986.8125
2634.95605	15946.6125
2637.61004	15902.9125
2640.26238	15881.2125
2642.91306	15903.4125
2645.56209	15863.2125
2648.20948	15874.5125
2650.85521	15839.3125
2653.4993	15844.8125
2656.14175	15845.1125
2658.78255	15875.9125
2661.42171	15890.4125
2664.05923	15902.8125
2666.6951	15910.0125
2669.32934	15935.5125
2671.96194	15912.5125
2674.59291	15935.7125
2677.22224	15964.5125
2679.84993	15907.4125
2682.476	15935.9125
2685.10043	15918.4125
2687.72324	15883.4125
2690.34441	15864.0125
2692.96396	15884.5125
2695.58188	15843.8125
2698.19818	15849.8125
2700.81285	15831.1125
2703.4259	15863.2125
2706.03733	15867.9125
2708.64714	15828.8125
2711.25533	15856.1125
2713.86191	15860.2125
2716.46687	15851.5125
2719.07021	15880.7125
2721.67194	15909.9125
2724.27206	15896.6125
2726.87057	15897.6125
2729.46747	15923.0125
2732.06276	15926.7125
2734.65644	15890.3125
2737.24852	15927.7125
2739.83899	15886.1125
2742.42786	15922.7125
2745.01513	15889.7125
2747.60079	15856.8125
2750.18486	15856.6125
2752.76733	15879.8125
2755.3482	15844.8125
2757.92747	15884.9125
2760.50515	15833.1125
2763.08123	15835.8125
2765.65573	15828.8125
2768.22863	15841.9125
2770.79994	15827.1125
2773.36967	15823.8125
2775.9378	15815.9125
2778.50435	15819.5125
2781.06932	15843.4125
2783.6327	15835.4125
2786.1945	15847.6125
2788.75471	15813.6125
2791.31335	15776.1125
2793.87041	15807.7125
2796.42589	15771.4125
2798.97979	15792.0125
2801.53212	15732.6125
2804.08288	15723.2125
2806.63206	15697.0125
2809.17967	15686.6125
2811.72571	15657.6125
2814.27018	15635.9125
2816.81308	15572.2125
2819.35442	15587.9125
2821.89419	15544.3125
2824.43239	15552.1125
2826.96904	15537.5125
2829.50412	15536.1125
2832.03763	15496.0125
2834.56959	15505.1125
2837.1	15486.3125
2839.62884	15503.5125
2842.15613	15516.7125
2844.68186	15516.3125
2847.20604	15523.2125
2849.72867	15550.9125
2852.24974	15515.0125
2854.76927	15505.2125
2857.28724	15478.3125
2859.80367	15444.7125
2862.31855	15403.2125
2864.83189	15401.8125
2867.34368	15370.5125
2869.85393	15401.0125
2872.36264	15398.4125
2874.8698	15383.4125
2877.37543	15401.4125
2879.87952	15361.6125
2882.38207	15386.1125
2884.88308	15368.1125
2887.38256	15417.5125
2889.88051	15413.9125
2892.37692	15421.3125
2894.8718	15403.9125
2897.36515	15455.3125
2899.85698	15452.1125
2902.34727	15507.5125
2904.83604	15508.2125
2907.32328	15542.3125
2909.809	15547.1125
2912.29319	15554.7125
2914.77587	15504.4125
2917.25702	15543.2125
2919.73665	15503.0125
2922.21476	15521.2125
2924.69136	15500.2125
2927.16644	15441.1125
2929.64	15411.5125
2932.11205	15435.3125
2934.58258	15370.8125
2937.05161	15398.7125
2939.51912	15380.0125
2941.98513	15360.7125
2944.44962	15325.9125
2946.91261	15285.7125
2949.37409	15314.5125
2951.83407	15302.4125
2954.29254	15285.7125
2956.74951	15288.1125
2959.20498	15280.3125
2961.65895	15250.1125
2964.11142	15242.7125
2966.56239	15208.1125
2969.01186	15197.9125
2971.45984	15170.2125
2973.90632	15157.8125
2976.35131	15150.0125
2978.7948	15097.7125
2981.23681	15020.6125
2983.67732	15023.8125
2986.11635	14960.1125
2988.55388	14934.9125
2990.98993	14917.6125
2993.4245	14893.5125
2995.85758	14859.7125
2998.28917	14812.5125
3000.71928	14806.9125
3003.14791	14773.2125
3005.57506	14762.2125
3008.00073	14694.9125
3010.42493	14569.2125
3012.84764	14632.1125
3015.26888	14597.9125
3017.68865	14587.6125
3020.10694	14552.0125
3022.52376	14545.0125
3024.9391	14493.5125
3027.35298	14526.8125
3029.76539	14479.3125
3032.17632	14505.4125
3034.5858	14477.3125
3036.9938	14473.5125
3039.40034	14470.8125
3041.80542	14455.9125
3044.20903	14422.6125
3046.61118	14459.0125
3049.01187	14429.4125
3051.4111	14391.8125
3053.80888	14363.7125
3056.20519	14338.2125
3058.60005	14279.1125
3060.99345	14248.0125
3063.3854	14211.6125
3065.7759	14142.7125
3068.16494	14145.8125
3070.55254	14080.1125
3072.93868	14074.7125
3075.32338	14031.7125
3077.70662	13984.0125
3080.08842	13944.9125
3082.46878	13944.7125
3084.84769	13904.3125
3087.22515	13904.5125
3089.60118	13914.7125
3091.97576	13885.6125
3094.3489	13860.1125
3096.72061	13901.5125
3099.09087	13888.6125
3101.4597	13855.7125
3103.82709	13858.2125
3106.19305	13859.5125
3108.55757	13855.7125
3110.92066	13797.5125
3113.28232	13761.3125
3115.64255	13727.6125
3118.00134	13711.7125
3120.35871	13710.4125
3122.71466	13634.2125
3125.06917	13640.9125
3127.42226	13631.6125
3129.77393	13613.3125
3132.12417	13584.6125
3134.47299	13538.7125
3136.82039	13574.8125
3139.16636	13584.0125
3141.51092	13580.2125
3143.85406	13531.5125
3146.19579	13563.2125
3148.53609	13566.3125
3150.87499	13552.0125
3153.21246	13538.7125
3155.54853	13564.8125
3157.88318	13533.0125
3160.21642	13588.6125
3162.54826	13564.2125
3164.87868	13588.8125
3167.2077	13601.7125
3169.5353	13582.4125
3171.86151	13582.2125
3174.18631	13552.4125
3176.5097	13537.9125
3178.83169	13515.3125
3181.15228	13525.0125
3183.47147	13486.5125
3185.78926	13506.3125
3188.10565	13458.9125
3190.42065	13447.0125
3192.73424	13459.5125
3195.04645	13464.4125
3197.35725	13435.3125
3199.66667	13446.7125
3201.97469	13476.0125
3204.28132	13504.4125
3206.58656	13515.1125
3208.8904	13497.2125
3211.19287	13492.9125
3213.49394	13480.4125
3215.79363	13518.6125
3218.09193	13491.2125
3220.38884	13484.3125
3222.68438	13488.8125
3224.97853	13504.9125
3227.2713	13524.2125
3229.56269	13497.3125
3231.8527	13500.9125
3234.14133	13427.3125
3236.42858	13422.9125
3238.71446	13418.0125
3240.99896	13382.8125
3243.28209	13346.5125
3245.56384	13352.2125
3247.84423	13348.2125
3250.12324	13331.8125
3252.40088	13310.8125
3254.67715	13288.1125
3256.95205	13284.4125
3259.22558	13259.0125
3261.49775	13244.3125
3263.76855	13228.6125
3266.03799	13253.8125
3268.30606	13228.3125
3270.57277	13211.9125
3272.83812	13174.0125
3275.10211	13151.3125
3277.36474	13125.0125
3279.62601	13136.4125
3281.88593	13085.9125
3284.14448	13093.9125
3286.40168	13092.0125
3288.65753	13102.7125
3290.91202	13097.2125
3293.16516	13071.5125
3295.41695	13031.8125
3297.66738	12969.2125
3299.91647	12945.9125
3302.16421	12812.8125
3304.4106	12771.5125
3306.65564	12698.8125
3308.89933	12634.9125
3311.14169	12522.3125
3313.38269	12417.9125
3315.62236	12356.8125
3317.86068	12264.4125
3320.09766	12185.1125
3322.3333	12067.4125
3324.5676	11999.2125
3326.80056	11863.0125
3329.03219	11776.7125
3331.26248	4.9125
3333.49143	-0.1875
3335.71905	-0.5875
