Data from AgNP_FTO_APTES_UA_10uM_CRN_20uM_R6G_10uM_NaF_0.1M_Addition_RamanShift__29__16-36-40-772.txt Node

Date: Thu Feb 10 16:36:40 GMT 2022
User: TCL
Spectrometer: QEP01345
Trigger mode: 4
Integration Time (sec): 7.000000E0
Scans to average: 10
Electric dark correction enabled: true
Nonlinearity correction enabled: false
Boxcar width: 0
XAxis mode: Raman Shifts
Number of Pixels in Spectrum: 1044
>>>>>Begin Spectral Data<<<<<
46.04893	0
50.45542	-0.3
54.85868	-1.8
59.25871	-1.1
63.6555	50.7
68.04907	54.2
72.43941	58.7
76.82654	56
81.21044	62.9
85.59113	62.5
89.96862	66.7
94.34289	71.2
98.71396	70.4
103.08183	73
107.4465	78
111.80798	73.6
116.16626	76.2
120.52136	80
124.87327	84.9
129.222	85.6
133.56755	91.6
137.90993	92.1
142.24913	98.5
146.58517	113.7
150.91804	128.5
155.24774	152.5
159.57429	186.2
163.89768	230.1
168.21792	304.1
172.53501	411.9
176.84895	558.5
181.15975	784.5
185.46741	1087.9
189.77193	1510.3
194.07331	1997.6
198.37157	2579.5
202.6667	3179.7
206.9587	3783.4
211.24758	4376
215.53334	4975.7
219.81599	5650.6
224.09553	6392.5
228.37195	7236.1
232.64527	8151.8
236.91549	9096.8
241.18261	9967.7
245.44663	10758.5
249.70755	11415
253.96539	12017.7
258.22014	12513.4
262.4718	12968.1
266.72039	13311.8
270.96589	13614.7
275.20832	13703.1
279.44768	13713.8
283.68397	13642.7
287.91719	13607.1
292.14735	13683.2
296.37445	13853.5
300.59849	14108.7
304.81948	14387.6
309.03742	14514.8
313.25231	14348.3
317.46415	13732.3
321.67296	12900.9
325.87872	12220.5
330.08145	11946.8
334.28114	11934
338.47781	12053.3
342.67145	12358.6
346.86207	12747.1
351.04966	13343.3
355.23424	13950.4
359.4158	14423.2
363.59435	14700.1
367.76989	14745
371.94243	14733.9
376.11196	14734.8
380.27849	14686.8
384.44203	14617.6
388.60257	14505
392.76012	14497.7
396.91468	14678.5
401.06626	14987.7
405.21485	15282.8
409.36047	15110.4
413.50311	14529.5
417.64277	13990.1
421.77947	13729.5
425.9132	13683.2
430.04396	13730.4
434.17176	13806.3
438.2966	13950.9
442.41849	14192.3
446.53742	14512
450.6534	14886.8
454.76644	15174.8
458.87653	15243.2
462.98368	15188.7
467.08789	14975.9
471.18916	14737.3
475.2875	14437
479.38291	14255.6
483.4754	14059.1
487.56496	13837
491.6516	13712.8
495.73531	13630.9
499.81612	13650.1
503.89401	13795.1
507.96899	13906.2
512.04106	13994.5
516.11023	14117.3
520.1765	14169.9
524.23987	14097.5
528.30034	13891.1
532.35792	13670.7
536.41261	13433.1
540.46441	13260.9
544.51333	13231.1
548.55936	13390
552.60252	13736
556.64279	14092.9
560.6802	14215.4
564.71473	14315.8
568.7464	14690.2
572.7752	14995.7
576.80114	14807.8
580.82422	14548.8
584.84444	14425.5
588.86181	14392
592.87633	14377.6
596.888	14470.5
600.89682	14882.5
604.9028	16214.7
608.90594	19608
612.90624	23892
616.90371	22730.8
620.89834	16996.8
624.89015	14412.6
628.87913	13972.4
632.86528	14003
636.84862	14118.2
640.82913	13906.2
644.80683	13445.6
648.78172	13106.8
652.75379	13141.7
656.72306	13569
660.68952	14091.2
664.65319	13976.4
668.61405	13514.2
672.57211	13254.5
676.52738	13246.6
680.47986	13249.8
684.42955	13199.9
688.37646	13184.6
692.32058	13248.6
696.26192	13375.7
700.20048	13529.9
704.13626	13677.4
708.06928	13673.3
711.99952	13587.1
715.927	13534.5
719.85171	13538.9
723.77365	13474.8
727.69284	13354.2
731.60928	13199.7
735.52295	13185.1
739.43388	13214.6
743.34206	13288.5
747.24749	13359.5
751.15017	13507
755.05012	13810.3
758.94733	14404.9
762.8418	15613.2
766.73354	17665.1
770.62254	19720.2
774.50882	20547
778.39237	19467.1
782.27321	17202.9
786.15132	15198.7
790.02671	14077.5
793.89938	13589.4
797.76935	13352.3
801.6366	13267.6
805.50115	13166
809.36299	13093
813.22213	13056.8
817.07857	13057.1
820.93231	13036.4
824.78336	13071.9
828.63172	13095.9
832.47738	13147.9
836.32036	13131.7
840.16066	13110.4
843.99827	13087.7
847.8332	13056.2
851.66546	13027.8
855.49504	12991.9
859.32195	12982
863.1462	12904
866.96777	12877.4
870.78668	12852.7
874.60293	12882.1
878.41652	12916.7
882.22745	12981.3
886.03573	12997.4
889.84136	12963.6
893.64433	12896.4
897.44466	12899.3
901.24235	12878.3
905.0374	12889.2
908.8298	12883.7
912.61957	12921.4
916.40671	13014.9
920.19121	13122.8
923.97308	13228.8
927.75233	13289.9
931.52895	13298.8
935.30295	13140.4
939.07433	12833.9
942.84309	12600.4
946.60924	12461.5
950.37278	12387.1
954.13371	12362.1
957.89203	12273.7
961.64774	12276.9
965.40086	12242.3
969.15137	12182.2
972.89929	12183.1
976.64461	12147.4
980.38733	12133.8
984.12747	12168.2
987.86502	12237.6
991.59999	12337.6
995.33237	12499.3
999.06217	12772.7
1002.78939	13139.1
1006.51404	13385.6
1010.23611	13594.9
1013.95561	13791
1017.67255	13753.9
1021.38692	13610.4
1025.09872	13449.6
1028.80796	13478.5
1032.51465	13664.7
1036.21877	13923.3
1039.92035	13958.1
1043.61937	13923.8
1047.31584	13732.9
1051.00976	13582.5
1054.70114	13538
1058.38998	13586.9
1062.07627	13706.8
1065.76003	13782.7
1069.44126	13836.4
1073.11995	13937.3
1076.79611	14034.6
1080.46974	14158.5
1084.14085	14374
1087.80943	14652.6
1091.47549	14764.7
1095.13903	14587.5
1098.80005	14215.1
1102.45857	13857.5
1106.11456	13653.2
1109.76805	13691
1113.41903	13842.6
1117.06751	14135.9
1120.71348	14522.6
1124.35696	14912.3
1127.99793	15259.5
1131.63641	15256.4
1135.2724	14820.4
1138.90589	14373.5
1142.5369	14096.5
1146.16542	13905
1149.79145	13841.9
1153.415	13904.3
1157.03607	14057.1
1160.65467	14308.1
1164.27079	14781.6
1167.88443	15441.3
1171.49561	16399.7
1175.10432	18048.1
1178.71056	20101.4
1182.31434	21685.8
1185.91565	22187.5
1189.51451	21860.9
1193.11091	20780.1
1196.70485	19455.1
1200.29634	18365.4
1203.88538	17592.1
1207.47197	16782.7
1211.05612	16026.6
1214.63782	15610.6
1218.21708	15489.2
1221.79391	15513.5
1225.36829	15593.2
1228.94024	15698.5
1232.50976	15719
1236.07685	15757.4
1239.6415	15796.4
1243.20374	15815.9
1246.76355	15894.6
1250.32093	16166.3
1253.8759	16522.9
1257.42845	16984.1
1260.97859	17480.9
1264.52631	17845.4
1268.07163	18214.5
1271.61453	18606.7
1275.15503	18953.3
1278.69312	19186.4
1282.22882	19372.9
1285.76211	19678.3
1289.29301	20097.3
1292.82151	20570.7
1296.34761	21083.9
1299.87133	21996.9
1303.39266	23384.5
1306.9116	25429.6
1310.42815	27784.8
1313.94233	29343.9
1317.45412	29186.7
1320.96354	27887.4
1324.47058	26371.3
1327.97525	25038.7
1331.47754	24253.4
1334.97747	24013.2
1338.47502	24282.9
1341.97022	24793.2
1345.46305	25252.7
1348.95352	25762.3
1352.44163	26511
1355.92738	28042
1359.41078	30874.2
1362.89183	33654.8
1366.37053	32777.2
1369.84688	28652.5
1373.32088	24605
1376.79254	22044.3
1380.26186	20732.7
1383.72883	20111.1
1387.19347	19656.4
1390.65578	19170.1
1394.11575	18790.1
1397.57339	18633.4
1401.0287	18689.8
1404.48168	18952.1
1407.93234	19338.5
1411.38068	19572.7
1414.82669	19495.4
1418.27039	19078
1421.71177	18559.8
1425.15083	18041.6
1428.58758	17739.3
1432.02203	17710.8
1435.45416	17783.9
1438.88399	17887.8
1442.31151	17929.2
1445.73673	18050.7
1449.15965	18144
1452.58027	18189.5
1455.9986	18115.5
1459.41463	18123.8
1462.82837	18318.7
1466.23982	18688.3
1469.64898	19055.1
1473.05586	19376.1
1476.46045	19569.7
1479.86276	19828
1483.26279	20167.3
1486.66054	20627.9
1490.05602	21114.8
1493.44922	21792.7
1496.84016	22755.9
1500.22882	24227.2
1503.61521	26158.9
1506.99934	28394.1
1510.38121	30615.6
1513.76081	31753.4
1517.13816	30803.8
1520.51324	28159.9
1523.88607	25412
1527.25665	23386.6
1530.62498	22139.6
1533.99105	21365.7
1537.35488	20871
1540.71647	20559.2
1544.07581	20306.7
1547.4329	20095
1550.78776	19934.3
1554.14038	19799.1
1557.49077	19896.6
1560.83892	20194.3
1564.18484	20550.3
1567.52853	20940.7
1570.86999	21093.2
1574.20922	21208.3
1577.54624	21019
1580.88103	20362.7
1584.2136	19519.9
1587.54395	19264.4
1590.87208	19694.3
1594.19801	20742.1
1597.52172	22041.7
1600.84321	22559.1
1604.16251	21770.6
1607.47959	20417.5
1610.79447	18912.8
1614.10715	17636.9
1617.41763	16567.4
1620.7259	15881.6
1624.03199	15515.1
1627.33587	15531.4
1630.63757	15862.3
1633.93707	16584.1
1637.23439	17574.4
1640.52951	18915.9
1643.82246	20558.2
1647.11321	22392.7
1650.40179	23612.7
1653.68819	23040.6
1656.97241	20605.2
1660.25446	17825.2
1663.53433	15773.4
1666.81203	14479.4
1670.08756	13641.8
1673.36092	13190.8
1676.63211	12834
1679.90115	12635
1683.16801	12443.2
1686.43272	12320.2
1689.69527	12263.2
1692.95567	12180.5
1696.2139	12171
1699.46999	12169
1702.72392	12097.2
1705.97571	12039.7
1709.22535	12047.9
1712.47284	12000.7
1715.71819	12012.7
1718.96139	12003.2
1722.20246	11981.7
1725.44139	11926.4
1728.67818	11882.3
1731.91284	11781.4
1735.14537	11739.4
1738.37576	11691.5
1741.60403	11646
1744.83017	11581.1
1748.05418	11536.2
1751.27607	11553.5
1754.49584	11532.8
1757.71349	11554.5
1760.92903	11520.5
1764.14244	11512.7
1767.35375	11531.7
1770.56294	11458.1
1773.77002	11478.4
1776.97499	11426.5
1780.17785	11399.3
1783.37861	11373.2
1786.57727	11349
1789.77382	11333.2
1792.96828	11329.1
1796.16064	11324.8
1799.3509	11303
1802.53907	11279.4
1805.72514	11240.5
1808.90913	11221.1
1812.09102	11188.9
1815.27083	11171.6
1818.44856	11142.9
1821.6242	11131.6
1824.79776	11108.4
1827.96924	11098.1
1831.13864	11095.5
1834.30597	11076.6
1837.47122	11074.2
1840.6344	11075
1843.7955	11098.3
1846.95454	11067.2
1850.11151	11064.6
1853.26642	11055.6
1856.41926	11072.6
1859.57004	11068.4
1862.71876	11063.4
1865.86542	11074.8
1869.01003	11077
1872.15258	11067.4
1875.29308	11060.6
1878.43152	11049.6
1881.56792	11079.8
1884.70227	11067.4
1887.83457	11083.2
1890.96482	11094.8
1894.09304	11066.4
1897.21921	11042.2
1900.34335	11089.7
1903.46544	11054.3
1906.58551	11104
1909.70353	11090.9
1912.81953	11083
1915.93349	11085.9
1919.04543	11094.5
1922.15534	11079.1
1925.26322	11039.3
1928.36908	11002.9
1931.47292	10977
1934.57473	10952
1937.67453	10902.7
1940.77232	10868.6
1943.86808	10817.3
1946.96184	10753.1
1950.05358	10700.3
1953.14331	10664.8
1956.23103	10658.4
1959.31675	10588.7
1962.40046	10555.8
1965.48217	10528.6
1968.56188	10507.9
1971.63959	10476.3
1974.7153	10440
1977.78901	10421.2
1980.86073	10366.6
1983.93046	10337
1986.99819	10325.2
1990.06394	10281.1
1993.1277	10236.6
1996.18947	10202.5
1999.24925	10182.6
2002.30706	10150.5
2005.36288	10131.6
2008.41672	10094.9
2011.46859	10067.6
2014.51848	10036.4
2017.56639	10028.8
2020.61233	10010.9
2023.6563	9977.6
2026.6983	9948.7
2029.73833	9904.1
2032.7764	9887.9
2035.8125	9875.6
2038.84664	9838.6
2041.87881	9814
2044.90903	9780.4
2047.93729	9771.8
2050.96359	9770.3
2053.98794	9737
2057.01034	9748.3
2060.03078	9724.9
2063.04927	9736.1
2066.06582	9732.1
2069.08042	9732.8
2072.09307	9706.2
2075.10378	9694
2078.11255	9677.3
2081.11938	9706.5
2084.12426	9671
2087.12722	9675
2090.12824	9679
2093.12732	9666.9
2096.12447	9658
2099.11969	9639.2
2102.11299	9644.2
2105.10435	9632.6
2108.09379	9640
2111.08131	9643.6
2114.0669	9629.1
2117.05057	9660.5
2120.03233	9687.7
2123.01216	9701.1
2125.99008	9706.8
2128.96609	9692.7
2131.94018	9729
2134.91236	9717.6
2137.88263	9688.5
2140.851	9713.7
2143.81746	9740.7
2146.78201	9700.7
2149.74466	9734.3
2152.7054	9727.7
2155.66425	9707.9
2158.6212	9709
2161.57625	9712.9
2164.52941	9699.5
2167.48067	9682.8
2170.43004	9698.1
2173.37752	9665.8
2176.32311	9693.6
2179.26681	9678
2182.20863	9681.4
2185.14856	9675.6
2188.08661	9671.7
2191.02278	9676.3
2193.95707	9697.3
2196.88948	9666.5
2199.82001	9663.6
2202.74867	9643.6
2205.67545	9630.1
2208.60037	9635.5
2211.52341	9615.2
2214.44458	9604.5
2217.36388	9593.2
2220.28132	9574.4
2223.1969	9568.8
2226.11061	9545.1
2229.02246	9516.2
2231.93245	9504.3
2234.84058	9465.6
2237.74686	9441.2
2240.65128	9449.2
2243.55385	9419.8
2246.45456	9401
2249.35343	9421.5
2252.25044	9423.1
2255.14561	9407.3
2258.03893	9390.4
2260.93041	9379.9
2263.82004	9370.6
2266.70783	9339.8
2269.59378	9300.3
2272.4779	9269.6
2275.36017	9257.2
2278.24061	9263.1
2281.11922	9207.4
2283.996	9190.7
2286.87094	9198.3
2289.74405	9169.2
2292.61534	9166.9
2295.4848	9146.8
2298.35243	9143.5
2301.21824	9138.4
2304.08223	9141.5
2306.94439	9146.8
2309.80474	9142.2
2312.66327	9130.3
2315.51999	9140.8
2318.37489	9100.3
2321.22797	9119.3
2324.07925	9101.8
2326.92871	9083.9
2329.77637	9099.3
2332.62222	9078.8
2335.46626	9056.5
2338.3085	9062.6
2341.14893	9077.4
2343.98756	9070.9
2346.8244	9084.9
2349.65943	9081.6
2352.49267	9068
2355.32411	9087.2
2358.15376	9094.3
2360.98161	9104.8
2363.80768	9086.5
2366.63195	9056.4
2369.45444	9060.3
2372.27514	9067.8
2375.09405	9044.3
2377.91118	9023.1
2380.72652	8988.8
2383.54009	8937.6
2386.35187	8933
2389.16188	8877.5
2391.97011	8878.7
2394.77657	8836.3
2397.58125	8818.9
2400.38416	8801.2
2403.18529	8787.2
2405.98466	8772.6
2408.78226	8752.7
2411.57809	8746.2
2414.37216	8707.2
2417.16446	8699
2419.955	8716.7
2422.74378	8687.1
2425.5308	8692
2428.31606	8681.2
2431.09956	8685.3
2433.88131	8653.4
2436.6613	8664
2439.43954	8690.2
2442.21603	8656
2444.99077	8665.3
2447.76377	8663.4
2450.53501	8637.6
2453.30451	8628.2
2456.07226	8620.4
2458.83827	8619.4
2461.60254	8627.5
2464.36507	8611.5
2467.12586	8566.5
2469.88492	8553.3
2472.64224	8592.8
2475.39782	8572.5
2478.15167	8618.1
2480.90379	8609.1
2483.65417	8626.9
2486.40283	8637.5
2489.14976	8659.5
2491.89497	8660.5
2494.63845	8660.9
2497.3802	8674.1
2500.12024	8644.9
2502.85855	8638.9
2505.59514	8635.9
2508.33002	8580.2
2511.06318	8583.1
2513.79462	8557.5
2516.52435	8544.5
2519.25237	8517.7
2521.97867	8495.9
2524.70327	8505.7
2527.42616	8478.5
2530.14734	8483.4
2532.86681	8475
2535.58458	8450.7
2538.30065	8448.3
2541.01501	8447.6
2543.72768	8469.1
2546.43864	8436.7
2549.14791	8425.7
2551.85548	8439.5
2554.56136	8411.6
2557.26554	8397.4
2559.96803	8392.5
2562.66883	8365.2
2565.36794	8340.4
2568.06536	8338.1
2570.7611	8324.3
2573.45514	8297.7
2576.14751	8311.9
2578.83819	8272.9
2581.52719	8292.5
2584.21451	8285.3
2586.90015	8284.9
2589.58411	8248.6
2592.2664	8247
2594.94701	8246
2597.62594	8248.1
2600.30321	8249
2602.9788	8229
2605.65273	8220.1
2608.32498	8239
2610.99557	8240.2
2613.66449	8224.4
2616.33175	8188.7
2618.99734	8211.2
2621.66128	8239
2624.32355	8195.2
2626.98416	8196.7
2629.64311	8187.1
2632.30041	8175
2634.95605	8187.1
2637.61004	8180.9
2640.26238	8150.4
2642.91306	8135.7
2645.56209	8117.1
2648.20948	8117.9
2650.85521	8082.9
2653.4993	8108.5
2656.14175	8101.1
2658.78255	8095.4
2661.42171	8118.9
2664.05923	8116.4
2666.6951	8114.1
2669.32934	8141
2671.96194	8150
2674.59291	8157.9
2677.22224	8157.5
2679.84993	8176.8
2682.476	8156.5
2685.10043	8154
2687.72324	8117.3
2690.34441	8140.5
2692.96396	8126.2
2695.58188	8120.3
2698.19818	8106.2
2700.81285	8136.3
2703.4259	8119.5
2706.03733	8134.8
2708.64714	8115.2
2711.25533	8136.1
2713.86191	8113.5
2716.46687	8127.3
2719.07021	8137
2721.67194	8139.2
2724.27206	8144
2726.87057	8127.2
2729.46747	8140.2
2732.06276	8143.1
2734.65644	8136.2
2737.24852	8137.6
2739.83899	8112.1
2742.42786	8130.1
2745.01513	8088
2747.60079	8086.6
2750.18486	8089.1
2752.76733	8098.3
2755.3482	8063.6
2757.92747	8046.7
2760.50515	8036.8
2763.08123	8052.5
2765.65573	8028.4
2768.22863	8007.6
2770.79994	8013.7
2773.36967	8028.4
2775.9378	8033.9
2778.50435	8020.5
2781.06932	8014.1
2783.6327	7993.2
2786.1945	7993.2
2788.75471	7986.8
2791.31335	7969.4
2793.87041	7952.9
2796.42589	7967.3
2798.97979	7947.4
2801.53212	7938.7
2804.08288	7914.1
2806.63206	7899.1
2809.17967	7912.9
2811.72571	7891.6
2814.27018	7905.5
2816.81308	7875.1
2819.35442	7864.7
2821.89419	7848.2
2824.43239	7850.9
2826.96904	7856.2
2829.50412	7871.7
2832.03763	7874.1
2834.56959	7831.9
2837.1	7854.3
2839.62884	7828.2
2842.15613	7853.1
2844.68186	7901.2
2847.20604	7883.5
2849.72867	7936.6
2852.24974	7930.1
2854.76927	7932.7
2857.28724	7899.7
2859.80367	7873.4
2862.31855	7872.8
2864.83189	7852
2867.34368	7828.8
2869.85393	7838.8
2872.36264	7815.5
2874.8698	7847.2
2877.37543	7835.1
2879.87952	7823.2
2882.38207	7822.8
2884.88308	7810.2
2887.38256	7814.9
2889.88051	7803.9
2892.37692	7800.3
2894.8718	7806.3
2897.36515	7811
2899.85698	7828.1
2902.34727	7829.4
2904.83604	7819.9
2907.32328	7847.6
2909.809	7840.5
2912.29319	7834.6
2914.77587	7816.1
2917.25702	7834.6
2919.73665	7811.2
2922.21476	7840.4
2924.69136	7815.9
2927.16644	7828
2929.64	7799
2932.11205	7775.2
2934.58258	7755.1
2937.05161	7723.7
2939.51912	7748
2941.98513	7726.6
2944.44962	7695.9
2946.91261	7656.5
2949.37409	7678.2
2951.83407	7632.1
2954.29254	7638.4
2956.74951	7622.6
2959.20498	7629.4
2961.65895	7609.9
2964.11142	7612.6
2966.56239	7581.8
2969.01186	7581.6
2971.45984	7560.3
2973.90632	7553.6
2976.35131	7552.4
2978.7948	7551.1
2981.23681	7516.3
2983.67732	7502.5
2986.11635	7468
2988.55388	7460.6
2990.98993	7462.6
2993.4245	7412.5
2995.85758	7406.8
2998.28917	7387.8
3000.71928	7371.3
3003.14791	7355.9
3005.57506	7356.8
3008.00073	7324
3010.42493	7311.1
3012.84764	7297.1
3015.26888	7284.1
3017.68865	7272.7
3020.10694	7253.1
3022.52376	7256.2
3024.9391	7250.5
3027.35298	7239.3
3029.76539	7249.4
3032.17632	7222.9
3034.5858	7215.2
3036.9938	7221.2
3039.40034	7204.1
3041.80542	7217.7
3044.20903	7192.3
3046.61118	7176.4
3049.01187	7165.6
3051.4111	7156.9
3053.80888	7122.9
3056.20519	7100.7
3058.60005	7087.6
3060.99345	7077.3
3063.3854	7062.1
3065.7759	7047.5
3068.16494	7005.9
3070.55254	7015.2
3072.93868	7006.4
3075.32338	6965.1
3077.70662	6952.1
3080.08842	6943.3
3082.46878	6915.2
3084.84769	6918.1
3087.22515	6908.3
3089.60118	6908.9
3091.97576	6905
3094.3489	6896.5
3096.72061	6913
3099.09087	6913.3
3101.4597	6887.2
3103.82709	6880.6
3106.19305	6887.8
3108.55757	6866.4
3110.92066	6849.7
3113.28232	6856.3
3115.64255	6827.6
3118.00134	6818.2
3120.35871	6813.4
3122.71466	6806.8
3125.06917	6804.3
3127.42226	6774.4
3129.77393	6774.4
3132.12417	6766.5
3134.47299	6775.6
3136.82039	6792.2
3139.16636	6770.6
3141.51092	6772.9
3143.85406	6766.7
3146.19579	6763.6
3148.53609	6751.9
3150.87499	6767.1
3153.21246	6778
3155.54853	6810.8
3157.88318	6776.9
3160.21642	6806.4
3162.54826	6785.8
3164.87868	6796.9
3167.2077	6795.7
3169.5353	6805.7
3171.86151	6798.1
3174.18631	6786.4
3176.5097	6786.8
3178.83169	6776
3181.15228	6771.5
3183.47147	6760.6
3185.78926	6756
3188.10565	6742.3
3190.42065	6763.7
3192.73424	6747.5
3195.04645	6748.1
3197.35725	6725.2
3199.66667	6741.1
3201.97469	6761.3
3204.28132	6756
3206.58656	6765.7
3208.8904	6769.8
3211.19287	6766.6
3213.49394	6763.2
3215.79363	6759.6
3218.09193	6778.8
3220.38884	6758.7
3222.68438	6776.4
3224.97853	6784.6
3227.2713	6772.4
3229.56269	6771.4
3231.8527	6751.7
3234.14133	6716.9
3236.42858	6751.9
3238.71446	6712.9
3240.99896	6706.3
3243.28209	6699.6
3245.56384	6684.9
3247.84423	6683.9
3250.12324	6681.1
3252.40088	6664.4
3254.67715	6648.8
3256.95205	6658.4
3259.22558	6644.1
3261.49775	6622.6
3263.76855	6648.6
3266.03799	6615.7
3268.30606	6625.4
3270.57277	6615.6
3272.83812	6580.1
3275.10211	6573.6
3277.36474	6585.3
3279.62601	6567.8
3281.88593	6524.3
3284.14448	6535.5
3286.40168	6531.6
3288.65753	6544.4
3290.91202	6534.7
3293.16516	6517.7
3295.41695	6491.3
3297.66738	6460.2
3299.91647	6449.9
3302.16421	6408
3304.4106	6362.9
3306.65564	6326.4
3308.89933	6250.5
3311.14169	6218.6
3313.38269	6170.8
3315.62236	6131.7
3317.86068	6091.8
3320.09766	6036.7
3322.3333	6000
3324.5676	5964.3
3326.80056	5884
3329.03219	5838.4
3331.26248	3.5
3333.49143	0
3335.71905	-0.4
