Data from AgNP_FTO_APTES_UA_10uM_CRN_1uM_R6G_10uM_NaF_0.1M_Addition_RamanShift__14__13-09-00-511.txt Node

Date: Thu Feb 10 13:09:00 GMT 2022
User: TCL
Spectrometer: QEP01345
Trigger mode: 4
Integration Time (sec): 7.000000E0
Scans to average: 10
Electric dark correction enabled: true
Nonlinearity correction enabled: false
Boxcar width: 0
XAxis mode: Raman Shifts
Number of Pixels in Spectrum: 1044
>>>>>Begin Spectral Data<<<<<
46.04893	-0.0125
50.45542	0.1875
54.85868	-1.9125
59.25871	-0.1125
63.6555	76.2875
68.04907	75.8875
72.43941	84.4875
76.82654	79.7875
81.21044	86.9875
85.59113	90.0875
89.96862	96.2875
94.34289	96.5875
98.71396	98.1875
103.08183	105.9875
107.4465	109.2875
111.80798	110.0875
116.16626	112.2875
120.52136	117.9875
124.87327	122.8875
129.222	130.4875
133.56755	139.0875
137.90993	145.9875
142.24913	163.5875
146.58517	184.7875
150.91804	217.4875
155.24774	259.1875
159.57429	323.9875
163.89768	421.2875
168.21792	558.4875
172.53501	760.8875
176.84895	1063.2875
181.15975	1502.0875
185.46741	2114.0875
189.77193	2934.8875
194.07331	3920.7875
198.37157	5073.2875
202.6667	6289.0875
206.9587	7482.7875
211.24758	8648.5875
215.53334	9842.0875
219.81599	11084.3875
224.09553	12425.8875
228.37195	13902.3875
232.64527	15530.1875
236.91549	17297.3875
241.18261	19098.1875
245.44663	20765.9875
249.70755	22259.6875
253.96539	23608.1875
258.22014	24708.1875
262.4718	25603.9875
266.72039	26149.4875
270.96589	26429.7875
275.20832	26480.7875
279.44768	26241.9875
283.68397	25933.4875
287.91719	25679.9875
292.14735	25501.9875
296.37445	25395.3875
300.59849	25371.4875
304.81948	25389.5875
309.03742	25400.4875
313.25231	25284.3875
317.46415	24883.2875
321.67296	24407.4875
325.87872	24018.3875
330.08145	23855.1875
334.28114	23908.7875
338.47781	24043.1875
342.67145	24314.7875
346.86207	24655.4875
351.04966	25074.5875
355.23424	25466.5875
359.4158	25782.3875
363.59435	26120.6875
367.76989	26333.0875
371.94243	26450.9875
376.11196	26519.0875
380.27849	26604.0875
384.44203	26655.0875
388.60257	26854.9875
392.76012	27121.7875
396.91468	27471.8875
401.06626	27895.5875
405.21485	28158.4875
409.36047	28087.4875
413.50311	27766.0875
417.64277	27623.7875
421.77947	27587.7875
425.9132	27720.6875
430.04396	27925.9875
434.17176	28048.7875
438.2966	28185.3875
442.41849	28404.4875
446.53742	28853.7875
450.6534	29328.2875
454.76644	29664.8875
458.87653	29780.9875
462.98368	29750.9875
467.08789	29668.6875
471.18916	29406.3875
475.2875	29106.8875
479.38291	28896.1875
483.4754	28787.7875
487.56496	28652.0875
491.6516	28453.0875
495.73531	28239.1875
499.81612	28027.1875
503.89401	28167.7875
507.96899	28286.3875
512.04106	28370.2875
516.11023	28306.0875
520.1765	28144.4875
524.23987	27930.8875
528.30034	27700.3875
532.35792	27464.7875
536.41261	27215.9875
540.46441	27054.9875
544.51333	27055.9875
548.55936	27241.1875
552.60252	27723.5875
556.64279	28102.4875
560.6802	28438.4875
564.71473	28687.0875
568.7464	29050.1875
572.7752	29799.8875
576.80114	30656.1875
580.82422	31549.0875
584.84444	32329.0875
588.86181	33156.3875
592.87633	33947.3875
596.888	33902.8875
600.89682	32851.4875
604.9028	32564.1875
608.90594	34141.1875
612.90624	36002.5875
616.90371	34237.2875
620.89834	30060.7875
624.89015	28260.6875
628.87913	28040.4875
632.86528	28289.2875
636.84862	28391.9875
640.82913	28037.5875
644.80683	27380.1875
648.78172	26921.5875
652.75379	26817.7875
656.72306	27116.8875
660.68952	27531.1875
664.65319	27512.4875
668.61405	27148.2875
672.57211	27058.9875
676.52738	27133.2875
680.47986	27130.5875
684.42955	26976.2875
688.37646	26887.6875
692.32058	27016.1875
696.26192	27269.0875
700.20048	27540.1875
704.13626	27749.0875
708.06928	27841.1875
711.99952	27734.9875
715.927	27662.2875
719.85171	27601.9875
723.77365	27457.1875
727.69284	27185.6875
731.60928	26843.8875
735.52295	26729.2875
739.43388	26671.6875
743.34206	26751.2875
747.24749	26885.1875
751.15017	27123.7875
755.05012	27477.1875
758.94733	28111.6875
762.8418	29098.2875
766.73354	30723.4875
770.62254	32194.6875
774.50882	32494.0875
778.39237	31453.4875
782.27321	29945.9875
786.15132	28580.6875
790.02671	27661.1875
793.89938	27178.2875
797.76935	26878.3875
801.6366	26696.5875
805.50115	26636.3875
809.36299	26561.2875
813.22213	26362.9875
817.07857	26362.0875
820.93231	26284.5875
824.78336	26216.9875
828.63172	26196.1875
832.47738	26153.9875
836.32036	26068.5875
840.16066	26066.7875
843.99827	26041.0875
847.8332	26056.7875
851.66546	26097.1875
855.49504	26153.2875
859.32195	26151.5875
863.1462	26106.7875
866.96777	26059.2875
870.78668	26072.8875
874.60293	26068.2875
878.41652	26118.1875
882.22745	26178.4875
886.03573	26225.0875
889.84136	26250.7875
893.64433	26236.3875
897.44466	26182.2875
901.24235	26180.4875
905.0374	26126.8875
908.8298	26124.7875
912.61957	26099.9875
916.40671	26260.8875
920.19121	26521.0875
923.97308	26662.7875
927.75233	26729.4875
931.52895	26560.6875
935.30295	26221.2875
939.07433	25822.2875
942.84309	25514.4875
946.60924	25360.8875
950.37278	25305.9875
954.13371	25240.9875
957.89203	25237.3875
961.64774	25192.0875
965.40086	25178.4875
969.15137	25156.4875
972.89929	25112.7875
976.64461	25013.7875
980.38733	24975.0875
984.12747	24978.1875
987.86502	25047.3875
991.59999	25121.3875
995.33237	25275.4875
999.06217	25508.2875
1002.78939	25865.5875
1006.51404	26296.6875
1010.23611	26718.0875
1013.95561	27016.7875
1017.67255	27038.8875
1021.38692	26850.9875
1025.09872	26489.5875
1028.80796	26147.6875
1032.51465	26032.1875
1036.21877	25983.3875
1039.92035	26081.7875
1043.61937	26176.8875
1047.31584	26282.3875
1051.00976	26357.9875
1054.70114	26477.9875
1058.38998	26610.7875
1062.07627	26847.3875
1065.76003	27059.3875
1069.44126	27432.1875
1073.11995	27881.7875
1076.79611	28240.0875
1080.46974	28423.2875
1084.14085	28542.2875
1087.80943	28814.3875
1091.47549	29070.4875
1095.13903	29112.3875
1098.80005	28808.9875
1102.45857	28338.2875
1106.11456	27886.5875
1109.76805	27593.1875
1113.41903	27428.7875
1117.06751	27444.8875
1120.71348	27616.3875
1124.35696	27830.2875
1127.99793	28086.3875
1131.63641	28281.4875
1135.2724	28251.0875
1138.90589	28124.9875
1142.5369	28104.5875
1146.16542	28237.0875
1149.79145	28352.2875
1153.415	28543.6875
1157.03607	28747.0875
1160.65467	29199.5875
1164.27079	30060.8875
1167.88443	31217.0875
1171.49561	32562.7875
1175.10432	34191.4875
1178.71056	36108.6875
1182.31434	38026.7875
1185.91565	39231.9875
1189.51451	39526.3875
1193.11091	39212.9875
1196.70485	38243.0875
1200.29634	36889.7875
1203.88538	35847.2875
1207.47197	35161.3875
1211.05612	34694.9875
1214.63782	34175.1875
1218.21708	33400.9875
1221.79391	32560.7875
1225.36829	32080.2875
1228.94024	31767.5875
1232.50976	31588.4875
1236.07685	31440.5875
1239.6415	31326.2875
1243.20374	31267.1875
1246.76355	31391.0875
1250.32093	31595.6875
1253.8759	32048.6875
1257.42845	32853.0875
1260.97859	33640.4875
1264.52631	34508.2875
1268.07163	35295.6875
1271.61453	36063.6875
1275.15503	36826.5875
1278.69312	37637.8875
1282.22882	38405.8875
1285.76211	39352.0875
1289.29301	40341.0875
1292.82151	41552.7875
1296.34761	42934.9875
1299.87133	44617.1875
1303.39266	46344.4875
1306.9116	47972.9875
1310.42815	49361.1875
1313.94233	50122.6875
1317.45412	49963.4875
1320.96354	49490.7875
1324.47058	49235.1875
1327.97525	49099.0875
1331.47754	49115.1875
1334.97747	49220.7875
1338.47502	49283.7875
1341.97022	49470.3875
1345.46305	49521.8875
1348.95352	49481.7875
1352.44163	49312.7875
1355.92738	49258.4875
1359.41078	49760.9875
1362.89183	50337.6875
1366.37053	49502.6875
1369.84688	46557.7875
1373.32088	42810.9875
1376.79254	40102.3875
1380.26186	38883.2875
1383.72883	38470.4875
1387.19347	38186.2875
1390.65578	37774.3875
1394.11575	37486.8875
1397.57339	37559.1875
1401.0287	37755.8875
1404.48168	38013.0875
1407.93234	37955.9875
1411.38068	37385.7875
1414.82669	36497.9875
1418.27039	35451.2875
1421.71177	34465.4875
1425.15083	33754.0875
1428.58758	33436.7875
1432.02203	33638.7875
1435.45416	34245.2875
1438.88399	34831.1875
1442.31151	35337.3875
1445.73673	35579.7875
1449.15965	35823.9875
1452.58027	35993.7875
1455.9986	36191.3875
1459.41463	36488.8875
1462.82837	37010.5875
1466.23982	37561.4875
1469.64898	38017.7875
1473.05586	38204.4875
1476.46045	38247.0875
1479.86276	38117.0875
1483.26279	37957.3875
1486.66054	38041.9875
1490.05602	38294.4875
1493.44922	38902.1875
1496.84016	39741.3875
1500.22882	40825.3875
1503.61521	42116.2875
1506.99934	43502.7875
1510.38121	44285.2875
1513.76081	44285.2875
1517.13816	43371.3875
1520.51324	42155.0875
1523.88607	41210.8875
1527.25665	40727.5875
1530.62498	40362.0875
1533.99105	39891.3875
1537.35488	39301.6875
1540.71647	38418.7875
1544.07581	37488.2875
1547.4329	36572.7875
1550.78776	35919.9875
1554.14038	35469.9875
1557.49077	35324.2875
1560.83892	35399.0875
1564.18484	35437.4875
1567.52853	35614.9875
1570.86999	35865.7875
1574.20922	36304.9875
1577.54624	36569.4875
1580.88103	36623.9875
1584.2136	36621.1875
1587.54395	37155.8875
1590.87208	38285.1875
1594.19801	39803.1875
1597.52172	41236.6875
1600.84321	41435.8875
1604.16251	39980.8875
1607.47959	37827.5875
1610.79447	35476.4875
1614.10715	33170.4875
1617.41763	31131.8875
1620.7259	29842.0875
1624.03199	29120.2875
1627.33587	29014.2875
1630.63757	29632.6875
1633.93707	31138.6875
1637.23439	33682.1875
1640.52951	37383.2875
1643.82246	41624.6875
1647.11321	44957.6875
1650.40179	45552.6875
1653.68819	42864.5875
1656.97241	38104.2875
1660.25446	33392.3875
1663.53433	29797.5875
1666.81203	27457.5875
1670.08756	26023.6875
1673.36092	25101.5875
1676.63211	24484.1875
1679.90115	24102.3875
1683.16801	23820.3875
1686.43272	23538.1875
1689.69527	23337.9875
1692.95567	23168.1875
1696.2139	23131.6875
1699.46999	23034.6875
1702.72392	22958.9875
1705.97571	22910.2875
1709.22535	22852.4875
1712.47284	22819.9875
1715.71819	22761.5875
1718.96139	22719.7875
1722.20246	22612.8875
1725.44139	22559.1875
1728.67818	22419.9875
1731.91284	22263.1875
1735.14537	22169.7875
1738.37576	22089.9875
1741.60403	22022.7875
1744.83017	21946.8875
1748.05418	21886.6875
1751.27607	21815.6875
1754.49584	21825.1875
1757.71349	21751.5875
1760.92903	21758.1875
1764.14244	21759.2875
1767.35375	21737.6875
1770.56294	21678.1875
1773.77002	21636.6875
1776.97499	21590.4875
1780.17785	21537.8875
1783.37861	21517.4875
1786.57727	21452.3875
1789.77382	21418.1875
1792.96828	21359.6875
1796.16064	21301.8875
1799.3509	21299.3875
1802.53907	21238.6875
1805.72514	21201.6875
1808.90913	21164.7875
1812.09102	21096.4875
1815.27083	21032.3875
1818.44856	21035.3875
1821.6242	21020.8875
1824.79776	20949.2875
1827.96924	20983.2875
1831.13864	20968.7875
1834.30597	20969.1875
1837.47122	20982.1875
1840.6344	21018.1875
1843.7955	21042.9875
1846.95454	21045.7875
1850.11151	21007.2875
1853.26642	20984.1875
1856.41926	21010.1875
1859.57004	21055.6875
1862.71876	21016.4875
1865.86542	20999.2875
1869.01003	20966.9875
1872.15258	20920.4875
1875.29308	20895.7875
1878.43152	20813.0875
1881.56792	20767.3875
1884.70227	20741.8875
1887.83457	20647.9875
1890.96482	20622.7875
1894.09304	20563.4875
1897.21921	20543.0875
1900.34335	20466.4875
1903.46544	20448.8875
1906.58551	20413.5875
1909.70353	20384.7875
1912.81953	20307.9875
1915.93349	20315.1875
1919.04543	20255.6875
1922.15534	20156.8875
1925.26322	20130.4875
1928.36908	20081.5875
1931.47292	20056.0875
1934.57473	19996.5875
1937.67453	19961.4875
1940.77232	19910.1875
1943.86808	19833.7875
1946.96184	19751.6875
1950.05358	19673.7875
1953.14331	19629.3875
1956.23103	19566.0875
1959.31675	19478.2875
1962.40046	19447.5875
1965.48217	19374.6875
1968.56188	19277.6875
1971.63959	19208.1875
1974.7153	19180.8875
1977.78901	19112.2875
1980.86073	19058.7875
1983.93046	18965.0875
1986.99819	18945.3875
1990.06394	18871.8875
1993.1277	18802.8875
1996.18947	18750.7875
1999.24925	18710.7875
2002.30706	18622.9875
2005.36288	18583.5875
2008.41672	18516.6875
2011.46859	18469.7875
2014.51848	18447.4875
2017.56639	18363.2875
2020.61233	18339.4875
2023.6563	18296.7875
2026.6983	18224.2875
2029.73833	18202.8875
2032.7764	18132.8875
2035.8125	18060.8875
2038.84664	18005.7875
2041.87881	17965.8875
2044.90903	17947.2875
2047.93729	17889.4875
2050.96359	17886.1875
2053.98794	17851.4875
2057.01034	17824.9875
2060.03078	17785.4875
2063.04927	17797.9875
2066.06582	17789.0875
2069.08042	17737.3875
2072.09307	17755.7875
2075.10378	17698.0875
2078.11255	17737.1875
2081.11938	17733.3875
2084.12426	17692.2875
2087.12722	17688.1875
2090.12824	17663.9875
2093.12732	17677.0875
2096.12447	17642.1875
2099.11969	17652.3875
2102.11299	17667.7875
2105.10435	17638.5875
2108.09379	17673.2875
2111.08131	17683.9875
2114.0669	17641.5875
2117.05057	17670.2875
2120.03233	17674.1875
2123.01216	17729.1875
2125.99008	17716.5875
2128.96609	17759.8875
2131.94018	17734.1875
2134.91236	17764.9875
2137.88263	17753.4875
2140.851	17749.8875
2143.81746	17745.5875
2146.78201	17746.6875
2149.74466	17723.9875
2152.7054	17720.8875
2155.66425	17711.1875
2158.6212	17703.3875
2161.57625	17642.7875
2164.52941	17653.1875
2167.48067	17633.3875
2170.43004	17640.5875
2173.37752	17630.7875
2176.32311	17641.2875
2179.26681	17639.5875
2182.20863	17641.6875
2185.14856	17589.4875
2188.08661	17606.6875
2191.02278	17589.7875
2193.95707	17607.9875
2196.88948	17566.1875
2199.82001	17546.6875
2202.74867	17545.7875
2205.67545	17536.9875
2208.60037	17475.0875
2211.52341	17449.6875
2214.44458	17428.6875
2217.36388	17389.3875
2220.28132	17336.8875
2223.1969	17286.3875
2226.11061	17263.1875
2229.02246	17215.7875
2231.93245	17215.2875
2234.84058	17189.7875
2237.74686	17148.7875
2240.65128	17130.8875
2243.55385	17066.0875
2246.45456	17074.3875
2249.35343	17075.0875
2252.25044	17035.7875
2255.14561	16956.7875
2258.03893	16936.3875
2260.93041	16941.1875
2263.82004	16847.5875
2266.70783	16828.5875
2269.59378	16771.5875
2272.4779	16760.5875
2275.36017	16681.1875
2278.24061	16670.8875
2281.11922	16670.3875
2283.996	16612.8875
2286.87094	16572.9875
2289.74405	16534.9875
2292.61534	16486.9875
2295.4848	16509.6875
2298.35243	16501.3875
2301.21824	16495.4875
2304.08223	16467.5875
2306.94439	16459.7875
2309.80474	16475.4875
2312.66327	16428.2875
2315.51999	16391.0875
2318.37489	16367.7875
2321.22797	16373.7875
2324.07925	16340.5875
2326.92871	16283.3875
2329.77637	16274.3875
2332.62222	16231.8875
2335.46626	16214.3875
2338.3085	16177.7875
2341.14893	16193.4875
2343.98756	16207.4875
2346.8244	16188.3875
2349.65943	16170.7875
2352.49267	16142.6875
2355.32411	16159.4875
2358.15376	16167.3875
2360.98161	16198.8875
2363.80768	16143.7875
2366.63195	16138.4875
2369.45444	16109.1875
2372.27514	16100.2875
2375.09405	16098.4875
2377.91118	16065.3875
2380.72652	16001.1875
2383.54009	15994.6875
2386.35187	15937.5875
2389.16188	15881.4875
2391.97011	15853.9875
2394.77657	15807.6875
2397.58125	15761.8875
2400.38416	15745.8875
2403.18529	15739.5875
2405.98466	15689.7875
2408.78226	15666.6875
2411.57809	15654.8875
2414.37216	15646.9875
2417.16446	15632.0875
2419.955	15594.5875
2422.74378	15616.5875
2425.5308	15583.3875
2428.31606	15604.5875
2431.09956	15575.8875
2433.88131	15541.1875
2436.6613	15596.3875
2439.43954	15569.9875
2442.21603	15546.9875
2444.99077	15502.0875
2447.76377	15485.8875
2450.53501	15461.5875
2453.30451	15448.4875
2456.07226	15438.2875
2458.83827	15449.4875
2461.60254	15435.5875
2464.36507	15437.1875
2467.12586	15398.4875
2469.88492	15366.5875
2472.64224	15377.3875
2475.39782	15394.2875
2478.15167	15396.2875
2480.90379	15343.7875
2483.65417	15368.4875
2486.40283	15344.0875
2489.14976	15363.3875
2491.89497	15332.2875
2494.63845	15332.3875
2497.3802	15287.6875
2500.12024	15309.0875
2502.85855	15294.6875
2505.59514	15267.3875
2508.33002	15228.6875
2511.06318	15216.0875
2513.79462	15224.5875
2516.52435	15197.4875
2519.25237	15182.9875
2521.97867	15164.2875
2524.70327	15175.8875
2527.42616	15159.4875
2530.14734	15144.9875
2532.86681	15121.1875
2535.58458	15107.3875
2538.30065	15091.1875
2541.01501	15109.4875
2543.72768	15082.4875
2546.43864	15046.8875
2549.14791	15025.4875
2551.85548	14985.7875
2554.56136	14983.5875
2557.26554	14929.5875
2559.96803	14872.4875
2562.66883	14862.1875
2565.36794	14828.0875
2568.06536	14841.6875
2570.7611	14802.8875
2573.45514	14776.7875
2576.14751	14786.0875
2578.83819	14748.4875
2581.52719	14736.0875
2584.21451	14692.7875
2586.90015	14656.9875
2589.58411	14666.5875
2592.2664	14624.5875
2594.94701	14619.6875
2597.62594	14587.2875
2600.30321	14587.7875
2602.9788	14570.1875
2605.65273	14557.9875
2608.32498	14536.2875
2610.99557	14533.4875
2613.66449	14540.9875
2616.33175	14497.5875
2618.99734	14462.6875
2621.66128	14462.0875
2624.32355	14427.5875
2626.98416	14395.6875
2629.64311	14365.6875
2632.30041	14370.3875
2634.95605	14360.2875
2637.61004	14326.1875
2640.26238	14340.1875
2642.91306	14350.3875
2645.56209	14357.8875
2648.20948	14360.9875
2650.85521	14353.5875
2653.4993	14319.7875
2656.14175	14319.6875
2658.78255	14320.9875
2661.42171	14322.3875
2664.05923	14353.7875
2666.6951	14322.7875
2669.32934	14335.2875
2671.96194	14313.5875
2674.59291	14345.1875
2677.22224	14354.4875
2679.84993	14322.2875
2682.476	14326.2875
2685.10043	14322.3875
2687.72324	14289.6875
2690.34441	14303.0875
2692.96396	14295.6875
2695.58188	14282.1875
2698.19818	14310.2875
2700.81285	14296.0875
2703.4259	14287.1875
2706.03733	14282.6875
2708.64714	14250.5875
2711.25533	14293.7875
2713.86191	14266.5875
2716.46687	14296.6875
2719.07021	14308.8875
2721.67194	14306.3875
2724.27206	14319.7875
2726.87057	14314.2875
2729.46747	14317.0875
2732.06276	14326.0875
2734.65644	14319.8875
2737.24852	14305.1875
2739.83899	14282.0875
2742.42786	14278.4875
2745.01513	14254.1875
2747.60079	14245.8875
2750.18486	14210.9875
2752.76733	14197.0875
2755.3482	14216.3875
2757.92747	14207.3875
2760.50515	14166.5875
2763.08123	14148.2875
2765.65573	14090.2875
2768.22863	14126.7875
2770.79994	14091.1875
2773.36967	14095.9875
2775.9378	14058.6875
2778.50435	14024.1875
2781.06932	14030.8875
2783.6327	14061.1875
2786.1945	14012.1875
2788.75471	13987.5875
2791.31335	13945.7875
2793.87041	13964.5875
2796.42589	13923.7875
2798.97979	13915.7875
2801.53212	13874.1875
2804.08288	13856.0875
2806.63206	13809.2875
2809.17967	13771.7875
2811.72571	13728.2875
2814.27018	13755.9875
2816.81308	13690.2875
2819.35442	13661.0875
2821.89419	13623.3875
2824.43239	13609.5875
2826.96904	13658.2875
2829.50412	13583.8875
2832.03763	13553.9875
2834.56959	13557.0875
2837.1	13537.0875
2839.62884	13575.1875
2842.15613	13570.8875
2844.68186	13532.0875
2847.20604	13518.2875
2849.72867	13558.4875
2852.24974	13547.2875
2854.76927	13483.0875
2857.28724	13472.7875
2859.80367	13463.0875
2862.31855	13413.2875
2864.83189	13424.4875
2867.34368	13381.1875
2869.85393	13390.0875
2872.36264	13378.1875
2874.8698	13339.5875
2877.37543	13332.6875
2879.87952	13338.5875
2882.38207	13340.9875
2884.88308	13328.8875
2887.38256	13290.1875
2889.88051	13292.4875
2892.37692	13299.7875
2894.8718	13296.6875
2897.36515	13327.8875
2899.85698	13325.4875
2902.34727	13307.6875
2904.83604	13329.3875
2907.32328	13338.0875
2909.809	13309.4875
2912.29319	13334.9875
2914.77587	13311.8875
2917.25702	13287.2875
2919.73665	13277.4875
2922.21476	13293.2875
2924.69136	13280.2875
2927.16644	13251.3875
2929.64	13221.7875
2932.11205	13264.9875
2934.58258	13233.7875
2937.05161	13235.4875
2939.51912	13207.2875
2941.98513	13196.1875
2944.44962	13167.9875
2946.91261	13093.8875
2949.37409	13123.5875
2951.83407	13131.0875
2954.29254	13119.4875
2956.74951	13083.7875
2959.20498	13079.6875
2961.65895	13075.8875
2964.11142	13066.9875
2966.56239	13066.5875
2969.01186	13050.3875
2971.45984	13005.5875
2973.90632	13022.1875
2976.35131	12971.4875
2978.7948	12958.5875
2981.23681	12924.1875
2983.67732	12881.2875
2986.11635	12852.9875
2988.55388	12849.0875
2990.98993	12786.7875
2993.4245	12782.3875
2995.85758	12753.1875
2998.28917	12690.4875
3000.71928	12668.8875
3003.14791	12641.9875
3005.57506	12625.5875
3008.00073	12604.4875
3010.42493	12467.8875
3012.84764	12548.0875
3015.26888	12542.5875
3017.68865	12418.6875
3020.10694	12445.6875
3022.52376	12431.6875
3024.9391	12429.7875
3027.35298	12379.4875
3029.76539	12376.8875
3032.17632	12350.9875
3034.5858	12317.5875
3036.9938	12344.3875
3039.40034	12339.0875
3041.80542	12278.8875
3044.20903	12289.9875
3046.61118	12261.9875
3049.01187	12241.2875
3051.4111	12199.0875
3053.80888	12175.1875
3056.20519	12159.1875
3058.60005	12118.9875
3060.99345	12114.5875
3063.3854	12090.7875
3065.7759	12040.1875
3068.16494	12010.8875
3070.55254	11983.6875
3072.93868	11941.5875
3075.32338	11941.1875
3077.70662	11920.1875
3080.08842	11857.9875
3082.46878	11871.3875
3084.84769	11816.2875
3087.22515	11831.7875
3089.60118	11841.3875
3091.97576	11820.5875
3094.3489	11765.0875
3096.72061	11761.9875
3099.09087	11802.9875
3101.4597	11787.2875
3103.82709	11788.3875
3106.19305	11773.8875
3108.55757	11742.9875
3110.92066	11712.6875
3113.28232	11677.5875
3115.64255	11666.5875
3118.00134	11641.3875
3120.35871	11591.5875
3122.71466	11582.7875
3125.06917	11549.3875
3127.42226	11512.1875
3129.77393	11488.2875
3132.12417	11495.7875
3134.47299	11484.5875
3136.82039	11459.1875
3139.16636	11484.1875
3141.51092	11498.8875
3143.85406	11466.4875
3146.19579	11450.0875
3148.53609	11436.3875
3150.87499	11447.3875
3153.21246	11470.2875
3155.54853	11475.5875
3157.88318	11436.0875
3160.21642	11452.1875
3162.54826	11449.6875
3164.87868	11459.4875
3167.2077	11466.1875
3169.5353	11466.1875
3171.86151	11445.5875
3174.18631	11424.5875
3176.5097	11400.8875
3178.83169	11391.8875
3181.15228	11377.6875
3183.47147	11345.9875
3185.78926	11348.0875
3188.10565	11351.9875
3190.42065	11285.0875
3192.73424	11310.2875
3195.04645	11272.9875
3197.35725	11233.4875
3199.66667	11237.7875
3201.97469	11272.0875
3204.28132	11238.8875
3206.58656	11266.8875
3208.8904	11260.9875
3211.19287	11247.2875
3213.49394	11271.8875
3215.79363	11261.1875
3218.09193	11248.0875
3220.38884	11233.2875
3222.68438	11236.6875
3224.97853	11252.4875
3227.2713	11241.6875
3229.56269	11216.7875
3231.8527	11198.7875
3234.14133	11178.5875
3236.42858	11136.1875
3238.71446	11125.6875
3240.99896	11090.8875
3243.28209	11082.6875
3245.56384	11020.4875
3247.84423	11056.9875
3250.12324	11015.3875
3252.40088	11017.6875
3254.67715	11003.5875
3256.95205	10975.1875
3259.22558	10994.9875
3261.49775	10956.0875
3263.76855	10965.9875
3266.03799	10932.3875
3268.30606	10897.4875
3270.57277	10865.3875
3272.83812	10856.5875
3275.10211	10831.0875
3277.36474	10800.4875
3279.62601	10810.3875
3281.88593	10779.2875
3284.14448	10818.4875
3286.40168	10789.3875
3288.65753	10798.4875
3290.91202	10781.9875
3293.16516	10732.9875
3295.41695	10718.6875
3297.66738	10642.2875
3299.91647	10614.3875
3302.16421	10533.5875
3304.4106	10474.7875
3306.65564	10392.2875
3308.89933	10315.0875
3311.14169	10254.8875
3313.38269	10165.2875
3315.62236	10085.2875
3317.86068	9989.7875
3320.09766	9910.2875
3322.3333	9826.2875
3324.5676	9764.6875
3326.80056	9608.7875
3329.03219	9553.9875
3331.26248	4.8875
3333.49143	-0.4125
3335.71905	-1.3125
