Data from AgNP_FTO_APTES_UA_10uM_CRN_20uM_R6G_10uM_NaF_0.1M_Addition_RamanShift__5__16-08-40-737.txt Node

Date: Thu Feb 10 16:08:40 GMT 2022
User: TCL
Spectrometer: QEP01345
Trigger mode: 4
Integration Time (sec): 7.000000E0
Scans to average: 10
Electric dark correction enabled: true
Nonlinearity correction enabled: false
Boxcar width: 0
XAxis mode: Raman Shifts
Number of Pixels in Spectrum: 1044
>>>>>Begin Spectral Data<<<<<
46.04893	-0.3125
50.45542	0.0875
54.85868	-2.3125
59.25871	-0.3125
63.6555	75.1875
68.04907	76.2875
72.43941	81.2875
76.82654	80.8875
81.21044	85.3875
85.59113	87.5875
89.96862	91.1875
94.34289	96.0875
98.71396	96.9875
103.08183	99.6875
107.4465	104.8875
111.80798	103.4875
116.16626	108.8875
120.52136	116.8875
124.87327	118.2875
129.222	124.3875
133.56755	133.6875
137.90993	143.4875
142.24913	149.3875
146.58517	170.7875
150.91804	200.8875
155.24774	236.1875
159.57429	299.1875
163.89768	372.2875
168.21792	499.7875
172.53501	679.9875
176.84895	949.2875
181.15975	1337.1875
185.46741	1859.5875
189.77193	2588.0875
194.07331	3443.4875
198.37157	4403.6875
202.6667	5462.3875
206.9587	6472.1875
211.24758	7473.9875
215.53334	8498.4875
219.81599	9545.0875
224.09553	10756.4875
228.37195	12027.0875
232.64527	13444.2875
236.91549	14923.4875
241.18261	16400.4875
245.44663	17754.6875
249.70755	18999.2875
253.96539	20058.8875
258.22014	21038.6875
262.4718	21828.5875
266.72039	22333.6875
270.96589	22641.1875
275.20832	22717.5875
279.44768	22633.8875
283.68397	22511.8875
287.91719	22299.7875
292.14735	22166.9875
296.37445	22183.6875
300.59849	22275.0875
304.81948	22367.0875
309.03742	22358.5875
313.25231	22177.9875
317.46415	21805.8875
321.67296	21344.6875
325.87872	20953.2875
330.08145	20771.6875
334.28114	20731.7875
338.47781	20836.2875
342.67145	21093.7875
346.86207	21395.4875
351.04966	21784.2875
355.23424	22176.1875
359.4158	22524.9875
363.59435	22819.5875
367.76989	23022.2875
371.94243	23187.6875
376.11196	23297.0875
380.27849	23389.8875
384.44203	23521.5875
388.60257	23730.1875
392.76012	23963.9875
396.91468	24326.9875
401.06626	24687.9875
405.21485	24893.1875
409.36047	24833.2875
413.50311	24618.7875
417.64277	24538.1875
421.77947	24652.6875
425.9132	24811.0875
430.04396	24939.4875
434.17176	25066.6875
438.2966	25205.1875
442.41849	25583.9875
446.53742	26292.9875
450.6534	27115.3875
454.76644	27755.8875
458.87653	27919.7875
462.98368	27724.8875
467.08789	27336.8875
471.18916	26847.5875
475.2875	26380.4875
479.38291	26151.9875
483.4754	26010.6875
487.56496	25761.4875
491.6516	25335.1875
495.73531	24985.1875
499.81612	24775.8875
503.89401	24848.6875
507.96899	25018.2875
512.04106	24976.7875
516.11023	24789.5875
520.1765	24485.3875
524.23987	24221.7875
528.30034	24031.7875
532.35792	23801.2875
536.41261	23516.8875
540.46441	23290.3875
544.51333	23298.6875
548.55936	23571.3875
552.60252	24057.8875
556.64279	24666.2875
560.6802	25159.8875
564.71473	25466.9875
568.7464	25868.9875
572.7752	26682.6875
576.80114	27481.9875
580.82422	28330.5875
584.84444	29371.9875
588.86181	30551.4875
592.87633	31412.8875
596.888	30959.6875
600.89682	29653.9875
604.9028	29336.2875
608.90594	30815.6875
612.90624	32297.5875
616.90371	30220.5875
620.89834	26053.0875
624.89015	24374.3875
628.87913	24189.4875
632.86528	24197.3875
636.84862	24061.5875
640.82913	23597.3875
644.80683	23101.1875
648.78172	22740.0875
652.75379	22811.3875
656.72306	23056.3875
660.68952	23353.8875
664.65319	23131.7875
668.61405	22803.0875
672.57211	22789.6875
676.52738	22885.4875
680.47986	22883.3875
684.42955	22690.3875
688.37646	22636.6875
692.32058	22835.8875
696.26192	23154.4875
700.20048	23540.5875
704.13626	23682.5875
708.06928	23692.4875
711.99952	23543.7875
715.927	23570.0875
719.85171	23687.1875
723.77365	23630.4875
727.69284	23284.3875
731.60928	22954.5875
735.52295	22802.3875
739.43388	22810.6875
743.34206	22869.8875
747.24749	23018.6875
751.15017	23285.3875
755.05012	23742.0875
758.94733	24400.5875
762.8418	25427.3875
766.73354	26957.8875
770.62254	28172.9875
774.50882	28258.3875
778.39237	27001.9875
782.27321	25378.7875
786.15132	24147.8875
790.02671	23368.5875
793.89938	22973.1875
797.76935	22913.9875
801.6366	22852.7875
805.50115	22798.3875
809.36299	22682.9875
813.22213	22499.2875
817.07857	22393.5875
820.93231	22282.2875
824.78336	22161.3875
828.63172	22084.1875
832.47738	22015.1875
836.32036	22074.4875
840.16066	22193.7875
843.99827	22242.9875
847.8332	22180.7875
851.66546	22136.6875
855.49504	22153.4875
859.32195	22189.8875
863.1462	22057.2875
866.96777	22009.3875
870.78668	21907.4875
874.60293	21931.6875
878.41652	21943.6875
882.22745	21988.3875
886.03573	22031.5875
889.84136	22032.6875
893.64433	21921.8875
897.44466	21857.8875
901.24235	21764.5875
905.0374	21724.1875
908.8298	21713.9875
912.61957	21801.3875
916.40671	22028.9875
920.19121	22417.4875
923.97308	22679.8875
927.75233	22694.6875
931.52895	22442.2875
935.30295	22075.5875
939.07433	21717.8875
942.84309	21450.6875
946.60924	21369.2875
950.37278	21397.5875
954.13371	21343.2875
957.89203	21282.8875
961.64774	21216.6875
965.40086	21219.8875
969.15137	21187.1875
972.89929	21098.7875
976.64461	21056.7875
980.38733	21040.1875
984.12747	21132.5875
987.86502	21303.0875
991.59999	21515.7875
995.33237	21890.0875
999.06217	22454.0875
1002.78939	23133.8875
1006.51404	23648.0875
1010.23611	24007.2875
1013.95561	24246.0875
1017.67255	24232.3875
1021.38692	23923.8875
1025.09872	23622.1875
1028.80796	23676.5875
1032.51465	24172.2875
1036.21877	24779.3875
1039.92035	24946.9875
1043.61937	24672.1875
1047.31584	24183.3875
1051.00976	23664.1875
1054.70114	23376.4875
1058.38998	23332.6875
1062.07627	23420.4875
1065.76003	23592.4875
1069.44126	23743.7875
1073.11995	24068.5875
1076.79611	24432.4875
1080.46974	24603.5875
1084.14085	24848.4875
1087.80943	25110.3875
1091.47549	25308.7875
1095.13903	25255.9875
1098.80005	24929.4875
1102.45857	24467.8875
1106.11456	24051.0875
1109.76805	23927.2875
1113.41903	23918.0875
1117.06751	24027.9875
1120.71348	24174.3875
1124.35696	24355.4875
1127.99793	24603.8875
1131.63641	24767.9875
1135.2724	24796.4875
1138.90589	24779.0875
1142.5369	24870.6875
1146.16542	25028.3875
1149.79145	25304.9875
1153.415	25628.0875
1157.03607	26124.4875
1160.65467	27031.0875
1164.27079	28506.3875
1167.88443	30050.0875
1171.49561	31675.9875
1175.10432	33612.2875
1178.71056	36048.9875
1182.31434	38393.2875
1185.91565	39533.2875
1189.51451	39284.7875
1193.11091	38272.8875
1196.70485	36933.3875
1200.29634	35722.6875
1203.88538	35007.3875
1207.47197	34715.6875
1211.05612	34416.1875
1214.63782	33746.4875
1218.21708	32774.4875
1221.79391	31905.4875
1225.36829	31157.9875
1228.94024	30577.7875
1232.50976	30022.5875
1236.07685	29491.7875
1239.6415	29224.9875
1243.20374	29296.4875
1246.76355	29552.3875
1250.32093	30119.7875
1253.8759	30853.2875
1257.42845	31736.5875
1260.97859	32647.6875
1264.52631	33632.8875
1268.07163	34655.0875
1271.61453	35778.4875
1275.15503	36977.5875
1278.69312	38127.1875
1282.22882	39169.0875
1285.76211	40428.2875
1289.29301	41959.5875
1292.82151	43955.7875
1296.34761	46517.5875
1299.87133	49637.4875
1303.39266	52876.4875
1306.9116	55789.4875
1310.42815	57617.2875
1313.94233	58305.8875
1317.45412	57698.9875
1320.96354	56634.9875
1324.47058	55867.5875
1327.97525	55293.7875
1331.47754	54920.1875
1334.97747	54682.3875
1338.47502	54150.3875
1341.97022	53216.7875
1345.46305	51896.3875
1348.95352	50783.9875
1352.44163	50322.0875
1355.92738	51149.9875
1359.41078	52968.2875
1362.89183	54266.8875
1366.37053	53019.0875
1369.84688	48969.0875
1373.32088	44013.9875
1376.79254	40719.8875
1380.26186	39717.4875
1383.72883	40117.9875
1387.19347	40364.8875
1390.65578	40143.2875
1394.11575	40182.0875
1397.57339	40819.9875
1401.0287	41744.9875
1404.48168	42509.2875
1407.93234	42632.6875
1411.38068	41810.8875
1414.82669	40288.8875
1418.27039	38425.4875
1421.71177	36597.5875
1425.15083	35147.0875
1428.58758	34446.6875
1432.02203	34872.4875
1435.45416	36007.8875
1438.88399	37389.3875
1442.31151	38501.0875
1445.73673	39004.9875
1449.15965	39357.8875
1452.58027	39298.3875
1455.9986	39125.1875
1459.41463	39238.9875
1462.82837	39704.3875
1466.23982	40421.0875
1469.64898	41260.0875
1473.05586	41621.2875
1476.46045	41637.9875
1479.86276	41244.6875
1483.26279	40619.8875
1486.66054	40267.1875
1490.05602	40238.9875
1493.44922	40278.5875
1496.84016	40432.5875
1500.22882	40708.6875
1503.61521	41254.2875
1506.99934	41991.5875
1510.38121	42628.4875
1513.76081	42701.2875
1517.13816	42085.3875
1520.51324	41227.3875
1523.88607	40752.4875
1527.25665	40773.4875
1530.62498	41161.9875
1533.99105	41304.1875
1537.35488	41032.8875
1540.71647	40259.4875
1544.07581	39106.3875
1547.4329	37931.2875
1550.78776	36883.6875
1554.14038	36164.6875
1557.49077	35691.2875
1560.83892	35304.0875
1564.18484	35059.7875
1567.52853	35123.7875
1570.86999	35401.9875
1574.20922	36120.5875
1577.54624	36925.4875
1580.88103	37565.6875
1584.2136	38463.4875
1587.54395	40241.2875
1590.87208	42854.0875
1594.19801	45771.4875
1597.52172	48227.7875
1600.84321	48502.3875
1604.16251	45837.9875
1607.47959	41656.3875
1610.79447	37369.4875
1614.10715	33772.4875
1617.41763	31038.9875
1620.7259	29364.3875
1624.03199	28676.0875
1627.33587	28862.5875
1630.63757	29941.2875
1633.93707	32138.2875
1637.23439	35676.4875
1640.52951	40637.0875
1643.82246	46149.2875
1647.11321	50045.0875
1650.40179	49878.6875
1653.68819	45344.1875
1656.97241	38706.6875
1660.25446	32757.9875
1663.53433	28548.3875
1666.81203	25873.2875
1670.08756	24185.6875
1673.36092	23125.0875
1676.63211	22426.3875
1679.90115	21934.9875
1683.16801	21579.6875
1686.43272	21348.2875
1689.69527	21146.1875
1692.95567	21013.5875
1696.2139	20906.0875
1699.46999	20835.7875
1702.72392	20741.7875
1705.97571	20668.2875
1709.22535	20570.8875
1712.47284	20572.3875
1715.71819	20535.8875
1718.96139	20478.0875
1722.20246	20404.3875
1725.44139	20323.6875
1728.67818	20213.3875
1731.91284	20054.0875
1735.14537	19944.6875
1738.37576	19857.5875
1741.60403	19784.7875
1744.83017	19708.9875
1748.05418	19659.5875
1751.27607	19651.1875
1754.49584	19621.3875
1757.71349	19575.8875
1760.92903	19560.8875
1764.14244	19547.6875
1767.35375	19540.8875
1770.56294	19491.0875
1773.77002	19466.2875
1776.97499	19451.5875
1780.17785	19374.4875
1783.37861	19395.5875
1786.57727	19318.5875
1789.77382	19309.0875
1792.96828	19281.5875
1796.16064	19259.1875
1799.3509	19198.9875
1802.53907	19190.1875
1805.72514	19111.5875
1808.90913	19054.7875
1812.09102	19033.9875
1815.27083	19000.0875
1818.44856	18983.8875
1821.6242	18955.4875
1824.79776	18956.0875
1827.96924	18883.3875
1831.13864	18944.6875
1834.30597	18976.3875
1837.47122	18954.2875
1840.6344	18909.1875
1843.7955	18938.2875
1846.95454	18941.4875
1850.11151	18936.7875
1853.26642	18915.2875
1856.41926	18912.4875
1859.57004	18911.2875
1862.71876	18856.2875
1865.86542	18805.2875
1869.01003	18813.3875
1872.15258	18830.1875
1875.29308	18816.9875
1878.43152	18776.8875
1881.56792	18751.9875
1884.70227	18776.6875
1887.83457	18733.9875
1890.96482	18730.1875
1894.09304	18695.7875
1897.21921	18691.8875
1900.34335	18627.4875
1903.46544	18628.1875
1906.58551	18611.6875
1909.70353	18624.5875
1912.81953	18566.6875
1915.93349	18561.8875
1919.04543	18492.7875
1922.15534	18466.8875
1925.26322	18432.2875
1928.36908	18393.0875
1931.47292	18352.0875
1934.57473	18309.6875
1937.67453	18291.4875
1940.77232	18265.8875
1943.86808	18164.2875
1946.96184	18125.9875
1950.05358	18080.6875
1953.14331	18019.7875
1956.23103	18015.1875
1959.31675	17928.2875
1962.40046	17911.0875
1965.48217	17827.6875
1968.56188	17796.8875
1971.63959	17726.4875
1974.7153	17693.2875
1977.78901	17633.2875
1980.86073	17567.7875
1983.93046	17540.9875
1986.99819	17507.5875
1990.06394	17444.8875
1993.1277	17416.0875
1996.18947	17341.5875
1999.24925	17306.2875
2002.30706	17266.9875
2005.36288	17214.9875
2008.41672	17163.3875
2011.46859	17132.9875
2014.51848	17088.8875
2017.56639	17083.0875
2020.61233	17030.9875
2023.6563	16994.4875
2026.6983	16928.9875
2029.73833	16919.9875
2032.7764	16918.9875
2035.8125	16899.0875
2038.84664	16821.1875
2041.87881	16822.3875
2044.90903	16757.9875
2047.93729	16776.5875
2050.96359	16751.9875
2053.98794	16731.4875
2057.01034	16691.5875
2060.03078	16682.3875
2063.04927	16662.5875
2066.06582	16694.4875
2069.08042	16691.9875
2072.09307	16660.1875
2075.10378	16657.9875
2078.11255	16650.9875
2081.11938	16631.9875
2084.12426	16637.2875
2087.12722	16625.6875
2090.12824	16615.7875
2093.12732	16589.6875
2096.12447	16590.4875
2099.11969	16601.9875
2102.11299	16575.1875
2105.10435	16619.4875
2108.09379	16639.3875
2111.08131	16622.9875
2114.0669	16628.9875
2117.05057	16642.4875
2120.03233	16646.4875
2123.01216	16684.0875
2125.99008	16713.8875
2128.96609	16708.5875
2131.94018	16721.1875
2134.91236	16762.1875
2137.88263	16720.7875
2140.851	16754.1875
2143.81746	16772.2875
2146.78201	16766.3875
2149.74466	16771.0875
2152.7054	16765.7875
2155.66425	16781.7875
2158.6212	16784.5875
2161.57625	16769.8875
2164.52941	16779.6875
2167.48067	16743.8875
2170.43004	16777.5875
2173.37752	16734.1875
2176.32311	16721.0875
2179.26681	16747.2875
2182.20863	16760.0875
2185.14856	16770.3875
2188.08661	16772.2875
2191.02278	16772.1875
2193.95707	16755.8875
2196.88948	16763.3875
2199.82001	16789.7875
2202.74867	16748.0875
2205.67545	16734.0875
2208.60037	16708.9875
2211.52341	16711.1875
2214.44458	16719.5875
2217.36388	16647.1875
2220.28132	16637.0875
2223.1969	16627.7875
2226.11061	16602.3875
2229.02246	16560.8875
2231.93245	16533.3875
2234.84058	16500.4875
2237.74686	16490.7875
2240.65128	16461.7875
2243.55385	16447.1875
2246.45456	16438.1875
2249.35343	16406.6875
2252.25044	16375.4875
2255.14561	16342.4875
2258.03893	16318.8875
2260.93041	16275.6875
2263.82004	16245.4875
2266.70783	16191.8875
2269.59378	16157.7875
2272.4779	16109.2875
2275.36017	16087.7875
2278.24061	16069.0875
2281.11922	16051.6875
2283.996	16056.9875
2286.87094	16028.2875
2289.74405	16067.5875
2292.61534	16015.7875
2295.4848	16023.8875
2298.35243	16025.0875
2301.21824	16044.0875
2304.08223	16021.8875
2306.94439	16052.7875
2309.80474	16056.4875
2312.66327	16059.4875
2315.51999	16078.8875
2318.37489	16040.4875
2321.22797	16017.0875
2324.07925	16029.9875
2326.92871	15995.7875
2329.77637	15975.4875
2332.62222	15946.1875
2335.46626	15948.2875
2338.3085	15936.9875
2341.14893	15974.4875
2343.98756	16002.2875
2346.8244	15963.6875
2349.65943	15977.0875
2352.49267	15944.0875
2355.32411	15977.5875
2358.15376	15935.4875
2360.98161	15942.1875
2363.80768	15970.1875
2366.63195	15902.4875
2369.45444	15875.9875
2372.27514	15868.7875
2375.09405	15837.1875
2377.91118	15792.7875
2380.72652	15782.5875
2383.54009	15771.6875
2386.35187	15759.7875
2389.16188	15694.0875
2391.97011	15667.4875
2394.77657	15644.0875
2397.58125	15649.9875
2400.38416	15649.3875
2403.18529	15611.9875
2405.98466	15568.5875
2408.78226	15558.9875
2411.57809	15535.7875
2414.37216	15543.3875
2417.16446	15532.9875
2419.955	15499.9875
2422.74378	15481.3875
2425.5308	15486.3875
2428.31606	15487.3875
2431.09956	15493.3875
2433.88131	15449.0875
2436.6613	15456.8875
2439.43954	15466.8875
2442.21603	15475.1875
2444.99077	15482.5875
2447.76377	15464.8875
2450.53501	15435.0875
2453.30451	15445.9875
2456.07226	15453.1875
2458.83827	15458.1875
2461.60254	15469.8875
2464.36507	15434.0875
2467.12586	15411.6875
2469.88492	15399.4875
2472.64224	15443.1875
2475.39782	15462.0875
2478.15167	15510.7875
2480.90379	15510.4875
2483.65417	15507.2875
2486.40283	15517.0875
2489.14976	15521.3875
2491.89497	15519.4875
2494.63845	15515.1875
2497.3802	15528.1875
2500.12024	15519.7875
2502.85855	15511.7875
2505.59514	15481.8875
2508.33002	15500.1875
2511.06318	15492.0875
2513.79462	15473.5875
2516.52435	15461.4875
2519.25237	15480.1875
2521.97867	15445.2875
2524.70327	15467.6875
2527.42616	15434.8875
2530.14734	15431.5875
2532.86681	15430.9875
2535.58458	15464.6875
2538.30065	15456.0875
2541.01501	15443.8875
2543.72768	15438.2875
2546.43864	15438.4875
2549.14791	15413.9875
2551.85548	15420.5875
2554.56136	15401.4875
2557.26554	15411.5875
2559.96803	15378.0875
2562.66883	15386.7875
2565.36794	15384.4875
2568.06536	15333.4875
2570.7611	15342.3875
2573.45514	15345.0875
2576.14751	15351.1875
2578.83819	15320.2875
2581.52719	15333.2875
2584.21451	15335.2875
2586.90015	15366.7875
2589.58411	15301.7875
2592.2664	15341.3875
2594.94701	15317.9875
2597.62594	15313.7875
2600.30321	15310.1875
2602.9788	15325.7875
2605.65273	15283.8875
2608.32498	15323.9875
2610.99557	15316.7875
2613.66449	15351.0875
2616.33175	15321.1875
2618.99734	15338.3875
2621.66128	15306.1875
2624.32355	15310.8875
2626.98416	15310.5875
2629.64311	15275.6875
2632.30041	15277.7875
2634.95605	15259.2875
2637.61004	15247.1875
2640.26238	15237.9875
2642.91306	15245.5875
2645.56209	15219.8875
2648.20948	15216.2875
2650.85521	15215.0875
2653.4993	15272.2875
2656.14175	15249.9875
2658.78255	15256.6875
2661.42171	15270.6875
2664.05923	15272.9875
2666.6951	15316.6875
2669.32934	15342.1875
2671.96194	15342.5875
2674.59291	15355.8875
2677.22224	15340.8875
2679.84993	15352.9875
2682.476	15324.3875
2685.10043	15330.0875
2687.72324	15289.4875
2690.34441	15314.8875
2692.96396	15320.1875
2695.58188	15305.3875
2698.19818	15295.9875
2700.81285	15330.9875
2703.4259	15335.5875
2706.03733	15348.5875
2708.64714	15324.6875
2711.25533	15344.4875
2713.86191	15366.5875
2716.46687	15390.1875
2719.07021	15372.9875
2721.67194	15442.3875
2724.27206	15425.6875
2726.87057	15402.7875
2729.46747	15456.6875
2732.06276	15483.7875
2734.65644	15473.7875
2737.24852	15477.3875
2739.83899	15457.9875
2742.42786	15484.0875
2745.01513	15457.1875
2747.60079	15451.2875
2750.18486	15413.5875
2752.76733	15394.0875
2755.3482	15445.5875
2757.92747	15412.7875
2760.50515	15395.2875
2763.08123	15410.3875
2765.65573	15384.9875
2768.22863	15384.5875
2770.79994	15380.7875
2773.36967	15423.3875
2775.9378	15416.1875
2778.50435	15465.4875
2781.06932	15432.9875
2783.6327	15436.4875
2786.1945	15445.3875
2788.75471	15429.5875
2791.31335	15406.2875
2793.87041	15380.6875
2796.42589	15361.2875
2798.97979	15360.8875
2801.53212	15365.1875
2804.08288	15338.9875
2806.63206	15315.6875
2809.17967	15292.2875
2811.72571	15237.1875
2814.27018	15230.9875
2816.81308	15184.0875
2819.35442	15144.3875
2821.89419	15116.4875
2824.43239	15136.9875
2826.96904	15087.4875
2829.50412	15112.4875
2832.03763	15085.9875
2834.56959	15088.2875
2837.1	15090.9875
2839.62884	15093.5875
2842.15613	15076.1875
2844.68186	15115.7875
2847.20604	15081.8875
2849.72867	15097.1875
2852.24974	15069.7875
2854.76927	15059.1875
2857.28724	15016.7875
2859.80367	15039.8875
2862.31855	14998.8875
2864.83189	14988.8875
2867.34368	14986.5875
2869.85393	14992.1875
2872.36264	14973.1875
2874.8698	14944.7875
2877.37543	14962.2875
2879.87952	14966.1875
2882.38207	14960.4875
2884.88308	15008.3875
2887.38256	15027.3875
2889.88051	15033.0875
2892.37692	15026.5875
2894.8718	15033.5875
2897.36515	15054.4875
2899.85698	15051.2875
2902.34727	15106.2875
2904.83604	15108.7875
2907.32328	15124.1875
2909.809	15126.9875
2912.29319	15121.7875
2914.77587	15103.2875
2917.25702	15141.9875
2919.73665	15113.0875
2922.21476	15112.1875
2924.69136	15084.1875
2927.16644	15113.9875
2929.64	15091.6875
2932.11205	15108.4875
2934.58258	15012.3875
2937.05161	15055.8875
2939.51912	15041.8875
2941.98513	15027.3875
2944.44962	15030.6875
2946.91261	14992.2875
2949.37409	15029.5875
2951.83407	14978.0875
2954.29254	14986.9875
2956.74951	14980.1875
2959.20498	14973.3875
2961.65895	14977.3875
2964.11142	14967.1875
2966.56239	14950.7875
2969.01186	14964.7875
2971.45984	14911.1875
2973.90632	14914.5875
2976.35131	14858.4875
2978.7948	14874.2875
2981.23681	14831.0875
2983.67732	14825.2875
2986.11635	14789.7875
2988.55388	14743.5875
2990.98993	14718.7875
2993.4245	14676.1875
2995.85758	14632.4875
2998.28917	14600.3875
3000.71928	14574.3875
3003.14791	14577.2875
3005.57506	14526.6875
3008.00073	14491.9875
3010.42493	14340.6875
3012.84764	14420.1875
3015.26888	14402.3875
3017.68865	14399.5875
3020.10694	14416.4875
3022.52376	14345.6875
3024.9391	14356.6875
3027.35298	14339.0875
3029.76539	14357.9875
3032.17632	14348.4875
3034.5858	14346.9875
3036.9938	14343.3875
3039.40034	14379.0875
3041.80542	14378.0875
3044.20903	14346.0875
3046.61118	14322.8875
3049.01187	14297.3875
3051.4111	14284.8875
3053.80888	14216.5875
3056.20519	14182.6875
3058.60005	14181.5875
3060.99345	14147.6875
3063.3854	14135.3875
3065.7759	14083.6875
3068.16494	14067.3875
3070.55254	14026.0875
3072.93868	14005.0875
3075.32338	13924.6875
3077.70662	13910.2875
3080.08842	13899.1875
3082.46878	13889.5875
3084.84769	13893.4875
3087.22515	13868.5875
3089.60118	13884.2875
3091.97576	13876.3875
3094.3489	13848.8875
3096.72061	13868.8875
3099.09087	13858.5875
3101.4597	13854.3875
3103.82709	13843.5875
3106.19305	13809.5875
3108.55757	13819.9875
3110.92066	13775.3875
3113.28232	13786.7875
3115.64255	13762.7875
3118.00134	13739.2875
3120.35871	13689.8875
3122.71466	13684.3875
3125.06917	13640.9875
3127.42226	13652.1875
3129.77393	13622.5875
3132.12417	13600.9875
3134.47299	13584.9875
3136.82039	13613.8875
3139.16636	13638.1875
3141.51092	13577.2875
3143.85406	13582.2875
3146.19579	13562.9875
3148.53609	13554.8875
3150.87499	13564.3875
3153.21246	13555.7875
3155.54853	13587.1875
3157.88318	13584.6875
3160.21642	13616.2875
3162.54826	13608.7875
3164.87868	13618.5875
3167.2077	13610.7875
3169.5353	13641.8875
3171.86151	13645.0875
3174.18631	13652.2875
3176.5097	13622.8875
3178.83169	13593.9875
3181.15228	13583.2875
3183.47147	13537.2875
3185.78926	13550.4875
3188.10565	13534.5875
3190.42065	13532.8875
3192.73424	13522.2875
3195.04645	13515.9875
3197.35725	13503.8875
3199.66667	13481.4875
3201.97469	13524.4875
3204.28132	13491.6875
3206.58656	13505.4875
3208.8904	13490.6875
3211.19287	13528.0875
3213.49394	13505.1875
3215.79363	13480.2875
3218.09193	13517.7875
3220.38884	13522.0875
3222.68438	13536.3875
3224.97853	13509.8875
3227.2713	13494.9875
3229.56269	13492.0875
3231.8527	13485.6875
3234.14133	13444.8875
3236.42858	13449.5875
3238.71446	13421.9875
3240.99896	13394.7875
3243.28209	13422.0875
3245.56384	13383.7875
3247.84423	13363.3875
3250.12324	13350.1875
3252.40088	13380.6875
3254.67715	13321.1875
3256.95205	13323.4875
3259.22558	13322.8875
3261.49775	13304.2875
3263.76855	13316.5875
3266.03799	13273.2875
3268.30606	13246.1875
3270.57277	13225.0875
3272.83812	13209.9875
3275.10211	13197.5875
3277.36474	13146.2875
3279.62601	13159.5875
3281.88593	13128.9875
3284.14448	13096.1875
3286.40168	13142.4875
3288.65753	13158.4875
3290.91202	13148.0875
3293.16516	13135.7875
3295.41695	13071.9875
3297.66738	13029.0875
3299.91647	12967.5875
3302.16421	12882.6875
3304.4106	12832.8875
3306.65564	12705.7875
3308.89933	12630.0875
3311.14169	12543.6875
3313.38269	12415.4875
3315.62236	12349.8875
3317.86068	12234.0875
3320.09766	12150.9875
3322.3333	12081.6875
3324.5676	12020.1875
3326.80056	11848.2875
3329.03219	11788.2875
3331.26248	5.0875
3333.49143	-0.8125
3335.71905	-0.6125
