Data from AgNP_FTO_APTES_UA_10uM_CRN_1uM_R6G_10uM_NaF_0.1M_Addition_RamanShift__11__13-05-30-507.txt Node

Date: Thu Feb 10 13:05:30 GMT 2022
User: TCL
Spectrometer: QEP01345
Trigger mode: 4
Integration Time (sec): 7.000000E0
Scans to average: 10
Electric dark correction enabled: true
Nonlinearity correction enabled: false
Boxcar width: 0
XAxis mode: Raman Shifts
Number of Pixels in Spectrum: 1044
>>>>>Begin Spectral Data<<<<<
46.04893	-0.2125
50.45542	-0.5125
54.85868	-1.9125
59.25871	-2.1125
63.6555	77.5875
68.04907	81.0875
72.43941	84.6875
76.82654	82.7875
81.21044	91.8875
85.59113	90.3875
89.96862	92.9875
94.34289	99.5875
98.71396	99.6875
103.08183	103.7875
107.4465	111.2875
111.80798	110.2875
116.16626	112.5875
120.52136	115.2875
124.87327	125.8875
129.222	130.0875
133.56755	137.1875
137.90993	148.4875
142.24913	164.3875
146.58517	188.4875
150.91804	222.0875
155.24774	263.3875
159.57429	329.5875
163.89768	421.3875
168.21792	565.1875
172.53501	770.7875
176.84895	1088.0875
181.15975	1526.2875
185.46741	2131.3875
189.77193	2955.7875
194.07331	3961.7875
198.37157	5110.3875
202.6667	6334.6875
206.9587	7515.4875
211.24758	8698.9875
215.53334	9903.0875
219.81599	11133.8875
224.09553	12468.5875
228.37195	13984.0875
232.64527	15637.5875
236.91549	17399.5875
241.18261	19159.1875
245.44663	20794.6875
249.70755	22270.7875
253.96539	23593.3875
258.22014	24637.5875
262.4718	25505.7875
266.72039	26076.3875
270.96589	26313.3875
275.20832	26329.8875
279.44768	26074.1875
283.68397	25840.7875
287.91719	25594.2875
292.14735	25429.2875
296.37445	25318.6875
300.59849	25366.8875
304.81948	25452.2875
309.03742	25500.4875
313.25231	25415.8875
317.46415	25123.5875
321.67296	24619.2875
325.87872	24198.1875
330.08145	24044.4875
334.28114	23985.7875
338.47781	24156.4875
342.67145	24399.1875
346.86207	24760.9875
351.04966	25206.2875
355.23424	25651.6875
359.4158	26050.7875
363.59435	26351.7875
367.76989	26544.8875
371.94243	26645.9875
376.11196	26692.1875
380.27849	26707.1875
384.44203	26742.2875
388.60257	26959.5875
392.76012	27245.3875
396.91468	27683.4875
401.06626	28115.9875
405.21485	28412.3875
409.36047	28339.3875
413.50311	28074.7875
417.64277	27906.3875
421.77947	28035.2875
425.9132	28250.4875
430.04396	28459.9875
434.17176	28537.0875
438.2966	28591.2875
442.41849	28833.1875
446.53742	29363.5875
450.6534	29994.2875
454.76644	30474.8875
458.87653	30529.5875
462.98368	30451.4875
467.08789	30189.8875
471.18916	29881.8875
475.2875	29390.3875
479.38291	29110.9875
483.4754	28912.9875
487.56496	28706.4875
491.6516	28460.6875
495.73531	28197.5875
499.81612	28010.0875
503.89401	28119.7875
507.96899	28311.9875
512.04106	28369.0875
516.11023	28236.3875
520.1765	28051.7875
524.23987	27747.6875
528.30034	27461.7875
532.35792	27176.3875
536.41261	26861.8875
540.46441	26630.1875
544.51333	26629.5875
548.55936	26837.3875
552.60252	27292.1875
556.64279	27792.4875
560.6802	28254.5875
564.71473	28510.7875
568.7464	28998.5875
572.7752	29889.4875
576.80114	31085.9875
580.82422	32352.5875
584.84444	33734.7875
588.86181	35438.0875
592.87633	36986.9875
596.888	36842.4875
600.89682	34756.8875
604.9028	33639.8875
608.90594	34833.2875
612.90624	36489.0875
616.90371	34332.2875
620.89834	29887.0875
624.89015	27932.0875
628.87913	27796.2875
632.86528	28087.0875
636.84862	28109.0875
640.82913	27577.3875
644.80683	26852.9875
648.78172	26377.5875
652.75379	26351.1875
656.72306	26659.1875
660.68952	27048.8875
664.65319	26947.4875
668.61405	26565.1875
672.57211	26457.8875
676.52738	26593.4875
680.47986	26557.1875
684.42955	26390.9875
688.37646	26273.9875
692.32058	26430.2875
696.26192	26812.9875
700.20048	27136.7875
704.13626	27391.6875
708.06928	27469.3875
711.99952	27386.2875
715.927	27326.7875
719.85171	27303.5875
723.77365	27099.6875
727.69284	26680.7875
731.60928	26273.0875
735.52295	26092.7875
739.43388	26090.9875
743.34206	26180.5875
747.24749	26390.5875
751.15017	26645.5875
755.05012	27095.2875
758.94733	27833.9875
762.8418	28995.8875
766.73354	30744.6875
770.62254	32304.1875
774.50882	32483.1875
778.39237	31238.4875
782.27321	29503.8875
786.15132	28096.7875
790.02671	27118.3875
793.89938	26590.6875
797.76935	26280.2875
801.6366	26169.5875
805.50115	26107.1875
809.36299	25981.1875
813.22213	25832.5875
817.07857	25699.3875
820.93231	25624.9875
824.78336	25524.7875
828.63172	25396.9875
832.47738	25316.1875
836.32036	25316.7875
840.16066	25274.7875
843.99827	25257.9875
847.8332	25290.6875
851.66546	25358.8875
855.49504	25390.1875
859.32195	25414.2875
863.1462	25370.9875
866.96777	25334.9875
870.78668	25277.1875
874.60293	25336.9875
878.41652	25308.0875
882.22745	25407.7875
886.03573	25470.3875
889.84136	25463.1875
893.64433	25420.9875
897.44466	25351.9875
901.24235	25353.7875
905.0374	25313.2875
908.8298	25275.5875
912.61957	25304.5875
916.40671	25487.2875
920.19121	25810.4875
923.97308	26081.0875
927.75233	26140.6875
931.52895	25920.4875
935.30295	25449.6875
939.07433	24975.0875
942.84309	24688.7875
946.60924	24490.4875
950.37278	24473.6875
954.13371	24494.1875
957.89203	24453.0875
961.64774	24433.8875
965.40086	24460.7875
969.15137	24429.5875
972.89929	24317.2875
976.64461	24206.2875
980.38733	24186.2875
984.12747	24203.2875
987.86502	24246.5875
991.59999	24387.7875
995.33237	24596.6875
999.06217	24858.3875
1002.78939	25355.2875
1006.51404	25925.6875
1010.23611	26468.6875
1013.95561	26823.1875
1017.67255	26891.3875
1021.38692	26597.0875
1025.09872	26119.1875
1028.80796	25734.5875
1032.51465	25515.4875
1036.21877	25544.3875
1039.92035	25660.1875
1043.61937	25751.2875
1047.31584	25804.2875
1051.00976	25904.9875
1054.70114	25987.6875
1058.38998	26140.8875
1062.07627	26427.2875
1065.76003	26740.9875
1069.44126	27125.3875
1073.11995	27666.7875
1076.79611	28149.1875
1080.46974	28402.0875
1084.14085	28580.6875
1087.80943	28925.9875
1091.47549	29212.6875
1095.13903	29299.7875
1098.80005	28865.0875
1102.45857	28233.6875
1106.11456	27661.7875
1109.76805	27307.8875
1113.41903	27185.7875
1117.06751	27207.4875
1120.71348	27440.3875
1124.35696	27653.5875
1127.99793	27948.2875
1131.63641	28150.9875
1135.2724	28183.0875
1138.90589	28114.7875
1142.5369	28199.2875
1146.16542	28396.7875
1149.79145	28650.2875
1153.415	28877.7875
1157.03607	29121.8875
1160.65467	29759.7875
1164.27079	30927.1875
1167.88443	32409.9875
1171.49561	33975.3875
1175.10432	35859.4875
1178.71056	38146.1875
1182.31434	40356.8875
1185.91565	41653.9875
1189.51451	41849.2875
1193.11091	41289.8875
1196.70485	40092.7875
1200.29634	38762.7875
1203.88538	37687.9875
1207.47197	37189.4875
1211.05612	36929.9875
1214.63782	36358.9875
1218.21708	35376.2875
1221.79391	34226.6875
1225.36829	33459.0875
1228.94024	33047.1875
1232.50976	32827.6875
1236.07685	32451.9875
1239.6415	32215.3875
1243.20374	32091.3875
1246.76355	32263.8875
1250.32093	32636.3875
1253.8759	33260.1875
1257.42845	34186.2875
1260.97859	35174.5875
1264.52631	36314.4875
1268.07163	37342.3875
1271.61453	38370.4875
1275.15503	39372.3875
1278.69312	40342.1875
1282.22882	41471.8875
1285.76211	42803.2875
1289.29301	44205.4875
1292.82151	45894.1875
1296.34761	47886.5875
1299.87133	50297.2875
1303.39266	52783.7875
1306.9116	55009.1875
1310.42815	56634.2875
1313.94233	57344.8875
1317.45412	56763.7875
1320.96354	55860.7875
1324.47058	55250.9875
1327.97525	55122.3875
1331.47754	55103.3875
1334.97747	55040.2875
1338.47502	54900.4875
1341.97022	54658.0875
1345.46305	54398.3875
1348.95352	53995.8875
1352.44163	53606.1875
1355.92738	53835.1875
1359.41078	54914.7875
1362.89183	56052.8875
1366.37053	55445.0875
1369.84688	51879.6875
1373.32088	47062.5875
1376.79254	43461.7875
1380.26186	42034.2875
1383.72883	41819.3875
1387.19347	41699.5875
1390.65578	41243.9875
1394.11575	41074.2875
1397.57339	41420.6875
1401.0287	41992.6875
1404.48168	42493.3875
1407.93234	42399.5875
1411.38068	41664.6875
1414.82669	40375.2875
1418.27039	38881.1875
1421.71177	37468.2875
1425.15083	36508.4875
1428.58758	36130.9875
1432.02203	36638.6875
1435.45416	37648.4875
1438.88399	38672.3875
1442.31151	39343.0875
1445.73673	39576.6875
1449.15965	39723.1875
1452.58027	39738.2875
1455.9986	39800.1875
1459.41463	40229.6875
1462.82837	40912.7875
1466.23982	41637.4875
1469.64898	42188.3875
1473.05586	42432.1875
1476.46045	42315.4875
1479.86276	42037.8875
1483.26279	41704.5875
1486.66054	41666.8875
1490.05602	41940.9875
1493.44922	42558.0875
1496.84016	43273.3875
1500.22882	44204.3875
1503.61521	45320.4875
1506.99934	46538.1875
1510.38121	47330.5875
1513.76081	47224.0875
1517.13816	46338.5875
1520.51324	45284.9875
1523.88607	44673.5875
1527.25665	44466.6875
1530.62498	44350.3875
1533.99105	44008.2875
1537.35488	43213.8875
1540.71647	42189.4875
1544.07581	40952.5875
1547.4329	39763.5875
1550.78776	38828.4875
1554.14038	38188.5875
1557.49077	37851.3875
1560.83892	37698.9875
1564.18484	37690.9875
1567.52853	37727.5875
1570.86999	38068.9875
1574.20922	38684.7875
1577.54624	39185.3875
1580.88103	39370.3875
1584.2136	39778.2875
1587.54395	40894.2875
1590.87208	42802.9875
1594.19801	45159.9875
1597.52172	47266.9875
1600.84321	47556.9875
1604.16251	45377.3875
1607.47959	42065.2875
1610.79447	38639.4875
1614.10715	35551.0875
1617.41763	32961.2875
1620.7259	31204.5875
1624.03199	30379.8875
1627.33587	30314.7875
1630.63757	31234.1875
1633.93707	33304.9875
1637.23439	36770.4875
1640.52951	41952.6875
1643.82246	47908.8875
1647.11321	52390.7875
1650.40179	52776.5875
1653.68819	48519.9875
1656.97241	41850.1875
1660.25446	35620.8875
1663.53433	31112.2875
1666.81203	28300.5875
1670.08756	26565.8875
1673.36092	25491.1875
1676.63211	24779.3875
1679.90115	24313.8875
1683.16801	23944.6875
1686.43272	23651.0875
1689.69527	23425.4875
1692.95567	23236.0875
1696.2139	23158.0875
1699.46999	23060.1875
1702.72392	22985.8875
1705.97571	22890.8875
1709.22535	22850.6875
1712.47284	22815.9875
1715.71819	22821.0875
1718.96139	22686.3875
1722.20246	22649.5875
1725.44139	22526.6875
1728.67818	22335.4875
1731.91284	22206.2875
1735.14537	22087.4875
1738.37576	22013.1875
1741.60403	21932.6875
1744.83017	21832.6875
1748.05418	21811.3875
1751.27607	21728.5875
1754.49584	21697.4875
1757.71349	21649.8875
1760.92903	21640.1875
1764.14244	21622.4875
1767.35375	21572.0875
1770.56294	21545.0875
1773.77002	21525.5875
1776.97499	21500.6875
1780.17785	21455.1875
1783.37861	21381.2875
1786.57727	21356.7875
1789.77382	21297.3875
1792.96828	21268.0875
1796.16064	21203.8875
1799.3509	21138.9875
1802.53907	21119.0875
1805.72514	21093.1875
1808.90913	21056.1875
1812.09102	20957.5875
1815.27083	20891.7875
1818.44856	20897.0875
1821.6242	20894.6875
1824.79776	20833.0875
1827.96924	20842.3875
1831.13864	20841.5875
1834.30597	20869.5875
1837.47122	20889.8875
1840.6344	20862.3875
1843.7955	20893.8875
1846.95454	20852.8875
1850.11151	20834.8875
1853.26642	20833.3875
1856.41926	20839.3875
1859.57004	20841.2875
1862.71876	20812.1875
1865.86542	20791.1875
1869.01003	20707.3875
1872.15258	20674.9875
1875.29308	20674.4875
1878.43152	20606.3875
1881.56792	20580.5875
1884.70227	20562.8875
1887.83457	20511.1875
1890.96482	20473.7875
1894.09304	20411.0875
1897.21921	20376.4875
1900.34335	20345.5875
1903.46544	20325.5875
1906.58551	20307.2875
1909.70353	20271.1875
1912.81953	20220.8875
1915.93349	20205.5875
1919.04543	20145.3875
1922.15534	20081.6875
1925.26322	20019.1875
1928.36908	19983.4875
1931.47292	19977.4875
1934.57473	19916.8875
1937.67453	19849.8875
1940.77232	19806.5875
1943.86808	19751.3875
1946.96184	19686.0875
1950.05358	19654.4875
1953.14331	19569.0875
1956.23103	19534.8875
1959.31675	19482.7875
1962.40046	19389.6875
1965.48217	19327.6875
1968.56188	19253.8875
1971.63959	19189.0875
1974.7153	19153.4875
1977.78901	19077.7875
1980.86073	19007.2875
1983.93046	18931.7875
1986.99819	18876.7875
1990.06394	18848.5875
1993.1277	18791.2875
1996.18947	18760.2875
1999.24925	18718.8875
2002.30706	18618.5875
2005.36288	18596.9875
2008.41672	18516.7875
2011.46859	18460.9875
2014.51848	18426.0875
2017.56639	18342.5875
2020.61233	18342.7875
2023.6563	18278.4875
2026.6983	18245.9875
2029.73833	18214.4875
2032.7764	18129.0875
2035.8125	18098.4875
2038.84664	18040.5875
2041.87881	18026.3875
2044.90903	18000.7875
2047.93729	17946.3875
2050.96359	17926.3875
2053.98794	17886.9875
2057.01034	17937.5875
2060.03078	17827.2875
2063.04927	17849.9875
2066.06582	17845.5875
2069.08042	17821.9875
2072.09307	17764.4875
2075.10378	17816.8875
2078.11255	17779.6875
2081.11938	17787.8875
2084.12426	17743.4875
2087.12722	17765.4875
2090.12824	17732.3875
2093.12732	17725.5875
2096.12447	17733.6875
2099.11969	17711.7875
2102.11299	17714.5875
2105.10435	17718.1875
2108.09379	17764.4875
2111.08131	17739.5875
2114.0669	17736.4875
2117.05057	17749.6875
2120.03233	17760.2875
2123.01216	17761.4875
2125.99008	17814.6875
2128.96609	17792.8875
2131.94018	17830.9875
2134.91236	17838.2875
2137.88263	17845.3875
2140.851	17849.7875
2143.81746	17812.4875
2146.78201	17823.0875
2149.74466	17831.2875
2152.7054	17824.4875
2155.66425	17786.2875
2158.6212	17786.9875
2161.57625	17773.8875
2164.52941	17759.5875
2167.48067	17716.8875
2170.43004	17718.5875
2173.37752	17763.7875
2176.32311	17762.7875
2179.26681	17748.3875
2182.20863	17716.6875
2185.14856	17738.0875
2188.08661	17693.6875
2191.02278	17718.0875
2193.95707	17725.2875
2196.88948	17694.7875
2199.82001	17656.0875
2202.74867	17644.0875
2205.67545	17638.7875
2208.60037	17595.8875
2211.52341	17608.9875
2214.44458	17538.8875
2217.36388	17502.5875
2220.28132	17483.4875
2223.1969	17438.8875
2226.11061	17393.5875
2229.02246	17358.4875
2231.93245	17376.3875
2234.84058	17339.2875
2237.74686	17325.4875
2240.65128	17278.8875
2243.55385	17268.4875
2246.45456	17244.3875
2249.35343	17192.3875
2252.25044	17156.9875
2255.14561	17141.2875
2258.03893	17096.2875
2260.93041	17049.8875
2263.82004	17044.6875
2266.70783	17000.7875
2269.59378	16923.1875
2272.4779	16905.9875
2275.36017	16880.7875
2278.24061	16854.2875
2281.11922	16799.4875
2283.996	16786.2875
2286.87094	16756.4875
2289.74405	16698.1875
2292.61534	16718.0875
2295.4848	16675.7875
2298.35243	16656.1875
2301.21824	16675.5875
2304.08223	16657.0875
2306.94439	16637.4875
2309.80474	16610.2875
2312.66327	16615.9875
2315.51999	16591.9875
2318.37489	16558.4875
2321.22797	16562.0875
2324.07925	16545.4875
2326.92871	16525.6875
2329.77637	16483.1875
2332.62222	16477.9875
2335.46626	16448.4875
2338.3085	16430.8875
2341.14893	16423.7875
2343.98756	16406.9875
2346.8244	16427.9875
2349.65943	16411.3875
2352.49267	16384.8875
2355.32411	16377.7875
2358.15376	16399.5875
2360.98161	16428.4875
2363.80768	16434.0875
2366.63195	16387.2875
2369.45444	16355.2875
2372.27514	16336.0875
2375.09405	16345.3875
2377.91118	16311.5875
2380.72652	16251.8875
2383.54009	16209.0875
2386.35187	16196.8875
2389.16188	16147.7875
2391.97011	16120.4875
2394.77657	16054.8875
2397.58125	16045.4875
2400.38416	16019.4875
2403.18529	16014.1875
2405.98466	15978.9875
2408.78226	15946.2875
2411.57809	15923.6875
2414.37216	15954.3875
2417.16446	15920.9875
2419.955	15894.2875
2422.74378	15887.8875
2425.5308	15885.1875
2428.31606	15867.2875
2431.09956	15882.2875
2433.88131	15831.8875
2436.6613	15870.1875
2439.43954	15870.6875
2442.21603	15845.8875
2444.99077	15813.9875
2447.76377	15813.2875
2450.53501	15804.5875
2453.30451	15805.6875
2456.07226	15745.0875
2458.83827	15775.7875
2461.60254	15764.0875
2464.36507	15759.9875
2467.12586	15757.5875
2469.88492	15724.9875
2472.64224	15762.1875
2475.39782	15728.7875
2478.15167	15733.1875
2480.90379	15699.5875
2483.65417	15721.1875
2486.40283	15745.8875
2489.14976	15705.3875
2491.89497	15719.0875
2494.63845	15718.1875
2497.3802	15678.6875
2500.12024	15684.3875
2502.85855	15658.4875
2505.59514	15670.4875
2508.33002	15652.7875
2511.06318	15637.0875
2513.79462	15614.3875
2516.52435	15618.2875
2519.25237	15586.9875
2521.97867	15591.2875
2524.70327	15567.1875
2527.42616	15557.3875
2530.14734	15543.5875
2532.86681	15526.8875
2535.58458	15512.9875
2538.30065	15500.7875
2541.01501	15526.3875
2543.72768	15515.8875
2546.43864	15472.3875
2549.14791	15474.1875
2551.85548	15456.1875
2554.56136	15451.4875
2557.26554	15433.3875
2559.96803	15375.3875
2562.66883	15344.6875
2565.36794	15314.6875
2568.06536	15342.2875
2570.7611	15276.6875
2573.45514	15271.4875
2576.14751	15240.8875
2578.83819	15247.0875
2581.52719	15226.8875
2584.21451	15199.7875
2586.90015	15178.3875
2589.58411	15158.4875
2592.2664	15160.4875
2594.94701	15138.4875
2597.62594	15141.9875
2600.30321	15103.7875
2602.9788	15086.0875
2605.65273	15064.7875
2608.32498	15088.5875
2610.99557	15063.7875
2613.66449	15074.0875
2616.33175	15066.5875
2618.99734	15039.6875
2621.66128	15004.0875
2624.32355	15005.1875
2626.98416	14953.6875
2629.64311	14950.0875
2632.30041	14961.3875
2634.95605	14926.0875
2637.61004	14927.9875
2640.26238	14929.8875
2642.91306	14912.6875
2645.56209	14911.0875
2648.20948	14917.9875
2650.85521	14884.9875
2653.4993	14928.0875
2656.14175	14929.2875
2658.78255	14937.4875
2661.42171	14943.0875
2664.05923	14946.3875
2666.6951	15004.1875
2669.32934	14995.2875
2671.96194	14952.3875
2674.59291	14970.8875
2677.22224	14951.5875
2679.84993	14963.7875
2682.476	14961.2875
2685.10043	14948.4875
2687.72324	14933.3875
2690.34441	14937.2875
2692.96396	14935.1875
2695.58188	14946.1875
2698.19818	14916.0875
2700.81285	14927.8875
2703.4259	14927.8875
2706.03733	14931.2875
2708.64714	14929.5875
2711.25533	14944.9875
2713.86191	14934.4875
2716.46687	14951.0875
2719.07021	14982.9875
2721.67194	14992.8875
2724.27206	14968.8875
2726.87057	15002.0875
2729.46747	14993.3875
2732.06276	14997.1875
2734.65644	15000.9875
2737.24852	14998.9875
2739.83899	14979.2875
2742.42786	14995.0875
2745.01513	14948.3875
2747.60079	14948.7875
2750.18486	14936.2875
2752.76733	14931.4875
2755.3482	14912.8875
2757.92747	14911.1875
2760.50515	14878.4875
2763.08123	14874.9875
2765.65573	14863.6875
2768.22863	14848.0875
2770.79994	14834.4875
2773.36967	14820.5875
2775.9378	14776.7875
2778.50435	14821.3875
2781.06932	14801.1875
2783.6327	14797.1875
2786.1945	14763.6875
2788.75471	14751.1875
2791.31335	14746.8875
2793.87041	14729.1875
2796.42589	14684.4875
2798.97979	14683.1875
2801.53212	14655.1875
2804.08288	14631.4875
2806.63206	14587.9875
2809.17967	14545.3875
2811.72571	14549.3875
2814.27018	14515.6875
2816.81308	14459.8875
2819.35442	14451.2875
2821.89419	14400.6875
2824.43239	14410.7875
2826.96904	14402.1875
2829.50412	14395.4875
2832.03763	14309.0875
2834.56959	14340.4875
2837.1	14318.7875
2839.62884	14279.1875
2842.15613	14295.3875
2844.68186	14301.5875
2847.20604	14313.3875
2849.72867	14316.0875
2852.24974	14346.9875
2854.76927	14306.5875
2857.28724	14279.6875
2859.80367	14265.5875
2862.31855	14208.8875
2864.83189	14188.7875
2867.34368	14205.0875
2869.85393	14201.5875
2872.36264	14151.8875
2874.8698	14150.2875
2877.37543	14154.0875
2879.87952	14157.7875
2882.38207	14121.4875
2884.88308	14127.4875
2887.38256	14116.4875
2889.88051	14123.9875
2892.37692	14132.4875
2894.8718	14141.8875
2897.36515	14148.2875
2899.85698	14144.2875
2902.34727	14151.3875
2904.83604	14158.9875
2907.32328	14195.5875
2909.809	14140.6875
2912.29319	14159.9875
2914.77587	14128.5875
2917.25702	14150.6875
2919.73665	14140.9875
2922.21476	14086.4875
2924.69136	14099.7875
2927.16644	14102.5875
2929.64	14070.5875
2932.11205	14074.6875
2934.58258	14059.0875
2937.05161	14057.3875
2939.51912	14036.8875
2941.98513	14025.1875
2944.44962	13971.1875
2946.91261	13923.0875
2949.37409	13973.6875
2951.83407	13963.6875
2954.29254	13953.9875
2956.74951	13955.4875
2959.20498	13922.5875
2961.65895	13909.2875
2964.11142	13896.6875
2966.56239	13855.5875
2969.01186	13852.5875
2971.45984	13812.2875
2973.90632	13829.3875
2976.35131	13771.7875
2978.7948	13777.5875
2981.23681	13708.4875
2983.67732	13715.6875
2986.11635	13682.8875
2988.55388	13624.5875
2990.98993	13600.5875
2993.4245	13584.0875
2995.85758	13512.9875
2998.28917	13508.2875
3000.71928	13490.3875
3003.14791	13449.3875
3005.57506	13420.2875
3008.00073	13373.0875
3010.42493	13270.9875
3012.84764	13325.0875
3015.26888	13316.4875
3017.68865	13226.8875
3020.10694	13221.1875
3022.52376	13193.6875
3024.9391	13200.2875
3027.35298	13163.9875
3029.76539	13164.4875
3032.17632	13169.1875
3034.5858	13143.6875
3036.9938	13135.8875
3039.40034	13126.1875
3041.80542	13113.8875
3044.20903	13088.3875
3046.61118	13088.3875
3049.01187	13022.5875
3051.4111	12993.9875
3053.80888	12976.4875
3056.20519	12953.6875
3058.60005	12893.6875
3060.99345	12924.5875
3063.3854	12881.5875
3065.7759	12785.3875
3068.16494	12768.2875
3070.55254	12732.2875
3072.93868	12718.9875
3075.32338	12665.7875
3077.70662	12665.2875
3080.08842	12620.9875
3082.46878	12626.0875
3084.84769	12555.7875
3087.22515	12584.3875
3089.60118	12542.3875
3091.97576	12512.3875
3094.3489	12535.2875
3096.72061	12507.3875
3099.09087	12520.2875
3101.4597	12509.3875
3103.82709	12492.6875
3106.19305	12473.6875
3108.55757	12504.3875
3110.92066	12435.7875
3113.28232	12448.5875
3115.64255	12381.2875
3118.00134	12331.9875
3120.35871	12335.3875
3122.71466	12291.0875
3125.06917	12258.5875
3127.42226	12247.5875
3129.77393	12216.2875
3132.12417	12213.5875
3134.47299	12189.5875
3136.82039	12183.8875
3139.16636	12221.9875
3141.51092	12192.9875
3143.85406	12172.4875
3146.19579	12134.5875
3148.53609	12150.3875
3150.87499	12137.1875
3153.21246	12129.9875
3155.54853	12178.9875
3157.88318	12165.7875
3160.21642	12137.9875
3162.54826	12133.5875
3164.87868	12125.0875
3167.2077	12141.6875
3169.5353	12151.9875
3171.86151	12149.1875
3174.18631	12136.5875
3176.5097	12115.0875
3178.83169	12069.3875
3181.15228	12066.1875
3183.47147	12030.7875
3185.78926	12039.4875
3188.10565	11999.0875
3190.42065	11986.5875
3192.73424	11971.0875
3195.04645	11980.0875
3197.35725	11988.4875
3199.66667	11910.4875
3201.97469	11946.2875
3204.28132	11923.0875
3206.58656	11914.7875
3208.8904	11939.5875
3211.19287	11901.9875
3213.49394	11928.4875
3215.79363	11916.9875
3218.09193	11914.3875
3220.38884	11871.8875
3222.68438	11873.9875
3224.97853	11923.9875
3227.2713	11934.2875
3229.56269	11885.0875
3231.8527	11872.4875
3234.14133	11833.4875
3236.42858	11796.4875
3238.71446	11804.4875
3240.99896	11761.5875
3243.28209	11740.6875
3245.56384	11721.5875
3247.84423	11697.7875
3250.12324	11679.4875
3252.40088	11668.9875
3254.67715	11665.3875
3256.95205	11621.8875
3259.22558	11619.9875
3261.49775	11610.5875
3263.76855	11589.1875
3266.03799	11605.1875
3268.30606	11535.2875
3270.57277	11522.8875
3272.83812	11476.7875
3275.10211	11441.5875
3277.36474	11409.3875
3279.62601	11419.4875
3281.88593	11424.1875
3284.14448	11447.3875
3286.40168	11450.2875
3288.65753	11436.2875
3290.91202	11413.4875
3293.16516	11377.3875
3295.41695	11372.2875
3297.66738	11292.5875
3299.91647	11229.1875
3302.16421	11135.6875
3304.4106	11075.6875
3306.65564	11016.9875
3308.89933	10948.1875
3311.14169	10854.3875
3313.38269	10759.9875
3315.62236	10671.3875
3317.86068	10585.8875
3320.09766	10496.2875
3322.3333	10429.7875
3324.5676	10365.6875
3326.80056	10161.4875
3329.03219	10109.0875
3331.26248	4.1875
3333.49143	1.2875
3335.71905	-0.0125
