Data from AgNP_FTO_APTES_UA_10uM_CRN_0uM_R6G_10uM_NaF_0.1M_Addition_RamanShift__10__11-20-30-366.txt Node

Date: Thu Feb 10 11:20:30 GMT 2022
User: TCL
Spectrometer: QEP01345
Trigger mode: 4
Integration Time (sec): 7.000000E0
Scans to average: 10
Electric dark correction enabled: true
Nonlinearity correction enabled: false
Boxcar width: 0
XAxis mode: Raman Shifts
Number of Pixels in Spectrum: 1044
>>>>>Begin Spectral Data<<<<<
46.04893	-0.8125
50.45542	-0.1125
54.85868	-2.5125
59.25871	-1.7125
63.6555	86.0875
68.04907	88.2875
72.43941	93.5875
76.82654	92.4875
81.21044	101.0875
85.59113	102.3875
89.96862	101.2875
94.34289	111.2875
98.71396	111.7875
103.08183	114.5875
107.4465	121.6875
111.80798	120.2875
116.16626	128.2875
120.52136	133.1875
124.87327	141.8875
129.222	152.0875
133.56755	164.6875
137.90993	173.6875
142.24913	189.5875
146.58517	220.9875
150.91804	259.8875
155.24774	316.1875
159.57429	399.9875
163.89768	516.0875
168.21792	697.3875
172.53501	961.7875
176.84895	1341.7875
181.15975	1894.6875
185.46741	2688.9875
189.77193	3716.7875
194.07331	4995.7875
198.37157	6442.4875
202.6667	7980.4875
206.9587	9533.0875
211.24758	11030.8875
215.53334	12557.0875
219.81599	14234.0875
224.09553	16020.4875
228.37195	18020.0875
232.64527	20181.8875
236.91549	22543.6875
241.18261	24898.7875
245.44663	27086.8875
249.70755	29001.2875
253.96539	30707.1875
258.22014	32069.5875
262.4718	33125.2875
266.72039	33794.4875
270.96589	34014.3875
275.20832	33797.1875
279.44768	33147.6875
283.68397	32465.5875
287.91719	31760.8875
292.14735	31254.5875
296.37445	31012.5875
300.59849	30894.4875
304.81948	30997.3875
309.03742	30937.1875
313.25231	30564.6875
317.46415	29800.0875
321.67296	28873.0875
325.87872	28172.1875
330.08145	27822.5875
334.28114	27865.4875
338.47781	28074.0875
342.67145	28412.8875
346.86207	28897.4875
351.04966	29559.7875
355.23424	30285.5875
359.4158	30899.0875
363.59435	31414.1875
367.76989	31670.3875
371.94243	31881.7875
376.11196	31996.7875
380.27849	32084.3875
384.44203	32083.1875
388.60257	32141.4875
392.76012	32327.7875
396.91468	32576.6875
401.06626	32922.6875
405.21485	33133.3875
409.36047	32890.3875
413.50311	32224.5875
417.64277	31712.7875
421.77947	31429.0875
425.9132	31458.6875
430.04396	31552.8875
434.17176	31615.0875
438.2966	31831.6875
442.41849	32234.8875
446.53742	32724.4875
450.6534	33150.7875
454.76644	33509.4875
458.87653	33636.1875
462.98368	33685.9875
467.08789	33620.7875
471.18916	33358.2875
475.2875	32990.0875
479.38291	32824.0875
483.4754	32637.1875
487.56496	32590.0875
491.6516	32456.6875
495.73531	32315.8875
499.81612	32238.4875
503.89401	32503.1875
507.96899	32749.1875
512.04106	32943.3875
516.11023	33239.1875
520.1765	33257.0875
524.23987	33185.1875
528.30034	33002.3875
532.35792	32842.7875
536.41261	32630.7875
540.46441	32409.5875
544.51333	32313.9875
548.55936	32514.6875
552.60252	33043.2875
556.64279	33579.2875
560.6802	34018.4875
564.71473	34335.0875
568.7464	34808.8875
572.7752	35140.1875
576.80114	35192.9875
580.82422	34976.8875
584.84444	34959.0875
588.86181	35085.5875
592.87633	35217.9875
596.888	35271.8875
600.89682	35540.0875
604.9028	37203.3875
608.90594	41617.8875
612.90624	46878.6875
616.90371	45583.5875
620.89834	38584.0875
624.89015	34954.3875
628.87913	34030.9875
632.86528	34019.9875
636.84862	34147.5875
640.82913	33857.4875
644.80683	33181.7875
648.78172	32651.1875
652.75379	32567.4875
656.72306	33022.8875
660.68952	33636.6875
664.65319	33530.3875
668.61405	32995.2875
672.57211	32881.1875
676.52738	33118.5875
680.47986	33306.4875
684.42955	33282.7875
688.37646	33264.8875
692.32058	33383.9875
696.26192	33620.1875
700.20048	33815.7875
704.13626	33925.8875
708.06928	33845.9875
711.99952	33671.5875
715.927	33584.3875
719.85171	33611.5875
723.77365	33558.7875
727.69284	33348.3875
731.60928	33146.6875
735.52295	33036.0875
739.43388	33086.2875
743.34206	33155.4875
747.24749	33155.1875
751.15017	33291.6875
755.05012	33549.2875
758.94733	34153.2875
762.8418	35596.6875
766.73354	38038.4875
770.62254	40742.6875
774.50882	42075.5875
778.39237	41197.7875
782.27321	38819.0875
786.15132	36386.9875
790.02671	34868.5875
793.89938	34137.5875
797.76935	33752.6875
801.6366	33459.1875
805.50115	33443.3875
809.36299	33390.5875
813.22213	33251.1875
817.07857	33141.5875
820.93231	33100.2875
824.78336	33079.5875
828.63172	33088.9875
832.47738	33094.6875
836.32036	33038.9875
840.16066	33000.2875
843.99827	32978.7875
847.8332	33020.7875
851.66546	33028.8875
855.49504	33177.8875
859.32195	33241.6875
863.1462	33295.3875
866.96777	33342.1875
870.78668	33403.3875
874.60293	33538.6875
878.41652	33634.1875
882.22745	33825.5875
886.03573	34020.1875
889.84136	34160.2875
893.64433	34259.4875
897.44466	34386.2875
901.24235	34512.3875
905.0374	34625.2875
908.8298	34747.3875
912.61957	34960.0875
916.40671	35261.1875
920.19121	35552.5875
923.97308	35838.6875
927.75233	36098.0875
931.52895	36060.7875
935.30295	35805.1875
939.07433	35230.3875
942.84309	34696.1875
946.60924	34294.2875
950.37278	33954.4875
954.13371	33741.5875
957.89203	33533.3875
961.64774	33347.3875
965.40086	33220.9875
969.15137	33064.7875
972.89929	32907.7875
976.64461	32905.1875
980.38733	32877.4875
984.12747	32900.9875
987.86502	32895.8875
991.59999	33025.6875
995.33237	33236.7875
999.06217	33522.0875
1002.78939	33806.0875
1006.51404	34133.5875
1010.23611	34498.6875
1013.95561	34843.7875
1017.67255	34958.0875
1021.38692	34796.5875
1025.09872	34589.6875
1028.80796	34486.7875
1032.51465	34535.0875
1036.21877	34686.5875
1039.92035	34789.3875
1043.61937	34868.3875
1047.31584	34811.6875
1051.00976	34787.3875
1054.70114	34861.8875
1058.38998	34939.0875
1062.07627	35013.7875
1065.76003	35195.6875
1069.44126	35263.1875
1073.11995	35438.3875
1076.79611	35850.9875
1080.46974	36120.4875
1084.14085	36365.9875
1087.80943	36700.9875
1091.47549	36838.4875
1095.13903	36742.2875
1098.80005	36439.9875
1102.45857	36014.0875
1106.11456	35754.7875
1109.76805	35575.7875
1113.41903	35591.0875
1117.06751	35774.1875
1120.71348	36060.9875
1124.35696	36487.0875
1127.99793	37005.6875
1131.63641	37196.8875
1135.2724	36753.6875
1138.90589	36212.5875
1142.5369	35861.2875
1146.16542	35629.6875
1149.79145	35540.3875
1153.415	35516.1875
1157.03607	35685.2875
1160.65467	36146.2875
1164.27079	37018.5875
1167.88443	38200.3875
1171.49561	39891.3875
1175.10432	42144.3875
1178.71056	45144.4875
1182.31434	47978.9875
1185.91565	49560.8875
1189.51451	49754.8875
1193.11091	48728.7875
1196.70485	47171.2875
1200.29634	45378.0875
1203.88538	43960.7875
1207.47197	42787.6875
1211.05612	41655.3875
1214.63782	40793.0875
1218.21708	40066.1875
1221.79391	39621.0875
1225.36829	39376.5875
1228.94024	39250.3875
1232.50976	39076.3875
1236.07685	39026.2875
1239.6415	39039.7875
1243.20374	39032.2875
1246.76355	39113.2875
1250.32093	39314.0875
1253.8759	39743.8875
1257.42845	40392.2875
1260.97859	41160.2875
1264.52631	42186.2875
1268.07163	43164.5875
1271.61453	44059.0875
1275.15503	44836.8875
1278.69312	45401.2875
1282.22882	45732.9875
1285.76211	46167.5875
1289.29301	46936.9875
1292.82151	48042.0875
1296.34761	49413.8875
1299.87133	51214.9875
1303.39266	53457.6875
1306.9116	56433.6875
1310.42815	59356.9875
1313.94233	61009.7875
1317.45412	60601.7875
1320.96354	59163.0875
1324.47058	57698.9875
1327.97525	56285.0875
1331.47754	55263.4875
1334.97747	54791.9875
1338.47502	54719.9875
1341.97022	55020.8875
1345.46305	55833.2875
1348.95352	56988.0875
1352.44163	58085.2875
1355.92738	59613.8875
1359.41078	62185.9875
1362.89183	65277.8875
1366.37053	64798.9875
1369.84688	59532.9875
1373.32088	53262.3875
1376.79254	49021.1875
1380.26186	47098.1875
1383.72883	46421.7875
1387.19347	45993.2875
1390.65578	45418.8875
1394.11575	44958.4875
1397.57339	44733.0875
1401.0287	44819.9875
1404.48168	44878.2875
1407.93234	44685.6875
1411.38068	44201.6875
1414.82669	43571.6875
1418.27039	42756.0875
1421.71177	42107.1875
1425.15083	41469.8875
1428.58758	40996.7875
1432.02203	41123.2875
1435.45416	41519.4875
1438.88399	42000.9875
1442.31151	42328.3875
1445.73673	42497.6875
1449.15965	42681.3875
1452.58027	42750.3875
1455.9986	42732.6875
1459.41463	42790.5875
1462.82837	42935.5875
1466.23982	43224.7875
1469.64898	43488.0875
1473.05586	43674.8875
1476.46045	43705.2875
1479.86276	43735.1875
1483.26279	43805.0875
1486.66054	44059.0875
1490.05602	44524.5875
1493.44922	45378.1875
1496.84016	46766.0875
1500.22882	49069.2875
1503.61521	52124.0875
1506.99934	55582.4875
1510.38121	58632.9875
1513.76081	59645.9875
1517.13816	57887.9875
1520.51324	54143.3875
1523.88607	50449.3875
1527.25665	47885.5875
1530.62498	46535.9875
1533.99105	45753.6875
1537.35488	45205.7875
1540.71647	44574.8875
1544.07581	43937.8875
1547.4329	43480.5875
1550.78776	43251.1875
1554.14038	43134.1875
1557.49077	43203.4875
1560.83892	43438.9875
1564.18484	43824.4875
1567.52853	44393.0875
1570.86999	45039.7875
1574.20922	45686.8875
1577.54624	45994.0875
1580.88103	45588.1875
1584.2136	44830.5875
1587.54395	44588.8875
1590.87208	45067.9875
1594.19801	46088.4875
1597.52172	47344.8875
1600.84321	47773.2875
1604.16251	46577.9875
1607.47959	44706.8875
1610.79447	42852.1875
1614.10715	40760.2875
1617.41763	38782.9875
1620.7259	37319.7875
1624.03199	36554.8875
1627.33587	36538.0875
1630.63757	37126.9875
1633.93707	38415.3875
1637.23439	40554.3875
1640.52951	43483.6875
1643.82246	47055.3875
1647.11321	50183.6875
1650.40179	51580.8875
1653.68819	49762.4875
1656.97241	45067.4875
1660.25446	40058.4875
1663.53433	36390.2875
1666.81203	34047.8875
1670.08756	32648.4875
1673.36092	31823.4875
1676.63211	31279.5875
1679.90115	30820.1875
1683.16801	30436.2875
1686.43272	30308.0875
1689.69527	30069.8875
1692.95567	29878.3875
1696.2139	29762.5875
1699.46999	29710.7875
1702.72392	29640.4875
1705.97571	29615.2875
1709.22535	29555.9875
1712.47284	29548.5875
1715.71819	29530.8875
1718.96139	29546.4875
1722.20246	29499.7875
1725.44139	29401.8875
1728.67818	29282.0875
1731.91284	29185.4875
1735.14537	29151.8875
1738.37576	29074.2875
1741.60403	29045.5875
1744.83017	29001.0875
1748.05418	28964.7875
1751.27607	28981.5875
1754.49584	28972.9875
1757.71349	29052.4875
1760.92903	29099.5875
1764.14244	29123.6875
1767.35375	29195.2875
1770.56294	29193.2875
1773.77002	29120.6875
1776.97499	29107.1875
1780.17785	29102.7875
1783.37861	29091.4875
1786.57727	29033.7875
1789.77382	28966.7875
1792.96828	28814.2875
1796.16064	28743.1875
1799.3509	28684.2875
1802.53907	28640.7875
1805.72514	28459.6875
1808.90913	28344.2875
1812.09102	28243.6875
1815.27083	28090.5875
1818.44856	28043.7875
1821.6242	28012.5875
1824.79776	27892.3875
1827.96924	27804.0875
1831.13864	27763.7875
1834.30597	27767.6875
1837.47122	27750.1875
1840.6344	27753.7875
1843.7955	27733.5875
1846.95454	27647.9875
1850.11151	27584.6875
1853.26642	27538.7875
1856.41926	27524.9875
1859.57004	27471.5875
1862.71876	27424.0875
1865.86542	27339.6875
1869.01003	27295.6875
1872.15258	27284.6875
1875.29308	27283.1875
1878.43152	27223.2875
1881.56792	27195.9875
1884.70227	27124.5875
1887.83457	27023.8875
1890.96482	27008.8875
1894.09304	26915.3875
1897.21921	26895.7875
1900.34335	26850.8875
1903.46544	26851.4875
1906.58551	26806.1875
1909.70353	26783.8875
1912.81953	26702.9875
1915.93349	26689.7875
1919.04543	26681.9875
1922.15534	26629.7875
1925.26322	26566.3875
1928.36908	26543.1875
1931.47292	26490.5875
1934.57473	26472.8875
1937.67453	26395.7875
1940.77232	26320.6875
1943.86808	26250.6875
1946.96184	26230.4875
1950.05358	26152.6875
1953.14331	26082.3875
1956.23103	25958.2875
1959.31675	25842.1875
1962.40046	25821.6875
1965.48217	25783.1875
1968.56188	25729.6875
1971.63959	25637.3875
1974.7153	25589.1875
1977.78901	25516.7875
1980.86073	25403.3875
1983.93046	25349.3875
1986.99819	25180.1875
1990.06394	25133.3875
1993.1277	25083.1875
1996.18947	24937.8875
1999.24925	24896.5875
2002.30706	24822.6875
2005.36288	24751.2875
2008.41672	24668.1875
2011.46859	24610.4875
2014.51848	24502.6875
2017.56639	24428.0875
2020.61233	24405.3875
2023.6563	24352.3875
2026.6983	24253.2875
2029.73833	24207.5875
2032.7764	24149.6875
2035.8125	24075.7875
2038.84664	24011.9875
2041.87881	23993.7875
2044.90903	23971.2875
2047.93729	23900.1875
2050.96359	23877.4875
2053.98794	23895.9875
2057.01034	23888.2875
2060.03078	23876.2875
2063.04927	23849.6875
2066.06582	23818.2875
2069.08042	23858.1875
2072.09307	23852.4875
2075.10378	23873.3875
2078.11255	23813.0875
2081.11938	23842.1875
2084.12426	23855.4875
2087.12722	23862.9875
2090.12824	23863.4875
2093.12732	23838.8875
2096.12447	23848.2875
2099.11969	23879.6875
2102.11299	23867.0875
2105.10435	23908.9875
2108.09379	23856.7875
2111.08131	23844.2875
2114.0669	23818.2875
2117.05057	23838.0875
2120.03233	23835.6875
2123.01216	23866.4875
2125.99008	23880.7875
2128.96609	23911.4875
2131.94018	23954.6875
2134.91236	23952.1875
2137.88263	23948.8875
2140.851	23912.2875
2143.81746	23925.1875
2146.78201	23849.3875
2149.74466	23874.4875
2152.7054	23844.3875
2155.66425	23829.4875
2158.6212	23855.2875
2161.57625	23805.3875
2164.52941	23757.0875
2167.48067	23753.6875
2170.43004	23796.7875
2173.37752	23725.7875
2176.32311	23703.7875
2179.26681	23717.6875
2182.20863	23680.4875
2185.14856	23741.9875
2188.08661	23707.2875
2191.02278	23752.0875
2193.95707	23684.3875
2196.88948	23673.2875
2199.82001	23712.4875
2202.74867	23650.7875
2205.67545	23632.4875
2208.60037	23606.8875
2211.52341	23566.1875
2214.44458	23523.0875
2217.36388	23476.9875
2220.28132	23415.9875
2223.1969	23330.0875
2226.11061	23346.6875
2229.02246	23280.7875
2231.93245	23165.0875
2234.84058	23136.0875
2237.74686	23093.4875
2240.65128	23083.2875
2243.55385	23015.8875
2246.45456	23009.1875
2249.35343	22970.2875
2252.25044	22953.3875
2255.14561	22949.5875
2258.03893	22984.6875
2260.93041	22911.7875
2263.82004	22849.7875
2266.70783	22770.0875
2269.59378	22742.4875
2272.4779	22690.0875
2275.36017	22647.3875
2278.24061	22604.4875
2281.11922	22563.6875
2283.996	22564.6875
2286.87094	22461.2875
2289.74405	22486.0875
2292.61534	22457.2875
2295.4848	22420.2875
2298.35243	22454.8875
2301.21824	22343.3875
2304.08223	22377.3875
2306.94439	22347.5875
2309.80474	22354.7875
2312.66327	22375.7875
2315.51999	22319.1875
2318.37489	22273.1875
2321.22797	22202.9875
2324.07925	22186.2875
2326.92871	22141.8875
2329.77637	22104.2875
2332.62222	22074.6875
2335.46626	22019.9875
2338.3085	22015.4875
2341.14893	22020.1875
2343.98756	22033.0875
2346.8244	21983.8875
2349.65943	21969.7875
2352.49267	21968.7875
2355.32411	21972.7875
2358.15376	21981.8875
2360.98161	21958.6875
2363.80768	21959.2875
2366.63195	21989.5875
2369.45444	21910.5875
2372.27514	21884.3875
2375.09405	21916.0875
2377.91118	21884.5875
2380.72652	21833.2875
2383.54009	21773.1875
2386.35187	21737.9875
2389.16188	21682.2875
2391.97011	21621.3875
2394.77657	21616.8875
2397.58125	21573.5875
2400.38416	21560.6875
2403.18529	21475.3875
2405.98466	21434.3875
2408.78226	21367.4875
2411.57809	21376.9875
2414.37216	21387.1875
2417.16446	21351.5875
2419.955	21262.4875
2422.74378	21265.1875
2425.5308	21222.2875
2428.31606	21237.8875
2431.09956	21272.8875
2433.88131	21283.0875
2436.6613	21294.4875
2439.43954	21268.0875
2442.21603	21198.7875
2444.99077	21166.0875
2447.76377	21217.8875
2450.53501	21146.7875
2453.30451	21143.4875
2456.07226	21111.5875
2458.83827	21104.2875
2461.60254	21035.8875
2464.36507	21028.7875
2467.12586	21046.9875
2469.88492	21020.6875
2472.64224	20938.2875
2475.39782	20983.9875
2478.15167	21056.7875
2480.90379	21023.3875
2483.65417	21040.6875
2486.40283	20990.2875
2489.14976	21012.2875
2491.89497	20987.8875
2494.63845	21052.5875
2497.3802	21036.5875
2500.12024	21010.6875
2502.85855	21005.7875
2505.59514	20968.7875
2508.33002	20896.3875
2511.06318	20850.1875
2513.79462	20775.8875
2516.52435	20763.3875
2519.25237	20742.8875
2521.97867	20728.0875
2524.70327	20745.3875
2527.42616	20654.5875
2530.14734	20637.9875
2532.86681	20605.7875
2535.58458	20574.4875
2538.30065	20577.7875
2541.01501	20553.1875
2543.72768	20600.3875
2546.43864	20586.3875
2549.14791	20555.4875
2551.85548	20549.8875
2554.56136	20517.6875
2557.26554	20436.6875
2559.96803	20401.9875
2562.66883	20333.7875
2565.36794	20311.6875
2568.06536	20270.4875
2570.7611	20238.5875
2573.45514	20239.8875
2576.14751	20230.9875
2578.83819	20206.0875
2581.52719	20166.3875
2584.21451	20096.7875
2586.90015	20054.4875
2589.58411	20044.8875
2592.2664	20069.3875
2594.94701	20012.3875
2597.62594	20014.3875
2600.30321	19980.8875
2602.9788	20001.6875
2605.65273	19951.8875
2608.32498	19908.9875
2610.99557	19927.9875
2613.66449	19909.7875
2616.33175	19879.5875
2618.99734	19846.4875
2621.66128	19797.1875
2624.32355	19769.6875
2626.98416	19764.5875
2629.64311	19724.5875
2632.30041	19724.2875
2634.95605	19681.5875
2637.61004	19623.4875
2640.26238	19626.5875
2642.91306	19587.3875
2645.56209	19594.4875
2648.20948	19585.2875
2650.85521	19581.4875
2653.4993	19546.9875
2656.14175	19566.1875
2658.78255	19560.2875
2661.42171	19531.2875
2664.05923	19598.4875
2666.6951	19643.6875
2669.32934	19632.5875
2671.96194	19623.0875
2674.59291	19655.5875
2677.22224	19622.0875
2679.84993	19631.7875
2682.476	19618.8875
2685.10043	19639.2875
2687.72324	19652.0875
2690.34441	19661.6875
2692.96396	19678.0875
2695.58188	19639.3875
2698.19818	19607.7875
2700.81285	19613.7875
2703.4259	19584.2875
2706.03733	19516.2875
2708.64714	19508.7875
2711.25533	19569.8875
2713.86191	19608.6875
2716.46687	19664.7875
2719.07021	19692.4875
2721.67194	19699.3875
2724.27206	19662.8875
2726.87057	19726.3875
2729.46747	19737.6875
2732.06276	19669.9875
2734.65644	19651.8875
2737.24852	19700.5875
2739.83899	19644.1875
2742.42786	19640.0875
2745.01513	19617.9875
2747.60079	19631.6875
2750.18486	19571.3875
2752.76733	19614.8875
2755.3482	19578.0875
2757.92747	19549.7875
2760.50515	19479.0875
2763.08123	19491.3875
2765.65573	19450.8875
2768.22863	19411.7875
2770.79994	19425.6875
2773.36967	19400.9875
2775.9378	19352.3875
2778.50435	19393.7875
2781.06932	19351.0875
2783.6327	19335.4875
2786.1945	19318.4875
2788.75471	19309.9875
2791.31335	19267.1875
2793.87041	19262.6875
2796.42589	19217.7875
2798.97979	19191.8875
2801.53212	19102.0875
2804.08288	19130.1875
2806.63206	19060.1875
2809.17967	19002.8875
2811.72571	18963.9875
2814.27018	18962.8875
2816.81308	18894.3875
2819.35442	18875.3875
2821.89419	18838.5875
2824.43239	18804.0875
2826.96904	18739.1875
2829.50412	18760.3875
2832.03763	18746.3875
2834.56959	18802.7875
2837.1	18794.9875
2839.62884	18817.4875
2842.15613	18839.2875
2844.68186	18916.6875
2847.20604	18979.0875
2849.72867	19076.9875
2852.24974	19093.2875
2854.76927	19060.5875
2857.28724	19052.4875
2859.80367	19064.3875
2862.31855	19105.0875
2864.83189	19103.2875
2867.34368	19073.1875
2869.85393	19058.1875
2872.36264	19018.0875
2874.8698	19046.6875
2877.37543	19023.3875
2879.87952	18999.8875
2882.38207	18989.1875
2884.88308	18992.3875
2887.38256	19025.5875
2889.88051	19018.8875
2892.37692	19079.5875
2894.8718	19110.0875
2897.36515	19180.3875
2899.85698	19138.9875
2902.34727	19171.3875
2904.83604	19209.1875
2907.32328	19309.8875
2909.809	19305.1875
2912.29319	19386.3875
2914.77587	19410.9875
2917.25702	19397.8875
2919.73665	19369.0875
2922.21476	19411.9875
2924.69136	19344.5875
2927.16644	19345.9875
2929.64	19300.2875
2932.11205	19250.1875
2934.58258	19162.1875
2937.05161	19153.1875
2939.51912	19100.5875
2941.98513	19012.5875
2944.44962	18980.9875
2946.91261	18865.8875
2949.37409	18851.0875
2951.83407	18808.7875
2954.29254	18792.5875
2956.74951	18743.9875
2959.20498	18733.0875
2961.65895	18665.6875
2964.11142	18708.0875
2966.56239	18678.9875
2969.01186	18627.9875
2971.45984	18536.1875
2973.90632	18540.8875
2976.35131	18494.2875
2978.7948	18472.9875
2981.23681	18469.2875
2983.67732	18417.4875
2986.11635	18320.7875
2988.55388	18223.4875
2990.98993	18283.0875
2993.4245	18260.8875
2995.85758	18166.5875
2998.28917	18118.9875
3000.71928	18079.0875
3003.14791	18001.4875
3005.57506	18061.7875
3008.00073	18022.4875
3010.42493	17976.2875
3012.84764	17982.0875
3015.26888	17953.7875
3017.68865	17935.6875
3020.10694	17925.5875
3022.52376	17850.6875
3024.9391	17842.9875
3027.35298	17819.7875
3029.76539	17832.4875
3032.17632	17805.3875
3034.5858	17777.6875
3036.9938	17768.0875
3039.40034	17763.9875
3041.80542	17781.8875
3044.20903	17725.9875
3046.61118	17745.0875
3049.01187	17693.2875
3051.4111	17674.7875
3053.80888	17614.3875
3056.20519	17635.1875
3058.60005	17588.1875
3060.99345	17556.9875
3063.3854	17501.9875
3065.7759	17501.6875
3068.16494	17493.7875
3070.55254	17452.0875
3072.93868	17463.0875
3075.32338	17402.9875
3077.70662	17388.6875
3080.08842	17348.9875
3082.46878	17350.4875
3084.84769	17324.3875
3087.22515	17361.0875
3089.60118	17326.6875
3091.97576	17319.4875
3094.3489	17356.5875
3096.72061	17367.7875
3099.09087	17357.4875
3101.4597	17359.5875
3103.82709	17424.8875
3106.19305	17404.4875
3108.55757	17422.9875
3110.92066	17408.8875
3113.28232	17453.2875
3115.64255	17387.5875
3118.00134	17379.6875
3120.35871	17375.6875
3122.71466	17312.9875
3125.06917	17306.5875
3127.42226	17252.3875
3129.77393	17268.9875
3132.12417	17300.4875
3134.47299	17273.2875
3136.82039	17237.3875
3139.16636	17276.5875
3141.51092	17374.8875
3143.85406	17334.8875
3146.19579	17360.5875
3148.53609	17346.7875
3150.87499	17400.9875
3153.21246	17435.3875
3155.54853	17482.0875
3157.88318	17486.9875
3160.21642	17540.1875
3162.54826	17548.8875
3164.87868	17560.3875
3167.2077	17576.3875
3169.5353	17616.9875
3171.86151	17627.6875
3174.18631	17676.4875
3176.5097	17678.0875
3178.83169	17672.9875
3181.15228	17726.9875
3183.47147	17693.3875
3185.78926	17663.1875
3188.10565	17618.0875
3190.42065	17594.7875
3192.73424	17587.3875
3195.04645	17507.1875
3197.35725	17562.9875
3199.66667	17555.7875
3201.97469	17567.9875
3204.28132	17573.7875
3206.58656	17682.1875
3208.8904	17700.7875
3211.19287	17688.2875
3213.49394	17704.5875
3215.79363	17678.7875
3218.09193	17747.7875
3220.38884	17752.2875
3222.68438	17716.6875
3224.97853	17721.3875
3227.2713	17728.4875
3229.56269	17714.6875
3231.8527	17765.5875
3234.14133	17709.4875
3236.42858	17684.7875
3238.71446	17644.5875
3240.99896	17627.6875
3243.28209	17611.4875
3245.56384	17560.4875
3247.84423	17605.6875
3250.12324	17590.5875
3252.40088	17569.1875
3254.67715	17544.9875
3256.95205	17533.8875
3259.22558	17582.2875
3261.49775	17568.8875
3263.76855	17565.6875
3266.03799	17557.9875
3268.30606	17591.7875
3270.57277	17539.3875
3272.83812	17475.3875
3275.10211	17481.3875
3277.36474	17448.2875
3279.62601	17360.5875
3281.88593	17349.1875
3284.14448	17339.8875
3286.40168	17318.5875
3288.65753	17340.7875
3290.91202	17297.9875
3293.16516	17264.8875
3295.41695	17260.1875
3297.66738	17183.2875
3299.91647	17092.4875
3302.16421	16939.2875
3304.4106	16795.4875
3306.65564	16662.5875
3308.89933	16578.2875
3311.14169	16497.4875
3313.38269	16359.5875
3315.62236	16279.5875
3317.86068	16106.5875
3320.09766	15987.2875
3322.3333	15891.9875
3324.5676	15807.0875
3326.80056	15556.7875
3329.03219	15482.4875
3331.26248	4.0875
3333.49143	0.1875
3335.71905	0.5875
