Data from AgNP_FTO_APTES_UA_10uM_CRN_1uM_R6G_10uM_NaF_0.1M_Addition_RamanShift__16__13-11-20-515.txt Node

Date: Thu Feb 10 13:11:20 GMT 2022
User: TCL
Spectrometer: QEP01345
Trigger mode: 4
Integration Time (sec): 7.000000E0
Scans to average: 10
Electric dark correction enabled: true
Nonlinearity correction enabled: false
Boxcar width: 0
XAxis mode: Raman Shifts
Number of Pixels in Spectrum: 1044
>>>>>Begin Spectral Data<<<<<
46.04893	0.6
50.45542	-0.6
54.85868	-2
59.25871	-1.1
63.6555	76.4
68.04907	79.1
72.43941	86.4
76.82654	80.9
81.21044	91.2
85.59113	89.6
89.96862	97.3
94.34289	101.4
98.71396	99.3
103.08183	106
107.4465	111.4
111.80798	108.7
116.16626	116.4
120.52136	121.1
124.87327	126.8
129.222	132.5
133.56755	137.8
137.90993	153.8
142.24913	160.8
146.58517	185.5
150.91804	214.9
155.24774	259
159.57429	326.5
163.89768	414.2
168.21792	556.9
172.53501	759.7
176.84895	1067.3
181.15975	1501.1
185.46741	2099.6
189.77193	2913.6
194.07331	3911.4
198.37157	5022.7
202.6667	6210.4
206.9587	7377.7
211.24758	8513.6
215.53334	9698.3
219.81599	10944.4
224.09553	12325.4
228.37195	13848.7
232.64527	15510.2
236.91549	17278.4
241.18261	18988.9
245.44663	20549.4
249.70755	21975.4
253.96539	23151.5
258.22014	24239.3
262.4718	25099.9
266.72039	25733.8
270.96589	26081.9
275.20832	26092.9
279.44768	25933.3
283.68397	25658.2
287.91719	25449.8
292.14735	25311.8
296.37445	25342
300.59849	25481.3
304.81948	25617.3
309.03742	25682.2
313.25231	25488.2
317.46415	24878.5
321.67296	24030
325.87872	23328.2
330.08145	23004.5
334.28114	23009.3
338.47781	23185.7
342.67145	23496.8
346.86207	23946.8
351.04966	24552.3
355.23424	25152.6
359.4158	25675.7
363.59435	26017.9
367.76989	26297.2
371.94243	26411.4
376.11196	26535.3
380.27849	26569.8
384.44203	26689.4
388.60257	26804.7
392.76012	27026.8
396.91468	27308.8
401.06626	27710.3
405.21485	28052
409.36047	27872
413.50311	27357.1
417.64277	26966.3
421.77947	26778
425.9132	26823.7
430.04396	26994.9
434.17176	27034.6
438.2966	27205.7
442.41849	27629.9
446.53742	28287.8
450.6534	29057.8
454.76644	29589.5
458.87653	29820.4
462.98368	29672.4
467.08789	29390.9
471.18916	28958.1
475.2875	28499
479.38291	28272.5
483.4754	28077.4
487.56496	27830
491.6516	27509.2
495.73531	27177.7
499.81612	27076.2
503.89401	27192.2
507.96899	27316.7
512.04106	27299.8
516.11023	27194.2
520.1765	26995.4
524.23987	26741.4
528.30034	26524
532.35792	26210.5
536.41261	25848.9
540.46441	25544.7
544.51333	25470
548.55936	25754.3
552.60252	26370.1
556.64279	27003.4
560.6802	27404.3
564.71473	27641.2
568.7464	28090.7
572.7752	28759.3
576.80114	29241.1
580.82422	29730.7
584.84444	30150.8
588.86181	30590.4
592.87633	30873.3
596.888	30765.7
600.89682	30549.1
604.9028	31592
608.90594	34993.1
612.90624	38681.7
616.90371	36443.3
620.89834	29974.1
624.89015	27010.5
628.87913	26604.5
632.86528	26667.2
636.84862	26637.3
640.82913	26249.5
644.80683	25467.8
648.78172	24947.6
652.75379	24840.5
656.72306	25233.9
660.68952	25805.7
664.65319	25695.9
668.61405	25089.4
672.57211	24967.4
676.52738	25021.8
680.47986	24993.2
684.42955	24829.2
688.37646	24776.5
692.32058	24927.5
696.26192	25237
700.20048	25586.4
704.13626	25767.2
708.06928	25693.1
711.99952	25508.8
715.927	25401.2
719.85171	25536.2
723.77365	25476.3
727.69284	25132.1
731.60928	24777.5
735.52295	24685.1
739.43388	24684.9
743.34206	24765.9
747.24749	24895.6
751.15017	25150.3
755.05012	25493.4
758.94733	26288
762.8418	27722.6
766.73354	30090.8
770.62254	32357.1
774.50882	32997.3
778.39237	31571.6
782.27321	29161.3
786.15132	27095.9
790.02671	25751.2
793.89938	25142.1
797.76935	24866.2
801.6366	24817.4
805.50115	24720.8
809.36299	24538.6
813.22213	24321.3
817.07857	24237.9
820.93231	24126.5
824.78336	24046.8
828.63172	23988.5
832.47738	23945.1
836.32036	23953.7
840.16066	24005.2
843.99827	24053.6
847.8332	24034.6
851.66546	23974.6
855.49504	23933.3
859.32195	23934.1
863.1462	23874.9
866.96777	23778.3
870.78668	23774.2
874.60293	23767.1
878.41652	23769.1
882.22745	23858.1
886.03573	23956.1
889.84136	23960
893.64433	23868
897.44466	23769.7
901.24235	23696.5
905.0374	23600.2
908.8298	23511.3
912.61957	23497.6
916.40671	23649.9
920.19121	23928.4
923.97308	24200.8
927.75233	24350.5
931.52895	24283.7
935.30295	24030.8
939.07433	23513.6
942.84309	23111.9
946.60924	22975.3
950.37278	22901.1
954.13371	22883
957.89203	22824.5
961.64774	22714.4
965.40086	22698.4
969.15137	22665.3
972.89929	22563
976.64461	22550.7
980.38733	22519.3
984.12747	22631.2
987.86502	22834.6
991.59999	23146.5
995.33237	23567.4
999.06217	24189.4
1002.78939	24881.4
1006.51404	25376.9
1010.23611	25745
1013.95561	25991.1
1017.67255	26019.9
1021.38692	25707.9
1025.09872	25335.2
1028.80796	25302.1
1032.51465	25701.6
1036.21877	26204.9
1039.92035	26317.8
1043.61937	26103.5
1047.31584	25699.6
1051.00976	25167.2
1054.70114	24961.6
1058.38998	25012.4
1062.07627	25127.2
1065.76003	25329.3
1069.44126	25578.9
1073.11995	25972.1
1076.79611	26411.1
1080.46974	26644.9
1084.14085	27015.6
1087.80943	27393.6
1091.47549	27743.9
1095.13903	27634.4
1098.80005	27211.7
1102.45857	26601.6
1106.11456	26196.1
1109.76805	25950.9
1113.41903	25959
1117.06751	26164.6
1120.71348	26440.6
1124.35696	26770.8
1127.99793	27117.5
1131.63641	27320.7
1135.2724	27078.3
1138.90589	26810.1
1142.5369	26696
1146.16542	26629.3
1149.79145	26687.8
1153.415	26779.1
1157.03607	27049.4
1160.65467	27722.5
1164.27079	28846
1167.88443	30410.5
1171.49561	32421.1
1175.10432	34997.8
1178.71056	38351.2
1182.31434	41380
1185.91565	43080.9
1189.51451	43050.1
1193.11091	41677.5
1196.70485	39723.2
1200.29634	37791.2
1203.88538	36208
1207.47197	35080.6
1211.05612	34176.7
1214.63782	33480.1
1218.21708	32862.3
1221.79391	32520.1
1225.36829	32377
1228.94024	32125.1
1232.50976	31638.3
1236.07685	31199.2
1239.6415	30919.4
1243.20374	30793
1246.76355	30938.5
1250.32093	31402
1253.8759	32108.1
1257.42845	33047.1
1260.97859	34120
1264.52631	35225.6
1268.07163	36359.6
1271.61453	37491.6
1275.15503	38631.3
1278.69312	39615.4
1282.22882	40471
1285.76211	41283.3
1289.29301	42180
1292.82151	43368.9
1296.34761	45030.7
1299.87133	47278.3
1303.39266	50177.7
1306.9116	53621.2
1310.42815	57018.7
1313.94233	59151.5
1317.45412	59318.4
1320.96354	58092.3
1324.47058	56780.5
1327.97525	55674.4
1331.47754	54933.9
1334.97747	54602
1338.47502	54418.3
1341.97022	54167.9
1345.46305	53611.9
1348.95352	52976.7
1352.44163	52651.1
1355.92738	53391.9
1359.41078	55659.1
1362.89183	57926.8
1366.37053	57054.7
1369.84688	52093.1
1373.32088	46306.6
1376.79254	42413.3
1380.26186	40662.1
1383.72883	40186.6
1387.19347	39902.6
1390.65578	39426.9
1394.11575	39177.5
1397.57339	39463.5
1401.0287	40156.1
1404.48168	40833
1407.93234	41206.9
1411.38068	40852.5
1414.82669	39875.2
1418.27039	38493.8
1421.71177	37013.7
1425.15083	35859.9
1428.58758	35229.4
1432.02203	35446.7
1435.45416	36214.6
1438.88399	37153.3
1442.31151	37903
1445.73673	38487.3
1449.15965	38903.2
1452.58027	39130.5
1455.9986	39254.5
1459.41463	39571.7
1462.82837	40256.7
1466.23982	41067.9
1469.64898	41849.9
1473.05586	42205.8
1476.46045	42131.8
1479.86276	41792.7
1483.26279	41394.9
1486.66054	41268.3
1490.05602	41420.2
1493.44922	41860.6
1496.84016	42479.6
1500.22882	43554.8
1503.61521	45335.4
1506.99934	47564
1510.38121	49455.4
1513.76081	49868.1
1517.13816	48277.2
1520.51324	45585
1523.88607	43066.9
1527.25665	41517.7
1530.62498	40760.6
1533.99105	40340
1537.35488	40001.8
1540.71647	39529.4
1544.07581	38904.4
1547.4329	38284
1550.78776	37698.2
1554.14038	37288.2
1557.49077	37095.6
1560.83892	37028.2
1564.18484	37121.4
1567.52853	37327.5
1570.86999	37634
1574.20922	38040
1577.54624	38364.3
1580.88103	38199.7
1584.2136	38080.9
1587.54395	38770.7
1590.87208	40521.1
1594.19801	43132.2
1597.52172	45781.1
1600.84321	46721.3
1604.16251	44793.6
1607.47959	41536.9
1610.79447	37987.7
1614.10715	34619.3
1617.41763	31840.6
1620.7259	29944.4
1624.03199	28967.8
1627.33587	28973.5
1630.63757	29760.6
1633.93707	31751.9
1637.23439	34918.7
1640.52951	39372.6
1643.82246	44314.8
1647.11321	48080
1650.40179	48716.3
1653.68819	45412.6
1656.97241	39453.1
1660.25446	33544
1663.53433	29195.6
1666.81203	26382.6
1670.08756	24696.8
1673.36092	23664.1
1676.63211	22906
1679.90115	22446.7
1683.16801	22064.7
1686.43272	21783.5
1689.69527	21606.4
1692.95567	21460.1
1696.2139	21359.1
1699.46999	21284.5
1702.72392	21201.2
1705.97571	21158
1709.22535	21077.4
1712.47284	21062.3
1715.71819	20994
1718.96139	20976.6
1722.20246	20845
1725.44139	20767
1728.67818	20581.4
1731.91284	20467.4
1735.14537	20348.6
1738.37576	20332.4
1741.60403	20229.7
1744.83017	20141.9
1748.05418	20063.7
1751.27607	20035
1754.49584	20021
1757.71349	19978.5
1760.92903	19941.3
1764.14244	19935
1767.35375	19923.5
1770.56294	19843.3
1773.77002	19827.6
1776.97499	19778.1
1780.17785	19757.5
1783.37861	19698.8
1786.57727	19656.9
1789.77382	19646
1792.96828	19574.6
1796.16064	19542.2
1799.3509	19552.8
1802.53907	19505.7
1805.72514	19433
1808.90913	19376.4
1812.09102	19344.6
1815.27083	19318
1818.44856	19288.5
1821.6242	19263.6
1824.79776	19229.4
1827.96924	19211.4
1831.13864	19249.1
1834.30597	19278
1837.47122	19260.5
1840.6344	19281.6
1843.7955	19300.6
1846.95454	19291.3
1850.11151	19269.9
1853.26642	19284
1856.41926	19254.9
1859.57004	19274.3
1862.71876	19269.2
1865.86542	19229.8
1869.01003	19220.4
1872.15258	19220.3
1875.29308	19197.4
1878.43152	19162.4
1881.56792	19184.8
1884.70227	19180
1887.83457	19138
1890.96482	19094.9
1894.09304	19036.5
1897.21921	19004.8
1900.34335	18990
1903.46544	18966.6
1906.58551	18975.7
1909.70353	18948.5
1912.81953	18863.1
1915.93349	18835.2
1919.04543	18801.2
1922.15534	18746.4
1925.26322	18652.6
1928.36908	18648.6
1931.47292	18613.1
1934.57473	18570.1
1937.67453	18517.9
1940.77232	18453.9
1943.86808	18352.7
1946.96184	18303.4
1950.05358	18209.5
1953.14331	18177.3
1956.23103	18106.5
1959.31675	18035.6
1962.40046	18017.8
1965.48217	17927
1968.56188	17869.3
1971.63959	17825.9
1974.7153	17785.9
1977.78901	17728.9
1980.86073	17668.5
1983.93046	17627.3
1986.99819	17557.7
1990.06394	17512.4
1993.1277	17464.2
1996.18947	17406.3
1999.24925	17383.1
2002.30706	17286
2005.36288	17269.4
2008.41672	17198.9
2011.46859	17121.1
2014.51848	17104.3
2017.56639	17085.7
2020.61233	17039.8
2023.6563	17034.7
2026.6983	16978.2
2029.73833	16929.7
2032.7764	16903.2
2035.8125	16870.4
2038.84664	16818.3
2041.87881	16796.7
2044.90903	16802.2
2047.93729	16730
2050.96359	16750.4
2053.98794	16751.6
2057.01034	16698
2060.03078	16698.3
2063.04927	16668.1
2066.06582	16660.4
2069.08042	16641
2072.09307	16630.8
2075.10378	16615.4
2078.11255	16613.3
2081.11938	16589.3
2084.12426	16603.1
2087.12722	16582.1
2090.12824	16575
2093.12732	16558.4
2096.12447	16539.8
2099.11969	16531.4
2102.11299	16561.7
2105.10435	16576.9
2108.09379	16572.9
2111.08131	16580.2
2114.0669	16563
2117.05057	16610
2120.03233	16603.9
2123.01216	16641.6
2125.99008	16614.4
2128.96609	16635.6
2131.94018	16665.2
2134.91236	16684.3
2137.88263	16659.3
2140.851	16691.9
2143.81746	16695.9
2146.78201	16705.9
2149.74466	16687.8
2152.7054	16690.6
2155.66425	16692.8
2158.6212	16662.2
2161.57625	16637.5
2164.52941	16612.3
2167.48067	16604.8
2170.43004	16609
2173.37752	16627.4
2176.32311	16638
2179.26681	16661.9
2182.20863	16622.2
2185.14856	16644.6
2188.08661	16615.5
2191.02278	16652.7
2193.95707	16621.5
2196.88948	16625.7
2199.82001	16612.4
2202.74867	16598.8
2205.67545	16622.3
2208.60037	16601.9
2211.52341	16562.5
2214.44458	16566.3
2217.36388	16500.2
2220.28132	16485.2
2223.1969	16455.2
2226.11061	16393.8
2229.02246	16382.8
2231.93245	16375.7
2234.84058	16329.6
2237.74686	16327.9
2240.65128	16229.8
2243.55385	16229.2
2246.45456	16212.1
2249.35343	16194.8
2252.25044	16193.6
2255.14561	16152.7
2258.03893	16159.7
2260.93041	16122
2263.82004	16077.8
2266.70783	16052.4
2269.59378	16017.2
2272.4779	15979.6
2275.36017	15919.8
2278.24061	15926.4
2281.11922	15885.6
2283.996	15885
2286.87094	15825.5
2289.74405	15823.6
2292.61534	15793.9
2295.4848	15787
2298.35243	15792.6
2301.21824	15771.8
2304.08223	15801.8
2306.94439	15794.2
2309.80474	15783.6
2312.66327	15840.6
2315.51999	15800.1
2318.37489	15821.2
2321.22797	15815
2324.07925	15802.3
2326.92871	15731.4
2329.77637	15758.5
2332.62222	15734
2335.46626	15707
2338.3085	15718.2
2341.14893	15691.5
2343.98756	15704
2346.8244	15741.4
2349.65943	15730.4
2352.49267	15711.1
2355.32411	15711.3
2358.15376	15715.8
2360.98161	15732.3
2363.80768	15722.5
2366.63195	15685
2369.45444	15678.1
2372.27514	15651
2375.09405	15647.2
2377.91118	15614.9
2380.72652	15531
2383.54009	15507.3
2386.35187	15494.4
2389.16188	15417.7
2391.97011	15411.9
2394.77657	15386.5
2397.58125	15347.6
2400.38416	15311
2403.18529	15290.6
2405.98466	15267.3
2408.78226	15230.2
2411.57809	15236.8
2414.37216	15208.2
2417.16446	15216.4
2419.955	15132.6
2422.74378	15150.6
2425.5308	15148.4
2428.31606	15150
2431.09956	15154.8
2433.88131	15131.6
2436.6613	15177.7
2439.43954	15172.1
2442.21603	15161.3
2444.99077	15129.4
2447.76377	15108
2450.53501	15146.5
2453.30451	15133.9
2456.07226	15109.3
2458.83827	15121.3
2461.60254	15091.8
2464.36507	15117.9
2467.12586	15117.4
2469.88492	15084.7
2472.64224	15112.1
2475.39782	15140.4
2478.15167	15099.6
2480.90379	15126.5
2483.65417	15145.3
2486.40283	15140.7
2489.14976	15121.6
2491.89497	15145.3
2494.63845	15164.7
2497.3802	15150.5
2500.12024	15143.7
2502.85855	15116.3
2505.59514	15130.2
2508.33002	15061.2
2511.06318	15064.4
2513.79462	15061.2
2516.52435	15039.9
2519.25237	15043.9
2521.97867	14996.4
2524.70327	15023.9
2527.42616	14996.1
2530.14734	14982.9
2532.86681	14986.9
2535.58458	15001.2
2538.30065	14977.8
2541.01501	14997.1
2543.72768	14989.5
2546.43864	14948.7
2549.14791	14970.1
2551.85548	14947
2554.56136	14933.4
2557.26554	14907.9
2559.96803	14885.7
2562.66883	14833.6
2565.36794	14829.4
2568.06536	14828.2
2570.7611	14802
2573.45514	14771.9
2576.14751	14801.3
2578.83819	14756.1
2581.52719	14770.7
2584.21451	14731.5
2586.90015	14744
2589.58411	14740.3
2592.2664	14742.4
2594.94701	14712.7
2597.62594	14729.4
2600.30321	14687.2
2602.9788	14701.8
2605.65273	14653.8
2608.32498	14694.9
2610.99557	14687.1
2613.66449	14666.2
2616.33175	14695.5
2618.99734	14652.1
2621.66128	14622.1
2624.32355	14631.9
2626.98416	14628.8
2629.64311	14629.7
2632.30041	14627.7
2634.95605	14600.8
2637.61004	14580.1
2640.26238	14582.9
2642.91306	14580.7
2645.56209	14590.1
2648.20948	14572.4
2650.85521	14523.6
2653.4993	14542.9
2656.14175	14540.2
2658.78255	14557
2661.42171	14565.7
2664.05923	14585.4
2666.6951	14591.3
2669.32934	14573.7
2671.96194	14602
2674.59291	14612.9
2677.22224	14598.7
2679.84993	14602.4
2682.476	14592.8
2685.10043	14604.6
2687.72324	14557.7
2690.34441	14544.3
2692.96396	14541.8
2695.58188	14541
2698.19818	14532.6
2700.81285	14525.4
2703.4259	14511.8
2706.03733	14541.3
2708.64714	14496.5
2711.25533	14526.6
2713.86191	14511
2716.46687	14552.5
2719.07021	14571.9
2721.67194	14601.5
2724.27206	14579.3
2726.87057	14608.7
2729.46747	14615.3
2732.06276	14622.8
2734.65644	14621.3
2737.24852	14616
2739.83899	14567
2742.42786	14598.5
2745.01513	14583.5
2747.60079	14557.7
2750.18486	14540.6
2752.76733	14544
2755.3482	14520.3
2757.92747	14526.7
2760.50515	14529
2763.08123	14509.6
2765.65573	14504.9
2768.22863	14495.5
2770.79994	14469.1
2773.36967	14459.8
2775.9378	14444.4
2778.50435	14463
2781.06932	14471.8
2783.6327	14478.1
2786.1945	14470.2
2788.75471	14475.4
2791.31335	14406.4
2793.87041	14408.6
2796.42589	14367.1
2798.97979	14350.7
2801.53212	14359.1
2804.08288	14346.4
2806.63206	14316.1
2809.17967	14253.4
2811.72571	14240.8
2814.27018	14220.1
2816.81308	14188.4
2819.35442	14126.6
2821.89419	14138.7
2824.43239	14113.5
2826.96904	14111.2
2829.50412	14123.7
2832.03763	14065.5
2834.56959	14069.1
2837.1	14067
2839.62884	14054
2842.15613	14073.1
2844.68186	14093.3
2847.20604	14064.1
2849.72867	14083.6
2852.24974	14107.3
2854.76927	14073.7
2857.28724	14054
2859.80367	14035.9
2862.31855	13992.6
2864.83189	14015.7
2867.34368	13963.3
2869.85393	14009.3
2872.36264	13967.3
2874.8698	13965.2
2877.37543	13960.4
2879.87952	13979.6
2882.38207	13978
2884.88308	13947.5
2887.38256	13955.6
2889.88051	13931.8
2892.37692	13926.2
2894.8718	13957.6
2897.36515	14018.5
2899.85698	13996.3
2902.34727	13995.7
2904.83604	14021.3
2907.32328	14044.6
2909.809	14035.9
2912.29319	14056.5
2914.77587	14068.2
2917.25702	14037.5
2919.73665	14045.4
2922.21476	14004.8
2924.69136	13995.5
2927.16644	13999.6
2929.64	13966.2
2932.11205	13962.5
2934.58258	13922.2
2937.05161	13921
2939.51912	13886.9
2941.98513	13893.5
2944.44962	13843.5
2946.91261	13796.7
2949.37409	13835.1
2951.83407	13823.5
2954.29254	13831.3
2956.74951	13824.9
2959.20498	13818.3
2961.65895	13778.6
2964.11142	13783.8
2966.56239	13754.2
2969.01186	13766.4
2971.45984	13711.7
2973.90632	13699.6
2976.35131	13647.2
2978.7948	13632.4
2981.23681	13567.2
2983.67732	13558.3
2986.11635	13536.6
2988.55388	13511.4
2990.98993	13469.3
2993.4245	13440.3
2995.85758	13426
2998.28917	13388
3000.71928	13360.9
3003.14791	13364.1
3005.57506	13309.5
3008.00073	13285.7
3010.42493	13165.2
3012.84764	13239.1
3015.26888	13222.8
3017.68865	13172.9
3020.10694	13143.9
3022.52376	13142.2
3024.9391	13101.8
3027.35298	13092.4
3029.76539	13081.6
3032.17632	13101
3034.5858	13045.2
3036.9938	13062.9
3039.40034	13061.8
3041.80542	13054.8
3044.20903	13031.9
3046.61118	13044.1
3049.01187	12980.3
3051.4111	12970
3053.80888	12952
3056.20519	12916.8
3058.60005	12883.6
3060.99345	12872.3
3063.3854	12834.2
3065.7759	12788.1
3068.16494	12776.7
3070.55254	12740.9
3072.93868	12716.5
3075.32338	12698.7
3077.70662	12671.5
3080.08842	12655.3
3082.46878	12608.2
3084.84769	12587.2
3087.22515	12574
3089.60118	12601.1
3091.97576	12561.6
3094.3489	12562.1
3096.72061	12571.8
3099.09087	12555.1
3101.4597	12536.4
3103.82709	12547.8
3106.19305	12519.1
3108.55757	12514.9
3110.92066	12503.9
3113.28232	12513.9
3115.64255	12447.8
3118.00134	12395.1
3120.35871	12389.7
3122.71466	12359.4
3125.06917	12331
3127.42226	12331.6
3129.77393	12321.5
3132.12417	12287.6
3134.47299	12271
3136.82039	12272.1
3139.16636	12270.4
3141.51092	12282.3
3143.85406	12293
3146.19579	12240.6
3148.53609	12244.6
3150.87499	12258.3
3153.21246	12243.5
3155.54853	12292.5
3157.88318	12254.8
3160.21642	12292.7
3162.54826	12268.4
3164.87868	12282.6
3167.2077	12293
3169.5353	12297.8
3171.86151	12282.2
3174.18631	12267.5
3176.5097	12221.2
3178.83169	12210
3181.15228	12213.4
3183.47147	12195.3
3185.78926	12201.9
3188.10565	12180.5
3190.42065	12174
3192.73424	12142.7
3195.04645	12141
3197.35725	12115.6
3199.66667	12107.5
3201.97469	12111.1
3204.28132	12119
3206.58656	12130.8
3208.8904	12136.8
3211.19287	12157
3213.49394	12177
3215.79363	12178
3218.09193	12162.8
3220.38884	12145.6
3222.68438	12155.1
3224.97853	12152.7
3227.2713	12184.5
3229.56269	12130.4
3231.8527	12144.6
3234.14133	12088.1
3236.42858	12060.4
3238.71446	12041.2
3240.99896	11999.9
3243.28209	12008.1
3245.56384	11988.4
3247.84423	11980.9
3250.12324	11980.3
3252.40088	11948.7
3254.67715	11933.4
3256.95205	11943.1
3259.22558	11932.9
3261.49775	11916.7
3263.76855	11915.2
3266.03799	11886.2
3268.30606	11866.3
3270.57277	11845.9
3272.83812	11836.6
3275.10211	11780.8
3277.36474	11762.6
3279.62601	11781.1
3281.88593	11758.7
3284.14448	11773.4
3286.40168	11781.6
3288.65753	11768.8
3290.91202	11751
3293.16516	11718.7
3295.41695	11705.7
3297.66738	11658.1
3299.91647	11567.1
3302.16421	11519.9
3304.4106	11462.9
3306.65564	11397.2
3308.89933	11309.6
3311.14169	11240.6
3313.38269	11144.5
3315.62236	11057.7
3317.86068	10971.9
3320.09766	10889.8
3322.3333	10822.2
3324.5676	10764.9
3326.80056	10552.3
3329.03219	10504.9
3331.26248	4.8
3333.49143	0.2
3335.71905	-0.4
