Data from AgNP_FTO_APTES_UA_10uM_CRN_50uM_R6G_10uM_NaF_0.1M_Addition_RamanShift__16__17-01-10-802.txt Node

Date: Thu Feb 10 17:01:10 GMT 2022
User: TCL
Spectrometer: QEP01345
Trigger mode: 4
Integration Time (sec): 7.000000E0
Scans to average: 10
Electric dark correction enabled: true
Nonlinearity correction enabled: false
Boxcar width: 0
XAxis mode: Raman Shifts
Number of Pixels in Spectrum: 1044
>>>>>Begin Spectral Data<<<<<
46.04893	-0.2625
50.45542	-0.6625
54.85868	-1.3625
59.25871	-1.3625
63.6555	60.1375
68.04907	60.2375
72.43941	64.7375
76.82654	64.0375
81.21044	71.3375
85.59113	70.1375
89.96862	74.7375
94.34289	76.5375
98.71396	81.7375
103.08183	84.1375
107.4465	86.2375
111.80798	85.9375
116.16626	90.2375
120.52136	86.4375
124.87327	97.3375
129.222	104.1375
133.56755	106.7375
137.90993	109.1375
142.24913	118.2375
146.58517	134.6375
150.91804	156.7375
155.24774	184.2375
159.57429	224.2375
163.89768	284.2375
168.21792	372.9375
172.53501	509.5375
176.84895	716.1375
181.15975	1002.5375
185.46741	1400.9375
189.77193	1940.8375
194.07331	2610.7375
198.37157	3356.1375
202.6667	4137.7375
206.9587	4923.2375
211.24758	5661.1375
215.53334	6433.8375
219.81599	7231.6375
224.09553	8082.7375
228.37195	9028.9375
232.64527	10100.7375
236.91549	11252.9375
241.18261	12402.2375
245.44663	13525.4375
249.70755	14560.8375
253.96539	15450.9375
258.22014	16234.4375
262.4718	16880.9375
266.72039	17348.8375
270.96589	17612.8375
275.20832	17708.5375
279.44768	17675.6375
283.68397	17574.5375
287.91719	17443.2375
292.14735	17357.0375
296.37445	17333.0375
300.59849	17300.8375
304.81948	17280.0375
309.03742	17123.4375
313.25231	16898.1375
317.46415	16562.6375
321.67296	16156.0375
325.87872	15852.3375
330.08145	15738.0375
334.28114	15795.8375
338.47781	15922.3375
342.67145	16101.1375
346.86207	16311.9375
351.04966	16518.9375
355.23424	16789.4375
359.4158	16971.8375
363.59435	17214.4375
367.76989	17312.9375
371.94243	17460.6375
376.11196	17559.7375
380.27849	17676.8375
384.44203	17796.0375
388.60257	17920.3375
392.76012	18060.1375
396.91468	18235.3375
401.06626	18484.1375
405.21485	18646.7375
409.36047	18581.2375
413.50311	18415.2375
417.64277	18249.7375
421.77947	18231.5375
425.9132	18269.3375
430.04396	18363.5375
434.17176	18476.7375
438.2966	18584.8375
442.41849	18806.3375
446.53742	19093.3375
450.6534	19477.2375
454.76644	19802.9375
458.87653	19954.9375
462.98368	19988.8375
467.08789	19941.6375
471.18916	19809.8375
475.2875	19739.1375
479.38291	19696.4375
483.4754	19603.1375
487.56496	19348.2375
491.6516	19106.2375
495.73531	18896.1375
499.81612	18768.0375
503.89401	18847.7375
507.96899	18875.0375
512.04106	18909.0375
516.11023	18839.5375
520.1765	18725.2375
524.23987	18637.9375
528.30034	18487.0375
532.35792	18340.1375
536.41261	18260.4375
540.46441	18178.9375
544.51333	18269.0375
548.55936	18480.6375
552.60252	18795.8375
556.64279	19091.9375
560.6802	19226.7375
564.71473	19280.0375
568.7464	19462.1375
572.7752	19709.6375
576.80114	19943.1375
580.82422	20143.4375
584.84444	20299.3375
588.86181	20338.4375
592.87633	20413.5375
596.888	20447.5375
600.89682	20548.7375
604.9028	21114.8375
608.90594	22332.4375
612.90624	23503.3375
616.90371	22362.9375
620.89834	19868.6375
624.89015	18854.0375
628.87913	18837.3375
632.86528	18852.0375
636.84862	18830.6375
640.82913	18664.6375
644.80683	18330.6375
648.78172	18104.7375
652.75379	18064.5375
656.72306	18122.7375
660.68952	18350.7375
664.65319	18290.7375
668.61405	18123.3375
672.57211	18108.1375
676.52738	18146.6375
680.47986	18145.0375
684.42955	18099.9375
688.37646	18073.1375
692.32058	18092.9375
696.26192	18214.3375
700.20048	18387.0375
704.13626	18431.7375
708.06928	18483.5375
711.99952	18400.5375
715.927	18341.6375
719.85171	18360.4375
723.77365	18322.4375
727.69284	18212.8375
731.60928	18075.5375
735.52295	18006.0375
739.43388	18016.0375
743.34206	18021.4375
747.24749	18067.3375
751.15017	18195.5375
755.05012	18401.4375
758.94733	18775.5375
762.8418	19407.4375
766.73354	20398.0375
770.62254	21355.8375
774.50882	21522.7375
778.39237	20810.3375
782.27321	19676.5375
786.15132	18794.6375
790.02671	18300.6375
793.89938	18013.9375
797.76935	17912.1375
801.6366	17893.9375
805.50115	17855.5375
809.36299	17780.1375
813.22213	17676.3375
817.07857	17659.7375
820.93231	17650.4375
824.78336	17581.6375
828.63172	17591.5375
832.47738	17571.0375
836.32036	17572.8375
840.16066	17610.4375
843.99827	17620.0375
847.8332	17651.4375
851.66546	17585.4375
855.49504	17579.7375
859.32195	17590.0375
863.1462	17595.8375
866.96777	17545.1375
870.78668	17496.2375
874.60293	17512.7375
878.41652	17523.3375
882.22745	17528.4375
886.03573	17555.4375
889.84136	17516.6375
893.64433	17489.5375
897.44466	17406.7375
901.24235	17371.8375
905.0374	17354.9375
908.8298	17336.0375
912.61957	17384.3375
916.40671	17500.0375
920.19121	17663.3375
923.97308	17730.7375
927.75233	17700.0375
931.52895	17655.9375
935.30295	17503.1375
939.07433	17294.7375
942.84309	17130.8375
946.60924	17056.8375
950.37278	17013.2375
954.13371	16967.4375
957.89203	16929.9375
961.64774	16853.1375
965.40086	16843.4375
969.15137	16798.5375
972.89929	16728.4375
976.64461	16728.1375
980.38733	16727.5375
984.12747	16795.7375
987.86502	16897.2375
991.59999	17003.8375
995.33237	17195.1375
999.06217	17492.7375
1002.78939	17812.7375
1006.51404	17932.6375
1010.23611	17975.0375
1013.95561	18077.9375
1017.67255	18106.2375
1021.38692	18018.0375
1025.09872	17934.2375
1028.80796	17984.7375
1032.51465	18288.5375
1036.21877	18653.8375
1039.92035	18642.4375
1043.61937	18497.4375
1047.31584	18251.7375
1051.00976	18054.4375
1054.70114	17942.9375
1058.38998	18042.6375
1062.07627	18176.2375
1065.76003	18281.0375
1069.44126	18314.3375
1073.11995	18425.2375
1076.79611	18557.6375
1080.46974	18631.3375
1084.14085	18688.3375
1087.80943	18824.2375
1091.47549	18948.1375
1095.13903	18939.4375
1098.80005	18829.6375
1102.45857	18606.3375
1106.11456	18409.7375
1109.76805	18328.3375
1113.41903	18361.7375
1117.06751	18408.4375
1120.71348	18496.7375
1124.35696	18642.1375
1127.99793	18730.8375
1131.63641	18852.6375
1135.2724	18762.3375
1138.90589	18681.7375
1142.5369	18639.6375
1146.16542	18607.6375
1149.79145	18685.8375
1153.415	18751.8375
1157.03607	18938.4375
1160.65467	19285.5375
1164.27079	19870.7375
1167.88443	20572.7375
1171.49561	21424.1375
1175.10432	22542.3375
1178.71056	23848.1375
1182.31434	25119.7375
1185.91565	25915.3375
1189.51451	26039.8375
1193.11091	25559.4375
1196.70485	24788.6375
1200.29634	23958.3375
1203.88538	23272.6375
1207.47197	22787.6375
1211.05612	22358.1375
1214.63782	21951.8375
1218.21708	21656.7375
1221.79391	21407.6375
1225.36829	21262.0375
1228.94024	21031.3375
1232.50976	20811.3375
1236.07685	20662.8375
1239.6415	20567.6375
1243.20374	20652.8375
1246.76355	20760.8375
1250.32093	20979.4375
1253.8759	21333.2375
1257.42845	21785.3375
1260.97859	22114.8375
1264.52631	22484.6375
1268.07163	22916.6375
1271.61453	23357.7375
1275.15503	23832.8375
1278.69312	24373.4375
1282.22882	24809.0375
1285.76211	25216.8375
1289.29301	25640.8375
1292.82151	26237.8375
1296.34761	27060.3375
1299.87133	28137.9375
1303.39266	29368.6375
1306.9116	30666.5375
1310.42815	31938.6375
1313.94233	32732.9375
1317.45412	32733.0375
1320.96354	32402.2375
1324.47058	32004.9375
1327.97525	31711.0375
1331.47754	31572.3375
1334.97747	31473.7375
1338.47502	31625.8375
1341.97022	31823.0375
1345.46305	31779.9375
1348.95352	31480.0375
1352.44163	31098.7375
1355.92738	31027.4375
1359.41078	31485.5375
1362.89183	31999.1375
1366.37053	31254.8375
1369.84688	29245.0375
1373.32088	27056.7375
1376.79254	25575.1375
1380.26186	24923.1375
1383.72883	24801.2375
1387.19347	24738.5375
1390.65578	24630.6375
1394.11575	24545.8375
1397.57339	24632.6375
1401.0287	24869.0375
1404.48168	25074.5375
1407.93234	25081.6375
1411.38068	24773.0375
1414.82669	24216.1375
1418.27039	23434.0375
1421.71177	22686.4375
1425.15083	22099.8375
1428.58758	21756.2375
1432.02203	21723.4375
1435.45416	22011.9375
1438.88399	22408.3375
1442.31151	22780.9375
1445.73673	23115.7375
1449.15965	23417.4375
1452.58027	23609.6375
1455.9986	23766.5375
1459.41463	24044.1375
1462.82837	24345.7375
1466.23982	24720.4375
1469.64898	25055.0375
1473.05586	25258.6375
1476.46045	25240.1375
1479.86276	25163.6375
1483.26279	24902.2375
1486.66054	24789.1375
1490.05602	24746.3375
1493.44922	24857.7375
1496.84016	25028.1375
1500.22882	25496.3375
1503.61521	26201.3375
1506.99934	27097.8375
1510.38121	27823.1375
1513.76081	28022.4375
1517.13816	27587.1375
1520.51324	26786.5375
1523.88607	26101.8375
1527.25665	25640.3375
1530.62498	25412.7375
1533.99105	25295.8375
1537.35488	25161.5375
1540.71647	24927.9375
1544.07581	24558.7375
1547.4329	24160.6375
1550.78776	23863.3375
1554.14038	23632.8375
1557.49077	23550.0375
1560.83892	23483.6375
1564.18484	23542.7375
1567.52853	23532.6375
1570.86999	23632.9375
1574.20922	23861.1375
1577.54624	24051.9375
1580.88103	24027.1375
1584.2136	24038.6375
1587.54395	24307.0375
1590.87208	24970.2375
1594.19801	25908.4375
1597.52172	26952.9375
1600.84321	27273.7375
1604.16251	26515.4375
1607.47959	25186.9375
1610.79447	23783.3375
1614.10715	22387.5375
1617.41763	21147.7375
1620.7259	20230.5375
1624.03199	19712.6375
1627.33587	19610.9375
1630.63757	19906.0375
1633.93707	20649.1375
1637.23439	21888.0375
1640.52951	23571.4375
1643.82246	25475.5375
1647.11321	26906.5375
1650.40179	27312.8375
1653.68819	26129.1375
1656.97241	23840.3375
1660.25446	21494.9375
1663.53433	19605.3375
1666.81203	18303.0375
1670.08756	17430.3375
1673.36092	16881.2375
1676.63211	16508.2375
1679.90115	16227.3375
1683.16801	16011.2375
1686.43272	15904.5375
1689.69527	15789.6375
1692.95567	15690.2375
1696.2139	15629.3375
1699.46999	15641.3375
1702.72392	15559.1375
1705.97571	15518.6375
1709.22535	15477.8375
1712.47284	15409.2375
1715.71819	15384.5375
1718.96139	15357.5375
1722.20246	15355.9375
1725.44139	15231.5375
1728.67818	15219.9375
1731.91284	15137.8375
1735.14537	15073.5375
1738.37576	15002.4375
1741.60403	14977.7375
1744.83017	14960.6375
1748.05418	14908.9375
1751.27607	14909.6375
1754.49584	14873.2375
1757.71349	14886.4375
1760.92903	14878.1375
1764.14244	14851.9375
1767.35375	14830.4375
1770.56294	14816.0375
1773.77002	14803.1375
1776.97499	14739.4375
1780.17785	14741.2375
1783.37861	14693.7375
1786.57727	14657.8375
1789.77382	14640.5375
1792.96828	14608.2375
1796.16064	14566.5375
1799.3509	14566.4375
1802.53907	14533.8375
1805.72514	14500.7375
1808.90913	14491.1375
1812.09102	14433.2375
1815.27083	14442.7375
1818.44856	14423.7375
1821.6242	14352.5375
1824.79776	14342.2375
1827.96924	14335.8375
1831.13864	14342.7375
1834.30597	14316.5375
1837.47122	14342.6375
1840.6344	14309.9375
1843.7955	14279.6375
1846.95454	14301.5375
1850.11151	14291.9375
1853.26642	14286.1375
1856.41926	14298.3375
1859.57004	14257.5375
1862.71876	14246.3375
1865.86542	14234.3375
1869.01003	14217.9375
1872.15258	14207.2375
1875.29308	14210.4375
1878.43152	14159.0375
1881.56792	14178.0375
1884.70227	14128.3375
1887.83457	14125.9375
1890.96482	14097.0375
1894.09304	14075.2375
1897.21921	14044.7375
1900.34335	14064.5375
1903.46544	14036.6375
1906.58551	14031.3375
1909.70353	13989.6375
1912.81953	13976.2375
1915.93349	13971.3375
1919.04543	13949.8375
1922.15534	13918.9375
1925.26322	13871.3375
1928.36908	13885.6375
1931.47292	13847.1375
1934.57473	13842.6375
1937.67453	13814.2375
1940.77232	13776.8375
1943.86808	13707.3375
1946.96184	13668.3375
1950.05358	13626.1375
1953.14331	13620.8375
1956.23103	13564.2375
1959.31675	13514.5375
1962.40046	13470.9375
1965.48217	13438.7375
1968.56188	13427.1375
1971.63959	13372.9375
1974.7153	13332.2375
1977.78901	13275.3375
1980.86073	13261.4375
1983.93046	13209.2375
1986.99819	13197.8375
1990.06394	13150.6375
1993.1277	13113.4375
1996.18947	13076.9375
1999.24925	13030.8375
2002.30706	12964.3375
2005.36288	12959.4375
2008.41672	12926.6375
2011.46859	12888.7375
2014.51848	12873.0375
2017.56639	12841.4375
2020.61233	12814.8375
2023.6563	12760.7375
2026.6983	12737.2375
2029.73833	12696.8375
2032.7764	12661.5375
2035.8125	12662.1375
2038.84664	12610.3375
2041.87881	12580.7375
2044.90903	12547.9375
2047.93729	12534.2375
2050.96359	12544.6375
2053.98794	12531.0375
2057.01034	12516.6375
2060.03078	12492.0375
2063.04927	12481.8375
2066.06582	12497.4375
2069.08042	12455.5375
2072.09307	12475.1375
2075.10378	12471.8375
2078.11255	12435.2375
2081.11938	12453.4375
2084.12426	12429.6375
2087.12722	12427.1375
2090.12824	12392.8375
2093.12732	12390.3375
2096.12447	12396.5375
2099.11969	12387.0375
2102.11299	12383.1375
2105.10435	12398.8375
2108.09379	12429.1375
2111.08131	12421.2375
2114.0669	12455.9375
2117.05057	12468.6375
2120.03233	12461.0375
2123.01216	12465.1375
2125.99008	12472.2375
2128.96609	12481.3375
2131.94018	12501.0375
2134.91236	12485.4375
2137.88263	12527.4375
2140.851	12500.6375
2143.81746	12550.0375
2146.78201	12526.6375
2149.74466	12540.4375
2152.7054	12521.8375
2155.66425	12532.0375
2158.6212	12532.2375
2161.57625	12534.0375
2164.52941	12524.1375
2167.48067	12511.7375
2170.43004	12520.9375
2173.37752	12495.1375
2176.32311	12506.0375
2179.26681	12528.6375
2182.20863	12469.9375
2185.14856	12489.0375
2188.08661	12487.3375
2191.02278	12505.9375
2193.95707	12497.0375
2196.88948	12511.5375
2199.82001	12493.6375
2202.74867	12445.3375
2205.67545	12464.6375
2208.60037	12442.1375
2211.52341	12442.1375
2214.44458	12432.6375
2217.36388	12413.8375
2220.28132	12374.0375
2223.1969	12340.7375
2226.11061	12338.8375
2229.02246	12294.0375
2231.93245	12295.8375
2234.84058	12274.4375
2237.74686	12254.0375
2240.65128	12211.4375
2243.55385	12200.6375
2246.45456	12210.4375
2249.35343	12189.9375
2252.25044	12150.9375
2255.14561	12128.8375
2258.03893	12125.6375
2260.93041	12077.2375
2263.82004	12057.9375
2266.70783	12028.7375
2269.59378	12003.0375
2272.4779	11996.5375
2275.36017	11939.3375
2278.24061	11929.0375
2281.11922	11900.0375
2283.996	11903.4375
2286.87094	11895.3375
2289.74405	11837.9375
2292.61534	11852.5375
2295.4848	11831.3375
2298.35243	11834.1375
2301.21824	11840.4375
2304.08223	11828.5375
2306.94439	11824.9375
2309.80474	11816.4375
2312.66327	11835.1375
2315.51999	11827.3375
2318.37489	11837.3375
2321.22797	11803.0375
2324.07925	11801.1375
2326.92871	11770.8375
2329.77637	11754.2375
2332.62222	11739.5375
2335.46626	11729.8375
2338.3085	11703.3375
2341.14893	11710.6375
2343.98756	11738.6375
2346.8244	11709.5375
2349.65943	11736.0375
2352.49267	11700.4375
2355.32411	11717.1375
2358.15376	11703.2375
2360.98161	11681.2375
2363.80768	11686.8375
2366.63195	11649.5375
2369.45444	11665.3375
2372.27514	11606.5375
2375.09405	11600.6375
2377.91118	11573.3375
2380.72652	11566.3375
2383.54009	11527.6375
2386.35187	11512.2375
2389.16188	11460.2375
2391.97011	11441.4375
2394.77657	11403.5375
2397.58125	11405.1375
2400.38416	11419.7375
2403.18529	11396.4375
2405.98466	11369.0375
2408.78226	11322.3375
2411.57809	11342.2375
2414.37216	11345.6375
2417.16446	11327.8375
2419.955	11311.2375
2422.74378	11296.4375
2425.5308	11293.3375
2428.31606	11307.9375
2431.09956	11280.0375
2433.88131	11244.2375
2436.6613	11259.7375
2439.43954	11253.8375
2442.21603	11246.7375
2444.99077	11211.5375
2447.76377	11248.3375
2450.53501	11225.6375
2453.30451	11208.5375
2456.07226	11180.4375
2458.83827	11182.4375
2461.60254	11177.6375
2464.36507	11184.1375
2467.12586	11180.0375
2469.88492	11158.3375
2472.64224	11166.2375
2475.39782	11175.9375
2478.15167	11175.0375
2480.90379	11166.2375
2483.65417	11174.0375
2486.40283	11144.5375
2489.14976	11171.3375
2491.89497	11154.7375
2494.63845	11189.4375
2497.3802	11198.2375
2500.12024	11152.9375
2502.85855	11112.5375
2505.59514	11107.0375
2508.33002	11099.7375
2511.06318	11080.4375
2513.79462	11114.5375
2516.52435	11076.1375
2519.25237	11055.1375
2521.97867	11051.8375
2524.70327	11046.4375
2527.42616	11080.2375
2530.14734	11035.1375
2532.86681	11054.9375
2535.58458	11045.6375
2538.30065	11037.6375
2541.01501	11040.6375
2543.72768	11024.9375
2546.43864	11013.9375
2549.14791	11000.1375
2551.85548	10989.9375
2554.56136	10959.5375
2557.26554	10945.0375
2559.96803	10874.7375
2562.66883	10923.0375
2565.36794	10882.7375
2568.06536	10842.2375
2570.7611	10842.7375
2573.45514	10836.9375
2576.14751	10835.9375
2578.83819	10828.3375
2581.52719	10767.0375
2584.21451	10790.7375
2586.90015	10785.3375
2589.58411	10790.1375
2592.2664	10767.7375
2594.94701	10749.6375
2597.62594	10758.2375
2600.30321	10713.2375
2602.9788	10700.0375
2605.65273	10701.6375
2608.32498	10688.1375
2610.99557	10672.9375
2613.66449	10668.7375
2616.33175	10675.8375
2618.99734	10662.5375
2621.66128	10665.7375
2624.32355	10664.5375
2626.98416	10685.1375
2629.64311	10654.7375
2632.30041	10637.9375
2634.95605	10632.6375
2637.61004	10604.2375
2640.26238	10600.6375
2642.91306	10587.9375
2645.56209	10583.0375
2648.20948	10584.4375
2650.85521	10545.9375
2653.4993	10578.8375
2656.14175	10563.8375
2658.78255	10565.6375
2661.42171	10595.8375
2664.05923	10596.8375
2666.6951	10632.1375
2669.32934	10593.7375
2671.96194	10600.1375
2674.59291	10591.4375
2677.22224	10585.6375
2679.84993	10600.2375
2682.476	10584.7375
2685.10043	10554.2375
2687.72324	10530.4375
2690.34441	10560.1375
2692.96396	10556.9375
2695.58188	10574.1375
2698.19818	10525.2375
2700.81285	10536.6375
2703.4259	10540.4375
2706.03733	10562.6375
2708.64714	10553.8375
2711.25533	10554.4375
2713.86191	10549.0375
2716.46687	10575.0375
2719.07021	10576.1375
2721.67194	10571.9375
2724.27206	10560.2375
2726.87057	10571.4375
2729.46747	10607.6375
2732.06276	10588.2375
2734.65644	10585.0375
2737.24852	10560.1375
2739.83899	10553.1375
2742.42786	10562.5375
2745.01513	10522.5375
2747.60079	10526.2375
2750.18486	10489.6375
2752.76733	10490.2375
2755.3482	10507.4375
2757.92747	10494.4375
2760.50515	10475.9375
2763.08123	10481.2375
2765.65573	10452.4375
2768.22863	10455.4375
2770.79994	10445.1375
2773.36967	10476.5375
2775.9378	10454.9375
2778.50435	10464.4375
2781.06932	10447.9375
2783.6327	10459.3375
2786.1945	10450.5375
2788.75471	10451.6375
2791.31335	10400.8375
2793.87041	10380.3375
2796.42589	10362.0375
2798.97979	10362.4375
2801.53212	10328.9375
2804.08288	10315.5375
2806.63206	10299.6375
2809.17967	10263.4375
2811.72571	10242.7375
2814.27018	10249.0375
2816.81308	10223.3375
2819.35442	10195.7375
2821.89419	10191.9375
2824.43239	10177.7375
2826.96904	10159.5375
2829.50412	10164.3375
2832.03763	10140.4375
2834.56959	10132.7375
2837.1	10121.7375
2839.62884	10112.3375
2842.15613	10123.4375
2844.68186	10121.1375
2847.20604	10131.9375
2849.72867	10150.6375
2852.24974	10130.2375
2854.76927	10110.1375
2857.28724	10096.1375
2859.80367	10080.8375
2862.31855	10051.3375
2864.83189	10046.8375
2867.34368	10045.8375
2869.85393	10022.0375
2872.36264	10052.1375
2874.8698	10025.4375
2877.37543	10036.8375
2879.87952	10027.9375
2882.38207	10034.3375
2884.88308	10013.0375
2887.38256	10024.9375
2889.88051	10030.5375
2892.37692	9991.7375
2894.8718	10001.5375
2897.36515	10017.7375
2899.85698	10049.7375
2902.34727	10048.6375
2904.83604	10069.9375
2907.32328	10102.7375
2909.809	10064.9375
2912.29319	10087.3375
2914.77587	10059.0375
2917.25702	10064.8375
2919.73665	10070.8375
2922.21476	10064.4375
2924.69136	10074.0375
2927.16644	10038.6375
2929.64	10022.3375
2932.11205	10037.0375
2934.58258	10016.8375
2937.05161	10009.1375
2939.51912	10020.9375
2941.98513	9997.4375
2944.44962	9993.9375
2946.91261	9949.8375
2949.37409	9986.7375
2951.83407	9937.8375
2954.29254	9927.5375
2956.74951	9942.2375
2959.20498	9949.1375
2961.65895	9929.8375
2964.11142	9945.5375
2966.56239	9934.5375
2969.01186	9917.9375
2971.45984	9889.3375
2973.90632	9928.1375
2976.35131	9898.1375
2978.7948	9860.2375
2981.23681	9836.4375
2983.67732	9823.0375
2986.11635	9811.1375
2988.55388	9797.6375
2990.98993	9787.6375
2993.4245	9765.7375
2995.85758	9753.0375
2998.28917	9701.2375
3000.71928	9696.7375
3003.14791	9701.4375
3005.57506	9693.7375
3008.00073	9670.7375
3010.42493	9630.9375
3012.84764	9625.0375
3015.26888	9613.2375
3017.68865	9577.1375
3020.10694	9587.3375
3022.52376	9565.5375
3024.9391	9580.1375
3027.35298	9552.7375
3029.76539	9546.4375
3032.17632	9528.6375
3034.5858	9544.4375
3036.9938	9538.7375
3039.40034	9525.1375
3041.80542	9524.9375
3044.20903	9528.4375
3046.61118	9487.5375
3049.01187	9480.2375
3051.4111	9478.0375
3053.80888	9449.3375
3056.20519	9440.7375
3058.60005	9410.7375
3060.99345	9427.0375
3063.3854	9388.0375
3065.7759	9389.1375
3068.16494	9363.4375
3070.55254	9370.5375
3072.93868	9343.9375
3075.32338	9311.9375
3077.70662	9289.6375
3080.08842	9277.7375
3082.46878	9268.2375
3084.84769	9265.4375
3087.22515	9254.1375
3089.60118	9260.4375
3091.97576	9256.9375
3094.3489	9251.5375
3096.72061	9246.8375
3099.09087	9238.5375
3101.4597	9244.6375
3103.82709	9241.6375
3106.19305	9242.7375
3108.55757	9220.4375
3110.92066	9204.2375
3113.28232	9219.5375
3115.64255	9203.3375
3118.00134	9198.4375
3120.35871	9142.7375
3122.71466	9148.5375
3125.06917	9125.0375
3127.42226	9094.2375
3129.77393	9102.3375
3132.12417	9090.5375
3134.47299	9105.3375
3136.82039	9093.2375
3139.16636	9104.5375
3141.51092	9121.3375
3143.85406	9086.7375
3146.19579	9100.3375
3148.53609	9119.8375
3150.87499	9113.3375
3153.21246	9118.4375
3155.54853	9129.0375
3157.88318	9126.2375
3160.21642	9119.5375
3162.54826	9103.5375
3164.87868	9172.2375
3167.2077	9159.7375
3169.5353	9199.5375
3171.86151	9176.6375
3174.18631	9169.2375
3176.5097	9157.5375
3178.83169	9135.4375
3181.15228	9118.7375
3183.47147	9106.6375
3185.78926	9113.7375
3188.10565	9114.8375
3190.42065	9103.4375
3192.73424	9102.0375
3195.04645	9076.5375
3197.35725	9077.8375
3199.66667	9097.8375
3201.97469	9069.3375
3204.28132	9079.7375
3206.58656	9103.8375
3208.8904	9104.3375
3211.19287	9093.4375
3213.49394	9099.3375
3215.79363	9119.7375
3218.09193	9122.8375
3220.38884	9126.4375
3222.68438	9136.2375
3224.97853	9131.4375
3227.2713	9110.2375
3229.56269	9117.6375
3231.8527	9102.0375
3234.14133	9081.4375
3236.42858	9057.9375
3238.71446	9047.5375
3240.99896	9039.6375
3243.28209	9029.6375
3245.56384	9008.4375
3247.84423	9020.6375
3250.12324	9014.9375
3252.40088	9013.6375
3254.67715	9006.8375
3256.95205	9003.9375
3259.22558	8994.6375
3261.49775	8987.8375
3263.76855	8976.9375
3266.03799	8967.6375
3268.30606	8959.6375
3270.57277	8940.3375
3272.83812	8923.6375
3275.10211	8915.9375
3277.36474	8891.7375
3279.62601	8889.0375
3281.88593	8874.5375
3284.14448	8856.0375
3286.40168	8863.4375
3288.65753	8879.1375
3290.91202	8865.1375
3293.16516	8822.0375
3295.41695	8832.7375
3297.66738	8796.8375
3299.91647	8761.9375
3302.16421	8696.8375
3304.4106	8694.7375
3306.65564	8591.5375
3308.89933	8546.9375
3311.14169	8490.5375
3313.38269	8419.0375
3315.62236	8377.8375
3317.86068	8299.6375
3320.09766	8224.3375
3322.3333	8200.2375
3324.5676	8157.4375
3326.80056	8011.4375
3329.03219	7969.7375
3331.26248	2.6375
3333.49143	-0.0625
3335.71905	0.4375
