Data from AgNP_FTO_APTES_UA_10uM_CRN_50uM_R6G_10uM_NaF_0.1M_Addition_RamanShift__23__17-09-20-812.txt Node

Date: Thu Feb 10 17:09:20 GMT 2022
User: TCL
Spectrometer: QEP01345
Trigger mode: 4
Integration Time (sec): 7.000000E0
Scans to average: 10
Electric dark correction enabled: true
Nonlinearity correction enabled: false
Boxcar width: 0
XAxis mode: Raman Shifts
Number of Pixels in Spectrum: 1044
>>>>>Begin Spectral Data<<<<<
46.04893	0.4
50.45542	0.2
54.85868	-2.3
59.25871	-1.9
63.6555	64.9
68.04907	67
72.43941	71.4
76.82654	69.3
81.21044	79.5
85.59113	77.4
89.96862	80.4
94.34289	83
98.71396	88.2
103.08183	88.2
107.4465	90.9
111.80798	95.1
116.16626	96.4
120.52136	102.8
124.87327	105.2
129.222	108.4
133.56755	113.1
137.90993	122.4
142.24913	132.1
146.58517	146
150.91804	171.3
155.24774	202.4
159.57429	247.1
163.89768	318.1
168.21792	415.5
172.53501	571.1
176.84895	786.4
181.15975	1107.9
185.46741	1563.8
189.77193	2161.5
194.07331	2887.3
198.37157	3726.8
202.6667	4594.2
206.9587	5473
211.24758	6287.9
215.53334	7144.5
219.81599	8047.4
224.09553	9024.2
228.37195	10112.2
232.64527	11293.2
236.91549	12603
241.18261	13897
245.44663	15136.4
249.70755	16270.8
253.96539	17253.9
258.22014	18119.3
262.4718	18854.8
266.72039	19400.9
270.96589	19705
275.20832	19824.6
279.44768	19775.9
283.68397	19664.9
287.91719	19527.1
292.14735	19448.3
296.37445	19438.8
300.59849	19449.6
304.81948	19454
309.03742	19292.7
313.25231	19003.4
317.46415	18570.6
321.67296	18085.3
325.87872	17752.1
330.08145	17616.9
334.28114	17622.5
338.47781	17794.5
342.67145	18037.8
346.86207	18305.2
351.04966	18615.8
355.23424	18980
359.4158	19285.4
363.59435	19523.8
367.76989	19670
371.94243	19842.3
376.11196	19948.8
380.27849	20111.4
384.44203	20217.7
388.60257	20334.5
392.76012	20456.6
396.91468	20678.3
401.06626	20989.8
405.21485	21198.8
409.36047	21164
413.50311	20938
417.64277	20770.3
421.77947	20709.2
425.9132	20765.5
430.04396	20909.3
434.17176	21060.6
438.2966	21241.3
442.41849	21566.1
446.53742	22007.9
450.6534	22486.4
454.76644	22920.1
458.87653	23155.4
462.98368	23111.6
467.08789	22961.5
471.18916	22762.3
475.2875	22593.5
479.38291	22501.1
483.4754	22357.9
487.56496	22094.3
491.6516	21755.1
495.73531	21459.4
499.81612	21354.2
503.89401	21474
507.96899	21475.9
512.04106	21464
516.11023	21401
520.1765	21266.6
524.23987	21165
528.30034	21031.2
532.35792	20901.5
536.41261	20754
540.46441	20640.1
544.51333	20661.5
548.55936	20893.6
552.60252	21251.8
556.64279	21594.4
560.6802	21758.3
564.71473	21852.2
568.7464	22022.5
572.7752	22324.5
576.80114	22554.5
580.82422	22686.6
584.84444	22814.2
588.86181	22941.7
592.87633	23176.3
596.888	23385
600.89682	23617.4
604.9028	24268.7
608.90594	25902.1
612.90624	27602
616.90371	26269.2
620.89834	22989.7
624.89015	21638.3
628.87913	21468.7
632.86528	21529.6
636.84862	21451
640.82913	21208.4
644.80683	20755.5
648.78172	20494.1
652.75379	20407.2
656.72306	20594.3
660.68952	20849.7
664.65319	20797
668.61405	20549.3
672.57211	20513.3
676.52738	20546.4
680.47986	20552.1
684.42955	20530.5
688.37646	20499.3
692.32058	20571.3
696.26192	20694.3
700.20048	20887.4
704.13626	20999.1
708.06928	20933.6
711.99952	20793.4
715.927	20754.5
719.85171	20753.2
723.77365	20731.6
727.69284	20620.1
731.60928	20522.9
735.52295	20486.2
739.43388	20487.5
743.34206	20541.4
747.24749	20654.7
751.15017	20747.6
755.05012	21047.6
758.94733	21498.8
762.8418	22301.4
766.73354	23559.7
770.62254	24733.2
774.50882	24994.7
778.39237	24088.2
782.27321	22607
786.15132	21517.6
790.02671	20825.7
793.89938	20502
797.76935	20385.2
801.6366	20372.8
805.50115	20349.4
809.36299	20281.3
813.22213	20178.2
817.07857	20147.8
820.93231	20129.3
824.78336	20120.4
828.63172	20103.7
832.47738	20101.2
836.32036	20149.8
840.16066	20181.6
843.99827	20242.4
847.8332	20201.2
851.66546	20131.1
855.49504	20128.6
859.32195	20127.5
863.1462	20082.8
866.96777	20046.9
870.78668	19984.5
874.60293	20004.7
878.41652	19982.8
882.22745	20021.9
886.03573	20029.8
889.84136	20029
893.64433	19946.8
897.44466	19854.5
901.24235	19830.5
905.0374	19808.8
908.8298	19836.2
912.61957	19863.3
916.40671	20003.5
920.19121	20209.2
923.97308	20325.6
927.75233	20317.2
931.52895	20294.9
935.30295	20165.6
939.07433	19878.6
942.84309	19687.1
946.60924	19580.5
950.37278	19545.2
954.13371	19420.3
957.89203	19397.2
961.64774	19326.8
965.40086	19274.7
969.15137	19180.2
972.89929	19131.5
976.64461	19077.4
980.38733	19094.4
984.12747	19183.7
987.86502	19316.2
991.59999	19521.5
995.33237	19836.8
999.06217	20272.7
1002.78939	20768.9
1006.51404	21025.3
1010.23611	21124.5
1013.95561	21243.2
1017.67255	21280.8
1021.38692	21154.2
1025.09872	21055.8
1028.80796	21216.9
1032.51465	21762.2
1036.21877	22182.2
1039.92035	22269.4
1043.61937	21976
1047.31584	21510.6
1051.00976	21072
1054.70114	20870.7
1058.38998	20815.6
1062.07627	20873.6
1065.76003	20988.2
1069.44126	21044.5
1073.11995	21123.7
1076.79611	21297.2
1080.46974	21319
1084.14085	21455.3
1087.80943	21585.2
1091.47549	21701.6
1095.13903	21681.7
1098.80005	21483.2
1102.45857	21249.4
1106.11456	21082
1109.76805	21048.5
1113.41903	21121.1
1117.06751	21281.1
1120.71348	21465.4
1124.35696	21650.4
1127.99793	21799
1131.63641	21879.4
1135.2724	21741
1138.90589	21581.8
1142.5369	21490.1
1146.16542	21416.4
1149.79145	21486.5
1153.415	21577.5
1157.03607	21839.7
1160.65467	22241.1
1164.27079	22894.3
1167.88443	23756.5
1171.49561	24812.8
1175.10432	26240
1178.71056	27982.1
1182.31434	29652.8
1185.91565	30605.1
1189.51451	30689.1
1193.11091	30012.2
1196.70485	28913.1
1200.29634	27885
1203.88538	27093.6
1207.47197	26443.1
1211.05612	25923.8
1214.63782	25498.7
1218.21708	25196.2
1221.79391	25083
1225.36829	24970.4
1228.94024	24744.4
1232.50976	24455.5
1236.07685	24237.4
1239.6415	24216.4
1243.20374	24241.7
1246.76355	24446.5
1250.32093	24748.3
1253.8759	25201.4
1257.42845	25801
1260.97859	26215.7
1264.52631	26632.3
1268.07163	27079.2
1271.61453	27628.3
1275.15503	28263.4
1278.69312	28956.9
1282.22882	29544.9
1285.76211	29999.7
1289.29301	30503
1292.82151	31329.1
1296.34761	32356.6
1299.87133	33666.3
1303.39266	35382.7
1306.9116	37267
1310.42815	39092.7
1313.94233	40243.7
1317.45412	40310.3
1320.96354	39725.4
1324.47058	39000
1327.97525	38388.5
1331.47754	37993.5
1334.97747	37918.6
1338.47502	38265.2
1341.97022	38603.5
1345.46305	38456
1348.95352	37899.1
1352.44163	37337.8
1355.92738	37409.4
1359.41078	38335.6
1362.89183	39341.8
1366.37053	38525.3
1369.84688	35668.8
1373.32088	32617
1376.79254	30593.5
1380.26186	29666.9
1383.72883	29518
1387.19347	29485.5
1390.65578	29399.9
1394.11575	29437.7
1397.57339	29732.3
1401.0287	30287.9
1404.48168	30827.3
1407.93234	31153.2
1411.38068	31101.4
1414.82669	30512.2
1418.27039	29543.8
1421.71177	28408.2
1425.15083	27406
1428.58758	26858.9
1432.02203	26769.1
1435.45416	27054.3
1438.88399	27495.3
1442.31151	27964.3
1445.73673	28356.5
1449.15965	28728.7
1452.58027	29043
1455.9986	29271.6
1459.41463	29521.8
1462.82837	29866.4
1466.23982	30387.8
1469.64898	30863.6
1473.05586	31115.2
1476.46045	31199
1479.86276	31106.8
1483.26279	30859.1
1486.66054	30744
1490.05602	30759.6
1493.44922	30862.7
1496.84016	30959.6
1500.22882	31250.3
1503.61521	31829
1506.99934	32767.9
1510.38121	33623
1513.76081	34003.2
1517.13816	33523.1
1520.51324	32502.6
1523.88607	31413.8
1527.25665	30719.6
1530.62498	30364.2
1533.99105	30244.3
1537.35488	30115.7
1540.71647	29954.3
1544.07581	29671.3
1547.4329	29295.1
1550.78776	28955.8
1554.14038	28725.2
1557.49077	28608.1
1560.83892	28551.8
1564.18484	28519.5
1567.52853	28488.9
1570.86999	28505
1574.20922	28727.3
1577.54624	28895.4
1580.88103	28950.5
1584.2136	29054.9
1587.54395	29567.5
1590.87208	30637.8
1594.19801	32151.8
1597.52172	33681.5
1600.84321	34206.3
1604.16251	33222.1
1607.47959	31310.7
1610.79447	29251.5
1614.10715	27228.3
1617.41763	25569.8
1620.7259	24414.8
1624.03199	23803.6
1627.33587	23721.7
1630.63757	24175.2
1633.93707	25257.2
1637.23439	26832.6
1640.52951	28866.6
1643.82246	31105.9
1647.11321	32698.8
1650.40179	33007.3
1653.68819	31494.1
1656.97241	28543.9
1660.25446	25560.3
1663.53433	23271.9
1666.81203	21690.6
1670.08756	20667.3
1673.36092	20016
1676.63211	19560.6
1679.90115	19251.2
1683.16801	18982.9
1686.43272	18889.9
1689.69527	18706.3
1692.95567	18609.7
1696.2139	18537.1
1699.46999	18514.6
1702.72392	18476.1
1705.97571	18420.1
1709.22535	18355.1
1712.47284	18314.8
1715.71819	18323.3
1718.96139	18254.7
1722.20246	18238.1
1725.44139	18188.7
1728.67818	18076.2
1731.91284	17999
1735.14537	17941.7
1738.37576	17883
1741.60403	17839.5
1744.83017	17801
1748.05418	17744.8
1751.27607	17759.5
1754.49584	17739.3
1757.71349	17741.3
1760.92903	17720.9
1764.14244	17697.2
1767.35375	17698.7
1770.56294	17660.8
1773.77002	17660.2
1776.97499	17633.7
1780.17785	17610.3
1783.37861	17568.8
1786.57727	17540.5
1789.77382	17505.2
1792.96828	17501
1796.16064	17463.2
1799.3509	17424.3
1802.53907	17399.3
1805.72514	17406.4
1808.90913	17336.5
1812.09102	17280.4
1815.27083	17263.5
1818.44856	17274
1821.6242	17240.9
1824.79776	17192.3
1827.96924	17220.4
1831.13864	17184
1834.30597	17244
1837.47122	17219.3
1840.6344	17171.3
1843.7955	17188.5
1846.95454	17171.2
1850.11151	17180.5
1853.26642	17192.5
1856.41926	17184
1859.57004	17192
1862.71876	17190.8
1865.86542	17128.2
1869.01003	17140.5
1872.15258	17133.1
1875.29308	17127.9
1878.43152	17113.2
1881.56792	17123
1884.70227	17108.3
1887.83457	17100.4
1890.96482	17060.6
1894.09304	17037.7
1897.21921	17014.6
1900.34335	17028
1903.46544	17004.1
1906.58551	16996.3
1909.70353	16979.5
1912.81953	16976.9
1915.93349	16967.8
1919.04543	16927.8
1922.15534	16870.1
1925.26322	16906.9
1928.36908	16858.1
1931.47292	16863.5
1934.57473	16779.5
1937.67453	16785.8
1940.77232	16759.2
1943.86808	16649.2
1946.96184	16607.4
1950.05358	16580.3
1953.14331	16531.6
1956.23103	16461.9
1959.31675	16427.2
1962.40046	16386.9
1965.48217	16340.2
1968.56188	16257.1
1971.63959	16234.5
1974.7153	16165.1
1977.78901	16137.4
1980.86073	16095.5
1983.93046	16053.3
1986.99819	15979.7
1990.06394	15962.9
1993.1277	15943.5
1996.18947	15875.4
1999.24925	15849.2
2002.30706	15791
2005.36288	15762.8
2008.41672	15709.4
2011.46859	15677.5
2014.51848	15654.5
2017.56639	15620
2020.61233	15569.9
2023.6563	15535.7
2026.6983	15480.9
2029.73833	15468.7
2032.7764	15453.9
2035.8125	15437.1
2038.84664	15386.6
2041.87881	15379.7
2044.90903	15319.3
2047.93729	15310.3
2050.96359	15286.4
2053.98794	15262
2057.01034	15272.9
2060.03078	15254.6
2063.04927	15225.5
2066.06582	15241.9
2069.08042	15225.8
2072.09307	15219.8
2075.10378	15199
2078.11255	15195.9
2081.11938	15186.7
2084.12426	15174.2
2087.12722	15149.3
2090.12824	15118
2093.12732	15137.8
2096.12447	15118.6
2099.11969	15123.6
2102.11299	15137.7
2105.10435	15126
2108.09379	15170.5
2111.08131	15165.9
2114.0669	15157.7
2117.05057	15163.2
2120.03233	15183.3
2123.01216	15211.4
2125.99008	15209.5
2128.96609	15229.6
2131.94018	15236.7
2134.91236	15255
2137.88263	15251
2140.851	15276.7
2143.81746	15267.2
2146.78201	15313.6
2149.74466	15328.9
2152.7054	15296.9
2155.66425	15288.2
2158.6212	15306.5
2161.57625	15308.2
2164.52941	15309
2167.48067	15279.9
2170.43004	15284.4
2173.37752	15307.7
2176.32311	15281.8
2179.26681	15290.6
2182.20863	15271.2
2185.14856	15270
2188.08661	15258.7
2191.02278	15290.1
2193.95707	15280.4
2196.88948	15291.5
2199.82001	15310.6
2202.74867	15261.7
2205.67545	15278.2
2208.60037	15229.2
2211.52341	15266.2
2214.44458	15229.2
2217.36388	15196.9
2220.28132	15205.4
2223.1969	15180.1
2226.11061	15138.1
2229.02246	15104.8
2231.93245	15096.9
2234.84058	15046
2237.74686	15019.7
2240.65128	15034.9
2243.55385	14983.7
2246.45456	14999.9
2249.35343	14959.3
2252.25044	14937.2
2255.14561	14920.8
2258.03893	14891.4
2260.93041	14860
2263.82004	14791.5
2266.70783	14777.4
2269.59378	14731.5
2272.4779	14694.9
2275.36017	14681.4
2278.24061	14675.1
2281.11922	14639.9
2283.996	14621.3
2286.87094	14607.8
2289.74405	14578.4
2292.61534	14575.4
2295.4848	14588
2298.35243	14587.6
2301.21824	14573.9
2304.08223	14588.3
2306.94439	14571.7
2309.80474	14574.1
2312.66327	14595.7
2315.51999	14583.5
2318.37489	14606.2
2321.22797	14561.5
2324.07925	14548.2
2326.92871	14519.8
2329.77637	14543.1
2332.62222	14510.5
2335.46626	14501.9
2338.3085	14500.8
2341.14893	14510.2
2343.98756	14521.7
2346.8244	14521.7
2349.65943	14496.3
2352.49267	14492.7
2355.32411	14523.2
2358.15376	14512.1
2360.98161	14482.2
2363.80768	14499.3
2366.63195	14439.3
2369.45444	14429.3
2372.27514	14391.7
2375.09405	14366.7
2377.91118	14359.9
2380.72652	14257.1
2383.54009	14236.2
2386.35187	14239.5
2389.16188	14197.6
2391.97011	14168.1
2394.77657	14147.7
2397.58125	14111.1
2400.38416	14115.5
2403.18529	14100.9
2405.98466	14099.8
2408.78226	14036.7
2411.57809	14051.8
2414.37216	14041.4
2417.16446	14006.9
2419.955	13968.1
2422.74378	13994.2
2425.5308	13990.3
2428.31606	13978.3
2431.09956	13990.7
2433.88131	13967
2436.6613	13965.3
2439.43954	13946.9
2442.21603	13947.9
2444.99077	13918.6
2447.76377	13908.5
2450.53501	13905.7
2453.30451	13894.1
2456.07226	13868.9
2458.83827	13888.2
2461.60254	13865.7
2464.36507	13881.5
2467.12586	13866.7
2469.88492	13846.7
2472.64224	13860.1
2475.39782	13873.8
2478.15167	13874.8
2480.90379	13871.6
2483.65417	13906.2
2486.40283	13897.4
2489.14976	13881
2491.89497	13891.5
2494.63845	13931.1
2497.3802	13886.4
2500.12024	13915.5
2502.85855	13891.6
2505.59514	13890.9
2508.33002	13854.7
2511.06318	13871.7
2513.79462	13862.9
2516.52435	13819.7
2519.25237	13818.2
2521.97867	13809.1
2524.70327	13823
2527.42616	13795.4
2530.14734	13801.7
2532.86681	13776.1
2535.58458	13801.2
2538.30065	13782
2541.01501	13790.4
2543.72768	13778.9
2546.43864	13766.6
2549.14791	13738.5
2551.85548	13742.7
2554.56136	13718.2
2557.26554	13674.9
2559.96803	13635.9
2562.66883	13612.6
2565.36794	13622
2568.06536	13609.5
2570.7611	13593.6
2573.45514	13558.7
2576.14751	13558.2
2578.83819	13563
2581.52719	13527
2584.21451	13522.9
2586.90015	13523.1
2589.58411	13520.4
2592.2664	13522.7
2594.94701	13526.5
2597.62594	13504.9
2600.30321	13476.1
2602.9788	13471.8
2605.65273	13474.2
2608.32498	13456.9
2610.99557	13417
2613.66449	13426.7
2616.33175	13442.7
2618.99734	13441.1
2621.66128	13454.8
2624.32355	13465.2
2626.98416	13448.5
2629.64311	13430.5
2632.30041	13445.3
2634.95605	13402.9
2637.61004	13385.3
2640.26238	13388.2
2642.91306	13374.1
2645.56209	13348.8
2648.20948	13342.3
2650.85521	13345.7
2653.4993	13349.8
2656.14175	13324.1
2658.78255	13329.4
2661.42171	13355.6
2664.05923	13360.2
2666.6951	13370.2
2669.32934	13392.4
2671.96194	13367.9
2674.59291	13418.2
2677.22224	13350.2
2679.84993	13387.4
2682.476	13374.6
2685.10043	13362.1
2687.72324	13323
2690.34441	13332.4
2692.96396	13320
2695.58188	13334.1
2698.19818	13324.7
2700.81285	13329.5
2703.4259	13334.6
2706.03733	13320.9
2708.64714	13338.3
2711.25533	13354
2713.86191	13363.7
2716.46687	13374.8
2719.07021	13355.3
2721.67194	13358.9
2724.27206	13360.5
2726.87057	13346
2729.46747	13379.9
2732.06276	13383.2
2734.65644	13387.9
2737.24852	13373.9
2739.83899	13355.1
2742.42786	13376.4
2745.01513	13310.3
2747.60079	13311.5
2750.18486	13300.6
2752.76733	13324.5
2755.3482	13303.9
2757.92747	13282.9
2760.50515	13273.7
2763.08123	13299.8
2765.65573	13261
2768.22863	13256
2770.79994	13236.5
2773.36967	13271.2
2775.9378	13258.7
2778.50435	13267.2
2781.06932	13280.2
2783.6327	13298.6
2786.1945	13261.5
2788.75471	13252.4
2791.31335	13225.4
2793.87041	13225.5
2796.42589	13182.3
2798.97979	13180.5
2801.53212	13126.5
2804.08288	13139.8
2806.63206	13107.1
2809.17967	13057
2811.72571	13078
2814.27018	13001
2816.81308	13001.1
2819.35442	12992.5
2821.89419	13000.1
2824.43239	12975.6
2826.96904	12930.6
2829.50412	12951.3
2832.03763	12934.2
2834.56959	12908.2
2837.1	12900.4
2839.62884	12904.5
2842.15613	12909.2
2844.68186	12900.3
2847.20604	12898.6
2849.72867	12920.4
2852.24974	12907.1
2854.76927	12896.6
2857.28724	12876.9
2859.80367	12818.4
2862.31855	12834.3
2864.83189	12817.1
2867.34368	12787.1
2869.85393	12803.5
2872.36264	12769.4
2874.8698	12775.9
2877.37543	12788.1
2879.87952	12794.8
2882.38207	12788.2
2884.88308	12785.8
2887.38256	12800.7
2889.88051	12773.3
2892.37692	12775.8
2894.8718	12805.9
2897.36515	12809.9
2899.85698	12835.2
2902.34727	12853.7
2904.83604	12855.6
2907.32328	12879.7
2909.809	12891.8
2912.29319	12880.3
2914.77587	12882.2
2917.25702	12866.5
2919.73665	12883.1
2922.21476	12871.7
2924.69136	12826.3
2927.16644	12857.1
2929.64	12820.7
2932.11205	12825
2934.58258	12787.9
2937.05161	12772.8
2939.51912	12813.7
2941.98513	12796.2
2944.44962	12777.3
2946.91261	12733.5
2949.37409	12753.6
2951.83407	12712.6
2954.29254	12725.3
2956.74951	12697.5
2959.20498	12704
2961.65895	12696.6
2964.11142	12713.2
2966.56239	12703.5
2969.01186	12676.5
2971.45984	12647.3
2973.90632	12661.6
2976.35131	12644.5
2978.7948	12605
2981.23681	12573.5
2983.67732	12577.1
2986.11635	12540.7
2988.55388	12540.9
2990.98993	12510
2993.4245	12462.3
2995.85758	12415.9
2998.28917	12415.9
3000.71928	12399.5
3003.14791	12365.9
3005.57506	12375.4
3008.00073	12366
3010.42493	12326.7
3012.84764	12291.7
3015.26888	12275.7
3017.68865	12227.2
3020.10694	12235
3022.52376	12233.9
3024.9391	12214.3
3027.35298	12192.9
3029.76539	12166.1
3032.17632	12186.9
3034.5858	12173.8
3036.9938	12158.5
3039.40034	12184.6
3041.80542	12172.7
3044.20903	12144.7
3046.61118	12133.7
3049.01187	12108
3051.4111	12114
3053.80888	12054.5
3056.20519	12047
3058.60005	12019.8
3060.99345	12004.4
3063.3854	11978.3
3065.7759	11933.1
3068.16494	11947.8
3070.55254	11906.6
3072.93868	11882
3075.32338	11856.3
3077.70662	11856.7
3080.08842	11820.8
3082.46878	11792
3084.84769	11785.9
3087.22515	11767.6
3089.60118	11796.3
3091.97576	11773.3
3094.3489	11781.6
3096.72061	11760.6
3099.09087	11760.3
3101.4597	11758
3103.82709	11755.3
3106.19305	11748.3
3108.55757	11748.5
3110.92066	11748.8
3113.28232	11712.2
3115.64255	11692.1
3118.00134	11672.6
3120.35871	11670
3122.71466	11622.3
3125.06917	11603.7
3127.42226	11579.4
3129.77393	11598.8
3132.12417	11554.4
3134.47299	11573.5
3136.82039	11585.4
3139.16636	11555.2
3141.51092	11567.9
3143.85406	11542.3
3146.19579	11540.1
3148.53609	11556.6
3150.87499	11576.8
3153.21246	11563.4
3155.54853	11583
3157.88318	11571.6
3160.21642	11594.6
3162.54826	11589.2
3164.87868	11611.8
3167.2077	11637.7
3169.5353	11636.5
3171.86151	11614.3
3174.18631	11605.3
3176.5097	11580.5
3178.83169	11584.4
3181.15228	11566.8
3183.47147	11566.4
3185.78926	11533.5
3188.10565	11545.6
3190.42065	11540.7
3192.73424	11499.2
3195.04645	11483.2
3197.35725	11503.5
3199.66667	11498.7
3201.97469	11510.3
3204.28132	11502.5
3206.58656	11516.1
3208.8904	11527.3
3211.19287	11533
3213.49394	11521.7
3215.79363	11559.5
3218.09193	11548
3220.38884	11551.5
3222.68438	11572
3224.97853	11561
3227.2713	11540.1
3229.56269	11538.1
3231.8527	11544.5
3234.14133	11503.1
3236.42858	11474.2
3238.71446	11467.2
3240.99896	11463.6
3243.28209	11420.7
3245.56384	11429.7
3247.84423	11454.6
3250.12324	11414.3
3252.40088	11421.2
3254.67715	11414.4
3256.95205	11372.4
3259.22558	11382.1
3261.49775	11400.4
3263.76855	11378.8
3266.03799	11330.4
3268.30606	11352.9
3270.57277	11338.9
3272.83812	11290.4
3275.10211	11271.1
3277.36474	11290.3
3279.62601	11253
3281.88593	11227.3
3284.14448	11238.8
3286.40168	11242.5
3288.65753	11235.8
3290.91202	11231
3293.16516	11215.4
3295.41695	11198.5
3297.66738	11158.6
3299.91647	11083.4
3302.16421	11013.4
3304.4106	10981.5
3306.65564	10896.8
3308.89933	10856
3311.14169	10775.9
3313.38269	10678.3
3315.62236	10624.4
3317.86068	10506.9
3320.09766	10445.7
3322.3333	10388.4
3324.5676	10321.7
3326.80056	10150.8
3329.03219	10097.3
3331.26248	4.7
3333.49143	-0.2
3335.71905	-0.6
