Data from AgNP_FTO_APTES_UA_10uM_CRN_100uM_R6G_10uM_NaF_0.1M_Addition_RamanShift__15__17-42-00-852.txt Node

Date: Thu Feb 10 17:42:00 GMT 2022
User: TCL
Spectrometer: QEP01345
Trigger mode: 4
Integration Time (sec): 7.000000E0
Scans to average: 10
Electric dark correction enabled: true
Nonlinearity correction enabled: false
Boxcar width: 0
XAxis mode: Raman Shifts
Number of Pixels in Spectrum: 1044
>>>>>Begin Spectral Data<<<<<
46.04893	-0.3625
50.45542	0.4375
54.85868	-1.4625
59.25871	-1.6625
63.6555	58.6375
68.04907	59.0375
72.43941	62.8375
76.82654	63.0375
81.21044	70.5375
85.59113	67.6375
89.96862	71.0375
94.34289	75.6375
98.71396	76.0375
103.08183	79.8375
107.4465	81.5375
111.80798	79.7375
116.16626	85.2375
120.52136	87.8375
124.87327	95.6375
129.222	95.3375
133.56755	103.3375
137.90993	105.9375
142.24913	115.5375
146.58517	126.2375
150.91804	148.9375
155.24774	175.9375
159.57429	217.7375
163.89768	272.4375
168.21792	361.6375
172.53501	493.8375
176.84895	677.6375
181.15975	962.2375
185.46741	1336.7375
189.77193	1857.2375
194.07331	2495.1375
198.37157	3208.1375
202.6667	3974.0375
206.9587	4707.7375
211.24758	5436.8375
215.53334	6167.5375
219.81599	6918.5375
224.09553	7754.1375
228.37195	8668.9375
232.64527	9682.7375
236.91549	10774.2375
241.18261	11867.0375
245.44663	12956.2375
249.70755	13937.7375
253.96539	14819.7375
258.22014	15566.6375
262.4718	16199.5375
266.72039	16637.0375
270.96589	16869.9375
275.20832	16956.6375
279.44768	16929.0375
283.68397	16768.4375
287.91719	16631.5375
292.14735	16569.5375
296.37445	16506.3375
300.59849	16525.2375
304.81948	16503.4375
309.03742	16374.3375
313.25231	16161.4375
317.46415	15853.0375
321.67296	15490.2375
325.87872	15246.9375
330.08145	15134.1375
334.28114	15165.9375
338.47781	15277.5375
342.67145	15457.3375
346.86207	15677.8375
351.04966	15867.3375
355.23424	16137.9375
359.4158	16341.8375
363.59435	16537.7375
367.76989	16676.1375
371.94243	16801.0375
376.11196	16931.5375
380.27849	17025.8375
384.44203	17152.8375
388.60257	17247.6375
392.76012	17386.0375
396.91468	17559.8375
401.06626	17801.4375
405.21485	17950.8375
409.36047	17904.6375
413.50311	17726.7375
417.64277	17644.0375
421.77947	17595.5375
425.9132	17648.2375
430.04396	17757.4375
434.17176	17880.5375
438.2966	17994.2375
442.41849	18214.8375
446.53742	18558.0375
450.6534	18897.8375
454.76644	19228.2375
458.87653	19375.8375
462.98368	19423.0375
467.08789	19331.8375
471.18916	19228.6375
475.2875	19164.3375
479.38291	19121.8375
483.4754	19048.1375
487.56496	18818.6375
491.6516	18563.3375
495.73531	18344.4375
499.81612	18242.8375
503.89401	18290.7375
507.96899	18354.4375
512.04106	18334.6375
516.11023	18277.2375
520.1765	18199.1375
524.23987	18048.5375
528.30034	17943.5375
532.35792	17819.7375
536.41261	17742.0375
540.46441	17643.1375
544.51333	17692.0375
548.55936	17903.3375
552.60252	18163.0375
556.64279	18456.9375
560.6802	18584.8375
564.71473	18698.5375
568.7464	18861.9375
572.7752	19153.3375
576.80114	19350.5375
580.82422	19527.4375
584.84444	19684.0375
588.86181	19797.7375
592.87633	19902.4375
596.888	19931.6375
600.89682	20022.7375
604.9028	20412.1375
608.90594	21478.9375
612.90624	22541.2375
616.90371	21570.6375
620.89834	19252.4375
624.89015	18334.9375
628.87913	18282.5375
632.86528	18352.8375
636.84862	18265.6375
640.82913	18087.2375
644.80683	17806.2375
648.78172	17609.0375
652.75379	17548.8375
656.72306	17639.1375
660.68952	17790.7375
664.65319	17768.0375
668.61405	17602.0375
672.57211	17566.1375
676.52738	17596.8375
680.47986	17586.5375
684.42955	17580.4375
688.37646	17539.9375
692.32058	17588.4375
696.26192	17693.7375
700.20048	17815.2375
704.13626	17950.6375
708.06928	17900.9375
711.99952	17815.0375
715.927	17811.9375
719.85171	17798.5375
723.77365	17809.9375
727.69284	17679.0375
731.60928	17568.3375
735.52295	17542.7375
739.43388	17511.4375
743.34206	17542.8375
747.24749	17585.2375
751.15017	17710.2375
755.05012	17883.3375
758.94733	18210.7375
762.8418	18821.5375
766.73354	19692.7375
770.62254	20520.5375
774.50882	20719.0375
778.39237	20115.1375
782.27321	19046.1375
786.15132	18234.6375
790.02671	17785.4375
793.89938	17556.5375
797.76935	17443.5375
801.6366	17412.2375
805.50115	17393.5375
809.36299	17308.2375
813.22213	17251.1375
817.07857	17201.7375
820.93231	17180.5375
824.78336	17132.6375
828.63172	17156.2375
832.47738	17103.4375
836.32036	17107.0375
840.16066	17145.9375
843.99827	17199.5375
847.8332	17190.4375
851.66546	17151.8375
855.49504	17142.4375
859.32195	17126.8375
863.1462	17137.3375
866.96777	17108.8375
870.78668	17078.3375
874.60293	17068.7375
878.41652	17068.3375
882.22745	17077.3375
886.03573	17064.9375
889.84136	17104.6375
893.64433	17046.4375
897.44466	16986.4375
901.24235	16967.8375
905.0374	16910.5375
908.8298	16898.6375
912.61957	16926.4375
916.40671	17045.5375
920.19121	17229.3375
923.97308	17274.6375
927.75233	17254.3375
931.52895	17185.9375
935.30295	17095.8375
939.07433	16885.5375
942.84309	16724.5375
946.60924	16599.2375
950.37278	16575.3375
954.13371	16542.5375
957.89203	16496.5375
961.64774	16450.3375
965.40086	16420.5375
969.15137	16353.0375
972.89929	16305.2375
976.64461	16272.7375
980.38733	16287.2375
984.12747	16313.2375
987.86502	16422.0375
991.59999	16579.8375
995.33237	16745.6375
999.06217	17045.8375
1002.78939	17368.2375
1006.51404	17513.0375
1010.23611	17526.6375
1013.95561	17593.8375
1017.67255	17629.9375
1021.38692	17545.0375
1025.09872	17491.7375
1028.80796	17576.0375
1032.51465	17929.1375
1036.21877	18244.5375
1039.92035	18307.8375
1043.61937	18102.4375
1047.31584	17827.3375
1051.00976	17572.8375
1054.70114	17452.6375
1058.38998	17490.6375
1062.07627	17584.9375
1065.76003	17678.5375
1069.44126	17695.8375
1073.11995	17759.9375
1076.79611	17872.9375
1080.46974	17938.6375
1084.14085	18015.9375
1087.80943	18127.0375
1091.47549	18217.4375
1095.13903	18254.3375
1098.80005	18110.6375
1102.45857	17922.6375
1106.11456	17746.6375
1109.76805	17724.4375
1113.41903	17739.2375
1117.06751	17839.8375
1120.71348	17907.1375
1124.35696	17997.5375
1127.99793	18168.1375
1131.63641	18246.5375
1135.2724	18149.3375
1138.90589	18060.2375
1142.5369	17990.2375
1146.16542	18021.5375
1149.79145	18072.1375
1153.415	18164.1375
1157.03607	18350.7375
1160.65467	18712.1375
1164.27079	19273.4375
1167.88443	19968.6375
1171.49561	20776.8375
1175.10432	21797.4375
1178.71056	23052.8375
1182.31434	24273.2375
1185.91565	25003.6375
1189.51451	25061.4375
1193.11091	24588.5375
1196.70485	23805.4375
1200.29634	23101.9375
1203.88538	22528.5375
1207.47197	22093.8375
1211.05612	21708.4375
1214.63782	21374.7375
1218.21708	21054.2375
1221.79391	20842.5375
1225.36829	20690.4375
1228.94024	20436.7375
1232.50976	20202.5375
1236.07685	19960.9375
1239.6415	19880.7375
1243.20374	19939.8375
1246.76355	20049.5375
1250.32093	20253.5375
1253.8759	20595.2375
1257.42845	20977.5375
1260.97859	21341.1375
1264.52631	21687.9375
1268.07163	22137.6375
1271.61453	22544.0375
1275.15503	23037.8375
1278.69312	23558.8375
1282.22882	24058.5375
1285.76211	24406.5375
1289.29301	24853.6375
1292.82151	25530.4375
1296.34761	26422.3375
1299.87133	27553.0375
1303.39266	28850.3375
1306.9116	30249.5375
1310.42815	31537.4375
1313.94233	32283.8375
1317.45412	32218.9375
1320.96354	31761.0375
1324.47058	31284.1375
1327.97525	30920.9375
1331.47754	30621.4375
1334.97747	30545.0375
1338.47502	30595.5375
1341.97022	30625.8375
1345.46305	30507.9375
1348.95352	30210.1375
1352.44163	29864.4375
1355.92738	29883.8375
1359.41078	30405.5375
1362.89183	30910.0375
1366.37053	30298.1375
1369.84688	28332.7375
1373.32088	26141.4375
1376.79254	24659.2375
1380.26186	24082.6375
1383.72883	24030.4375
1387.19347	24061.0375
1390.65578	23988.6375
1394.11575	24027.4375
1397.57339	24206.5375
1401.0287	24510.1375
1404.48168	24756.2375
1407.93234	24769.0375
1411.38068	24387.9375
1414.82669	23780.2375
1418.27039	23004.1375
1421.71177	22222.6375
1425.15083	21602.4375
1428.58758	21165.3375
1432.02203	21153.5375
1435.45416	21405.8375
1438.88399	21830.8375
1442.31151	22250.8375
1445.73673	22600.1375
1449.15965	22866.7375
1452.58027	23127.5375
1455.9986	23276.5375
1459.41463	23458.2375
1462.82837	23779.3375
1466.23982	24057.8375
1469.64898	24304.6375
1473.05586	24486.5375
1476.46045	24475.1375
1479.86276	24336.5375
1483.26279	24107.5375
1486.66054	23839.3375
1490.05602	23770.9375
1493.44922	23785.3375
1496.84016	23955.4375
1500.22882	24272.5375
1503.61521	24851.6375
1506.99934	25603.3375
1510.38121	26272.3375
1513.76081	26511.4375
1517.13816	26159.7375
1520.51324	25523.3375
1523.88607	24848.0375
1527.25665	24526.5375
1530.62498	24389.9375
1533.99105	24366.2375
1537.35488	24241.6375
1540.71647	24081.9375
1544.07581	23736.1375
1547.4329	23376.0375
1550.78776	23024.0375
1554.14038	22800.8375
1557.49077	22650.1375
1560.83892	22584.2375
1564.18484	22553.5375
1567.52853	22593.3375
1570.86999	22697.5375
1574.20922	22927.2375
1577.54624	23108.9375
1580.88103	23239.6375
1584.2136	23342.3375
1587.54395	23741.5375
1590.87208	24494.8375
1594.19801	25490.5375
1597.52172	26537.5375
1600.84321	26840.6375
1604.16251	26046.9375
1607.47959	24606.0375
1610.79447	23060.1375
1614.10715	21709.8375
1617.41763	20474.0375
1620.7259	19627.3375
1624.03199	19116.8375
1627.33587	19043.1375
1630.63757	19373.3375
1633.93707	20196.5375
1637.23439	21418.8375
1640.52951	23084.4375
1643.82246	24976.8375
1647.11321	26347.1375
1650.40179	26601.5375
1653.68819	25389.8375
1656.97241	23092.3375
1660.25446	20772.7375
1663.53433	18948.5375
1666.81203	17734.8375
1670.08756	16916.9375
1673.36092	16368.7375
1676.63211	16035.0375
1679.90115	15775.8375
1683.16801	15574.6375
1686.43272	15450.9375
1689.69527	15322.0375
1692.95567	15230.5375
1696.2139	15227.8375
1699.46999	15177.0375
1702.72392	15130.6375
1705.97571	15082.9375
1709.22535	15047.6375
1712.47284	15022.4375
1715.71819	14960.5375
1718.96139	14959.1375
1722.20246	14943.2375
1725.44139	14870.8375
1728.67818	14786.4375
1731.91284	14730.5375
1735.14537	14664.2375
1738.37576	14629.4375
1741.60403	14569.4375
1744.83017	14558.9375
1748.05418	14520.5375
1751.27607	14500.8375
1754.49584	14503.1375
1757.71349	14533.0375
1760.92903	14478.5375
1764.14244	14480.3375
1767.35375	14452.1375
1770.56294	14428.1375
1773.77002	14404.6375
1776.97499	14384.1375
1780.17785	14346.9375
1783.37861	14317.7375
1786.57727	14312.4375
1789.77382	14285.3375
1792.96828	14245.8375
1796.16064	14208.5375
1799.3509	14189.7375
1802.53907	14162.8375
1805.72514	14142.1375
1808.90913	14109.1375
1812.09102	14074.1375
1815.27083	14059.4375
1818.44856	14030.7375
1821.6242	14026.8375
1824.79776	13982.2375
1827.96924	13984.4375
1831.13864	13981.0375
1834.30597	13974.9375
1837.47122	13970.1375
1840.6344	13956.6375
1843.7955	13978.2375
1846.95454	13914.5375
1850.11151	13917.7375
1853.26642	13929.5375
1856.41926	13934.2375
1859.57004	13933.7375
1862.71876	13913.5375
1865.86542	13901.0375
1869.01003	13858.7375
1872.15258	13865.1375
1875.29308	13835.8375
1878.43152	13828.5375
1881.56792	13811.2375
1884.70227	13787.0375
1887.83457	13801.7375
1890.96482	13756.3375
1894.09304	13756.0375
1897.21921	13752.0375
1900.34335	13718.3375
1903.46544	13681.4375
1906.58551	13683.4375
1909.70353	13653.3375
1912.81953	13635.2375
1915.93349	13629.4375
1919.04543	13602.1375
1922.15534	13580.2375
1925.26322	13527.6375
1928.36908	13556.0375
1931.47292	13525.4375
1934.57473	13485.9375
1937.67453	13468.8375
1940.77232	13442.4375
1943.86808	13396.8375
1946.96184	13352.5375
1950.05358	13319.5375
1953.14331	13299.5375
1956.23103	13246.0375
1959.31675	13209.8375
1962.40046	13170.5375
1965.48217	13119.7375
1968.56188	13092.6375
1971.63959	13034.3375
1974.7153	13038.6375
1977.78901	12984.7375
1980.86073	12941.3375
1983.93046	12936.7375
1986.99819	12887.8375
1990.06394	12871.5375
1993.1277	12850.6375
1996.18947	12791.1375
1999.24925	12745.4375
2002.30706	12680.7375
2005.36288	12690.5375
2008.41672	12626.9375
2011.46859	12607.0375
2014.51848	12570.0375
2017.56639	12540.3375
2020.61233	12512.7375
2023.6563	12493.3375
2026.6983	12464.7375
2029.73833	12409.3375
2032.7764	12391.1375
2035.8125	12378.2375
2038.84664	12359.1375
2041.87881	12307.5375
2044.90903	12270.6375
2047.93729	12273.6375
2050.96359	12248.3375
2053.98794	12254.5375
2057.01034	12239.1375
2060.03078	12235.3375
2063.04927	12215.4375
2066.06582	12226.8375
2069.08042	12222.4375
2072.09307	12195.1375
2075.10378	12176.3375
2078.11255	12175.4375
2081.11938	12185.5375
2084.12426	12166.6375
2087.12722	12169.1375
2090.12824	12160.1375
2093.12732	12132.6375
2096.12447	12158.0375
2099.11969	12161.3375
2102.11299	12128.9375
2105.10435	12153.5375
2108.09379	12177.5375
2111.08131	12160.7375
2114.0669	12173.4375
2117.05057	12170.9375
2120.03233	12196.4375
2123.01216	12186.0375
2125.99008	12229.3375
2128.96609	12192.8375
2131.94018	12223.8375
2134.91236	12251.1375
2137.88263	12223.9375
2140.851	12263.9375
2143.81746	12247.6375
2146.78201	12272.4375
2149.74466	12272.6375
2152.7054	12288.5375
2155.66425	12301.3375
2158.6212	12278.5375
2161.57625	12240.1375
2164.52941	12258.3375
2167.48067	12248.1375
2170.43004	12244.2375
2173.37752	12247.8375
2176.32311	12249.4375
2179.26681	12208.9375
2182.20863	12261.8375
2185.14856	12235.2375
2188.08661	12225.5375
2191.02278	12232.9375
2193.95707	12238.2375
2196.88948	12256.7375
2199.82001	12273.1375
2202.74867	12230.1375
2205.67545	12242.9375
2208.60037	12199.8375
2211.52341	12207.6375
2214.44458	12190.8375
2217.36388	12178.1375
2220.28132	12169.1375
2223.1969	12120.4375
2226.11061	12117.1375
2229.02246	12092.1375
2231.93245	12054.6375
2234.84058	12017.1375
2237.74686	12012.0375
2240.65128	11998.2375
2243.55385	11978.4375
2246.45456	11943.9375
2249.35343	11950.6375
2252.25044	11941.6375
2255.14561	11904.1375
2258.03893	11930.1375
2260.93041	11880.2375
2263.82004	11831.8375
2266.70783	11803.9375
2269.59378	11774.7375
2272.4779	11761.3375
2275.36017	11712.0375
2278.24061	11688.7375
2281.11922	11697.8375
2283.996	11681.7375
2286.87094	11668.0375
2289.74405	11657.8375
2292.61534	11663.8375
2295.4848	11643.5375
2298.35243	11630.2375
2301.21824	11611.5375
2304.08223	11601.3375
2306.94439	11632.3375
2309.80474	11646.2375
2312.66327	11636.2375
2315.51999	11648.2375
2318.37489	11631.2375
2321.22797	11647.2375
2324.07925	11575.8375
2326.92871	11554.8375
2329.77637	11552.9375
2332.62222	11576.2375
2335.46626	11558.8375
2338.3085	11502.1375
2341.14893	11545.7375
2343.98756	11522.1375
2346.8244	11558.0375
2349.65943	11518.6375
2352.49267	11513.2375
2355.32411	11504.3375
2358.15376	11515.3375
2360.98161	11513.7375
2363.80768	11498.8375
2366.63195	11478.1375
2369.45444	11462.2375
2372.27514	11440.9375
2375.09405	11436.9375
2377.91118	11410.8375
2380.72652	11353.5375
2383.54009	11330.3375
2386.35187	11318.5375
2389.16188	11266.4375
2391.97011	11283.0375
2394.77657	11276.3375
2397.58125	11232.3375
2400.38416	11220.5375
2403.18529	11211.0375
2405.98466	11205.1375
2408.78226	11167.2375
2411.57809	11149.9375
2414.37216	11148.3375
2417.16446	11161.7375
2419.955	11113.9375
2422.74378	11117.3375
2425.5308	11103.9375
2428.31606	11099.7375
2431.09956	11102.5375
2433.88131	11073.5375
2436.6613	11088.1375
2439.43954	11074.6375
2442.21603	11092.0375
2444.99077	11041.2375
2447.76377	11045.8375
2450.53501	11025.2375
2453.30451	11052.4375
2456.07226	11035.7375
2458.83827	11011.5375
2461.60254	10999.3375
2464.36507	10999.9375
2467.12586	10991.1375
2469.88492	10977.5375
2472.64224	10974.2375
2475.39782	10998.1375
2478.15167	10985.9375
2480.90379	11002.9375
2483.65417	11036.4375
2486.40283	10993.8375
2489.14976	11023.6375
2491.89497	11016.9375
2494.63845	11009.9375
2497.3802	11010.3375
2500.12024	11002.0375
2502.85855	10969.8375
2505.59514	10978.5375
2508.33002	10966.7375
2511.06318	10918.0375
2513.79462	10946.4375
2516.52435	10939.5375
2519.25237	10921.3375
2521.97867	10905.5375
2524.70327	10927.8375
2527.42616	10911.1375
2530.14734	10893.7375
2532.86681	10895.9375
2535.58458	10917.2375
2538.30065	10886.3375
2541.01501	10878.8375
2543.72768	10883.2375
2546.43864	10853.6375
2549.14791	10843.8375
2551.85548	10859.1375
2554.56136	10834.5375
2557.26554	10773.5375
2559.96803	10767.3375
2562.66883	10765.3375
2565.36794	10723.3375
2568.06536	10722.8375
2570.7611	10698.1375
2573.45514	10699.7375
2576.14751	10681.9375
2578.83819	10674.1375
2581.52719	10679.5375
2584.21451	10650.5375
2586.90015	10678.1375
2589.58411	10650.4375
2592.2664	10622.8375
2594.94701	10629.5375
2597.62594	10614.8375
2600.30321	10598.6375
2602.9788	10587.5375
2605.65273	10565.7375
2608.32498	10559.6375
2610.99557	10543.4375
2613.66449	10560.9375
2616.33175	10544.6375
2618.99734	10553.5375
2621.66128	10542.7375
2624.32355	10566.0375
2626.98416	10558.0375
2629.64311	10520.1375
2632.30041	10524.0375
2634.95605	10513.7375
2637.61004	10475.2375
2640.26238	10484.1375
2642.91306	10489.1375
2645.56209	10451.1375
2648.20948	10460.9375
2650.85521	10436.8375
2653.4993	10438.1375
2656.14175	10461.2375
2658.78255	10443.1375
2661.42171	10456.9375
2664.05923	10455.7375
2666.6951	10474.4375
2669.32934	10455.5375
2671.96194	10456.2375
2674.59291	10487.7375
2677.22224	10474.7375
2679.84993	10467.1375
2682.476	10442.1375
2685.10043	10440.7375
2687.72324	10409.7375
2690.34441	10409.0375
2692.96396	10428.2375
2695.58188	10418.1375
2698.19818	10396.6375
2700.81285	10437.4375
2703.4259	10437.8375
2706.03733	10447.7375
2708.64714	10405.3375
2711.25533	10424.0375
2713.86191	10430.9375
2716.46687	10457.1375
2719.07021	10455.9375
2721.67194	10451.9375
2724.27206	10453.4375
2726.87057	10461.1375
2729.46747	10472.0375
2732.06276	10446.5375
2734.65644	10463.6375
2737.24852	10433.1375
2739.83899	10456.9375
2742.42786	10445.1375
2745.01513	10381.5375
2747.60079	10376.6375
2750.18486	10354.6375
2752.76733	10375.1375
2755.3482	10372.3375
2757.92747	10371.9375
2760.50515	10354.2375
2763.08123	10343.0375
2765.65573	10318.6375
2768.22863	10349.7375
2770.79994	10335.2375
2773.36967	10352.8375
2775.9378	10330.6375
2778.50435	10337.2375
2781.06932	10335.3375
2783.6327	10325.2375
2786.1945	10321.8375
2788.75471	10304.2375
2791.31335	10298.4375
2793.87041	10281.6375
2796.42589	10257.8375
2798.97979	10247.0375
2801.53212	10225.0375
2804.08288	10222.9375
2806.63206	10185.2375
2809.17967	10152.1375
2811.72571	10136.9375
2814.27018	10134.6375
2816.81308	10113.0375
2819.35442	10113.8375
2821.89419	10072.5375
2824.43239	10063.2375
2826.96904	10069.8375
2829.50412	10048.4375
2832.03763	10034.7375
2834.56959	10040.9375
2837.1	10017.7375
2839.62884	10000.1375
2842.15613	10034.1375
2844.68186	10033.9375
2847.20604	10023.4375
2849.72867	10035.9375
2852.24974	10016.8375
2854.76927	10016.2375
2857.28724	10003.8375
2859.80367	9981.7375
2862.31855	9988.2375
2864.83189	9972.8375
2867.34368	9943.9375
2869.85393	9926.1375
2872.36264	9943.4375
2874.8698	9939.2375
2877.37543	9915.4375
2879.87952	9922.3375
2882.38207	9932.2375
2884.88308	9919.0375
2887.38256	9952.5375
2889.88051	9932.2375
2892.37692	9923.1375
2894.8718	9955.6375
2897.36515	9958.5375
2899.85698	9946.8375
2902.34727	9978.4375
2904.83604	10007.1375
2907.32328	10024.2375
2909.809	10017.7375
2912.29319	10016.8375
2914.77587	9994.8375
2917.25702	10019.6375
2919.73665	9985.4375
2922.21476	9996.3375
2924.69136	10001.9375
2927.16644	9967.0375
2929.64	9967.0375
2932.11205	9949.8375
2934.58258	9931.6375
2937.05161	9933.9375
2939.51912	9941.5375
2941.98513	9936.0375
2944.44962	9917.2375
2946.91261	9886.2375
2949.37409	9895.9375
2951.83407	9890.4375
2954.29254	9879.8375
2956.74951	9873.6375
2959.20498	9862.3375
2961.65895	9858.7375
2964.11142	9851.3375
2966.56239	9847.8375
2969.01186	9841.5375
2971.45984	9815.1375
2973.90632	9836.3375
2976.35131	9802.6375
2978.7948	9784.8375
2981.23681	9767.1375
2983.67732	9769.5375
2986.11635	9740.8375
2988.55388	9725.5375
2990.98993	9703.6375
2993.4245	9693.2375
2995.85758	9664.7375
2998.28917	9655.0375
3000.71928	9609.4375
3003.14791	9606.0375
3005.57506	9605.7375
3008.00073	9590.3375
3010.42493	9564.6375
3012.84764	9537.9375
3015.26888	9537.4375
3017.68865	9515.4375
3020.10694	9526.2375
3022.52376	9508.8375
3024.9391	9491.3375
3027.35298	9478.7375
3029.76539	9480.7375
3032.17632	9490.0375
3034.5858	9478.1375
3036.9938	9502.9375
3039.40034	9490.3375
3041.80542	9496.6375
3044.20903	9451.3375
3046.61118	9438.8375
3049.01187	9417.0375
3051.4111	9430.3375
3053.80888	9405.4375
3056.20519	9377.5375
3058.60005	9363.1375
3060.99345	9360.0375
3063.3854	9332.3375
3065.7759	9312.0375
3068.16494	9299.9375
3070.55254	9304.4375
3072.93868	9305.8375
3075.32338	9258.4375
3077.70662	9230.7375
3080.08842	9228.8375
3082.46878	9224.6375
3084.84769	9240.9375
3087.22515	9218.0375
3089.60118	9232.7375
3091.97576	9203.0375
3094.3489	9194.8375
3096.72061	9201.5375
3099.09087	9207.3375
3101.4597	9222.6375
3103.82709	9204.5375
3106.19305	9196.1375
3108.55757	9201.7375
3110.92066	9185.6375
3113.28232	9176.4375
3115.64255	9192.6375
3118.00134	9158.2375
3120.35871	9144.8375
3122.71466	9122.1375
3125.06917	9118.6375
3127.42226	9085.9375
3129.77393	9117.6375
3132.12417	9057.2375
3134.47299	9066.2375
3136.82039	9082.2375
3139.16636	9099.1375
3141.51092	9077.9375
3143.85406	9087.7375
3146.19579	9087.2375
3148.53609	9086.5375
3150.87499	9102.2375
3153.21246	9095.9375
3155.54853	9115.5375
3157.88318	9116.2375
3160.21642	9120.7375
3162.54826	9135.0375
3164.87868	9155.3375
3167.2077	9161.1375
3169.5353	9153.3375
3171.86151	9163.9375
3174.18631	9162.0375
3176.5097	9123.1375
3178.83169	9146.2375
3181.15228	9148.8375
3183.47147	9120.2375
3185.78926	9114.4375
3188.10565	9116.0375
3190.42065	9105.8375
3192.73424	9088.7375
3195.04645	9073.1375
3197.35725	9105.3375
3199.66667	9100.4375
3201.97469	9113.0375
3204.28132	9076.9375
3206.58656	9128.8375
3208.8904	9105.8375
3211.19287	9111.4375
3213.49394	9105.7375
3215.79363	9131.0375
3218.09193	9141.6375
3220.38884	9155.1375
3222.68438	9137.1375
3224.97853	9133.4375
3227.2713	9123.4375
3229.56269	9128.2375
3231.8527	9123.1375
3234.14133	9108.9375
3236.42858	9095.8375
3238.71446	9071.3375
3240.99896	9060.1375
3243.28209	9037.6375
3245.56384	9036.5375
3247.84423	9037.3375
3250.12324	9043.5375
3252.40088	9017.4375
3254.67715	9013.2375
3256.95205	9018.9375
3259.22558	9017.8375
3261.49775	9018.8375
3263.76855	9001.5375
3266.03799	8990.3375
3268.30606	8982.7375
3270.57277	8948.3375
3272.83812	8943.2375
3275.10211	8932.9375
3277.36474	8946.3375
3279.62601	8957.4375
3281.88593	8901.1375
3284.14448	8908.6375
3286.40168	8911.3375
3288.65753	8911.9375
3290.91202	8925.9375
3293.16516	8903.5375
3295.41695	8878.4375
3297.66738	8833.6375
3299.91647	8800.5375
3302.16421	8717.9375
3304.4106	8701.5375
3306.65564	8640.5375
3308.89933	8595.4375
3311.14169	8526.6375
3313.38269	8440.5375
3315.62236	8401.1375
3317.86068	8338.6375
3320.09766	8290.8375
3322.3333	8225.0375
3324.5676	8186.5375
3326.80056	8037.6375
3329.03219	8018.7375
3331.26248	3.8375
3333.49143	0.2375
3335.71905	-1.1625
