Data from AgNP_FTO_APTES_UA_10uM_CRN_500uM_R6G_10uM_NaF_0.1M_Addition_RamanShift__28__19-13-00-964.txt Node

Date: Thu Feb 10 19:13:00 GMT 2022
User: TCL
Spectrometer: QEP01345
Trigger mode: 4
Integration Time (sec): 7.000000E0
Scans to average: 10
Electric dark correction enabled: true
Nonlinearity correction enabled: false
Boxcar width: 0
XAxis mode: Raman Shifts
Number of Pixels in Spectrum: 1044
>>>>>Begin Spectral Data<<<<<
46.04893	0
50.45542	-0.6
54.85868	-1
59.25871	-0.5
63.6555	67.5
68.04907	70.3
72.43941	74.5
76.82654	75.7
81.21044	81
85.59113	80.2
89.96862	84.1
94.34289	90.8
98.71396	89.5
103.08183	93.8
107.4465	100.3
111.80798	96
116.16626	104.5
120.52136	112.4
124.87327	111.9
129.222	117.5
133.56755	124.3
137.90993	134.3
142.24913	143.8
146.58517	166.2
150.91804	196.2
155.24774	229.8
159.57429	289
163.89768	366.7
168.21792	488.5
172.53501	665.4
176.84895	928.1
181.15975	1324.8
185.46741	1842.6
189.77193	2562.6
194.07331	3423.5
198.37157	4403.8
202.6667	5489.6
206.9587	6532.7
211.24758	7561.8
215.53334	8638.4
219.81599	9765.8
224.09553	11025.4
228.37195	12437.1
232.64527	13932.5
236.91549	15532.5
241.18261	17097.9
245.44663	18435.6
249.70755	19667.3
253.96539	20725.6
258.22014	21636.3
262.4718	22422.8
266.72039	23031.5
270.96589	23368.1
275.20832	23414.5
279.44768	23266.1
283.68397	22968.1
287.91719	22737.9
292.14735	22686.7
296.37445	22828.4
300.59849	23239.6
304.81948	23666.4
309.03742	23917.2
313.25231	23739.6
317.46415	22910.3
321.67296	21848.5
325.87872	20935.3
330.08145	20520.9
334.28114	20489.6
338.47781	20706.5
342.67145	21112.2
346.86207	21723.4
351.04966	22523.4
355.23424	23441.9
359.4158	24166.2
363.59435	24584.7
367.76989	24797.9
371.94243	24943.2
376.11196	24978.1
380.27849	25037.6
384.44203	24942.9
388.60257	24883.2
392.76012	24849
396.91468	25021.1
401.06626	25447.5
405.21485	25802
409.36047	25604.5
413.50311	24816.8
417.64277	24073.4
421.77947	23750.6
425.9132	23609.9
430.04396	23790.3
434.17176	23953
438.2966	24284.4
442.41849	24834.2
446.53742	25533.9
450.6534	26228.2
454.76644	26757.2
458.87653	26857.9
462.98368	26679.6
467.08789	26285.8
471.18916	25957.9
475.2875	25602.5
479.38291	25303.1
483.4754	25058.5
487.56496	24684.9
491.6516	24287
495.73531	23964.5
499.81612	23786.9
503.89401	23903.5
507.96899	24059.4
512.04106	24222
516.11023	24426.1
520.1765	24496
524.23987	24479.4
528.30034	24220.7
532.35792	23955
536.41261	23669.2
540.46441	23405.4
544.51333	23297.6
548.55936	23460.8
552.60252	23840.4
556.64279	24363.5
560.6802	24686.6
564.71473	25043
568.7464	25687.8
572.7752	26268.8
576.80114	25929.9
580.82422	25341.3
584.84444	24999.3
588.86181	25036.9
592.87633	25420.3
596.888	25745.7
600.89682	25946.6
604.9028	27276.7
608.90594	31649.2
612.90624	37670.9
616.90371	36569.2
620.89834	28392.3
624.89015	24501.5
628.87913	23798
632.86528	23815.7
636.84862	23898.8
640.82913	23712
644.80683	23015.4
648.78172	22563.2
652.75379	22563.6
656.72306	23037.8
660.68952	23739.2
664.65319	23674.9
668.61405	22989.7
672.57211	22651.3
676.52738	22647.1
680.47986	22671.8
684.42955	22596.8
688.37646	22537.6
692.32058	22608.4
696.26192	22803.1
700.20048	22975
704.13626	23090.3
708.06928	23028.3
711.99952	22896.9
715.927	22821.8
719.85171	22864.7
723.77365	22867
727.69284	22720.5
731.60928	22568.1
735.52295	22553.4
739.43388	22582.3
743.34206	22650.8
747.24749	22728.2
751.15017	22843.6
755.05012	23108.1
758.94733	23824.5
762.8418	25263
766.73354	27817.1
770.62254	30600
774.50882	32039.4
778.39237	30874.2
782.27321	27864.2
786.15132	25138.8
790.02671	23544.4
793.89938	22803.2
797.76935	22458.6
801.6366	22368.2
805.50115	22303.7
809.36299	22202.8
813.22213	22146.3
817.07857	22132.9
820.93231	22155.3
824.78336	22171.4
828.63172	22224.8
832.47738	22277.5
836.32036	22203.9
840.16066	22152.8
843.99827	22131.9
847.8332	22097.5
851.66546	22014.6
855.49504	22040.9
859.32195	22028
863.1462	21965.6
866.96777	21886.1
870.78668	21877.6
874.60293	21870.5
878.41652	21884.7
882.22745	21965.2
886.03573	22028.1
889.84136	22018.1
893.64433	21916.7
897.44466	21795.5
901.24235	21786.3
905.0374	21737.3
908.8298	21676.2
912.61957	21647.1
916.40671	21775.3
920.19121	21887.6
923.97308	21980.6
927.75233	22115.3
931.52895	22221.3
935.30295	22063.6
939.07433	21680.4
942.84309	21313.8
946.60924	21117.2
950.37278	20979.2
954.13371	20873.2
957.89203	20805.2
961.64774	20779.3
965.40086	20706.1
969.15137	20647.5
972.89929	20552.9
976.64461	20506.8
980.38733	20502.5
984.12747	20594.3
987.86502	20685.8
991.59999	20852.4
995.33237	21084
999.06217	21503.5
1002.78939	22089.7
1006.51404	22448.7
1010.23611	22671.8
1013.95561	22909.4
1017.67255	22854.6
1021.38692	22639.9
1025.09872	22359.6
1028.80796	22322.8
1032.51465	22551.4
1036.21877	22806.7
1039.92035	22906.3
1043.61937	22741.5
1047.31584	22443.6
1051.00976	22148.1
1054.70114	22012.2
1058.38998	21977.8
1062.07627	22031.8
1065.76003	22095.5
1069.44126	22101.2
1073.11995	22194.9
1076.79611	22358.5
1080.46974	22570.4
1084.14085	22882.2
1087.80943	23289.3
1091.47549	23487.8
1095.13903	23353.4
1098.80005	22911.4
1102.45857	22494.8
1106.11456	22352.1
1109.76805	22420.8
1113.41903	22687.8
1117.06751	23166
1120.71348	23717.9
1124.35696	24177.3
1127.99793	24657.8
1131.63641	24712.1
1135.2724	24092.1
1138.90589	23431.7
1142.5369	22996.3
1146.16542	22812.2
1149.79145	22720
1153.415	22793.6
1157.03607	22917.5
1160.65467	23346.2
1164.27079	23966.3
1167.88443	24985.4
1171.49561	26503.2
1175.10432	28704.7
1178.71056	31675.4
1182.31434	34160.9
1185.91565	35191.1
1189.51451	34754.3
1193.11091	33322.6
1196.70485	31553.7
1200.29634	30170.5
1203.88538	29010.4
1207.47197	27897.1
1211.05612	26935.4
1214.63782	26328.5
1218.21708	26177.2
1221.79391	26173.8
1225.36829	26066.3
1228.94024	25770.8
1232.50976	25446.1
1236.07685	25271.5
1239.6415	25325.4
1243.20374	25446
1246.76355	25642
1250.32093	25956.4
1253.8759	26417.3
1257.42845	27092.1
1260.97859	27721.5
1264.52631	28355.6
1268.07163	28959.8
1271.61453	29450.1
1275.15503	29982.3
1278.69312	30349.4
1282.22882	30572.2
1285.76211	31033.8
1289.29301	31657.5
1292.82151	32646.7
1296.34761	33784.2
1299.87133	35412.5
1303.39266	37596.5
1306.9116	40681.7
1310.42815	44178
1313.94233	46502.9
1317.45412	46321.9
1320.96354	44512.2
1324.47058	42291
1327.97525	40256.3
1331.47754	38932.8
1334.97747	38568.7
1338.47502	38919.5
1341.97022	39553.2
1345.46305	40038.6
1348.95352	40448.4
1352.44163	41328.1
1355.92738	43171.7
1359.41078	46736.6
1362.89183	50517.8
1366.37053	49613.8
1369.84688	43691.9
1373.32088	37562.4
1376.79254	33755.9
1380.26186	32037.6
1383.72883	31425.6
1387.19347	31172.9
1390.65578	30794.7
1394.11575	30584
1397.57339	30811.6
1401.0287	31293.8
1404.48168	32018.3
1407.93234	32552.1
1411.38068	32662.2
1414.82669	32338.8
1418.27039	31413.2
1421.71177	30308.1
1425.15083	29255.6
1428.58758	28647.9
1432.02203	28594.7
1435.45416	28865.9
1438.88399	29234
1442.31151	29466.3
1445.73673	29787.2
1449.15965	30145.5
1452.58027	30489.8
1455.9986	30557.9
1459.41463	30640.1
1462.82837	30933.6
1466.23982	31445.3
1469.64898	31962.4
1473.05586	32256.8
1476.46045	32329
1479.86276	32340.5
1483.26279	32487.1
1486.66054	32714.1
1490.05602	33079.3
1493.44922	33535.5
1496.84016	34155.3
1500.22882	35399.2
1503.61521	37348.1
1506.99934	40094.9
1510.38121	42991
1513.76081	44545.6
1517.13816	43352.1
1520.51324	39924.8
1523.88607	36279.9
1527.25665	33729.3
1530.62498	32397
1533.99105	31660.1
1537.35488	31381.6
1540.71647	31203.3
1544.07581	31056.2
1547.4329	30897.3
1550.78776	30659.4
1554.14038	30495.7
1557.49077	30506.9
1560.83892	30681.5
1564.18484	31016.1
1567.52853	31333.8
1570.86999	31589.7
1574.20922	31790.1
1577.54624	31795.3
1580.88103	31202.1
1584.2136	30463.1
1587.54395	30415
1590.87208	31283.9
1594.19801	32977.2
1597.52172	35095.2
1600.84321	36160
1604.16251	35319.5
1607.47959	33131.2
1610.79447	30495.3
1614.10715	28080.6
1617.41763	26086.6
1620.7259	24764.9
1624.03199	24117.3
1627.33587	24027.9
1630.63757	24515.1
1633.93707	25568.3
1637.23439	27274.4
1640.52951	29648.1
1643.82246	32579
1647.11321	35608.3
1650.40179	37400.8
1653.68819	36102.8
1656.97241	32040
1660.25446	27640.8
1663.53433	24477.3
1666.81203	22403.3
1670.08756	21255.6
1673.36092	20498.5
1676.63211	20013.2
1679.90115	19675.2
1683.16801	19418.7
1686.43272	19233.5
1689.69527	19102.1
1692.95567	18979.9
1696.2139	18957.1
1699.46999	18904.8
1702.72392	18825.5
1705.97571	18819.9
1709.22535	18751.7
1712.47284	18723.3
1715.71819	18730.6
1718.96139	18725.1
1722.20246	18652.3
1725.44139	18616
1728.67818	18481.9
1731.91284	18384.3
1735.14537	18310.5
1738.37576	18214
1741.60403	18200.7
1744.83017	18149.8
1748.05418	18144
1751.27607	18089.2
1754.49584	18041
1757.71349	18053
1760.92903	18045.3
1764.14244	18000.6
1767.35375	17996.2
1770.56294	17952.4
1773.77002	17917.6
1776.97499	17901
1780.17785	17821.1
1783.37861	17796.1
1786.57727	17768.8
1789.77382	17716.7
1792.96828	17704.8
1796.16064	17669.7
1799.3509	17664.3
1802.53907	17649
1805.72514	17601
1808.90913	17558.4
1812.09102	17513.4
1815.27083	17475.4
1818.44856	17447.2
1821.6242	17411.4
1824.79776	17394.8
1827.96924	17370
1831.13864	17309.7
1834.30597	17345.5
1837.47122	17303.1
1840.6344	17278.6
1843.7955	17268.7
1846.95454	17268.9
1850.11151	17241.2
1853.26642	17231.8
1856.41926	17246.8
1859.57004	17249.5
1862.71876	17227.2
1865.86542	17228.2
1869.01003	17164.9
1872.15258	17189.3
1875.29308	17193.1
1878.43152	17181.8
1881.56792	17173.1
1884.70227	17172.4
1887.83457	17152.1
1890.96482	17134.5
1894.09304	17126.8
1897.21921	17085.8
1900.34335	17117.7
1903.46544	17068.3
1906.58551	17099.6
1909.70353	17066.2
1912.81953	17041.2
1915.93349	17050.3
1919.04543	17015.1
1922.15534	16956.6
1925.26322	16936.9
1928.36908	16919.7
1931.47292	16886.6
1934.57473	16836.5
1937.67453	16800.8
1940.77232	16774.6
1943.86808	16678.5
1946.96184	16614.4
1950.05358	16599.4
1953.14331	16537.9
1956.23103	16504.9
1959.31675	16436.7
1962.40046	16436
1965.48217	16389.5
1968.56188	16324.2
1971.63959	16272.8
1974.7153	16237.9
1977.78901	16154.3
1980.86073	16101.2
1983.93046	16078.9
1986.99819	15973.8
1990.06394	15978.3
1993.1277	15905.8
1996.18947	15856.1
1999.24925	15795.7
2002.30706	15782.3
2005.36288	15716.1
2008.41672	15652.9
2011.46859	15632.9
2014.51848	15615.7
2017.56639	15588
2020.61233	15571.4
2023.6563	15511.1
2026.6983	15461.9
2029.73833	15417.7
2032.7764	15386.2
2035.8125	15350.4
2038.84664	15316.1
2041.87881	15284.5
2044.90903	15263.1
2047.93729	15202.1
2050.96359	15180.2
2053.98794	15159.1
2057.01034	15143.7
2060.03078	15127.2
2063.04927	15118.1
2066.06582	15127.8
2069.08042	15112.3
2072.09307	15113
2075.10378	15088.7
2078.11255	15053.6
2081.11938	15060.8
2084.12426	15057.3
2087.12722	15035
2090.12824	15010.6
2093.12732	15008
2096.12447	14998.9
2099.11969	14989.4
2102.11299	14971
2105.10435	15002.3
2108.09379	15013.4
2111.08131	15003.2
2114.0669	15007.6
2117.05057	15021.5
2120.03233	15010.9
2123.01216	15049.4
2125.99008	15036.8
2128.96609	15046.9
2131.94018	15075.5
2134.91236	15079.9
2137.88263	15074.7
2140.851	15079.2
2143.81746	15092.6
2146.78201	15114.2
2149.74466	15072.2
2152.7054	15089.1
2155.66425	15061.5
2158.6212	15065.1
2161.57625	15066.5
2164.52941	15048.8
2167.48067	15023.1
2170.43004	15036.9
2173.37752	15036.7
2176.32311	15035
2179.26681	15027.2
2182.20863	15004.9
2185.14856	15020.1
2188.08661	15024.8
2191.02278	15031.6
2193.95707	15026.6
2196.88948	14996.6
2199.82001	15008.5
2202.74867	14959
2205.67545	14946.3
2208.60037	14918.7
2211.52341	14936.3
2214.44458	14903.1
2217.36388	14883.2
2220.28132	14885
2223.1969	14827.6
2226.11061	14815.9
2229.02246	14772.6
2231.93245	14755.2
2234.84058	14700.7
2237.74686	14666.9
2240.65128	14649.5
2243.55385	14636.8
2246.45456	14599
2249.35343	14597.5
2252.25044	14626
2255.14561	14552.7
2258.03893	14541.2
2260.93041	14528.1
2263.82004	14498.8
2266.70783	14469.8
2269.59378	14403.4
2272.4779	14367.9
2275.36017	14319.6
2278.24061	14300.5
2281.11922	14269.1
2283.996	14258
2286.87094	14241.3
2289.74405	14224.2
2292.61534	14230.3
2295.4848	14219.7
2298.35243	14207.5
2301.21824	14178
2304.08223	14191.4
2306.94439	14184.9
2309.80474	14177.1
2312.66327	14174.8
2315.51999	14137.2
2318.37489	14164.1
2321.22797	14151.3
2324.07925	14130.6
2326.92871	14095.5
2329.77637	14072.7
2332.62222	14061.5
2335.46626	14019
2338.3085	14019.3
2341.14893	14043.8
2343.98756	14054.2
2346.8244	14056.6
2349.65943	14025.2
2352.49267	14032
2355.32411	14022.4
2358.15376	14029.2
2360.98161	14057.7
2363.80768	14035.2
2366.63195	14027.5
2369.45444	13997.4
2372.27514	13970.3
2375.09405	13941.7
2377.91118	13937.6
2380.72652	13888.3
2383.54009	13810.2
2386.35187	13774.9
2389.16188	13706.9
2391.97011	13700.9
2394.77657	13679.4
2397.58125	13653.7
2400.38416	13631.4
2403.18529	13617.8
2405.98466	13611.1
2408.78226	13573.5
2411.57809	13552
2414.37216	13550.2
2417.16446	13511
2419.955	13443.4
2422.74378	13458.7
2425.5308	13438.9
2428.31606	13457.6
2431.09956	13432.3
2433.88131	13438
2436.6613	13411.9
2439.43954	13400.7
2442.21603	13386.8
2444.99077	13363.6
2447.76377	13393
2450.53501	13357.7
2453.30451	13373.1
2456.07226	13360.8
2458.83827	13358.8
2461.60254	13351.7
2464.36507	13337
2467.12586	13328.3
2469.88492	13313.8
2472.64224	13294.2
2475.39782	13321.5
2478.15167	13355
2480.90379	13368.1
2483.65417	13355.9
2486.40283	13349.3
2489.14976	13359.6
2491.89497	13360.9
2494.63845	13381.7
2497.3802	13352.3
2500.12024	13346.1
2502.85855	13342.2
2505.59514	13312.2
2508.33002	13291.9
2511.06318	13272.9
2513.79462	13257.2
2516.52435	13216.6
2519.25237	13167.3
2521.97867	13163.7
2524.70327	13146.6
2527.42616	13106.8
2530.14734	13107.9
2532.86681	13080.6
2535.58458	13103.4
2538.30065	13089.1
2541.01501	13089.4
2543.72768	13066.5
2546.43864	13047.3
2549.14791	13061.2
2551.85548	13034.5
2554.56136	13017
2557.26554	12987.6
2559.96803	12964.5
2562.66883	12955.2
2565.36794	12896.9
2568.06536	12920.2
2570.7611	12860.4
2573.45514	12866.7
2576.14751	12827.1
2578.83819	12828.9
2581.52719	12853.4
2584.21451	12813.6
2586.90015	12818
2589.58411	12781.2
2592.2664	12766.6
2594.94701	12737
2597.62594	12768.6
2600.30321	12714.3
2602.9788	12719.4
2605.65273	12692.9
2608.32498	12692.2
2610.99557	12705.7
2613.66449	12696.3
2616.33175	12707.1
2618.99734	12671.1
2621.66128	12677.8
2624.32355	12652.6
2626.98416	12658.8
2629.64311	12654.1
2632.30041	12642.8
2634.95605	12616.2
2637.61004	12595.9
2640.26238	12561.3
2642.91306	12565.3
2645.56209	12556
2648.20948	12525.6
2650.85521	12535.8
2653.4993	12517.1
2656.14175	12531.3
2658.78255	12514.9
2661.42171	12525
2664.05923	12541.6
2666.6951	12570.7
2669.32934	12556.9
2671.96194	12567.5
2674.59291	12549.3
2677.22224	12558.7
2679.84993	12581.2
2682.476	12536.2
2685.10043	12559.8
2687.72324	12518.6
2690.34441	12524.7
2692.96396	12523.3
2695.58188	12526.8
2698.19818	12505
2700.81285	12528.6
2703.4259	12515.3
2706.03733	12519.9
2708.64714	12510.3
2711.25533	12520.6
2713.86191	12510.2
2716.46687	12533.7
2719.07021	12535.2
2721.67194	12547.6
2724.27206	12569
2726.87057	12519.4
2729.46747	12556.4
2732.06276	12559.5
2734.65644	12539.6
2737.24852	12526.5
2739.83899	12501
2742.42786	12538.5
2745.01513	12500.1
2747.60079	12491.6
2750.18486	12483.2
2752.76733	12471.3
2755.3482	12429.5
2757.92747	12416.2
2760.50515	12394.8
2763.08123	12410.3
2765.65573	12374.6
2768.22863	12398.4
2770.79994	12362.7
2773.36967	12373.1
2775.9378	12377.1
2778.50435	12363.1
2781.06932	12364.9
2783.6327	12355
2786.1945	12338.2
2788.75471	12343.9
2791.31335	12326.4
2793.87041	12328.8
2796.42589	12289.4
2798.97979	12297.3
2801.53212	12271
2804.08288	12236
2806.63206	12195.2
2809.17967	12179.4
2811.72571	12163.6
2814.27018	12134.3
2816.81308	12096.5
2819.35442	12125.4
2821.89419	12086.1
2824.43239	12087.8
2826.96904	12044.2
2829.50412	12068.4
2832.03763	12034
2834.56959	12061.1
2837.1	12028.2
2839.62884	12050.5
2842.15613	12046.9
2844.68186	12095.9
2847.20604	12085.9
2849.72867	12142.3
2852.24974	12114.2
2854.76927	12081.2
2857.28724	12071.9
2859.80367	12063
2862.31855	12023.5
2864.83189	12025.8
2867.34368	12011.1
2869.85393	11985.9
2872.36264	11978.8
2874.8698	11987.7
2877.37543	11979.1
2879.87952	11963.1
2882.38207	11964.5
2884.88308	11958.8
2887.38256	11965.2
2889.88051	11939.9
2892.37692	11955.4
2894.8718	11958.9
2897.36515	11984.8
2899.85698	11958.1
2902.34727	12001.9
2904.83604	12001.9
2907.32328	12013.9
2909.809	12015.9
2912.29319	11986.6
2914.77587	12031.6
2917.25702	11977
2919.73665	11993
2922.21476	11990.6
2924.69136	11976.3
2927.16644	11956.5
2929.64	11954
2932.11205	11919
2934.58258	11868.5
2937.05161	11908.8
2939.51912	11894.5
2941.98513	11848.7
2944.44962	11832.9
2946.91261	11768.8
2949.37409	11792.8
2951.83407	11783.1
2954.29254	11724.6
2956.74951	11739.4
2959.20498	11737.1
2961.65895	11730.4
2964.11142	11728.4
2966.56239	11704.6
2969.01186	11722.8
2971.45984	11655.5
2973.90632	11614.3
2976.35131	11594.3
2978.7948	11551.2
2981.23681	11545.1
2983.67732	11518.3
2986.11635	11493.5
2988.55388	11500.4
2990.98993	11454.7
2993.4245	11417.7
2995.85758	11396.2
2998.28917	11371.1
3000.71928	11324.3
3003.14791	11331.6
3005.57506	11349.7
3008.00073	11293.2
3010.42493	11284.8
3012.84764	11247.8
3015.26888	11240
3017.68865	11211.1
3020.10694	11199.9
3022.52376	11198.5
3024.9391	11169.9
3027.35298	11150.2
3029.76539	11129.8
3032.17632	11120.9
3034.5858	11094
3036.9938	11099.2
3039.40034	11120.9
3041.80542	11105.6
3044.20903	11029.6
3046.61118	11048.3
3049.01187	11038.1
3051.4111	11035.1
3053.80888	11003.4
3056.20519	10967
3058.60005	10960
3060.99345	10914.7
3063.3854	10882.6
3065.7759	10865.3
3068.16494	10845.6
3070.55254	10812.3
3072.93868	10785.6
3075.32338	10756.8
3077.70662	10723.6
3080.08842	10701.4
3082.46878	10689.4
3084.84769	10662.2
3087.22515	10656.6
3089.60118	10677.7
3091.97576	10653.5
3094.3489	10647.6
3096.72061	10650.6
3099.09087	10614.3
3101.4597	10626.2
3103.82709	10594.9
3106.19305	10595.3
3108.55757	10592.1
3110.92066	10571.5
3113.28232	10561
3115.64255	10543.7
3118.00134	10495.8
3120.35871	10510.7
3122.71466	10472.6
3125.06917	10437
3127.42226	10415.3
3129.77393	10414.4
3132.12417	10407.5
3134.47299	10409.4
3136.82039	10391.9
3139.16636	10410.8
3141.51092	10405.8
3143.85406	10418.2
3146.19579	10416.4
3148.53609	10397.5
3150.87499	10417
3153.21246	10399
3155.54853	10409.2
3157.88318	10413.8
3160.21642	10397.3
3162.54826	10375.3
3164.87868	10376.9
3167.2077	10392.8
3169.5353	10393.9
3171.86151	10401.1
3174.18631	10389.2
3176.5097	10366.4
3178.83169	10363.6
3181.15228	10336.9
3183.47147	10328.9
3185.78926	10330.2
3188.10565	10312
3190.42065	10301
3192.73424	10283.4
3195.04645	10272.8
3197.35725	10293.6
3199.66667	10257.7
3201.97469	10295.9
3204.28132	10288.1
3206.58656	10287.2
3208.8904	10311.2
3211.19287	10298.1
3213.49394	10291.8
3215.79363	10301.3
3218.09193	10317.4
3220.38884	10300.2
3222.68438	10308.8
3224.97853	10289.9
3227.2713	10265.7
3229.56269	10263.3
3231.8527	10260.7
3234.14133	10241.2
3236.42858	10237.1
3238.71446	10229.5
3240.99896	10166.6
3243.28209	10163.9
3245.56384	10169.9
3247.84423	10144.4
3250.12324	10132.1
3252.40088	10123.6
3254.67715	10114.1
3256.95205	10114.6
3259.22558	10104.5
3261.49775	10107.8
3263.76855	10060.7
3266.03799	10035.6
3268.30606	10058.3
3270.57277	10043.8
3272.83812	10009.6
3275.10211	9989.3
3277.36474	9971.2
3279.62601	9948.6
3281.88593	9900.5
3284.14448	9927.4
3286.40168	9922.3
3288.65753	9956.8
3290.91202	9930.4
3293.16516	9890.7
3295.41695	9890
3297.66738	9849.4
3299.91647	9785.5
3302.16421	9718.9
3304.4106	9665.9
3306.65564	9603
3308.89933	9544.4
3311.14169	9492
3313.38269	9397.5
3315.62236	9315.8
3317.86068	9268.7
3320.09766	9165.1
3322.3333	9114.9
3324.5676	9070
3326.80056	8934.9
3329.03219	8872.9
3331.26248	3.9
3333.49143	-0.4
3335.71905	-0.9
