Data from AgNP_FTO_APTES_UA_10uM_CRN_0uM_R6G_10uM_NaF_0.1M_Addition_RamanShift__21__12-32-50-463.txt Node

Date: Thu Feb 10 12:32:50 GMT 2022
User: TCL
Spectrometer: QEP01345
Trigger mode: 4
Integration Time (sec): 7.000000E0
Scans to average: 10
Electric dark correction enabled: true
Nonlinearity correction enabled: false
Boxcar width: 0
XAxis mode: Raman Shifts
Number of Pixels in Spectrum: 1044
>>>>>Begin Spectral Data<<<<<
46.04893	-0.5
50.45542	-0.4
54.85868	-1.8
59.25871	-1.4
63.6555	60.3
68.04907	61.2
72.43941	67.1
76.82654	64.4
81.21044	71.5
85.59113	80.8
89.96862	80.7
94.34289	77.6
98.71396	80.7
103.08183	80.9
107.4465	89.9
111.80798	84.1
116.16626	90.1
120.52136	97.6
124.87327	98.1
129.222	100.9
133.56755	109.2
137.90993	118.8
142.24913	127
146.58517	142.9
150.91804	165.7
155.24774	196.2
159.57429	244.1
163.89768	315.9
168.21792	422.2
172.53501	583.1
176.84895	802
181.15975	1135.1
185.46741	1598.5
189.77193	2193.1
194.07331	2936.1
198.37157	3774.6
202.6667	4668.1
206.9587	5568.7
211.24758	6446.1
215.53334	7334.6
219.81599	8314.4
224.09553	9377.7
228.37195	10591.6
232.64527	11911.4
236.91549	13264.4
241.18261	14585.5
245.44663	15720.8
249.70755	16650.4
253.96539	17489.3
258.22014	18223.6
262.4718	18855.3
266.72039	19323
270.96589	19589.9
275.20832	19574.9
279.44768	19452
283.68397	19204
287.91719	19031.2
292.14735	19031.4
296.37445	19141.3
300.59849	19401.4
304.81948	19794.5
309.03742	20010.8
313.25231	19871.2
317.46415	19197
321.67296	18235.7
325.87872	17394.3
330.08145	17034.8
334.28114	16984.7
338.47781	17190.6
342.67145	17498.3
346.86207	17981.1
351.04966	18656.1
355.23424	19426.2
359.4158	20085.4
363.59435	20463.7
367.76989	20646.1
371.94243	20636.5
376.11196	20671.5
380.27849	20675.4
384.44203	20675.9
388.60257	20658.5
392.76012	20680.5
396.91468	20955
401.06626	21398.5
405.21485	21739.4
409.36047	21550.2
413.50311	20872.7
417.64277	20269.6
421.77947	20005
425.9132	19988.9
430.04396	20077.8
434.17176	20144.9
438.2966	20346
442.41849	20782.7
446.53742	21437.5
450.6534	22108.1
454.76644	22584.8
458.87653	22681.7
462.98368	22505
467.08789	22051.7
471.18916	21626.4
475.2875	21108.4
479.38291	20844.7
483.4754	20669.1
487.56496	20455.8
491.6516	20198.7
495.73531	19935.9
499.81612	19890.7
503.89401	19990.2
507.96899	20090.6
512.04106	20190.3
516.11023	20230.9
520.1765	20229.8
524.23987	20106.5
528.30034	19857.9
532.35792	19559.3
536.41261	19180.3
540.46441	18810.8
544.51333	18629.5
548.55936	18850.6
552.60252	19264
556.64279	19741.9
560.6802	20061.5
564.71473	20229.8
568.7464	20863.8
572.7752	21473.1
576.80114	21546
580.82422	21523.4
584.84444	21692.3
588.86181	21957.7
592.87633	22252.9
596.888	22545.8
600.89682	22850.9
604.9028	24135.3
608.90594	28018.7
612.90624	32862.6
616.90371	31205.2
620.89834	24011.9
624.89015	20682.9
628.87913	20223.9
632.86528	20234.3
636.84862	20098.8
640.82913	19692
644.80683	18938.6
648.78172	18349
652.75379	18258.4
656.72306	18696.9
660.68952	19300
664.65319	19265.2
668.61405	18646.9
672.57211	18361.5
676.52738	18340.8
680.47986	18315.9
684.42955	18208.5
688.37646	18134.4
692.32058	18203.3
696.26192	18361.9
700.20048	18627.5
704.13626	18831.3
708.06928	18744.8
711.99952	18571.6
715.927	18448.5
719.85171	18474.4
723.77365	18361.5
727.69284	18143
731.60928	17919.2
735.52295	17937.2
739.43388	18021
743.34206	18118.8
747.24749	18244.5
751.15017	18403.3
755.05012	18733.4
758.94733	19463.1
762.8418	20917.1
766.73354	23411.4
770.62254	26079.3
774.50882	27130.2
778.39237	25798.6
782.27321	23153.6
786.15132	20699.1
790.02671	19221.8
793.89938	18505.6
797.76935	18234.7
801.6366	18115.1
805.50115	18020.9
809.36299	17869.9
813.22213	17725.1
817.07857	17638.8
820.93231	17585.4
824.78336	17580.2
828.63172	17614.3
832.47738	17665.2
836.32036	17695.3
840.16066	17787.2
843.99827	17825.1
847.8332	17786.3
851.66546	17674.1
855.49504	17635.3
859.32195	17589.4
863.1462	17527.6
866.96777	17367.3
870.78668	17289.6
874.60293	17314.1
878.41652	17343.8
882.22745	17428.1
886.03573	17492.2
889.84136	17518.1
893.64433	17409.4
897.44466	17351.6
901.24235	17284
905.0374	17243
908.8298	17140.8
912.61957	17129.7
916.40671	17268.4
920.19121	17523.4
923.97308	17855
927.75233	18114.4
931.52895	18235
935.30295	17975.7
939.07433	17459.5
942.84309	17003.2
946.60924	16804.6
950.37278	16721.4
954.13371	16600.2
957.89203	16458.3
961.64774	16351.5
965.40086	16317.5
969.15137	16242.2
972.89929	16188
976.64461	16135.4
980.38733	16153.4
984.12747	16241.2
987.86502	16426.7
991.59999	16741.2
995.33237	17225.6
999.06217	17994.5
1002.78939	18926
1006.51404	19493.6
1010.23611	19733.6
1013.95561	19908.4
1017.67255	19905.8
1021.38692	19611.8
1025.09872	19355.9
1028.80796	19627.7
1032.51465	20433.5
1036.21877	21207.6
1039.92035	21287.1
1043.61937	20800.5
1047.31584	20006.1
1051.00976	19133
1054.70114	18654
1058.38998	18462.8
1062.07627	18462.8
1065.76003	18485.3
1069.44126	18529.4
1073.11995	18817.7
1076.79611	19068.1
1080.46974	19268.7
1084.14085	19553.6
1087.80943	19970.4
1091.47549	20157.5
1095.13903	19954.1
1098.80005	19431.8
1102.45857	18891.9
1106.11456	18573.9
1109.76805	18555.3
1113.41903	18743.4
1117.06751	19064.7
1120.71348	19469.6
1124.35696	19965.3
1127.99793	20443.3
1131.63641	20614.6
1135.2724	20199.5
1138.90589	19683.3
1142.5369	19341.7
1146.16542	19102.7
1149.79145	18962.6
1153.415	19009.7
1157.03607	19215.8
1160.65467	19688
1164.27079	20513.8
1167.88443	21781.9
1171.49561	23609
1175.10432	26258.9
1178.71056	29697.9
1182.31434	32799.9
1185.91565	34336.1
1189.51451	34131.2
1193.11091	32411.9
1196.70485	30038.2
1200.29634	27882.5
1203.88538	26247.3
1207.47197	24940
1211.05612	23914.7
1214.63782	23416.6
1218.21708	23323.2
1221.79391	23623.2
1225.36829	23925.6
1228.94024	23895.8
1232.50976	23539
1236.07685	23220.2
1239.6415	22878.9
1243.20374	22703.5
1246.76355	22661.6
1250.32093	22934.2
1253.8759	23530.2
1257.42845	24407.7
1260.97859	25316.8
1264.52631	26204.8
1268.07163	27173.4
1271.61453	28234.3
1275.15503	29314.1
1278.69312	30281.6
1282.22882	31105.4
1285.76211	31779.8
1289.29301	32449.5
1292.82151	33269.6
1296.34761	34383.7
1299.87133	36139.8
1303.39266	38716.2
1306.9116	42355.7
1310.42815	46439.8
1313.94233	49256.9
1317.45412	49281.1
1320.96354	47340.5
1324.47058	44857.6
1327.97525	42685.2
1331.47754	41080.4
1334.97747	40256
1338.47502	40117.3
1341.97022	40244.7
1345.46305	40196.8
1348.95352	40179.6
1352.44163	40570.5
1355.92738	42273.3
1359.41078	45877.2
1362.89183	49518.9
1366.37053	49024.9
1369.84688	43640
1373.32088	37424.2
1376.79254	33129.7
1380.26186	31109
1383.72883	30170
1387.19347	29497
1390.65578	28878.4
1394.11575	28678.2
1397.57339	29019
1401.0287	29731.9
1404.48168	30453.1
1407.93234	30939.5
1411.38068	30959.5
1414.82669	30502.4
1418.27039	29525.5
1421.71177	28441.4
1425.15083	27389.7
1428.58758	26821.7
1432.02203	26761
1435.45416	27045.1
1438.88399	27442.3
1442.31151	27771.4
1445.73673	28090.6
1449.15965	28510.3
1452.58027	28696.9
1455.9986	28734.4
1459.41463	28935.7
1462.82837	29371.9
1466.23982	30114.4
1469.64898	30680.8
1473.05586	30987.5
1476.46045	31015.7
1479.86276	30959.2
1483.26279	31082.2
1486.66054	31312.6
1490.05602	31802.3
1493.44922	32558.6
1496.84016	33436.7
1500.22882	34649.3
1503.61521	36523.6
1506.99934	39059.6
1510.38121	41613.4
1513.76081	42792.4
1517.13816	41437.9
1520.51324	38145.2
1523.88607	34854.3
1527.25665	32550.4
1530.62498	31114.3
1533.99105	30287.5
1537.35488	29724.1
1540.71647	29321.8
1544.07581	28975.4
1547.4329	28685.4
1550.78776	28413
1554.14038	28253.8
1557.49077	28253.2
1560.83892	28443.7
1564.18484	28588.1
1567.52853	28674.8
1570.86999	28798.3
1574.20922	28992.3
1577.54624	29061.5
1580.88103	28564.2
1584.2136	28030.9
1587.54395	28371.8
1590.87208	29760
1594.19801	32196.3
1597.52172	34830
1600.84321	35916.8
1604.16251	34514.7
1607.47959	31590.4
1610.79447	28403.7
1614.10715	25587.2
1617.41763	23368.6
1620.7259	21932
1624.03199	21290.9
1627.33587	21392
1630.63757	22207.1
1633.93707	23809
1637.23439	26170.1
1640.52951	29250.7
1643.82246	32577
1647.11321	35418.6
1650.40179	36445.3
1653.68819	34478.6
1656.97241	29916.2
1660.25446	25072.6
1663.53433	21497.8
1666.81203	19252.4
1670.08756	17894.9
1673.36092	17068.7
1676.63211	16538.6
1679.90115	16188.8
1683.16801	15929.1
1686.43272	15738.4
1689.69527	15584.4
1692.95567	15486.3
1696.2139	15438.6
1699.46999	15404.5
1702.72392	15324.3
1705.97571	15298.4
1709.22535	15230
1712.47284	15196.5
1715.71819	15213.3
1718.96139	15161.3
1722.20246	15094.2
1725.44139	15020.5
1728.67818	14923.1
1731.91284	14813.7
1735.14537	14702.8
1738.37576	14633.2
1741.60403	14620.6
1744.83017	14570.6
1748.05418	14509.6
1751.27607	14463.7
1754.49584	14438.5
1757.71349	14403.9
1760.92903	14428.5
1764.14244	14412
1767.35375	14409.7
1770.56294	14396.1
1773.77002	14322.3
1776.97499	14325.6
1780.17785	14295.8
1783.37861	14262.7
1786.57727	14252.8
1789.77382	14225.6
1792.96828	14203.4
1796.16064	14187.2
1799.3509	14156.5
1802.53907	14126.8
1805.72514	14110.6
1808.90913	14052.9
1812.09102	14046
1815.27083	14013.1
1818.44856	13977.7
1821.6242	13953.1
1824.79776	13937.1
1827.96924	13911.3
1831.13864	13944.8
1834.30597	13926
1837.47122	13954.5
1840.6344	13933.2
1843.7955	13978.8
1846.95454	13971
1850.11151	13945.2
1853.26642	13959.8
1856.41926	13983.1
1859.57004	14024.3
1862.71876	14011.4
1865.86542	14005.6
1869.01003	14031.3
1872.15258	14054.3
1875.29308	14047.9
1878.43152	14059.4
1881.56792	14059.7
1884.70227	14111.9
1887.83457	14103.3
1890.96482	14111.8
1894.09304	14083.6
1897.21921	14117.6
1900.34335	14149.6
1903.46544	14128.3
1906.58551	14129
1909.70353	14160.8
1912.81953	14143.7
1915.93349	14142.3
1919.04543	14101.3
1922.15534	14024
1925.26322	13960.6
1928.36908	13892.9
1931.47292	13845.2
1934.57473	13790
1937.67453	13706.1
1940.77232	13655.5
1943.86808	13562
1946.96184	13496.2
1950.05358	13425.8
1953.14331	13367.9
1956.23103	13295.4
1959.31675	13282.3
1962.40046	13249.4
1965.48217	13196.4
1968.56188	13153.2
1971.63959	13091.2
1974.7153	13052.9
1977.78901	13063.7
1980.86073	12953.1
1983.93046	12922.6
1986.99819	12879.4
1990.06394	12867.3
1993.1277	12795.7
1996.18947	12755.7
1999.24925	12713.2
2002.30706	12677.6
2005.36288	12656
2008.41672	12628
2011.46859	12575
2014.51848	12551
2017.56639	12532.2
2020.61233	12512.3
2023.6563	12462.9
2026.6983	12428.8
2029.73833	12438.2
2032.7764	12383.6
2035.8125	12385.7
2038.84664	12362.3
2041.87881	12335.2
2044.90903	12345.2
2047.93729	12323.6
2050.96359	12308.2
2053.98794	12307.4
2057.01034	12262.7
2060.03078	12268.7
2063.04927	12233.7
2066.06582	12277.7
2069.08042	12242.8
2072.09307	12250.6
2075.10378	12207.9
2078.11255	12185.1
2081.11938	12159.5
2084.12426	12151.5
2087.12722	12155.4
2090.12824	12133.1
2093.12732	12151.9
2096.12447	12142.9
2099.11969	12131.5
2102.11299	12126.1
2105.10435	12124.3
2108.09379	12127.8
2111.08131	12140.3
2114.0669	12143.5
2117.05057	12153.8
2120.03233	12167.9
2123.01216	12185.9
2125.99008	12173.3
2128.96609	12177.5
2131.94018	12182.6
2134.91236	12218.6
2137.88263	12180
2140.851	12180.3
2143.81746	12185.8
2146.78201	12178.9
2149.74466	12183.9
2152.7054	12178.9
2155.66425	12188.4
2158.6212	12173
2161.57625	12184.2
2164.52941	12158.4
2167.48067	12170.6
2170.43004	12198.8
2173.37752	12147.1
2176.32311	12181.2
2179.26681	12167.5
2182.20863	12148.5
2185.14856	12157.9
2188.08661	12175
2191.02278	12153.5
2193.95707	12173.4
2196.88948	12179.6
2199.82001	12175.1
2202.74867	12169.3
2205.67545	12171.9
2208.60037	12146.2
2211.52341	12192.4
2214.44458	12178.9
2217.36388	12176.3
2220.28132	12118.4
2223.1969	12091.4
2226.11061	12094.2
2229.02246	12061.1
2231.93245	12052.5
2234.84058	12006.8
2237.74686	11980.5
2240.65128	11969
2243.55385	11932
2246.45456	11929.3
2249.35343	11883.2
2252.25044	11885.2
2255.14561	11869.2
2258.03893	11874.6
2260.93041	11862.8
2263.82004	11838.3
2266.70783	11784
2269.59378	11779.8
2272.4779	11742.9
2275.36017	11700.8
2278.24061	11690.1
2281.11922	11685.4
2283.996	11670.8
2286.87094	11659.2
2289.74405	11605.9
2292.61534	11627.2
2295.4848	11617.2
2298.35243	11615.9
2301.21824	11638.9
2304.08223	11648.6
2306.94439	11674.9
2309.80474	11645.3
2312.66327	11657.7
2315.51999	11685.5
2318.37489	11679.9
2321.22797	11658.6
2324.07925	11671.8
2326.92871	11654.9
2329.77637	11650.2
2332.62222	11637.1
2335.46626	11637.5
2338.3085	11636.6
2341.14893	11672.3
2343.98756	11709.9
2346.8244	11731.4
2349.65943	11736.3
2352.49267	11713.2
2355.32411	11706.7
2358.15376	11727.5
2360.98161	11715.8
2363.80768	11710.2
2366.63195	11700.2
2369.45444	11666.9
2372.27514	11607.3
2375.09405	11623.4
2377.91118	11546.8
2380.72652	11514.6
2383.54009	11492.1
2386.35187	11455.5
2389.16188	11397.7
2391.97011	11393.8
2394.77657	11384.3
2397.58125	11354.1
2400.38416	11358.9
2403.18529	11330.4
2405.98466	11320.1
2408.78226	11268.3
2411.57809	11235.1
2414.37216	11203.6
2417.16446	11185.9
2419.955	11163.7
2422.74378	11176.6
2425.5308	11166.3
2428.31606	11169.9
2431.09956	11177
2433.88131	11156.6
2436.6613	11173.6
2439.43954	11162.7
2442.21603	11162.4
2444.99077	11158.2
2447.76377	11176.3
2450.53501	11143.1
2453.30451	11181.9
2456.07226	11142.9
2458.83827	11143.3
2461.60254	11146.8
2464.36507	11168.4
2467.12586	11120.7
2469.88492	11160.3
2472.64224	11186.5
2475.39782	11187.2
2478.15167	11208
2480.90379	11231.1
2483.65417	11239.9
2486.40283	11247.9
2489.14976	11273.2
2491.89497	11296.1
2494.63845	11291.2
2497.3802	11259.1
2500.12024	11286.5
2502.85855	11286.2
2505.59514	11258.9
2508.33002	11238.5
2511.06318	11204.2
2513.79462	11211.8
2516.52435	11171.4
2519.25237	11165.4
2521.97867	11153
2524.70327	11130.3
2527.42616	11114.6
2530.14734	11121.4
2532.86681	11107.1
2535.58458	11117
2538.30065	11117.7
2541.01501	11138.4
2543.72768	11111.4
2546.43864	11117.3
2549.14791	11115.7
2551.85548	11095.3
2554.56136	11109.1
2557.26554	11096.3
2559.96803	11059.7
2562.66883	11067.2
2565.36794	11043
2568.06536	11069.7
2570.7611	11037.4
2573.45514	11031.5
2576.14751	11005.3
2578.83819	10987.3
2581.52719	11009.2
2584.21451	11015.9
2586.90015	11034
2589.58411	11027.3
2592.2664	11028.8
2594.94701	11001.5
2597.62594	11032.1
2600.30321	11004.3
2602.9788	11022.1
2605.65273	11030.3
2608.32498	11008.8
2610.99557	11009.8
2613.66449	11045.3
2616.33175	11013.2
2618.99734	11026.2
2621.66128	11044.6
2624.32355	11031.5
2626.98416	11051.9
2629.64311	11025
2632.30041	11050.3
2634.95605	11013.7
2637.61004	10984.1
2640.26238	11002.4
2642.91306	10981.1
2645.56209	10967.8
2648.20948	10942.7
2650.85521	10919.6
2653.4993	10927.7
2656.14175	10941.1
2658.78255	10948.7
2661.42171	10922.6
2664.05923	10972.3
2666.6951	10994.9
2669.32934	11000.7
2671.96194	11013.8
2674.59291	11007.7
2677.22224	10993.8
2679.84993	10989.5
2682.476	10969
2685.10043	10956.1
2687.72324	10940.4
2690.34441	10921.8
2692.96396	10919.9
2695.58188	10907.5
2698.19818	10884.3
2700.81285	10877.8
2703.4259	10883.5
2706.03733	10898.6
2708.64714	10893.1
2711.25533	10906.5
2713.86191	10881.9
2716.46687	10898.3
2719.07021	10932.8
2721.67194	10954.4
2724.27206	10934.2
2726.87057	10965.8
2729.46747	10955
2732.06276	10966.1
2734.65644	10977.8
2737.24852	10968.2
2739.83899	10916
2742.42786	10969.5
2745.01513	10914.6
2747.60079	10916.9
2750.18486	10930
2752.76733	10887.1
2755.3482	10906
2757.92747	10874.1
2760.50515	10881.7
2763.08123	10895.1
2765.65573	10843.8
2768.22863	10856.2
2770.79994	10870
2773.36967	10868.9
2775.9378	10856.8
2778.50435	10873.2
2781.06932	10846.2
2783.6327	10859.4
2786.1945	10889
2788.75471	10895.9
2791.31335	10857
2793.87041	10860.2
2796.42589	10841.5
2798.97979	10838.9
2801.53212	10809.9
2804.08288	10791.1
2806.63206	10749.3
2809.17967	10774.2
2811.72571	10723.9
2814.27018	10724.7
2816.81308	10726.6
2819.35442	10720.6
2821.89419	10716.5
2824.43239	10716.8
2826.96904	10711
2829.50412	10727.9
2832.03763	10728.5
2834.56959	10722.4
2837.1	10702.1
2839.62884	10700.5
2842.15613	10716.4
2844.68186	10742.5
2847.20604	10749.3
2849.72867	10759.3
2852.24974	10753.5
2854.76927	10769.2
2857.28724	10726.8
2859.80367	10749.3
2862.31855	10712.3
2864.83189	10741.1
2867.34368	10701.8
2869.85393	10749
2872.36264	10714.5
2874.8698	10713.1
2877.37543	10708.3
2879.87952	10732.3
2882.38207	10728.3
2884.88308	10727
2887.38256	10719.6
2889.88051	10717.5
2892.37692	10723.9
2894.8718	10738.6
2897.36515	10723
2899.85698	10740.5
2902.34727	10771.9
2904.83604	10783.9
2907.32328	10809
2909.809	10802.1
2912.29319	10798
2914.77587	10802.9
2917.25702	10781.5
2919.73665	10782.3
2922.21476	10791.6
2924.69136	10781.8
2927.16644	10773.3
2929.64	10727.8
2932.11205	10709
2934.58258	10657.4
2937.05161	10663.6
2939.51912	10652.1
2941.98513	10638.4
2944.44962	10615.2
2946.91261	10551.5
2949.37409	10561.5
2951.83407	10561.1
2954.29254	10553.1
2956.74951	10569.3
2959.20498	10538.7
2961.65895	10528.7
2964.11142	10512.2
2966.56239	10494.6
2969.01186	10476.4
2971.45984	10424.5
2973.90632	10404.8
2976.35131	10380.4
2978.7948	10350.1
2981.23681	10321.4
2983.67732	10304.3
2986.11635	10257.7
2988.55388	10238
2990.98993	10220.5
2993.4245	10202.8
2995.85758	10183.7
2998.28917	10178.6
3000.71928	10181.3
3003.14791	10144.5
3005.57506	10129.5
3008.00073	10088.6
3010.42493	10106.9
3012.84764	10053.7
3015.26888	10036.6
3017.68865	10000.4
3020.10694	10013
3022.52376	9983.3
3024.9391	9993.4
3027.35298	9962.8
3029.76539	9944.5
3032.17632	9936.1
3034.5858	9957.7
3036.9938	9946.7
3039.40034	9956.1
3041.80542	9949.5
3044.20903	9890.7
3046.61118	9897.2
3049.01187	9881.7
3051.4111	9854.2
3053.80888	9834
3056.20519	9830.2
3058.60005	9797.3
3060.99345	9792.2
3063.3854	9771.4
3065.7759	9725.7
3068.16494	9707.5
3070.55254	9668.5
3072.93868	9674.4
3075.32338	9640.1
3077.70662	9627.2
3080.08842	9591.6
3082.46878	9561.9
3084.84769	9557.4
3087.22515	9563.3
3089.60118	9552.3
3091.97576	9540.4
3094.3489	9554.2
3096.72061	9568.8
3099.09087	9532.7
3101.4597	9532.8
3103.82709	9510
3106.19305	9478
3108.55757	9517.6
3110.92066	9499.4
3113.28232	9477.1
3115.64255	9461.8
3118.00134	9452.4
3120.35871	9425.7
3122.71466	9396.8
3125.06917	9398.2
3127.42226	9378.9
3129.77393	9391.7
3132.12417	9386
3134.47299	9364.2
3136.82039	9370.6
3139.16636	9370.7
3141.51092	9366.3
3143.85406	9353.8
3146.19579	9341.6
3148.53609	9323.3
3150.87499	9329.8
3153.21246	9341.8
3155.54853	9373.7
3157.88318	9360.9
3160.21642	9373.1
3162.54826	9373.8
3164.87868	9372.4
3167.2077	9409.7
3169.5353	9415.1
3171.86151	9361.8
3174.18631	9386.2
3176.5097	9368.4
3178.83169	9368.7
3181.15228	9351.3
3183.47147	9340.9
3185.78926	9349
3188.10565	9335.9
3190.42065	9366.1
3192.73424	9355.5
3195.04645	9375.8
3197.35725	9334.5
3199.66667	9338.4
3201.97469	9335.6
3204.28132	9320.9
3206.58656	9368.7
3208.8904	9367.4
3211.19287	9381.6
3213.49394	9369.9
3215.79363	9398.1
3218.09193	9378.9
3220.38884	9380.2
3222.68438	9395
3224.97853	9395.4
3227.2713	9371.6
3229.56269	9378.7
3231.8527	9376
3234.14133	9361.7
3236.42858	9325.8
3238.71446	9319.9
3240.99896	9294.6
3243.28209	9275.1
3245.56384	9272.7
3247.84423	9284.2
3250.12324	9283.5
3252.40088	9257.3
3254.67715	9253
3256.95205	9255
3259.22558	9250.4
3261.49775	9232.7
3263.76855	9248.6
3266.03799	9239.2
3268.30606	9208.7
3270.57277	9184.5
3272.83812	9158.8
3275.10211	9147.9
3277.36474	9133.2
3279.62601	9138.5
3281.88593	9124.4
3284.14448	9137
3286.40168	9128.6
3288.65753	9139
3290.91202	9127.9
3293.16516	9111.8
3295.41695	9105.9
3297.66738	9054.9
3299.91647	9027.8
3302.16421	8958.1
3304.4106	8908.6
3306.65564	8878.6
3308.89933	8804.7
3311.14169	8773
3313.38269	8687.4
3315.62236	8629.2
3317.86068	8560.4
3320.09766	8480.4
3322.3333	8418
3324.5676	8394.3
3326.80056	8239.3
3329.03219	8179.8
3331.26248	4.1
3333.49143	-0.5
3335.71905	-1.5
