Data from AgNP_FTO_APTES_UA_10uM_CRN_20uM_R6G_10uM_NaF_0.1M_Addition_RamanShift__9__16-13-20-743.txt Node

Date: Thu Feb 10 16:13:20 GMT 2022
User: TCL
Spectrometer: QEP01345
Trigger mode: 4
Integration Time (sec): 7.000000E0
Scans to average: 10
Electric dark correction enabled: true
Nonlinearity correction enabled: false
Boxcar width: 0
XAxis mode: Raman Shifts
Number of Pixels in Spectrum: 1044
>>>>>Begin Spectral Data<<<<<
46.04893	0.1875
50.45542	-1.5125
54.85868	-1.4125
59.25871	-0.3125
63.6555	68.3875
68.04907	72.0875
72.43941	77.0875
76.82654	75.3875
81.21044	84.1875
85.59113	79.1875
89.96862	86.6875
94.34289	87.1875
98.71396	90.4875
103.08183	97.1875
107.4465	104.6875
111.80798	98.9875
116.16626	106.9875
120.52136	105.1875
124.87327	112.0875
129.222	118.0875
133.56755	124.9875
137.90993	134.4875
142.24913	145.1875
146.58517	164.6875
150.91804	191.9875
155.24774	228.6875
159.57429	287.8875
163.89768	360.4875
168.21792	483.4875
172.53501	659.5875
176.84895	922.4875
181.15975	1284.1875
185.46741	1801.6875
189.77193	2494.5875
194.07331	3320.6875
198.37157	4293.1875
202.6667	5314.6875
206.9587	6325.6875
211.24758	7280.2875
215.53334	8254.5875
219.81599	9273.7875
224.09553	10399.1875
228.37195	11642.5875
232.64527	12993.2875
236.91549	14428.0875
241.18261	15890.6875
245.44663	17245.5875
249.70755	18445.5875
253.96539	19529.2875
258.22014	20444.6875
262.4718	21184.8875
266.72039	21702.9875
270.96589	21968.1875
275.20832	22074.0875
279.44768	22010.3875
283.68397	21880.2875
287.91719	21735.7875
292.14735	21616.8875
296.37445	21668.6875
300.59849	21745.8875
304.81948	21851.1875
309.03742	21843.9875
313.25231	21655.5875
317.46415	21275.3875
321.67296	20799.0875
325.87872	20359.3875
330.08145	20216.9875
334.28114	20183.9875
338.47781	20287.6875
342.67145	20508.7875
346.86207	20777.3875
351.04966	21107.7875
355.23424	21420.5875
359.4158	21661.6875
363.59435	21881.3875
367.76989	22057.3875
371.94243	22181.5875
376.11196	22257.5875
380.27849	22274.4875
384.44203	22353.3875
388.60257	22505.2875
392.76012	22814.6875
396.91468	23169.4875
401.06626	23479.6875
405.21485	23715.1875
409.36047	23614.9875
413.50311	23389.7875
417.64277	23263.9875
421.77947	23356.9875
425.9132	23516.7875
430.04396	23684.4875
434.17176	23732.7875
438.2966	23836.0875
442.41849	24056.5875
446.53742	24583.7875
450.6534	25128.8875
454.76644	25556.1875
458.87653	25779.9875
462.98368	25757.3875
467.08789	25584.0875
471.18916	25323.5875
475.2875	25040.1875
479.38291	24965.3875
483.4754	24811.5875
487.56496	24594.6875
491.6516	24213.9875
495.73531	23809.9875
499.81612	23571.3875
503.89401	23633.0875
507.96899	23779.4875
512.04106	23787.2875
516.11023	23705.5875
520.1765	23440.6875
524.23987	23221.9875
528.30034	22955.7875
532.35792	22730.5875
536.41261	22512.1875
540.46441	22358.1875
544.51333	22407.0875
548.55936	22670.1875
552.60252	23113.3875
556.64279	23590.4875
560.6802	24002.0875
564.71473	24275.0875
568.7464	24801.1875
572.7752	25652.9875
576.80114	26605.3875
580.82422	27462.8875
584.84444	28186.3875
588.86181	29075.9875
592.87633	29663.9875
596.888	29274.2875
600.89682	28072.7875
604.9028	27757.3875
608.90594	28880.6875
612.90624	29950.4875
616.90371	28005.7875
620.89834	24538.2875
624.89015	23160.0875
628.87913	23043.2875
632.86528	23267.4875
636.84862	23245.2875
640.82913	22909.0875
644.80683	22416.4875
648.78172	22073.8875
652.75379	22030.6875
656.72306	22218.0875
660.68952	22460.7875
664.65319	22384.1875
668.61405	22116.7875
672.57211	22106.7875
676.52738	22198.5875
680.47986	22147.1875
684.42955	22025.4875
688.37646	21990.6875
692.32058	22137.8875
696.26192	22364.2875
700.20048	22664.5875
704.13626	22867.4875
708.06928	22924.8875
711.99952	22869.0875
715.927	22789.7875
719.85171	22796.3875
723.77365	22656.8875
727.69284	22314.1875
731.60928	22026.7875
735.52295	21863.3875
739.43388	21840.4875
743.34206	21894.8875
747.24749	22061.1875
751.15017	22285.0875
755.05012	22724.2875
758.94733	23356.1875
762.8418	24350.0875
766.73354	25817.4875
770.62254	26962.0875
774.50882	26974.1875
778.39237	25824.3875
782.27321	24338.2875
786.15132	23203.1875
790.02671	22489.8875
793.89938	22084.2875
797.76935	21935.4875
801.6366	21828.0875
805.50115	21718.2875
809.36299	21632.2875
813.22213	21516.5875
817.07857	21462.0875
820.93231	21462.2875
824.78336	21343.2875
828.63172	21192.0875
832.47738	21146.0875
836.32036	21143.1875
840.16066	21130.8875
843.99827	21138.2875
847.8332	21111.7875
851.66546	21143.3875
855.49504	21218.5875
859.32195	21211.2875
863.1462	21182.6875
866.96777	21115.9875
870.78668	21063.0875
874.60293	21053.6875
878.41652	21089.8875
882.22745	21133.8875
886.03573	21148.3875
889.84136	21153.9875
893.64433	21100.8875
897.44466	21021.2875
901.24235	21000.9875
905.0374	20955.8875
908.8298	20958.2875
912.61957	21048.6875
916.40671	21253.6875
920.19121	21559.7875
923.97308	21793.2875
927.75233	21636.8875
931.52895	21389.3875
935.30295	21015.0875
939.07433	20720.7875
942.84309	20457.5875
946.60924	20304.5875
950.37278	20307.5875
954.13371	20343.0875
957.89203	20303.9875
961.64774	20296.1875
965.40086	20306.7875
969.15137	20250.3875
972.89929	20186.0875
976.64461	20106.1875
980.38733	20012.7875
984.12747	20079.5875
987.86502	20162.4875
991.59999	20251.3875
995.33237	20387.8875
999.06217	20695.1875
1002.78939	21056.0875
1006.51404	21430.8875
1010.23611	21766.9875
1013.95561	21971.5875
1017.67255	22001.8875
1021.38692	21813.5875
1025.09872	21555.1875
1028.80796	21343.3875
1032.51465	21340.6875
1036.21877	21444.3875
1039.92035	21557.8875
1043.61937	21595.4875
1047.31584	21552.8875
1051.00976	21558.7875
1054.70114	21652.9875
1058.38998	21757.2875
1062.07627	22017.1875
1065.76003	22340.3875
1069.44126	22600.6875
1073.11995	22898.6875
1076.79611	23147.6875
1080.46974	23301.2875
1084.14085	23445.7875
1087.80943	23693.0875
1091.47549	23872.5875
1095.13903	23942.5875
1098.80005	23634.2875
1102.45857	23112.6875
1106.11456	22649.9875
1109.76805	22396.1875
1113.41903	22367.8875
1117.06751	22408.2875
1120.71348	22611.3875
1124.35696	22822.2875
1127.99793	23031.2875
1131.63641	23182.6875
1135.2724	23228.4875
1138.90589	23192.8875
1142.5369	23294.9875
1146.16542	23487.2875
1149.79145	23755.2875
1153.415	23998.6875
1157.03607	24415.4875
1160.65467	25108.1875
1164.27079	26187.5875
1167.88443	27480.5875
1171.49561	28813.4875
1175.10432	30295.1875
1178.71056	32198.5875
1182.31434	33936.5875
1185.91565	34925.9875
1189.51451	35174.9875
1193.11091	34697.2875
1196.70485	33824.6875
1200.29634	32683.1875
1203.88538	31936.0875
1207.47197	31596.4875
1211.05612	31428.7875
1214.63782	30872.4875
1218.21708	29953.0875
1221.79391	28871.1875
1225.36829	28034.2875
1228.94024	27570.5875
1232.50976	27285.0875
1236.07685	27056.1875
1239.6415	26950.1875
1243.20374	26974.6875
1246.76355	27190.3875
1250.32093	27587.2875
1253.8759	28133.2875
1257.42845	28824.1875
1260.97859	29624.1875
1264.52631	30431.1875
1268.07163	31238.1875
1271.61453	32028.1875
1275.15503	32840.9875
1278.69312	33734.3875
1282.22882	34680.0875
1285.76211	35745.2875
1289.29301	37115.0875
1292.82151	38809.4875
1296.34761	40808.0875
1299.87133	43014.9875
1303.39266	45220.1875
1306.9116	46872.6875
1310.42815	47962.8875
1313.94233	48347.1875
1317.45412	47994.7875
1320.96354	47671.8875
1324.47058	47546.5875
1327.97525	47670.7875
1331.47754	47781.9875
1334.97747	47861.2875
1338.47502	47831.5875
1341.97022	47654.0875
1345.46305	47129.3875
1348.95352	46510.0875
1352.44163	45873.4875
1355.92738	45699.1875
1359.41078	46193.7875
1362.89183	46607.6875
1366.37053	45538.3875
1369.84688	42574.6875
1373.32088	38991.9875
1376.79254	36445.2875
1380.26186	35595.6875
1383.72883	35843.3875
1387.19347	36086.9875
1390.65578	35947.3875
1394.11575	35875.7875
1397.57339	36062.9875
1401.0287	36533.4875
1404.48168	36854.9875
1407.93234	36680.3875
1411.38068	35742.7875
1414.82669	34485.0875
1418.27039	32963.8875
1421.71177	31575.6875
1425.15083	30577.1875
1428.58758	30125.4875
1432.02203	30446.2875
1435.45416	31316.4875
1438.88399	32321.7875
1442.31151	33186.1875
1445.73673	33562.6875
1449.15965	33912.1875
1452.58027	34055.9875
1455.9986	34142.5875
1459.41463	34361.2875
1462.82837	34795.0875
1466.23982	35271.3875
1469.64898	35695.1875
1473.05586	35885.4875
1476.46045	35806.0875
1479.86276	35471.8875
1483.26279	35124.9875
1486.66054	34955.7875
1490.05602	35017.4875
1493.44922	35328.8875
1496.84016	35767.5875
1500.22882	36506.1875
1503.61521	37447.8875
1506.99934	38410.2875
1510.38121	39129.2875
1513.76081	39223.5875
1517.13816	38759.6875
1520.51324	38254.2875
1523.88607	37905.7875
1527.25665	37979.4875
1530.62498	38134.7875
1533.99105	38004.1875
1537.35488	37458.4875
1540.71647	36487.7875
1544.07581	35366.5875
1547.4329	34248.9875
1550.78776	33317.1875
1554.14038	32734.0875
1557.49077	32420.0875
1560.83892	32117.0875
1564.18484	32018.5875
1567.52853	32036.1875
1570.86999	32380.1875
1574.20922	33014.1875
1577.54624	33707.0875
1580.88103	34118.5875
1584.2136	34598.5875
1587.54395	35580.6875
1590.87208	37108.3875
1594.19801	38787.6875
1597.52172	40298.8875
1600.84321	40278.0875
1604.16251	38420.0875
1607.47959	35646.9875
1610.79447	32771.3875
1614.10715	30278.0875
1617.41763	28164.7875
1620.7259	26689.3875
1624.03199	25983.9875
1627.33587	25947.0875
1630.63757	26735.4875
1633.93707	28461.9875
1637.23439	31240.2875
1640.52951	35324.7875
1643.82246	39833.2875
1647.11321	43168.8875
1650.40179	43385.8875
1653.68819	40248.0875
1656.97241	35083.7875
1660.25446	30134.8875
1663.53433	26411.5875
1666.81203	23948.3875
1670.08756	22384.7875
1673.36092	21347.2875
1676.63211	20698.1875
1679.90115	20265.6875
1683.16801	19944.1875
1686.43272	19680.2875
1689.69527	19499.2875
1692.95567	19319.2875
1696.2139	19243.9875
1699.46999	19180.0875
1702.72392	19093.7875
1705.97571	18975.8875
1709.22535	18922.2875
1712.47284	18885.7875
1715.71819	18854.2875
1718.96139	18781.3875
1722.20246	18748.6875
1725.44139	18640.5875
1728.67818	18505.1875
1731.91284	18414.7875
1735.14537	18257.1875
1738.37576	18187.3875
1741.60403	18105.8875
1744.83017	18067.6875
1748.05418	18021.7875
1751.27607	18011.1875
1754.49584	17994.6875
1757.71349	17963.2875
1760.92903	17912.7875
1764.14244	17888.1875
1767.35375	17876.9875
1770.56294	17851.2875
1773.77002	17814.8875
1776.97499	17754.2875
1780.17785	17720.1875
1783.37861	17706.7875
1786.57727	17657.0875
1789.77382	17598.6875
1792.96828	17570.6875
1796.16064	17572.7875
1799.3509	17516.8875
1802.53907	17481.5875
1805.72514	17437.5875
1808.90913	17369.9875
1812.09102	17355.7875
1815.27083	17320.8875
1818.44856	17296.1875
1821.6242	17256.5875
1824.79776	17221.1875
1827.96924	17239.6875
1831.13864	17230.9875
1834.30597	17242.4875
1837.47122	17234.4875
1840.6344	17254.5875
1843.7955	17266.1875
1846.95454	17208.7875
1850.11151	17205.1875
1853.26642	17176.7875
1856.41926	17160.7875
1859.57004	17169.4875
1862.71876	17122.2875
1865.86542	17058.0875
1869.01003	17073.9875
1872.15258	17026.4875
1875.29308	17025.4875
1878.43152	16975.2875
1881.56792	16973.5875
1884.70227	16938.2875
1887.83457	16907.7875
1890.96482	16891.7875
1894.09304	16856.3875
1897.21921	16844.2875
1900.34335	16817.1875
1903.46544	16784.0875
1906.58551	16769.2875
1909.70353	16734.0875
1912.81953	16708.7875
1915.93349	16724.6875
1919.04543	16648.4875
1922.15534	16617.5875
1925.26322	16588.4875
1928.36908	16527.6875
1931.47292	16538.1875
1934.57473	16474.5875
1937.67453	16440.7875
1940.77232	16397.5875
1943.86808	16337.2875
1946.96184	16304.3875
1950.05358	16267.7875
1953.14331	16184.7875
1956.23103	16176.7875
1959.31675	16120.1875
1962.40046	16075.2875
1965.48217	16023.3875
1968.56188	15943.3875
1971.63959	15924.6875
1974.7153	15856.1875
1977.78901	15819.7875
1980.86073	15777.3875
1983.93046	15732.2875
1986.99819	15670.3875
1990.06394	15605.7875
1993.1277	15583.8875
1996.18947	15507.3875
1999.24925	15474.8875
2002.30706	15466.3875
2005.36288	15391.0875
2008.41672	15361.2875
2011.46859	15298.6875
2014.51848	15261.1875
2017.56639	15245.3875
2020.61233	15225.5875
2023.6563	15168.6875
2026.6983	15121.9875
2029.73833	15101.8875
2032.7764	15096.4875
2035.8125	15057.4875
2038.84664	14974.5875
2041.87881	14940.9875
2044.90903	14904.1875
2047.93729	14888.7875
2050.96359	14879.6875
2053.98794	14884.8875
2057.01034	14828.2875
2060.03078	14824.1875
2063.04927	14797.4875
2066.06582	14824.7875
2069.08042	14813.6875
2072.09307	14791.0875
2075.10378	14769.8875
2078.11255	14773.3875
2081.11938	14774.5875
2084.12426	14744.3875
2087.12722	14751.2875
2090.12824	14767.6875
2093.12732	14708.4875
2096.12447	14707.8875
2099.11969	14758.4875
2102.11299	14738.7875
2105.10435	14714.4875
2108.09379	14721.4875
2111.08131	14732.3875
2114.0669	14719.7875
2117.05057	14731.0875
2120.03233	14759.2875
2123.01216	14785.8875
2125.99008	14783.1875
2128.96609	14777.8875
2131.94018	14819.9875
2134.91236	14795.1875
2137.88263	14797.5875
2140.851	14811.3875
2143.81746	14806.5875
2146.78201	14785.7875
2149.74466	14799.4875
2152.7054	14791.6875
2155.66425	14801.5875
2158.6212	14796.5875
2161.57625	14820.9875
2164.52941	14789.6875
2167.48067	14764.2875
2170.43004	14772.0875
2173.37752	14742.1875
2176.32311	14772.9875
2179.26681	14797.3875
2182.20863	14751.8875
2185.14856	14746.2875
2188.08661	14734.2875
2191.02278	14742.5875
2193.95707	14747.6875
2196.88948	14724.7875
2199.82001	14715.6875
2202.74867	14675.3875
2205.67545	14643.7875
2208.60037	14652.9875
2211.52341	14628.3875
2214.44458	14606.8875
2217.36388	14568.8875
2220.28132	14550.9875
2223.1969	14498.3875
2226.11061	14516.0875
2229.02246	14465.5875
2231.93245	14438.4875
2234.84058	14440.1875
2237.74686	14395.6875
2240.65128	14403.4875
2243.55385	14361.3875
2246.45456	14329.9875
2249.35343	14324.5875
2252.25044	14310.8875
2255.14561	14271.9875
2258.03893	14256.2875
2260.93041	14229.5875
2263.82004	14182.1875
2266.70783	14129.4875
2269.59378	14074.3875
2272.4779	14054.1875
2275.36017	14004.4875
2278.24061	13989.9875
2281.11922	13973.0875
2283.996	13949.9875
2286.87094	13939.5875
2289.74405	13920.1875
2292.61534	13903.9875
2295.4848	13908.3875
2298.35243	13888.5875
2301.21824	13861.7875
2304.08223	13868.1875
2306.94439	13842.2875
2309.80474	13860.9875
2312.66327	13873.9875
2315.51999	13831.7875
2318.37489	13829.1875
2321.22797	13813.6875
2324.07925	13787.2875
2326.92871	13771.1875
2329.77637	13730.4875
2332.62222	13736.8875
2335.46626	13723.9875
2338.3085	13687.9875
2341.14893	13691.4875
2343.98756	13705.5875
2346.8244	13714.6875
2349.65943	13688.6875
2352.49267	13665.5875
2355.32411	13683.1875
2358.15376	13656.2875
2360.98161	13667.6875
2363.80768	13674.4875
2366.63195	13672.0875
2369.45444	13662.0875
2372.27514	13630.9875
2375.09405	13604.2875
2377.91118	13600.0875
2380.72652	13557.3875
2383.54009	13525.6875
2386.35187	13497.7875
2389.16188	13470.6875
2391.97011	13452.4875
2394.77657	13393.6875
2397.58125	13374.7875
2400.38416	13360.3875
2403.18529	13346.5875
2405.98466	13356.7875
2408.78226	13336.5875
2411.57809	13319.9875
2414.37216	13285.1875
2417.16446	13296.2875
2419.955	13267.7875
2422.74378	13253.6875
2425.5308	13240.9875
2428.31606	13243.6875
2431.09956	13249.8875
2433.88131	13230.1875
2436.6613	13219.8875
2439.43954	13233.5875
2442.21603	13202.2875
2444.99077	13207.9875
2447.76377	13207.2875
2450.53501	13184.7875
2453.30451	13189.0875
2456.07226	13170.5875
2458.83827	13171.3875
2461.60254	13159.1875
2464.36507	13117.2875
2467.12586	13113.2875
2469.88492	13104.0875
2472.64224	13118.8875
2475.39782	13143.4875
2478.15167	13140.9875
2480.90379	13134.0875
2483.65417	13131.4875
2486.40283	13145.9875
2489.14976	13152.8875
2491.89497	13153.6875
2494.63845	13164.6875
2497.3802	13120.2875
2500.12024	13124.3875
2502.85855	13120.2875
2505.59514	13120.1875
2508.33002	13073.5875
2511.06318	13095.6875
2513.79462	13069.7875
2516.52435	13048.7875
2519.25237	13045.3875
2521.97867	13041.8875
2524.70327	13034.5875
2527.42616	12992.2875
2530.14734	13026.1875
2532.86681	13013.2875
2535.58458	12986.4875
2538.30065	13021.5875
2541.01501	12984.4875
2543.72768	12946.7875
2546.43864	12990.9875
2549.14791	12945.7875
2551.85548	12929.3875
2554.56136	12935.7875
2557.26554	12908.5875
2559.96803	12886.5875
2562.66883	12890.2875
2565.36794	12864.0875
2568.06536	12848.0875
2570.7611	12813.2875
2573.45514	12800.6875
2576.14751	12808.3875
2578.83819	12788.2875
2581.52719	12770.1875
2584.21451	12756.4875
2586.90015	12737.4875
2589.58411	12727.1875
2592.2664	12723.8875
2594.94701	12715.3875
2597.62594	12704.1875
2600.30321	12691.6875
2602.9788	12698.7875
2605.65273	12684.8875
2608.32498	12679.7875
2610.99557	12670.0875
2613.66449	12688.2875
2616.33175	12671.1875
2618.99734	12674.3875
2621.66128	12640.5875
2624.32355	12605.9875
2626.98416	12644.1875
2629.64311	12613.0875
2632.30041	12589.3875
2634.95605	12582.9875
2637.61004	12560.7875
2640.26238	12544.8875
2642.91306	12566.9875
2645.56209	12562.4875
2648.20948	12542.8875
2650.85521	12548.1875
2653.4993	12573.9875
2656.14175	12555.1875
2658.78255	12585.6875
2661.42171	12570.3875
2664.05923	12602.2875
2666.6951	12615.2875
2669.32934	12605.7875
2671.96194	12613.8875
2674.59291	12623.4875
2677.22224	12626.2875
2679.84993	12610.7875
2682.476	12616.3875
2685.10043	12599.0875
2687.72324	12584.0875
2690.34441	12597.4875
2692.96396	12590.8875
2695.58188	12582.8875
2698.19818	12593.4875
2700.81285	12623.4875
2703.4259	12617.3875
2706.03733	12622.3875
2708.64714	12631.0875
2711.25533	12605.5875
2713.86191	12616.5875
2716.46687	12647.2875
2719.07021	12652.2875
2721.67194	12649.0875
2724.27206	12650.8875
2726.87057	12658.7875
2729.46747	12669.4875
2732.06276	12688.5875
2734.65644	12690.3875
2737.24852	12667.8875
2739.83899	12655.2875
2742.42786	12697.2875
2745.01513	12660.0875
2747.60079	12633.1875
2750.18486	12613.1875
2752.76733	12628.0875
2755.3482	12602.0875
2757.92747	12595.7875
2760.50515	12561.9875
2763.08123	12580.2875
2765.65573	12552.6875
2768.22863	12557.3875
2770.79994	12546.3875
2773.36967	12557.3875
2775.9378	12572.3875
2778.50435	12561.0875
2781.06932	12555.5875
2783.6327	12535.0875
2786.1945	12560.0875
2788.75471	12513.3875
2791.31335	12482.0875
2793.87041	12486.4875
2796.42589	12478.1875
2798.97979	12445.3875
2801.53212	12454.9875
2804.08288	12465.1875
2806.63206	12402.4875
2809.17967	12372.3875
2811.72571	12327.6875
2814.27018	12340.8875
2816.81308	12297.1875
2819.35442	12268.0875
2821.89419	12237.0875
2824.43239	12237.0875
2826.96904	12201.6875
2829.50412	12211.3875
2832.03763	12183.3875
2834.56959	12178.3875
2837.1	12179.2875
2839.62884	12191.7875
2842.15613	12190.7875
2844.68186	12188.5875
2847.20604	12141.3875
2849.72867	12148.4875
2852.24974	12166.4875
2854.76927	12146.9875
2857.28724	12122.0875
2859.80367	12109.4875
2862.31855	12093.4875
2864.83189	12063.8875
2867.34368	12047.0875
2869.85393	12032.8875
2872.36264	12044.2875
2874.8698	12039.3875
2877.37543	12012.7875
2879.87952	12031.7875
2882.38207	12030.3875
2884.88308	12013.7875
2887.38256	12001.7875
2889.88051	12025.5875
2892.37692	12018.5875
2894.8718	12022.1875
2897.36515	12038.7875
2899.85698	12042.5875
2902.34727	12040.0875
2904.83604	12061.8875
2907.32328	12068.5875
2909.809	12055.9875
2912.29319	12085.6875
2914.77587	12049.3875
2917.25702	12061.7875
2919.73665	12023.8875
2922.21476	12050.1875
2924.69136	12063.1875
2927.16644	12042.3875
2929.64	12052.0875
2932.11205	12014.4875
2934.58258	11979.4875
2937.05161	11996.2875
2939.51912	11981.9875
2941.98513	11955.7875
2944.44962	11934.4875
2946.91261	11912.3875
2949.37409	11934.2875
2951.83407	11925.5875
2954.29254	11911.6875
2956.74951	11927.5875
2959.20498	11924.8875
2961.65895	11911.2875
2964.11142	11886.7875
2966.56239	11863.4875
2969.01186	11885.8875
2971.45984	11848.0875
2973.90632	11825.3875
2976.35131	11799.6875
2978.7948	11789.7875
2981.23681	11778.0875
2983.67732	11757.0875
2986.11635	11703.9875
2988.55388	11675.2875
2990.98993	11687.3875
2993.4245	11658.3875
2995.85758	11608.6875
2998.28917	11559.6875
3000.71928	11532.1875
3003.14791	11514.9875
3005.57506	11488.9875
3008.00073	11458.0875
3010.42493	11329.2875
3012.84764	11406.6875
3015.26888	11376.2875
3017.68865	11357.9875
3020.10694	11346.1875
3022.52376	11315.6875
3024.9391	11322.4875
3027.35298	11316.0875
3029.76539	11310.4875
3032.17632	11332.7875
3034.5858	11306.2875
3036.9938	11319.5875
3039.40034	11316.4875
3041.80542	11316.2875
3044.20903	11255.3875
3046.61118	11252.5875
3049.01187	11245.5875
3051.4111	11207.2875
3053.80888	11175.0875
3056.20519	11137.6875
3058.60005	11129.1875
3060.99345	11112.4875
3063.3854	11071.6875
3065.7759	11010.1875
3068.16494	11023.4875
3070.55254	10969.5875
3072.93868	10960.6875
3075.32338	10900.1875
3077.70662	10907.3875
3080.08842	10861.2875
3082.46878	10877.4875
3084.84769	10853.7875
3087.22515	10861.9875
3089.60118	10811.5875
3091.97576	10812.7875
3094.3489	10822.5875
3096.72061	10835.7875
3099.09087	10859.1875
3101.4597	10829.8875
3103.82709	10799.1875
3106.19305	10784.9875
3108.55757	10765.5875
3110.92066	10747.3875
3113.28232	10728.1875
3115.64255	10690.5875
3118.00134	10674.3875
3120.35871	10633.7875
3122.71466	10655.9875
3125.06917	10591.9875
3127.42226	10600.1875
3129.77393	10591.9875
3132.12417	10584.2875
3134.47299	10578.0875
3136.82039	10560.7875
3139.16636	10568.8875
3141.51092	10542.7875
3143.85406	10543.3875
3146.19579	10529.5875
3148.53609	10522.1875
3150.87499	10501.7875
3153.21246	10525.6875
3155.54853	10562.0875
3157.88318	10535.6875
3160.21642	10563.2875
3162.54826	10525.8875
3164.87868	10538.7875
3167.2077	10553.7875
3169.5353	10574.8875
3171.86151	10583.8875
3174.18631	10552.1875
3176.5097	10533.2875
3178.83169	10518.4875
3181.15228	10535.8875
3183.47147	10488.4875
3185.78926	10456.5875
3188.10565	10477.2875
3190.42065	10433.8875
3192.73424	10425.6875
3195.04645	10416.1875
3197.35725	10414.4875
3199.66667	10392.2875
3201.97469	10389.1875
3204.28132	10384.8875
3206.58656	10412.7875
3208.8904	10399.5875
3211.19287	10411.3875
3213.49394	10365.2875
3215.79363	10389.7875
3218.09193	10396.5875
3220.38884	10408.4875
3222.68438	10401.5875
3224.97853	10384.6875
3227.2713	10372.5875
3229.56269	10373.6875
3231.8527	10346.3875
3234.14133	10335.7875
3236.42858	10311.6875
3238.71446	10307.5875
3240.99896	10284.6875
3243.28209	10272.4875
3245.56384	10261.0875
3247.84423	10260.5875
3250.12324	10243.6875
3252.40088	10219.2875
3254.67715	10193.2875
3256.95205	10187.7875
3259.22558	10195.7875
3261.49775	10174.1875
3263.76855	10141.6875
3266.03799	10140.5875
3268.30606	10120.5875
3270.57277	10110.9875
3272.83812	10086.3875
3275.10211	10068.0875
3277.36474	10047.5875
3279.62601	10038.1875
3281.88593	10018.7875
3284.14448	10019.5875
3286.40168	10003.0875
3288.65753	10028.2875
3290.91202	10015.3875
3293.16516	9988.4875
3295.41695	9959.4875
3297.66738	9895.7875
3299.91647	9874.2875
3302.16421	9787.2875
3304.4106	9719.9875
3306.65564	9647.2875
3308.89933	9603.7875
3311.14169	9525.1875
3313.38269	9424.6875
3315.62236	9384.2875
3317.86068	9280.5875
3320.09766	9193.9875
3322.3333	9139.0875
3324.5676	9093.4875
3326.80056	8966.2875
3329.03219	8890.0875
3331.26248	3.9875
3333.49143	-0.1125
3335.71905	-0.4125
