Data from AgNP_FTO_APTES_UA_10uM_CRN_2uM_R6G_10uM_NaF_0.1M_Addition_RamanShift__20__14-20-10-603.txt Node

Date: Thu Feb 10 14:20:10 GMT 2022
User: TCL
Spectrometer: QEP01345
Trigger mode: 4
Integration Time (sec): 7.000000E0
Scans to average: 10
Electric dark correction enabled: true
Nonlinearity correction enabled: false
Boxcar width: 0
XAxis mode: Raman Shifts
Number of Pixels in Spectrum: 1044
>>>>>Begin Spectral Data<<<<<
46.04893	-1.0375
50.45542	0.1625
54.85868	-2.4375
59.25871	-0.6375
63.6555	67.5625
68.04907	70.1625
72.43941	75.3625
76.82654	77.1625
81.21044	81.2625
85.59113	79.9625
89.96862	85.2625
94.34289	87.2625
98.71396	91.6625
103.08183	93.9625
107.4465	97.2625
111.80798	98.7625
116.16626	100.6625
120.52136	104.7625
124.87327	112.7625
129.222	117.0625
133.56755	120.3625
137.90993	133.0625
142.24913	144.3625
146.58517	158.3625
150.91804	185.6625
155.24774	225.7625
159.57429	273.7625
163.89768	354.4625
168.21792	469.3625
172.53501	642.4625
176.84895	898.5625
181.15975	1256.2625
185.46741	1756.8625
189.77193	2435.0625
194.07331	3236.8625
198.37157	4180.1625
202.6667	5141.4625
206.9587	6102.3625
211.24758	7061.2625
215.53334	8017.7625
219.81599	9077.3625
224.09553	10201.6625
228.37195	11469.8625
232.64527	12856.9625
236.91549	14316.1625
241.18261	15745.2625
245.44663	17038.6625
249.70755	18167.8625
253.96539	19195.1625
258.22014	20051.3625
262.4718	20762.9625
266.72039	21314.8625
270.96589	21590.2625
275.20832	21675.8625
279.44768	21582.1625
283.68397	21385.8625
287.91719	21220.1625
292.14735	21198.3625
296.37445	21258.9625
300.59849	21366.6625
304.81948	21463.8625
309.03742	21495.8625
313.25231	21224.1625
317.46415	20636.2625
321.67296	19932.1625
325.87872	19307.2625
330.08145	19004.0625
334.28114	18989.3625
338.47781	19143.2625
342.67145	19368.0625
346.86207	19724.4625
351.04966	20212.1625
355.23424	20653.0625
359.4158	21069.5625
363.59435	21289.0625
367.76989	21471.7625
371.94243	21579.0625
376.11196	21689.7625
380.27849	21724.1625
384.44203	21828.4625
388.60257	21960.3625
392.76012	22152.5625
396.91468	22408.1625
401.06626	22728.9625
405.21485	22942.3625
409.36047	22768.8625
413.50311	22310.2625
417.64277	21967.1625
421.77947	21825.5625
425.9132	21898.5625
430.04396	22042.6625
434.17176	22142.3625
438.2966	22291.3625
442.41849	22736.7625
446.53742	23393.5625
450.6534	24101.8625
454.76644	24622.3625
458.87653	24800.7625
462.98368	24721.3625
467.08789	24392.4625
471.18916	24046.9625
475.2875	23714.1625
479.38291	23627.6625
483.4754	23478.0625
487.56496	23092.6625
491.6516	22671.9625
495.73531	22267.6625
499.81612	22068.0625
503.89401	22123.9625
507.96899	22203.5625
512.04106	22173.1625
516.11023	22077.3625
520.1765	21979.6625
524.23987	21810.1625
528.30034	21625.9625
532.35792	21375.0625
536.41261	21070.9625
540.46441	20760.6625
544.51333	20779.3625
548.55936	21050.8625
552.60252	21625.3625
556.64279	22217.7625
560.6802	22586.1625
564.71473	22827.0625
568.7464	23233.1625
572.7752	23830.5625
576.80114	24278.5625
580.82422	24569.3625
584.84444	24927.7625
588.86181	25192.2625
592.87633	25561.4625
596.888	25707.2625
600.89682	25627.7625
604.9028	26398.4625
608.90594	29106.4625
612.90624	31861.3625
616.90371	29707.5625
620.89834	24329.7625
624.89015	22118.9625
628.87913	21946.6625
632.86528	21947.6625
636.84862	21699.2625
640.82913	21247.4625
644.80683	20588.5625
648.78172	20106.5625
652.75379	19998.4625
656.72306	20250.2625
660.68952	20646.9625
664.65319	20522.8625
668.61405	20055.4625
672.57211	19921.9625
676.52738	19903.2625
680.47986	19908.8625
684.42955	19789.6625
688.37646	19727.7625
692.32058	19820.3625
696.26192	20075.7625
700.20048	20374.9625
704.13626	20499.7625
708.06928	20456.7625
711.99952	20242.3625
715.927	20213.6625
719.85171	20235.4625
723.77365	20174.5625
727.69284	19932.7625
731.60928	19712.4625
735.52295	19677.2625
739.43388	19669.8625
743.34206	19703.5625
747.24749	19820.1625
751.15017	20049.3625
755.05012	20421.4625
758.94733	21191.7625
762.8418	22448.7625
766.73354	24471.2625
770.62254	26462.6625
774.50882	26909.3625
778.39237	25480.6625
782.27321	23306.0625
786.15132	21490.6625
790.02671	20478.3625
793.89938	19961.5625
797.76935	19774.3625
801.6366	19734.7625
805.50115	19675.4625
809.36299	19495.0625
813.22213	19331.5625
817.07857	19178.6625
820.93231	19152.8625
824.78336	19052.1625
828.63172	18994.2625
832.47738	18981.5625
836.32036	19024.9625
840.16066	19103.7625
843.99827	19185.1625
847.8332	19154.8625
851.66546	19016.4625
855.49504	18993.9625
859.32195	18963.4625
863.1462	18872.3625
866.96777	18789.6625
870.78668	18728.1625
874.60293	18714.6625
878.41652	18746.2625
882.22745	18793.6625
886.03573	18815.9625
889.84136	18816.0625
893.64433	18738.2625
897.44466	18656.8625
901.24235	18598.4625
905.0374	18511.0625
908.8298	18474.7625
912.61957	18505.2625
916.40671	18726.5625
920.19121	18971.9625
923.97308	19303.7625
927.75233	19446.9625
931.52895	19361.3625
935.30295	19104.9625
939.07433	18628.5625
942.84309	18243.0625
946.60924	18092.7625
950.37278	18024.7625
954.13371	17958.5625
957.89203	17817.8625
961.64774	17771.8625
965.40086	17719.5625
969.15137	17681.8625
972.89929	17571.1625
976.64461	17569.2625
980.38733	17542.7625
984.12747	17615.1625
987.86502	17827.8625
991.59999	18132.1625
995.33237	18573.8625
999.06217	19307.8625
1002.78939	20097.6625
1006.51404	20479.0625
1010.23611	20615.6625
1013.95561	20783.7625
1017.67255	20784.3625
1021.38692	20555.5625
1025.09872	20303.1625
1028.80796	20570.2625
1032.51465	21399.9625
1036.21877	22157.0625
1039.92035	22220.6625
1043.61937	21745.7625
1047.31584	21047.3625
1051.00976	20304.4625
1054.70114	19970.1625
1058.38998	19979.1625
1062.07627	20026.0625
1065.76003	20087.9625
1069.44126	20164.6625
1073.11995	20422.6625
1076.79611	20679.3625
1080.46974	20881.5625
1084.14085	21130.8625
1087.80943	21413.0625
1091.47549	21596.4625
1095.13903	21549.5625
1098.80005	21176.6625
1102.45857	20686.9625
1106.11456	20345.7625
1109.76805	20261.7625
1113.41903	20362.6625
1117.06751	20546.5625
1120.71348	20815.9625
1124.35696	21120.5625
1127.99793	21410.3625
1131.63641	21590.2625
1135.2724	21431.0625
1138.90589	21234.9625
1142.5369	21110.9625
1146.16542	21067.7625
1149.79145	21086.3625
1153.415	21322.7625
1157.03607	21740.5625
1160.65467	22391.0625
1164.27079	23467.2625
1167.88443	24891.2625
1171.49561	26791.6625
1175.10432	29239.6625
1178.71056	32313.7625
1182.31434	35200.5625
1185.91565	36714.5625
1189.51451	36584.8625
1193.11091	35217.3625
1196.70485	33318.0625
1200.29634	31536.6625
1203.88538	30061.8625
1207.47197	29038.4625
1211.05612	28332.7625
1214.63782	27685.6625
1218.21708	27317.1625
1221.79391	27124.8625
1225.36829	27089.0625
1228.94024	26802.0625
1232.50976	26101.3625
1236.07685	25491.0625
1239.6415	25196.7625
1243.20374	25108.8625
1246.76355	25231.7625
1250.32093	25693.6625
1253.8759	26390.5625
1257.42845	27244.7625
1260.97859	28152.6625
1264.52631	29106.5625
1268.07163	30129.5625
1271.61453	31224.0625
1275.15503	32291.7625
1278.69312	33467.2625
1282.22882	34388.7625
1285.76211	35206.6625
1289.29301	36050.4625
1292.82151	37147.2625
1296.34761	38873.0625
1299.87133	41213.8625
1303.39266	44161.7625
1306.9116	47505.1625
1310.42815	50924.6625
1313.94233	53073.7625
1317.45412	53051.3625
1320.96354	51723.1625
1324.47058	50206.2625
1327.97525	48814.6625
1331.47754	47785.8625
1334.97747	47279.9625
1338.47502	47063.2625
1341.97022	47002.2625
1345.46305	46636.0625
1348.95352	45930.1625
1352.44163	45355.1625
1355.92738	45923.6625
1359.41078	47918.1625
1362.89183	49797.2625
1366.37053	48591.0625
1369.84688	44082.3625
1373.32088	39018.4625
1376.79254	35602.2625
1380.26186	34294.9625
1383.72883	34049.8625
1387.19347	33965.8625
1390.65578	33827.5625
1394.11575	33808.7625
1397.57339	34268.6625
1401.0287	35054.0625
1404.48168	35612.1625
1407.93234	35709.1625
1411.38068	35120.7625
1414.82669	33955.4625
1418.27039	32440.3625
1421.71177	30995.6625
1425.15083	29784.8625
1428.58758	29075.9625
1432.02203	29215.6625
1435.45416	29880.8625
1438.88399	30776.4625
1442.31151	31603.3625
1445.73673	32241.5625
1449.15965	32750.8625
1452.58027	33131.7625
1455.9986	33414.1625
1459.41463	33815.4625
1462.82837	34430.7625
1466.23982	35181.1625
1469.64898	35806.9625
1473.05586	36081.5625
1476.46045	35960.0625
1479.86276	35547.8625
1483.26279	35012.5625
1486.66054	34699.7625
1490.05602	34691.6625
1493.44922	34881.2625
1496.84016	35261.0625
1500.22882	36221.0625
1503.61521	37674.5625
1506.99934	39485.5625
1510.38121	41103.4625
1513.76081	41480.4625
1517.13816	40349.9625
1520.51324	38329.1625
1523.88607	36452.5625
1527.25665	35274.2625
1530.62498	34759.4625
1533.99105	34488.7625
1537.35488	34315.0625
1540.71647	33908.8625
1544.07581	33294.0625
1547.4329	32645.2625
1550.78776	32100.6625
1554.14038	31725.1625
1557.49077	31449.1625
1560.83892	31314.5625
1564.18484	31297.4625
1567.52853	31330.1625
1570.86999	31516.8625
1574.20922	31980.9625
1577.54624	32342.3625
1580.88103	32240.3625
1584.2136	32266.3625
1587.54395	33082.2625
1590.87208	34757.7625
1594.19801	37184.7625
1597.52172	39817.2625
1600.84321	40647.4625
1604.16251	38814.7625
1607.47959	35621.5625
1610.79447	32185.2625
1614.10715	29032.2625
1617.41763	26469.5625
1620.7259	24734.7625
1624.03199	23789.8625
1627.33587	23791.9625
1630.63757	24721.0625
1633.93707	26552.9625
1637.23439	29535.3625
1640.52951	33516.3625
1643.82246	37723.0625
1647.11321	40969.7625
1650.40179	41413.5625
1653.68819	38281.8625
1656.97241	32859.7625
1660.25446	27623.3625
1663.53433	23750.0625
1666.81203	21256.6625
1670.08756	19753.5625
1673.36092	18744.5625
1676.63211	18099.8625
1679.90115	17650.6625
1683.16801	17284.9625
1686.43272	17064.5625
1689.69527	16882.2625
1692.95567	16726.7625
1696.2139	16611.8625
1699.46999	16575.6625
1702.72392	16467.3625
1705.97571	16404.3625
1709.22535	16337.8625
1712.47284	16305.2625
1715.71819	16271.9625
1718.96139	16238.8625
1722.20246	16135.3625
1725.44139	16057.8625
1728.67818	15978.5625
1731.91284	15842.3625
1735.14537	15747.4625
1738.37576	15675.9625
1741.60403	15586.2625
1744.83017	15544.7625
1748.05418	15501.5625
1751.27607	15465.3625
1754.49584	15467.6625
1757.71349	15438.9625
1760.92903	15403.1625
1764.14244	15420.2625
1767.35375	15382.5625
1770.56294	15319.3625
1773.77002	15304.3625
1776.97499	15269.5625
1780.17785	15218.6625
1783.37861	15188.7625
1786.57727	15147.6625
1789.77382	15121.9625
1792.96828	15098.4625
1796.16064	15082.3625
1799.3509	15050.1625
1802.53907	15032.8625
1805.72514	14972.3625
1808.90913	14928.7625
1812.09102	14893.3625
1815.27083	14874.0625
1818.44856	14844.8625
1821.6242	14802.9625
1824.79776	14801.3625
1827.96924	14764.5625
1831.13864	14779.3625
1834.30597	14767.4625
1837.47122	14778.8625
1840.6344	14753.7625
1843.7955	14780.4625
1846.95454	14760.4625
1850.11151	14759.1625
1853.26642	14760.9625
1856.41926	14757.1625
1859.57004	14785.0625
1862.71876	14762.0625
1865.86542	14730.1625
1869.01003	14734.3625
1872.15258	14696.6625
1875.29308	14713.2625
1878.43152	14677.3625
1881.56792	14669.6625
1884.70227	14682.0625
1887.83457	14643.6625
1890.96482	14641.9625
1894.09304	14628.6625
1897.21921	14606.2625
1900.34335	14563.1625
1903.46544	14558.7625
1906.58551	14575.0625
1909.70353	14538.6625
1912.81953	14527.1625
1915.93349	14526.9625
1919.04543	14499.9625
1922.15534	14450.1625
1925.26322	14398.0625
1928.36908	14385.7625
1931.47292	14364.1625
1934.57473	14310.1625
1937.67453	14239.7625
1940.77232	14207.4625
1943.86808	14137.7625
1946.96184	14105.3625
1950.05358	14041.9625
1953.14331	13998.0625
1956.23103	13955.0625
1959.31675	13897.7625
1962.40046	13866.0625
1965.48217	13805.3625
1968.56188	13800.6625
1971.63959	13769.0625
1974.7153	13716.4625
1977.78901	13674.9625
1980.86073	13605.2625
1983.93046	13584.6625
1986.99819	13540.5625
1990.06394	13481.5625
1993.1277	13466.5625
1996.18947	13399.6625
1999.24925	13368.4625
2002.30706	13314.8625
2005.36288	13261.6625
2008.41672	13240.7625
2011.46859	13211.9625
2014.51848	13192.8625
2017.56639	13141.1625
2020.61233	13112.1625
2023.6563	13084.5625
2026.6983	13067.4625
2029.73833	13071.7625
2032.7764	13028.2625
2035.8125	13026.2625
2038.84664	12999.4625
2041.87881	12971.2625
2044.90903	12935.5625
2047.93729	12944.5625
2050.96359	12941.9625
2053.98794	12903.5625
2057.01034	12898.3625
2060.03078	12902.2625
2063.04927	12868.5625
2066.06582	12875.9625
2069.08042	12879.1625
2072.09307	12865.0625
2075.10378	12837.9625
2078.11255	12820.0625
2081.11938	12812.6625
2084.12426	12770.1625
2087.12722	12776.9625
2090.12824	12777.6625
2093.12732	12769.1625
2096.12447	12747.6625
2099.11969	12784.4625
2102.11299	12775.9625
2105.10435	12803.5625
2108.09379	12788.0625
2111.08131	12769.1625
2114.0669	12784.0625
2117.05057	12808.2625
2120.03233	12808.0625
2123.01216	12815.9625
2125.99008	12829.4625
2128.96609	12814.4625
2131.94018	12862.3625
2134.91236	12851.0625
2137.88263	12845.3625
2140.851	12875.0625
2143.81746	12861.7625
2146.78201	12892.9625
2149.74466	12869.6625
2152.7054	12883.1625
2155.66425	12869.1625
2158.6212	12850.9625
2161.57625	12857.9625
2164.52941	12843.1625
2167.48067	12837.6625
2170.43004	12822.5625
2173.37752	12849.8625
2176.32311	12797.2625
2179.26681	12827.9625
2182.20863	12811.2625
2185.14856	12830.5625
2188.08661	12839.3625
2191.02278	12860.0625
2193.95707	12838.9625
2196.88948	12863.0625
2199.82001	12851.0625
2202.74867	12810.2625
2205.67545	12802.7625
2208.60037	12828.6625
2211.52341	12802.6625
2214.44458	12829.7625
2217.36388	12811.5625
2220.28132	12768.1625
2223.1969	12772.5625
2226.11061	12765.7625
2229.02246	12712.2625
2231.93245	12685.1625
2234.84058	12676.5625
2237.74686	12631.2625
2240.65128	12622.5625
2243.55385	12570.2625
2246.45456	12565.9625
2249.35343	12544.9625
2252.25044	12524.4625
2255.14561	12495.8625
2258.03893	12517.2625
2260.93041	12466.7625
2263.82004	12420.1625
2266.70783	12420.5625
2269.59378	12361.2625
2272.4779	12323.5625
2275.36017	12306.3625
2278.24061	12284.3625
2281.11922	12269.6625
2283.996	12297.8625
2286.87094	12261.3625
2289.74405	12230.0625
2292.61534	12247.0625
2295.4848	12244.1625
2298.35243	12263.4625
2301.21824	12237.5625
2304.08223	12235.6625
2306.94439	12267.5625
2309.80474	12272.3625
2312.66327	12296.9625
2315.51999	12278.5625
2318.37489	12302.9625
2321.22797	12273.8625
2324.07925	12269.2625
2326.92871	12252.6625
2329.77637	12248.7625
2332.62222	12234.7625
2335.46626	12244.0625
2338.3085	12254.8625
2341.14893	12300.3625
2343.98756	12291.6625
2346.8244	12334.5625
2349.65943	12297.2625
2352.49267	12312.6625
2355.32411	12291.7625
2358.15376	12304.5625
2360.98161	12304.3625
2363.80768	12267.5625
2366.63195	12269.7625
2369.45444	12241.7625
2372.27514	12198.6625
2375.09405	12191.6625
2377.91118	12144.3625
2380.72652	12088.2625
2383.54009	12062.1625
2386.35187	12036.5625
2389.16188	12006.0625
2391.97011	11964.0625
2394.77657	11974.2625
2397.58125	11975.6625
2400.38416	11942.4625
2403.18529	11940.8625
2405.98466	11937.3625
2408.78226	11890.9625
2411.57809	11853.5625
2414.37216	11838.5625
2417.16446	11835.2625
2419.955	11785.9625
2422.74378	11805.1625
2425.5308	11788.1625
2428.31606	11788.0625
2431.09956	11773.3625
2433.88131	11795.2625
2436.6613	11794.3625
2439.43954	11790.7625
2442.21603	11791.7625
2444.99077	11794.3625
2447.76377	11765.8625
2450.53501	11759.5625
2453.30451	11761.1625
2456.07226	11756.7625
2458.83827	11772.2625
2461.60254	11752.0625
2464.36507	11766.8625
2467.12586	11762.4625
2469.88492	11799.5625
2472.64224	11778.4625
2475.39782	11787.1625
2478.15167	11818.3625
2480.90379	11852.6625
2483.65417	11868.9625
2486.40283	11866.9625
2489.14976	11869.3625
2491.89497	11875.5625
2494.63845	11899.3625
2497.3802	11907.8625
2500.12024	11870.7625
2502.85855	11869.6625
2505.59514	11839.7625
2508.33002	11808.7625
2511.06318	11785.3625
2513.79462	11798.0625
2516.52435	11787.5625
2519.25237	11768.1625
2521.97867	11767.8625
2524.70327	11775.2625
2527.42616	11762.7625
2530.14734	11777.2625
2532.86681	11757.7625
2535.58458	11751.8625
2538.30065	11764.0625
2541.01501	11745.3625
2543.72768	11762.0625
2546.43864	11724.7625
2549.14791	11761.1625
2551.85548	11756.6625
2554.56136	11738.8625
2557.26554	11727.5625
2559.96803	11709.2625
2562.66883	11684.2625
2565.36794	11678.1625
2568.06536	11685.4625
2570.7611	11667.3625
2573.45514	11658.0625
2576.14751	11658.5625
2578.83819	11644.0625
2581.52719	11644.0625
2584.21451	11661.5625
2586.90015	11651.1625
2589.58411	11660.8625
2592.2664	11654.7625
2594.94701	11634.5625
2597.62594	11640.5625
2600.30321	11628.5625
2602.9788	11621.1625
2605.65273	11615.8625
2608.32498	11649.1625
2610.99557	11644.5625
2613.66449	11643.5625
2616.33175	11627.4625
2618.99734	11659.3625
2621.66128	11668.6625
2624.32355	11663.6625
2626.98416	11665.8625
2629.64311	11678.5625
2632.30041	11669.0625
2634.95605	11664.6625
2637.61004	11628.3625
2640.26238	11650.9625
2642.91306	11627.5625
2645.56209	11622.2625
2648.20948	11618.0625
2650.85521	11588.9625
2653.4993	11581.2625
2656.14175	11569.5625
2658.78255	11592.9625
2661.42171	11619.4625
2664.05923	11621.8625
2666.6951	11631.4625
2669.32934	11653.8625
2671.96194	11643.3625
2674.59291	11651.9625
2677.22224	11628.3625
2679.84993	11639.9625
2682.476	11615.6625
2685.10043	11626.9625
2687.72324	11580.1625
2690.34441	11587.5625
2692.96396	11582.9625
2695.58188	11579.2625
2698.19818	11534.6625
2700.81285	11562.0625
2703.4259	11562.6625
2706.03733	11580.5625
2708.64714	11573.6625
2711.25533	11577.5625
2713.86191	11596.4625
2716.46687	11578.8625
2719.07021	11604.6625
2721.67194	11639.5625
2724.27206	11629.7625
2726.87057	11666.5625
2729.46747	11668.0625
2732.06276	11642.1625
2734.65644	11653.1625
2737.24852	11648.2625
2739.83899	11631.6625
2742.42786	11655.5625
2745.01513	11613.6625
2747.60079	11586.2625
2750.18486	11583.6625
2752.76733	11583.2625
2755.3482	11585.5625
2757.92747	11582.6625
2760.50515	11559.8625
2763.08123	11555.1625
2765.65573	11556.0625
2768.22863	11580.8625
2770.79994	11561.1625
2773.36967	11539.4625
2775.9378	11574.7625
2778.50435	11590.4625
2781.06932	11605.8625
2783.6327	11621.6625
2786.1945	11613.3625
2788.75471	11589.5625
2791.31335	11549.3625
2793.87041	11563.1625
2796.42589	11534.1625
2798.97979	11524.2625
2801.53212	11513.9625
2804.08288	11484.3625
2806.63206	11481.5625
2809.17967	11484.2625
2811.72571	11427.7625
2814.27018	11435.0625
2816.81308	11411.9625
2819.35442	11392.4625
2821.89419	11379.3625
2824.43239	11352.2625
2826.96904	11345.4625
2829.50412	11358.8625
2832.03763	11320.4625
2834.56959	11356.1625
2837.1	11322.7625
2839.62884	11353.8625
2842.15613	11341.8625
2844.68186	11361.4625
2847.20604	11336.5625
2849.72867	11374.3625
2852.24974	11351.2625
2854.76927	11318.6625
2857.28724	11310.5625
2859.80367	11307.8625
2862.31855	11270.9625
2864.83189	11292.0625
2867.34368	11265.0625
2869.85393	11265.6625
2872.36264	11282.5625
2874.8698	11281.2625
2877.37543	11288.9625
2879.87952	11274.1625
2882.38207	11264.3625
2884.88308	11258.6625
2887.38256	11275.6625
2889.88051	11278.2625
2892.37692	11262.8625
2894.8718	11262.6625
2897.36515	11319.9625
2899.85698	11349.2625
2902.34727	11344.6625
2904.83604	11363.4625
2907.32328	11416.0625
2909.809	11414.7625
2912.29319	11412.2625
2914.77587	11426.0625
2917.25702	11395.8625
2919.73665	11392.3625
2922.21476	11371.6625
2924.69136	11391.3625
2927.16644	11350.6625
2929.64	11326.6625
2932.11205	11321.3625
2934.58258	11277.2625
2937.05161	11304.7625
2939.51912	11293.0625
2941.98513	11283.3625
2944.44962	11259.8625
2946.91261	11229.0625
2949.37409	11244.2625
2951.83407	11233.4625
2954.29254	11207.2625
2956.74951	11192.4625
2959.20498	11198.8625
2961.65895	11212.0625
2964.11142	11216.1625
2966.56239	11172.9625
2969.01186	11159.3625
2971.45984	11156.0625
2973.90632	11118.1625
2976.35131	11098.8625
2978.7948	11069.2625
2981.23681	11031.6625
2983.67732	11017.6625
2986.11635	10982.2625
2988.55388	10965.5625
2990.98993	10935.9625
2993.4245	10931.7625
2995.85758	10890.1625
2998.28917	10858.8625
3000.71928	10853.4625
3003.14791	10860.8625
3005.57506	10846.4625
3008.00073	10797.6625
3010.42493	10657.8625
3012.84764	10758.9625
3015.26888	10738.0625
3017.68865	10697.2625
3020.10694	10707.8625
3022.52376	10658.5625
3024.9391	10679.3625
3027.35298	10669.2625
3029.76539	10665.9625
3032.17632	10672.9625
3034.5858	10627.8625
3036.9938	10663.6625
3039.40034	10637.3625
3041.80542	10664.0625
3044.20903	10614.0625
3046.61118	10606.9625
3049.01187	10592.1625
3051.4111	10600.2625
3053.80888	10571.9625
3056.20519	10515.1625
3058.60005	10516.7625
3060.99345	10523.6625
3063.3854	10498.9625
3065.7759	10473.3625
3068.16494	10432.1625
3070.55254	10374.4625
3072.93868	10376.6625
3075.32338	10343.9625
3077.70662	10337.3625
3080.08842	10323.1625
3082.46878	10312.2625
3084.84769	10285.1625
3087.22515	10295.8625
3089.60118	10281.9625
3091.97576	10274.6625
3094.3489	10265.1625
3096.72061	10283.9625
3099.09087	10284.5625
3101.4597	10251.8625
3103.82709	10243.9625
3106.19305	10254.5625
3108.55757	10254.7625
3110.92066	10218.2625
3113.28232	10206.3625
3115.64255	10167.1625
3118.00134	10155.9625
3120.35871	10135.7625
3122.71466	10123.6625
3125.06917	10106.5625
3127.42226	10093.6625
3129.77393	10111.7625
3132.12417	10076.2625
3134.47299	10082.9625
3136.82039	10056.3625
3139.16636	10081.8625
3141.51092	10089.3625
3143.85406	10079.4625
3146.19579	10058.3625
3148.53609	10060.5625
3150.87499	10060.9625
3153.21246	10083.6625
3155.54853	10122.9625
3157.88318	10109.1625
3160.21642	10111.1625
3162.54826	10110.0625
3164.87868	10099.6625
3167.2077	10121.4625
3169.5353	10113.6625
3171.86151	10147.9625
3174.18631	10105.6625
3176.5097	10112.0625
3178.83169	10093.6625
3181.15228	10109.2625
3183.47147	10069.7625
3185.78926	10064.5625
3188.10565	10037.8625
3190.42065	10060.6625
3192.73424	10032.4625
3195.04645	10053.3625
3197.35725	10041.8625
3199.66667	10054.7625
3201.97469	10067.3625
3204.28132	10073.1625
3206.58656	10084.2625
3208.8904	10053.8625
3211.19287	10098.5625
3213.49394	10069.5625
3215.79363	10075.7625
3218.09193	10105.9625
3220.38884	10081.2625
3222.68438	10077.1625
3224.97853	10102.3625
3227.2713	10095.5625
3229.56269	10064.1625
3231.8527	10072.0625
3234.14133	10063.1625
3236.42858	10050.8625
3238.71446	10032.7625
3240.99896	9994.2625
3243.28209	10018.6625
3245.56384	10007.5625
3247.84423	9987.7625
3250.12324	9984.6625
3252.40088	9954.7625
3254.67715	9960.0625
3256.95205	9943.1625
3259.22558	9924.1625
3261.49775	9937.0625
3263.76855	9910.7625
3266.03799	9898.4625
3268.30606	9902.9625
3270.57277	9843.3625
3272.83812	9879.4625
3275.10211	9838.0625
3277.36474	9833.3625
3279.62601	9832.7625
3281.88593	9809.9625
3284.14448	9813.7625
3286.40168	9821.7625
3288.65753	9835.5625
3290.91202	9835.0625
3293.16516	9814.5625
3295.41695	9798.1625
3297.66738	9748.9625
3299.91647	9695.4625
3302.16421	9636.5625
3304.4106	9585.8625
3306.65564	9529.2625
3308.89933	9468.6625
3311.14169	9409.7625
3313.38269	9310.9625
3315.62236	9268.7625
3317.86068	9198.6625
3320.09766	9123.3625
3322.3333	9072.5625
3324.5676	9030.9625
3326.80056	8880.4625
3329.03219	8810.7625
3331.26248	4.0625
3333.49143	0.2625
3335.71905	-0.1375
