Data from AgNP_FTO_APTES_UA_10uM_CRN_0uM_R6G_10uM_NaF_0.1M_Addition_RamanShift__1__12-09-30-432.txt Node

Date: Thu Feb 10 12:09:30 GMT 2022
User: TCL
Spectrometer: QEP01345
Trigger mode: 4
Integration Time (sec): 7.000000E0
Scans to average: 10
Electric dark correction enabled: true
Nonlinearity correction enabled: false
Boxcar width: 0
XAxis mode: Raman Shifts
Number of Pixels in Spectrum: 1044
>>>>>Begin Spectral Data<<<<<
46.04893	-1.0125
50.45542	-0.2125
54.85868	-1.3125
59.25871	-0.4125
63.6555	53.0875
68.04907	54.5875
72.43941	59.4875
76.82654	58.1875
81.21044	63.9875
85.59113	62.8875
89.96862	69.7875
94.34289	68.9875
98.71396	71.4875
103.08183	73.6875
107.4465	75.5875
111.80798	77.0875
116.16626	79.9875
120.52136	83.3875
124.87327	87.3875
129.222	92.2875
133.56755	98.5875
137.90993	103.9875
142.24913	109.1875
146.58517	127.5875
150.91804	146.9875
155.24774	177.3875
159.57429	223.4875
163.89768	282.0875
168.21792	370.7875
172.53501	513.0875
176.84895	714.4875
181.15975	1010.4875
185.46741	1419.3875
189.77193	1981.1875
194.07331	2647.0875
198.37157	3419.1875
202.6667	4246.6875
206.9587	5054.8875
211.24758	5860.3875
215.53334	6710.2875
219.81599	7597.9875
224.09553	8607.1875
228.37195	9703.3875
232.64527	10917.2875
236.91549	12115.4875
241.18261	13283.8875
245.44663	14242.8875
249.70755	15044.8875
253.96539	15707.4875
258.22014	16293.7875
262.4718	16757.6875
266.72039	17114.5875
270.96589	17237.6875
275.20832	17174.3875
279.44768	16910.9875
283.68397	16610.5875
287.91719	16318.8875
292.14735	16239.1875
296.37445	16382.6875
300.59849	16744.7875
304.81948	17274.9875
309.03742	17657.2875
313.25231	17777.9875
317.46415	17331.9875
321.67296	16492.4875
325.87872	15729.1875
330.08145	15370.3875
334.28114	15287.9875
338.47781	15447.5875
342.67145	15764.4875
346.86207	16190.1875
351.04966	16892.0875
355.23424	17578.7875
359.4158	18097.2875
363.59435	18414.0875
367.76989	18488.9875
371.94243	18427.3875
376.11196	18307.0875
380.27849	18207.5875
384.44203	18129.6875
388.60257	18139.5875
392.76012	18201.8875
396.91468	18413.7875
401.06626	18736.9875
405.21485	18978.5875
409.36047	18703.8875
413.50311	18079.1875
417.64277	17462.1875
421.77947	17217.5875
425.9132	17101.1875
430.04396	17084.3875
434.17176	17018.8875
438.2966	17080.5875
442.41849	17342.3875
446.53742	17736.1875
450.6534	18120.1875
454.76644	18345.4875
458.87653	18348.9875
462.98368	18145.5875
467.08789	17946.4875
471.18916	17613.8875
475.2875	17249.6875
479.38291	16922.8875
483.4754	16756.5875
487.56496	16631.5875
491.6516	16599.0875
495.73531	16629.4875
499.81612	16691.5875
503.89401	16895.7875
507.96899	17025.3875
512.04106	17106.8875
516.11023	17189.0875
520.1765	17193.7875
524.23987	17196.4875
528.30034	17094.7875
532.35792	16973.3875
536.41261	16656.5875
540.46441	16324.8875
544.51333	16153.3875
548.55936	16235.6875
552.60252	16553.2875
556.64279	16950.8875
560.6802	17177.3875
564.71473	17273.9875
568.7464	17621.3875
572.7752	17928.7875
576.80114	17859.0875
580.82422	17927.3875
584.84444	18374.2875
588.86181	19012.5875
592.87633	19456.5875
596.888	19537.3875
600.89682	19232.6875
604.9028	19980.5875
608.90594	23556.2875
612.90624	28572.9875
616.90371	27660.0875
620.89834	20878.3875
624.89015	17436.1875
628.87913	16794.5875
632.86528	16972.3875
636.84862	17151.6875
640.82913	16946.7875
644.80683	16365.4875
648.78172	15943.9875
652.75379	15947.1875
656.72306	16357.8875
660.68952	16915.4875
664.65319	16791.9875
668.61405	16148.9875
672.57211	15885.8875
676.52738	15978.4875
680.47986	15914.4875
684.42955	15797.7875
688.37646	15617.7875
692.32058	15652.6875
696.26192	15868.7875
700.20048	16127.1875
704.13626	16280.0875
708.06928	16234.2875
711.99952	16099.7875
715.927	16098.2875
719.85171	16139.0875
723.77365	16149.3875
727.69284	15938.6875
731.60928	15665.3875
735.52295	15606.9875
739.43388	15670.2875
743.34206	15676.9875
747.24749	15754.6875
751.15017	15833.4875
755.05012	16066.5875
758.94733	16633.4875
762.8418	17929.2875
766.73354	20248.4875
770.62254	22563.5875
774.50882	23458.8875
778.39237	22474.1875
782.27321	20501.4875
786.15132	18401.4875
790.02671	17015.3875
793.89938	16296.2875
797.76935	16035.2875
801.6366	15861.3875
805.50115	15754.4875
809.36299	15600.4875
813.22213	15463.8875
817.07857	15365.2875
820.93231	15266.4875
824.78336	15274.3875
828.63172	15296.4875
832.47738	15328.2875
836.32036	15292.8875
840.16066	15284.1875
843.99827	15307.2875
847.8332	15234.5875
851.66546	15223.9875
855.49504	15279.1875
859.32195	15272.4875
863.1462	15216.7875
866.96777	15197.6875
870.78668	15174.2875
874.60293	15213.0875
878.41652	15247.4875
882.22745	15387.9875
886.03573	15462.5875
889.84136	15493.0875
893.64433	15446.2875
897.44466	15436.6875
901.24235	15411.6875
905.0374	15345.3875
908.8298	15232.1875
912.61957	15199.3875
916.40671	15195.8875
920.19121	15316.7875
923.97308	15512.5875
927.75233	15760.6875
931.52895	15879.3875
935.30295	15768.9875
939.07433	15344.4875
942.84309	14984.9875
946.60924	14774.6875
950.37278	14669.7875
954.13371	14595.9875
957.89203	14535.3875
961.64774	14475.3875
965.40086	14467.5875
969.15137	14402.6875
972.89929	14386.2875
976.64461	14392.5875
980.38733	14414.7875
984.12747	14450.4875
987.86502	14518.6875
991.59999	14585.5875
995.33237	14780.4875
999.06217	15061.1875
1002.78939	15394.1875
1006.51404	15754.1875
1010.23611	16015.1875
1013.95561	16178.4875
1017.67255	16235.9875
1021.38692	16084.7875
1025.09872	15824.7875
1028.80796	15693.8875
1032.51465	15821.4875
1036.21877	16026.3875
1039.92035	16106.3875
1043.61937	16044.5875
1047.31584	15913.8875
1051.00976	15762.8875
1054.70114	15663.7875
1058.38998	15614.7875
1062.07627	15615.8875
1065.76003	15713.3875
1069.44126	15833.3875
1073.11995	16155.6875
1076.79611	16575.7875
1080.46974	16886.3875
1084.14085	17189.0875
1087.80943	17540.8875
1091.47549	17700.9875
1095.13903	17464.7875
1098.80005	17020.5875
1102.45857	16544.6875
1106.11456	16278.9875
1109.76805	16212.4875
1113.41903	16293.2875
1117.06751	16511.1875
1120.71348	16899.9875
1124.35696	17355.7875
1127.99793	17916.6875
1131.63641	18036.2875
1135.2724	17554.3875
1138.90589	17039.1875
1142.5369	16706.1875
1146.16542	16452.3875
1149.79145	16297.8875
1153.415	16230.5875
1157.03607	16306.6875
1160.65467	16641.4875
1164.27079	17337.2875
1167.88443	18321.6875
1171.49561	19601.3875
1175.10432	21597.2875
1178.71056	24129.2875
1182.31434	26374.8875
1185.91565	27290.7875
1189.51451	26883.1875
1193.11091	25609.5875
1196.70485	23969.9875
1200.29634	22431.5875
1203.88538	21245.2875
1207.47197	20159.0875
1211.05612	19269.5875
1214.63782	18643.6875
1218.21708	18319.0875
1221.79391	18176.5875
1225.36829	18219.9875
1228.94024	18221.4875
1232.50976	18066.4875
1236.07685	17914.9875
1239.6415	17782.5875
1243.20374	17733.3875
1246.76355	17764.6875
1250.32093	17909.3875
1253.8759	18235.5875
1257.42845	18830.0875
1260.97859	19559.3875
1264.52631	20338.6875
1268.07163	21126.3875
1271.61453	21876.0875
1275.15503	22447.8875
1278.69312	22807.1875
1282.22882	23103.9875
1285.76211	23549.3875
1289.29301	24145.6875
1292.82151	24916.1875
1296.34761	25759.6875
1299.87133	27051.1875
1303.39266	28927.6875
1306.9116	31590.0875
1310.42815	34558.7875
1313.94233	36356.9875
1317.45412	35758.3875
1320.96354	33688.8875
1324.47058	31553.5875
1327.97525	29799.6875
1331.47754	28540.4875
1334.97747	27741.8875
1338.47502	27324.0875
1341.97022	27236.2875
1345.46305	27737.7875
1348.95352	28849.8875
1352.44163	30553.7875
1355.92738	32708.6875
1359.41078	36027.2875
1362.89183	39436.1875
1366.37053	39284.3875
1369.84688	34377.4875
1373.32088	28674.2875
1376.79254	24882.9875
1380.26186	23125.3875
1383.72883	22304.8875
1387.19347	21554.1875
1390.65578	20823.4875
1394.11575	20281.8875
1397.57339	20144.4875
1401.0287	20166.6875
1404.48168	20236.3875
1407.93234	20264.0875
1411.38068	20168.1875
1414.82669	20086.2875
1418.27039	19874.2875
1421.71177	19684.7875
1425.15083	19373.0875
1428.58758	19208.7875
1432.02203	19441.6875
1435.45416	19824.4875
1438.88399	20137.9875
1442.31151	20145.9875
1445.73673	20130.3875
1449.15965	20173.8875
1452.58027	20111.4875
1455.9986	19961.3875
1459.41463	19992.7875
1462.82837	20310.3875
1466.23982	20753.1875
1469.64898	21129.1875
1473.05586	21483.3875
1476.46045	21609.0875
1479.86276	21755.1875
1483.26279	21932.5875
1486.66054	22306.3875
1490.05602	22942.8875
1493.44922	23876.9875
1496.84016	25216.3875
1500.22882	27247.0875
1503.61521	30016.2875
1506.99934	33243.9875
1510.38121	36161.0875
1513.76081	37140.5875
1517.13816	35200.8875
1520.51324	31293.1875
1523.88607	27517.6875
1527.25665	24896.7875
1530.62498	23397.0875
1533.99105	22477.8875
1537.35488	21746.6875
1540.71647	21229.7875
1544.07581	20747.8875
1547.4329	20409.7875
1550.78776	20193.2875
1554.14038	20152.1875
1557.49077	20238.2875
1560.83892	20525.1875
1564.18484	21040.5875
1567.52853	21666.0875
1570.86999	22223.2875
1574.20922	22593.8875
1577.54624	22615.9875
1580.88103	21877.5875
1584.2136	20840.0875
1587.54395	20396.9875
1590.87208	20860.8875
1594.19801	22049.5875
1597.52172	23479.4875
1600.84321	24073.0875
1604.16251	23304.5875
1607.47959	21770.2875
1610.79447	20191.2875
1614.10715	18662.3875
1617.41763	17349.2875
1620.7259	16465.8875
1624.03199	16101.1875
1627.33587	16137.5875
1630.63757	16581.3875
1633.93707	17535.6875
1637.23439	19129.5875
1640.52951	21584.0875
1643.82246	24855.2875
1647.11321	28261.6875
1650.40179	30107.3875
1653.68819	28899.3875
1656.97241	24830.5875
1660.25446	20548.4875
1663.53433	17492.9875
1666.81203	15735.8875
1670.08756	14743.3875
1673.36092	14174.1875
1676.63211	13795.0875
1679.90115	13531.3875
1683.16801	13355.9875
1686.43272	13216.5875
1689.69527	13118.9875
1692.95567	13046.8875
1696.2139	13008.1875
1699.46999	12932.7875
1702.72392	12922.6875
1705.97571	12894.9875
1709.22535	12916.9875
1712.47284	12881.2875
1715.71819	12879.5875
1718.96139	12864.3875
1722.20246	12836.8875
1725.44139	12780.0875
1728.67818	12676.6875
1731.91284	12567.2875
1735.14537	12478.4875
1738.37576	12437.5875
1741.60403	12377.3875
1744.83017	12372.6875
1748.05418	12299.3875
1751.27607	12272.9875
1754.49584	12243.2875
1757.71349	12216.4875
1760.92903	12201.3875
1764.14244	12189.4875
1767.35375	12211.6875
1770.56294	12176.4875
1773.77002	12114.6875
1776.97499	12097.6875
1780.17785	12056.6875
1783.37861	12050.5875
1786.57727	12012.8875
1789.77382	11980.2875
1792.96828	11968.4875
1796.16064	11960.3875
1799.3509	11956.6875
1802.53907	11939.9875
1805.72514	11893.6875
1808.90913	11804.9875
1812.09102	11818.1875
1815.27083	11784.4875
1818.44856	11772.7875
1821.6242	11759.0875
1824.79776	11731.2875
1827.96924	11746.7875
1831.13864	11718.1875
1834.30597	11712.3875
1837.47122	11736.3875
1840.6344	11748.6875
1843.7955	11749.8875
1846.95454	11741.0875
1850.11151	11732.2875
1853.26642	11712.8875
1856.41926	11711.9875
1859.57004	11723.2875
1862.71876	11731.9875
1865.86542	11724.4875
1869.01003	11680.5875
1872.15258	11666.7875
1875.29308	11658.6875
1878.43152	11650.1875
1881.56792	11614.8875
1884.70227	11612.8875
1887.83457	11592.7875
1890.96482	11548.7875
1894.09304	11530.5875
1897.21921	11500.1875
1900.34335	11494.9875
1903.46544	11469.2875
1906.58551	11440.1875
1909.70353	11416.7875
1912.81953	11405.8875
1915.93349	11364.5875
1919.04543	11353.3875
1922.15534	11303.1875
1925.26322	11265.3875
1928.36908	11255.6875
1931.47292	11236.2875
1934.57473	11193.1875
1937.67453	11151.9875
1940.77232	11146.2875
1943.86808	11062.3875
1946.96184	11039.1875
1950.05358	11022.7875
1953.14331	10998.2875
1956.23103	10940.7875
1959.31675	10895.3875
1962.40046	10904.7875
1965.48217	10860.9875
1968.56188	10827.3875
1971.63959	10791.8875
1974.7153	10768.4875
1977.78901	10736.8875
1980.86073	10702.6875
1983.93046	10657.3875
1986.99819	10621.5875
1990.06394	10635.5875
1993.1277	10584.5875
1996.18947	10538.4875
1999.24925	10527.1875
2002.30706	10467.1875
2005.36288	10430.8875
2008.41672	10409.8875
2011.46859	10375.1875
2014.51848	10366.2875
2017.56639	10327.4875
2020.61233	10298.0875
2023.6563	10288.0875
2026.6983	10254.9875
2029.73833	10228.8875
2032.7764	10178.5875
2035.8125	10162.3875
2038.84664	10148.2875
2041.87881	10134.4875
2044.90903	10127.3875
2047.93729	10083.9875
2050.96359	10093.5875
2053.98794	10088.0875
2057.01034	10069.5875
2060.03078	10046.4875
2063.04927	10040.3875
2066.06582	10031.5875
2069.08042	10025.6875
2072.09307	10047.8875
2075.10378	10020.5875
2078.11255	10009.1875
2081.11938	10010.8875
2084.12426	9984.6875
2087.12722	9967.9875
2090.12824	9986.1875
2093.12732	10013.5875
2096.12447	10007.3875
2099.11969	10034.6875
2102.11299	10014.7875
2105.10435	10010.2875
2108.09379	10027.8875
2111.08131	10011.1875
2114.0669	10036.7875
2117.05057	10037.6875
2120.03233	10053.1875
2123.01216	10054.6875
2125.99008	10074.9875
2128.96609	10062.6875
2131.94018	10080.5875
2134.91236	10062.9875
2137.88263	10082.2875
2140.851	10078.4875
2143.81746	10080.6875
2146.78201	10059.5875
2149.74466	10052.8875
2152.7054	10055.6875
2155.66425	10050.9875
2158.6212	10029.5875
2161.57625	10032.0875
2164.52941	10033.2875
2167.48067	10026.5875
2170.43004	10017.6875
2173.37752	10009.0875
2176.32311	9999.4875
2179.26681	10008.5875
2182.20863	9996.5875
2185.14856	10030.9875
2188.08661	9991.2875
2191.02278	10001.8875
2193.95707	9990.5875
2196.88948	9989.9875
2199.82001	9982.8875
2202.74867	9959.5875
2205.67545	9949.7875
2208.60037	9948.5875
2211.52341	9948.7875
2214.44458	9930.4875
2217.36388	9924.4875
2220.28132	9891.6875
2223.1969	9852.8875
2226.11061	9846.6875
2229.02246	9810.8875
2231.93245	9800.6875
2234.84058	9769.0875
2237.74686	9778.2875
2240.65128	9781.7875
2243.55385	9745.6875
2246.45456	9717.5875
2249.35343	9704.9875
2252.25044	9734.7875
2255.14561	9721.3875
2258.03893	9702.3875
2260.93041	9682.0875
2263.82004	9654.0875
2266.70783	9670.4875
2269.59378	9624.8875
2272.4779	9598.0875
2275.36017	9578.6875
2278.24061	9579.2875
2281.11922	9560.1875
2283.996	9547.7875
2286.87094	9524.2875
2289.74405	9525.4875
2292.61534	9502.4875
2295.4848	9483.9875
2298.35243	9505.9875
2301.21824	9457.7875
2304.08223	9479.2875
2306.94439	9462.1875
2309.80474	9460.9875
2312.66327	9464.4875
2315.51999	9455.3875
2318.37489	9434.1875
2321.22797	9428.4875
2324.07925	9422.2875
2326.92871	9396.6875
2329.77637	9382.8875
2332.62222	9380.3875
2335.46626	9381.3875
2338.3085	9380.3875
2341.14893	9365.9875
2343.98756	9378.3875
2346.8244	9345.3875
2349.65943	9381.7875
2352.49267	9354.4875
2355.32411	9364.2875
2358.15376	9369.6875
2360.98161	9389.2875
2363.80768	9386.5875
2366.63195	9371.0875
2369.45444	9382.6875
2372.27514	9352.9875
2375.09405	9346.0875
2377.91118	9312.6875
2380.72652	9280.8875
2383.54009	9275.0875
2386.35187	9261.8875
2389.16188	9211.8875
2391.97011	9170.2875
2394.77657	9143.3875
2397.58125	9123.0875
2400.38416	9120.4875
2403.18529	9106.0875
2405.98466	9079.7875
2408.78226	9048.1875
2411.57809	9085.8875
2414.37216	9019.6875
2417.16446	9045.6875
2419.955	9002.4875
2422.74378	9027.4875
2425.5308	8990.9875
2428.31606	9033.8875
2431.09956	9033.4875
2433.88131	9037.0875
2436.6613	9017.3875
2439.43954	9029.5875
2442.21603	8999.6875
2444.99077	9016.9875
2447.76377	9027.0875
2450.53501	8997.7875
2453.30451	9015.0875
2456.07226	9014.3875
2458.83827	9008.6875
2461.60254	9011.8875
2464.36507	8979.3875
2467.12586	8977.0875
2469.88492	8970.9875
2472.64224	8990.7875
2475.39782	8966.0875
2478.15167	8989.3875
2480.90379	8994.1875
2483.65417	9012.6875
2486.40283	9020.8875
2489.14976	9013.6875
2491.89497	9015.1875
2494.63845	9003.9875
2497.3802	9000.3875
2500.12024	8987.0875
2502.85855	8987.1875
2505.59514	8967.5875
2508.33002	8934.6875
2511.06318	8915.3875
2513.79462	8904.3875
2516.52435	8864.4875
2519.25237	8871.0875
2521.97867	8845.2875
2524.70327	8845.7875
2527.42616	8803.1875
2530.14734	8823.3875
2532.86681	8815.5875
2535.58458	8811.5875
2538.30065	8803.5875
2541.01501	8814.1875
2543.72768	8805.2875
2546.43864	8787.8875
2549.14791	8782.0875
2551.85548	8790.4875
2554.56136	8761.8875
2557.26554	8749.4875
2559.96803	8735.4875
2562.66883	8721.5875
2565.36794	8732.5875
2568.06536	8721.4875
2570.7611	8693.3875
2573.45514	8669.4875
2576.14751	8644.1875
2578.83819	8642.0875
2581.52719	8647.5875
2584.21451	8623.5875
2586.90015	8638.5875
2589.58411	8584.0875
2592.2664	8607.6875
2594.94701	8576.9875
2597.62594	8577.3875
2600.30321	8549.6875
2602.9788	8566.7875
2605.65273	8534.9875
2608.32498	8548.8875
2610.99557	8544.1875
2613.66449	8538.7875
2616.33175	8505.5875
2618.99734	8519.7875
2621.66128	8514.9875
2624.32355	8493.9875
2626.98416	8472.8875
2629.64311	8455.0875
2632.30041	8440.9875
2634.95605	8450.1875
2637.61004	8436.2875
2640.26238	8422.0875
2642.91306	8407.3875
2645.56209	8404.8875
2648.20948	8398.5875
2650.85521	8389.7875
2653.4993	8410.0875
2656.14175	8405.8875
2658.78255	8414.9875
2661.42171	8417.5875
2664.05923	8435.9875
2666.6951	8430.9875
2669.32934	8448.0875
2671.96194	8432.9875
2674.59291	8429.2875
2677.22224	8426.5875
2679.84993	8420.2875
2682.476	8444.7875
2685.10043	8430.3875
2687.72324	8391.9875
2690.34441	8421.5875
2692.96396	8378.2875
2695.58188	8378.4875
2698.19818	8381.6875
2700.81285	8396.4875
2703.4259	8403.4875
2706.03733	8367.2875
2708.64714	8362.4875
2711.25533	8368.6875
2713.86191	8375.3875
2716.46687	8440.4875
2719.07021	8412.1875
2721.67194	8442.2875
2724.27206	8437.2875
2726.87057	8428.7875
2729.46747	8442.0875
2732.06276	8451.7875
2734.65644	8430.5875
2737.24852	8452.1875
2739.83899	8405.2875
2742.42786	8417.0875
2745.01513	8384.6875
2747.60079	8367.6875
2750.18486	8363.2875
2752.76733	8353.9875
2755.3482	8360.1875
2757.92747	8343.2875
2760.50515	8307.7875
2763.08123	8321.5875
2765.65573	8310.3875
2768.22863	8300.7875
2770.79994	8281.1875
2773.36967	8301.8875
2775.9378	8272.0875
2778.50435	8276.2875
2781.06932	8262.1875
2783.6327	8274.9875
2786.1945	8268.1875
2788.75471	8255.1875
2791.31335	8250.0875
2793.87041	8238.2875
2796.42589	8208.1875
2798.97979	8232.9875
2801.53212	8207.9875
2804.08288	8215.1875
2806.63206	8170.9875
2809.17967	8177.7875
2811.72571	8165.3875
2814.27018	8150.2875
2816.81308	8128.8875
2819.35442	8136.0875
2821.89419	8119.6875
2824.43239	8131.9875
2826.96904	8113.1875
2829.50412	8133.9875
2832.03763	8134.1875
2834.56959	8131.4875
2837.1	8079.4875
2839.62884	8118.8875
2842.15613	8125.4875
2844.68186	8143.9875
2847.20604	8145.8875
2849.72867	8162.1875
2852.24974	8148.3875
2854.76927	8155.1875
2857.28724	8136.2875
2859.80367	8142.7875
2862.31855	8109.3875
2864.83189	8124.5875
2867.34368	8128.2875
2869.85393	8161.0875
2872.36264	8123.5875
2874.8698	8147.0875
2877.37543	8145.2875
2879.87952	8150.9875
2882.38207	8145.3875
2884.88308	8137.1875
2887.38256	8148.0875
2889.88051	8153.2875
2892.37692	8155.8875
2894.8718	8151.6875
2897.36515	8154.9875
2899.85698	8132.6875
2902.34727	8158.9875
2904.83604	8161.0875
2907.32328	8176.1875
2909.809	8185.3875
2912.29319	8160.7875
2914.77587	8186.9875
2917.25702	8161.6875
2919.73665	8162.1875
2922.21476	8172.7875
2924.69136	8159.8875
2927.16644	8167.3875
2929.64	8137.5875
2932.11205	8107.8875
2934.58258	8074.3875
2937.05161	8096.8875
2939.51912	8095.6875
2941.98513	8084.5875
2944.44962	8034.5875
2946.91261	8014.6875
2949.37409	8020.5875
2951.83407	8008.0875
2954.29254	8010.6875
2956.74951	7977.5875
2959.20498	7999.7875
2961.65895	7980.9875
2964.11142	7979.0875
2966.56239	7974.5875
2969.01186	7954.4875
2971.45984	7904.0875
2973.90632	7927.2875
2976.35131	7918.4875
2978.7948	7893.0875
2981.23681	7865.2875
2983.67732	7834.4875
2986.11635	7814.4875
2988.55388	7800.2875
2990.98993	7790.4875
2993.4245	7783.5875
2995.85758	7753.4875
2998.28917	7748.2875
3000.71928	7748.5875
3003.14791	7729.1875
3005.57506	7739.3875
3008.00073	7710.4875
3010.42493	7693.9875
3012.84764	7671.6875
3015.26888	7657.1875
3017.68865	7655.6875
3020.10694	7642.9875
3022.52376	7634.1875
3024.9391	7630.3875
3027.35298	7623.3875
3029.76539	7615.1875
3032.17632	7617.3875
3034.5858	7625.5875
3036.9938	7612.8875
3039.40034	7582.4875
3041.80542	7584.9875
3044.20903	7559.2875
3046.61118	7565.5875
3049.01187	7537.5875
3051.4111	7523.2875
3053.80888	7512.1875
3056.20519	7510.6875
3058.60005	7497.9875
3060.99345	7478.0875
3063.3854	7479.5875
3065.7759	7453.6875
3068.16494	7456.3875
3070.55254	7414.4875
3072.93868	7427.3875
3075.32338	7420.7875
3077.70662	7390.1875
3080.08842	7389.4875
3082.46878	7373.7875
3084.84769	7361.0875
3087.22515	7356.8875
3089.60118	7361.3875
3091.97576	7356.1875
3094.3489	7331.8875
3096.72061	7361.7875
3099.09087	7346.1875
3101.4597	7352.0875
3103.82709	7335.6875
3106.19305	7344.0875
3108.55757	7360.1875
3110.92066	7318.6875
3113.28232	7329.3875
3115.64255	7301.5875
3118.00134	7290.4875
3120.35871	7298.8875
3122.71466	7288.7875
3125.06917	7264.1875
3127.42226	7248.7875
3129.77393	7260.5875
3132.12417	7250.0875
3134.47299	7256.6875
3136.82039	7257.3875
3139.16636	7250.7875
3141.51092	7269.8875
3143.85406	7277.9875
3146.19579	7273.6875
3148.53609	7249.5875
3150.87499	7274.0875
3153.21246	7279.1875
3155.54853	7276.0875
3157.88318	7290.7875
3160.21642	7299.1875
3162.54826	7300.1875
3164.87868	7308.4875
3167.2077	7298.8875
3169.5353	7327.2875
3171.86151	7280.4875
3174.18631	7307.0875
3176.5097	7285.4875
3178.83169	7280.0875
3181.15228	7272.9875
3183.47147	7258.6875
3185.78926	7267.5875
3188.10565	7282.8875
3190.42065	7281.5875
3192.73424	7265.3875
3195.04645	7264.6875
3197.35725	7267.8875
3199.66667	7250.2875
3201.97469	7270.3875
3204.28132	7266.3875
3206.58656	7280.6875
3208.8904	7279.6875
3211.19287	7284.0875
3213.49394	7290.9875
3215.79363	7292.3875
3218.09193	7312.9875
3220.38884	7292.3875
3222.68438	7293.0875
3224.97853	7295.0875
3227.2713	7303.1875
3229.56269	7288.2875
3231.8527	7303.7875
3234.14133	7285.1875
3236.42858	7253.8875
3238.71446	7238.0875
3240.99896	7231.7875
3243.28209	7217.5875
3245.56384	7222.1875
3247.84423	7230.6875
3250.12324	7225.5875
3252.40088	7213.8875
3254.67715	7194.8875
3256.95205	7184.7875
3259.22558	7194.8875
3261.49775	7184.4875
3263.76855	7195.2875
3266.03799	7188.8875
3268.30606	7172.9875
3270.57277	7166.0875
3272.83812	7137.1875
3275.10211	7117.1875
3277.36474	7111.1875
3279.62601	7107.7875
3281.88593	7084.1875
3284.14448	7112.7875
3286.40168	7118.1875
3288.65753	7108.6875
3290.91202	7118.1875
3293.16516	7114.8875
3295.41695	7080.0875
3297.66738	7070.7875
3299.91647	7031.7875
3302.16421	6988.3875
3304.4106	6932.7875
3306.65564	6916.9875
3308.89933	6878.4875
3311.14169	6833.0875
3313.38269	6762.4875
3315.62236	6692.9875
3317.86068	6654.5875
3320.09766	6598.5875
3322.3333	6568.9875
3324.5676	6522.5875
3326.80056	6401.4875
3329.03219	6391.1875
3331.26248	3.7875
3333.49143	0.1875
3335.71905	-0.5125
