Data from AgNP_FTO_APTES_UA_10uM_CRN_1000uM_R6G_10uM_NaF_0.1M_Addition_RamanShift__27__19-52-41-012.txt Node

Date: Thu Feb 10 19:52:41 GMT 2022
User: TCL
Spectrometer: QEP01345
Trigger mode: 4
Integration Time (sec): 7.000000E0
Scans to average: 10
Electric dark correction enabled: true
Nonlinearity correction enabled: false
Boxcar width: 0
XAxis mode: Raman Shifts
Number of Pixels in Spectrum: 1044
>>>>>Begin Spectral Data<<<<<
46.04893	0.1
50.45542	-1.5
54.85868	-1.2
59.25871	-1.5
63.6555	71
68.04907	75.5
72.43941	77.7
76.82654	76.2
81.21044	80.3
85.59113	80.3
89.96862	84.2
94.34289	91.3
98.71396	90.2
103.08183	94.4
107.4465	98.8
111.80798	97.4
116.16626	106.3
120.52136	105.4
124.87327	113.7
129.222	119.5
133.56755	129.3
137.90993	135.7
142.24913	146
146.58517	170.7
150.91804	201.2
155.24774	241.8
159.57429	296.9
163.89768	381.6
168.21792	509.1
172.53501	700.8
176.84895	977.8
181.15975	1385.2
185.46741	1950.7
189.77193	2689.4
194.07331	3625.8
198.37157	4674.6
202.6667	5793.7
206.9587	6901
211.24758	8005.8
215.53334	9110.8
219.81599	10302.4
224.09553	11675.9
228.37195	13127.3
232.64527	14735.5
236.91549	16401
241.18261	18029.6
245.44663	19491.7
249.70755	20745.6
253.96539	21864.6
258.22014	22820.7
262.4718	23630.9
266.72039	24255
270.96589	24557.7
275.20832	24663.9
279.44768	24456.2
283.68397	24123
287.91719	23871.9
292.14735	23789
296.37445	23958.7
300.59849	24387.2
304.81948	24850.5
309.03742	25122.2
313.25231	24954.2
317.46415	24141.6
321.67296	22922.4
325.87872	21956.7
330.08145	21469.6
334.28114	21447.6
338.47781	21724.8
342.67145	22129
346.86207	22732.7
351.04966	23611.3
355.23424	24623.4
359.4158	25370.1
363.59435	25818.6
367.76989	26088.1
371.94243	26209.7
376.11196	26245.4
380.27849	26293.3
384.44203	26259.8
388.60257	26147.8
392.76012	26046.1
396.91468	26267.1
401.06626	26698.8
405.21485	27053.5
409.36047	26800.1
413.50311	25995.1
417.64277	25190.8
421.77947	24832.7
425.9132	24759.1
430.04396	24906.8
434.17176	25112.7
438.2966	25476.9
442.41849	26061
446.53742	26858.9
450.6534	27623.6
454.76644	28207.4
458.87653	28246.5
462.98368	28007.3
467.08789	27570.8
471.18916	27183
475.2875	26831.5
479.38291	26622
483.4754	26361
487.56496	25962
491.6516	25533.3
495.73531	25163.8
499.81612	24943.6
503.89401	25025.5
507.96899	25136.6
512.04106	25322.4
516.11023	25499.9
520.1765	25570.4
524.23987	25514.1
528.30034	25276.9
532.35792	25008.1
536.41261	24712.3
540.46441	24420
544.51333	24308
548.55936	24464.5
552.60252	24895.4
556.64279	25472.6
560.6802	25871.1
564.71473	26280.5
568.7464	27071.4
572.7752	27715.3
576.80114	27357.6
580.82422	26579
584.84444	26200.3
588.86181	26266.9
592.87633	26697.8
596.888	26998.8
600.89682	27126.5
604.9028	28475.8
608.90594	33087.2
612.90624	39417
616.90371	38254.1
620.89834	29603.5
624.89015	25478.1
628.87913	24642.6
632.86528	24687
636.84862	24882.7
640.82913	24603.5
644.80683	23925.7
648.78172	23418.7
652.75379	23392.6
656.72306	23941.1
660.68952	24651.7
664.65319	24563.2
668.61405	23827.6
672.57211	23442
676.52738	23536.3
680.47986	23564.1
684.42955	23445.2
688.37646	23334
692.32058	23431.5
696.26192	23572.2
700.20048	23851.4
704.13626	23978.5
708.06928	23912.4
711.99952	23733.4
715.927	23631.9
719.85171	23701.1
723.77365	23713.9
727.69284	23524.5
731.60928	23384.7
735.52295	23331.5
739.43388	23399.5
743.34206	23441.7
747.24749	23478.5
751.15017	23621.6
755.05012	23948.4
758.94733	24693.9
762.8418	26221.4
766.73354	28928.7
770.62254	31886.4
774.50882	33345.9
778.39237	32135.5
782.27321	28974.1
786.15132	26030.8
790.02671	24359.8
793.89938	23554.7
797.76935	23242.9
801.6366	23076.2
805.50115	23010.7
809.36299	22905.1
813.22213	22883.2
817.07857	22864.5
820.93231	22890.8
824.78336	22853
828.63172	22904
832.47738	22900.9
836.32036	22855.4
840.16066	22817.1
843.99827	22775
847.8332	22703.9
851.66546	22663.2
855.49504	22639.8
859.32195	22624.6
863.1462	22600
866.96777	22522.1
870.78668	22484.3
874.60293	22488.8
878.41652	22516.4
882.22745	22589.1
886.03573	22657
889.84136	22608.1
893.64433	22515.4
897.44466	22464.1
901.24235	22395.4
905.0374	22335.4
908.8298	22264.3
912.61957	22219.9
916.40671	22328.7
920.19121	22435.6
923.97308	22556.8
927.75233	22677.3
931.52895	22794.2
935.30295	22649.6
939.07433	22249.7
942.84309	21876.9
946.60924	21600.8
950.37278	21446.3
954.13371	21360.5
957.89203	21315.3
961.64774	21269.3
965.40086	21197.8
969.15137	21131.2
972.89929	21014.8
976.64461	20970.9
980.38733	20960.3
984.12747	20991.7
987.86502	21121.1
991.59999	21273.3
995.33237	21533.8
999.06217	22005.5
1002.78939	22535.1
1006.51404	22964.3
1010.23611	23207.3
1013.95561	23379.2
1017.67255	23337.4
1021.38692	23071.2
1025.09872	22792.8
1028.80796	22704.3
1032.51465	22883.7
1036.21877	23125.6
1039.92035	23189.1
1043.61937	23121.8
1047.31584	22823
1051.00976	22602.3
1054.70114	22441.5
1058.38998	22427.8
1062.07627	22480.6
1065.76003	22551.7
1069.44126	22551.8
1073.11995	22666.8
1076.79611	22840.2
1080.46974	23055.5
1084.14085	23389
1087.80943	23832.3
1091.47549	24019.7
1095.13903	23834.7
1098.80005	23417.3
1102.45857	22945.1
1106.11456	22831.5
1109.76805	22926.8
1113.41903	23249.6
1117.06751	23680.9
1120.71348	24251.7
1124.35696	24810.1
1127.99793	25299.3
1131.63641	25339.9
1135.2724	24680.8
1138.90589	23983.4
1142.5369	23582.2
1146.16542	23425.8
1149.79145	23326.3
1153.415	23386.1
1157.03607	23563
1160.65467	23961.9
1164.27079	24669.3
1167.88443	25720.5
1171.49561	27343.3
1175.10432	29694.1
1178.71056	32941.6
1182.31434	35573.2
1185.91565	36539.7
1189.51451	36032.9
1193.11091	34573.8
1196.70485	32794.5
1200.29634	31278.6
1203.88538	30194.6
1207.47197	29018.9
1211.05612	27976.8
1214.63782	27340.1
1218.21708	27190.2
1221.79391	27105.4
1225.36829	26968.9
1228.94024	26596.6
1232.50976	26177.3
1236.07685	25960.7
1239.6415	25983.5
1243.20374	26143.5
1246.76355	26304.7
1250.32093	26659.1
1253.8759	27168.4
1257.42845	27830
1260.97859	28435.9
1264.52631	29110.8
1268.07163	29741.6
1271.61453	30363.3
1275.15503	30855.4
1278.69312	31256.1
1282.22882	31504.8
1285.76211	31978.9
1289.29301	32794.9
1292.82151	33842.8
1296.34761	35095.1
1299.87133	36877.9
1303.39266	39281.8
1306.9116	42557.5
1310.42815	46368
1313.94233	48863.5
1317.45412	48640.9
1320.96354	46756.6
1324.47058	44490.7
1327.97525	42361.9
1331.47754	40997.1
1334.97747	40577
1338.47502	40901.3
1341.97022	41533.8
1345.46305	41950.4
1348.95352	42304.1
1352.44163	43082.2
1355.92738	45078.7
1359.41078	48733.9
1362.89183	52610.2
1366.37053	51615.1
1369.84688	45378.9
1373.32088	38927.8
1376.79254	34969.7
1380.26186	33201.6
1383.72883	32605.6
1387.19347	32338.2
1390.65578	32025
1394.11575	31852.1
1397.57339	32174.8
1401.0287	32833.6
1404.48168	33641.7
1407.93234	34223.2
1411.38068	34402
1414.82669	33891.1
1418.27039	32850.1
1421.71177	31507.8
1425.15083	30313.1
1428.58758	29599.5
1432.02203	29544.5
1435.45416	29842.7
1438.88399	30176.1
1442.31151	30523.8
1445.73673	30920.9
1449.15965	31346.2
1452.58027	31685
1455.9986	31794.9
1459.41463	31916.7
1462.82837	32309.3
1466.23982	32879.2
1469.64898	33504
1473.05586	33768.1
1476.46045	33789.3
1479.86276	33731.5
1483.26279	33784.6
1486.66054	33888.3
1490.05602	34269.3
1493.44922	34742.8
1496.84016	35298.6
1500.22882	36495.8
1503.61521	38578.5
1506.99934	41525
1510.38121	44558.4
1513.76081	46097.5
1517.13816	44792.6
1520.51324	41065.5
1523.88607	37244.4
1527.25665	34644.9
1530.62498	33281.6
1533.99105	32678
1537.35488	32393.5
1540.71647	32236.3
1544.07581	32097.1
1547.4329	31859.5
1550.78776	31604.8
1554.14038	31452.9
1557.49077	31431
1560.83892	31596.5
1564.18484	31955.4
1567.52853	32292.2
1570.86999	32541.6
1574.20922	32841
1577.54624	32821
1580.88103	32226.7
1584.2136	31409.9
1587.54395	31391.8
1590.87208	32422
1594.19801	34254.6
1597.52172	36516.7
1600.84321	37716.2
1604.16251	36740.7
1607.47959	34353.3
1610.79447	31534.6
1614.10715	28753.3
1617.41763	26643
1620.7259	25265.6
1624.03199	24501.7
1627.33587	24426.2
1630.63757	24851.3
1633.93707	26026.1
1637.23439	27891
1640.52951	30541
1643.82246	33876.2
1647.11321	37213.9
1650.40179	39078.5
1653.68819	37641.5
1656.97241	33251.5
1660.25446	28407.5
1663.53433	24908
1666.81203	22715.1
1670.08756	21448
1673.36092	20641.1
1676.63211	20102.9
1679.90115	19736
1683.16801	19479.6
1686.43272	19289.7
1689.69527	19159
1692.95567	19041.9
1696.2139	18982.7
1699.46999	18946.4
1702.72392	18863.6
1705.97571	18819.3
1709.22535	18797.9
1712.47284	18750.1
1715.71819	18738.8
1718.96139	18714.4
1722.20246	18668.3
1725.44139	18594.3
1728.67818	18483.8
1731.91284	18386.1
1735.14537	18270.4
1738.37576	18218
1741.60403	18144.9
1744.83017	18080.2
1748.05418	18046.8
1751.27607	18008.7
1754.49584	17959
1757.71349	17970.9
1760.92903	17937.4
1764.14244	17901.9
1767.35375	17910.2
1770.56294	17866.2
1773.77002	17858
1776.97499	17812.9
1780.17785	17748
1783.37861	17722.2
1786.57727	17689.8
1789.77382	17609.4
1792.96828	17626.8
1796.16064	17610.2
1799.3509	17572.1
1802.53907	17517.7
1805.72514	17480.4
1808.90913	17454.3
1812.09102	17374.4
1815.27083	17367.1
1818.44856	17280.7
1821.6242	17283.8
1824.79776	17248.9
1827.96924	17232.9
1831.13864	17193.2
1834.30597	17172.9
1837.47122	17167.7
1840.6344	17122.6
1843.7955	17146.6
1846.95454	17114.2
1850.11151	17067.3
1853.26642	17082.7
1856.41926	17074.4
1859.57004	17082.9
1862.71876	17061.6
1865.86542	17053.4
1869.01003	17049.2
1872.15258	17018
1875.29308	17023.7
1878.43152	17035.7
1881.56792	17021
1884.70227	17029.2
1887.83457	16997.9
1890.96482	16942.5
1894.09304	16894.1
1897.21921	16909.6
1900.34335	16913.6
1903.46544	16930.4
1906.58551	16906.3
1909.70353	16901.6
1912.81953	16883.1
1915.93349	16878
1919.04543	16821.4
1922.15534	16821.1
1925.26322	16749.8
1928.36908	16688.4
1931.47292	16698.9
1934.57473	16662.2
1937.67453	16604.6
1940.77232	16554.2
1943.86808	16503.2
1946.96184	16419.1
1950.05358	16405.6
1953.14331	16330.7
1956.23103	16281.4
1959.31675	16229.3
1962.40046	16173.4
1965.48217	16156.8
1968.56188	16121.6
1971.63959	16011.4
1974.7153	15985.1
1977.78901	15953.3
1980.86073	15909.5
1983.93046	15872.1
1986.99819	15781.8
1990.06394	15764.2
1993.1277	15689.2
1996.18947	15629.4
1999.24925	15600.9
2002.30706	15550.6
2005.36288	15494
2008.41672	15449.9
2011.46859	15426.8
2014.51848	15395.7
2017.56639	15331.2
2020.61233	15309.1
2023.6563	15249.8
2026.6983	15256.6
2029.73833	15210.3
2032.7764	15165.8
2035.8125	15079.3
2038.84664	15117.7
2041.87881	15013.4
2044.90903	14993.8
2047.93729	14992.3
2050.96359	14957.7
2053.98794	14919.8
2057.01034	14918.6
2060.03078	14906.1
2063.04927	14914
2066.06582	14871.4
2069.08042	14881.8
2072.09307	14878.3
2075.10378	14857.3
2078.11255	14840.4
2081.11938	14835.4
2084.12426	14815.4
2087.12722	14810.5
2090.12824	14790.8
2093.12732	14786.4
2096.12447	14768.6
2099.11969	14756.7
2102.11299	14756.8
2105.10435	14752.5
2108.09379	14749.3
2111.08131	14746.2
2114.0669	14740.8
2117.05057	14756.4
2120.03233	14762.5
2123.01216	14792.3
2125.99008	14804.7
2128.96609	14798.7
2131.94018	14814.3
2134.91236	14812.8
2137.88263	14801.6
2140.851	14851.6
2143.81746	14831.5
2146.78201	14830.7
2149.74466	14805.6
2152.7054	14833.4
2155.66425	14818.3
2158.6212	14822.8
2161.57625	14767.6
2164.52941	14756.8
2167.48067	14755.7
2170.43004	14748.5
2173.37752	14728.7
2176.32311	14756.4
2179.26681	14737.7
2182.20863	14730.6
2185.14856	14735
2188.08661	14706.3
2191.02278	14731.7
2193.95707	14745.7
2196.88948	14697.5
2199.82001	14707.6
2202.74867	14673.9
2205.67545	14670.5
2208.60037	14647.2
2211.52341	14675.6
2214.44458	14631.9
2217.36388	14567.4
2220.28132	14555.5
2223.1969	14513.9
2226.11061	14469.3
2229.02246	14432.9
2231.93245	14378.8
2234.84058	14400.1
2237.74686	14353.8
2240.65128	14359.7
2243.55385	14277.4
2246.45456	14284.5
2249.35343	14260.5
2252.25044	14293.4
2255.14561	14267.8
2258.03893	14225.8
2260.93041	14188.4
2263.82004	14155.8
2266.70783	14137.1
2269.59378	14081.8
2272.4779	14053.1
2275.36017	13999.2
2278.24061	13994.1
2281.11922	13939.5
2283.996	13937.8
2286.87094	13932.3
2289.74405	13918
2292.61534	13889.3
2295.4848	13880.6
2298.35243	13862.4
2301.21824	13840.8
2304.08223	13853.1
2306.94439	13851.5
2309.80474	13841.7
2312.66327	13829.2
2315.51999	13825.5
2318.37489	13809.7
2321.22797	13790.2
2324.07925	13779.4
2326.92871	13750
2329.77637	13714.7
2332.62222	13701.4
2335.46626	13675.6
2338.3085	13686.4
2341.14893	13674.9
2343.98756	13695.7
2346.8244	13691.8
2349.65943	13680.4
2352.49267	13662.2
2355.32411	13662.1
2358.15376	13639.4
2360.98161	13651.9
2363.80768	13680.9
2366.63195	13661
2369.45444	13627.7
2372.27514	13606.6
2375.09405	13581.1
2377.91118	13566.3
2380.72652	13530.7
2383.54009	13431.9
2386.35187	13439.3
2389.16188	13373.3
2391.97011	13367.1
2394.77657	13312.2
2397.58125	13285.3
2400.38416	13297
2403.18529	13278.8
2405.98466	13259
2408.78226	13199.7
2411.57809	13169.1
2414.37216	13138.6
2417.16446	13143.6
2419.955	13102.2
2422.74378	13116.9
2425.5308	13056.8
2428.31606	13098.5
2431.09956	13093.9
2433.88131	13052.4
2436.6613	13042.4
2439.43954	13032.4
2442.21603	13018.6
2444.99077	13013.7
2447.76377	13024.5
2450.53501	12989.9
2453.30451	12982.9
2456.07226	12973.7
2458.83827	13004.4
2461.60254	12974.8
2464.36507	12967.1
2467.12586	12956.1
2469.88492	12909.3
2472.64224	12943.6
2475.39782	12935.2
2478.15167	12955.8
2480.90379	12980.7
2483.65417	12989.8
2486.40283	12998.5
2489.14976	13000.5
2491.89497	12975.7
2494.63845	12998
2497.3802	12961.3
2500.12024	12964
2502.85855	12928.9
2505.59514	12923.3
2508.33002	12907.5
2511.06318	12887
2513.79462	12837.2
2516.52435	12827.5
2519.25237	12778.7
2521.97867	12751.6
2524.70327	12765
2527.42616	12758.3
2530.14734	12725
2532.86681	12719.9
2535.58458	12760.3
2538.30065	12737.1
2541.01501	12709.6
2543.72768	12690.7
2546.43864	12692
2549.14791	12661.6
2551.85548	12650.5
2554.56136	12628.9
2557.26554	12598.3
2559.96803	12598.9
2562.66883	12556.3
2565.36794	12518.2
2568.06536	12494.9
2570.7611	12508.5
2573.45514	12473
2576.14751	12461.1
2578.83819	12438.8
2581.52719	12447.3
2584.21451	12416.5
2586.90015	12416.1
2589.58411	12389.5
2592.2664	12359.6
2594.94701	12367.6
2597.62594	12374.3
2600.30321	12323.1
2602.9788	12305.8
2605.65273	12289.5
2608.32498	12299.7
2610.99557	12310.2
2613.66449	12336.1
2616.33175	12324.3
2618.99734	12308.2
2621.66128	12302.8
2624.32355	12273.4
2626.98416	12249.5
2629.64311	12247.9
2632.30041	12233.7
2634.95605	12223.7
2637.61004	12181.2
2640.26238	12197.3
2642.91306	12204.1
2645.56209	12166.5
2648.20948	12173.3
2650.85521	12132
2653.4993	12154.7
2656.14175	12151
2658.78255	12168.8
2661.42171	12146.8
2664.05923	12208.7
2666.6951	12181.4
2669.32934	12201.1
2671.96194	12177.1
2674.59291	12196.5
2677.22224	12180.1
2679.84993	12155.2
2682.476	12175.7
2685.10043	12150.2
2687.72324	12143.1
2690.34441	12144.2
2692.96396	12142.5
2695.58188	12132.7
2698.19818	12124.5
2700.81285	12101.3
2703.4259	12119.4
2706.03733	12133.5
2708.64714	12132
2711.25533	12135
2713.86191	12096.3
2716.46687	12144.7
2719.07021	12117.2
2721.67194	12149
2724.27206	12143.3
2726.87057	12147.1
2729.46747	12157.4
2732.06276	12145.1
2734.65644	12123.7
2737.24852	12134.2
2739.83899	12122.2
2742.42786	12123.9
2745.01513	12103.2
2747.60079	12095.7
2750.18486	12061.4
2752.76733	12042.8
2755.3482	12054
2757.92747	12044.1
2760.50515	12009.5
2763.08123	12030.5
2765.65573	11985.2
2768.22863	11978.7
2770.79994	11986.6
2773.36967	11984.5
2775.9378	11958.4
2778.50435	11953.4
2781.06932	11964
2783.6327	11936.1
2786.1945	11960.5
2788.75471	11934
2791.31335	11908.8
2793.87041	11909.7
2796.42589	11898.2
2798.97979	11868.6
2801.53212	11849
2804.08288	11829.7
2806.63206	11794
2809.17967	11764.1
2811.72571	11762.8
2814.27018	11735.3
2816.81308	11735.8
2819.35442	11713.8
2821.89419	11723
2824.43239	11714.6
2826.96904	11691.4
2829.50412	11661.8
2832.03763	11651.7
2834.56959	11671.6
2837.1	11633.5
2839.62884	11660.9
2842.15613	11643.8
2844.68186	11706.2
2847.20604	11706.8
2849.72867	11764.5
2852.24974	11727.6
2854.76927	11714.6
2857.28724	11698.2
2859.80367	11657.8
2862.31855	11630
2864.83189	11628.1
2867.34368	11592.8
2869.85393	11592.7
2872.36264	11622.9
2874.8698	11599.6
2877.37543	11592.8
2879.87952	11576.6
2882.38207	11566.8
2884.88308	11548
2887.38256	11566.1
2889.88051	11558.4
2892.37692	11586.4
2894.8718	11561.9
2897.36515	11586.4
2899.85698	11600.1
2902.34727	11591.1
2904.83604	11621.4
2907.32328	11646.5
2909.809	11603.9
2912.29319	11637.6
2914.77587	11601.5
2917.25702	11574.7
2919.73665	11574.1
2922.21476	11600.8
2924.69136	11541.1
2927.16644	11573.7
2929.64	11536
2932.11205	11518.8
2934.58258	11494.6
2937.05161	11520.2
2939.51912	11504.4
2941.98513	11480.6
2944.44962	11433.9
2946.91261	11405.1
2949.37409	11378.2
2951.83407	11369.1
2954.29254	11359
2956.74951	11330.4
2959.20498	11326.1
2961.65895	11311.4
2964.11142	11321.3
2966.56239	11303.7
2969.01186	11285.9
2971.45984	11225
2973.90632	11232.8
2976.35131	11200.2
2978.7948	11163.9
2981.23681	11154.2
2983.67732	11095
2986.11635	11079.7
2988.55388	11056.2
2990.98993	11047.4
2993.4245	10978
2995.85758	10970.6
2998.28917	10933.2
3000.71928	10930.1
3003.14791	10872.5
3005.57506	10873.4
3008.00073	10856.6
3010.42493	10834.4
3012.84764	10812.1
3015.26888	10769.2
3017.68865	10772.5
3020.10694	10747
3022.52376	10730.4
3024.9391	10718
3027.35298	10677.7
3029.76539	10688.8
3032.17632	10695.7
3034.5858	10673.3
3036.9938	10666.1
3039.40034	10658.1
3041.80542	10638.5
3044.20903	10606.4
3046.61118	10612.2
3049.01187	10599.7
3051.4111	10583.7
3053.80888	10564.8
3056.20519	10515.8
3058.60005	10515.8
3060.99345	10470.5
3063.3854	10442.2
3065.7759	10400.8
3068.16494	10384.1
3070.55254	10366.8
3072.93868	10374.8
3075.32338	10318.2
3077.70662	10303.1
3080.08842	10271.9
3082.46878	10243.9
3084.84769	10224.5
3087.22515	10239.9
3089.60118	10215.2
3091.97576	10190.4
3094.3489	10190.6
3096.72061	10192
3099.09087	10178.2
3101.4597	10161.2
3103.82709	10131.7
3106.19305	10136.9
3108.55757	10139.7
3110.92066	10109
3113.28232	10077.8
3115.64255	10067.8
3118.00134	10054.9
3120.35871	10078
3122.71466	10020.7
3125.06917	9991.5
3127.42226	9975.1
3129.77393	9980.4
3132.12417	9964.7
3134.47299	9955.3
3136.82039	9946.5
3139.16636	9941.7
3141.51092	9932.8
3143.85406	9919
3146.19579	9917
3148.53609	9915.3
3150.87499	9919.7
3153.21246	9912.3
3155.54853	9937.2
3157.88318	9904.4
3160.21642	9922.7
3162.54826	9888.3
3164.87868	9917.4
3167.2077	9900.8
3169.5353	9921.3
3171.86151	9920.5
3174.18631	9878.9
3176.5097	9887.6
3178.83169	9906.3
3181.15228	9895
3183.47147	9864.3
3185.78926	9852.9
3188.10565	9848.4
3190.42065	9854.1
3192.73424	9820.8
3195.04645	9830.2
3197.35725	9816.7
3199.66667	9816.8
3201.97469	9830.6
3204.28132	9798.5
3206.58656	9839.9
3208.8904	9829
3211.19287	9805.8
3213.49394	9811.5
3215.79363	9816.2
3218.09193	9827.7
3220.38884	9803
3222.68438	9821.2
3224.97853	9795.4
3227.2713	9800.4
3229.56269	9753.9
3231.8527	9758
3234.14133	9772.1
3236.42858	9740.6
3238.71446	9720
3240.99896	9678.6
3243.28209	9698.2
3245.56384	9682.2
3247.84423	9664.4
3250.12324	9661.1
3252.40088	9667.1
3254.67715	9631.9
3256.95205	9614.1
3259.22558	9643.2
3261.49775	9589.8
3263.76855	9592
3266.03799	9553.7
3268.30606	9564
3270.57277	9525.7
3272.83812	9516.4
3275.10211	9495.2
3277.36474	9480
3279.62601	9482.1
3281.88593	9448.9
3284.14448	9471.4
3286.40168	9453
3288.65753	9465.5
3290.91202	9445.9
3293.16516	9421.5
3295.41695	9407.3
3297.66738	9385.7
3299.91647	9317.6
3302.16421	9255.7
3304.4106	9191.8
3306.65564	9132.4
3308.89933	9071.7
3311.14169	8992.9
3313.38269	8928.5
3315.62236	8849.4
3317.86068	8790.4
3320.09766	8706.2
3322.3333	8644
3324.5676	8611.2
3326.80056	8484.5
3329.03219	8429.6
3331.26248	4.8
3333.49143	-0.9
3335.71905	0.6
