Data from AgNP_FTO_APTES_UA_10uM_CRN_2uM_R6G_10uM_NaF_0.1M_Addition_RamanShift__22__14-22-30-606.txt Node

Date: Thu Feb 10 14:22:30 GMT 2022
User: TCL
Spectrometer: QEP01345
Trigger mode: 4
Integration Time (sec): 7.000000E0
Scans to average: 10
Electric dark correction enabled: true
Nonlinearity correction enabled: false
Boxcar width: 0
XAxis mode: Raman Shifts
Number of Pixels in Spectrum: 1044
>>>>>Begin Spectral Data<<<<<
46.04893	-0.5125
50.45542	-1.0125
54.85868	-2.3125
59.25871	-1.7125
63.6555	74.3875
68.04907	79.5875
72.43941	83.7875
76.82654	84.4875
81.21044	84.4875
85.59113	90.1875
89.96862	92.1875
94.34289	101.0875
98.71396	98.7875
103.08183	108.5875
107.4465	106.7875
111.80798	104.1875
116.16626	111.9875
120.52136	118.5875
124.87327	125.7875
129.222	125.1875
133.56755	135.9875
137.90993	144.2875
142.24913	155.6875
146.58517	178.8875
150.91804	210.9875
155.24774	253.2875
159.57429	310.9875
163.89768	397.1875
168.21792	537.7875
172.53501	720.3875
176.84895	1011.4875
181.15975	1423.7875
185.46741	1986.8875
189.77193	2746.8875
194.07331	3662.6875
198.37157	4720.8875
202.6667	5844.4875
206.9587	6914.5875
211.24758	7994.1875
215.53334	9100.2875
219.81599	10264.2875
224.09553	11590.3875
228.37195	13027.6875
232.64527	14635.3875
236.91549	16313.5875
241.18261	17952.9875
245.44663	19406.5875
249.70755	20739.1875
253.96539	21924.6875
258.22014	22913.6875
262.4718	23742.1875
266.72039	24387.9875
270.96589	24714.6875
275.20832	24836.1875
279.44768	24725.2875
283.68397	24560.5875
287.91719	24384.9875
292.14735	24354.1875
296.37445	24442.6875
300.59849	24608.8875
304.81948	24788.5875
309.03742	24806.0875
313.25231	24454.9875
317.46415	23683.7875
321.67296	22742.8875
325.87872	21957.5875
330.08145	21663.0875
334.28114	21588.2875
338.47781	21808.9875
342.67145	22163.1875
346.86207	22657.8875
351.04966	23295.9875
355.23424	23977.8875
359.4158	24540.6875
363.59435	24906.2875
367.76989	25110.8875
371.94243	25234.3875
376.11196	25331.8875
380.27849	25361.7875
384.44203	25409.6875
388.60257	25527.0875
392.76012	25679.3875
396.91468	25959.7875
401.06626	26418.0875
405.21485	26775.5875
409.36047	26594.5875
413.50311	26000.0875
417.64277	25493.4875
421.77947	25327.2875
425.9132	25360.1875
430.04396	25522.3875
434.17176	25618.4875
438.2966	25896.5875
442.41849	26357.7875
446.53742	27089.1875
450.6534	27974.1875
454.76644	28563.9875
458.87653	28825.5875
462.98368	28691.6875
467.08789	28298.8875
471.18916	27839.9875
475.2875	27424.4875
479.38291	27198.0875
483.4754	26920.2875
487.56496	26525.0875
491.6516	26071.1875
495.73531	25642.5875
499.81612	25480.6875
503.89401	25537.3875
507.96899	25639.0875
512.04106	25618.8875
516.11023	25583.3875
520.1765	25540.6875
524.23987	25374.3875
528.30034	25169.9875
532.35792	24845.5875
536.41261	24463.2875
540.46441	24138.6875
544.51333	24138.0875
548.55936	24423.1875
552.60252	25036.1875
556.64279	25650.6875
560.6802	26034.7875
564.71473	26251.7875
568.7464	26744.8875
572.7752	27384.4875
576.80114	27594.8875
580.82422	27661.1875
584.84444	27861.0875
588.86181	28096.7875
592.87633	28450.9875
596.888	28819.9875
600.89682	29113.4875
604.9028	30475.4875
608.90594	34196.4875
612.90624	38425.5875
616.90371	36104.5875
620.89834	29064.0875
624.89015	26162.5875
628.87913	25865.0875
632.86528	25778.6875
636.84862	25477.5875
640.82913	24879.1875
644.80683	24083.1875
648.78172	23526.7875
652.75379	23418.5875
656.72306	23856.9875
660.68952	24407.0875
664.65319	24305.8875
668.61405	23738.4875
672.57211	23482.2875
676.52738	23493.5875
680.47986	23495.2875
684.42955	23359.8875
688.37646	23330.8875
692.32058	23441.5875
696.26192	23700.2875
700.20048	23969.9875
704.13626	24188.3875
708.06928	24068.0875
711.99952	23863.2875
715.927	23747.1875
719.85171	23750.8875
723.77365	23678.6875
727.69284	23414.6875
731.60928	23191.9875
735.52295	23143.1875
739.43388	23173.7875
743.34206	23317.0875
747.24749	23429.4875
751.15017	23661.0875
755.05012	24117.2875
758.94733	24972.1875
762.8418	26594.1875
766.73354	29144.2875
770.62254	31635.7875
774.50882	32370.0875
778.39237	30710.4875
782.27321	27873.2875
786.15132	25579.7875
790.02671	24215.0875
793.89938	23564.6875
797.76935	23389.2875
801.6366	23279.8875
805.50115	23146.4875
809.36299	23005.3875
813.22213	22819.2875
817.07857	22761.3875
820.93231	22737.7875
824.78336	22685.9875
828.63172	22652.7875
832.47738	22698.6875
836.32036	22794.4875
840.16066	22874.5875
843.99827	23033.2875
847.8332	22936.8875
851.66546	22762.1875
855.49504	22718.4875
859.32195	22687.6875
863.1462	22580.5875
866.96777	22367.7875
870.78668	22309.1875
874.60293	22296.3875
878.41652	22287.8875
882.22745	22367.5875
886.03573	22447.1875
889.84136	22406.7875
893.64433	22284.6875
897.44466	22207.6875
901.24235	22144.8875
905.0374	22064.0875
908.8298	22046.7875
912.61957	22069.2875
916.40671	22285.2875
920.19121	22615.3875
923.97308	22995.2875
927.75233	23199.0875
931.52895	23192.5875
935.30295	22920.6875
939.07433	22381.6875
942.84309	21916.8875
946.60924	21711.0875
950.37278	21650.5875
954.13371	21495.4875
957.89203	21278.6875
961.64774	21252.3875
965.40086	21179.5875
969.15137	21110.9875
972.89929	20984.2875
976.64461	20973.7875
980.38733	20992.2875
984.12747	21118.6875
987.86502	21381.9875
991.59999	21838.9875
995.33237	22370.5875
999.06217	23309.4875
1002.78939	24387.5875
1006.51404	24897.3875
1010.23611	25055.8875
1013.95561	25249.6875
1017.67255	25298.8875
1021.38692	24982.9875
1025.09872	24766.1875
1028.80796	25254.7875
1032.51465	26442.8875
1036.21877	27469.1875
1039.92035	27522.4875
1043.61937	26891.6875
1047.31584	25820.3875
1051.00976	24717.0875
1054.70114	24163.7875
1058.38998	24031.9875
1062.07627	24088.4875
1065.76003	24122.0875
1069.44126	24161.0875
1073.11995	24377.0875
1076.79611	24634.2875
1080.46974	24856.9875
1084.14085	25132.1875
1087.80943	25451.5875
1091.47549	25643.9875
1095.13903	25453.5875
1098.80005	25005.3875
1102.45857	24437.9875
1106.11456	24149.1875
1109.76805	24166.6875
1113.41903	24387.5875
1117.06751	24680.0875
1120.71348	25082.9875
1124.35696	25481.4875
1127.99793	25873.1875
1131.63641	25996.3875
1135.2724	25644.6875
1138.90589	25257.5875
1142.5369	24946.7875
1146.16542	24794.4875
1149.79145	24791.6875
1153.415	24938.7875
1157.03607	25378.5875
1160.65467	25985.3875
1164.27079	27032.8875
1167.88443	28552.1875
1171.49561	30661.6875
1175.10432	33544.5875
1178.71056	37224.3875
1182.31434	40577.7875
1185.91565	42410.3875
1189.51451	42358.7875
1193.11091	40750.1875
1196.70485	38388.1875
1200.29634	36155.3875
1203.88538	34385.5875
1207.47197	32961.4875
1211.05612	31898.2875
1214.63782	31205.5875
1218.21708	31078.7875
1221.79391	31204.5875
1225.36829	31317.4875
1228.94024	31044.4875
1232.50976	30475.9875
1236.07685	29957.6875
1239.6415	29686.6875
1243.20374	29565.6875
1246.76355	29729.4875
1250.32093	30201.4875
1253.8759	31030.8875
1257.42845	32056.5875
1260.97859	33045.4875
1264.52631	34000.5875
1268.07163	35017.5875
1271.61453	36194.6875
1275.15503	37484.0875
1278.69312	38794.0875
1282.22882	39798.4875
1285.76211	40584.7875
1289.29301	41289.7875
1292.82151	42368.4875
1296.34761	43914.0875
1299.87133	46270.5875
1303.39266	49551.1875
1306.9116	53593.2875
1310.42815	57853.9875
1313.94233	60596.9875
1317.45412	60500.2875
1320.96354	58634.6875
1324.47058	56396.2875
1327.97525	54297.8875
1331.47754	52905.9875
1334.97747	52462.3875
1338.47502	52680.0875
1341.97022	53059.2875
1345.46305	53113.6875
1348.95352	52529.2875
1352.44163	52225.2875
1355.92738	53147.6875
1359.41078	56124.0875
1362.89183	59007.7875
1366.37053	57457.0875
1369.84688	51586.7875
1373.32088	45432.4875
1376.79254	41360.4875
1380.26186	39497.7875
1383.72883	38906.4875
1387.19347	38572.7875
1390.65578	38211.8875
1394.11575	38168.0875
1397.57339	38742.3875
1401.0287	39655.9875
1404.48168	40562.1875
1407.93234	41040.3875
1411.38068	41044.8875
1414.82669	40212.4875
1418.27039	38745.9875
1421.71177	37094.6875
1425.15083	35671.9875
1428.58758	34816.9875
1432.02203	34756.4875
1435.45416	35243.4875
1438.88399	35974.2875
1442.31151	36529.3875
1445.73673	37130.5875
1449.15965	37678.9875
1452.58027	38105.2875
1455.9986	38363.7875
1459.41463	38677.7875
1462.82837	39327.7875
1466.23982	40202.7875
1469.64898	40950.4875
1473.05586	41333.2875
1476.46045	41366.6875
1479.86276	41235.9875
1483.26279	40991.5875
1486.66054	40982.0875
1490.05602	41278.0875
1493.44922	41660.9875
1496.84016	42281.6875
1500.22882	43200.1875
1503.61521	44848.4875
1506.99934	47053.1875
1510.38121	49194.4875
1513.76081	50044.6875
1517.13816	48860.7875
1520.51324	46079.3875
1523.88607	43345.2875
1527.25665	41432.7875
1530.62498	40390.5875
1533.99105	39827.7875
1537.35488	39441.6875
1540.71647	39083.7875
1544.07581	38679.3875
1547.4329	38237.8875
1550.78776	37731.6875
1554.14038	37465.8875
1557.49077	37345.7875
1560.83892	37344.1875
1564.18484	37348.7875
1567.52853	37329.0875
1570.86999	37279.6875
1574.20922	37506.9875
1577.54624	37735.4875
1580.88103	37479.3875
1584.2136	37282.2875
1587.54395	38051.9875
1590.87208	39985.7875
1594.19801	42818.9875
1597.52172	45915.5875
1600.84321	47092.3875
1604.16251	45330.6875
1607.47959	41745.9875
1610.79447	37828.3875
1614.10715	34316.2875
1617.41763	31460.3875
1620.7259	29494.3875
1624.03199	28537.2875
1627.33587	28547.1875
1630.63757	29528.7875
1633.93707	31563.3875
1637.23439	34452.1875
1640.52951	38133.1875
1643.82246	42087.0875
1647.11321	45062.4875
1650.40179	45750.9875
1653.68819	42895.0875
1656.97241	37420.9875
1660.25446	31909.7875
1663.53433	27771.5875
1666.81203	25185.5875
1670.08756	23586.4875
1673.36092	22583.9875
1676.63211	21868.5875
1679.90115	21416.4875
1683.16801	21024.9875
1686.43272	20763.5875
1689.69527	20589.5875
1692.95567	20430.1875
1696.2139	20361.3875
1699.46999	20301.2875
1702.72392	20238.5875
1705.97571	20168.5875
1709.22535	20114.0875
1712.47284	20078.7875
1715.71819	20034.4875
1718.96139	20009.0875
1722.20246	19929.0875
1725.44139	19820.6875
1728.67818	19724.0875
1731.91284	19575.8875
1735.14537	19463.7875
1738.37576	19395.1875
1741.60403	19328.3875
1744.83017	19244.1875
1748.05418	19203.9875
1751.27607	19169.0875
1754.49584	19170.8875
1757.71349	19146.9875
1760.92903	19125.4875
1764.14244	19105.9875
1767.35375	19087.7875
1770.56294	19048.7875
1773.77002	19023.3875
1776.97499	18988.3875
1780.17785	18923.2875
1783.37861	18903.5875
1786.57727	18865.1875
1789.77382	18833.5875
1792.96828	18816.7875
1796.16064	18803.6875
1799.3509	18758.2875
1802.53907	18768.0875
1805.72514	18658.0875
1808.90913	18642.3875
1812.09102	18626.6875
1815.27083	18555.5875
1818.44856	18560.3875
1821.6242	18510.6875
1824.79776	18462.1875
1827.96924	18457.9875
1831.13864	18489.8875
1834.30597	18487.8875
1837.47122	18426.3875
1840.6344	18445.7875
1843.7955	18440.2875
1846.95454	18494.8875
1850.11151	18443.8875
1853.26642	18446.0875
1856.41926	18488.3875
1859.57004	18485.9875
1862.71876	18467.0875
1865.86542	18455.8875
1869.01003	18484.1875
1872.15258	18469.4875
1875.29308	18458.1875
1878.43152	18474.3875
1881.56792	18461.2875
1884.70227	18456.5875
1887.83457	18488.6875
1890.96482	18481.0875
1894.09304	18464.2875
1897.21921	18402.4875
1900.34335	18418.2875
1903.46544	18435.3875
1906.58551	18422.2875
1909.70353	18411.7875
1912.81953	18415.8875
1915.93349	18393.3875
1919.04543	18358.4875
1922.15534	18289.5875
1925.26322	18241.9875
1928.36908	18236.5875
1931.47292	18180.4875
1934.57473	18105.1875
1937.67453	18086.9875
1940.77232	17980.6875
1943.86808	17886.4875
1946.96184	17836.3875
1950.05358	17778.7875
1953.14331	17675.0875
1956.23103	17607.0875
1959.31675	17556.9875
1962.40046	17529.1875
1965.48217	17486.3875
1968.56188	17465.9875
1971.63959	17376.0875
1974.7153	17323.1875
1977.78901	17312.1875
1980.86073	17217.4875
1983.93046	17197.7875
1986.99819	17107.4875
1990.06394	17074.3875
1993.1277	17001.8875
1996.18947	16916.0875
1999.24925	16919.0875
2002.30706	16859.0875
2005.36288	16816.6875
2008.41672	16748.0875
2011.46859	16682.9875
2014.51848	16675.4875
2017.56639	16665.1875
2020.61233	16605.1875
2023.6563	16560.3875
2026.6983	16552.8875
2029.73833	16519.0875
2032.7764	16500.0875
2035.8125	16477.1875
2038.84664	16442.6875
2041.87881	16412.4875
2044.90903	16393.4875
2047.93729	16373.8875
2050.96359	16362.3875
2053.98794	16358.8875
2057.01034	16276.7875
2060.03078	16313.2875
2063.04927	16277.3875
2066.06582	16274.6875
2069.08042	16269.4875
2072.09307	16259.9875
2075.10378	16250.4875
2078.11255	16197.0875
2081.11938	16192.6875
2084.12426	16146.1875
2087.12722	16171.2875
2090.12824	16113.5875
2093.12732	16103.5875
2096.12447	16119.5875
2099.11969	16091.1875
2102.11299	16105.6875
2105.10435	16127.1875
2108.09379	16132.1875
2111.08131	16152.7875
2114.0669	16133.6875
2117.05057	16177.3875
2120.03233	16190.4875
2123.01216	16173.3875
2125.99008	16195.0875
2128.96609	16202.7875
2131.94018	16233.8875
2134.91236	16224.6875
2137.88263	16237.9875
2140.851	16246.6875
2143.81746	16265.5875
2146.78201	16262.9875
2149.74466	16286.2875
2152.7054	16242.7875
2155.66425	16250.0875
2158.6212	16231.8875
2161.57625	16218.7875
2164.52941	16240.8875
2167.48067	16203.6875
2170.43004	16217.6875
2173.37752	16213.6875
2176.32311	16194.5875
2179.26681	16207.6875
2182.20863	16185.7875
2185.14856	16215.2875
2188.08661	16258.3875
2191.02278	16239.3875
2193.95707	16234.8875
2196.88948	16225.0875
2199.82001	16248.7875
2202.74867	16232.1875
2205.67545	16236.2875
2208.60037	16217.9875
2211.52341	16230.9875
2214.44458	16217.0875
2217.36388	16218.5875
2220.28132	16185.9875
2223.1969	16153.8875
2226.11061	16150.3875
2229.02246	16092.2875
2231.93245	16070.5875
2234.84058	15993.4875
2237.74686	15992.6875
2240.65128	15990.6875
2243.55385	15960.5875
2246.45456	15928.4875
2249.35343	15920.3875
2252.25044	15893.2875
2255.14561	15885.4875
2258.03893	15871.1875
2260.93041	15820.4875
2263.82004	15736.8875
2266.70783	15711.9875
2269.59378	15684.9875
2272.4779	15641.4875
2275.36017	15562.9875
2278.24061	15576.3875
2281.11922	15564.2875
2283.996	15547.5875
2286.87094	15526.5875
2289.74405	15521.0875
2292.61534	15524.7875
2295.4848	15525.5875
2298.35243	15548.4875
2301.21824	15542.6875
2304.08223	15570.8875
2306.94439	15565.3875
2309.80474	15600.2875
2312.66327	15600.3875
2315.51999	15602.1875
2318.37489	15632.1875
2321.22797	15581.7875
2324.07925	15581.7875
2326.92871	15596.4875
2329.77637	15570.2875
2332.62222	15538.3875
2335.46626	15559.0875
2338.3085	15554.7875
2341.14893	15612.5875
2343.98756	15645.8875
2346.8244	15652.2875
2349.65943	15626.7875
2352.49267	15626.8875
2355.32411	15646.9875
2358.15376	15638.8875
2360.98161	15617.8875
2363.80768	15587.1875
2366.63195	15580.2875
2369.45444	15531.5875
2372.27514	15504.3875
2375.09405	15436.2875
2377.91118	15389.5875
2380.72652	15369.0875
2383.54009	15319.8875
2386.35187	15263.3875
2389.16188	15241.4875
2391.97011	15225.0875
2394.77657	15183.8875
2397.58125	15171.9875
2400.38416	15179.2875
2403.18529	15132.5875
2405.98466	15114.6875
2408.78226	15050.8875
2411.57809	15029.7875
2414.37216	15008.1875
2417.16446	14981.2875
2419.955	14955.3875
2422.74378	14920.5875
2425.5308	14929.0875
2428.31606	14961.7875
2431.09956	14939.9875
2433.88131	14919.0875
2436.6613	14915.0875
2439.43954	14947.7875
2442.21603	14905.2875
2444.99077	14917.3875
2447.76377	14924.4875
2450.53501	14898.9875
2453.30451	14874.8875
2456.07226	14884.6875
2458.83827	14859.4875
2461.60254	14892.5875
2464.36507	14872.5875
2467.12586	14877.9875
2469.88492	14882.0875
2472.64224	14889.4875
2475.39782	14925.0875
2478.15167	14955.8875
2480.90379	14967.9875
2483.65417	14983.5875
2486.40283	15013.4875
2489.14976	15017.4875
2491.89497	15014.4875
2494.63845	15038.2875
2497.3802	15036.8875
2500.12024	15034.2875
2502.85855	15008.2875
2505.59514	15005.2875
2508.33002	14968.2875
2511.06318	14944.1875
2513.79462	14922.5875
2516.52435	14935.8875
2519.25237	14915.5875
2521.97867	14925.2875
2524.70327	14866.5875
2527.42616	14871.3875
2530.14734	14875.9875
2532.86681	14837.8875
2535.58458	14868.5875
2538.30065	14868.4875
2541.01501	14867.2875
2543.72768	14843.7875
2546.43864	14832.7875
2549.14791	14837.2875
2551.85548	14843.5875
2554.56136	14821.5875
2557.26554	14788.0875
2559.96803	14809.2875
2562.66883	14760.0875
2565.36794	14754.6875
2568.06536	14747.2875
2570.7611	14741.8875
2573.45514	14731.0875
2576.14751	14721.7875
2578.83819	14677.0875
2581.52719	14745.8875
2584.21451	14708.6875
2586.90015	14724.8875
2589.58411	14727.1875
2592.2664	14717.4875
2594.94701	14734.8875
2597.62594	14740.0875
2600.30321	14708.8875
2602.9788	14723.8875
2605.65273	14719.6875
2608.32498	14731.8875
2610.99557	14738.8875
2613.66449	14710.6875
2616.33175	14729.3875
2618.99734	14773.7875
2621.66128	14777.8875
2624.32355	14766.6875
2626.98416	14768.5875
2629.64311	14775.4875
2632.30041	14769.7875
2634.95605	14772.0875
2637.61004	14725.1875
2640.26238	14711.1875
2642.91306	14690.3875
2645.56209	14702.1875
2648.20948	14656.1875
2650.85521	14627.2875
2653.4993	14629.1875
2656.14175	14627.1875
2658.78255	14623.3875
2661.42171	14641.2875
2664.05923	14668.0875
2666.6951	14689.3875
2669.32934	14712.1875
2671.96194	14705.0875
2674.59291	14720.5875
2677.22224	14711.4875
2679.84993	14709.3875
2682.476	14717.2875
2685.10043	14700.9875
2687.72324	14668.3875
2690.34441	14662.0875
2692.96396	14613.5875
2695.58188	14636.3875
2698.19818	14611.3875
2700.81285	14613.0875
2703.4259	14609.3875
2706.03733	14622.1875
2708.64714	14595.8875
2711.25533	14646.2875
2713.86191	14637.9875
2716.46687	14629.8875
2719.07021	14627.3875
2721.67194	14672.3875
2724.27206	14701.3875
2726.87057	14703.6875
2729.46747	14696.4875
2732.06276	14672.9875
2734.65644	14715.7875
2737.24852	14684.3875
2739.83899	14676.3875
2742.42786	14683.0875
2745.01513	14668.7875
2747.60079	14651.0875
2750.18486	14639.3875
2752.76733	14643.4875
2755.3482	14650.3875
2757.92747	14639.6875
2760.50515	14613.7875
2763.08123	14627.1875
2765.65573	14634.2875
2768.22863	14602.8875
2770.79994	14612.2875
2773.36967	14588.7875
2775.9378	14607.4875
2778.50435	14629.5875
2781.06932	14635.0875
2783.6327	14628.4875
2786.1945	14644.2875
2788.75471	14620.3875
2791.31335	14608.9875
2793.87041	14569.5875
2796.42589	14528.2875
2798.97979	14532.2875
2801.53212	14507.6875
2804.08288	14516.1875
2806.63206	14448.2875
2809.17967	14461.6875
2811.72571	14446.9875
2814.27018	14448.1875
2816.81308	14386.3875
2819.35442	14370.2875
2821.89419	14372.9875
2824.43239	14387.5875
2826.96904	14353.6875
2829.50412	14363.6875
2832.03763	14353.0875
2834.56959	14369.8875
2837.1	14331.8875
2839.62884	14360.1875
2842.15613	14369.6875
2844.68186	14364.2875
2847.20604	14357.0875
2849.72867	14371.8875
2852.24974	14375.8875
2854.76927	14321.5875
2857.28724	14297.7875
2859.80367	14270.7875
2862.31855	14272.7875
2864.83189	14266.6875
2867.34368	14255.0875
2869.85393	14251.3875
2872.36264	14260.8875
2874.8698	14248.9875
2877.37543	14252.3875
2879.87952	14272.6875
2882.38207	14275.3875
2884.88308	14245.5875
2887.38256	14268.4875
2889.88051	14256.0875
2892.37692	14244.6875
2894.8718	14238.8875
2897.36515	14295.3875
2899.85698	14321.5875
2902.34727	14353.5875
2904.83604	14355.0875
2907.32328	14393.0875
2909.809	14409.9875
2912.29319	14370.3875
2914.77587	14391.9875
2917.25702	14363.9875
2919.73665	14351.9875
2922.21476	14359.1875
2924.69136	14317.6875
2927.16644	14337.8875
2929.64	14288.1875
2932.11205	14267.4875
2934.58258	14234.4875
2937.05161	14237.5875
2939.51912	14209.5875
2941.98513	14200.0875
2944.44962	14217.7875
2946.91261	14165.7875
2949.37409	14187.7875
2951.83407	14174.3875
2954.29254	14137.5875
2956.74951	14129.2875
2959.20498	14133.2875
2961.65895	14090.7875
2964.11142	14101.1875
2966.56239	14085.9875
2969.01186	14080.5875
2971.45984	14047.8875
2973.90632	14034.6875
2976.35131	13959.0875
2978.7948	13933.5875
2981.23681	13899.0875
2983.67732	13875.5875
2986.11635	13858.0875
2988.55388	13804.1875
2990.98993	13785.2875
2993.4245	13764.9875
2995.85758	13754.8875
2998.28917	13688.3875
3000.71928	13662.6875
3003.14791	13665.1875
3005.57506	13644.1875
3008.00073	13621.2875
3010.42493	13487.1875
3012.84764	13568.9875
3015.26888	13558.1875
3017.68865	13508.1875
3020.10694	13468.9875
3022.52376	13429.6875
3024.9391	13404.8875
3027.35298	13431.8875
3029.76539	13454.3875
3032.17632	13401.1875
3034.5858	13416.9875
3036.9938	13412.0875
3039.40034	13379.7875
3041.80542	13375.4875
3044.20903	13350.4875
3046.61118	13347.2875
3049.01187	13329.6875
3051.4111	13328.1875
3053.80888	13273.0875
3056.20519	13253.3875
3058.60005	13236.9875
3060.99345	13192.0875
3063.3854	13171.0875
3065.7759	13103.8875
3068.16494	13074.5875
3070.55254	13051.8875
3072.93868	13009.6875
3075.32338	12977.3875
3077.70662	12973.5875
3080.08842	12932.9875
3082.46878	12885.4875
3084.84769	12891.2875
3087.22515	12887.0875
3089.60118	12880.3875
3091.97576	12903.6875
3094.3489	12891.3875
3096.72061	12890.5875
3099.09087	12876.9875
3101.4597	12843.6875
3103.82709	12868.2875
3106.19305	12842.9875
3108.55757	12827.8875
3110.92066	12785.9875
3113.28232	12772.7875
3115.64255	12764.6875
3118.00134	12703.5875
3120.35871	12687.1875
3122.71466	12683.8875
3125.06917	12644.4875
3127.42226	12635.1875
3129.77393	12633.6875
3132.12417	12574.5875
3134.47299	12585.4875
3136.82039	12554.3875
3139.16636	12608.0875
3141.51092	12592.6875
3143.85406	12586.4875
3146.19579	12565.3875
3148.53609	12569.6875
3150.87499	12572.3875
3153.21246	12566.0875
3155.54853	12585.1875
3157.88318	12577.7875
3160.21642	12596.1875
3162.54826	12602.2875
3164.87868	12597.8875
3167.2077	12598.4875
3169.5353	12615.5875
3171.86151	12573.4875
3174.18631	12586.7875
3176.5097	12595.2875
3178.83169	12583.4875
3181.15228	12556.1875
3183.47147	12531.1875
3185.78926	12544.2875
3188.10565	12488.2875
3190.42065	12489.3875
3192.73424	12504.5875
3195.04645	12504.2875
3197.35725	12509.1875
3199.66667	12516.6875
3201.97469	12537.0875
3204.28132	12515.1875
3206.58656	12571.5875
3208.8904	12534.0875
3211.19287	12546.0875
3213.49394	12524.8875
3215.79363	12547.3875
3218.09193	12528.4875
3220.38884	12546.5875
3222.68438	12545.3875
3224.97853	12516.6875
3227.2713	12552.5875
3229.56269	12560.5875
3231.8527	12521.0875
3234.14133	12486.8875
3236.42858	12474.9875
3238.71446	12457.2875
3240.99896	12423.3875
3243.28209	12437.4875
3245.56384	12405.0875
3247.84423	12398.9875
3250.12324	12367.3875
3252.40088	12370.9875
3254.67715	12363.9875
3256.95205	12345.0875
3259.22558	12314.0875
3261.49775	12310.1875
3263.76855	12331.1875
3266.03799	12302.2875
3268.30606	12293.8875
3270.57277	12284.1875
3272.83812	12260.2875
3275.10211	12231.8875
3277.36474	12227.3875
3279.62601	12215.1875
3281.88593	12206.2875
3284.14448	12206.3875
3286.40168	12196.0875
3288.65753	12212.5875
3290.91202	12194.0875
3293.16516	12159.3875
3295.41695	12177.0875
3297.66738	12096.1875
3299.91647	12021.4875
3302.16421	11945.7875
3304.4106	11899.0875
3306.65564	11818.1875
3308.89933	11741.7875
3311.14169	11667.7875
3313.38269	11533.6875
3315.62236	11486.6875
3317.86068	11388.7875
3320.09766	11325.3875
3322.3333	11263.0875
3324.5676	11198.3875
3326.80056	11031.2875
3329.03219	10973.4875
3331.26248	4.8875
3333.49143	1.2875
3335.71905	-0.5125
