Data from AgNP_FTO_APTES_UA_10uM_CRN_500uM_R6G_10uM_NaF_0.1M_Addition_RamanShift__16__18-59-00-947.txt Node

Date: Thu Feb 10 18:59:00 GMT 2022
User: TCL
Spectrometer: QEP01345
Trigger mode: 4
Integration Time (sec): 7.000000E0
Scans to average: 10
Electric dark correction enabled: true
Nonlinearity correction enabled: false
Boxcar width: 0
XAxis mode: Raman Shifts
Number of Pixels in Spectrum: 1044
>>>>>Begin Spectral Data<<<<<
46.04893	0.5875
50.45542	-1.4125
54.85868	-1.1125
59.25871	-0.9125
63.6555	53.1875
68.04907	55.1875
72.43941	60.3875
76.82654	61.7875
81.21044	67.1875
85.59113	66.7875
89.96862	70.7875
94.34289	72.8875
98.71396	74.5875
103.08183	76.7875
107.4465	81.1875
111.80798	80.7875
116.16626	82.7875
120.52136	87.5875
124.87327	92.9875
129.222	91.9875
133.56755	100.6875
137.90993	107.8875
142.24913	114.3875
146.58517	129.8875
150.91804	147.4875
155.24774	178.2875
159.57429	219.9875
163.89768	280.8875
168.21792	366.4875
172.53501	510.6875
176.84895	705.9875
181.15975	984.2875
185.46741	1385.6875
189.77193	1938.3875
194.07331	2588.0875
198.37157	3348.5875
202.6667	4146.3875
206.9587	4920.1875
211.24758	5706.5875
215.53334	6482.0875
219.81599	7263.0875
224.09553	8130.8875
228.37195	9099.5875
232.64527	10135.0875
236.91549	11299.6875
241.18261	12427.2875
245.44663	13546.1875
249.70755	14579.6875
253.96539	15454.0875
258.22014	16213.1875
262.4718	16818.9875
266.72039	17253.9875
270.96589	17537.9875
275.20832	17590.1875
279.44768	17529.8875
283.68397	17393.9875
287.91719	17241.5875
292.14735	17137.4875
296.37445	17137.5875
300.59849	17124.8875
304.81948	17143.3875
309.03742	17061.1875
313.25231	16851.5875
317.46415	16529.4875
321.67296	16131.8875
325.87872	15839.6875
330.08145	15719.0875
334.28114	15754.2875
338.47781	15817.8875
342.67145	16000.7875
346.86207	16238.1875
351.04966	16526.5875
355.23424	16789.5875
359.4158	17104.6875
363.59435	17284.8875
367.76989	17422.3875
371.94243	17523.1875
376.11196	17631.0875
380.27849	17738.1875
384.44203	17880.9875
388.60257	17985.4875
392.76012	18100.8875
396.91468	18257.0875
401.06626	18462.7875
405.21485	18641.3875
409.36047	18554.6875
413.50311	18356.4875
417.64277	18195.9875
421.77947	18168.2875
425.9132	18212.8875
430.04396	18325.9875
434.17176	18450.1875
438.2966	18586.7875
442.41849	18795.7875
446.53742	19143.1875
450.6534	19481.4875
454.76644	19836.2875
458.87653	19933.1875
462.98368	19940.3875
467.08789	19921.1875
471.18916	19773.4875
475.2875	19685.0875
479.38291	19689.1875
483.4754	19596.0875
487.56496	19439.0875
491.6516	19204.0875
495.73531	18964.9875
499.81612	18842.4875
503.89401	18850.0875
507.96899	18895.8875
512.04106	18901.5875
516.11023	18899.6875
520.1765	18816.0875
524.23987	18753.7875
528.30034	18583.4875
532.35792	18500.5875
536.41261	18389.3875
540.46441	18280.5875
544.51333	18325.5875
548.55936	18485.7875
552.60252	18758.2875
556.64279	19056.5875
560.6802	19247.2875
564.71473	19415.8875
568.7464	19664.9875
572.7752	20002.9875
576.80114	20205.3875
580.82422	20306.9875
584.84444	20338.3875
588.86181	20438.0875
592.87633	20518.4875
596.888	20513.0875
600.89682	20486.6875
604.9028	20832.9875
608.90594	22051.0875
612.90624	23514.2875
616.90371	22667.6875
620.89834	19986.9875
624.89015	18764.4875
628.87913	18610.1875
632.86528	18689.3875
636.84862	18763.7875
640.82913	18711.7875
644.80683	18367.2875
648.78172	18190.5875
652.75379	18119.9875
656.72306	18245.3875
660.68952	18427.9875
664.65319	18392.1875
668.61405	18183.8875
672.57211	18115.5875
676.52738	18155.9875
680.47986	18234.8875
684.42955	18185.4875
688.37646	18129.8875
692.32058	18144.8875
696.26192	18252.0875
700.20048	18366.9875
704.13626	18477.8875
708.06928	18502.0875
711.99952	18434.0875
715.927	18393.8875
719.85171	18368.4875
723.77365	18369.2875
727.69284	18282.8875
731.60928	18116.3875
735.52295	18092.5875
739.43388	18048.5875
743.34206	18091.8875
747.24749	18129.0875
751.15017	18179.6875
755.05012	18361.8875
758.94733	18681.8875
762.8418	19270.0875
766.73354	20293.1875
770.62254	21310.8875
774.50882	21641.3875
778.39237	21047.8875
782.27321	19919.5875
786.15132	18932.0875
790.02671	18382.2875
793.89938	18089.8875
797.76935	17988.2875
801.6366	17910.3875
805.50115	17899.6875
809.36299	17837.9875
813.22213	17777.8875
817.07857	17728.3875
820.93231	17756.8875
824.78336	17689.9875
828.63172	17661.6875
832.47738	17637.6875
836.32036	17629.1875
840.16066	17621.1875
843.99827	17613.9875
847.8332	17620.7875
851.66546	17638.8875
855.49504	17573.1875
859.32195	17652.7875
863.1462	17624.7875
866.96777	17659.1875
870.78668	17594.0875
874.60293	17625.3875
878.41652	17601.9875
882.22745	17615.4875
886.03573	17611.6875
889.84136	17618.0875
893.64433	17595.5875
897.44466	17557.9875
901.24235	17494.3875
905.0374	17465.8875
908.8298	17407.6875
912.61957	17367.1875
916.40671	17464.9875
920.19121	17563.2875
923.97308	17651.9875
927.75233	17626.7875
931.52895	17596.2875
935.30295	17475.8875
939.07433	17287.3875
942.84309	17081.3875
946.60924	17007.2875
950.37278	16943.4875
954.13371	16896.6875
957.89203	16869.8875
961.64774	16847.2875
965.40086	16788.5875
969.15137	16761.2875
972.89929	16685.4875
976.64461	16643.4875
980.38733	16646.5875
984.12747	16675.8875
987.86502	16750.1875
991.59999	16839.2875
995.33237	16979.9875
999.06217	17168.9875
1002.78939	17391.2875
1006.51404	17485.5875
1010.23611	17594.3875
1013.95561	17696.1875
1017.67255	17768.3875
1021.38692	17687.3875
1025.09872	17562.7875
1028.80796	17533.9875
1032.51465	17579.6875
1036.21877	17736.4875
1039.92035	17746.6875
1043.61937	17682.3875
1047.31584	17619.2875
1051.00976	17496.6875
1054.70114	17495.2875
1058.38998	17571.8875
1062.07627	17667.4875
1065.76003	17763.5875
1069.44126	17812.3875
1073.11995	17861.9875
1076.79611	18015.1875
1080.46974	18052.4875
1084.14085	18134.9875
1087.80943	18272.4875
1091.47549	18398.6875
1095.13903	18457.6875
1098.80005	18340.4875
1102.45857	18100.0875
1106.11456	17993.7875
1109.76805	17874.7875
1113.41903	17915.5875
1117.06751	17990.7875
1120.71348	18176.4875
1124.35696	18329.3875
1127.99793	18455.7875
1131.63641	18576.4875
1135.2724	18447.9875
1138.90589	18286.7875
1142.5369	18223.9875
1146.16542	18204.2875
1149.79145	18242.6875
1153.415	18305.1875
1157.03607	18478.0875
1160.65467	18806.9875
1164.27079	19332.5875
1167.88443	19996.9875
1171.49561	20766.6875
1175.10432	21820.0875
1178.71056	23059.1875
1182.31434	24344.2875
1185.91565	25092.0875
1189.51451	25226.9875
1193.11091	24823.3875
1196.70485	24149.6875
1200.29634	23386.5875
1203.88538	22716.6875
1207.47197	22211.8875
1211.05612	21755.6875
1214.63782	21355.8875
1218.21708	21060.0875
1221.79391	20844.6875
1225.36829	20656.8875
1228.94024	20434.8875
1232.50976	20209.7875
1236.07685	20019.2875
1239.6415	19945.0875
1243.20374	19940.0875
1246.76355	20043.3875
1250.32093	20205.2875
1253.8759	20434.1875
1257.42845	20796.9875
1260.97859	21152.2875
1264.52631	21547.1875
1268.07163	21932.2875
1271.61453	22294.6875
1275.15503	22652.8875
1278.69312	23066.3875
1282.22882	23443.1875
1285.76211	23833.3875
1289.29301	24331.9875
1292.82151	25013.0875
1296.34761	25959.0875
1299.87133	27103.8875
1303.39266	28304.4875
1306.9116	29545.4875
1310.42815	30659.0875
1313.94233	31454.0875
1317.45412	31447.0875
1320.96354	31039.2875
1324.47058	30511.2875
1327.97525	30130.7875
1331.47754	29806.4875
1334.97747	29777.8875
1338.47502	29810.0875
1341.97022	29896.6875
1345.46305	29876.0875
1348.95352	29805.1875
1352.44163	29689.5875
1355.92738	29787.3875
1359.41078	30328.9875
1362.89183	30957.7875
1366.37053	30412.9875
1369.84688	28377.2875
1373.32088	26018.9875
1376.79254	24484.7875
1380.26186	23814.0875
1383.72883	23677.9875
1387.19347	23725.3875
1390.65578	23663.5875
1394.11575	23705.1875
1397.57339	23825.9875
1401.0287	24059.8875
1404.48168	24232.6875
1407.93234	24112.2875
1411.38068	23717.1875
1414.82669	23138.4875
1418.27039	22410.1875
1421.71177	21689.2875
1425.15083	21094.5875
1428.58758	20785.3875
1432.02203	20778.9875
1435.45416	21046.4875
1438.88399	21454.0875
1442.31151	21779.9875
1445.73673	22060.3875
1449.15965	22343.0875
1452.58027	22591.0875
1455.9986	22767.1875
1459.41463	22931.9875
1462.82837	23122.3875
1466.23982	23340.2875
1469.64898	23483.3875
1473.05586	23599.8875
1476.46045	23517.9875
1479.86276	23336.3875
1483.26279	23198.8875
1486.66054	23108.4875
1490.05602	23107.0875
1493.44922	23232.8875
1496.84016	23534.1875
1500.22882	24025.9875
1503.61521	24823.0875
1506.99934	25772.2875
1510.38121	26634.4875
1513.76081	26910.9875
1517.13816	26429.8875
1520.51324	25476.8875
1523.88607	24603.4875
1527.25665	24109.9875
1530.62498	23900.4875
1533.99105	23796.9875
1537.35488	23690.0875
1540.71647	23494.5875
1544.07581	23154.6875
1547.4329	22844.9875
1550.78776	22524.1875
1554.14038	22304.7875
1557.49077	22228.6875
1560.83892	22195.4875
1564.18484	22203.6875
1567.52853	22268.9875
1570.86999	22444.3875
1574.20922	22684.1875
1577.54624	22874.7875
1580.88103	22920.9875
1584.2136	22833.0875
1587.54395	23015.4875
1590.87208	23483.8875
1594.19801	24280.9875
1597.52172	25148.6875
1600.84321	25477.2875
1604.16251	24884.0875
1607.47959	23720.6875
1610.79447	22456.2875
1614.10715	21134.1875
1617.41763	19961.7875
1620.7259	19118.3875
1624.03199	18571.5875
1627.33587	18450.6875
1630.63757	18708.7875
1633.93707	19363.3875
1637.23439	20471.0875
1640.52951	22103.9875
1643.82246	23982.1875
1647.11321	25517.7875
1650.40179	26073.1875
1653.68819	25001.0875
1656.97241	22838.1875
1660.25446	20460.5875
1663.53433	18667.4875
1666.81203	17406.5875
1670.08756	16583.4875
1673.36092	16071.4875
1676.63211	15742.7875
1679.90115	15523.4875
1683.16801	15304.1875
1686.43272	15144.9875
1689.69527	15053.1875
1692.95567	14955.7875
1696.2139	14924.8875
1699.46999	14888.6875
1702.72392	14850.8875
1705.97571	14797.3875
1709.22535	14745.3875
1712.47284	14717.1875
1715.71819	14715.3875
1718.96139	14648.1875
1722.20246	14662.6875
1725.44139	14583.1875
1728.67818	14527.8875
1731.91284	14472.0875
1735.14537	14386.3875
1738.37576	14299.5875
1741.60403	14245.7875
1744.83017	14224.6875
1748.05418	14229.5875
1751.27607	14223.6875
1754.49584	14236.4875
1757.71349	14170.8875
1760.92903	14193.9875
1764.14244	14164.2875
1767.35375	14158.2875
1770.56294	14112.3875
1773.77002	14067.1875
1776.97499	14042.9875
1780.17785	13976.5875
1783.37861	13968.6875
1786.57727	13943.7875
1789.77382	13897.7875
1792.96828	13883.4875
1796.16064	13855.4875
1799.3509	13812.3875
1802.53907	13785.5875
1805.72514	13743.6875
1808.90913	13720.6875
1812.09102	13695.9875
1815.27083	13668.5875
1818.44856	13648.5875
1821.6242	13615.0875
1824.79776	13595.6875
1827.96924	13567.4875
1831.13864	13548.0875
1834.30597	13564.0875
1837.47122	13505.7875
1840.6344	13508.2875
1843.7955	13533.2875
1846.95454	13494.0875
1850.11151	13489.8875
1853.26642	13477.1875
1856.41926	13469.6875
1859.57004	13456.2875
1862.71876	13424.6875
1865.86542	13409.4875
1869.01003	13414.1875
1872.15258	13382.6875
1875.29308	13381.0875
1878.43152	13385.2875
1881.56792	13352.7875
1884.70227	13323.8875
1887.83457	13290.1875
1890.96482	13292.2875
1894.09304	13260.9875
1897.21921	13234.1875
1900.34335	13256.7875
1903.46544	13243.9875
1906.58551	13231.3875
1909.70353	13192.6875
1912.81953	13173.7875
1915.93349	13158.0875
1919.04543	13128.8875
1922.15534	13099.3875
1925.26322	13063.2875
1928.36908	13054.3875
1931.47292	13053.9875
1934.57473	12981.4875
1937.67453	12966.9875
1940.77232	12908.7875
1943.86808	12911.2875
1946.96184	12870.9875
1950.05358	12808.3875
1953.14331	12780.7875
1956.23103	12745.9875
1959.31675	12705.5875
1962.40046	12652.3875
1965.48217	12658.4875
1968.56188	12613.3875
1971.63959	12542.4875
1974.7153	12513.0875
1977.78901	12519.0875
1980.86073	12453.0875
1983.93046	12412.6875
1986.99819	12384.4875
1990.06394	12331.5875
1993.1277	12284.1875
1996.18947	12256.7875
1999.24925	12212.6875
2002.30706	12177.8875
2005.36288	12142.3875
2008.41672	12119.6875
2011.46859	12061.4875
2014.51848	12041.2875
2017.56639	12025.3875
2020.61233	11994.0875
2023.6563	11956.5875
2026.6983	11932.7875
2029.73833	11908.2875
2032.7764	11885.5875
2035.8125	11845.2875
2038.84664	11805.0875
2041.87881	11742.5875
2044.90903	11741.4875
2047.93729	11744.6875
2050.96359	11717.3875
2053.98794	11693.8875
2057.01034	11693.1875
2060.03078	11669.0875
2063.04927	11657.5875
2066.06582	11643.4875
2069.08042	11648.3875
2072.09307	11650.0875
2075.10378	11653.2875
2078.11255	11617.2875
2081.11938	11628.0875
2084.12426	11617.6875
2087.12722	11609.2875
2090.12824	11586.6875
2093.12732	11593.0875
2096.12447	11587.9875
2099.11969	11562.5875
2102.11299	11568.2875
2105.10435	11572.6875
2108.09379	11562.6875
2111.08131	11576.0875
2114.0669	11571.6875
2117.05057	11575.4875
2120.03233	11598.0875
2123.01216	11603.6875
2125.99008	11594.1875
2128.96609	11607.2875
2131.94018	11653.4875
2134.91236	11649.9875
2137.88263	11597.9875
2140.851	11639.8875
2143.81746	11645.9875
2146.78201	11636.6875
2149.74466	11640.8875
2152.7054	11647.1875
2155.66425	11643.6875
2158.6212	11614.1875
2161.57625	11615.7875
2164.52941	11633.6875
2167.48067	11633.3875
2170.43004	11599.3875
2173.37752	11586.3875
2176.32311	11575.1875
2179.26681	11605.6875
2182.20863	11573.3875
2185.14856	11599.0875
2188.08661	11586.1875
2191.02278	11602.9875
2193.95707	11595.5875
2196.88948	11588.9875
2199.82001	11560.2875
2202.74867	11534.7875
2205.67545	11531.0875
2208.60037	11491.9875
2211.52341	11470.0875
2214.44458	11484.7875
2217.36388	11451.4875
2220.28132	11434.3875
2223.1969	11412.8875
2226.11061	11405.1875
2229.02246	11364.5875
2231.93245	11349.9875
2234.84058	11296.5875
2237.74686	11301.6875
2240.65128	11314.7875
2243.55385	11248.2875
2246.45456	11223.9875
2249.35343	11263.7875
2252.25044	11211.7875
2255.14561	11198.6875
2258.03893	11181.1875
2260.93041	11162.4875
2263.82004	11121.1875
2266.70783	11092.0875
2269.59378	11055.7875
2272.4779	11019.6875
2275.36017	10994.3875
2278.24061	10990.2875
2281.11922	10963.3875
2283.996	10970.4875
2286.87094	10952.8875
2289.74405	10928.2875
2292.61534	10916.5875
2295.4848	10892.6875
2298.35243	10917.6875
2301.21824	10880.5875
2304.08223	10888.0875
2306.94439	10894.9875
2309.80474	10850.7875
2312.66327	10846.0875
2315.51999	10822.9875
2318.37489	10846.6875
2321.22797	10844.1875
2324.07925	10797.0875
2326.92871	10776.9875
2329.77637	10754.5875
2332.62222	10748.2875
2335.46626	10706.7875
2338.3085	10723.7875
2341.14893	10701.9875
2343.98756	10697.7875
2346.8244	10703.3875
2349.65943	10699.2875
2352.49267	10676.3875
2355.32411	10666.0875
2358.15376	10689.1875
2360.98161	10668.2875
2363.80768	10678.8875
2366.63195	10674.7875
2369.45444	10652.8875
2372.27514	10610.5875
2375.09405	10614.6875
2377.91118	10606.8875
2380.72652	10540.9875
2383.54009	10549.9875
2386.35187	10491.7875
2389.16188	10482.2875
2391.97011	10450.6875
2394.77657	10429.8875
2397.58125	10426.1875
2400.38416	10383.0875
2403.18529	10399.9875
2405.98466	10372.5875
2408.78226	10349.5875
2411.57809	10333.3875
2414.37216	10333.1875
2417.16446	10319.9875
2419.955	10282.9875
2422.74378	10280.2875
2425.5308	10272.6875
2428.31606	10276.9875
2431.09956	10266.4875
2433.88131	10261.2875
2436.6613	10232.9875
2439.43954	10203.7875
2442.21603	10201.5875
2444.99077	10200.7875
2447.76377	10194.5875
2450.53501	10195.3875
2453.30451	10173.9875
2456.07226	10169.7875
2458.83827	10172.9875
2461.60254	10165.7875
2464.36507	10140.6875
2467.12586	10132.1875
2469.88492	10137.3875
2472.64224	10117.1875
2475.39782	10117.9875
2478.15167	10125.3875
2480.90379	10136.6875
2483.65417	10125.1875
2486.40283	10113.0875
2489.14976	10090.9875
2491.89497	10120.5875
2494.63845	10110.6875
2497.3802	10090.5875
2500.12024	10096.6875
2502.85855	10069.0875
2505.59514	10062.4875
2508.33002	10068.8875
2511.06318	10039.6875
2513.79462	10026.2875
2516.52435	9981.8875
2519.25237	9984.0875
2521.97867	9980.1875
2524.70327	9961.9875
2527.42616	9970.5875
2530.14734	9922.3875
2532.86681	9935.4875
2535.58458	9931.9875
2538.30065	9924.2875
2541.01501	9900.2875
2543.72768	9893.9875
2546.43864	9868.2875
2549.14791	9868.4875
2551.85548	9862.3875
2554.56136	9843.4875
2557.26554	9823.5875
2559.96803	9796.9875
2562.66883	9774.8875
2565.36794	9745.6875
2568.06536	9732.7875
2570.7611	9729.0875
2573.45514	9684.0875
2576.14751	9694.0875
2578.83819	9654.9875
2581.52719	9678.0875
2584.21451	9667.0875
2586.90015	9656.0875
2589.58411	9620.1875
2592.2664	9628.0875
2594.94701	9583.8875
2597.62594	9578.1875
2600.30321	9554.2875
2602.9788	9554.6875
2605.65273	9530.6875
2608.32498	9542.9875
2610.99557	9542.2875
2613.66449	9525.5875
2616.33175	9519.2875
2618.99734	9518.9875
2621.66128	9486.1875
2624.32355	9503.6875
2626.98416	9490.6875
2629.64311	9468.6875
2632.30041	9462.4875
2634.95605	9426.5875
2637.61004	9410.6875
2640.26238	9404.9875
2642.91306	9400.0875
2645.56209	9412.9875
2648.20948	9388.6875
2650.85521	9383.3875
2653.4993	9375.7875
2656.14175	9377.1875
2658.78255	9370.9875
2661.42171	9378.9875
2664.05923	9395.6875
2666.6951	9380.5875
2669.32934	9389.0875
2671.96194	9360.3875
2674.59291	9371.7875
2677.22224	9343.3875
2679.84993	9378.1875
2682.476	9359.6875
2685.10043	9340.8875
2687.72324	9351.8875
2690.34441	9341.6875
2692.96396	9357.8875
2695.58188	9338.7875
2698.19818	9318.9875
2700.81285	9330.6875
2703.4259	9332.0875
2706.03733	9356.2875
2708.64714	9333.7875
2711.25533	9347.8875
2713.86191	9346.3875
2716.46687	9346.8875
2719.07021	9345.3875
2721.67194	9328.6875
2724.27206	9360.1875
2726.87057	9348.8875
2729.46747	9363.6875
2732.06276	9372.8875
2734.65644	9339.3875
2737.24852	9338.9875
2739.83899	9319.1875
2742.42786	9324.8875
2745.01513	9291.8875
2747.60079	9293.8875
2750.18486	9271.2875
2752.76733	9271.4875
2755.3482	9253.5875
2757.92747	9235.4875
2760.50515	9234.9875
2763.08123	9203.5875
2765.65573	9169.4875
2768.22863	9211.8875
2770.79994	9213.5875
2773.36967	9175.9875
2775.9378	9188.0875
2778.50435	9177.2875
2781.06932	9175.0875
2783.6327	9160.9875
2786.1945	9152.4875
2788.75471	9129.3875
2791.31335	9117.9875
2793.87041	9108.5875
2796.42589	9109.1875
2798.97979	9096.1875
2801.53212	9078.7875
2804.08288	9078.1875
2806.63206	9038.4875
2809.17967	9006.9875
2811.72571	8993.5875
2814.27018	8980.0875
2816.81308	8934.1875
2819.35442	8948.4875
2821.89419	8915.7875
2824.43239	8904.6875
2826.96904	8890.3875
2829.50412	8888.4875
2832.03763	8877.0875
2834.56959	8861.9875
2837.1	8852.6875
2839.62884	8867.0875
2842.15613	8866.6875
2844.68186	8898.6875
2847.20604	8909.2875
2849.72867	8903.7875
2852.24974	8890.6875
2854.76927	8874.3875
2857.28724	8859.9875
2859.80367	8831.2875
2862.31855	8810.4875
2864.83189	8827.7875
2867.34368	8801.8875
2869.85393	8804.1875
2872.36264	8787.2875
2874.8698	8800.0875
2877.37543	8794.1875
2879.87952	8763.3875
2882.38207	8780.2875
2884.88308	8761.0875
2887.38256	8755.1875
2889.88051	8761.9875
2892.37692	8748.0875
2894.8718	8770.8875
2897.36515	8791.9875
2899.85698	8787.1875
2902.34727	8809.1875
2904.83604	8804.5875
2907.32328	8806.6875
2909.809	8819.3875
2912.29319	8823.2875
2914.77587	8821.9875
2917.25702	8798.8875
2919.73665	8786.9875
2922.21476	8815.2875
2924.69136	8790.3875
2927.16644	8786.1875
2929.64	8787.4875
2932.11205	8781.9875
2934.58258	8757.9875
2937.05161	8786.6875
2939.51912	8764.9875
2941.98513	8739.5875
2944.44962	8688.7875
2946.91261	8674.8875
2949.37409	8718.2875
2951.83407	8698.3875
2954.29254	8670.1875
2956.74951	8684.6875
2959.20498	8676.4875
2961.65895	8654.5875
2964.11142	8657.5875
2966.56239	8640.5875
2969.01186	8653.6875
2971.45984	8602.8875
2973.90632	8609.3875
2976.35131	8579.0875
2978.7948	8576.4875
2981.23681	8544.6875
2983.67732	8503.0875
2986.11635	8519.2875
2988.55388	8488.6875
2990.98993	8482.2875
2993.4245	8440.6875
2995.85758	8412.2875
2998.28917	8402.2875
3000.71928	8400.5875
3003.14791	8374.2875
3005.57506	8365.4875
3008.00073	8364.8875
3010.42493	8357.4875
3012.84764	8330.4875
3015.26888	8313.7875
3017.68865	8315.0875
3020.10694	8290.0875
3022.52376	8277.7875
3024.9391	8278.3875
3027.35298	8256.4875
3029.76539	8258.5875
3032.17632	8244.4875
3034.5858	8231.6875
3036.9938	8221.3875
3039.40034	8239.2875
3041.80542	8224.9875
3044.20903	8209.2875
3046.61118	8207.3875
3049.01187	8203.8875
3051.4111	8206.5875
3053.80888	8185.0875
3056.20519	8150.3875
3058.60005	8133.0875
3060.99345	8111.8875
3063.3854	8083.2875
3065.7759	8076.8875
3068.16494	8063.9875
3070.55254	8049.4875
3072.93868	8046.0875
3075.32338	8002.7875
3077.70662	8004.3875
3080.08842	7974.7875
3082.46878	7972.6875
3084.84769	7973.2875
3087.22515	7991.0875
3089.60118	7975.6875
3091.97576	7952.2875
3094.3489	7965.6875
3096.72061	7976.9875
3099.09087	7980.2875
3101.4597	7972.3875
3103.82709	7958.8875
3106.19305	7955.3875
3108.55757	7940.1875
3110.92066	7930.3875
3113.28232	7946.0875
3115.64255	7918.2875
3118.00134	7911.5875
3120.35871	7912.1875
3122.71466	7885.6875
3125.06917	7853.3875
3127.42226	7836.0875
3129.77393	7828.2875
3132.12417	7848.3875
3134.47299	7840.2875
3136.82039	7835.8875
3139.16636	7840.7875
3141.51092	7851.3875
3143.85406	7858.5875
3146.19579	7838.0875
3148.53609	7851.6875
3150.87499	7842.9875
3153.21246	7852.5875
3155.54853	7881.5875
3157.88318	7901.0875
3160.21642	7883.1875
3162.54826	7860.2875
3164.87868	7878.0875
3167.2077	7854.3875
3169.5353	7877.5875
3171.86151	7880.5875
3174.18631	7882.0875
3176.5097	7852.2875
3178.83169	7852.7875
3181.15228	7866.5875
3183.47147	7839.6875
3185.78926	7832.4875
3188.10565	7818.6875
3190.42065	7817.9875
3192.73424	7801.9875
3195.04645	7796.7875
3197.35725	7801.1875
3199.66667	7802.8875
3201.97469	7811.9875
3204.28132	7810.6875
3206.58656	7819.6875
3208.8904	7833.9875
3211.19287	7822.6875
3213.49394	7845.3875
3215.79363	7846.9875
3218.09193	7851.9875
3220.38884	7819.2875
3222.68438	7826.2875
3224.97853	7820.5875
3227.2713	7806.4875
3229.56269	7797.5875
3231.8527	7789.7875
3234.14133	7779.2875
3236.42858	7791.5875
3238.71446	7757.3875
3240.99896	7740.2875
3243.28209	7736.3875
3245.56384	7737.7875
3247.84423	7740.8875
3250.12324	7709.6875
3252.40088	7734.9875
3254.67715	7721.4875
3256.95205	7683.8875
3259.22558	7687.8875
3261.49775	7694.1875
3263.76855	7692.3875
3266.03799	7651.9875
3268.30606	7650.0875
3270.57277	7652.3875
3272.83812	7626.8875
3275.10211	7599.7875
3277.36474	7601.0875
3279.62601	7577.7875
3281.88593	7570.3875
3284.14448	7565.3875
3286.40168	7563.5875
3288.65753	7582.8875
3290.91202	7578.0875
3293.16516	7549.9875
3295.41695	7523.3875
3297.66738	7507.5875
3299.91647	7452.9875
3302.16421	7414.8875
3304.4106	7382.9875
3306.65564	7333.5875
3308.89933	7290.2875
3311.14169	7215.5875
3313.38269	7152.8875
3315.62236	7115.1875
3317.86068	7054.3875
3320.09766	6990.1875
3322.3333	6976.2875
3324.5676	6940.7875
3326.80056	6834.6875
3329.03219	6795.4875
3331.26248	3.7875
3333.49143	-0.5125
3335.71905	-0.8125
