Data from AgNP_FTO_APTES_UA_10uM_CRN_2uM_R6G_10uM_NaF_0.1M_Addition_RamanShift__31__14-33-00-619.txt Node

Date: Thu Feb 10 14:33:00 GMT 2022
User: TCL
Spectrometer: QEP01345
Trigger mode: 4
Integration Time (sec): 7.000000E0
Scans to average: 10
Electric dark correction enabled: true
Nonlinearity correction enabled: false
Boxcar width: 0
XAxis mode: Raman Shifts
Number of Pixels in Spectrum: 1044
>>>>>Begin Spectral Data<<<<<
46.04893	-0.2625
50.45542	0.5375
54.85868	-1.1625
59.25871	-0.1625
63.6555	45.5375
68.04907	47.6375
72.43941	49.3375
76.82654	49.9375
81.21044	55.8375
85.59113	55.8375
89.96862	59.3375
94.34289	63.2375
98.71396	64.1375
103.08183	68.0375
107.4465	67.7375
111.80798	66.8375
116.16626	70.8375
120.52136	70.2375
124.87327	74.5375
129.222	73.3375
133.56755	81.4375
137.90993	78.6375
142.24913	87.5375
146.58517	91.4375
150.91804	107.5375
155.24774	127.6375
159.57429	153.5375
163.89768	189.6375
168.21792	249.3375
172.53501	336.6375
176.84895	458.5375
181.15975	642.8375
185.46741	882.8375
189.77193	1228.1375
194.07331	1631.3375
198.37157	2096.2375
202.6667	2590.2375
206.9587	3059.3375
211.24758	3559.1375
215.53334	4069.7375
219.81599	4683.9375
224.09553	5332.8375
228.37195	6081.5375
232.64527	6898.6375
236.91549	7698.8375
241.18261	8394.0375
245.44663	8939.4375
249.70755	9339.2375
253.96539	9701.1375
258.22014	10007.4375
262.4718	10313.7375
266.72039	10545.5375
270.96589	10727.5375
275.20832	10769.1375
279.44768	10661.4375
283.68397	10571.2375
287.91719	10475.6375
292.14735	10572.7375
296.37445	10840.0375
300.59849	11325.4375
304.81948	11914.1375
309.03742	12315.0375
313.25231	12251.7375
317.46415	11538.3375
321.67296	10455.8375
325.87872	9568.5375
330.08145	9152.9375
334.28114	9110.4375
338.47781	9275.1375
342.67145	9607.1375
346.86207	10123.6375
351.04966	10840.5375
355.23424	11719.2375
359.4158	12307.1375
363.59435	12559.9375
367.76989	12606.4375
371.94243	12513.7375
376.11196	12372.0375
380.27849	12247.4375
384.44203	12044.1375
388.60257	11799.4375
392.76012	11719.8375
396.91468	11827.0375
401.06626	12222.1375
405.21485	12494.0375
409.36047	12179.8375
413.50311	11378.7375
417.64277	10613.2375
421.77947	10225.4375
425.9132	10059.0375
430.04396	10019.1375
434.17176	10045.1375
438.2966	10171.5375
442.41849	10443.8375
446.53742	10752.3375
450.6534	11087.3375
454.76644	11306.0375
458.87653	11321.9375
462.98368	11182.7375
467.08789	10945.3375
471.18916	10695.9375
475.2875	10379.4375
479.38291	10126.2375
483.4754	9916.2375
487.56496	9743.9375
491.6516	9638.5375
495.73531	9593.2375
499.81612	9665.7375
503.89401	9834.3375
507.96899	9970.1375
512.04106	10160.4375
516.11023	10374.1375
520.1765	10496.1375
524.23987	10442.2375
528.30034	10203.9375
532.35792	9871.1375
536.41261	9587.8375
540.46441	9299.2375
544.51333	9177.7375
548.55936	9255.3375
552.60252	9557.7375
556.64279	9920.3375
560.6802	10103.4375
564.71473	10297.1375
568.7464	10823.3375
572.7752	11219.5375
576.80114	10861.4375
580.82422	10399.8375
584.84444	10232.7375
588.86181	10109.6375
592.87633	10084.0375
596.888	10194.8375
600.89682	10686.4375
604.9028	12273.7375
608.90594	16574.7375
612.90624	22289.9375
616.90371	21132.9375
620.89834	13694.5375
624.89015	10355.6375
628.87913	9748.1375
632.86528	9831.7375
636.84862	10025.9375
640.82913	9806.3375
644.80683	9276.7375
648.78172	8915.9375
652.75379	8967.9375
656.72306	9526.3375
660.68952	10152.2375
664.65319	10027.4375
668.61405	9329.2375
672.57211	8998.3375
676.52738	8970.6375
680.47986	8928.3375
684.42955	8851.5375
688.37646	8780.1375
692.32058	8852.8375
696.26192	8957.0375
700.20048	9114.7375
704.13626	9257.4375
708.06928	9257.9375
711.99952	9166.0375
715.927	9120.1375
719.85171	9123.5375
723.77365	9082.4375
727.69284	8974.7375
731.60928	8858.4375
735.52295	8846.6375
739.43388	8878.7375
743.34206	8932.1375
747.24749	8983.6375
751.15017	9123.6375
755.05012	9372.1375
758.94733	9959.9375
762.8418	11392.2375
766.73354	13857.7375
770.62254	16429.3375
774.50882	17625.0375
778.39237	16644.4375
782.27321	13961.8375
786.15132	11435.8375
790.02671	9984.3375
793.89938	9359.2375
797.76935	9075.4375
801.6366	8942.2375
805.50115	8866.1375
809.36299	8775.1375
813.22213	8733.5375
817.07857	8706.5375
820.93231	8702.1375
824.78336	8743.5375
828.63172	8801.5375
832.47738	8824.2375
836.32036	8806.3375
840.16066	8721.7375
843.99827	8654.7375
847.8332	8623.1375
851.66546	8604.5375
855.49504	8622.6375
859.32195	8589.4375
863.1462	8558.3375
866.96777	8487.3375
870.78668	8475.1375
874.60293	8501.3375
878.41652	8529.9375
882.22745	8618.6375
886.03573	8651.9375
889.84136	8626.7375
893.64433	8551.9375
897.44466	8551.2375
901.24235	8528.8375
905.0374	8515.7375
908.8298	8491.2375
912.61957	8486.8375
916.40671	8525.9375
920.19121	8647.7375
923.97308	8754.4375
927.75233	8871.3375
931.52895	8968.1375
935.30295	8843.8375
939.07433	8506.8375
942.84309	8232.3375
946.60924	8019.1375
950.37278	7962.6375
954.13371	7887.5375
957.89203	7856.1375
961.64774	7869.4375
965.40086	7813.3375
969.15137	7796.7375
972.89929	7800.6375
976.64461	7786.5375
980.38733	7770.4375
984.12747	7802.1375
987.86502	7841.8375
991.59999	7910.5375
995.33237	8028.4375
999.06217	8221.6375
1002.78939	8483.1375
1006.51404	8745.6375
1010.23611	9009.1375
1013.95561	9174.4375
1017.67255	9131.2375
1021.38692	8950.6375
1025.09872	8786.5375
1028.80796	8737.4375
1032.51465	8765.3375
1036.21877	8910.6375
1039.92035	8991.7375
1043.61937	9003.0375
1047.31584	8959.3375
1051.00976	8885.2375
1054.70114	8841.8375
1058.38998	8827.7375
1062.07627	8890.0375
1065.76003	8987.7375
1069.44126	9068.3375
1073.11995	9189.7375
1076.79611	9358.2375
1080.46974	9523.8375
1084.14085	9841.8375
1087.80943	10172.3375
1091.47549	10301.5375
1095.13903	10075.5375
1098.80005	9615.9375
1102.45857	9222.1375
1106.11456	9062.0375
1109.76805	9133.2375
1113.41903	9366.4375
1117.06751	9758.1375
1120.71348	10278.6375
1124.35696	10832.7375
1127.99793	11318.8375
1131.63641	11251.0375
1135.2724	10610.2375
1138.90589	9988.1375
1142.5369	9620.7375
1146.16542	9396.6375
1149.79145	9248.0375
1153.415	9265.6375
1157.03607	9396.6375
1160.65467	9651.5375
1164.27079	10082.1375
1167.88443	10779.1375
1171.49561	11896.7375
1175.10432	13770.6375
1178.71056	16227.7375
1182.31434	17897.5375
1185.91565	18221.1375
1189.51451	17580.0375
1193.11091	16243.1375
1196.70485	14661.8375
1200.29634	13551.3375
1203.88538	12705.4375
1207.47197	11777.3375
1211.05612	10985.9375
1214.63782	10525.6375
1218.21708	10373.5375
1221.79391	10408.7375
1225.36829	10497.2375
1228.94024	10605.2375
1232.50976	10659.3375
1236.07685	10690.0375
1239.6415	10717.1375
1243.20374	10759.6375
1246.76355	10778.2375
1250.32093	10948.8375
1253.8759	11234.0375
1257.42845	11638.6375
1260.97859	12116.1375
1264.52631	12568.2375
1268.07163	13001.1375
1271.61453	13449.0375
1275.15503	13741.3375
1278.69312	13874.7375
1282.22882	13909.1375
1285.76211	14257.6375
1289.29301	14768.4375
1292.82151	15285.4375
1296.34761	15831.1375
1299.87133	16682.3375
1303.39266	18227.7375
1306.9116	20648.2375
1310.42815	23483.1375
1313.94233	25229.7375
1317.45412	24824.1375
1320.96354	23000.8375
1324.47058	20912.7375
1327.97525	19114.1375
1331.47754	17991.7375
1334.97747	17554.3375
1338.47502	17611.2375
1341.97022	17980.8375
1345.46305	18681.1375
1348.95352	19772.7375
1352.44163	21400.2375
1355.92738	23776.7375
1359.41078	27659.3375
1362.89183	31447.8375
1366.37053	30477.3375
1369.84688	25395.0375
1373.32088	20343.6375
1376.79254	17203.8375
1380.26186	15662.7375
1383.72883	14886.0375
1387.19347	14301.8375
1390.65578	13680.1375
1394.11575	13198.4375
1397.57339	12931.6375
1401.0287	12970.6375
1404.48168	13173.5375
1407.93234	13387.1375
1411.38068	13571.3375
1414.82669	13494.3375
1418.27039	13283.5375
1421.71177	12964.1375
1425.15083	12555.6375
1428.58758	12354.0375
1432.02203	12356.4375
1435.45416	12487.2375
1438.88399	12538.4375
1442.31151	12548.2375
1445.73673	12647.5375
1449.15965	12769.3375
1452.58027	12747.5375
1455.9986	12642.4375
1459.41463	12650.2375
1462.82837	12767.6375
1466.23982	13085.4375
1469.64898	13401.2375
1473.05586	13633.5375
1476.46045	13786.7375
1479.86276	14103.4375
1483.26279	14471.3375
1486.66054	14915.3375
1490.05602	15488.2375
1493.44922	16356.8375
1496.84016	17642.4375
1500.22882	19690.2375
1503.61521	22374.0375
1506.99934	25493.0375
1510.38121	28453.1375
1513.76081	29866.5375
1517.13816	28475.6375
1520.51324	24713.0375
1523.88607	20878.4375
1527.25665	18197.1375
1530.62498	16604.8375
1533.99105	15681.2375
1537.35488	15038.0375
1540.71647	14653.2375
1544.07581	14458.9375
1547.4329	14343.1375
1550.78776	14217.7375
1554.14038	14210.2375
1557.49077	14377.5375
1560.83892	14695.4375
1564.18484	15253.7375
1567.52853	15779.2375
1570.86999	16168.4375
1574.20922	16395.6375
1577.54624	16252.5375
1580.88103	15326.4375
1584.2136	14085.5375
1587.54395	13526.1375
1590.87208	13708.0375
1594.19801	14635.4375
1597.52172	15806.8375
1600.84321	16270.5375
1604.16251	15616.0375
1607.47959	14442.8375
1610.79447	13219.5375
1614.10715	12002.9375
1617.41763	11092.7375
1620.7259	10472.0375
1624.03199	10226.1375
1627.33587	10262.4375
1630.63757	10563.4375
1633.93707	11241.9375
1637.23439	12184.2375
1640.52951	13611.3375
1643.82246	15506.0375
1647.11321	17809.3375
1650.40179	19617.5375
1653.68819	19252.3375
1656.97241	16464.7375
1660.25446	13286.5375
1663.53433	11027.2375
1666.81203	9692.0375
1670.08756	8940.8375
1673.36092	8480.6375
1676.63211	8191.0375
1679.90115	8001.4375
1683.16801	7833.0375
1686.43272	7758.4375
1689.69527	7669.5375
1692.95567	7621.9375
1696.2139	7595.3375
1699.46999	7594.2375
1702.72392	7572.2375
1705.97571	7544.9375
1709.22535	7502.2375
1712.47284	7518.6375
1715.71819	7506.0375
1718.96139	7516.1375
1722.20246	7502.1375
1725.44139	7461.9375
1728.67818	7388.4375
1731.91284	7318.4375
1735.14537	7253.5375
1738.37576	7199.7375
1741.60403	7167.7375
1744.83017	7132.4375
1748.05418	7100.7375
1751.27607	7093.5375
1754.49584	7094.2375
1757.71349	7078.1375
1760.92903	7060.0375
1764.14244	7059.2375
1767.35375	7058.9375
1770.56294	7012.8375
1773.77002	6991.6375
1776.97499	6954.7375
1780.17785	6923.0375
1783.37861	6894.7375
1786.57727	6873.3375
1789.77382	6860.2375
1792.96828	6865.4375
1796.16064	6831.8375
1799.3509	6837.1375
1802.53907	6837.5375
1805.72514	6799.3375
1808.90913	6770.1375
1812.09102	6767.7375
1815.27083	6725.5375
1818.44856	6719.0375
1821.6242	6695.2375
1824.79776	6691.3375
1827.96924	6669.1375
1831.13864	6669.4375
1834.30597	6667.8375
1837.47122	6650.1375
1840.6344	6647.8375
1843.7955	6651.4375
1846.95454	6649.1375
1850.11151	6629.5375
1853.26642	6647.3375
1856.41926	6655.5375
1859.57004	6679.0375
1862.71876	6643.6375
1865.86542	6659.9375
1869.01003	6648.0375
1872.15258	6664.4375
1875.29308	6684.1375
1878.43152	6666.9375
1881.56792	6681.3375
1884.70227	6688.4375
1887.83457	6695.3375
1890.96482	6695.7375
1894.09304	6715.7375
1897.21921	6681.1375
1900.34335	6671.2375
1903.46544	6684.1375
1906.58551	6694.9375
1909.70353	6701.4375
1912.81953	6680.8375
1915.93349	6700.3375
1919.04543	6694.6375
1922.15534	6680.8375
1925.26322	6641.8375
1928.36908	6638.1375
1931.47292	6619.5375
1934.57473	6571.2375
1937.67453	6524.1375
1940.77232	6519.4375
1943.86808	6448.8375
1946.96184	6419.4375
1950.05358	6388.7375
1953.14331	6369.2375
1956.23103	6341.3375
1959.31675	6307.2375
1962.40046	6295.2375
1965.48217	6274.7375
1968.56188	6265.4375
1971.63959	6247.9375
1974.7153	6228.6375
1977.78901	6206.1375
1980.86073	6168.4375
1983.93046	6151.8375
1986.99819	6128.9375
1990.06394	6119.2375
1993.1277	6101.7375
1996.18947	6055.2375
1999.24925	6053.6375
2002.30706	6022.9375
2005.36288	5992.7375
2008.41672	5983.6375
2011.46859	5953.0375
2014.51848	5947.1375
2017.56639	5929.2375
2020.61233	5915.8375
2023.6563	5901.8375
2026.6983	5887.4375
2029.73833	5853.6375
2032.7764	5868.3375
2035.8125	5829.0375
2038.84664	5807.5375
2041.87881	5816.2375
2044.90903	5800.5375
2047.93729	5783.9375
2050.96359	5784.9375
2053.98794	5767.0375
2057.01034	5758.4375
2060.03078	5764.2375
2063.04927	5745.7375
2066.06582	5744.7375
2069.08042	5738.3375
2072.09307	5724.2375
2075.10378	5722.0375
2078.11255	5702.4375
2081.11938	5699.7375
2084.12426	5711.2375
2087.12722	5708.0375
2090.12824	5680.8375
2093.12732	5676.2375
2096.12447	5693.1375
2099.11969	5684.0375
2102.11299	5691.9375
2105.10435	5696.7375
2108.09379	5689.3375
2111.08131	5684.2375
2114.0669	5685.2375
2117.05057	5699.4375
2120.03233	5688.6375
2123.01216	5704.0375
2125.99008	5704.9375
2128.96609	5706.9375
2131.94018	5723.0375
2134.91236	5720.8375
2137.88263	5720.5375
2140.851	5696.1375
2143.81746	5700.9375
2146.78201	5703.3375
2149.74466	5695.6375
2152.7054	5691.0375
2155.66425	5672.1375
2158.6212	5663.4375
2161.57625	5657.9375
2164.52941	5674.1375
2167.48067	5674.8375
2170.43004	5656.6375
2173.37752	5654.0375
2176.32311	5661.4375
2179.26681	5659.0375
2182.20863	5656.4375
2185.14856	5661.9375
2188.08661	5642.3375
2191.02278	5650.6375
2193.95707	5635.0375
2196.88948	5619.1375
2199.82001	5630.0375
2202.74867	5630.9375
2205.67545	5607.4375
2208.60037	5612.4375
2211.52341	5606.2375
2214.44458	5592.7375
2217.36388	5592.8375
2220.28132	5574.7375
2223.1969	5552.6375
2226.11061	5545.4375
2229.02246	5525.7375
2231.93245	5510.4375
2234.84058	5512.9375
2237.74686	5485.4375
2240.65128	5487.6375
2243.55385	5473.6375
2246.45456	5461.2375
2249.35343	5467.9375
2252.25044	5468.3375
2255.14561	5475.1375
2258.03893	5473.4375
2260.93041	5476.7375
2263.82004	5445.0375
2266.70783	5448.7375
2269.59378	5424.1375
2272.4779	5411.6375
2275.36017	5378.7375
2278.24061	5384.8375
2281.11922	5361.2375
2283.996	5356.0375
2286.87094	5352.8375
2289.74405	5333.4375
2292.61534	5320.3375
2295.4848	5318.5375
2298.35243	5309.6375
2301.21824	5286.4375
2304.08223	5299.6375
2306.94439	5282.2375
2309.80474	5278.9375
2312.66327	5303.1375
2315.51999	5295.6375
2318.37489	5297.3375
2321.22797	5272.1375
2324.07925	5253.4375
2326.92871	5278.8375
2329.77637	5270.7375
2332.62222	5255.8375
2335.46626	5255.6375
2338.3085	5245.6375
2341.14893	5258.9375
2343.98756	5263.8375
2346.8244	5274.0375
2349.65943	5274.7375
2352.49267	5265.7375
2355.32411	5280.3375
2358.15376	5304.5375
2360.98161	5293.3375
2363.80768	5305.7375
2366.63195	5295.9375
2369.45444	5314.0375
2372.27514	5309.2375
2375.09405	5292.6375
2377.91118	5281.2375
2380.72652	5252.1375
2383.54009	5212.1375
2386.35187	5212.3375
2389.16188	5165.4375
2391.97011	5139.3375
2394.77657	5138.4375
2397.58125	5112.6375
2400.38416	5101.6375
2403.18529	5085.9375
2405.98466	5080.1375
2408.78226	5091.0375
2411.57809	5050.4375
2414.37216	5058.6375
2417.16446	5050.2375
2419.955	5030.6375
2422.74378	5034.6375
2425.5308	5018.7375
2428.31606	5033.4375
2431.09956	5028.0375
2433.88131	5015.4375
2436.6613	5022.3375
2439.43954	5015.7375
2442.21603	5017.9375
2444.99077	5038.2375
2447.76377	5045.8375
2450.53501	5020.0375
2453.30451	5034.7375
2456.07226	5021.0375
2458.83827	5017.5375
2461.60254	5025.5375
2464.36507	5028.1375
2467.12586	5011.7375
2469.88492	5013.6375
2472.64224	5013.6375
2475.39782	5020.6375
2478.15167	5034.9375
2480.90379	5049.9375
2483.65417	5061.6375
2486.40283	5081.6375
2489.14976	5076.3375
2491.89497	5091.7375
2494.63845	5104.2375
2497.3802	5096.8375
2500.12024	5083.0375
2502.85855	5072.0375
2505.59514	5052.9375
2508.33002	5025.2375
2511.06318	5022.2375
2513.79462	4971.7375
2516.52435	4962.1375
2519.25237	4950.6375
2521.97867	4921.0375
2524.70327	4899.7375
2527.42616	4919.0375
2530.14734	4905.5375
2532.86681	4903.0375
2535.58458	4888.7375
2538.30065	4901.2375
2541.01501	4894.2375
2543.72768	4904.3375
2546.43864	4901.8375
2549.14791	4892.6375
2551.85548	4905.8375
2554.56136	4892.0375
2557.26554	4869.3375
2559.96803	4874.7375
2562.66883	4863.2375
2565.36794	4851.3375
2568.06536	4829.8375
2570.7611	4842.5375
2573.45514	4826.6375
2576.14751	4817.6375
2578.83819	4810.2375
2581.52719	4808.2375
2584.21451	4801.8375
2586.90015	4798.5375
2589.58411	4802.3375
2592.2664	4790.0375
2594.94701	4788.8375
2597.62594	4786.3375
2600.30321	4781.1375
2602.9788	4790.4375
2605.65273	4790.4375
2608.32498	4792.6375
2610.99557	4795.1375
2613.66449	4779.7375
2616.33175	4768.5375
2618.99734	4774.0375
2621.66128	4779.4375
2624.32355	4783.9375
2626.98416	4777.3375
2629.64311	4763.8375
2632.30041	4743.1375
2634.95605	4743.4375
2637.61004	4747.1375
2640.26238	4726.5375
2642.91306	4710.7375
2645.56209	4707.2375
2648.20948	4708.5375
2650.85521	4708.0375
2653.4993	4707.5375
2656.14175	4695.5375
2658.78255	4694.1375
2661.42171	4705.6375
2664.05923	4716.3375
2666.6951	4724.7375
2669.32934	4749.4375
2671.96194	4754.3375
2674.59291	4748.9375
2677.22224	4748.1375
2679.84993	4757.7375
2682.476	4750.4375
2685.10043	4767.4375
2687.72324	4744.3375
2690.34441	4749.5375
2692.96396	4755.8375
2695.58188	4740.0375
2698.19818	4732.2375
2700.81285	4758.3375
2703.4259	4753.1375
2706.03733	4747.9375
2708.64714	4741.8375
2711.25533	4754.2375
2713.86191	4752.5375
2716.46687	4755.9375
2719.07021	4758.6375
2721.67194	4768.5375
2724.27206	4767.0375
2726.87057	4759.3375
2729.46747	4767.9375
2732.06276	4756.2375
2734.65644	4752.0375
2737.24852	4756.9375
2739.83899	4748.2375
2742.42786	4737.2375
2745.01513	4724.5375
2747.60079	4723.5375
2750.18486	4707.2375
2752.76733	4724.0375
2755.3482	4700.5375
2757.92747	4686.3375
2760.50515	4677.0375
2763.08123	4670.2375
2765.65573	4653.5375
2768.22863	4672.4375
2770.79994	4650.0375
2773.36967	4668.5375
2775.9378	4648.7375
2778.50435	4656.4375
2781.06932	4653.1375
2783.6327	4650.7375
2786.1945	4667.8375
2788.75471	4635.1375
2791.31335	4634.4375
2793.87041	4640.8375
2796.42589	4650.0375
2798.97979	4636.7375
2801.53212	4628.6375
2804.08288	4623.6375
2806.63206	4635.7375
2809.17967	4624.1375
2811.72571	4618.4375
2814.27018	4620.7375
2816.81308	4619.7375
2819.35442	4620.2375
2821.89419	4635.1375
2824.43239	4646.3375
2826.96904	4639.2375
2829.50412	4629.0375
2832.03763	4636.1375
2834.56959	4633.9375
2837.1	4646.4375
2839.62884	4658.4375
2842.15613	4672.8375
2844.68186	4715.6375
2847.20604	4753.5375
2849.72867	4764.6375
2852.24974	4779.6375
2854.76927	4773.8375
2857.28724	4772.7375
2859.80367	4752.5375
2862.31855	4744.8375
2864.83189	4735.2375
2867.34368	4738.4375
2869.85393	4736.0375
2872.36264	4726.6375
2874.8698	4735.3375
2877.37543	4718.7375
2879.87952	4726.6375
2882.38207	4698.4375
2884.88308	4691.1375
2887.38256	4703.6375
2889.88051	4681.9375
2892.37692	4689.0375
2894.8718	4692.9375
2897.36515	4685.1375
2899.85698	4684.5375
2902.34727	4708.5375
2904.83604	4690.1375
2907.32328	4707.6375
2909.809	4709.1375
2912.29319	4704.8375
2914.77587	4715.3375
2917.25702	4694.7375
2919.73665	4685.6375
2922.21476	4697.8375
2924.69136	4697.7375
2927.16644	4688.4375
2929.64	4687.8375
2932.11205	4652.6375
2934.58258	4646.2375
2937.05161	4639.6375
2939.51912	4618.8375
2941.98513	4596.2375
2944.44962	4573.1375
2946.91261	4540.8375
2949.37409	4554.7375
2951.83407	4520.5375
2954.29254	4500.0375
2956.74951	4501.1375
2959.20498	4495.7375
2961.65895	4482.5375
2964.11142	4500.4375
2966.56239	4454.1375
2969.01186	4454.8375
2971.45984	4444.5375
2973.90632	4425.0375
2976.35131	4428.6375
2978.7948	4413.5375
2981.23681	4401.7375
2983.67732	4389.7375
2986.11635	4376.4375
2988.55388	4371.1375
2990.98993	4346.3375
2993.4245	4340.3375
2995.85758	4336.4375
2998.28917	4311.3375
3000.71928	4299.9375
3003.14791	4289.8375
3005.57506	4290.5375
3008.00073	4283.2375
3010.42493	4154.9375
3012.84764	4268.8375
3015.26888	4260.2375
3017.68865	4255.2375
3020.10694	4237.4375
3022.52376	4219.6375
3024.9391	4241.1375
3027.35298	4215.1375
3029.76539	4222.1375
3032.17632	4222.7375
3034.5858	4204.7375
3036.9938	4201.5375
3039.40034	4191.4375
3041.80542	4199.4375
3044.20903	4179.2375
3046.61118	4172.5375
3049.01187	4158.7375
3051.4111	4152.4375
3053.80888	4141.6375
3056.20519	4143.5375
3058.60005	4133.8375
3060.99345	4138.2375
3063.3854	4119.6375
3065.7759	4100.2375
3068.16494	4106.1375
3070.55254	4079.4375
3072.93868	4082.3375
3075.32338	4054.5375
3077.70662	4031.6375
3080.08842	4035.9375
3082.46878	4023.2375
3084.84769	4004.6375
3087.22515	4009.6375
3089.60118	4026.1375
3091.97576	4021.9375
3094.3489	3997.5375
3096.72061	3997.6375
3099.09087	4003.3375
3101.4597	3988.7375
3103.82709	3987.2375
3106.19305	3987.4375
3108.55757	3987.1375
3110.92066	3974.3375
3113.28232	3976.4375
3115.64255	3966.6375
3118.00134	3965.4375
3120.35871	3960.8375
3122.71466	3939.3375
3125.06917	3936.9375
3127.42226	3944.4375
3129.77393	3937.4375
3132.12417	3937.9375
3134.47299	3937.0375
3136.82039	3943.9375
3139.16636	3948.6375
3141.51092	3935.0375
3143.85406	3948.5375
3146.19579	3942.4375
3148.53609	3941.0375
3150.87499	3946.8375
3153.21246	3950.0375
3155.54853	3965.9375
3157.88318	3970.3375
3160.21642	3973.1375
3162.54826	3969.9375
3164.87868	3971.2375
3167.2077	3976.9375
3169.5353	3976.2375
3171.86151	3975.4375
3174.18631	3979.6375
3176.5097	3980.9375
3178.83169	3972.0375
3181.15228	3979.4375
3183.47147	3949.0375
3185.78926	3960.2375
3188.10565	3955.1375
3190.42065	3958.2375
3192.73424	3964.3375
3195.04645	3965.6375
3197.35725	3975.7375
3199.66667	3968.9375
3201.97469	3994.7375
3204.28132	3969.2375
3206.58656	3999.4375
3208.8904	4001.6375
3211.19287	3991.9375
3213.49394	3991.2375
3215.79363	3992.3375
3218.09193	3999.5375
3220.38884	4002.5375
3222.68438	4002.9375
3224.97853	4007.0375
3227.2713	4005.4375
3229.56269	3999.0375
3231.8527	3981.0375
3234.14133	3977.8375
3236.42858	3980.4375
3238.71446	3969.5375
3240.99896	3971.6375
3243.28209	3959.3375
3245.56384	3950.9375
3247.84423	3953.7375
3250.12324	3949.0375
3252.40088	3952.0375
3254.67715	3931.9375
3256.95205	3932.2375
3259.22558	3926.7375
3261.49775	3923.3375
3263.76855	3909.4375
3266.03799	3927.1375
3268.30606	3900.8375
3270.57277	3906.2375
3272.83812	3884.2375
3275.10211	3892.3375
3277.36474	3882.8375
3279.62601	3881.4375
3281.88593	3879.0375
3284.14448	3876.4375
3286.40168	3876.2375
3288.65753	3880.9375
3290.91202	3875.2375
3293.16516	3858.6375
3295.41695	3866.5375
3297.66738	3835.4375
3299.91647	3825.0375
3302.16421	3801.4375
3304.4106	3768.6375
3306.65564	3750.2375
3308.89933	3709.1375
3311.14169	3687.5375
3313.38269	3651.4375
3315.62236	3622.9375
3317.86068	3603.8375
3320.09766	3571.3375
3322.3333	3552.7375
3324.5676	3529.5375
3326.80056	3471.7375
3329.03219	3447.6375
3331.26248	2.4375
3333.49143	-0.9625
3335.71905	-0.4625
