Data from AgNPs_FTO_APTES_UA_0.1mM_CRN_100uM_NaF_0.1M_Addition_RamanShift__19__13-38-27-690.txt Node

Date: Mon Dec 20 13:38:27 GMT 2021
User: TCL
Spectrometer: QEP01345
Trigger mode: 4
Integration Time (sec): 7.000000E0
Scans to average: 10
Electric dark correction enabled: true
Nonlinearity correction enabled: false
Boxcar width: 0
XAxis mode: Raman Shifts
Number of Pixels in Spectrum: 1044
>>>>>Begin Spectral Data<<<<<
46.04893	-0.475
50.45542	-1.375
54.85868	-1.075
59.25871	1.325
63.6555	29.125
68.04907	31.025
72.43941	34.625
76.82654	35.625
81.21044	35.025
85.59113	40.825
89.96862	38.425
94.34289	40.425
98.71396	40.825
103.08183	41.325
107.4465	44.025
111.80798	46.225
116.16626	47.825
120.52136	49.125
124.87327	51.225
129.222	50.425
133.56755	51.925
137.90993	58.425
142.24913	60.525
146.58517	60.925
150.91804	77.425
155.24774	89.625
159.57429	105.625
163.89768	135.925
168.21792	177.025
172.53501	225.025
176.84895	310.025
181.15975	431.825
185.46741	593.025
189.77193	831.425
194.07331	1117.025
198.37157	1441.725
202.6667	1807.625
206.9587	2172.525
211.24758	2520.025
215.53334	2872.425
219.81599	3234.725
224.09553	3638.125
228.37195	4058.625
232.64527	4499.425
236.91549	4941.325
241.18261	5396.425
245.44663	5800.925
249.70755	6145.825
253.96539	6446.125
258.22014	6678.925
262.4718	6844.025
266.72039	6943.425
270.96589	6956.925
275.20832	6897.725
279.44768	6789.625
283.68397	6666.725
287.91719	6571.925
292.14735	6476.025
296.37445	6399.325
300.59849	6388.925
304.81948	6377.025
309.03742	6374.825
313.25231	6298.725
317.46415	6213.225
321.67296	6098.125
325.87872	5990.625
330.08145	5940.625
334.28114	5932.225
338.47781	5956.725
342.67145	6021.225
346.86207	6084.225
351.04966	6178.625
355.23424	6296.225
359.4158	6404.925
363.59435	6500.425
367.76989	6568.125
371.94243	6606.325
376.11196	6674.525
380.27849	6724.225
384.44203	6780.825
388.60257	6799.825
392.76012	6861.825
396.91468	6929.425
401.06626	6990.325
405.21485	7057.025
409.36047	7053.325
413.50311	6984.025
417.64277	6907.225
421.77947	6876.025
425.9132	6884.725
430.04396	6892.225
434.17176	6910.425
438.2966	6951.225
442.41849	7017.425
446.53742	7094.525
450.6534	7173.525
454.76644	7234.925
458.87653	7295.825
462.98368	7313.125
467.08789	7309.325
471.18916	7296.425
475.2875	7309.325
479.38291	7353.425
483.4754	7413.125
487.56496	7492.725
491.6516	7553.625
495.73531	7626.225
499.81612	7599.025
503.89401	7543.925
507.96899	7513.425
512.04106	7469.725
516.11023	7454.325
520.1765	7443.425
524.23987	7470.725
528.30034	7453.825
532.35792	7472.125
536.41261	7414.025
540.46441	7339.425
544.51333	7262.625
548.55936	7233.825
552.60252	7220.625
556.64279	7242.125
560.6802	7270.025
564.71473	7312.225
568.7464	7372.625
572.7752	7430.025
576.80114	7457.825
580.82422	7445.425
584.84444	7499.425
588.86181	7596.125
592.87633	7634.825
596.888	7646.125
600.89682	7656.925
604.9028	7781.825
608.90594	8217.825
612.90624	8887.525
616.90371	8884.725
620.89834	8316.125
624.89015	8170.625
628.87913	8470.525
632.86528	8885.925
636.84862	9147.725
640.82913	9080.125
644.80683	8797.025
648.78172	8405.225
652.75379	8133.725
656.72306	7946.425
660.68952	7918.225
664.65319	7893.225
668.61405	7877.625
672.57211	7890.925
676.52738	7985.625
680.47986	8066.525
684.42955	8063.925
688.37646	8018.025
692.32058	7947.725
696.26192	7851.725
700.20048	7775.425
704.13626	7699.425
708.06928	7617.825
711.99952	7514.025
715.927	7456.125
719.85171	7405.225
723.77365	7425.325
727.69284	7435.825
731.60928	7405.125
735.52295	7317.125
739.43388	7268.625
743.34206	7254.925
747.24749	7262.825
751.15017	7290.325
755.05012	7333.725
758.94733	7397.425
762.8418	7545.225
766.73354	7786.125
770.62254	8068.725
774.50882	8223.125
778.39237	8068.825
782.27321	7744.925
786.15132	7440.625
790.02671	7298.825
793.89938	7251.725
797.76935	7259.725
801.6366	7323.225
805.50115	7432.225
809.36299	7607.825
813.22213	7682.625
817.07857	7596.925
820.93231	7422.825
824.78336	7234.325
828.63172	7065.025
832.47738	6971.125
836.32036	6920.025
840.16066	6887.825
843.99827	6881.625
847.8332	6856.225
851.66546	6831.425
855.49504	6840.925
859.32195	6862.725
863.1462	6889.625
866.96777	6956.525
870.78668	7002.125
874.60293	7092.725
878.41652	7200.225
882.22745	7336.925
886.03573	7403.625
889.84136	7390.725
893.64433	7291.125
897.44466	7160.725
901.24235	6979.825
905.0374	6842.125
908.8298	6770.825
912.61957	6702.725
916.40671	6684.225
920.19121	6660.125
923.97308	6667.725
927.75233	6662.925
931.52895	6649.925
935.30295	6642.925
939.07433	6606.225
942.84309	6549.825
946.60924	6514.125
950.37278	6492.125
954.13371	6497.025
957.89203	6469.125
961.64774	6447.325
965.40086	6434.925
969.15137	6396.225
972.89929	6365.925
976.64461	6359.625
980.38733	6327.525
984.12747	6325.625
987.86502	6354.825
991.59999	6380.225
995.33237	6396.125
999.06217	6477.225
1002.78939	6546.125
1006.51404	6605.625
1010.23611	6686.825
1013.95561	6755.225
1017.67255	6776.025
1021.38692	6737.525
1025.09872	6669.825
1028.80796	6588.025
1032.51465	6554.325
1036.21877	6490.525
1039.92035	6488.825
1043.61937	6466.825
1047.31584	6448.325
1051.00976	6442.525
1054.70114	6469.625
1058.38998	6513.125
1062.07627	6555.325
1065.76003	6596.425
1069.44126	6659.225
1073.11995	6695.925
1076.79611	6729.225
1080.46974	6716.525
1084.14085	6679.125
1087.80943	6631.425
1091.47549	6594.425
1095.13903	6543.225
1098.80005	6497.425
1102.45857	6444.825
1106.11456	6450.925
1109.76805	6468.225
1113.41903	6550.025
1117.06751	6696.725
1120.71348	6922.625
1124.35696	7230.625
1127.99793	7623.025
1131.63641	7989.925
1135.2724	8189.125
1138.90589	8168.025
1142.5369	7967.125
1146.16542	7663.925
1149.79145	7353.325
1153.415	7065.725
1157.03607	6868.225
1160.65467	6716.725
1164.27079	6704.425
1167.88443	6754.525
1171.49561	6879.825
1175.10432	7082.025
1178.71056	7379.625
1182.31434	7653.125
1185.91565	7783.425
1189.51451	7806.825
1193.11091	7777.825
1196.70485	7750.425
1200.29634	7745.025
1203.88538	7696.325
1207.47197	7590.725
1211.05612	7445.525
1214.63782	7273.625
1218.21708	7082.025
1221.79391	6934.025
1225.36829	6819.525
1228.94024	6741.725
1232.50976	6684.425
1236.07685	6644.025
1239.6415	6644.725
1243.20374	6653.925
1246.76355	6705.025
1250.32093	6723.225
1253.8759	6768.925
1257.42845	6820.225
1260.97859	6879.625
1264.52631	6934.025
1268.07163	6979.325
1271.61453	7022.025
1275.15503	7054.925
1278.69312	7064.425
1282.22882	7091.825
1285.76211	7153.025
1289.29301	7227.725
1292.82151	7362.925
1296.34761	7532.825
1299.87133	7723.525
1303.39266	7976.825
1306.9116	8304.325
1310.42815	8657.525
1313.94233	8860.225
1317.45412	8856.725
1320.96354	8725.925
1324.47058	8594.425
1327.97525	8441.125
1331.47754	8366.425
1334.97747	8381.825
1338.47502	8397.625
1341.97022	8514.425
1345.46305	8624.325
1348.95352	8773.125
1352.44163	8962.925
1355.92738	9245.925
1359.41078	9646.725
1362.89183	10046.925
1366.37053	9987.825
1369.84688	9386.625
1373.32088	8734.825
1376.79254	8267.825
1380.26186	8008.725
1383.72883	7842.825
1387.19347	7759.725
1390.65578	7605.625
1394.11575	7529.225
1397.57339	7470.225
1401.0287	7394.025
1404.48168	7370.925
1407.93234	7300.225
1411.38068	7201.125
1414.82669	7070.325
1418.27039	6909.925
1421.71177	6754.425
1425.15083	6602.925
1428.58758	6508.025
1432.02203	6409.525
1435.45416	6410.725
1438.88399	6415.325
1442.31151	6407.525
1445.73673	6440.125
1449.15965	6447.525
1452.58027	6464.825
1455.9986	6482.225
1459.41463	6496.525
1462.82837	6530.125
1466.23982	6565.225
1469.64898	6652.125
1473.05586	6687.925
1476.46045	6713.225
1479.86276	6707.525
1483.26279	6720.025
1486.66054	6731.125
1490.05602	6773.925
1493.44922	6854.225
1496.84016	6990.925
1500.22882	7186.625
1503.61521	7496.825
1506.99934	7852.425
1510.38121	8195.325
1513.76081	8308.725
1517.13816	8094.825
1520.51324	7729.225
1523.88607	7345.225
1527.25665	7103.525
1530.62498	7001.025
1533.99105	6953.525
1537.35488	6964.025
1540.71647	6976.825
1544.07581	6979.025
1547.4329	6975.025
1550.78776	7005.125
1554.14038	7005.025
1557.49077	7046.425
1560.83892	7075.525
1564.18484	7144.125
1567.52853	7194.025
1570.86999	7245.225
1574.20922	7317.725
1577.54624	7389.125
1580.88103	7345.825
1584.2136	7254.825
1587.54395	7189.625
1590.87208	7196.125
1594.19801	7267.025
1597.52172	7404.125
1600.84321	7459.425
1604.16251	7403.525
1607.47959	7238.325
1610.79447	7092.425
1614.10715	6918.825
1617.41763	6771.325
1620.7259	6666.225
1624.03199	6612.025
1627.33587	6589.825
1630.63757	6647.625
1633.93707	6749.025
1637.23439	6943.825
1640.52951	7231.325
1643.82246	7552.625
1647.11321	7949.225
1650.40179	8212.525
1653.68819	8139.525
1656.97241	7769.325
1660.25446	7320.825
1663.53433	6982.425
1666.81203	6745.625
1670.08756	6633.325
1673.36092	6548.725
1676.63211	6466.325
1679.90115	6441.225
1683.16801	6345.525
1686.43272	6261.225
1689.69527	6145.625
1692.95567	6019.725
1696.2139	5911.225
1699.46999	5775.525
1702.72392	5669.425
1705.97571	5557.425
1709.22535	5465.225
1712.47284	5391.525
1715.71819	5352.825
1718.96139	5295.525
1722.20246	5256.525
1725.44139	5189.025
1728.67818	5148.025
1731.91284	5105.325
1735.14537	5035.725
1738.37576	5016.925
1741.60403	4983.825
1744.83017	4966.525
1748.05418	4953.125
1751.27607	4939.725
1754.49584	4944.825
1757.71349	4950.025
1760.92903	4924.925
1764.14244	4902.425
1767.35375	4874.225
1770.56294	4831.425
1773.77002	4794.725
1776.97499	4746.525
1780.17785	4719.525
1783.37861	4687.625
1786.57727	4651.925
1789.77382	4610.725
1792.96828	4590.025
1796.16064	4564.025
1799.3509	4543.225
1802.53907	4525.025
1805.72514	4512.525
1808.90913	4469.225
1812.09102	4462.925
1815.27083	4462.525
1818.44856	4435.625
1821.6242	4436.725
1824.79776	4421.625
1827.96924	4414.725
1831.13864	4398.925
1834.30597	4403.425
1837.47122	4395.025
1840.6344	4384.925
1843.7955	4370.625
1846.95454	4358.225
1850.11151	4368.625
1853.26642	4347.025
1856.41926	4346.525
1859.57004	4349.525
1862.71876	4355.125
1865.86542	4341.925
1869.01003	4325.025
1872.15258	4330.825
1875.29308	4310.525
1878.43152	4294.925
1881.56792	4304.325
1884.70227	4282.325
1887.83457	4269.825
1890.96482	4289.025
1894.09304	4260.125
1897.21921	4250.425
1900.34335	4246.925
1903.46544	4243.225
1906.58551	4237.425
1909.70353	4237.225
1912.81953	4229.525
1915.93349	4213.025
1919.04543	4208.325
1922.15534	4193.425
1925.26322	4202.025
1928.36908	4187.925
1931.47292	4162.525
1934.57473	4150.625
1937.67453	4137.725
1940.77232	4133.725
1943.86808	4131.325
1946.96184	4108.725
1950.05358	4089.925
1953.14331	4084.925
1956.23103	4068.225
1959.31675	4064.625
1962.40046	4051.725
1965.48217	4037.725
1968.56188	4030.525
1971.63959	4014.725
1974.7153	3992.225
1977.78901	3984.425
1980.86073	3983.325
1983.93046	3969.225
1986.99819	3946.525
1990.06394	3942.825
1993.1277	3928.925
1996.18947	3901.125
1999.24925	3908.525
2002.30706	3893.125
2005.36288	3891.625
2008.41672	3870.225
2011.46859	3850.125
2014.51848	3835.025
2017.56639	3823.825
2020.61233	3813.225
2023.6563	3800.325
2026.6983	3802.525
2029.73833	3780.125
2032.7764	3782.825
2035.8125	3769.425
2038.84664	3750.725
2041.87881	3768.625
2044.90903	3747.625
2047.93729	3731.625
2050.96359	3739.225
2053.98794	3730.925
2057.01034	3712.625
2060.03078	3718.825
2063.04927	3704.425
2066.06582	3719.625
2069.08042	3705.525
2072.09307	3694.225
2075.10378	3704.325
2078.11255	3701.425
2081.11938	3690.825
2084.12426	3694.525
2087.12722	3690.025
2090.12824	3689.025
2093.12732	3694.725
2096.12447	3690.325
2099.11969	3689.025
2102.11299	3694.125
2105.10435	3687.825
2108.09379	3700.025
2111.08131	3695.525
2114.0669	3681.025
2117.05057	3699.825
2120.03233	3696.225
2123.01216	3708.725
2125.99008	3702.925
2128.96609	3698.225
2131.94018	3702.225
2134.91236	3707.225
2137.88263	3707.625
2140.851	3711.325
2143.81746	3710.125
2146.78201	3712.625
2149.74466	3703.225
2152.7054	3723.925
2155.66425	3712.025
2158.6212	3699.325
2161.57625	3706.025
2164.52941	3707.525
2167.48067	3705.625
2170.43004	3699.925
2173.37752	3692.725
2176.32311	3684.325
2179.26681	3687.625
2182.20863	3696.225
2185.14856	3668.625
2188.08661	3684.325
2191.02278	3683.025
2193.95707	3669.525
2196.88948	3662.325
2199.82001	3666.825
2202.74867	3656.125
2205.67545	3651.225
2208.60037	3637.925
2211.52341	3656.525
2214.44458	3638.325
2217.36388	3623.925
2220.28132	3616.825
2223.1969	3599.925
2226.11061	3599.025
2229.02246	3587.025
2231.93245	3578.125
2234.84058	3574.225
2237.74686	3557.425
2240.65128	3561.825
2243.55385	3561.825
2246.45456	3564.525
2249.35343	3547.725
2252.25044	3544.325
2255.14561	3532.325
2258.03893	3535.525
2260.93041	3529.825
2263.82004	3510.525
2266.70783	3504.025
2269.59378	3504.425
2272.4779	3483.425
2275.36017	3476.425
2278.24061	3471.825
2281.11922	3470.625
2283.996	3468.525
2286.87094	3449.625
2289.74405	3448.125
2292.61534	3439.825
2295.4848	3427.125
2298.35243	3422.225
2301.21824	3419.525
2304.08223	3420.725
2306.94439	3420.625
2309.80474	3419.525
2312.66327	3415.425
2315.51999	3412.125
2318.37489	3407.025
2321.22797	3396.525
2324.07925	3401.425
2326.92871	3394.925
2329.77637	3379.825
2332.62222	3370.925
2335.46626	3357.725
2338.3085	3354.425
2341.14893	3355.325
2343.98756	3358.725
2346.8244	3363.625
2349.65943	3350.225
2352.49267	3343.325
2355.32411	3341.625
2358.15376	3332.625
2360.98161	3333.125
2363.80768	3332.525
2366.63195	3336.925
2369.45444	3339.225
2372.27514	3318.325
2375.09405	3321.625
2377.91118	3308.525
2380.72652	3304.125
2383.54009	3287.625
2386.35187	3289.625
2389.16188	3294.125
2391.97011	3274.925
2394.77657	3270.125
2397.58125	3278.425
2400.38416	3257.525
2403.18529	3248.925
2405.98466	3256.325
2408.78226	3237.825
2411.57809	3232.625
2414.37216	3230.525
2417.16446	3225.125
2419.955	3211.925
2422.74378	3221.525
2425.5308	3220.825
2428.31606	3211.925
2431.09956	3204.125
2433.88131	3202.225
2436.6613	3195.125
2439.43954	3195.225
2442.21603	3188.625
2444.99077	3177.225
2447.76377	3178.225
2450.53501	3185.525
2453.30451	3190.525
2456.07226	3170.925
2458.83827	3163.725
2461.60254	3163.925
2464.36507	3152.825
2467.12586	3150.425
2469.88492	3150.425
2472.64224	3151.825
2475.39782	3131.025
2478.15167	3151.625
2480.90379	3142.825
2483.65417	3138.725
2486.40283	3130.125
2489.14976	3134.825
2491.89497	3137.125
2494.63845	3144.625
2497.3802	3123.425
2500.12024	3122.525
2502.85855	3126.125
2505.59514	3113.825
2508.33002	3114.825
2511.06318	3104.825
2513.79462	3104.925
2516.52435	3102.525
2519.25237	3099.825
2521.97867	3095.225
2524.70327	3081.525
2527.42616	3080.725
2530.14734	3079.625
2532.86681	3070.025
2535.58458	3062.225
2538.30065	3056.425
2541.01501	3061.225
2543.72768	3046.025
2546.43864	3044.925
2549.14791	3024.425
2551.85548	3033.025
2554.56136	3023.025
2557.26554	3004.425
2559.96803	3013.925
2562.66883	3002.625
2565.36794	3008.325
2568.06536	2992.025
2570.7611	2988.825
2573.45514	3002.325
2576.14751	2988.525
2578.83819	2981.625
2581.52719	2970.125
2584.21451	2967.725
2586.90015	2962.025
2589.58411	2958.425
2592.2664	2936.525
2594.94701	2943.025
2597.62594	2948.825
2600.30321	2931.025
2602.9788	2934.025
2605.65273	2928.425
2608.32498	2921.825
2610.99557	2908.625
2613.66449	2919.825
2616.33175	2900.625
2618.99734	2912.625
2621.66128	2908.325
2624.32355	2892.325
2626.98416	2902.825
2629.64311	2894.425
2632.30041	2891.525
2634.95605	2873.025
2637.61004	2888.925
2640.26238	2893.125
2642.91306	2887.425
2645.56209	2860.725
2648.20948	2866.825
2650.85521	2858.025
2653.4993	2858.925
2656.14175	2869.725
2658.78255	2856.825
2661.42171	2863.125
2664.05923	2864.825
2666.6951	2861.425
2669.32934	2870.125
2671.96194	2853.525
2674.59291	2859.025
2677.22224	2864.625
2679.84993	2863.125
2682.476	2851.525
2685.10043	2866.925
2687.72324	2847.125
2690.34441	2854.125
2692.96396	2839.725
2695.58188	2858.425
2698.19818	2859.625
2700.81285	2859.625
2703.4259	2863.225
2706.03733	2892.125
2708.64714	2884.325
2711.25533	2862.225
2713.86191	2867.825
2716.46687	2867.425
2719.07021	2861.625
2721.67194	2848.125
2724.27206	2848.725
2726.87057	2856.925
2729.46747	2862.025
2732.06276	2862.625
2734.65644	2854.125
2737.24852	2857.125
2739.83899	2851.425
2742.42786	2839.325
2745.01513	2834.725
2747.60079	2830.625
2750.18486	2831.325
2752.76733	2825.825
2755.3482	2819.725
2757.92747	2826.125
2760.50515	2823.625
2763.08123	2814.925
2765.65573	2814.225
2768.22863	2814.825
2770.79994	2810.425
2773.36967	2803.225
2775.9378	2794.325
2778.50435	2787.325
2781.06932	2799.125
2783.6327	2783.825
2786.1945	2781.725
2788.75471	2780.425
2791.31335	2766.625
2793.87041	2766.125
2796.42589	2765.325
2798.97979	2761.925
2801.53212	2757.325
2804.08288	2752.325
2806.63206	2745.325
2809.17967	2745.425
2811.72571	2733.225
2814.27018	2744.125
2816.81308	2731.725
2819.35442	2732.725
2821.89419	2720.325
2824.43239	2731.925
2826.96904	2724.625
2829.50412	2719.525
2832.03763	2718.325
2834.56959	2720.825
2837.1	2703.925
2839.62884	2720.825
2842.15613	2704.925
2844.68186	2709.925
2847.20604	2719.125
2849.72867	2718.625
2852.24974	2702.425
2854.76927	2720.725
2857.28724	2701.525
2859.80367	2702.425
2862.31855	2698.925
2864.83189	2705.525
2867.34368	2702.925
2869.85393	2700.225
2872.36264	2703.925
2874.8698	2693.125
2877.37543	2695.125
2879.87952	2698.225
2882.38207	2700.825
2884.88308	2693.725
2887.38256	2708.525
2889.88051	2714.225
2892.37692	2714.125
2894.8718	2712.625
2897.36515	2723.825
2899.85698	2710.225
2902.34727	2727.825
2904.83604	2727.425
2907.32328	2741.825
2909.809	2718.925
2912.29319	2737.125
2914.77587	2737.225
2917.25702	2754.025
2919.73665	2736.825
2922.21476	2736.925
2924.69136	2748.425
2927.16644	2761.225
2929.64	2756.625
2932.11205	2754.825
2934.58258	2762.125
2937.05161	2759.925
2939.51912	2764.725
2941.98513	2757.325
2944.44962	2756.525
2946.91261	2751.625
2949.37409	2757.325
2951.83407	2757.125
2954.29254	2757.325
2956.74951	2748.125
2959.20498	2734.725
2961.65895	2733.025
2964.11142	2722.825
2966.56239	2713.625
2969.01186	2715.225
2971.45984	2704.825
2973.90632	2689.625
2976.35131	2696.425
2978.7948	2678.525
2981.23681	2671.425
2983.67732	2659.025
2986.11635	2667.725
2988.55388	2654.025
2990.98993	2658.625
2993.4245	2646.725
2995.85758	2652.125
2998.28917	2647.725
3000.71928	2643.425
3003.14791	2636.825
3005.57506	2653.025
3008.00073	2639.725
3010.42493	2642.125
3012.84764	2642.025
3015.26888	2641.925
3017.68865	2631.725
3020.10694	2636.525
3022.52376	2625.425
3024.9391	2633.225
3027.35298	2627.225
3029.76539	2617.725
3032.17632	2613.725
3034.5858	2619.525
3036.9938	2611.425
3039.40034	2607.825
3041.80542	2610.125
3044.20903	2606.925
3046.61118	2604.925
3049.01187	2596.225
3051.4111	2613.025
3053.80888	2611.925
3056.20519	2616.125
3058.60005	2596.625
3060.99345	2603.425
3063.3854	2590.025
3065.7759	2582.025
3068.16494	2594.025
3070.55254	2591.325
3072.93868	2592.925
3075.32338	2585.725
3077.70662	2580.225
3080.08842	2598.025
3082.46878	2596.525
3084.84769	2581.125
3087.22515	2600.025
3089.60118	2595.325
3091.97576	2599.025
3094.3489	2604.225
3096.72061	2606.525
3099.09087	2623.025
3101.4597	2626.125
3103.82709	2629.325
3106.19305	2613.325
3108.55757	2635.925
3110.92066	2621.725
3113.28232	2619.025
3115.64255	2628.325
3118.00134	2611.525
3120.35871	2622.725
3122.71466	2619.725
3125.06917	2637.025
3127.42226	2618.925
3129.77393	2648.725
3132.12417	2635.425
3134.47299	2645.225
3136.82039	2655.625
3139.16636	2657.725
3141.51092	2675.425
3143.85406	2677.425
3146.19579	2674.525
3148.53609	2677.125
3150.87499	2695.525
3153.21246	2698.725
3155.54853	2720.725
3157.88318	2722.125
3160.21642	2730.725
3162.54826	2734.225
3164.87868	2741.525
3167.2077	2742.225
3169.5353	2745.025
3171.86151	2736.225
3174.18631	2747.825
3176.5097	2752.525
3178.83169	2750.825
3181.15228	2755.825
3183.47147	2768.825
3185.78926	2774.525
3188.10565	2771.725
3190.42065	2773.925
3192.73424	2776.225
3195.04645	2789.325
3197.35725	2784.525
3199.66667	2785.725
3201.97469	2810.025
3204.28132	2824.225
3206.58656	2806.825
3208.8904	2820.725
3211.19287	2832.225
3213.49394	2820.225
3215.79363	2827.725
3218.09193	2844.725
3220.38884	2842.925
3222.68438	2854.525
3224.97853	2841.925
3227.2713	2852.725
3229.56269	2836.625
3231.8527	2823.025
3234.14133	2825.425
3236.42858	2832.425
3238.71446	2834.825
3240.99896	2824.025
3243.28209	2839.425
3245.56384	2827.425
3247.84423	2837.925
3250.12324	2835.925
3252.40088	2825.225
3254.67715	2840.225
3256.95205	2829.825
3259.22558	2819.625
3261.49775	2830.525
3263.76855	2831.425
3266.03799	2815.725
3268.30606	2821.825
3270.57277	2809.925
3272.83812	2811.025
3275.10211	2813.825
3277.36474	2808.625
3279.62601	2820.725
3281.88593	2817.925
3284.14448	2803.625
3286.40168	2813.325
3288.65753	2790.825
3290.91202	2786.225
3293.16516	2782.225
3295.41695	2780.625
3297.66738	2763.225
3299.91647	2750.925
3302.16421	2725.425
3304.4106	2737.325
3306.65564	2727.425
3308.89933	2715.025
3311.14169	2702.425
3313.38269	2681.425
3315.62236	2650.825
3317.86068	2644.625
3320.09766	2609.525
3322.3333	2606.825
3324.5676	2612.525
3326.80056	2565.325
3329.03219	2567.025
3331.26248	0.725
3333.49143	0.825
3335.71905	-0.075
