Data from AgNPs_FTO_APTES_UA_0.1mM_CRN_20uM_NaF_0.1M_Addition_RamanShift__24__12-24-57-608.txt Node

Date: Mon Dec 20 12:24:57 GMT 2021
User: TCL
Spectrometer: QEP01345
Trigger mode: 4
Integration Time (sec): 7.000000E0
Scans to average: 10
Electric dark correction enabled: true
Nonlinearity correction enabled: false
Boxcar width: 0
XAxis mode: Raman Shifts
Number of Pixels in Spectrum: 1044
>>>>>Begin Spectral Data<<<<<
46.04893	1.0125
50.45542	-1.2875
54.85868	-1.5875
59.25871	-0.3875
63.6555	34.5125
68.04907	33.2125
72.43941	39.4125
76.82654	40.1125
81.21044	41.9125
85.59113	48.0125
89.96862	46.0125
94.34289	44.9125
98.71396	45.0125
103.08183	45.9125
107.4465	48.7125
111.80798	55.7125
116.16626	52.9125
120.52136	56.5125
124.87327	58.6125
129.222	56.9125
133.56755	58.7125
137.90993	65.9125
142.24913	71.0125
146.58517	74.8125
150.91804	87.7125
155.24774	99.7125
159.57429	122.9125
163.89768	153.7125
168.21792	205.5125
172.53501	260.5125
176.84895	366.7125
181.15975	506.9125
185.46741	703.9125
189.77193	969.4125
194.07331	1298.0125
198.37157	1675.4125
202.6667	2084.6125
206.9587	2490.3125
211.24758	2906.4125
215.53334	3289.9125
219.81599	3727.2125
224.09553	4155.1125
228.37195	4631.8125
232.64527	5129.3125
236.91549	5684.9125
241.18261	6202.9125
245.44663	6706.3125
249.70755	7155.6125
253.96539	7530.5125
258.22014	7882.7125
262.4718	8101.4125
266.72039	8258.2125
270.96589	8311.1125
275.20832	8296.7125
279.44768	8215.7125
283.68397	8113.2125
287.91719	7981.9125
292.14735	7897.7125
296.37445	7877.7125
300.59849	7872.3125
304.81948	7867.8125
309.03742	7857.4125
313.25231	7789.8125
317.46415	7677.3125
321.67296	7480.5125
325.87872	7359.4125
330.08145	7279.6125
334.28114	7280.7125
338.47781	7326.3125
342.67145	7377.3125
346.86207	7490.8125
351.04966	7626.3125
355.23424	7805.3125
359.4158	7934.1125
363.59435	8027.7125
367.76989	8127.8125
371.94243	8196.3125
376.11196	8268.5125
380.27849	8321.5125
384.44203	8397.3125
388.60257	8447.6125
392.76012	8474.3125
396.91468	8610.3125
401.06626	8686.5125
405.21485	8739.5125
409.36047	8740.7125
413.50311	8651.6125
417.64277	8547.6125
421.77947	8501.4125
425.9132	8449.3125
430.04396	8504.8125
434.17176	8551.3125
438.2966	8608.9125
442.41849	8667.2125
446.53742	8809.8125
450.6534	8915.7125
454.76644	9030.7125
458.87653	9069.4125
462.98368	9084.6125
467.08789	9044.8125
471.18916	9047.6125
475.2875	9044.5125
479.38291	9090.7125
483.4754	9155.6125
487.56496	9276.9125
491.6516	9381.8125
495.73531	9408.9125
499.81612	9365.4125
503.89401	9291.1125
507.96899	9224.5125
512.04106	9148.3125
516.11023	9121.2125
520.1765	9147.0125
524.23987	9172.5125
528.30034	9216.6125
532.35792	9186.3125
536.41261	9133.8125
540.46441	9024.0125
544.51333	8912.8125
548.55936	8874.1125
552.60252	8897.0125
556.64279	8944.9125
560.6802	8969.0125
564.71473	9001.6125
568.7464	9100.6125
572.7752	9192.0125
576.80114	9198.7125
580.82422	9219.4125
584.84444	9283.3125
588.86181	9445.5125
592.87633	9520.8125
596.888	9540.5125
600.89682	9541.6125
604.9028	9695.4125
608.90594	10318.0125
612.90624	11187.4125
616.90371	11185.4125
620.89834	10270.3125
624.89015	10070.3125
628.87913	10486.4125
632.86528	10970.3125
636.84862	11286.6125
640.82913	11172.3125
644.80683	10742.4125
648.78172	10189.4125
652.75379	9771.3125
656.72306	9572.3125
660.68952	9531.3125
664.65319	9441.7125
668.61405	9387.2125
672.57211	9362.7125
676.52738	9410.0125
680.47986	9404.5125
684.42955	9372.7125
688.37646	9341.8125
692.32058	9316.7125
696.26192	9238.1125
700.20048	9194.0125
704.13626	9142.5125
708.06928	9068.6125
711.99952	8970.3125
715.927	8944.2125
719.85171	8948.6125
723.77365	8990.2125
727.69284	8982.8125
731.60928	8916.0125
735.52295	8801.6125
739.43388	8785.7125
743.34206	8778.6125
747.24749	8789.9125
751.15017	8805.9125
755.05012	8839.0125
758.94733	8938.2125
762.8418	9162.4125
766.73354	9543.2125
770.62254	9999.4125
774.50882	10185.4125
778.39237	9976.5125
782.27321	9505.4125
786.15132	9087.6125
790.02671	8859.5125
793.89938	8801.7125
797.76935	8798.7125
801.6366	8889.3125
805.50115	9062.8125
809.36299	9316.7125
813.22213	9380.5125
817.07857	9300.4125
820.93231	9049.2125
824.78336	8775.5125
828.63172	8579.0125
832.47738	8474.9125
836.32036	8404.2125
840.16066	8398.0125
843.99827	8361.1125
847.8332	8346.9125
851.66546	8331.4125
855.49504	8315.6125
859.32195	8347.9125
863.1462	8352.8125
866.96777	8407.4125
870.78668	8519.9125
874.60293	8655.4125
878.41652	8800.9125
882.22745	8953.7125
886.03573	9054.4125
889.84136	9049.6125
893.64433	8899.1125
897.44466	8679.5125
901.24235	8436.6125
905.0374	8259.0125
908.8298	8154.3125
912.61957	8077.1125
916.40671	8055.7125
920.19121	8041.0125
923.97308	8071.1125
927.75233	8025.3125
931.52895	8013.8125
935.30295	7979.7125
939.07433	7928.0125
942.84309	7879.0125
946.60924	7833.0125
950.37278	7841.4125
954.13371	7812.2125
957.89203	7785.2125
961.64774	7734.4125
965.40086	7728.1125
969.15137	7705.6125
972.89929	7653.8125
976.64461	7641.1125
980.38733	7608.1125
984.12747	7601.4125
987.86502	7617.4125
991.59999	7662.5125
995.33237	7697.8125
999.06217	7801.8125
1002.78939	7930.6125
1006.51404	8066.0125
1010.23611	8173.3125
1013.95561	8249.8125
1017.67255	8255.4125
1021.38692	8222.6125
1025.09872	8096.4125
1028.80796	8009.3125
1032.51465	7926.8125
1036.21877	7896.3125
1039.92035	7846.7125
1043.61937	7817.3125
1047.31584	7776.7125
1051.00976	7753.3125
1054.70114	7799.1125
1058.38998	7821.3125
1062.07627	7876.0125
1065.76003	7939.1125
1069.44126	8011.9125
1073.11995	8052.3125
1076.79611	8083.2125
1080.46974	8038.0125
1084.14085	7996.3125
1087.80943	7985.8125
1091.47549	7957.4125
1095.13903	7903.0125
1098.80005	7815.1125
1102.45857	7756.9125
1106.11456	7732.1125
1109.76805	7757.6125
1113.41903	7854.6125
1117.06751	8058.8125
1120.71348	8342.8125
1124.35696	8737.3125
1127.99793	9198.4125
1131.63641	9681.4125
1135.2724	9882.8125
1138.90589	9876.6125
1142.5369	9659.1125
1146.16542	9271.1125
1149.79145	8839.9125
1153.415	8494.2125
1157.03607	8213.8125
1160.65467	8106.7125
1164.27079	8073.9125
1167.88443	8214.1125
1171.49561	8380.0125
1175.10432	8702.1125
1178.71056	9168.4125
1182.31434	9592.3125
1185.91565	9805.6125
1189.51451	9872.0125
1193.11091	9795.5125
1196.70485	9793.3125
1200.29634	9766.0125
1203.88538	9731.9125
1207.47197	9580.0125
1211.05612	9302.6125
1214.63782	9062.7125
1218.21708	8775.6125
1221.79391	8557.8125
1225.36829	8402.0125
1228.94024	8257.3125
1232.50976	8161.3125
1236.07685	8097.8125
1239.6415	8075.0125
1243.20374	8077.7125
1246.76355	8110.8125
1250.32093	8173.7125
1253.8759	8220.9125
1257.42845	8323.1125
1260.97859	8434.1125
1264.52631	8489.4125
1268.07163	8600.7125
1271.61453	8666.9125
1275.15503	8734.2125
1278.69312	8782.3125
1282.22882	8834.9125
1285.76211	8925.5125
1289.29301	9075.0125
1292.82151	9270.4125
1296.34761	9524.3125
1299.87133	9858.3125
1303.39266	10264.2125
1306.9116	10742.0125
1310.42815	11245.7125
1313.94233	11550.4125
1317.45412	11558.1125
1320.96354	11349.0125
1324.47058	11133.5125
1327.97525	10945.7125
1331.47754	10820.9125
1334.97747	10811.4125
1338.47502	10861.4125
1341.97022	10946.2125
1345.46305	11062.8125
1348.95352	11233.3125
1352.44163	11416.0125
1355.92738	11777.0125
1359.41078	12341.4125
1362.89183	12870.9125
1366.37053	12756.8125
1369.84688	11892.6125
1373.32088	10898.2125
1376.79254	10241.1125
1380.26186	9861.3125
1383.72883	9708.8125
1387.19347	9600.7125
1390.65578	9489.6125
1394.11575	9393.8125
1397.57339	9331.6125
1401.0287	9349.2125
1404.48168	9323.8125
1407.93234	9258.8125
1411.38068	9163.4125
1414.82669	8898.7125
1418.27039	8644.1125
1421.71177	8378.2125
1425.15083	8134.8125
1428.58758	7974.4125
1432.02203	7924.9125
1435.45416	7941.0125
1438.88399	7975.9125
1442.31151	8032.9125
1445.73673	8096.1125
1449.15965	8150.5125
1452.58027	8197.0125
1455.9986	8195.9125
1459.41463	8258.9125
1462.82837	8314.6125
1466.23982	8379.8125
1469.64898	8456.3125
1473.05586	8543.2125
1476.46045	8568.1125
1479.86276	8560.2125
1483.26279	8574.3125
1486.66054	8594.3125
1490.05602	8628.8125
1493.44922	8722.3125
1496.84016	8887.5125
1500.22882	9153.7125
1503.61521	9535.3125
1506.99934	9989.0125
1510.38121	10389.2125
1513.76081	10530.0125
1517.13816	10265.7125
1520.51324	9724.0125
1523.88607	9232.2125
1527.25665	8941.5125
1530.62498	8811.6125
1533.99105	8761.8125
1537.35488	8786.1125
1540.71647	8773.7125
1544.07581	8783.1125
1547.4329	8762.9125
1550.78776	8769.1125
1554.14038	8787.0125
1557.49077	8793.5125
1560.83892	8867.7125
1564.18484	8888.8125
1567.52853	8953.6125
1570.86999	9022.0125
1574.20922	9090.2125
1577.54624	9137.0125
1580.88103	9093.3125
1584.2136	8945.7125
1587.54395	8939.3125
1590.87208	9058.6125
1594.19801	9234.7125
1597.52172	9530.5125
1600.84321	9689.5125
1604.16251	9575.4125
1607.47959	9288.0125
1610.79447	8981.3125
1614.10715	8663.8125
1617.41763	8420.8125
1620.7259	8244.7125
1624.03199	8165.1125
1627.33587	8155.9125
1630.63757	8245.8125
1633.93707	8442.0125
1637.23439	8773.0125
1640.52951	9236.6125
1643.82246	9870.1125
1647.11321	10474.1125
1650.40179	10794.1125
1653.68819	10615.7125
1656.97241	9954.5125
1660.25446	9153.3125
1663.53433	8540.6125
1666.81203	8143.1125
1670.08756	7850.7125
1673.36092	7666.2125
1676.63211	7517.5125
1679.90115	7416.6125
1683.16801	7295.1125
1686.43272	7172.1125
1689.69527	7049.4125
1692.95567	6921.0125
1696.2139	6837.7125
1699.46999	6717.2125
1702.72392	6593.3125
1705.97571	6474.1125
1709.22535	6354.6125
1712.47284	6300.3125
1715.71819	6214.4125
1718.96139	6162.5125
1722.20246	6108.0125
1725.44139	6033.5125
1728.67818	5979.1125
1731.91284	5925.3125
1735.14537	5858.4125
1738.37576	5823.9125
1741.60403	5791.3125
1744.83017	5747.2125
1748.05418	5735.7125
1751.27607	5731.8125
1754.49584	5711.2125
1757.71349	5693.5125
1760.92903	5692.0125
1764.14244	5687.0125
1767.35375	5636.1125
1770.56294	5635.9125
1773.77002	5599.8125
1776.97499	5552.8125
1780.17785	5513.9125
1783.37861	5521.6125
1786.57727	5494.9125
1789.77382	5452.2125
1792.96828	5445.8125
1796.16064	5419.1125
1799.3509	5402.5125
1802.53907	5380.5125
1805.72514	5365.4125
1808.90913	5344.0125
1812.09102	5340.0125
1815.27083	5323.5125
1818.44856	5312.7125
1821.6242	5283.2125
1824.79776	5295.7125
1827.96924	5277.6125
1831.13864	5255.3125
1834.30597	5258.7125
1837.47122	5253.5125
1840.6344	5235.0125
1843.7955	5228.0125
1846.95454	5218.6125
1850.11151	5222.5125
1853.26642	5218.3125
1856.41926	5206.3125
1859.57004	5211.5125
1862.71876	5215.3125
1865.86542	5195.8125
1869.01003	5197.4125
1872.15258	5172.8125
1875.29308	5167.8125
1878.43152	5157.0125
1881.56792	5136.3125
1884.70227	5133.3125
1887.83457	5129.2125
1890.96482	5116.7125
1894.09304	5119.9125
1897.21921	5094.3125
1900.34335	5097.3125
1903.46544	5086.9125
1906.58551	5090.2125
1909.70353	5078.3125
1912.81953	5067.1125
1915.93349	5053.1125
1919.04543	5039.0125
1922.15534	5032.6125
1925.26322	5017.2125
1928.36908	5005.7125
1931.47292	4997.3125
1934.57473	4976.8125
1937.67453	4948.9125
1940.77232	4957.4125
1943.86808	4927.2125
1946.96184	4924.8125
1950.05358	4914.0125
1953.14331	4899.4125
1956.23103	4869.7125
1959.31675	4875.9125
1962.40046	4861.3125
1965.48217	4832.4125
1968.56188	4821.2125
1971.63959	4805.3125
1974.7153	4790.8125
1977.78901	4780.7125
1980.86073	4747.0125
1983.93046	4748.7125
1986.99819	4716.8125
1990.06394	4708.9125
1993.1277	4704.7125
1996.18947	4675.9125
1999.24925	4675.4125
2002.30706	4644.8125
2005.36288	4651.0125
2008.41672	4625.1125
2011.46859	4600.3125
2014.51848	4592.2125
2017.56639	4565.4125
2020.61233	4575.2125
2023.6563	4553.0125
2026.6983	4532.0125
2029.73833	4542.5125
2032.7764	4529.3125
2035.8125	4522.6125
2038.84664	4497.9125
2041.87881	4510.4125
2044.90903	4485.0125
2047.93729	4479.5125
2050.96359	4463.8125
2053.98794	4479.2125
2057.01034	4467.3125
2060.03078	4456.3125
2063.04927	4447.2125
2066.06582	4447.6125
2069.08042	4437.6125
2072.09307	4437.1125
2075.10378	4423.2125
2078.11255	4426.1125
2081.11938	4437.6125
2084.12426	4434.4125
2087.12722	4422.3125
2090.12824	4405.8125
2093.12732	4421.3125
2096.12447	4415.1125
2099.11969	4416.8125
2102.11299	4405.5125
2105.10435	4416.4125
2108.09379	4408.2125
2111.08131	4408.8125
2114.0669	4398.6125
2117.05057	4419.0125
2120.03233	4411.3125
2123.01216	4410.8125
2125.99008	4409.3125
2128.96609	4411.6125
2131.94018	4410.1125
2134.91236	4413.5125
2137.88263	4410.6125
2140.851	4424.9125
2143.81746	4431.1125
2146.78201	4430.5125
2149.74466	4409.8125
2152.7054	4421.0125
2155.66425	4417.5125
2158.6212	4419.8125
2161.57625	4417.7125
2164.52941	4433.0125
2167.48067	4414.1125
2170.43004	4420.9125
2173.37752	4408.6125
2176.32311	4397.6125
2179.26681	4401.1125
2182.20863	4400.3125
2185.14856	4397.3125
2188.08661	4397.6125
2191.02278	4381.4125
2193.95707	4378.2125
2196.88948	4360.3125
2199.82001	4373.7125
2202.74867	4357.5125
2205.67545	4364.5125
2208.60037	4361.6125
2211.52341	4345.5125
2214.44458	4348.8125
2217.36388	4326.9125
2220.28132	4322.1125
2223.1969	4292.6125
2226.11061	4300.2125
2229.02246	4280.3125
2231.93245	4290.6125
2234.84058	4255.1125
2237.74686	4250.3125
2240.65128	4249.4125
2243.55385	4249.3125
2246.45456	4231.6125
2249.35343	4234.8125
2252.25044	4233.2125
2255.14561	4220.5125
2258.03893	4211.7125
2260.93041	4208.9125
2263.82004	4203.7125
2266.70783	4185.5125
2269.59378	4175.9125
2272.4779	4181.6125
2275.36017	4150.9125
2278.24061	4151.7125
2281.11922	4146.6125
2283.996	4130.0125
2286.87094	4122.3125
2289.74405	4126.8125
2292.61534	4098.4125
2295.4848	4094.7125
2298.35243	4094.2125
2301.21824	4089.0125
2304.08223	4095.9125
2306.94439	4084.5125
2309.80474	4071.6125
2312.66327	4069.7125
2315.51999	4072.4125
2318.37489	4056.9125
2321.22797	4064.3125
2324.07925	4054.2125
2326.92871	4050.4125
2329.77637	4041.8125
2332.62222	4034.9125
2335.46626	4026.2125
2338.3085	4012.7125
2341.14893	4022.7125
2343.98756	4027.8125
2346.8244	3998.0125
2349.65943	3987.9125
2352.49267	4010.3125
2355.32411	4000.4125
2358.15376	3992.8125
2360.98161	3988.6125
2363.80768	3978.6125
2366.63195	3986.3125
2369.45444	3984.7125
2372.27514	3971.6125
2375.09405	3986.5125
2377.91118	3971.3125
2380.72652	3956.9125
2383.54009	3952.2125
2386.35187	3942.4125
2389.16188	3931.0125
2391.97011	3919.4125
2394.77657	3924.3125
2397.58125	3915.2125
2400.38416	3894.3125
2403.18529	3892.9125
2405.98466	3891.8125
2408.78226	3875.2125
2411.57809	3866.4125
2414.37216	3862.8125
2417.16446	3858.1125
2419.955	3839.3125
2422.74378	3846.7125
2425.5308	3845.3125
2428.31606	3824.8125
2431.09956	3822.2125
2433.88131	3829.5125
2436.6613	3819.8125
2439.43954	3806.9125
2442.21603	3809.9125
2444.99077	3800.6125
2447.76377	3789.0125
2450.53501	3797.2125
2453.30451	3798.2125
2456.07226	3800.5125
2458.83827	3797.6125
2461.60254	3783.0125
2464.36507	3760.2125
2467.12586	3757.5125
2469.88492	3763.6125
2472.64224	3757.4125
2475.39782	3768.5125
2478.15167	3766.3125
2480.90379	3749.9125
2483.65417	3757.5125
2486.40283	3747.6125
2489.14976	3759.1125
2491.89497	3729.1125
2494.63845	3748.7125
2497.3802	3748.6125
2500.12024	3746.5125
2502.85855	3742.9125
2505.59514	3722.3125
2508.33002	3711.4125
2511.06318	3713.2125
2513.79462	3714.4125
2516.52435	3707.3125
2519.25237	3697.2125
2521.97867	3693.6125
2524.70327	3691.1125
2527.42616	3681.5125
2530.14734	3674.5125
2532.86681	3673.6125
2535.58458	3663.8125
2538.30065	3670.5125
2541.01501	3656.3125
2543.72768	3640.4125
2546.43864	3638.2125
2549.14791	3632.6125
2551.85548	3625.7125
2554.56136	3623.8125
2557.26554	3608.9125
2559.96803	3602.8125
2562.66883	3612.6125
2565.36794	3602.3125
2568.06536	3584.2125
2570.7611	3595.0125
2573.45514	3568.0125
2576.14751	3582.1125
2578.83819	3568.0125
2581.52719	3568.2125
2584.21451	3544.9125
2586.90015	3544.7125
2589.58411	3547.2125
2592.2664	3542.6125
2594.94701	3525.4125
2597.62594	3527.6125
2600.30321	3514.1125
2602.9788	3520.0125
2605.65273	3515.7125
2608.32498	3502.1125
2610.99557	3496.9125
2613.66449	3490.5125
2616.33175	3489.8125
2618.99734	3475.9125
2621.66128	3488.1125
2624.32355	3485.0125
2626.98416	3479.3125
2629.64311	3478.3125
2632.30041	3468.1125
2634.95605	3450.6125
2637.61004	3459.3125
2640.26238	3457.6125
2642.91306	3456.6125
2645.56209	3449.2125
2648.20948	3446.9125
2650.85521	3444.7125
2653.4993	3440.4125
2656.14175	3441.1125
2658.78255	3443.4125
2661.42171	3425.9125
2664.05923	3438.7125
2666.6951	3429.5125
2669.32934	3427.1125
2671.96194	3419.3125
2674.59291	3424.5125
2677.22224	3417.1125
2679.84993	3441.2125
2682.476	3425.3125
2685.10043	3436.7125
2687.72324	3431.2125
2690.34441	3437.6125
2692.96396	3442.4125
2695.58188	3434.6125
2698.19818	3431.1125
2700.81285	3447.9125
2703.4259	3453.6125
2706.03733	3463.3125
2708.64714	3451.4125
2711.25533	3451.9125
2713.86191	3434.2125
2716.46687	3438.1125
2719.07021	3445.5125
2721.67194	3444.5125
2724.27206	3428.3125
2726.87057	3439.8125
2729.46747	3420.5125
2732.06276	3439.3125
2734.65644	3439.7125
2737.24852	3433.0125
2739.83899	3416.4125
2742.42786	3427.2125
2745.01513	3413.4125
2747.60079	3404.9125
2750.18486	3406.1125
2752.76733	3399.3125
2755.3482	3397.4125
2757.92747	3390.5125
2760.50515	3395.6125
2763.08123	3394.9125
2765.65573	3377.7125
2768.22863	3383.8125
2770.79994	3369.6125
2773.36967	3367.0125
2775.9378	3376.2125
2778.50435	3380.8125
2781.06932	3362.0125
2783.6327	3350.9125
2786.1945	3357.7125
2788.75471	3348.3125
2791.31335	3343.4125
2793.87041	3330.1125
2796.42589	3332.9125
2798.97979	3322.0125
2801.53212	3316.4125
2804.08288	3314.5125
2806.63206	3306.8125
2809.17967	3296.4125
2811.72571	3284.3125
2814.27018	3293.1125
2816.81308	3272.9125
2819.35442	3264.8125
2821.89419	3261.0125
2824.43239	3269.2125
2826.96904	3264.0125
2829.50412	3260.1125
2832.03763	3259.9125
2834.56959	3257.2125
2837.1	3251.3125
2839.62884	3256.2125
2842.15613	3252.6125
2844.68186	3249.5125
2847.20604	3262.6125
2849.72867	3255.5125
2852.24974	3267.6125
2854.76927	3258.5125
2857.28724	3254.7125
2859.80367	3248.3125
2862.31855	3253.0125
2864.83189	3243.8125
2867.34368	3232.4125
2869.85393	3236.4125
2872.36264	3225.1125
2874.8698	3243.2125
2877.37543	3240.3125
2879.87952	3240.8125
2882.38207	3252.9125
2884.88308	3254.8125
2887.38256	3251.1125
2889.88051	3251.8125
2892.37692	3242.7125
2894.8718	3248.4125
2897.36515	3255.9125
2899.85698	3260.3125
2902.34727	3257.9125
2904.83604	3255.7125
2907.32328	3262.2125
2909.809	3266.8125
2912.29319	3259.1125
2914.77587	3269.8125
2917.25702	3261.3125
2919.73665	3268.7125
2922.21476	3270.9125
2924.69136	3265.4125
2927.16644	3263.5125
2929.64	3261.8125
2932.11205	3273.6125
2934.58258	3258.5125
2937.05161	3263.8125
2939.51912	3267.3125
2941.98513	3257.0125
2944.44962	3254.3125
2946.91261	3236.9125
2949.37409	3248.4125
2951.83407	3250.0125
2954.29254	3239.5125
2956.74951	3245.5125
2959.20498	3231.0125
2961.65895	3216.1125
2964.11142	3229.3125
2966.56239	3220.6125
2969.01186	3215.0125
2971.45984	3195.6125
2973.90632	3184.1125
2976.35131	3192.1125
2978.7948	3186.4125
2981.23681	3176.5125
2983.67732	3178.3125
2986.11635	3162.8125
2988.55388	3159.0125
2990.98993	3158.6125
2993.4245	3154.1125
2995.85758	3146.5125
2998.28917	3146.8125
3000.71928	3152.7125
3003.14791	3149.9125
3005.57506	3147.0125
3008.00073	3122.3125
3010.42493	3137.2125
3012.84764	3141.2125
3015.26888	3125.4125
3017.68865	3124.0125
3020.10694	3123.8125
3022.52376	3120.1125
3024.9391	3110.6125
3027.35298	3109.5125
3029.76539	3112.3125
3032.17632	3096.6125
3034.5858	3108.5125
3036.9938	3099.6125
3039.40034	3106.8125
3041.80542	3104.9125
3044.20903	3091.8125
3046.61118	3109.7125
3049.01187	3096.7125
3051.4111	3100.8125
3053.80888	3100.6125
3056.20519	3081.9125
3058.60005	3083.1125
3060.99345	3082.0125
3063.3854	3074.1125
3065.7759	3086.7125
3068.16494	3086.7125
3070.55254	3068.5125
3072.93868	3070.8125
3075.32338	3078.5125
3077.70662	3075.6125
3080.08842	3072.5125
3082.46878	3057.9125
3084.84769	3081.9125
3087.22515	3064.5125
3089.60118	3081.3125
3091.97576	3078.9125
3094.3489	3082.4125
3096.72061	3090.6125
3099.09087	3094.3125
3101.4597	3090.3125
3103.82709	3092.4125
3106.19305	3108.4125
3108.55757	3095.3125
3110.92066	3095.4125
3113.28232	3095.3125
3115.64255	3094.7125
3118.00134	3079.1125
3120.35871	3095.4125
3122.71466	3111.2125
3125.06917	3103.5125
3127.42226	3082.2125
3129.77393	3098.8125
3132.12417	3099.0125
3134.47299	3114.1125
3136.82039	3112.0125
3139.16636	3124.4125
3141.51092	3135.5125
3143.85406	3136.7125
3146.19579	3147.5125
3148.53609	3151.7125
3150.87499	3155.3125
3153.21246	3166.6125
3155.54853	3177.3125
3157.88318	3167.8125
3160.21642	3181.7125
3162.54826	3180.1125
3164.87868	3191.2125
3167.2077	3198.0125
3169.5353	3200.8125
3171.86151	3207.5125
3174.18631	3208.5125
3176.5097	3215.3125
3178.83169	3204.6125
3181.15228	3203.8125
3183.47147	3220.2125
3185.78926	3209.0125
3188.10565	3219.7125
3190.42065	3230.0125
3192.73424	3213.6125
3195.04645	3224.1125
3197.35725	3223.0125
3199.66667	3221.8125
3201.97469	3257.8125
3204.28132	3254.8125
3206.58656	3256.0125
3208.8904	3271.3125
3211.19287	3269.0125
3213.49394	3278.7125
3215.79363	3281.9125
3218.09193	3280.2125
3220.38884	3286.3125
3222.68438	3300.9125
3224.97853	3290.1125
3227.2713	3281.4125
3229.56269	3293.8125
3231.8527	3275.2125
3234.14133	3266.1125
3236.42858	3276.4125
3238.71446	3265.3125
3240.99896	3259.0125
3243.28209	3270.7125
3245.56384	3262.6125
3247.84423	3277.9125
3250.12324	3272.0125
3252.40088	3276.2125
3254.67715	3269.3125
3256.95205	3265.0125
3259.22558	3266.3125
3261.49775	3243.1125
3263.76855	3238.5125
3266.03799	3250.2125
3268.30606	3239.5125
3270.57277	3241.0125
3272.83812	3222.5125
3275.10211	3230.9125
3277.36474	3238.3125
3279.62601	3237.2125
3281.88593	3224.7125
3284.14448	3242.3125
3286.40168	3231.7125
3288.65753	3217.2125
3290.91202	3210.5125
3293.16516	3203.3125
3295.41695	3183.0125
3297.66738	3170.9125
3299.91647	3163.0125
3302.16421	3156.2125
3304.4106	3146.5125
3306.65564	3131.9125
3308.89933	3112.4125
3311.14169	3107.1125
3313.38269	3071.3125
3315.62236	3054.4125
3317.86068	3033.4125
3320.09766	3001.3125
3322.3333	2984.1125
3324.5676	2989.5125
3326.80056	2934.3125
3329.03219	2936.4125
3331.26248	1.2125
3333.49143	0.2125
3335.71905	0.3125
