Data from AgNPs_FTO_APTES_UA_0.1mM_CRN_200uM_NaF_0.1M_Addition_RamanShift__2__13-57-07-712.txt Node

Date: Mon Dec 20 13:57:07 GMT 2021
User: TCL
Spectrometer: QEP01345
Trigger mode: 4
Integration Time (sec): 7.000000E0
Scans to average: 10
Electric dark correction enabled: true
Nonlinearity correction enabled: false
Boxcar width: 0
XAxis mode: Raman Shifts
Number of Pixels in Spectrum: 1044
>>>>>Begin Spectral Data<<<<<
46.04893	1.6125
50.45542	-0.6875
54.85868	-0.8875
59.25871	0.7125
63.6555	29.2125
68.04907	30.0125
72.43941	31.8125
76.82654	34.8125
81.21044	35.2125
85.59113	39.9125
89.96862	36.4125
94.34289	38.1125
98.71396	39.5125
103.08183	39.1125
107.4465	41.4125
111.80798	48.3125
116.16626	45.8125
120.52136	44.3125
124.87327	46.9125
129.222	46.7125
133.56755	50.1125
137.90993	56.7125
142.24913	53.7125
146.58517	58.1125
150.91804	68.6125
155.24774	79.7125
159.57429	91.3125
163.89768	117.8125
168.21792	148.9125
172.53501	184.6125
176.84895	258.6125
181.15975	357.2125
185.46741	492.3125
189.77193	677.7125
194.07331	901.6125
198.37157	1169.7125
202.6667	1448.2125
206.9587	1730.0125
211.24758	2000.4125
215.53334	2308.9125
219.81599	2586.1125
224.09553	2919.9125
228.37195	3288.5125
232.64527	3701.5125
236.91549	4094.9125
241.18261	4501.8125
245.44663	4850.9125
249.70755	5149.9125
253.96539	5351.0125
258.22014	5544.6125
262.4718	5664.8125
266.72039	5706.6125
270.96589	5696.5125
275.20832	5666.7125
279.44768	5593.5125
283.68397	5501.5125
287.91719	5428.0125
292.14735	5356.4125
296.37445	5317.9125
300.59849	5285.0125
304.81948	5261.6125
309.03742	5246.4125
313.25231	5199.9125
317.46415	5118.5125
321.67296	5048.0125
325.87872	4963.5125
330.08145	4941.7125
334.28114	4920.7125
338.47781	4931.8125
342.67145	4960.2125
346.86207	5001.4125
351.04966	5065.0125
355.23424	5123.6125
359.4158	5203.1125
363.59435	5251.2125
367.76989	5294.5125
371.94243	5358.9125
376.11196	5407.3125
380.27849	5484.5125
384.44203	5516.0125
388.60257	5586.7125
392.76012	5636.1125
396.91468	5689.3125
401.06626	5742.1125
405.21485	5773.3125
409.36047	5784.6125
413.50311	5750.9125
417.64277	5729.4125
421.77947	5721.4125
425.9132	5714.6125
430.04396	5719.7125
434.17176	5748.0125
438.2966	5784.6125
442.41849	5820.1125
446.53742	5873.9125
450.6534	5946.6125
454.76644	5998.6125
458.87653	6024.5125
462.98368	6060.3125
467.08789	6048.8125
471.18916	6069.0125
475.2875	6097.6125
479.38291	6152.3125
483.4754	6245.4125
487.56496	6361.8125
491.6516	6529.2125
495.73531	6620.2125
499.81612	6643.5125
503.89401	6589.9125
507.96899	6463.2125
512.04106	6388.1125
516.11023	6322.0125
520.1765	6332.0125
524.23987	6376.8125
528.30034	6410.7125
532.35792	6421.7125
536.41261	6414.5125
540.46441	6342.0125
544.51333	6257.7125
548.55936	6169.0125
552.60252	6137.5125
556.64279	6127.6125
560.6802	6126.4125
564.71473	6143.4125
568.7464	6165.1125
572.7752	6222.4125
576.80114	6233.0125
580.82422	6327.6125
584.84444	6453.5125
588.86181	6602.7125
592.87633	6678.9125
596.888	6678.2125
600.89682	6606.6125
604.9028	6639.2125
608.90594	6886.5125
612.90624	7270.2125
616.90371	7302.4125
620.89834	7091.9125
624.89015	7261.7125
628.87913	7753.1125
632.86528	8355.8125
636.84862	8772.8125
640.82913	8769.1125
644.80683	8407.5125
648.78172	7875.4125
652.75379	7413.9125
656.72306	7079.3125
660.68952	6869.8125
664.65319	6717.3125
668.61405	6607.1125
672.57211	6580.1125
676.52738	6592.6125
680.47986	6629.0125
684.42955	6643.5125
688.37646	6602.9125
692.32058	6497.1125
696.26192	6429.9125
700.20048	6382.3125
704.13626	6367.4125
708.06928	6342.9125
711.99952	6327.5125
715.927	6323.3125
719.85171	6376.7125
723.77365	6458.1125
727.69284	6500.0125
731.60928	6477.9125
735.52295	6365.6125
739.43388	6287.5125
743.34206	6248.6125
747.24749	6253.3125
751.15017	6247.9125
755.05012	6270.4125
758.94733	6339.3125
762.8418	6435.8125
766.73354	6594.0125
770.62254	6758.5125
774.50882	6808.1125
778.39237	6710.4125
782.27321	6493.2125
786.15132	6332.3125
790.02671	6228.4125
793.89938	6193.7125
797.76935	6234.4125
801.6366	6312.4125
805.50115	6458.5125
809.36299	6711.5125
813.22213	6882.9125
817.07857	6860.0125
820.93231	6676.2125
824.78336	6425.2125
828.63172	6212.5125
832.47738	6079.7125
836.32036	6025.3125
840.16066	6005.7125
843.99827	5996.0125
847.8332	5996.1125
851.66546	5967.4125
855.49504	5980.5125
859.32195	5999.9125
863.1462	6032.0125
866.96777	6080.7125
870.78668	6195.0125
874.60293	6308.9125
878.41652	6456.0125
882.22745	6634.9125
886.03573	6760.9125
889.84136	6828.0125
893.64433	6755.0125
897.44466	6556.2125
901.24235	6320.7125
905.0374	6125.4125
908.8298	5970.4125
912.61957	5895.0125
916.40671	5865.0125
920.19121	5842.6125
923.97308	5859.9125
927.75233	5830.8125
931.52895	5806.5125
935.30295	5807.1125
939.07433	5759.3125
942.84309	5726.5125
946.60924	5698.8125
950.37278	5697.5125
954.13371	5682.8125
957.89203	5673.5125
961.64774	5662.7125
965.40086	5641.8125
969.15137	5632.0125
972.89929	5605.7125
976.64461	5599.3125
980.38733	5616.4125
984.12747	5606.4125
987.86502	5633.4125
991.59999	5636.5125
995.33237	5685.6125
999.06217	5736.0125
1002.78939	5842.9125
1006.51404	5926.3125
1010.23611	6016.6125
1013.95561	6079.7125
1017.67255	6117.9125
1021.38692	6140.4125
1025.09872	6083.5125
1028.80796	6021.0125
1032.51465	5950.2125
1036.21877	5890.8125
1039.92035	5849.4125
1043.61937	5821.5125
1047.31584	5786.9125
1051.00976	5796.5125
1054.70114	5800.5125
1058.38998	5828.2125
1062.07627	5889.9125
1065.76003	5974.5125
1069.44126	6051.2125
1073.11995	6133.6125
1076.79611	6180.7125
1080.46974	6156.0125
1084.14085	6083.2125
1087.80943	6018.3125
1091.47549	5944.4125
1095.13903	5916.8125
1098.80005	5875.3125
1102.45857	5819.5125
1106.11456	5812.5125
1109.76805	5874.9125
1113.41903	5978.4125
1117.06751	6215.7125
1120.71348	6574.2125
1124.35696	7017.8125
1127.99793	7600.1125
1131.63641	8084.0125
1135.2724	8342.9125
1138.90589	8282.4125
1142.5369	7993.7125
1146.16542	7553.1125
1149.79145	7070.6125
1153.415	6661.1125
1157.03607	6333.6125
1160.65467	6151.0125
1164.27079	6062.8125
1167.88443	6067.9125
1171.49561	6136.4125
1175.10432	6280.7125
1178.71056	6476.1125
1182.31434	6666.9125
1185.91565	6806.6125
1189.51451	6871.0125
1193.11091	6935.6125
1196.70485	7022.5125
1200.29634	7094.4125
1203.88538	7142.7125
1207.47197	7136.9125
1211.05612	7010.2125
1214.63782	6870.7125
1218.21708	6654.8125
1221.79391	6467.5125
1225.36829	6312.9125
1228.94024	6204.2125
1232.50976	6132.5125
1236.07685	6072.7125
1239.6415	6076.5125
1243.20374	6096.2125
1246.76355	6131.4125
1250.32093	6188.6125
1253.8759	6248.6125
1257.42845	6315.3125
1260.97859	6403.7125
1264.52631	6445.4125
1268.07163	6488.0125
1271.61453	6503.0125
1275.15503	6530.9125
1278.69312	6516.7125
1282.22882	6528.0125
1285.76211	6539.8125
1289.29301	6575.0125
1292.82151	6639.9125
1296.34761	6731.7125
1299.87133	6872.4125
1303.39266	7030.1125
1306.9116	7206.3125
1310.42815	7428.7125
1313.94233	7561.2125
1317.45412	7594.1125
1320.96354	7541.4125
1324.47058	7517.5125
1327.97525	7450.0125
1331.47754	7449.5125
1334.97747	7454.4125
1338.47502	7470.3125
1341.97022	7560.6125
1345.46305	7632.3125
1348.95352	7771.0125
1352.44163	7935.7125
1355.92738	8143.1125
1359.41078	8419.2125
1362.89183	8670.6125
1366.37053	8676.1125
1369.84688	8336.6125
1373.32088	7922.2125
1376.79254	7618.2125
1380.26186	7389.8125
1383.72883	7248.9125
1387.19347	7129.9125
1390.65578	6954.7125
1394.11575	6851.4125
1397.57339	6733.7125
1401.0287	6663.4125
1404.48168	6566.9125
1407.93234	6456.7125
1411.38068	6355.4125
1414.82669	6212.5125
1418.27039	6098.7125
1421.71177	5966.7125
1425.15083	5850.5125
1428.58758	5797.7125
1432.02203	5747.2125
1435.45416	5733.4125
1438.88399	5748.4125
1442.31151	5755.2125
1445.73673	5752.0125
1449.15965	5759.6125
1452.58027	5761.1125
1455.9986	5763.3125
1459.41463	5786.0125
1462.82837	5795.1125
1466.23982	5823.0125
1469.64898	5891.8125
1473.05586	5919.4125
1476.46045	5955.6125
1479.86276	5953.5125
1483.26279	5999.3125
1486.66054	6034.2125
1490.05602	6092.0125
1493.44922	6214.4125
1496.84016	6353.7125
1500.22882	6528.0125
1503.61521	6737.0125
1506.99934	6968.5125
1510.38121	7140.9125
1513.76081	7185.9125
1517.13816	7059.2125
1520.51324	6832.4125
1523.88607	6626.8125
1527.25665	6518.0125
1530.62498	6483.3125
1533.99105	6491.6125
1537.35488	6534.9125
1540.71647	6536.3125
1544.07581	6588.3125
1547.4329	6599.9125
1550.78776	6614.1125
1554.14038	6597.3125
1557.49077	6634.3125
1560.83892	6650.9125
1564.18484	6658.0125
1567.52853	6679.7125
1570.86999	6706.1125
1574.20922	6737.6125
1577.54624	6777.3125
1580.88103	6745.3125
1584.2136	6662.9125
1587.54395	6598.2125
1590.87208	6563.9125
1594.19801	6615.9125
1597.52172	6721.7125
1600.84321	6774.0125
1604.16251	6691.8125
1607.47959	6607.7125
1610.79447	6514.4125
1614.10715	6415.2125
1617.41763	6335.3125
1620.7259	6285.5125
1624.03199	6277.8125
1627.33587	6321.2125
1630.63757	6403.1125
1633.93707	6532.5125
1637.23439	6710.1125
1640.52951	7010.2125
1643.82246	7336.2125
1647.11321	7629.7125
1650.40179	7822.7125
1653.68819	7780.0125
1656.97241	7500.4125
1660.25446	7145.0125
1663.53433	6904.5125
1666.81203	6719.3125
1670.08756	6599.7125
1673.36092	6525.2125
1676.63211	6464.1125
1679.90115	6458.9125
1683.16801	6404.6125
1686.43272	6341.5125
1689.69527	6230.7125
1692.95567	6148.9125
1696.2139	6017.8125
1699.46999	5950.8125
1702.72392	5806.9125
1705.97571	5668.6125
1709.22535	5483.9125
1712.47284	5338.0125
1715.71819	5214.8125
1718.96139	5091.5125
1722.20246	5026.6125
1725.44139	4946.4125
1728.67818	4871.6125
1731.91284	4802.0125
1735.14537	4737.5125
1738.37576	4714.8125
1741.60403	4679.7125
1744.83017	4656.2125
1748.05418	4632.1125
1751.27607	4618.0125
1754.49584	4605.5125
1757.71349	4612.8125
1760.92903	4594.9125
1764.14244	4587.2125
1767.35375	4555.3125
1770.56294	4550.0125
1773.77002	4520.2125
1776.97499	4523.5125
1780.17785	4488.8125
1783.37861	4482.7125
1786.57727	4470.8125
1789.77382	4429.5125
1792.96828	4423.7125
1796.16064	4399.2125
1799.3509	4396.3125
1802.53907	4381.2125
1805.72514	4371.6125
1808.90913	4359.7125
1812.09102	4353.6125
1815.27083	4338.1125
1818.44856	4318.9125
1821.6242	4325.1125
1824.79776	4308.5125
1827.96924	4307.9125
1831.13864	4298.8125
1834.30597	4288.0125
1837.47122	4294.4125
1840.6344	4275.9125
1843.7955	4275.0125
1846.95454	4283.4125
1850.11151	4272.5125
1853.26642	4251.1125
1856.41926	4243.5125
1859.57004	4260.7125
1862.71876	4265.1125
1865.86542	4242.5125
1869.01003	4241.0125
1872.15258	4226.4125
1875.29308	4225.7125
1878.43152	4218.1125
1881.56792	4209.5125
1884.70227	4200.8125
1887.83457	4186.9125
1890.96482	4192.7125
1894.09304	4170.2125
1897.21921	4161.1125
1900.34335	4158.2125
1903.46544	4166.5125
1906.58551	4162.5125
1909.70353	4149.4125
1912.81953	4151.6125
1915.93349	4148.9125
1919.04543	4117.9125
1922.15534	4103.4125
1925.26322	4108.9125
1928.36908	4096.7125
1931.47292	4115.6125
1934.57473	4079.0125
1937.67453	4069.4125
1940.77232	4079.2125
1943.86808	4046.3125
1946.96184	4049.4125
1950.05358	4039.1125
1953.14331	4032.6125
1956.23103	4026.4125
1959.31675	3993.4125
1962.40046	3991.9125
1965.48217	3976.2125
1968.56188	3944.4125
1971.63959	3961.2125
1974.7153	3939.0125
1977.78901	3920.9125
1980.86073	3906.5125
1983.93046	3904.8125
1986.99819	3878.8125
1990.06394	3880.7125
1993.1277	3867.6125
1996.18947	3863.4125
1999.24925	3854.8125
2002.30706	3854.1125
2005.36288	3830.4125
2008.41672	3813.4125
2011.46859	3805.5125
2014.51848	3789.9125
2017.56639	3777.3125
2020.61233	3759.5125
2023.6563	3767.0125
2026.6983	3744.4125
2029.73833	3743.3125
2032.7764	3741.2125
2035.8125	3719.3125
2038.84664	3714.8125
2041.87881	3716.5125
2044.90903	3695.6125
2047.93729	3696.2125
2050.96359	3686.5125
2053.98794	3675.2125
2057.01034	3672.2125
2060.03078	3679.0125
2063.04927	3667.9125
2066.06582	3673.2125
2069.08042	3665.1125
2072.09307	3672.6125
2075.10378	3656.7125
2078.11255	3678.3125
2081.11938	3675.2125
2084.12426	3664.4125
2087.12722	3672.6125
2090.12824	3661.8125
2093.12732	3664.2125
2096.12447	3660.7125
2099.11969	3652.9125
2102.11299	3659.5125
2105.10435	3676.8125
2108.09379	3651.5125
2111.08131	3658.9125
2114.0669	3649.4125
2117.05057	3672.0125
2120.03233	3674.6125
2123.01216	3680.0125
2125.99008	3678.4125
2128.96609	3658.4125
2131.94018	3663.1125
2134.91236	3675.9125
2137.88263	3673.2125
2140.851	3687.1125
2143.81746	3690.9125
2146.78201	3687.0125
2149.74466	3682.9125
2152.7054	3685.9125
2155.66425	3669.6125
2158.6212	3685.0125
2161.57625	3680.6125
2164.52941	3667.3125
2167.48067	3669.1125
2170.43004	3657.0125
2173.37752	3656.7125
2176.32311	3675.9125
2179.26681	3656.3125
2182.20863	3659.4125
2185.14856	3678.5125
2188.08661	3654.5125
2191.02278	3660.1125
2193.95707	3656.7125
2196.88948	3645.2125
2199.82001	3648.6125
2202.74867	3638.3125
2205.67545	3633.4125
2208.60037	3647.2125
2211.52341	3623.9125
2214.44458	3615.2125
2217.36388	3605.2125
2220.28132	3601.8125
2223.1969	3578.1125
2226.11061	3578.1125
2229.02246	3574.0125
2231.93245	3572.3125
2234.84058	3557.3125
2237.74686	3546.2125
2240.65128	3555.6125
2243.55385	3542.3125
2246.45456	3538.6125
2249.35343	3543.2125
2252.25044	3541.6125
2255.14561	3519.5125
2258.03893	3528.8125
2260.93041	3519.8125
2263.82004	3511.7125
2266.70783	3506.0125
2269.59378	3485.6125
2272.4779	3481.5125
2275.36017	3465.5125
2278.24061	3450.4125
2281.11922	3448.7125
2283.996	3464.2125
2286.87094	3457.9125
2289.74405	3441.6125
2292.61534	3430.9125
2295.4848	3422.4125
2298.35243	3434.4125
2301.21824	3416.1125
2304.08223	3409.5125
2306.94439	3415.7125
2309.80474	3415.3125
2312.66327	3407.2125
2315.51999	3402.7125
2318.37489	3396.0125
2321.22797	3384.1125
2324.07925	3391.4125
2326.92871	3396.7125
2329.77637	3377.5125
2332.62222	3364.9125
2335.46626	3359.0125
2338.3085	3356.2125
2341.14893	3349.1125
2343.98756	3346.1125
2346.8244	3362.6125
2349.65943	3336.7125
2352.49267	3341.9125
2355.32411	3337.9125
2358.15376	3339.4125
2360.98161	3326.7125
2363.80768	3326.5125
2366.63195	3324.7125
2369.45444	3322.4125
2372.27514	3322.0125
2375.09405	3317.8125
2377.91118	3308.5125
2380.72652	3305.8125
2383.54009	3293.7125
2386.35187	3299.2125
2389.16188	3287.5125
2391.97011	3276.9125
2394.77657	3267.6125
2397.58125	3259.9125
2400.38416	3259.2125
2403.18529	3252.3125
2405.98466	3252.9125
2408.78226	3239.7125
2411.57809	3236.8125
2414.37216	3226.8125
2417.16446	3228.4125
2419.955	3219.8125
2422.74378	3222.3125
2425.5308	3222.6125
2428.31606	3213.0125
2431.09956	3198.7125
2433.88131	3205.5125
2436.6613	3210.0125
2439.43954	3190.4125
2442.21603	3189.2125
2444.99077	3168.6125
2447.76377	3180.9125
2450.53501	3171.8125
2453.30451	3176.3125
2456.07226	3168.4125
2458.83827	3173.9125
2461.60254	3160.9125
2464.36507	3155.8125
2467.12586	3158.4125
2469.88492	3155.0125
2472.64224	3159.1125
2475.39782	3148.7125
2478.15167	3164.1125
2480.90379	3146.2125
2483.65417	3145.8125
2486.40283	3141.0125
2489.14976	3140.5125
2491.89497	3125.8125
2494.63845	3122.3125
2497.3802	3127.2125
2500.12024	3135.5125
2502.85855	3128.1125
2505.59514	3124.7125
2508.33002	3118.3125
2511.06318	3103.8125
2513.79462	3110.3125
2516.52435	3105.2125
2519.25237	3099.4125
2521.97867	3088.4125
2524.70327	3095.0125
2527.42616	3086.8125
2530.14734	3087.2125
2532.86681	3085.0125
2535.58458	3071.4125
2538.30065	3073.9125
2541.01501	3067.8125
2543.72768	3055.6125
2546.43864	3036.5125
2549.14791	3047.9125
2551.85548	3037.9125
2554.56136	3031.9125
2557.26554	3015.0125
2559.96803	3030.5125
2562.66883	3018.5125
2565.36794	3009.0125
2568.06536	3001.2125
2570.7611	3006.3125
2573.45514	2995.8125
2576.14751	2986.4125
2578.83819	2993.9125
2581.52719	2979.3125
2584.21451	2973.3125
2586.90015	2973.4125
2589.58411	2960.4125
2592.2664	2968.0125
2594.94701	2945.1125
2597.62594	2944.7125
2600.30321	2942.3125
2602.9788	2940.3125
2605.65273	2922.4125
2608.32498	2926.0125
2610.99557	2926.1125
2613.66449	2916.5125
2616.33175	2928.8125
2618.99734	2921.9125
2621.66128	2901.7125
2624.32355	2901.3125
2626.98416	2896.6125
2629.64311	2896.6125
2632.30041	2894.4125
2634.95605	2880.8125
2637.61004	2886.7125
2640.26238	2877.7125
2642.91306	2875.3125
2645.56209	2870.6125
2648.20948	2873.5125
2650.85521	2871.7125
2653.4993	2877.0125
2656.14175	2864.7125
2658.78255	2873.6125
2661.42171	2867.0125
2664.05923	2861.7125
2666.6951	2855.4125
2669.32934	2870.3125
2671.96194	2855.4125
2674.59291	2863.0125
2677.22224	2866.5125
2679.84993	2857.5125
2682.476	2865.9125
2685.10043	2858.0125
2687.72324	2856.0125
2690.34441	2862.7125
2692.96396	2845.6125
2695.58188	2870.2125
2698.19818	2860.5125
2700.81285	2869.6125
2703.4259	2881.5125
2706.03733	2894.6125
2708.64714	2884.5125
2711.25533	2873.1125
2713.86191	2871.2125
2716.46687	2861.6125
2719.07021	2864.7125
2721.67194	2875.1125
2724.27206	2857.8125
2726.87057	2877.2125
2729.46747	2855.8125
2732.06276	2855.8125
2734.65644	2863.3125
2737.24852	2862.9125
2739.83899	2853.6125
2742.42786	2852.6125
2745.01513	2843.4125
2747.60079	2845.1125
2750.18486	2838.3125
2752.76733	2828.9125
2755.3482	2834.0125
2757.92747	2830.8125
2760.50515	2830.8125
2763.08123	2826.1125
2765.65573	2801.3125
2768.22863	2814.7125
2770.79994	2807.5125
2773.36967	2816.1125
2775.9378	2802.6125
2778.50435	2797.0125
2781.06932	2799.0125
2783.6327	2782.8125
2786.1945	2788.3125
2788.75471	2785.6125
2791.31335	2778.4125
2793.87041	2762.4125
2796.42589	2760.7125
2798.97979	2766.8125
2801.53212	2756.0125
2804.08288	2751.0125
2806.63206	2747.2125
2809.17967	2736.3125
2811.72571	2723.6125
2814.27018	2738.3125
2816.81308	2736.1125
2819.35442	2715.1125
2821.89419	2711.0125
2824.43239	2710.1125
2826.96904	2716.7125
2829.50412	2724.2125
2832.03763	2705.7125
2834.56959	2708.8125
2837.1	2710.0125
2839.62884	2701.2125
2842.15613	2687.7125
2844.68186	2724.7125
2847.20604	2698.8125
2849.72867	2706.8125
2852.24974	2705.8125
2854.76927	2706.4125
2857.28724	2703.3125
2859.80367	2694.5125
2862.31855	2703.4125
2864.83189	2699.1125
2867.34368	2686.7125
2869.85393	2693.7125
2872.36264	2698.0125
2874.8698	2700.8125
2877.37543	2696.1125
2879.87952	2691.4125
2882.38207	2700.3125
2884.88308	2706.1125
2887.38256	2698.8125
2889.88051	2700.5125
2892.37692	2697.0125
2894.8718	2695.9125
2897.36515	2714.3125
2899.85698	2704.0125
2902.34727	2716.0125
2904.83604	2718.1125
2907.32328	2726.3125
2909.809	2716.3125
2912.29319	2718.6125
2914.77587	2720.9125
2917.25702	2739.7125
2919.73665	2725.6125
2922.21476	2729.1125
2924.69136	2732.5125
2927.16644	2731.8125
2929.64	2732.7125
2932.11205	2726.1125
2934.58258	2726.6125
2937.05161	2730.4125
2939.51912	2740.3125
2941.98513	2729.6125
2944.44962	2717.2125
2946.91261	2712.0125
2949.37409	2733.9125
2951.83407	2725.5125
2954.29254	2716.9125
2956.74951	2720.8125
2959.20498	2712.7125
2961.65895	2702.4125
2964.11142	2703.7125
2966.56239	2697.3125
2969.01186	2687.3125
2971.45984	2692.9125
2973.90632	2686.6125
2976.35131	2685.9125
2978.7948	2669.1125
2981.23681	2669.2125
2983.67732	2662.0125
2986.11635	2666.0125
2988.55388	2642.5125
2990.98993	2660.4125
2993.4245	2645.1125
2995.85758	2654.4125
2998.28917	2634.3125
3000.71928	2638.1125
3003.14791	2638.8125
3005.57506	2641.8125
3008.00073	2651.2125
3010.42493	2634.9125
3012.84764	2646.4125
3015.26888	2639.0125
3017.68865	2628.9125
3020.10694	2639.4125
3022.52376	2640.9125
3024.9391	2643.5125
3027.35298	2629.6125
3029.76539	2629.3125
3032.17632	2639.3125
3034.5858	2631.5125
3036.9938	2645.2125
3039.40034	2640.0125
3041.80542	2629.4125
3044.20903	2639.8125
3046.61118	2635.3125
3049.01187	2624.5125
3051.4111	2629.9125
3053.80888	2635.0125
3056.20519	2634.0125
3058.60005	2622.5125
3060.99345	2631.5125
3063.3854	2624.9125
3065.7759	2624.8125
3068.16494	2626.9125
3070.55254	2620.4125
3072.93868	2624.1125
3075.32338	2625.8125
3077.70662	2628.6125
3080.08842	2628.5125
3082.46878	2635.7125
3084.84769	2633.3125
3087.22515	2630.3125
3089.60118	2649.2125
3091.97576	2642.7125
3094.3489	2646.0125
3096.72061	2655.9125
3099.09087	2658.9125
3101.4597	2655.9125
3103.82709	2659.2125
3106.19305	2662.0125
3108.55757	2676.2125
3110.92066	2663.5125
3113.28232	2674.4125
3115.64255	2656.5125
3118.00134	2662.0125
3120.35871	2663.7125
3122.71466	2672.7125
3125.06917	2683.6125
3127.42226	2670.4125
3129.77393	2684.7125
3132.12417	2699.9125
3134.47299	2694.8125
3136.82039	2711.9125
3139.16636	2710.3125
3141.51092	2712.5125
3143.85406	2729.2125
3146.19579	2736.8125
3148.53609	2737.1125
3150.87499	2750.0125
3153.21246	2757.6125
3155.54853	2773.0125
3157.88318	2777.3125
3160.21642	2773.1125
3162.54826	2786.2125
3164.87868	2791.2125
3167.2077	2798.4125
3169.5353	2802.6125
3171.86151	2799.5125
3174.18631	2794.1125
3176.5097	2800.1125
3178.83169	2811.9125
3181.15228	2824.9125
3183.47147	2828.3125
3185.78926	2837.9125
3188.10565	2824.1125
3190.42065	2835.3125
3192.73424	2845.3125
3195.04645	2838.6125
3197.35725	2841.1125
3199.66667	2850.8125
3201.97469	2861.8125
3204.28132	2864.0125
3206.58656	2875.9125
3208.8904	2882.9125
3211.19287	2890.3125
3213.49394	2873.6125
3215.79363	2886.2125
3218.09193	2896.4125
3220.38884	2891.2125
3222.68438	2903.3125
3224.97853	2889.1125
3227.2713	2892.7125
3229.56269	2894.4125
3231.8527	2884.9125
3234.14133	2886.0125
3236.42858	2874.6125
3238.71446	2879.0125
3240.99896	2876.1125
3243.28209	2881.1125
3245.56384	2868.7125
3247.84423	2890.7125
3250.12324	2866.1125
3252.40088	2881.8125
3254.67715	2880.5125
3256.95205	2868.0125
3259.22558	2866.1125
3261.49775	2876.8125
3263.76855	2863.4125
3266.03799	2857.5125
3268.30606	2862.5125
3270.57277	2859.4125
3272.83812	2848.0125
3275.10211	2841.9125
3277.36474	2842.1125
3279.62601	2856.2125
3281.88593	2842.3125
3284.14448	2853.0125
3286.40168	2842.6125
3288.65753	2840.3125
3290.91202	2835.5125
3293.16516	2828.6125
3295.41695	2804.6125
3297.66738	2790.3125
3299.91647	2805.6125
3302.16421	2783.4125
3304.4106	2775.4125
3306.65564	2763.8125
3308.89933	2742.9125
3311.14169	2728.4125
3313.38269	2709.2125
3315.62236	2709.5125
3317.86068	2683.7125
3320.09766	2646.1125
3322.3333	2640.6125
3324.5676	2649.0125
3326.80056	2599.6125
3329.03219	2581.1125
3331.26248	0.5125
3333.49143	-0.1875
3335.71905	-0.9875
