Data from AgNPs_FTO_APTES_UA_0.1mM_CRN_0uM_NaF_0.1M_Addition_RamanShift__26__10-32-57-480.txt Node

Date: Mon Dec 20 10:32:57 GMT 2021
User: TCL
Spectrometer: QEP01345
Trigger mode: 4
Integration Time (sec): 7.000000E0
Scans to average: 10
Electric dark correction enabled: true
Nonlinearity correction enabled: false
Boxcar width: 0
XAxis mode: Raman Shifts
Number of Pixels in Spectrum: 1044
>>>>>Begin Spectral Data<<<<<
46.04893	1.1375
50.45542	1.3375
54.85868	-0.5625
59.25871	-0.1625
63.6555	27.0375
68.04907	24.1375
72.43941	30.8375
76.82654	28.2375
81.21044	30.0375
85.59113	36.8375
89.96862	31.5375
94.34289	36.3375
98.71396	36.4375
103.08183	36.0375
107.4465	38.3375
111.80798	39.4375
116.16626	40.5375
120.52136	42.6375
124.87327	42.6375
129.222	40.4375
133.56755	44.9375
137.90993	44.9375
142.24913	47.6375
146.58517	50.6375
150.91804	60.6375
155.24774	66.6375
159.57429	76.0375
163.89768	96.1375
168.21792	125.2375
172.53501	157.0375
176.84895	210.4375
181.15975	283.0375
185.46741	387.8375
189.77193	532.8375
194.07331	697.1375
198.37157	908.8375
202.6667	1119.1375
206.9587	1319.2375
211.24758	1527.2375
215.53334	1730.5375
219.81599	1919.4375
224.09553	2125.5375
228.37195	2352.6375
232.64527	2589.2375
236.91549	2831.8375
241.18261	3071.4375
245.44663	3260.7375
249.70755	3449.4375
253.96539	3602.7375
258.22014	3713.7375
262.4718	3783.4375
266.72039	3823.8375
270.96589	3828.1375
275.20832	3820.4375
279.44768	3774.3375
283.68397	3725.5375
287.91719	3668.9375
292.14735	3624.8375
296.37445	3601.7375
300.59849	3651.7375
304.81948	3686.7375
309.03742	3728.7375
313.25231	3722.2375
317.46415	3612.1375
321.67296	3455.9375
325.87872	3328.2375
330.08145	3245.7375
334.28114	3227.0375
338.47781	3244.6375
342.67145	3279.0375
346.86207	3341.2375
351.04966	3445.4375
355.23424	3570.3375
359.4158	3697.4375
363.59435	3767.0375
367.76989	3810.1375
371.94243	3865.4375
376.11196	3892.8375
380.27849	3938.3375
384.44203	3961.1375
388.60257	3982.9375
392.76012	3997.0375
396.91468	4018.4375
401.06626	4076.2375
405.21485	4107.6375
409.36047	4060.3375
413.50311	3966.7375
417.64277	3843.6375
421.77947	3773.8375
425.9132	3741.9375
430.04396	3745.0375
434.17176	3755.1375
438.2966	3802.7375
442.41849	3889.4375
446.53742	3954.9375
450.6534	4051.8375
454.76644	4108.3375
458.87653	4114.2375
462.98368	4095.8375
467.08789	4048.8375
471.18916	4043.0375
475.2875	4045.3375
479.38291	4083.3375
483.4754	4142.3375
487.56496	4281.3375
491.6516	4446.8375
495.73531	4517.1375
499.81612	4452.0375
503.89401	4331.6375
507.96899	4217.1375
512.04106	4169.5375
516.11023	4210.9375
520.1765	4306.6375
524.23987	4401.6375
528.30034	4448.8375
532.35792	4427.9375
536.41261	4337.3375
540.46441	4190.7375
544.51333	4071.3375
548.55936	3979.4375
552.60252	3942.7375
556.64279	3944.9375
560.6802	3951.8375
564.71473	3960.7375
568.7464	3999.8375
572.7752	4046.6375
576.80114	4062.1375
580.82422	4069.6375
584.84444	4150.4375
588.86181	4311.1375
592.87633	4450.1375
596.888	4475.6375
600.89682	4439.2375
604.9028	4543.4375
608.90594	5104.6375
612.90624	5979.5375
616.90371	6202.2375
620.89834	5626.3375
624.89015	5623.0375
628.87913	6115.9375
632.86528	6606.3375
636.84862	6858.2375
640.82913	6647.0375
644.80683	6127.1375
648.78172	5562.6375
652.75379	5092.4375
656.72306	4816.7375
660.68952	4674.7375
664.65319	4540.5375
668.61405	4412.8375
672.57211	4366.0375
676.52738	4363.4375
680.47986	4357.7375
684.42955	4321.5375
688.37646	4303.9375
692.32058	4287.9375
696.26192	4235.3375
700.20048	4219.5375
704.13626	4188.4375
708.06928	4097.3375
711.99952	4051.7375
715.927	4034.5375
719.85171	4106.9375
723.77365	4156.4375
727.69284	4150.1375
731.60928	4063.3375
735.52295	3996.8375
739.43388	3950.4375
743.34206	3949.7375
747.24749	3976.1375
751.15017	3985.1375
755.05012	3994.3375
758.94733	4058.7375
762.8418	4219.0375
766.73354	4541.6375
770.62254	4869.7375
774.50882	5076.2375
778.39237	4984.9375
782.27321	4672.5375
786.15132	4323.6375
790.02671	4168.2375
793.89938	4142.6375
797.76935	4214.7375
801.6366	4385.9375
805.50115	4680.8375
809.36299	5044.4375
813.22213	5168.0375
817.07857	4998.3375
820.93231	4675.7375
824.78336	4327.8375
828.63172	4066.1375
832.47738	3922.7375
836.32036	3835.7375
840.16066	3800.1375
843.99827	3768.2375
847.8332	3749.1375
851.66546	3719.1375
855.49504	3715.8375
859.32195	3716.8375
863.1462	3750.5375
866.96777	3837.4375
870.78668	3976.5375
874.60293	4181.2375
878.41652	4416.1375
882.22745	4645.5375
886.03573	4755.3375
889.84136	4754.1375
893.64433	4546.2375
897.44466	4272.2375
901.24235	4004.2375
905.0374	3788.7375
908.8298	3648.5375
912.61957	3563.3375
916.40671	3521.5375
920.19121	3512.4375
923.97308	3502.8375
927.75233	3511.4375
931.52895	3524.6375
935.30295	3488.5375
939.07433	3458.8375
942.84309	3413.1375
946.60924	3410.2375
950.37278	3391.2375
954.13371	3378.2375
957.89203	3350.0375
961.64774	3343.2375
965.40086	3328.0375
969.15137	3303.0375
972.89929	3278.4375
976.64461	3277.5375
980.38733	3273.1375
984.12747	3267.3375
987.86502	3299.6375
991.59999	3338.9375
995.33237	3413.4375
999.06217	3540.2375
1002.78939	3690.1375
1006.51404	3824.1375
1010.23611	3969.3375
1013.95561	4045.1375
1017.67255	4071.3375
1021.38692	4000.3375
1025.09872	3850.2375
1028.80796	3712.0375
1032.51465	3578.9375
1036.21877	3483.5375
1039.92035	3424.9375
1043.61937	3387.0375
1047.31584	3373.4375
1051.00976	3382.0375
1054.70114	3420.4375
1058.38998	3463.9375
1062.07627	3544.8375
1065.76003	3617.0375
1069.44126	3643.3375
1073.11995	3672.9375
1076.79611	3659.7375
1080.46974	3615.1375
1084.14085	3580.3375
1087.80943	3547.5375
1091.47549	3496.7375
1095.13903	3431.4375
1098.80005	3356.1375
1102.45857	3301.8375
1106.11456	3302.6375
1109.76805	3371.7375
1113.41903	3498.7375
1117.06751	3717.0375
1120.71348	4027.8375
1124.35696	4468.5375
1127.99793	4998.8375
1131.63641	5461.3375
1135.2724	5717.6375
1138.90589	5674.2375
1142.5369	5452.6375
1146.16542	5039.3375
1149.79145	4579.5375
1153.415	4163.7375
1157.03607	3846.8375
1160.65467	3647.9375
1164.27079	3560.7375
1167.88443	3570.2375
1171.49561	3710.9375
1175.10432	3924.2375
1178.71056	4309.5375
1182.31434	4650.4375
1185.91565	4881.3375
1189.51451	5040.7375
1193.11091	5229.9375
1196.70485	5424.2375
1200.29634	5574.7375
1203.88538	5598.0375
1207.47197	5406.5375
1211.05612	5080.3375
1214.63782	4715.7375
1218.21708	4391.3375
1221.79391	4117.3375
1225.36829	3908.5375
1228.94024	3745.1375
1232.50976	3654.1375
1236.07685	3593.3375
1239.6415	3603.5375
1243.20374	3632.0375
1246.76355	3653.3375
1250.32093	3684.9375
1253.8759	3722.2375
1257.42845	3783.4375
1260.97859	3836.1375
1264.52631	3929.7375
1268.07163	3967.9375
1271.61453	3975.4375
1275.15503	3978.3375
1278.69312	3938.1375
1282.22882	3918.1375
1285.76211	3965.5375
1289.29301	4061.5375
1292.82151	4187.4375
1296.34761	4314.1375
1299.87133	4496.8375
1303.39266	4742.7375
1306.9116	5103.5375
1310.42815	5544.7375
1313.94233	5866.4375
1317.45412	5893.6375
1320.96354	5687.7375
1324.47058	5433.8375
1327.97525	5183.3375
1331.47754	5092.3375
1334.97747	5094.5375
1338.47502	5243.8375
1341.97022	5415.2375
1345.46305	5598.3375
1348.95352	5834.8375
1352.44163	6211.1375
1355.92738	6665.1375
1359.41078	7250.5375
1362.89183	7759.2375
1366.37053	7677.9375
1369.84688	6998.1375
1373.32088	6242.6375
1376.79254	5696.7375
1380.26186	5407.3375
1383.72883	5235.2375
1387.19347	5054.5375
1390.65578	4855.2375
1394.11575	4679.6375
1397.57339	4556.9375
1401.0287	4496.2375
1404.48168	4386.2375
1407.93234	4285.2375
1411.38068	4160.6375
1414.82669	4051.7375
1418.27039	3922.6375
1421.71177	3783.1375
1425.15083	3676.3375
1428.58758	3639.4375
1432.02203	3634.0375
1435.45416	3647.5375
1438.88399	3673.0375
1442.31151	3647.0375
1445.73673	3652.0375
1449.15965	3646.2375
1452.58027	3610.9375
1455.9986	3556.9375
1459.41463	3506.4375
1462.82837	3525.0375
1466.23982	3583.8375
1469.64898	3665.7375
1473.05586	3765.0375
1476.46045	3822.2375
1479.86276	3912.9375
1483.26279	4029.5375
1486.66054	4121.2375
1490.05602	4244.5375
1493.44922	4360.8375
1496.84016	4462.6375
1500.22882	4646.0375
1503.61521	4938.2375
1506.99934	5306.8375
1510.38121	5621.9375
1513.76081	5774.8375
1517.13816	5595.2375
1520.51324	5109.1375
1523.88607	4629.0375
1527.25665	4330.9375
1530.62498	4228.3375
1533.99105	4218.3375
1537.35488	4247.2375
1540.71647	4307.0375
1544.07581	4399.6375
1547.4329	4457.0375
1550.78776	4510.6375
1554.14038	4507.2375
1557.49077	4501.7375
1560.83892	4525.8375
1564.18484	4569.1375
1567.52853	4633.7375
1570.86999	4707.4375
1574.20922	4769.8375
1577.54624	4790.6375
1580.88103	4696.2375
1584.2136	4536.7375
1587.54395	4445.8375
1590.87208	4477.4375
1594.19801	4582.0375
1597.52172	4815.0375
1600.84321	5036.0375
1604.16251	5085.7375
1607.47959	4984.3375
1610.79447	4782.4375
1614.10715	4567.3375
1617.41763	4425.6375
1620.7259	4353.1375
1624.03199	4337.9375
1627.33587	4343.3375
1630.63757	4419.3375
1633.93707	4558.2375
1637.23439	4784.4375
1640.52951	5133.9375
1643.82246	5617.6375
1647.11321	6149.6375
1650.40179	6512.3375
1653.68819	6480.7375
1656.97241	6017.9375
1660.25446	5474.5375
1663.53433	4982.7375
1666.81203	4580.3375
1670.08756	4261.5375
1673.36092	4031.4375
1676.63211	3843.9375
1679.90115	3697.6375
1683.16801	3563.8375
1686.43272	3451.3375
1689.69527	3368.4375
1692.95567	3264.0375
1696.2139	3182.7375
1699.46999	3096.5375
1702.72392	3001.7375
1705.97571	2903.9375
1709.22535	2810.8375
1712.47284	2734.3375
1715.71819	2671.6375
1718.96139	2622.0375
1722.20246	2553.7375
1725.44139	2503.9375
1728.67818	2449.3375
1731.91284	2400.9375
1735.14537	2353.2375
1738.37576	2312.9375
1741.60403	2285.7375
1744.83017	2274.0375
1748.05418	2247.1375
1751.27607	2226.9375
1754.49584	2206.7375
1757.71349	2188.0375
1760.92903	2175.7375
1764.14244	2148.1375
1767.35375	2130.8375
1770.56294	2128.0375
1773.77002	2105.9375
1776.97499	2088.4375
1780.17785	2065.0375
1783.37861	2045.7375
1786.57727	2028.9375
1789.77382	2016.7375
1792.96828	2000.1375
1796.16064	1979.4375
1799.3509	1968.5375
1802.53907	1949.8375
1805.72514	1951.2375
1808.90913	1934.8375
1812.09102	1929.4375
1815.27083	1921.4375
1818.44856	1904.6375
1821.6242	1908.9375
1824.79776	1908.0375
1827.96924	1889.1375
1831.13864	1881.4375
1834.30597	1882.3375
1837.47122	1879.1375
1840.6344	1860.8375
1843.7955	1866.5375
1846.95454	1859.4375
1850.11151	1855.8375
1853.26642	1834.5375
1856.41926	1847.8375
1859.57004	1836.1375
1862.71876	1836.1375
1865.86542	1831.0375
1869.01003	1818.7375
1872.15258	1815.2375
1875.29308	1825.1375
1878.43152	1813.5375
1881.56792	1801.5375
1884.70227	1796.5375
1887.83457	1789.3375
1890.96482	1792.5375
1894.09304	1785.7375
1897.21921	1778.0375
1900.34335	1785.3375
1903.46544	1776.7375
1906.58551	1771.0375
1909.70353	1767.7375
1912.81953	1761.1375
1915.93349	1761.1375
1919.04543	1750.5375
1922.15534	1744.1375
1925.26322	1741.0375
1928.36908	1736.0375
1931.47292	1728.3375
1934.57473	1718.0375
1937.67453	1711.3375
1940.77232	1705.1375
1943.86808	1713.3375
1946.96184	1695.5375
1950.05358	1676.1375
1953.14331	1678.9375
1956.23103	1674.8375
1959.31675	1674.6375
1962.40046	1671.4375
1965.48217	1659.3375
1968.56188	1660.1375
1971.63959	1638.2375
1974.7153	1645.8375
1977.78901	1652.1375
1980.86073	1628.7375
1983.93046	1616.7375
1986.99819	1614.8375
1990.06394	1608.3375
1993.1277	1609.2375
1996.18947	1594.6375
1999.24925	1583.4375
2002.30706	1594.6375
2005.36288	1584.0375
2008.41672	1574.9375
2011.46859	1568.2375
2014.51848	1569.3375
2017.56639	1559.5375
2020.61233	1554.4375
2023.6563	1542.2375
2026.6983	1544.8375
2029.73833	1533.2375
2032.7764	1534.6375
2035.8125	1526.4375
2038.84664	1513.0375
2041.87881	1520.2375
2044.90903	1507.6375
2047.93729	1515.1375
2050.96359	1516.2375
2053.98794	1514.0375
2057.01034	1519.6375
2060.03078	1507.5375
2063.04927	1504.4375
2066.06582	1507.7375
2069.08042	1507.1375
2072.09307	1498.2375
2075.10378	1490.5375
2078.11255	1495.7375
2081.11938	1496.8375
2084.12426	1493.5375
2087.12722	1492.6375
2090.12824	1493.0375
2093.12732	1490.3375
2096.12447	1492.4375
2099.11969	1478.2375
2102.11299	1483.7375
2105.10435	1484.4375
2108.09379	1483.2375
2111.08131	1490.4375
2114.0669	1480.0375
2117.05057	1477.5375
2120.03233	1481.9375
2123.01216	1486.0375
2125.99008	1470.6375
2128.96609	1469.1375
2131.94018	1480.1375
2134.91236	1474.8375
2137.88263	1476.5375
2140.851	1471.0375
2143.81746	1473.6375
2146.78201	1469.0375
2149.74466	1472.2375
2152.7054	1464.7375
2155.66425	1465.9375
2158.6212	1460.6375
2161.57625	1454.1375
2164.52941	1454.6375
2167.48067	1452.8375
2170.43004	1448.7375
2173.37752	1446.6375
2176.32311	1448.4375
2179.26681	1433.4375
2182.20863	1443.8375
2185.14856	1446.4375
2188.08661	1440.3375
2191.02278	1438.7375
2193.95707	1423.7375
2196.88948	1432.3375
2199.82001	1430.0375
2202.74867	1422.1375
2205.67545	1430.2375
2208.60037	1427.3375
2211.52341	1406.4375
2214.44458	1408.8375
2217.36388	1408.9375
2220.28132	1403.3375
2223.1969	1390.4375
2226.11061	1394.5375
2229.02246	1388.5375
2231.93245	1387.7375
2234.84058	1390.8375
2237.74686	1384.8375
2240.65128	1382.3375
2243.55385	1376.0375
2246.45456	1370.0375
2249.35343	1362.5375
2252.25044	1368.2375
2255.14561	1355.7375
2258.03893	1358.7375
2260.93041	1361.3375
2263.82004	1354.5375
2266.70783	1360.5375
2269.59378	1349.2375
2272.4779	1351.4375
2275.36017	1336.3375
2278.24061	1335.1375
2281.11922	1331.7375
2283.996	1331.0375
2286.87094	1323.6375
2289.74405	1323.1375
2292.61534	1313.8375
2295.4848	1305.3375
2298.35243	1301.4375
2301.21824	1316.0375
2304.08223	1300.7375
2306.94439	1296.8375
2309.80474	1295.8375
2312.66327	1287.0375
2315.51999	1287.7375
2318.37489	1290.7375
2321.22797	1285.6375
2324.07925	1274.8375
2326.92871	1287.7375
2329.77637	1275.3375
2332.62222	1276.3375
2335.46626	1262.2375
2338.3085	1262.4375
2341.14893	1257.1375
2343.98756	1263.3375
2346.8244	1260.9375
2349.65943	1253.5375
2352.49267	1259.5375
2355.32411	1260.2375
2358.15376	1255.3375
2360.98161	1254.1375
2363.80768	1254.0375
2366.63195	1265.8375
2369.45444	1258.7375
2372.27514	1261.7375
2375.09405	1270.9375
2377.91118	1263.2375
2380.72652	1258.9375
2383.54009	1248.0375
2386.35187	1260.0375
2389.16188	1247.1375
2391.97011	1236.2375
2394.77657	1238.6375
2397.58125	1234.4375
2400.38416	1227.9375
2403.18529	1226.0375
2405.98466	1229.3375
2408.78226	1220.6375
2411.57809	1210.8375
2414.37216	1211.2375
2417.16446	1210.5375
2419.955	1193.7375
2422.74378	1200.3375
2425.5308	1198.4375
2428.31606	1194.0375
2431.09956	1184.3375
2433.88131	1182.8375
2436.6613	1180.6375
2439.43954	1182.6375
2442.21603	1176.2375
2444.99077	1176.8375
2447.76377	1175.1375
2450.53501	1179.4375
2453.30451	1174.2375
2456.07226	1176.9375
2458.83827	1165.2375
2461.60254	1168.6375
2464.36507	1167.1375
2467.12586	1160.8375
2469.88492	1166.2375
2472.64224	1158.5375
2475.39782	1159.7375
2478.15167	1160.8375
2480.90379	1165.0375
2483.65417	1154.6375
2486.40283	1155.8375
2489.14976	1154.7375
2491.89497	1158.9375
2494.63845	1167.0375
2497.3802	1148.7375
2500.12024	1150.2375
2502.85855	1152.7375
2505.59514	1140.6375
2508.33002	1140.9375
2511.06318	1143.3375
2513.79462	1141.1375
2516.52435	1134.8375
2519.25237	1123.0375
2521.97867	1122.4375
2524.70327	1119.2375
2527.42616	1119.7375
2530.14734	1117.1375
2532.86681	1107.0375
2535.58458	1110.8375
2538.30065	1114.9375
2541.01501	1106.9375
2543.72768	1113.1375
2546.43864	1101.7375
2549.14791	1103.6375
2551.85548	1102.1375
2554.56136	1094.5375
2557.26554	1096.5375
2559.96803	1097.6375
2562.66883	1088.8375
2565.36794	1087.3375
2568.06536	1083.2375
2570.7611	1085.8375
2573.45514	1082.8375
2576.14751	1074.1375
2578.83819	1071.0375
2581.52719	1085.1375
2584.21451	1072.4375
2586.90015	1066.2375
2589.58411	1061.3375
2592.2664	1065.9375
2594.94701	1064.5375
2597.62594	1058.1375
2600.30321	1048.4375
2602.9788	1056.8375
2605.65273	1055.6375
2608.32498	1043.5375
2610.99557	1051.4375
2613.66449	1052.3375
2616.33175	1046.2375
2618.99734	1041.0375
2621.66128	1039.8375
2624.32355	1041.4375
2626.98416	1043.4375
2629.64311	1044.9375
2632.30041	1034.8375
2634.95605	1036.9375
2637.61004	1028.7375
2640.26238	1028.1375
2642.91306	1024.3375
2645.56209	1032.8375
2648.20948	1026.7375
2650.85521	1031.1375
2653.4993	1025.0375
2656.14175	1025.2375
2658.78255	1028.7375
2661.42171	1031.1375
2664.05923	1027.6375
2666.6951	1036.1375
2669.32934	1027.9375
2671.96194	1029.4375
2674.59291	1038.0375
2677.22224	1026.6375
2679.84993	1032.0375
2682.476	1032.2375
2685.10043	1034.4375
2687.72324	1029.0375
2690.34441	1027.9375
2692.96396	1044.7375
2695.58188	1042.4375
2698.19818	1034.5375
2700.81285	1048.4375
2703.4259	1043.9375
2706.03733	1043.0375
2708.64714	1041.1375
2711.25533	1043.5375
2713.86191	1049.2375
2716.46687	1047.7375
2719.07021	1054.9375
2721.67194	1047.2375
2724.27206	1048.4375
2726.87057	1056.6375
2729.46747	1050.4375
2732.06276	1057.3375
2734.65644	1055.7375
2737.24852	1048.2375
2739.83899	1050.9375
2742.42786	1051.1375
2745.01513	1040.4375
2747.60079	1047.4375
2750.18486	1049.0375
2752.76733	1043.8375
2755.3482	1051.5375
2757.92747	1043.7375
2760.50515	1043.5375
2763.08123	1046.9375
2765.65573	1034.7375
2768.22863	1046.0375
2770.79994	1044.7375
2773.36967	1046.7375
2775.9378	1050.4375
2778.50435	1040.7375
2781.06932	1048.7375
2783.6327	1050.5375
2786.1945	1048.6375
2788.75471	1044.1375
2791.31335	1054.3375
2793.87041	1048.1375
2796.42589	1056.0375
2798.97979	1048.0375
2801.53212	1053.5375
2804.08288	1055.5375
2806.63206	1054.5375
2809.17967	1061.8375
2811.72571	1060.5375
2814.27018	1057.2375
2816.81308	1053.7375
2819.35442	1054.3375
2821.89419	1059.7375
2824.43239	1053.9375
2826.96904	1059.5375
2829.50412	1064.5375
2832.03763	1064.0375
2834.56959	1068.4375
2837.1	1060.1375
2839.62884	1066.4375
2842.15613	1076.4375
2844.68186	1078.7375
2847.20604	1086.9375
2849.72867	1098.9375
2852.24974	1106.0375
2854.76927	1107.1375
2857.28724	1101.4375
2859.80367	1101.2375
2862.31855	1106.6375
2864.83189	1104.0375
2867.34368	1104.1375
2869.85393	1105.8375
2872.36264	1108.8375
2874.8698	1105.9375
2877.37543	1107.3375
2879.87952	1106.8375
2882.38207	1107.1375
2884.88308	1114.6375
2887.38256	1112.2375
2889.88051	1124.8375
2892.37692	1124.4375
2894.8718	1139.9375
2897.36515	1129.4375
2899.85698	1120.2375
2902.34727	1115.5375
2904.83604	1124.4375
2907.32328	1133.2375
2909.809	1131.2375
2912.29319	1113.9375
2914.77587	1124.6375
2917.25702	1121.2375
2919.73665	1128.5375
2922.21476	1122.9375
2924.69136	1110.4375
2927.16644	1119.3375
2929.64	1116.5375
2932.11205	1111.0375
2934.58258	1114.1375
2937.05161	1107.8375
2939.51912	1097.5375
2941.98513	1094.8375
2944.44962	1086.8375
2946.91261	1074.9375
2949.37409	1065.7375
2951.83407	1066.8375
2954.29254	1064.1375
2956.74951	1056.9375
2959.20498	1050.7375
2961.65895	1038.4375
2964.11142	1032.4375
2966.56239	1032.6375
2969.01186	1033.5375
2971.45984	1023.1375
2973.90632	1013.9375
2976.35131	1017.8375
2978.7948	1011.5375
2981.23681	998.6375
2983.67732	998.4375
2986.11635	999.7375
2988.55388	995.3375
2990.98993	998.0375
2993.4245	993.9375
2995.85758	989.2375
2998.28917	992.7375
3000.71928	981.9375
3003.14791	986.1375
3005.57506	992.1375
3008.00073	987.6375
3010.42493	991.6375
3012.84764	980.1375
3015.26888	998.8375
3017.68865	986.5375
3020.10694	991.4375
3022.52376	987.3375
3024.9391	994.6375
3027.35298	994.2375
3029.76539	991.8375
3032.17632	991.7375
3034.5858	990.4375
3036.9938	993.1375
3039.40034	997.2375
3041.80542	996.6375
3044.20903	996.4375
3046.61118	998.7375
3049.01187	996.1375
3051.4111	1007.4375
3053.80888	1011.1375
3056.20519	1008.7375
3058.60005	1010.1375
3060.99345	1018.3375
3063.3854	1009.6375
3065.7759	1019.5375
3068.16494	1010.5375
3070.55254	1021.2375
3072.93868	1015.3375
3075.32338	1027.1375
3077.70662	1028.2375
3080.08842	1026.6375
3082.46878	1033.7375
3084.84769	1029.2375
3087.22515	1039.8375
3089.60118	1038.3375
3091.97576	1047.9375
3094.3489	1048.0375
3096.72061	1056.0375
3099.09087	1057.4375
3101.4597	1066.5375
3103.82709	1062.0375
3106.19305	1065.2375
3108.55757	1075.0375
3110.92066	1074.4375
3113.28232	1080.3375
3115.64255	1092.8375
3118.00134	1089.2375
3120.35871	1086.6375
3122.71466	1104.8375
3125.06917	1100.3375
3127.42226	1100.5375
3129.77393	1122.4375
3132.12417	1113.6375
3134.47299	1124.2375
3136.82039	1138.3375
3139.16636	1142.5375
3141.51092	1153.9375
3143.85406	1159.2375
3146.19579	1168.6375
3148.53609	1176.2375
3150.87499	1181.3375
3153.21246	1189.8375
3155.54853	1198.9375
3157.88318	1194.0375
3160.21642	1203.4375
3162.54826	1216.7375
3164.87868	1216.2375
3167.2077	1222.6375
3169.5353	1233.2375
3171.86151	1235.7375
3174.18631	1236.4375
3176.5097	1254.7375
3178.83169	1247.2375
3181.15228	1258.8375
3183.47147	1264.3375
3185.78926	1263.1375
3188.10565	1274.8375
3190.42065	1282.6375
3192.73424	1289.2375
3195.04645	1293.1375
3197.35725	1296.7375
3199.66667	1306.2375
3201.97469	1316.8375
3204.28132	1316.7375
3206.58656	1315.3375
3208.8904	1328.8375
3211.19287	1339.4375
3213.49394	1339.7375
3215.79363	1347.8375
3218.09193	1343.2375
3220.38884	1360.0375
3222.68438	1352.3375
3224.97853	1352.5375
3227.2713	1359.3375
3229.56269	1359.8375
3231.8527	1357.8375
3234.14133	1358.2375
3236.42858	1350.7375
3238.71446	1360.9375
3240.99896	1361.1375
3243.28209	1369.2375
3245.56384	1361.3375
3247.84423	1361.9375
3250.12324	1369.3375
3252.40088	1370.8375
3254.67715	1361.1375
3256.95205	1376.8375
3259.22558	1378.9375
3261.49775	1367.0375
3263.76855	1374.3375
3266.03799	1361.6375
3268.30606	1372.0375
3270.57277	1364.4375
3272.83812	1367.8375
3275.10211	1364.2375
3277.36474	1368.8375
3279.62601	1366.9375
3281.88593	1361.5375
3284.14448	1365.7375
3286.40168	1362.0375
3288.65753	1370.1375
3290.91202	1360.2375
3293.16516	1361.5375
3295.41695	1358.0375
3297.66738	1348.5375
3299.91647	1335.0375
3302.16421	1329.3375
3304.4106	1326.5375
3306.65564	1320.9375
3308.89933	1316.7375
3311.14169	1316.6375
3313.38269	1291.3375
3315.62236	1295.9375
3317.86068	1280.2375
3320.09766	1273.5375
3322.3333	1269.9375
3324.5676	1259.2375
3326.80056	1235.4375
3329.03219	1237.7375
3331.26248	-0.4625
3333.49143	0.0375
3335.71905	-0.6625
