Data from AgNPs_FTO_APTES_UA_0.1mM_CRN_0uM_NaF_0.1M_Addition_RamanShift__52__11-03-17-515.txt Node

Date: Mon Dec 20 11:03:17 GMT 2021
User: TCL
Spectrometer: QEP01345
Trigger mode: 4
Integration Time (sec): 7.000000E0
Scans to average: 10
Electric dark correction enabled: true
Nonlinearity correction enabled: false
Boxcar width: 0
XAxis mode: Raman Shifts
Number of Pixels in Spectrum: 1044
>>>>>Begin Spectral Data<<<<<
46.04893	0.1875
50.45542	-0.2125
54.85868	-2.4125
59.25871	0.4875
63.6555	30.0875
68.04907	32.2875
72.43941	35.6875
76.82654	35.8875
81.21044	37.0875
85.59113	41.3875
89.96862	39.5875
94.34289	41.7875
98.71396	42.1875
103.08183	41.8875
107.4465	44.2875
111.80798	46.4875
116.16626	47.5875
120.52136	49.6875
124.87327	51.4875
129.222	50.3875
133.56755	55.8875
137.90993	58.8875
142.24913	62.3875
146.58517	63.3875
150.91804	76.5875
155.24774	90.1875
159.57429	101.6875
163.89768	135.5875
168.21792	172.4875
172.53501	227.5875
176.84895	313.7875
181.15975	425.1875
185.46741	591.5875
189.77193	815.6875
194.07331	1086.9875
198.37157	1392.7875
202.6667	1735.0875
206.9587	2065.5875
211.24758	2394.4875
215.53334	2731.8875
219.81599	3070.3875
224.09553	3423.2875
228.37195	3808.5875
232.64527	4237.7875
236.91549	4686.2875
241.18261	5130.7875
245.44663	5545.0875
249.70755	5922.3875
253.96539	6231.2875
258.22014	6459.2875
262.4718	6668.8875
266.72039	6793.4875
270.96589	6812.3875
275.20832	6782.6875
279.44768	6699.8875
283.68397	6632.9875
287.91719	6532.2875
292.14735	6465.7875
296.37445	6428.9875
300.59849	6432.1875
304.81948	6424.4875
309.03742	6428.5875
313.25231	6367.5875
317.46415	6244.2875
321.67296	6112.5875
325.87872	5983.9875
330.08145	5921.6875
334.28114	5903.0875
338.47781	5954.3875
342.67145	5999.6875
346.86207	6080.5875
351.04966	6167.0875
355.23424	6289.2875
359.4158	6386.7875
363.59435	6461.6875
367.76989	6556.9875
371.94243	6605.3875
376.11196	6679.6875
380.27849	6749.6875
384.44203	6826.9875
388.60257	6888.1875
392.76012	6949.1875
396.91468	7007.1875
401.06626	7086.8875
405.21485	7139.5875
409.36047	7129.4875
413.50311	7081.2875
417.64277	7002.4875
421.77947	6960.6875
425.9132	6978.4875
430.04396	6980.0875
434.17176	7036.0875
438.2966	7070.0875
442.41849	7134.0875
446.53742	7243.0875
450.6534	7378.9875
454.76644	7474.9875
458.87653	7527.9875
462.98368	7504.8875
467.08789	7481.7875
471.18916	7450.7875
475.2875	7443.2875
479.38291	7487.7875
483.4754	7572.3875
487.56496	7679.7875
491.6516	7792.0875
495.73531	7875.7875
499.81612	7863.9875
503.89401	7809.8875
507.96899	7712.9875
512.04106	7633.2875
516.11023	7582.7875
520.1765	7582.5875
524.23987	7610.9875
528.30034	7645.5875
532.35792	7656.2875
536.41261	7595.9875
540.46441	7497.2875
544.51333	7393.9875
548.55936	7348.7875
552.60252	7325.7875
556.64279	7375.1875
560.6802	7390.2875
564.71473	7424.2875
568.7464	7461.6875
572.7752	7561.0875
576.80114	7608.2875
580.82422	7689.8875
584.84444	7812.5875
588.86181	7975.9875
592.87633	8117.4875
596.888	8145.4875
600.89682	8092.8875
604.9028	8161.6875
608.90594	8654.5875
612.90624	9335.8875
616.90371	9279.0875
620.89834	8513.2875
624.89015	8376.8875
628.87913	8764.6875
632.86528	9241.7875
636.84862	9542.6875
640.82913	9506.2875
644.80683	9120.8875
648.78172	8671.2875
652.75379	8271.6875
656.72306	8051.5875
660.68952	7963.4875
664.65319	7881.0875
668.61405	7837.0875
672.57211	7855.4875
676.52738	7893.8875
680.47986	7904.0875
684.42955	7867.5875
688.37646	7811.0875
692.32058	7744.7875
696.26192	7665.6875
700.20048	7584.0875
704.13626	7553.9875
708.06928	7478.1875
711.99952	7401.8875
715.927	7377.4875
719.85171	7380.0875
723.77365	7423.0875
727.69284	7409.7875
731.60928	7358.1875
735.52295	7294.5875
739.43388	7278.5875
743.34206	7278.9875
747.24749	7306.6875
751.15017	7290.6875
755.05012	7321.4875
758.94733	7395.0875
762.8418	7606.3875
766.73354	7964.6875
770.62254	8394.1875
774.50882	8592.9875
778.39237	8417.9875
782.27321	7989.3875
786.15132	7584.0875
790.02671	7351.9875
793.89938	7253.8875
797.76935	7265.7875
801.6366	7344.8875
805.50115	7528.2875
809.36299	7724.9875
813.22213	7774.4875
817.07857	7672.2875
820.93231	7445.0875
824.78336	7227.8875
828.63172	7043.7875
832.47738	6961.6875
836.32036	6900.1875
840.16066	6883.3875
843.99827	6875.6875
847.8332	6873.8875
851.66546	6832.0875
855.49504	6839.7875
859.32195	6873.0875
863.1462	6891.5875
866.96777	6944.7875
870.78668	7018.4875
874.60293	7130.5875
878.41652	7299.9875
882.22745	7403.1875
886.03573	7500.0875
889.84136	7527.1875
893.64433	7387.0875
897.44466	7187.1875
901.24235	6986.5875
905.0374	6814.4875
908.8298	6726.3875
912.61957	6643.1875
916.40671	6627.7875
920.19121	6637.7875
923.97308	6665.6875
927.75233	6654.1875
931.52895	6633.9875
935.30295	6582.8875
939.07433	6522.2875
942.84309	6466.4875
946.60924	6454.4875
950.37278	6461.4875
954.13371	6445.6875
957.89203	6437.0875
961.64774	6423.4875
965.40086	6378.2875
969.15137	6349.0875
972.89929	6294.0875
976.64461	6269.2875
980.38733	6256.5875
984.12747	6268.7875
987.86502	6282.8875
991.59999	6324.5875
995.33237	6382.1875
999.06217	6498.5875
1002.78939	6601.2875
1006.51404	6752.8875
1010.23611	6850.1875
1013.95561	6945.8875
1017.67255	6976.6875
1021.38692	6925.4875
1025.09872	6828.2875
1028.80796	6729.8875
1032.51465	6676.5875
1036.21877	6645.7875
1039.92035	6618.3875
1043.61937	6607.0875
1047.31584	6553.5875
1051.00976	6542.5875
1054.70114	6534.0875
1058.38998	6538.5875
1062.07627	6594.0875
1065.76003	6657.8875
1069.44126	6707.9875
1073.11995	6769.8875
1076.79611	6802.3875
1080.46974	6793.5875
1084.14085	6762.9875
1087.80943	6739.5875
1091.47549	6716.1875
1095.13903	6684.1875
1098.80005	6625.2875
1102.45857	6539.9875
1106.11456	6518.1875
1109.76805	6529.9875
1113.41903	6628.9875
1117.06751	6821.2875
1120.71348	7086.1875
1124.35696	7456.0875
1127.99793	7917.1875
1131.63641	8366.9875
1135.2724	8607.6875
1138.90589	8650.5875
1142.5369	8444.4875
1146.16542	8074.9875
1149.79145	7678.3875
1153.415	7307.7875
1157.03607	7043.2875
1160.65467	6911.6875
1164.27079	6928.4875
1167.88443	7056.3875
1171.49561	7262.4875
1175.10432	7542.6875
1178.71056	7967.0875
1182.31434	8393.1875
1185.91565	8606.6875
1189.51451	8676.5875
1193.11091	8679.0875
1196.70485	8636.1875
1200.29634	8617.2875
1203.88538	8550.3875
1207.47197	8426.8875
1211.05612	8206.6875
1214.63782	7938.6875
1218.21708	7694.7875
1221.79391	7479.8875
1225.36829	7340.7875
1228.94024	7209.8875
1232.50976	7087.7875
1236.07685	6998.5875
1239.6415	6965.9875
1243.20374	6959.5875
1246.76355	6996.8875
1250.32093	7040.9875
1253.8759	7134.9875
1257.42845	7267.1875
1260.97859	7359.4875
1264.52631	7465.5875
1268.07163	7582.9875
1271.61453	7673.5875
1275.15503	7789.2875
1278.69312	7864.3875
1282.22882	7974.3875
1285.76211	8080.1875
1289.29301	8236.8875
1292.82151	8471.6875
1296.34761	8738.4875
1299.87133	9109.6875
1303.39266	9501.8875
1306.9116	9980.4875
1310.42815	10380.0875
1313.94233	10689.5875
1317.45412	10703.9875
1320.96354	10546.0875
1324.47058	10312.2875
1327.97525	10122.3875
1331.47754	9984.5875
1334.97747	9934.5875
1338.47502	9989.2875
1341.97022	10022.4875
1345.46305	10073.2875
1348.95352	10212.6875
1352.44163	10448.8875
1355.92738	10810.1875
1359.41078	11331.1875
1362.89183	11782.4875
1366.37053	11643.5875
1369.84688	10863.3875
1373.32088	9931.7875
1376.79254	9245.3875
1380.26186	8917.7875
1383.72883	8792.5875
1387.19347	8665.1875
1390.65578	8518.2875
1394.11575	8431.4875
1397.57339	8394.8875
1401.0287	8407.9875
1404.48168	8433.0875
1407.93234	8379.8875
1411.38068	8228.0875
1414.82669	8022.3875
1418.27039	7764.3875
1421.71177	7466.9875
1425.15083	7230.9875
1428.58758	7088.8875
1432.02203	7033.4875
1435.45416	7052.0875
1438.88399	7169.9875
1442.31151	7240.7875
1445.73673	7344.7875
1449.15965	7423.4875
1452.58027	7485.2875
1455.9986	7494.3875
1459.41463	7512.4875
1462.82837	7593.8875
1466.23982	7711.3875
1469.64898	7809.3875
1473.05586	7862.7875
1476.46045	7905.5875
1479.86276	7933.8875
1483.26279	7918.0875
1486.66054	7919.9875
1490.05602	7965.7875
1493.44922	8039.0875
1496.84016	8179.5875
1500.22882	8328.6875
1503.61521	8615.6875
1506.99934	8942.6875
1510.38121	9218.5875
1513.76081	9329.1875
1517.13816	9137.0875
1520.51324	8712.3875
1523.88607	8325.4875
1527.25665	8110.5875
1530.62498	8001.8875
1533.99105	8010.1875
1537.35488	7995.3875
1540.71647	7972.6875
1544.07581	7986.8875
1547.4329	7983.9875
1550.78776	7966.4875
1554.14038	7962.3875
1557.49077	7993.7875
1560.83892	8035.8875
1564.18484	8084.2875
1567.52853	8123.2875
1570.86999	8171.8875
1574.20922	8198.2875
1577.54624	8209.6875
1580.88103	8152.8875
1584.2136	8075.2875
1587.54395	8107.5875
1590.87208	8278.3875
1594.19801	8546.1875
1597.52172	8907.9875
1600.84321	9073.6875
1604.16251	8944.1875
1607.47959	8618.9875
1610.79447	8223.8875
1614.10715	7868.2875
1617.41763	7596.8875
1620.7259	7430.6875
1624.03199	7364.1875
1627.33587	7369.8875
1630.63757	7473.8875
1633.93707	7724.4875
1637.23439	8091.5875
1640.52951	8615.9875
1643.82246	9285.4875
1647.11321	9888.6875
1650.40179	10209.0875
1653.68819	9955.3875
1656.97241	9235.7875
1660.25446	8407.9875
1663.53433	7763.4875
1666.81203	7310.4875
1670.08756	7002.6875
1673.36092	6796.8875
1676.63211	6632.9875
1679.90115	6536.2875
1683.16801	6414.4875
1686.43272	6263.5875
1689.69527	6140.5875
1692.95567	6013.3875
1696.2139	5894.1875
1699.46999	5781.9875
1702.72392	5653.5875
1705.97571	5552.9875
1709.22535	5460.4875
1712.47284	5390.3875
1715.71819	5340.5875
1718.96139	5243.3875
1722.20246	5205.1875
1725.44139	5148.5875
1728.67818	5071.3875
1731.91284	5004.2875
1735.14537	4954.9875
1738.37576	4906.4875
1741.60403	4887.6875
1744.83017	4829.2875
1748.05418	4858.5875
1751.27607	4803.4875
1754.49584	4799.3875
1757.71349	4785.2875
1760.92903	4770.4875
1764.14244	4767.8875
1767.35375	4735.1875
1770.56294	4741.4875
1773.77002	4713.1875
1776.97499	4689.4875
1780.17785	4671.0875
1783.37861	4645.5875
1786.57727	4621.7875
1789.77382	4595.8875
1792.96828	4573.5875
1796.16064	4571.3875
1799.3509	4558.3875
1802.53907	4542.7875
1805.72514	4504.8875
1808.90913	4515.2875
1812.09102	4487.0875
1815.27083	4469.2875
1818.44856	4461.3875
1821.6242	4439.4875
1824.79776	4454.0875
1827.96924	4443.4875
1831.13864	4424.0875
1834.30597	4424.8875
1837.47122	4410.5875
1840.6344	4391.0875
1843.7955	4406.8875
1846.95454	4393.0875
1850.11151	4396.2875
1853.26642	4392.0875
1856.41926	4373.0875
1859.57004	4368.1875
1862.71876	4376.7875
1865.86542	4375.9875
1869.01003	4361.8875
1872.15258	4354.3875
1875.29308	4346.4875
1878.43152	4344.6875
1881.56792	4341.7875
1884.70227	4323.0875
1887.83457	4315.1875
1890.96482	4322.0875
1894.09304	4315.2875
1897.21921	4305.4875
1900.34335	4308.9875
1903.46544	4299.5875
1906.58551	4302.2875
1909.70353	4268.8875
1912.81953	4286.8875
1915.93349	4262.3875
1919.04543	4248.2875
1922.15534	4246.3875
1925.26322	4222.7875
1928.36908	4227.4875
1931.47292	4216.0875
1934.57473	4191.9875
1937.67453	4205.9875
1940.77232	4180.9875
1943.86808	4161.4875
1946.96184	4161.2875
1950.05358	4136.6875
1953.14331	4145.9875
1956.23103	4111.7875
1959.31675	4106.5875
1962.40046	4080.6875
1965.48217	4078.0875
1968.56188	4063.5875
1971.63959	4037.8875
1974.7153	4031.0875
1977.78901	4022.6875
1980.86073	4016.3875
1983.93046	4005.7875
1986.99819	3995.4875
1990.06394	3975.3875
1993.1277	3966.8875
1996.18947	3952.7875
1999.24925	3946.7875
2002.30706	3924.7875
2005.36288	3929.7875
2008.41672	3895.1875
2011.46859	3892.4875
2014.51848	3862.6875
2017.56639	3861.7875
2020.61233	3870.0875
2023.6563	3842.8875
2026.6983	3851.7875
2029.73833	3840.8875
2032.7764	3818.9875
2035.8125	3805.1875
2038.84664	3805.8875
2041.87881	3813.8875
2044.90903	3795.0875
2047.93729	3787.2875
2050.96359	3778.4875
2053.98794	3788.4875
2057.01034	3767.4875
2060.03078	3756.2875
2063.04927	3758.2875
2066.06582	3760.3875
2069.08042	3759.0875
2072.09307	3767.7875
2075.10378	3747.9875
2078.11255	3740.6875
2081.11938	3737.5875
2084.12426	3755.1875
2087.12722	3762.7875
2090.12824	3743.4875
2093.12732	3738.1875
2096.12447	3746.5875
2099.11969	3735.2875
2102.11299	3723.2875
2105.10435	3735.9875
2108.09379	3738.6875
2111.08131	3740.8875
2114.0669	3729.2875
2117.05057	3739.6875
2120.03233	3730.1875
2123.01216	3742.2875
2125.99008	3746.5875
2128.96609	3742.6875
2131.94018	3745.0875
2134.91236	3753.4875
2137.88263	3740.9875
2140.851	3763.9875
2143.81746	3748.6875
2146.78201	3745.0875
2149.74466	3741.9875
2152.7054	3759.3875
2155.66425	3749.3875
2158.6212	3751.9875
2161.57625	3731.8875
2164.52941	3734.8875
2167.48067	3742.0875
2170.43004	3732.1875
2173.37752	3717.1875
2176.32311	3722.3875
2179.26681	3727.8875
2182.20863	3721.7875
2185.14856	3723.9875
2188.08661	3709.9875
2191.02278	3710.5875
2193.95707	3716.6875
2196.88948	3713.1875
2199.82001	3716.3875
2202.74867	3697.3875
2205.67545	3690.8875
2208.60037	3684.3875
2211.52341	3684.8875
2214.44458	3682.7875
2217.36388	3673.4875
2220.28132	3666.3875
2223.1969	3653.1875
2226.11061	3653.1875
2229.02246	3648.9875
2231.93245	3637.2875
2234.84058	3642.0875
2237.74686	3627.6875
2240.65128	3617.4875
2243.55385	3602.0875
2246.45456	3597.5875
2249.35343	3605.4875
2252.25044	3599.1875
2255.14561	3583.6875
2258.03893	3588.0875
2260.93041	3582.7875
2263.82004	3558.8875
2266.70783	3544.2875
2269.59378	3551.7875
2272.4779	3538.8875
2275.36017	3526.7875
2278.24061	3520.7875
2281.11922	3506.9875
2283.996	3517.0875
2286.87094	3514.4875
2289.74405	3494.2875
2292.61534	3484.0875
2295.4848	3476.3875
2298.35243	3476.3875
2301.21824	3463.9875
2304.08223	3479.8875
2306.94439	3467.0875
2309.80474	3455.4875
2312.66327	3462.8875
2315.51999	3466.8875
2318.37489	3456.0875
2321.22797	3450.0875
2324.07925	3449.1875
2326.92871	3451.1875
2329.77637	3449.2875
2332.62222	3431.2875
2335.46626	3423.5875
2338.3085	3427.0875
2341.14893	3422.2875
2343.98756	3416.7875
2346.8244	3418.1875
2349.65943	3391.4875
2352.49267	3403.7875
2355.32411	3406.3875
2358.15376	3415.2875
2360.98161	3388.4875
2363.80768	3378.9875
2366.63195	3389.5875
2369.45444	3385.1875
2372.27514	3387.3875
2375.09405	3376.5875
2377.91118	3371.0875
2380.72652	3379.2875
2383.54009	3366.0875
2386.35187	3362.0875
2389.16188	3337.1875
2391.97011	3350.0875
2394.77657	3333.7875
2397.58125	3337.0875
2400.38416	3332.9875
2403.18529	3316.8875
2405.98466	3302.6875
2408.78226	3305.1875
2411.57809	3295.8875
2414.37216	3292.0875
2417.16446	3284.1875
2419.955	3274.3875
2422.74378	3272.1875
2425.5308	3265.2875
2428.31606	3264.3875
2431.09956	3260.5875
2433.88131	3244.4875
2436.6613	3257.5875
2439.43954	3238.7875
2442.21603	3241.3875
2444.99077	3243.3875
2447.76377	3236.0875
2450.53501	3235.8875
2453.30451	3243.6875
2456.07226	3223.6875
2458.83827	3239.8875
2461.60254	3222.2875
2464.36507	3215.5875
2467.12586	3211.8875
2469.88492	3217.9875
2472.64224	3204.9875
2475.39782	3204.9875
2478.15167	3202.7875
2480.90379	3206.9875
2483.65417	3208.1875
2486.40283	3206.5875
2489.14976	3196.8875
2491.89497	3197.9875
2494.63845	3204.9875
2497.3802	3195.1875
2500.12024	3197.1875
2502.85855	3194.7875
2505.59514	3184.5875
2508.33002	3179.9875
2511.06318	3180.3875
2513.79462	3175.6875
2516.52435	3172.2875
2519.25237	3183.2875
2521.97867	3152.8875
2524.70327	3161.9875
2527.42616	3158.6875
2530.14734	3145.8875
2532.86681	3156.4875
2535.58458	3137.0875
2538.30065	3132.5875
2541.01501	3131.1875
2543.72768	3118.5875
2546.43864	3108.3875
2549.14791	3116.2875
2551.85548	3102.1875
2554.56136	3103.6875
2557.26554	3103.5875
2559.96803	3093.3875
2562.66883	3090.8875
2565.36794	3088.9875
2568.06536	3088.0875
2570.7611	3079.3875
2573.45514	3091.7875
2576.14751	3077.8875
2578.83819	3076.7875
2581.52719	3069.0875
2584.21451	3065.7875
2586.90015	3053.7875
2589.58411	3061.7875
2592.2664	3038.0875
2594.94701	3036.5875
2597.62594	3032.9875
2600.30321	3025.8875
2602.9788	3016.6875
2605.65273	3028.7875
2608.32498	3029.6875
2610.99557	3015.9875
2613.66449	3020.9875
2616.33175	3014.3875
2618.99734	3009.3875
2621.66128	3012.7875
2624.32355	2996.8875
2626.98416	2999.5875
2629.64311	2995.4875
2632.30041	3004.3875
2634.95605	2999.8875
2637.61004	2990.6875
2640.26238	2983.6875
2642.91306	2992.1875
2645.56209	2964.8875
2648.20948	2973.2875
2650.85521	2964.6875
2653.4993	2970.5875
2656.14175	2974.7875
2658.78255	2974.0875
2661.42171	2971.6875
2664.05923	2964.9875
2666.6951	2978.8875
2669.32934	2964.8875
2671.96194	2970.2875
2674.59291	2961.8875
2677.22224	2971.3875
2679.84993	2972.6875
2682.476	2971.5875
2685.10043	2976.6875
2687.72324	2963.3875
2690.34441	2965.6875
2692.96396	2957.3875
2695.58188	2980.3875
2698.19818	2967.3875
2700.81285	2972.3875
2703.4259	2974.6875
2706.03733	2995.0875
2708.64714	2993.9875
2711.25533	2977.8875
2713.86191	2985.2875
2716.46687	2978.4875
2719.07021	2982.7875
2721.67194	2978.5875
2724.27206	2973.0875
2726.87057	2974.7875
2729.46747	2988.9875
2732.06276	2985.7875
2734.65644	2981.3875
2737.24852	2980.0875
2739.83899	2962.8875
2742.42786	2960.6875
2745.01513	2964.7875
2747.60079	2972.4875
2750.18486	2960.5875
2752.76733	2961.4875
2755.3482	2959.5875
2757.92747	2952.7875
2760.50515	2951.0875
2763.08123	2944.1875
2765.65573	2938.0875
2768.22863	2946.5875
2770.79994	2938.1875
2773.36967	2943.3875
2775.9378	2938.9875
2778.50435	2913.4875
2781.06932	2935.6875
2783.6327	2929.9875
2786.1945	2925.2875
2788.75471	2919.1875
2791.31335	2909.1875
2793.87041	2907.7875
2796.42589	2894.3875
2798.97979	2893.5875
2801.53212	2885.8875
2804.08288	2889.5875
2806.63206	2877.7875
2809.17967	2881.5875
2811.72571	2866.0875
2814.27018	2874.4875
2816.81308	2864.1875
2819.35442	2862.8875
2821.89419	2847.9875
2824.43239	2857.3875
2826.96904	2862.8875
2829.50412	2849.8875
2832.03763	2856.0875
2834.56959	2851.5875
2837.1	2837.4875
2839.62884	2841.3875
2842.15613	2837.9875
2844.68186	2846.0875
2847.20604	2861.5875
2849.72867	2852.8875
2852.24974	2852.1875
2854.76927	2844.9875
2857.28724	2852.6875
2859.80367	2839.4875
2862.31855	2846.6875
2864.83189	2844.4875
2867.34368	2841.6875
2869.85393	2845.8875
2872.36264	2852.1875
2874.8698	2854.2875
2877.37543	2845.6875
2879.87952	2860.3875
2882.38207	2859.5875
2884.88308	2852.8875
2887.38256	2848.9875
2889.88051	2863.0875
2892.37692	2856.1875
2894.8718	2859.0875
2897.36515	2859.4875
2899.85698	2856.0875
2902.34727	2866.0875
2904.83604	2863.8875
2907.32328	2870.5875
2909.809	2868.2875
2912.29319	2870.8875
2914.77587	2882.5875
2917.25702	2864.7875
2919.73665	2883.6875
2922.21476	2858.8875
2924.69136	2863.9875
2927.16644	2873.8875
2929.64	2863.1875
2932.11205	2864.1875
2934.58258	2865.6875
2937.05161	2850.4875
2939.51912	2861.9875
2941.98513	2862.3875
2944.44962	2855.6875
2946.91261	2843.2875
2949.37409	2859.8875
2951.83407	2845.9875
2954.29254	2832.7875
2956.74951	2836.2875
2959.20498	2823.5875
2961.65895	2834.7875
2964.11142	2825.5875
2966.56239	2829.6875
2969.01186	2825.3875
2971.45984	2803.1875
2973.90632	2801.9875
2976.35131	2804.1875
2978.7948	2793.4875
2981.23681	2796.9875
2983.67732	2794.6875
2986.11635	2791.7875
2988.55388	2774.9875
2990.98993	2782.6875
2993.4245	2771.8875
2995.85758	2776.9875
2998.28917	2768.1875
3000.71928	2771.9875
3003.14791	2764.6875
3005.57506	2747.5875
3008.00073	2746.7875
3010.42493	2746.6875
3012.84764	2757.4875
3015.26888	2764.4875
3017.68865	2741.7875
3020.10694	2750.6875
3022.52376	2750.8875
3024.9391	2743.9875
3027.35298	2739.0875
3029.76539	2734.2875
3032.17632	2751.3875
3034.5858	2736.9875
3036.9938	2748.2875
3039.40034	2736.2875
3041.80542	2753.8875
3044.20903	2742.3875
3046.61118	2741.8875
3049.01187	2737.8875
3051.4111	2741.2875
3053.80888	2739.3875
3056.20519	2755.4875
3058.60005	2731.9875
3060.99345	2731.1875
3063.3854	2723.0875
3065.7759	2732.7875
3068.16494	2725.1875
3070.55254	2722.6875
3072.93868	2725.7875
3075.32338	2715.5875
3077.70662	2714.4875
3080.08842	2727.3875
3082.46878	2721.3875
3084.84769	2723.4875
3087.22515	2737.5875
3089.60118	2733.1875
3091.97576	2739.0875
3094.3489	2738.9875
3096.72061	2738.6875
3099.09087	2753.0875
3101.4597	2760.0875
3103.82709	2762.7875
3106.19305	2752.6875
3108.55757	2757.7875
3110.92066	2758.5875
3113.28232	2763.2875
3115.64255	2758.7875
3118.00134	2750.9875
3120.35871	2764.1875
3122.71466	2758.9875
3125.06917	2757.6875
3127.42226	2745.8875
3129.77393	2758.4875
3132.12417	2756.5875
3134.47299	2777.9875
3136.82039	2769.0875
3139.16636	2792.1875
3141.51092	2802.9875
3143.85406	2805.0875
3146.19579	2796.4875
3148.53609	2799.8875
3150.87499	2821.6875
3153.21246	2831.9875
3155.54853	2833.8875
3157.88318	2839.1875
3160.21642	2861.2875
3162.54826	2847.1875
3164.87868	2855.2875
3167.2077	2862.0875
3169.5353	2858.2875
3171.86151	2867.5875
3174.18631	2870.3875
3176.5097	2877.2875
3178.83169	2871.4875
3181.15228	2882.4875
3183.47147	2878.7875
3185.78926	2878.2875
3188.10565	2880.2875
3190.42065	2889.2875
3192.73424	2891.3875
3195.04645	2907.8875
3197.35725	2900.4875
3199.66667	2904.2875
3201.97469	2919.5875
3204.28132	2929.7875
3206.58656	2917.7875
3208.8904	2935.1875
3211.19287	2941.0875
3213.49394	2949.2875
3215.79363	2954.3875
3218.09193	2953.4875
3220.38884	2962.7875
3222.68438	2960.4875
3224.97853	2967.1875
3227.2713	2957.7875
3229.56269	2954.4875
3231.8527	2947.0875
3234.14133	2947.3875
3236.42858	2939.2875
3238.71446	2941.0875
3240.99896	2944.5875
3243.28209	2940.7875
3245.56384	2947.9875
3247.84423	2939.4875
3250.12324	2941.9875
3252.40088	2951.8875
3254.67715	2953.3875
3256.95205	2939.1875
3259.22558	2939.4875
3261.49775	2934.3875
3263.76855	2932.9875
3266.03799	2917.9875
3268.30606	2932.9875
3270.57277	2924.9875
3272.83812	2905.3875
3275.10211	2910.7875
3277.36474	2921.2875
3279.62601	2908.1875
3281.88593	2918.9875
3284.14448	2906.1875
3286.40168	2922.4875
3288.65753	2915.4875
3290.91202	2910.1875
3293.16516	2896.7875
3295.41695	2884.5875
3297.66738	2874.2875
3299.91647	2866.4875
3302.16421	2836.7875
3304.4106	2841.1875
3306.65564	2822.0875
3308.89933	2807.1875
3311.14169	2803.2875
3313.38269	2777.3875
3315.62236	2755.0875
3317.86068	2728.8875
3320.09766	2711.9875
3322.3333	2695.7875
3324.5676	2701.7875
3326.80056	2649.7875
3329.03219	2642.8875
3331.26248	0.8875
3333.49143	0.9875
3335.71905	-0.0125
