Data from AgNPs_FTO_APTES_UA_0.1mM_CRN_0uM_NaF_0.1M_Addition_RamanShift__17__10-22-27-468.txt Node

Date: Mon Dec 20 10:22:27 GMT 2021
User: TCL
Spectrometer: QEP01345
Trigger mode: 4
Integration Time (sec): 7.000000E0
Scans to average: 10
Electric dark correction enabled: true
Nonlinearity correction enabled: false
Boxcar width: 0
XAxis mode: Raman Shifts
Number of Pixels in Spectrum: 1044
>>>>>Begin Spectral Data<<<<<
46.04893	0.525
50.45542	-0.475
54.85868	-1.275
59.25871	2.025
63.6555	23.225
68.04907	21.325
72.43941	26.825
76.82654	25.025
81.21044	25.825
85.59113	34.225
89.96862	32.825
94.34289	36.025
98.71396	33.925
103.08183	33.825
107.4465	32.025
111.80798	34.925
116.16626	36.425
120.52136	35.525
124.87327	35.825
129.222	34.525
133.56755	38.625
137.90993	42.025
142.24913	41.425
146.58517	36.925
150.91804	44.825
155.24774	51.025
159.57429	58.625
163.89768	71.325
168.21792	89.425
172.53501	110.725
176.84895	150.325
181.15975	199.925
185.46741	277.025
189.77193	381.625
194.07331	506.925
198.37157	658.825
202.6667	816.425
206.9587	972.125
211.24758	1128.925
215.53334	1285.625
219.81599	1456.225
224.09553	1618.325
228.37195	1792.225
232.64527	1991.125
236.91549	2186.725
241.18261	2373.025
245.44663	2540.525
249.70755	2703.125
253.96539	2834.325
258.22014	2913.425
262.4718	2987.325
266.72039	3018.425
270.96589	3031.425
275.20832	3005.325
279.44768	2958.425
283.68397	2890.525
287.91719	2822.325
292.14735	2774.225
296.37445	2719.525
300.59849	2700.625
304.81948	2696.225
309.03742	2676.225
313.25231	2646.725
317.46415	2607.625
321.67296	2554.325
325.87872	2504.525
330.08145	2482.725
334.28114	2485.725
338.47781	2487.625
342.67145	2484.125
346.86207	2522.425
351.04966	2565.325
355.23424	2614.125
359.4158	2667.325
363.59435	2702.625
367.76989	2731.325
371.94243	2759.525
376.11196	2799.125
380.27849	2828.625
384.44203	2858.525
388.60257	2862.625
392.76012	2876.225
396.91468	2905.125
401.06626	2930.525
405.21485	2934.325
409.36047	2935.025
413.50311	2890.625
417.64277	2846.225
421.77947	2839.525
425.9132	2834.425
430.04396	2828.725
434.17176	2836.825
438.2966	2856.325
442.41849	2879.625
446.53742	2893.525
450.6534	2916.725
454.76644	2942.925
458.87653	2969.625
462.98368	2972.225
467.08789	2979.925
471.18916	2984.125
475.2875	2969.625
479.38291	2999.325
483.4754	3036.125
487.56496	3082.425
491.6516	3126.525
495.73531	3173.425
499.81612	3166.825
503.89401	3144.325
507.96899	3118.825
512.04106	3106.825
516.11023	3112.425
520.1765	3115.925
524.23987	3131.325
528.30034	3130.225
532.35792	3113.225
536.41261	3082.325
540.46441	3056.925
544.51333	3034.625
548.55936	3007.725
552.60252	3008.325
556.64279	3017.325
560.6802	3021.925
564.71473	3016.825
568.7464	3028.125
572.7752	3044.925
576.80114	3054.125
580.82422	3028.525
584.84444	3070.625
588.86181	3099.625
592.87633	3136.825
596.888	3130.225
600.89682	3134.325
604.9028	3186.525
608.90594	3390.825
612.90624	3714.325
616.90371	3791.925
620.89834	3521.925
624.89015	3454.325
628.87913	3594.025
632.86528	3769.825
636.84862	3914.525
640.82913	3900.025
644.80683	3748.225
648.78172	3576.425
652.75379	3445.625
656.72306	3361.425
660.68952	3359.925
664.65319	3355.825
668.61405	3340.425
672.57211	3361.625
676.52738	3403.525
680.47986	3482.525
684.42955	3574.325
688.37646	3649.125
692.32058	3605.025
696.26192	3510.625
700.20048	3404.025
704.13626	3335.425
708.06928	3313.025
711.99952	3267.025
715.927	3230.225
719.85171	3202.225
723.77365	3190.525
727.69284	3192.225
731.60928	3157.325
735.52295	3130.025
739.43388	3093.725
743.34206	3075.225
747.24749	3080.225
751.15017	3085.425
755.05012	3091.425
758.94733	3093.425
762.8418	3170.925
766.73354	3285.525
770.62254	3435.025
774.50882	3542.225
778.39237	3485.225
782.27321	3348.025
786.15132	3217.625
790.02671	3174.725
793.89938	3176.225
797.76935	3195.625
801.6366	3236.025
805.50115	3310.725
809.36299	3385.425
813.22213	3415.925
817.07857	3352.025
820.93231	3251.625
824.78336	3129.025
828.63172	3061.925
832.47738	3031.725
836.32036	3015.425
840.16066	3004.125
843.99827	2998.625
847.8332	2987.925
851.66546	2981.625
855.49504	2962.125
859.32195	2961.525
863.1462	2959.125
866.96777	2959.425
870.78668	2973.025
874.60293	3025.125
878.41652	3065.525
882.22745	3126.225
886.03573	3163.125
889.84136	3193.125
893.64433	3164.625
897.44466	3095.125
901.24235	3018.625
905.0374	2980.925
908.8298	2948.525
912.61957	2964.125
916.40671	2983.825
920.19121	3013.625
923.97308	3045.225
927.75233	3074.225
931.52895	3058.125
935.30295	3054.125
939.07433	3026.925
942.84309	2979.525
946.60924	2971.725
950.37278	2949.325
954.13371	2928.625
957.89203	2897.525
961.64774	2859.725
965.40086	2832.225
969.15137	2810.025
972.89929	2790.825
976.64461	2761.825
980.38733	2757.425
984.12747	2752.425
987.86502	2749.525
991.59999	2757.525
995.33237	2780.525
999.06217	2810.525
1002.78939	2860.325
1006.51404	2880.825
1010.23611	2924.925
1013.95561	2963.725
1017.67255	2973.025
1021.38692	2969.125
1025.09872	2928.925
1028.80796	2892.725
1032.51465	2854.225
1036.21877	2814.725
1039.92035	2795.525
1043.61937	2771.025
1047.31584	2759.625
1051.00976	2754.325
1054.70114	2761.425
1058.38998	2745.925
1062.07627	2763.325
1065.76003	2770.725
1069.44126	2779.525
1073.11995	2795.525
1076.79611	2795.025
1080.46974	2782.525
1084.14085	2775.225
1087.80943	2763.725
1091.47549	2744.025
1095.13903	2731.925
1098.80005	2701.825
1102.45857	2679.325
1106.11456	2679.225
1109.76805	2712.825
1113.41903	2756.725
1117.06751	2832.425
1120.71348	2960.125
1124.35696	3123.625
1127.99793	3320.225
1131.63641	3502.425
1135.2724	3582.525
1138.90589	3554.825
1142.5369	3430.425
1146.16542	3273.025
1149.79145	3101.425
1153.415	2960.325
1157.03607	2840.425
1160.65467	2786.125
1164.27079	2767.625
1167.88443	2769.625
1171.49561	2806.325
1175.10432	2901.725
1178.71056	3011.025
1182.31434	3118.725
1185.91565	3175.025
1189.51451	3162.425
1193.11091	3144.525
1196.70485	3131.425
1200.29634	3161.025
1203.88538	3163.525
1207.47197	3127.325
1211.05612	3042.425
1214.63782	2961.625
1218.21708	2887.525
1221.79391	2818.625
1225.36829	2776.725
1228.94024	2765.125
1232.50976	2751.925
1236.07685	2754.225
1239.6415	2745.125
1243.20374	2758.025
1246.76355	2789.025
1250.32093	2796.325
1253.8759	2823.925
1257.42845	2840.925
1260.97859	2871.025
1264.52631	2899.625
1268.07163	2919.225
1271.61453	2951.625
1275.15503	2961.425
1278.69312	2968.925
1282.22882	2974.525
1285.76211	2992.925
1289.29301	3010.425
1292.82151	3078.225
1296.34761	3138.825
1299.87133	3223.425
1303.39266	3315.825
1306.9116	3444.425
1310.42815	3595.525
1313.94233	3679.825
1317.45412	3665.625
1320.96354	3570.825
1324.47058	3467.325
1327.97525	3396.725
1331.47754	3387.625
1334.97747	3390.625
1338.47502	3432.525
1341.97022	3517.025
1345.46305	3635.425
1348.95352	3804.925
1352.44163	3965.325
1355.92738	4181.425
1359.41078	4473.225
1362.89183	4761.525
1366.37053	4783.825
1369.84688	4521.925
1373.32088	4176.425
1376.79254	3925.125
1380.26186	3763.125
1383.72883	3673.525
1387.19347	3573.725
1390.65578	3498.125
1394.11575	3436.525
1397.57339	3351.425
1401.0287	3294.525
1404.48168	3218.725
1407.93234	3160.125
1411.38068	3084.425
1414.82669	3024.125
1418.27039	2977.725
1421.71177	2926.525
1425.15083	2882.325
1428.58758	2842.525
1432.02203	2797.025
1435.45416	2786.525
1438.88399	2769.425
1442.31151	2742.925
1445.73673	2744.325
1449.15965	2730.025
1452.58027	2715.825
1455.9986	2699.125
1459.41463	2714.925
1462.82837	2704.125
1466.23982	2729.725
1469.64898	2764.725
1473.05586	2771.325
1476.46045	2794.525
1479.86276	2815.225
1483.26279	2837.625
1486.66054	2860.725
1490.05602	2891.925
1493.44922	2930.825
1496.84016	2990.225
1500.22882	3093.925
1503.61521	3260.025
1506.99934	3458.325
1510.38121	3628.025
1513.76081	3685.125
1517.13816	3589.825
1520.51324	3374.625
1523.88607	3170.725
1527.25665	3020.925
1530.62498	2936.925
1533.99105	2917.025
1537.35488	2913.625
1540.71647	2914.625
1544.07581	2919.625
1547.4329	2954.225
1550.78776	2962.625
1554.14038	2993.725
1557.49077	3030.425
1560.83892	3054.225
1564.18484	3064.625
1567.52853	3081.425
1570.86999	3098.825
1574.20922	3099.825
1577.54624	3079.225
1580.88103	3022.125
1584.2136	2930.525
1587.54395	2863.625
1590.87208	2836.725
1594.19801	2843.525
1597.52172	2870.025
1600.84321	2887.025
1604.16251	2869.125
1607.47959	2863.825
1610.79447	2842.525
1614.10715	2819.125
1617.41763	2794.425
1620.7259	2770.025
1624.03199	2766.525
1627.33587	2760.425
1630.63757	2755.825
1633.93707	2778.125
1637.23439	2816.325
1640.52951	2866.625
1643.82246	2947.825
1647.11321	3073.525
1650.40179	3196.425
1653.68819	3208.425
1656.97241	3099.525
1660.25446	2934.425
1663.53433	2815.925
1666.81203	2754.025
1670.08756	2716.825
1673.36092	2707.825
1676.63211	2680.925
1679.90115	2672.325
1683.16801	2658.125
1686.43272	2617.525
1689.69527	2592.825
1692.95567	2549.925
1696.2139	2493.025
1699.46999	2433.325
1702.72392	2367.825
1705.97571	2320.325
1709.22535	2262.725
1712.47284	2203.825
1715.71819	2150.025
1718.96139	2106.225
1722.20246	2067.425
1725.44139	2012.325
1728.67818	1972.225
1731.91284	1927.425
1735.14537	1879.125
1738.37576	1858.025
1741.60403	1835.425
1744.83017	1798.325
1748.05418	1780.625
1751.27607	1754.625
1754.49584	1749.625
1757.71349	1734.425
1760.92903	1729.025
1764.14244	1713.125
1767.35375	1705.425
1770.56294	1704.725
1773.77002	1694.625
1776.97499	1691.125
1780.17785	1666.025
1783.37861	1677.025
1786.57727	1662.725
1789.77382	1644.625
1792.96828	1636.525
1796.16064	1623.325
1799.3509	1621.125
1802.53907	1601.425
1805.72514	1588.925
1808.90913	1584.025
1812.09102	1582.325
1815.27083	1576.625
1818.44856	1566.525
1821.6242	1563.225
1824.79776	1557.725
1827.96924	1554.325
1831.13864	1548.125
1834.30597	1547.925
1837.47122	1544.925
1840.6344	1540.025
1843.7955	1532.625
1846.95454	1531.925
1850.11151	1534.225
1853.26642	1527.025
1856.41926	1519.025
1859.57004	1529.825
1862.71876	1508.025
1865.86542	1516.925
1869.01003	1507.025
1872.15258	1508.025
1875.29308	1505.025
1878.43152	1496.925
1881.56792	1484.525
1884.70227	1490.525
1887.83457	1493.825
1890.96482	1479.125
1894.09304	1477.025
1897.21921	1471.725
1900.34335	1468.025
1903.46544	1472.525
1906.58551	1470.125
1909.70353	1466.525
1912.81953	1461.925
1915.93349	1468.425
1919.04543	1457.525
1922.15534	1439.425
1925.26322	1449.225
1928.36908	1431.525
1931.47292	1439.125
1934.57473	1434.025
1937.67453	1423.225
1940.77232	1415.025
1943.86808	1412.525
1946.96184	1410.225
1950.05358	1409.925
1953.14331	1403.425
1956.23103	1392.625
1959.31675	1392.225
1962.40046	1387.625
1965.48217	1387.525
1968.56188	1379.625
1971.63959	1365.225
1974.7153	1367.825
1977.78901	1358.525
1980.86073	1357.425
1983.93046	1349.025
1986.99819	1342.825
1990.06394	1346.625
1993.1277	1339.525
1996.18947	1327.525
1999.24925	1328.225
2002.30706	1326.725
2005.36288	1315.825
2008.41672	1314.325
2011.46859	1310.025
2014.51848	1294.725
2017.56639	1301.225
2020.61233	1292.225
2023.6563	1287.425
2026.6983	1281.625
2029.73833	1274.625
2032.7764	1278.625
2035.8125	1273.225
2038.84664	1261.625
2041.87881	1273.825
2044.90903	1267.525
2047.93729	1262.725
2050.96359	1262.325
2053.98794	1256.325
2057.01034	1268.625
2060.03078	1261.925
2063.04927	1255.625
2066.06582	1256.725
2069.08042	1263.425
2072.09307	1253.125
2075.10378	1251.725
2078.11255	1255.425
2081.11938	1254.725
2084.12426	1250.725
2087.12722	1245.225
2090.12824	1255.625
2093.12732	1247.225
2096.12447	1249.025
2099.11969	1249.725
2102.11299	1251.825
2105.10435	1245.225
2108.09379	1247.425
2111.08131	1248.125
2114.0669	1248.425
2117.05057	1249.625
2120.03233	1241.225
2123.01216	1240.425
2125.99008	1231.625
2128.96609	1245.425
2131.94018	1238.525
2134.91236	1242.325
2137.88263	1225.925
2140.851	1228.325
2143.81746	1225.225
2146.78201	1234.925
2149.74466	1229.525
2152.7054	1229.025
2155.66425	1225.725
2158.6212	1225.425
2161.57625	1224.525
2164.52941	1223.925
2167.48067	1220.825
2170.43004	1205.225
2173.37752	1201.625
2176.32311	1209.625
2179.26681	1206.125
2182.20863	1206.825
2185.14856	1209.625
2188.08661	1204.225
2191.02278	1205.925
2193.95707	1202.525
2196.88948	1197.925
2199.82001	1190.425
2202.74867	1185.725
2205.67545	1187.125
2208.60037	1188.825
2211.52341	1183.725
2214.44458	1183.625
2217.36388	1174.625
2220.28132	1176.925
2223.1969	1168.325
2226.11061	1167.725
2229.02246	1161.825
2231.93245	1161.725
2234.84058	1165.325
2237.74686	1151.625
2240.65128	1152.925
2243.55385	1149.325
2246.45456	1143.725
2249.35343	1138.925
2252.25044	1140.025
2255.14561	1137.225
2258.03893	1130.125
2260.93041	1131.525
2263.82004	1126.025
2266.70783	1129.325
2269.59378	1122.725
2272.4779	1118.925
2275.36017	1114.225
2278.24061	1113.725
2281.11922	1109.425
2283.996	1114.225
2286.87094	1103.825
2289.74405	1105.825
2292.61534	1092.825
2295.4848	1095.425
2298.35243	1090.525
2301.21824	1083.625
2304.08223	1086.725
2306.94439	1089.425
2309.80474	1083.725
2312.66327	1082.725
2315.51999	1078.825
2318.37489	1079.925
2321.22797	1075.025
2324.07925	1068.925
2326.92871	1078.525
2329.77637	1068.925
2332.62222	1073.825
2335.46626	1064.125
2338.3085	1064.125
2341.14893	1061.525
2343.98756	1055.525
2346.8244	1054.025
2349.65943	1051.625
2352.49267	1055.925
2355.32411	1043.925
2358.15376	1048.425
2360.98161	1048.725
2363.80768	1045.225
2366.63195	1047.225
2369.45444	1044.525
2372.27514	1045.125
2375.09405	1055.425
2377.91118	1035.625
2380.72652	1033.925
2383.54009	1033.325
2386.35187	1033.525
2389.16188	1028.325
2391.97011	1024.025
2394.77657	1022.025
2397.58125	1023.025
2400.38416	1012.325
2403.18529	1016.925
2405.98466	1010.125
2408.78226	1008.525
2411.57809	1008.225
2414.37216	999.025
2417.16446	1000.825
2419.955	998.825
2422.74378	998.025
2425.5308	982.925
2428.31606	993.225
2431.09956	983.425
2433.88131	988.525
2436.6613	983.625
2439.43954	976.425
2442.21603	981.025
2444.99077	974.425
2447.76377	973.125
2450.53501	968.825
2453.30451	979.425
2456.07226	977.725
2458.83827	969.925
2461.60254	969.425
2464.36507	961.625
2467.12586	965.325
2469.88492	965.925
2472.64224	954.525
2475.39782	962.825
2478.15167	957.625
2480.90379	955.725
2483.65417	954.525
2486.40283	946.525
2489.14976	952.025
2491.89497	956.225
2494.63845	951.825
2497.3802	939.125
2500.12024	946.025
2502.85855	943.025
2505.59514	941.625
2508.33002	939.025
2511.06318	937.325
2513.79462	934.025
2516.52435	933.825
2519.25237	929.725
2521.97867	927.125
2524.70327	922.225
2527.42616	919.725
2530.14734	923.425
2532.86681	921.725
2535.58458	915.925
2538.30065	914.825
2541.01501	912.525
2543.72768	908.725
2546.43864	907.025
2549.14791	899.525
2551.85548	902.325
2554.56136	902.325
2557.26554	897.425
2559.96803	899.725
2562.66883	895.825
2565.36794	890.525
2568.06536	891.225
2570.7611	893.025
2573.45514	889.625
2576.14751	890.525
2578.83819	879.225
2581.52719	875.125
2584.21451	884.825
2586.90015	876.125
2589.58411	874.625
2592.2664	870.325
2594.94701	873.025
2597.62594	868.825
2600.30321	864.425
2602.9788	865.325
2605.65273	864.925
2608.32498	861.525
2610.99557	851.225
2613.66449	861.025
2616.33175	848.125
2618.99734	857.125
2621.66128	850.025
2624.32355	849.425
2626.98416	848.025
2629.64311	851.525
2632.30041	844.725
2634.95605	840.625
2637.61004	838.525
2640.26238	838.125
2642.91306	839.125
2645.56209	841.425
2648.20948	841.525
2650.85521	836.925
2653.4993	834.125
2656.14175	834.025
2658.78255	841.225
2661.42171	830.025
2664.05923	833.525
2666.6951	836.025
2669.32934	835.125
2671.96194	835.925
2674.59291	837.325
2677.22224	837.225
2679.84993	837.125
2682.476	837.425
2685.10043	835.525
2687.72324	838.225
2690.34441	832.625
2692.96396	838.225
2695.58188	835.125
2698.19818	840.125
2700.81285	832.025
2703.4259	832.425
2706.03733	822.125
2708.64714	831.425
2711.25533	836.825
2713.86191	836.225
2716.46687	837.225
2719.07021	838.225
2721.67194	835.325
2724.27206	834.325
2726.87057	839.425
2729.46747	834.025
2732.06276	836.325
2734.65644	837.725
2737.24852	827.925
2739.83899	835.225
2742.42786	832.425
2745.01513	821.725
2747.60079	826.125
2750.18486	822.025
2752.76733	824.625
2755.3482	830.325
2757.92747	822.925
2760.50515	818.525
2763.08123	817.925
2765.65573	815.225
2768.22863	817.325
2770.79994	811.925
2773.36967	808.225
2775.9378	810.425
2778.50435	805.925
2781.06932	806.825
2783.6327	807.125
2786.1945	804.225
2788.75471	792.625
2791.31335	795.825
2793.87041	799.125
2796.42589	801.925
2798.97979	794.525
2801.53212	800.725
2804.08288	793.725
2806.63206	790.625
2809.17967	788.025
2811.72571	787.525
2814.27018	781.925
2816.81308	783.125
2819.35442	783.125
2821.89419	781.625
2824.43239	784.925
2826.96904	780.125
2829.50412	778.725
2832.03763	779.825
2834.56959	778.425
2837.1	779.225
2839.62884	782.025
2842.15613	777.725
2844.68186	783.425
2847.20604	784.125
2849.72867	781.725
2852.24974	778.725
2854.76927	781.125
2857.28724	780.525
2859.80367	781.925
2862.31855	789.725
2864.83189	789.325
2867.34368	788.625
2869.85393	795.125
2872.36264	798.025
2874.8698	797.025
2877.37543	807.825
2879.87952	812.525
2882.38207	816.325
2884.88308	815.425
2887.38256	809.925
2889.88051	817.625
2892.37692	814.225
2894.8718	825.025
2897.36515	827.125
2899.85698	827.725
2902.34727	834.225
2904.83604	833.025
2907.32328	840.325
2909.809	839.525
2912.29319	845.525
2914.77587	845.425
2917.25702	845.725
2919.73665	851.725
2922.21476	853.425
2924.69136	856.025
2927.16644	861.425
2929.64	860.725
2932.11205	862.725
2934.58258	864.725
2937.05161	871.725
2939.51912	870.525
2941.98513	860.225
2944.44962	859.925
2946.91261	847.625
2949.37409	844.425
2951.83407	835.925
2954.29254	837.725
2956.74951	835.225
2959.20498	827.725
2961.65895	820.725
2964.11142	816.625
2966.56239	810.925
2969.01186	809.525
2971.45984	806.625
2973.90632	789.725
2976.35131	790.925
2978.7948	798.125
2981.23681	786.625
2983.67732	788.125
2986.11635	783.425
2988.55388	777.925
2990.98993	783.725
2993.4245	785.325
2995.85758	776.425
2998.28917	780.025
3000.71928	768.725
3003.14791	777.525
3005.57506	776.925
3008.00073	776.825
3010.42493	772.925
3012.84764	770.225
3015.26888	772.625
3017.68865	769.725
3020.10694	778.525
3022.52376	777.725
3024.9391	779.125
3027.35298	775.325
3029.76539	778.225
3032.17632	785.325
3034.5858	781.025
3036.9938	781.925
3039.40034	781.425
3041.80542	784.225
3044.20903	782.625
3046.61118	789.325
3049.01187	784.225
3051.4111	785.625
3053.80888	785.325
3056.20519	788.725
3058.60005	794.525
3060.99345	794.825
3063.3854	801.325
3065.7759	792.525
3068.16494	794.725
3070.55254	796.925
3072.93868	799.625
3075.32338	803.125
3077.70662	802.325
3080.08842	806.425
3082.46878	804.525
3084.84769	813.425
3087.22515	813.125
3089.60118	816.425
3091.97576	827.725
3094.3489	829.625
3096.72061	825.225
3099.09087	831.525
3101.4597	834.125
3103.82709	841.125
3106.19305	843.325
3108.55757	854.925
3110.92066	853.925
3113.28232	852.625
3115.64255	863.725
3118.00134	867.625
3120.35871	867.525
3122.71466	880.525
3125.06917	877.625
3127.42226	865.625
3129.77393	884.225
3132.12417	889.825
3134.47299	889.225
3136.82039	894.525
3139.16636	905.825
3141.51092	909.525
3143.85406	919.025
3146.19579	919.825
3148.53609	926.425
3150.87499	938.425
3153.21246	942.825
3155.54853	945.325
3157.88318	954.725
3160.21642	960.525
3162.54826	962.925
3164.87868	970.525
3167.2077	968.325
3169.5353	973.625
3171.86151	974.925
3174.18631	991.925
3176.5097	994.125
3178.83169	1000.125
3181.15228	1002.325
3183.47147	1012.125
3185.78926	1018.025
3188.10565	1014.025
3190.42065	1022.725
3192.73424	1028.425
3195.04645	1033.025
3197.35725	1030.925
3199.66667	1043.325
3201.97469	1048.225
3204.28132	1055.325
3206.58656	1052.625
3208.8904	1051.625
3211.19287	1057.425
3213.49394	1069.025
3215.79363	1076.625
3218.09193	1070.225
3220.38884	1073.825
3222.68438	1072.525
3224.97853	1072.325
3227.2713	1080.025
3229.56269	1075.725
3231.8527	1080.725
3234.14133	1082.225
3236.42858	1080.225
3238.71446	1077.825
3240.99896	1082.425
3243.28209	1086.025
3245.56384	1088.925
3247.84423	1083.125
3250.12324	1091.125
3252.40088	1092.525
3254.67715	1091.925
3256.95205	1090.725
3259.22558	1095.825
3261.49775	1085.825
3263.76855	1084.825
3266.03799	1091.325
3268.30606	1093.125
3270.57277	1088.325
3272.83812	1080.125
3275.10211	1084.825
3277.36474	1086.325
3279.62601	1078.725
3281.88593	1084.425
3284.14448	1089.025
3286.40168	1081.225
3288.65753	1081.225
3290.91202	1084.025
3293.16516	1076.525
3295.41695	1074.525
3297.66738	1063.125
3299.91647	1061.225
3302.16421	1058.325
3304.4106	1061.025
3306.65564	1049.025
3308.89933	1045.025
3311.14169	1045.225
3313.38269	1029.825
3315.62236	1033.625
3317.86068	1027.525
3320.09766	1019.725
3322.3333	1014.025
3324.5676	1007.625
3326.80056	995.025
3329.03219	986.725
3331.26248	-0.675
3333.49143	0.025
3335.71905	-0.575
