Data from AgNPs_FTO_APTES_UA_0.1mM_CRN_200uM_NaF_0.1M_Addition_RamanShift__29__14-28-37-747.txt Node

Date: Mon Dec 20 14:28:37 GMT 2021
User: TCL
Spectrometer: QEP01345
Trigger mode: 4
Integration Time (sec): 7.000000E0
Scans to average: 10
Electric dark correction enabled: true
Nonlinearity correction enabled: false
Boxcar width: 0
XAxis mode: Raman Shifts
Number of Pixels in Spectrum: 1044
>>>>>Begin Spectral Data<<<<<
46.04893	1.5875
50.45542	-0.4125
54.85868	-1.1125
59.25871	0.6875
63.6555	22.6875
68.04907	27.3875
72.43941	28.6875
76.82654	30.5875
81.21044	30.4875
85.59113	35.9875
89.96862	32.3875
94.34289	34.9875
98.71396	32.3875
103.08183	35.6875
107.4465	36.7875
111.80798	37.7875
116.16626	35.8875
120.52136	40.4875
124.87327	42.0875
129.222	39.9875
133.56755	42.5875
137.90993	47.2875
142.24913	50.1875
146.58517	48.2875
150.91804	56.8875
155.24774	64.0875
159.57429	76.4875
163.89768	96.9875
168.21792	123.0875
172.53501	154.0875
176.84895	208.0875
181.15975	281.9875
185.46741	385.1875
189.77193	522.0875
194.07331	694.1875
198.37157	903.7875
202.6667	1115.7875
206.9587	1321.2875
211.24758	1529.4875
215.53334	1731.4875
219.81599	1940.6875
224.09553	2165.2875
228.37195	2415.2875
232.64527	2672.0875
236.91549	2940.1875
241.18261	3184.9875
245.44663	3412.3875
249.70755	3595.7875
253.96539	3756.2875
258.22014	3853.9875
262.4718	3903.6875
266.72039	3920.3875
270.96589	3920.9875
275.20832	3858.0875
279.44768	3793.4875
283.68397	3724.8875
287.91719	3678.9875
292.14735	3660.3875
296.37445	3700.5875
300.59849	3786.6875
304.81948	3867.3875
309.03742	3946.8875
313.25231	3913.6875
317.46415	3761.4875
321.67296	3515.3875
325.87872	3327.2875
330.08145	3209.8875
334.28114	3183.1875
338.47781	3218.9875
342.67145	3247.2875
346.86207	3356.2875
351.04966	3497.7875
355.23424	3686.6875
359.4158	3840.2875
363.59435	3923.1875
367.76989	3969.5875
371.94243	4036.4875
376.11196	4056.3875
380.27849	4077.0875
384.44203	4077.5875
388.60257	4083.3875
392.76012	4083.6875
396.91468	4102.7875
401.06626	4170.6875
405.21485	4218.6875
409.36047	4147.9875
413.50311	3957.6875
417.64277	3771.0875
421.77947	3662.1875
425.9132	3604.4875
430.04396	3575.5875
434.17176	3586.0875
438.2966	3615.3875
442.41849	3670.1875
446.53742	3739.1875
450.6534	3819.3875
454.76644	3847.2875
458.87653	3859.1875
462.98368	3855.6875
467.08789	3830.6875
471.18916	3816.0875
475.2875	3798.0875
479.38291	3804.2875
483.4754	3879.2875
487.56496	4013.2875
491.6516	4143.6875
495.73531	4213.4875
499.81612	4135.7875
503.89401	4035.4875
507.96899	3979.4875
512.04106	3968.3875
516.11023	4080.1875
520.1765	4182.8875
524.23987	4298.8875
528.30034	4329.8875
532.35792	4275.5875
536.41261	4138.4875
540.46441	3954.0875
544.51333	3801.9875
548.55936	3716.3875
552.60252	3693.8875
556.64279	3723.5875
560.6802	3734.5875
564.71473	3781.3875
568.7464	3898.9875
572.7752	3996.9875
576.80114	3922.9875
580.82422	3876.3875
584.84444	3918.2875
588.86181	3983.3875
592.87633	4058.5875
596.888	4066.4875
600.89682	4117.6875
604.9028	4406.1875
608.90594	5244.4875
612.90624	6435.4875
616.90371	6621.5875
620.89834	5707.1875
624.89015	5554.6875
628.87913	6035.7875
632.86528	6554.4875
636.84862	6779.3875
640.82913	6530.5875
644.80683	5912.3875
648.78172	5246.4875
652.75379	4782.7875
656.72306	4543.8875
660.68952	4470.3875
664.65319	4309.5875
668.61405	4120.8875
672.57211	4049.2875
676.52738	4047.1875
680.47986	4064.4875
684.42955	4031.5875
688.37646	4023.9875
692.32058	4006.3875
696.26192	3984.1875
700.20048	3969.1875
704.13626	3939.5875
708.06928	3877.3875
711.99952	3838.5875
715.927	3834.2875
719.85171	3897.5875
723.77365	3964.6875
727.69284	3947.3875
731.60928	3889.9875
735.52295	3773.6875
739.43388	3717.5875
743.34206	3724.6875
747.24749	3754.8875
751.15017	3794.9875
755.05012	3809.3875
758.94733	3935.3875
762.8418	4191.7875
766.73354	4629.5875
770.62254	5082.7875
774.50882	5328.1875
778.39237	5203.2875
782.27321	4724.6875
786.15132	4232.8875
790.02671	4001.9875
793.89938	3941.7875
797.76935	3993.5875
801.6366	4199.4875
805.50115	4567.9875
809.36299	4977.5875
813.22213	5132.0875
817.07857	4938.7875
820.93231	4560.6875
824.78336	4154.0875
828.63172	3875.4875
832.47738	3722.1875
836.32036	3636.9875
840.16066	3601.7875
843.99827	3577.9875
847.8332	3552.9875
851.66546	3533.1875
855.49504	3529.1875
859.32195	3543.0875
863.1462	3589.8875
866.96777	3686.8875
870.78668	3850.7875
874.60293	4076.1875
878.41652	4329.3875
882.22745	4620.8875
886.03573	4791.5875
889.84136	4757.8875
893.64433	4535.5875
897.44466	4213.9875
901.24235	3882.8875
905.0374	3648.3875
908.8298	3489.6875
912.61957	3419.6875
916.40671	3374.9875
920.19121	3356.5875
923.97308	3345.4875
927.75233	3351.6875
931.52895	3369.4875
935.30295	3339.5875
939.07433	3285.7875
942.84309	3243.3875
946.60924	3213.4875
950.37278	3208.1875
954.13371	3207.5875
957.89203	3195.1875
961.64774	3189.0875
965.40086	3174.9875
969.15137	3155.1875
972.89929	3138.2875
976.64461	3124.4875
980.38733	3141.8875
984.12747	3139.1875
987.86502	3169.1875
991.59999	3216.6875
995.33237	3297.3875
999.06217	3409.2875
1002.78939	3558.1875
1006.51404	3743.9875
1010.23611	3916.8875
1013.95561	4046.3875
1017.67255	4055.4875
1021.38692	3998.6875
1025.09872	3844.4875
1028.80796	3671.9875
1032.51465	3517.4875
1036.21877	3413.3875
1039.92035	3364.8875
1043.61937	3332.8875
1047.31584	3354.2875
1051.00976	3364.4875
1054.70114	3420.5875
1058.38998	3477.3875
1062.07627	3574.5875
1065.76003	3637.4875
1069.44126	3696.7875
1073.11995	3704.9875
1076.79611	3688.6875
1080.46974	3655.4875
1084.14085	3637.9875
1087.80943	3597.5875
1091.47549	3557.5875
1095.13903	3476.9875
1098.80005	3410.3875
1102.45857	3347.9875
1106.11456	3351.9875
1109.76805	3412.0875
1113.41903	3540.2875
1117.06751	3765.9875
1120.71348	4096.4875
1124.35696	4527.7875
1127.99793	5083.9875
1131.63641	5544.4875
1135.2724	5785.6875
1138.90589	5759.7875
1142.5369	5515.7875
1146.16542	5091.9875
1149.79145	4598.8875
1153.415	4172.7875
1157.03607	3885.6875
1160.65467	3715.3875
1164.27079	3661.8875
1167.88443	3695.1875
1171.49561	3868.6875
1175.10432	4153.5875
1178.71056	4575.2875
1182.31434	4996.6875
1185.91565	5212.7875
1189.51451	5316.4875
1193.11091	5433.2875
1196.70485	5621.6875
1200.29634	5807.8875
1203.88538	5877.9875
1207.47197	5678.7875
1211.05612	5316.2875
1214.63782	4887.7875
1218.21708	4480.8875
1221.79391	4166.6875
1225.36829	3905.6875
1228.94024	3760.2875
1232.50976	3667.9875
1236.07685	3636.2875
1239.6415	3632.0875
1243.20374	3640.8875
1246.76355	3670.3875
1250.32093	3711.1875
1253.8759	3746.2875
1257.42845	3801.5875
1260.97859	3836.8875
1264.52631	3887.2875
1268.07163	3914.6875
1271.61453	3949.8875
1275.15503	3946.3875
1278.69312	3917.2875
1282.22882	3902.1875
1285.76211	3965.5875
1289.29301	4056.1875
1292.82151	4175.2875
1296.34761	4299.3875
1299.87133	4535.0875
1303.39266	4855.3875
1306.9116	5358.3875
1310.42815	5888.9875
1313.94233	6106.7875
1317.45412	5988.6875
1320.96354	5700.1875
1324.47058	5434.3875
1327.97525	5223.4875
1331.47754	5145.0875
1334.97747	5173.4875
1338.47502	5292.3875
1341.97022	5470.6875
1345.46305	5735.7875
1348.95352	6085.5875
1352.44163	6465.6875
1355.92738	7017.8875
1359.41078	7715.5875
1362.89183	8302.5875
1366.37053	7970.2875
1369.84688	7104.5875
1373.32088	6217.8875
1376.79254	5635.1875
1380.26186	5296.5875
1383.72883	5086.4875
1387.19347	4919.9875
1390.65578	4760.6875
1394.11575	4648.3875
1397.57339	4570.6875
1401.0287	4509.4875
1404.48168	4448.5875
1407.93234	4330.5875
1411.38068	4235.5875
1414.82669	4094.5875
1418.27039	3958.7875
1421.71177	3824.1875
1425.15083	3697.0875
1428.58758	3632.0875
1432.02203	3571.0875
1435.45416	3567.2875
1438.88399	3547.1875
1442.31151	3537.7875
1445.73673	3555.4875
1449.15965	3531.5875
1452.58027	3530.6875
1455.9986	3510.9875
1459.41463	3526.9875
1462.82837	3553.8875
1466.23982	3582.7875
1469.64898	3652.7875
1473.05586	3685.1875
1476.46045	3702.7875
1479.86276	3750.4875
1483.26279	3812.7875
1486.66054	3938.9875
1490.05602	4081.8875
1493.44922	4275.6875
1496.84016	4579.7875
1500.22882	4995.0875
1503.61521	5566.4875
1506.99934	6170.6875
1510.38121	6584.0875
1513.76081	6615.3875
1517.13816	6169.0875
1520.51324	5454.3875
1523.88607	4866.0875
1527.25665	4519.9875
1530.62498	4379.5875
1533.99105	4338.2875
1537.35488	4346.9875
1540.71647	4415.2875
1544.07581	4473.3875
1547.4329	4548.3875
1550.78776	4592.8875
1554.14038	4621.5875
1557.49077	4603.3875
1560.83892	4639.8875
1564.18484	4692.8875
1567.52853	4779.3875
1570.86999	4881.0875
1574.20922	4956.9875
1577.54624	4955.7875
1580.88103	4830.3875
1584.2136	4631.7875
1587.54395	4517.5875
1590.87208	4510.1875
1594.19801	4617.4875
1597.52172	4809.0875
1600.84321	4898.2875
1604.16251	4866.5875
1607.47959	4764.7875
1610.79447	4651.8875
1614.10715	4507.6875
1617.41763	4394.6875
1620.7259	4326.2875
1624.03199	4299.1875
1627.33587	4293.0875
1630.63757	4336.7875
1633.93707	4425.8875
1637.23439	4603.4875
1640.52951	4891.3875
1643.82246	5319.3875
1647.11321	5810.7875
1650.40179	6205.8875
1653.68819	6177.9875
1656.97241	5742.7875
1660.25446	5202.4875
1663.53433	4764.7875
1666.81203	4441.7875
1670.08756	4198.1875
1673.36092	4014.4875
1676.63211	3884.5875
1679.90115	3747.8875
1683.16801	3659.9875
1686.43272	3562.4875
1689.69527	3476.9875
1692.95567	3398.9875
1696.2139	3343.9875
1699.46999	3267.0875
1702.72392	3186.0875
1705.97571	3091.4875
1709.22535	3024.6875
1712.47284	2970.3875
1715.71819	2931.3875
1718.96139	2879.5875
1722.20246	2848.3875
1725.44139	2815.6875
1728.67818	2776.6875
1731.91284	2731.9875
1735.14537	2700.5875
1738.37576	2675.0875
1741.60403	2660.4875
1744.83017	2639.2875
1748.05418	2627.9875
1751.27607	2597.4875
1754.49584	2579.0875
1757.71349	2571.5875
1760.92903	2557.5875
1764.14244	2537.3875
1767.35375	2516.1875
1770.56294	2486.4875
1773.77002	2460.6875
1776.97499	2437.8875
1780.17785	2414.3875
1783.37861	2396.5875
1786.57727	2385.9875
1789.77382	2366.2875
1792.96828	2356.4875
1796.16064	2337.9875
1799.3509	2318.5875
1802.53907	2329.6875
1805.72514	2307.5875
1808.90913	2301.7875
1812.09102	2298.4875
1815.27083	2286.9875
1818.44856	2267.8875
1821.6242	2260.0875
1824.79776	2265.7875
1827.96924	2266.6875
1831.13864	2255.4875
1834.30597	2253.4875
1837.47122	2246.9875
1840.6344	2240.2875
1843.7955	2241.0875
1846.95454	2236.3875
1850.11151	2235.6875
1853.26642	2224.7875
1856.41926	2233.5875
1859.57004	2221.6875
1862.71876	2216.7875
1865.86542	2212.6875
1869.01003	2200.5875
1872.15258	2207.7875
1875.29308	2194.8875
1878.43152	2187.9875
1881.56792	2181.6875
1884.70227	2196.0875
1887.83457	2180.7875
1890.96482	2180.6875
1894.09304	2187.0875
1897.21921	2175.6875
1900.34335	2159.8875
1903.46544	2161.5875
1906.58551	2163.2875
1909.70353	2151.5875
1912.81953	2144.9875
1915.93349	2149.9875
1919.04543	2145.9875
1922.15534	2142.3875
1925.26322	2130.0875
1928.36908	2129.1875
1931.47292	2118.9875
1934.57473	2110.7875
1937.67453	2106.1875
1940.77232	2091.1875
1943.86808	2084.2875
1946.96184	2089.0875
1950.05358	2071.3875
1953.14331	2075.8875
1956.23103	2068.1875
1959.31675	2053.6875
1962.40046	2053.7875
1965.48217	2050.9875
1968.56188	2042.2875
1971.63959	2033.2875
1974.7153	2033.6875
1977.78901	2026.0875
1980.86073	2013.5875
1983.93046	2009.3875
1986.99819	2000.1875
1990.06394	1993.8875
1993.1277	1983.2875
1996.18947	1980.4875
1999.24925	1976.5875
2002.30706	1977.9875
2005.36288	1960.5875
2008.41672	1948.5875
2011.46859	1958.8875
2014.51848	1942.9875
2017.56639	1936.7875
2020.61233	1935.9875
2023.6563	1927.9875
2026.6983	1920.4875
2029.73833	1918.1875
2032.7764	1917.7875
2035.8125	1910.3875
2038.84664	1907.7875
2041.87881	1902.5875
2044.90903	1904.6875
2047.93729	1899.4875
2050.96359	1906.8875
2053.98794	1875.1875
2057.01034	1896.2875
2060.03078	1882.6875
2063.04927	1873.8875
2066.06582	1881.6875
2069.08042	1879.8875
2072.09307	1885.2875
2075.10378	1874.5875
2078.11255	1871.8875
2081.11938	1861.0875
2084.12426	1874.0875
2087.12722	1870.5875
2090.12824	1878.1875
2093.12732	1862.3875
2096.12447	1860.8875
2099.11969	1873.2875
2102.11299	1856.8875
2105.10435	1862.3875
2108.09379	1859.5875
2111.08131	1857.2875
2114.0669	1870.3875
2117.05057	1866.9875
2120.03233	1864.9875
2123.01216	1874.5875
2125.99008	1868.1875
2128.96609	1870.6875
2131.94018	1874.9875
2134.91236	1873.2875
2137.88263	1874.8875
2140.851	1871.8875
2143.81746	1876.8875
2146.78201	1874.0875
2149.74466	1871.6875
2152.7054	1881.5875
2155.66425	1874.2875
2158.6212	1865.7875
2161.57625	1866.7875
2164.52941	1867.7875
2167.48067	1860.9875
2170.43004	1856.0875
2173.37752	1860.4875
2176.32311	1860.2875
2179.26681	1858.4875
2182.20863	1850.9875
2185.14856	1860.7875
2188.08661	1849.5875
2191.02278	1862.0875
2193.95707	1837.1875
2196.88948	1844.1875
2199.82001	1852.3875
2202.74867	1831.6875
2205.67545	1831.5875
2208.60037	1827.5875
2211.52341	1824.7875
2214.44458	1822.6875
2217.36388	1825.8875
2220.28132	1820.5875
2223.1969	1797.9875
2226.11061	1798.4875
2229.02246	1799.5875
2231.93245	1803.6875
2234.84058	1789.4875
2237.74686	1789.6875
2240.65128	1786.0875
2243.55385	1787.7875
2246.45456	1787.4875
2249.35343	1785.1875
2252.25044	1786.6875
2255.14561	1779.2875
2258.03893	1776.2875
2260.93041	1780.3875
2263.82004	1772.5875
2266.70783	1769.5875
2269.59378	1770.3875
2272.4779	1765.9875
2275.36017	1751.2875
2278.24061	1744.6875
2281.11922	1748.8875
2283.996	1741.5875
2286.87094	1740.3875
2289.74405	1735.7875
2292.61534	1715.0875
2295.4848	1727.1875
2298.35243	1713.3875
2301.21824	1712.7875
2304.08223	1717.6875
2306.94439	1709.9875
2309.80474	1710.2875
2312.66327	1710.6875
2315.51999	1700.3875
2318.37489	1692.2875
2321.22797	1710.4875
2324.07925	1703.0875
2326.92871	1696.1875
2329.77637	1697.7875
2332.62222	1688.4875
2335.46626	1678.0875
2338.3085	1679.4875
2341.14893	1685.8875
2343.98756	1666.4875
2346.8244	1672.2875
2349.65943	1672.5875
2352.49267	1675.0875
2355.32411	1678.4875
2358.15376	1672.8875
2360.98161	1670.0875
2363.80768	1680.9875
2366.63195	1677.0875
2369.45444	1687.7875
2372.27514	1682.5875
2375.09405	1679.3875
2377.91118	1682.9875
2380.72652	1674.5875
2383.54009	1662.5875
2386.35187	1662.4875
2389.16188	1657.8875
2391.97011	1652.5875
2394.77657	1649.6875
2397.58125	1650.8875
2400.38416	1637.5875
2403.18529	1635.2875
2405.98466	1634.8875
2408.78226	1637.0875
2411.57809	1629.3875
2414.37216	1616.4875
2417.16446	1622.1875
2419.955	1610.7875
2422.74378	1603.7875
2425.5308	1608.4875
2428.31606	1604.9875
2431.09956	1598.2875
2433.88131	1595.2875
2436.6613	1589.4875
2439.43954	1590.5875
2442.21603	1587.8875
2444.99077	1589.2875
2447.76377	1586.6875
2450.53501	1591.0875
2453.30451	1587.0875
2456.07226	1581.6875
2458.83827	1582.4875
2461.60254	1582.6875
2464.36507	1574.9875
2467.12586	1568.3875
2469.88492	1568.8875
2472.64224	1575.7875
2475.39782	1569.4875
2478.15167	1579.6875
2480.90379	1565.9875
2483.65417	1569.6875
2486.40283	1573.1875
2489.14976	1575.1875
2491.89497	1573.1875
2494.63845	1574.3875
2497.3802	1572.9875
2500.12024	1570.0875
2502.85855	1557.4875
2505.59514	1565.0875
2508.33002	1554.8875
2511.06318	1551.0875
2513.79462	1548.7875
2516.52435	1544.4875
2519.25237	1542.7875
2521.97867	1532.9875
2524.70327	1534.0875
2527.42616	1522.5875
2530.14734	1513.9875
2532.86681	1520.1875
2535.58458	1517.2875
2538.30065	1511.9875
2541.01501	1516.1875
2543.72768	1512.6875
2546.43864	1506.0875
2549.14791	1509.5875
2551.85548	1504.0875
2554.56136	1497.0875
2557.26554	1496.2875
2559.96803	1494.7875
2562.66883	1485.8875
2565.36794	1486.7875
2568.06536	1484.1875
2570.7611	1493.5875
2573.45514	1475.8875
2576.14751	1469.3875
2578.83819	1478.2875
2581.52719	1472.9875
2584.21451	1467.2875
2586.90015	1465.8875
2589.58411	1463.5875
2592.2664	1457.4875
2594.94701	1451.7875
2597.62594	1447.6875
2600.30321	1444.7875
2602.9788	1451.6875
2605.65273	1440.3875
2608.32498	1434.8875
2610.99557	1440.6875
2613.66449	1442.1875
2616.33175	1433.5875
2618.99734	1434.0875
2621.66128	1434.4875
2624.32355	1426.7875
2626.98416	1423.9875
2629.64311	1426.8875
2632.30041	1424.1875
2634.95605	1421.7875
2637.61004	1420.3875
2640.26238	1418.4875
2642.91306	1409.6875
2645.56209	1403.2875
2648.20948	1410.7875
2650.85521	1412.7875
2653.4993	1404.9875
2656.14175	1405.6875
2658.78255	1406.5875
2661.42171	1403.2875
2664.05923	1408.6875
2666.6951	1405.6875
2669.32934	1412.9875
2671.96194	1401.6875
2674.59291	1406.9875
2677.22224	1414.9875
2679.84993	1412.9875
2682.476	1413.5875
2685.10043	1414.9875
2687.72324	1408.7875
2690.34441	1408.7875
2692.96396	1416.9875
2695.58188	1421.2875
2698.19818	1414.1875
2700.81285	1419.4875
2703.4259	1422.9875
2706.03733	1445.5875
2708.64714	1434.8875
2711.25533	1433.7875
2713.86191	1422.2875
2716.46687	1419.8875
2719.07021	1429.2875
2721.67194	1426.5875
2724.27206	1428.9875
2726.87057	1423.5875
2729.46747	1427.4875
2732.06276	1421.7875
2734.65644	1418.5875
2737.24852	1418.5875
2739.83899	1412.9875
2742.42786	1410.3875
2745.01513	1402.6875
2747.60079	1417.4875
2750.18486	1409.7875
2752.76733	1398.1875
2755.3482	1402.8875
2757.92747	1393.8875
2760.50515	1398.3875
2763.08123	1393.8875
2765.65573	1375.5875
2768.22863	1395.8875
2770.79994	1394.4875
2773.36967	1392.1875
2775.9378	1387.4875
2778.50435	1377.4875
2781.06932	1371.3875
2783.6327	1383.3875
2786.1945	1387.1875
2788.75471	1377.6875
2791.31335	1389.6875
2793.87041	1389.1875
2796.42589	1376.9875
2798.97979	1376.2875
2801.53212	1367.7875
2804.08288	1374.8875
2806.63206	1373.3875
2809.17967	1372.8875
2811.72571	1370.9875
2814.27018	1362.5875
2816.81308	1362.3875
2819.35442	1371.9875
2821.89419	1361.6875
2824.43239	1378.6875
2826.96904	1379.7875
2829.50412	1374.1875
2832.03763	1368.4875
2834.56959	1378.7875
2837.1	1369.8875
2839.62884	1379.4875
2842.15613	1377.8875
2844.68186	1375.8875
2847.20604	1380.3875
2849.72867	1384.5875
2852.24974	1393.4875
2854.76927	1394.4875
2857.28724	1388.7875
2859.80367	1393.7875
2862.31855	1386.1875
2864.83189	1393.7875
2867.34368	1388.6875
2869.85393	1398.9875
2872.36264	1394.6875
2874.8698	1393.9875
2877.37543	1399.2875
2879.87952	1394.0875
2882.38207	1400.0875
2884.88308	1397.6875
2887.38256	1395.0875
2889.88051	1395.6875
2892.37692	1410.1875
2894.8718	1399.9875
2897.36515	1406.1875
2899.85698	1405.5875
2902.34727	1414.4875
2904.83604	1422.5875
2907.32328	1418.4875
2909.809	1424.6875
2912.29319	1428.4875
2914.77587	1421.7875
2917.25702	1425.9875
2919.73665	1422.7875
2922.21476	1428.2875
2924.69136	1428.1875
2927.16644	1421.4875
2929.64	1427.5875
2932.11205	1423.1875
2934.58258	1422.5875
2937.05161	1418.4875
2939.51912	1427.2875
2941.98513	1420.6875
2944.44962	1404.4875
2946.91261	1411.3875
2949.37409	1405.4875
2951.83407	1410.0875
2954.29254	1414.8875
2956.74951	1395.7875
2959.20498	1403.3875
2961.65895	1393.0875
2964.11142	1395.9875
2966.56239	1380.4875
2969.01186	1393.9875
2971.45984	1379.4875
2973.90632	1370.6875
2976.35131	1369.4875
2978.7948	1365.4875
2981.23681	1359.8875
2983.67732	1361.9875
2986.11635	1364.3875
2988.55388	1362.1875
2990.98993	1365.4875
2993.4245	1356.8875
2995.85758	1349.1875
2998.28917	1356.1875
3000.71928	1353.2875
3003.14791	1355.3875
3005.57506	1355.7875
3008.00073	1350.6875
3010.42493	1354.0875
3012.84764	1370.0875
3015.26888	1353.5875
3017.68865	1364.6875
3020.10694	1357.9875
3022.52376	1364.5875
3024.9391	1363.9875
3027.35298	1364.2875
3029.76539	1363.1875
3032.17632	1373.8875
3034.5858	1365.5875
3036.9938	1381.1875
3039.40034	1366.3875
3041.80542	1374.5875
3044.20903	1369.8875
3046.61118	1376.5875
3049.01187	1369.9875
3051.4111	1380.6875
3053.80888	1377.6875
3056.20519	1379.7875
3058.60005	1380.8875
3060.99345	1375.0875
3063.3854	1380.7875
3065.7759	1385.5875
3068.16494	1387.8875
3070.55254	1389.4875
3072.93868	1396.4875
3075.32338	1393.3875
3077.70662	1399.6875
3080.08842	1399.8875
3082.46878	1404.6875
3084.84769	1407.3875
3087.22515	1412.2875
3089.60118	1405.2875
3091.97576	1423.7875
3094.3489	1416.8875
3096.72061	1423.0875
3099.09087	1442.8875
3101.4597	1439.1875
3103.82709	1448.7875
3106.19305	1446.0875
3108.55757	1455.9875
3110.92066	1460.1875
3113.28232	1463.5875
3115.64255	1471.3875
3118.00134	1466.3875
3120.35871	1478.4875
3122.71466	1480.2875
3125.06917	1480.1875
3127.42226	1486.3875
3129.77393	1502.5875
3132.12417	1515.5875
3134.47299	1514.3875
3136.82039	1519.6875
3139.16636	1520.3875
3141.51092	1539.4875
3143.85406	1539.7875
3146.19579	1557.0875
3148.53609	1567.9875
3150.87499	1567.6875
3153.21246	1589.2875
3155.54853	1599.3875
3157.88318	1598.4875
3160.21642	1615.6875
3162.54826	1614.5875
3164.87868	1622.8875
3167.2077	1627.5875
3169.5353	1634.0875
3171.86151	1644.7875
3174.18631	1654.0875
3176.5097	1653.5875
3178.83169	1653.3875
3181.15228	1667.5875
3183.47147	1670.4875
3185.78926	1689.1875
3188.10565	1684.7875
3190.42065	1694.8875
3192.73424	1703.6875
3195.04645	1698.7875
3197.35725	1719.1875
3199.66667	1718.0875
3201.97469	1735.6875
3204.28132	1749.1875
3206.58656	1744.3875
3208.8904	1743.2875
3211.19287	1760.1875
3213.49394	1759.8875
3215.79363	1768.3875
3218.09193	1772.2875
3220.38884	1776.5875
3222.68438	1791.8875
3224.97853	1785.3875
3227.2713	1790.2875
3229.56269	1789.5875
3231.8527	1791.6875
3234.14133	1786.4875
3236.42858	1789.1875
3238.71446	1792.3875
3240.99896	1784.2875
3243.28209	1796.1875
3245.56384	1789.2875
3247.84423	1791.0875
3250.12324	1798.3875
3252.40088	1809.0875
3254.67715	1795.5875
3256.95205	1797.8875
3259.22558	1803.0875
3261.49775	1795.6875
3263.76855	1798.6875
3266.03799	1797.1875
3268.30606	1800.1875
3270.57277	1791.2875
3272.83812	1790.6875
3275.10211	1790.5875
3277.36474	1795.8875
3279.62601	1800.1875
3281.88593	1794.5875
3284.14448	1795.6875
3286.40168	1789.6875
3288.65753	1790.5875
3290.91202	1793.4875
3293.16516	1782.8875
3295.41695	1778.5875
3297.66738	1770.4875
3299.91647	1775.2875
3302.16421	1762.3875
3304.4106	1760.2875
3306.65564	1749.4875
3308.89933	1736.3875
3311.14169	1739.1875
3313.38269	1719.4875
3315.62236	1717.9875
3317.86068	1695.8875
3320.09766	1678.0875
3322.3333	1666.6875
3324.5676	1672.7875
3326.80056	1645.2875
3329.03219	1629.2875
3331.26248	-0.2125
3333.49143	-0.1125
3335.71905	-0.2125
