Data from AgNPs_FTO_APTES_UA_0.1mM_CRN_50uM_NaF_0.1M_Addition_RamanShift__6__12-43-37-628.txt Node

Date: Mon Dec 20 12:43:37 GMT 2021
User: TCL
Spectrometer: QEP01345
Trigger mode: 4
Integration Time (sec): 7.000000E0
Scans to average: 10
Electric dark correction enabled: true
Nonlinearity correction enabled: false
Boxcar width: 0
XAxis mode: Raman Shifts
Number of Pixels in Spectrum: 1044
>>>>>Begin Spectral Data<<<<<
46.04893	0.325
50.45542	-0.075
54.85868	-1.475
59.25871	0.825
63.6555	29.125
68.04907	29.525
72.43941	32.625
76.82654	31.025
81.21044	32.025
85.59113	39.325
89.96862	32.425
94.34289	39.025
98.71396	36.425
103.08183	39.225
107.4465	40.025
111.80798	42.725
116.16626	42.525
120.52136	47.525
124.87327	50.925
129.222	49.825
133.56755	49.625
137.90993	54.025
142.24913	54.825
146.58517	58.325
150.91804	71.925
155.24774	76.425
159.57429	100.125
163.89768	121.025
168.21792	153.825
172.53501	203.525
176.84895	278.225
181.15975	389.925
185.46741	537.325
189.77193	737.725
194.07331	986.425
198.37157	1276.325
202.6667	1583.525
206.9587	1903.025
211.24758	2199.925
215.53334	2505.025
219.81599	2857.525
224.09553	3213.325
228.37195	3605.125
232.64527	4075.825
236.91549	4551.725
241.18261	5014.025
245.44663	5433.925
249.70755	5785.425
253.96539	6063.925
258.22014	6275.225
262.4718	6403.225
266.72039	6465.425
270.96589	6459.225
275.20832	6403.625
279.44768	6314.525
283.68397	6216.625
287.91719	6098.825
292.14735	6020.025
296.37445	5959.125
300.59849	5938.725
304.81948	5921.325
309.03742	5875.125
313.25231	5831.325
317.46415	5738.725
321.67296	5665.825
325.87872	5594.925
330.08145	5535.525
334.28114	5523.825
338.47781	5536.425
342.67145	5560.125
346.86207	5619.825
351.04966	5674.525
355.23424	5757.525
359.4158	5817.025
363.59435	5897.625
367.76989	5942.225
371.94243	5997.825
376.11196	6069.225
380.27849	6122.925
384.44203	6196.725
388.60257	6232.125
392.76012	6290.325
396.91468	6342.025
401.06626	6399.825
405.21485	6441.025
409.36047	6426.725
413.50311	6419.525
417.64277	6368.725
421.77947	6397.725
425.9132	6394.225
430.04396	6391.025
434.17176	6424.225
438.2966	6454.625
442.41849	6487.425
446.53742	6546.225
450.6534	6608.725
454.76644	6657.925
458.87653	6706.725
462.98368	6714.425
467.08789	6720.625
471.18916	6728.125
475.2875	6765.425
479.38291	6794.925
483.4754	6843.725
487.56496	6932.325
491.6516	7047.225
495.73531	7149.425
499.81612	7181.425
503.89401	7179.225
507.96899	7078.925
512.04106	7014.325
516.11023	6967.325
520.1765	6939.125
524.23987	6951.625
528.30034	6973.225
532.35792	6972.925
536.41261	6952.625
540.46441	6892.125
544.51333	6821.625
548.55936	6796.825
552.60252	6773.325
556.64279	6784.625
560.6802	6776.725
564.71473	6776.825
568.7464	6798.125
572.7752	6867.125
576.80114	6912.325
580.82422	6995.225
584.84444	7096.925
588.86181	7240.425
592.87633	7318.825
596.888	7277.825
600.89682	7220.225
604.9028	7220.725
608.90594	7487.825
612.90624	7859.325
616.90371	7869.425
620.89834	7511.625
624.89015	7550.525
628.87913	7930.725
632.86528	8440.325
636.84862	8834.325
640.82913	8882.325
644.80683	8630.825
648.78172	8190.925
652.75379	7793.625
656.72306	7509.725
660.68952	7324.125
664.65319	7169.225
668.61405	7050.125
672.57211	7004.125
676.52738	7013.425
680.47986	7029.925
684.42955	7007.725
688.37646	6991.525
692.32058	6922.825
696.26192	6847.125
700.20048	6846.425
704.13626	6789.225
708.06928	6781.525
711.99952	6747.225
715.927	6757.925
719.85171	6800.225
723.77365	6884.625
727.69284	6919.225
731.60928	6873.925
735.52295	6787.125
739.43388	6739.625
743.34206	6716.325
747.24749	6729.025
751.15017	6706.825
755.05012	6734.825
758.94733	6799.925
762.8418	6917.325
766.73354	7107.725
770.62254	7299.925
774.50882	7371.425
778.39237	7214.425
782.27321	6965.325
786.15132	6764.925
790.02671	6639.925
793.89938	6598.225
797.76935	6597.125
801.6366	6681.125
805.50115	6817.725
809.36299	7027.825
813.22213	7161.825
817.07857	7149.625
820.93231	6999.425
824.78336	6796.725
828.63172	6597.125
832.47738	6494.125
836.32036	6427.425
840.16066	6395.425
843.99827	6374.025
847.8332	6366.025
851.66546	6364.525
855.49504	6365.125
859.32195	6382.625
863.1462	6407.525
866.96777	6437.825
870.78668	6512.425
874.60293	6614.925
878.41652	6760.125
882.22745	6878.825
886.03573	6986.625
889.84136	7037.725
893.64433	6975.125
897.44466	6838.425
901.24235	6627.525
905.0374	6466.725
908.8298	6360.325
912.61957	6284.425
916.40671	6237.525
920.19121	6242.025
923.97308	6212.125
927.75233	6195.925
931.52895	6178.225
935.30295	6141.225
939.07433	6095.025
942.84309	6053.725
946.60924	6039.925
950.37278	6004.025
954.13371	6008.825
957.89203	5989.325
961.64774	5958.425
965.40086	5961.425
969.15137	5939.425
972.89929	5900.825
976.64461	5899.925
980.38733	5888.425
984.12747	5892.625
987.86502	5906.025
991.59999	5935.925
995.33237	5969.225
999.06217	6042.925
1002.78939	6103.325
1006.51404	6161.025
1010.23611	6251.725
1013.95561	6295.325
1017.67255	6336.625
1021.38692	6326.625
1025.09872	6296.925
1028.80796	6227.325
1032.51465	6160.325
1036.21877	6107.925
1039.92035	6066.025
1043.61937	6031.025
1047.31584	6004.625
1051.00976	6005.025
1054.70114	6033.925
1058.38998	6053.025
1062.07627	6124.825
1065.76003	6175.025
1069.44126	6236.225
1073.11995	6278.325
1076.79611	6348.225
1080.46974	6341.825
1084.14085	6316.425
1087.80943	6261.925
1091.47549	6226.625
1095.13903	6209.725
1098.80005	6152.725
1102.45857	6100.925
1106.11456	6076.125
1109.76805	6113.425
1113.41903	6222.025
1117.06751	6441.725
1120.71348	6774.225
1124.35696	7255.725
1127.99793	7748.725
1131.63641	8146.725
1135.2724	8325.625
1138.90589	8255.925
1142.5369	7984.125
1146.16542	7630.725
1149.79145	7247.725
1153.415	6848.625
1157.03607	6554.725
1160.65467	6397.325
1164.27079	6308.225
1167.88443	6322.225
1171.49561	6402.825
1175.10432	6576.325
1178.71056	6797.825
1182.31434	7005.725
1185.91565	7161.025
1189.51451	7206.525
1193.11091	7227.025
1196.70485	7266.725
1200.29634	7286.225
1203.88538	7339.325
1207.47197	7294.025
1211.05612	7196.825
1214.63782	7056.925
1218.21708	6892.625
1221.79391	6710.425
1225.36829	6550.825
1228.94024	6447.725
1232.50976	6366.825
1236.07685	6325.625
1239.6415	6297.225
1243.20374	6306.925
1246.76355	6358.425
1250.32093	6416.625
1253.8759	6469.525
1257.42845	6533.225
1260.97859	6628.025
1264.52631	6708.725
1268.07163	6742.625
1271.61453	6783.425
1275.15503	6816.025
1278.69312	6838.725
1282.22882	6824.625
1285.76211	6855.225
1289.29301	6921.125
1292.82151	6996.025
1296.34761	7117.925
1299.87133	7275.325
1303.39266	7437.225
1306.9116	7648.625
1310.42815	7867.525
1313.94233	8001.725
1317.45412	8029.425
1320.96354	8001.725
1324.47058	7928.125
1327.97525	7871.025
1331.47754	7808.925
1334.97747	7794.225
1338.47502	7825.425
1341.97022	7888.925
1345.46305	8003.025
1348.95352	8115.625
1352.44163	8252.025
1355.92738	8449.825
1359.41078	8724.325
1362.89183	8996.525
1366.37053	8994.725
1369.84688	8624.925
1373.32088	8153.525
1376.79254	7786.525
1380.26186	7583.725
1383.72883	7457.325
1387.19347	7336.525
1390.65578	7216.425
1394.11575	7081.725
1397.57339	6988.325
1401.0287	6884.025
1404.48168	6796.625
1407.93234	6695.125
1411.38068	6568.725
1414.82669	6401.025
1418.27039	6243.325
1421.71177	6109.825
1425.15083	6000.025
1428.58758	5891.325
1432.02203	5874.025
1435.45416	5885.725
1438.88399	5920.825
1442.31151	5917.025
1445.73673	5948.025
1449.15965	5971.225
1452.58027	5993.525
1455.9986	6014.725
1459.41463	6057.625
1462.82837	6076.625
1466.23982	6119.025
1469.64898	6181.325
1473.05586	6193.925
1476.46045	6229.425
1479.86276	6226.325
1483.26279	6227.725
1486.66054	6286.425
1490.05602	6342.425
1493.44922	6430.725
1496.84016	6584.725
1500.22882	6780.225
1503.61521	7028.825
1506.99934	7312.225
1510.38121	7521.225
1513.76081	7549.725
1517.13816	7437.325
1520.51324	7170.325
1523.88607	6948.125
1527.25665	6838.725
1530.62498	6777.625
1533.99105	6787.525
1537.35488	6797.425
1540.71647	6776.525
1544.07581	6791.925
1547.4329	6785.925
1550.78776	6754.625
1554.14038	6736.825
1557.49077	6754.925
1560.83892	6749.725
1564.18484	6794.825
1567.52853	6799.525
1570.86999	6841.725
1574.20922	6880.625
1577.54624	6894.125
1580.88103	6835.525
1584.2136	6756.725
1587.54395	6694.025
1590.87208	6690.325
1594.19801	6741.725
1597.52172	6839.325
1600.84321	6886.925
1604.16251	6802.325
1607.47959	6691.925
1610.79447	6539.125
1614.10715	6399.525
1617.41763	6280.425
1620.7259	6181.025
1624.03199	6182.125
1627.33587	6206.225
1630.63757	6298.525
1633.93707	6436.925
1637.23439	6677.125
1640.52951	7001.025
1643.82246	7342.825
1647.11321	7709.125
1650.40179	7875.725
1653.68819	7783.125
1656.97241	7448.725
1660.25446	7069.925
1663.53433	6749.125
1666.81203	6567.625
1670.08756	6447.225
1673.36092	6384.425
1676.63211	6327.125
1679.90115	6291.425
1683.16801	6235.225
1686.43272	6178.025
1689.69527	6097.525
1692.95567	5968.125
1696.2139	5882.825
1699.46999	5802.125
1702.72392	5699.225
1705.97571	5583.125
1709.22535	5467.825
1712.47284	5322.025
1715.71819	5185.125
1718.96139	5045.825
1722.20246	4943.525
1725.44139	4861.425
1728.67818	4781.025
1731.91284	4707.625
1735.14537	4637.625
1738.37576	4623.625
1741.60403	4585.125
1744.83017	4524.025
1748.05418	4513.725
1751.27607	4503.325
1754.49584	4482.925
1757.71349	4481.225
1760.92903	4453.425
1764.14244	4451.125
1767.35375	4446.425
1770.56294	4438.725
1773.77002	4421.625
1776.97499	4403.725
1780.17785	4392.525
1783.37861	4377.525
1786.57727	4355.925
1789.77382	4343.825
1792.96828	4337.425
1796.16064	4318.925
1799.3509	4296.925
1802.53907	4277.925
1805.72514	4261.625
1808.90913	4254.325
1812.09102	4259.225
1815.27083	4220.625
1818.44856	4215.225
1821.6242	4211.325
1824.79776	4202.725
1827.96924	4185.725
1831.13864	4180.725
1834.30597	4161.325
1837.47122	4172.825
1840.6344	4177.925
1843.7955	4151.425
1846.95454	4145.125
1850.11151	4156.925
1853.26642	4127.725
1856.41926	4132.125
1859.57004	4121.425
1862.71876	4113.125
1865.86542	4111.225
1869.01003	4113.725
1872.15258	4093.825
1875.29308	4091.825
1878.43152	4079.025
1881.56792	4065.625
1884.70227	4073.625
1887.83457	4052.425
1890.96482	4039.125
1894.09304	4030.825
1897.21921	4038.525
1900.34335	4021.125
1903.46544	4026.625
1906.58551	4019.325
1909.70353	3991.925
1912.81953	3988.425
1915.93349	3994.425
1919.04543	3973.825
1922.15534	3987.525
1925.26322	3957.225
1928.36908	3953.925
1931.47292	3947.925
1934.57473	3929.125
1937.67453	3926.625
1940.77232	3899.125
1943.86808	3887.725
1946.96184	3893.225
1950.05358	3883.325
1953.14331	3857.325
1956.23103	3853.325
1959.31675	3829.825
1962.40046	3815.725
1965.48217	3823.225
1968.56188	3803.425
1971.63959	3773.025
1974.7153	3779.525
1977.78901	3761.725
1980.86073	3738.025
1983.93046	3732.325
1986.99819	3707.425
1990.06394	3704.725
1993.1277	3697.125
1996.18947	3693.225
1999.24925	3681.925
2002.30706	3646.125
2005.36288	3647.625
2008.41672	3637.025
2011.46859	3613.225
2014.51848	3600.025
2017.56639	3599.325
2020.61233	3594.825
2023.6563	3574.425
2026.6983	3554.425
2029.73833	3553.525
2032.7764	3538.625
2035.8125	3537.525
2038.84664	3522.225
2041.87881	3519.625
2044.90903	3503.925
2047.93729	3508.425
2050.96359	3496.225
2053.98794	3485.325
2057.01034	3479.525
2060.03078	3485.125
2063.04927	3468.125
2066.06582	3457.025
2069.08042	3466.325
2072.09307	3449.525
2075.10378	3449.425
2078.11255	3440.925
2081.11938	3461.525
2084.12426	3442.225
2087.12722	3459.925
2090.12824	3449.325
2093.12732	3446.925
2096.12447	3440.925
2099.11969	3438.925
2102.11299	3438.325
2105.10435	3435.225
2108.09379	3430.125
2111.08131	3445.425
2114.0669	3438.125
2117.05057	3444.525
2120.03233	3442.725
2123.01216	3429.025
2125.99008	3437.125
2128.96609	3439.325
2131.94018	3438.225
2134.91236	3441.325
2137.88263	3438.325
2140.851	3427.625
2143.81746	3439.825
2146.78201	3436.125
2149.74466	3447.025
2152.7054	3448.425
2155.66425	3430.125
2158.6212	3439.825
2161.57625	3421.125
2164.52941	3427.925
2167.48067	3405.925
2170.43004	3417.225
2173.37752	3409.125
2176.32311	3423.225
2179.26681	3417.125
2182.20863	3405.925
2185.14856	3411.825
2188.08661	3397.525
2191.02278	3393.325
2193.95707	3389.725
2196.88948	3383.225
2199.82001	3368.725
2202.74867	3352.825
2205.67545	3368.625
2208.60037	3363.125
2211.52341	3344.225
2214.44458	3357.025
2217.36388	3342.125
2220.28132	3335.625
2223.1969	3322.925
2226.11061	3306.625
2229.02246	3286.025
2231.93245	3299.725
2234.84058	3289.725
2237.74686	3284.925
2240.65128	3264.325
2243.55385	3280.125
2246.45456	3262.425
2249.35343	3256.025
2252.25044	3247.125
2255.14561	3234.825
2258.03893	3248.425
2260.93041	3246.225
2263.82004	3219.925
2266.70783	3215.425
2269.59378	3208.725
2272.4779	3195.025
2275.36017	3180.725
2278.24061	3179.025
2281.11922	3171.225
2283.996	3166.725
2286.87094	3155.225
2289.74405	3164.225
2292.61534	3142.525
2295.4848	3141.725
2298.35243	3142.225
2301.21824	3117.225
2304.08223	3125.825
2306.94439	3106.625
2309.80474	3108.125
2312.66327	3109.125
2315.51999	3096.825
2318.37489	3088.625
2321.22797	3103.325
2324.07925	3097.025
2326.92871	3082.425
2329.77637	3071.825
2332.62222	3074.725
2335.46626	3068.425
2338.3085	3062.125
2341.14893	3046.025
2343.98756	3046.025
2346.8244	3040.225
2349.65943	3032.325
2352.49267	3038.525
2355.32411	3040.425
2358.15376	3030.625
2360.98161	3026.825
2363.80768	3020.425
2366.63195	3009.825
2369.45444	3010.325
2372.27514	2993.625
2375.09405	3012.225
2377.91118	3003.925
2380.72652	2984.225
2383.54009	2979.725
2386.35187	2989.025
2389.16188	2959.525
2391.97011	2959.425
2394.77657	2946.925
2397.58125	2942.725
2400.38416	2942.725
2403.18529	2934.125
2405.98466	2926.925
2408.78226	2928.525
2411.57809	2921.425
2414.37216	2899.825
2417.16446	2911.125
2419.955	2899.025
2422.74378	2891.625
2425.5308	2890.325
2428.31606	2876.525
2431.09956	2869.125
2433.88131	2868.425
2436.6613	2876.225
2439.43954	2870.025
2442.21603	2858.525
2444.99077	2862.225
2447.76377	2850.525
2450.53501	2852.625
2453.30451	2860.025
2456.07226	2854.225
2458.83827	2830.925
2461.60254	2838.425
2464.36507	2825.425
2467.12586	2820.725
2469.88492	2815.525
2472.64224	2820.125
2475.39782	2821.525
2478.15167	2808.625
2480.90379	2812.425
2483.65417	2808.525
2486.40283	2804.525
2489.14976	2805.325
2491.89497	2786.225
2494.63845	2804.525
2497.3802	2790.025
2500.12024	2795.825
2502.85855	2786.925
2505.59514	2776.025
2508.33002	2769.125
2511.06318	2770.625
2513.79462	2766.125
2516.52435	2746.125
2519.25237	2749.625
2521.97867	2752.125
2524.70327	2746.725
2527.42616	2730.525
2530.14734	2741.825
2532.86681	2718.325
2535.58458	2726.525
2538.30065	2709.325
2541.01501	2724.525
2543.72768	2707.525
2546.43864	2703.725
2549.14791	2696.625
2551.85548	2684.725
2554.56136	2680.725
2557.26554	2682.825
2559.96803	2671.725
2562.66883	2663.925
2565.36794	2653.825
2568.06536	2664.125
2570.7611	2652.125
2573.45514	2641.825
2576.14751	2650.925
2578.83819	2647.125
2581.52719	2624.025
2584.21451	2624.725
2586.90015	2623.225
2589.58411	2618.725
2592.2664	2611.725
2594.94701	2607.625
2597.62594	2589.425
2600.30321	2588.925
2602.9788	2585.725
2605.65273	2585.625
2608.32498	2570.925
2610.99557	2572.225
2613.66449	2574.425
2616.33175	2561.625
2618.99734	2555.825
2621.66128	2550.925
2624.32355	2539.725
2626.98416	2549.325
2629.64311	2541.625
2632.30041	2537.925
2634.95605	2533.225
2637.61004	2532.725
2640.26238	2517.525
2642.91306	2517.825
2645.56209	2525.525
2648.20948	2510.825
2650.85521	2509.025
2653.4993	2510.125
2656.14175	2504.725
2658.78255	2510.125
2661.42171	2507.725
2664.05923	2496.325
2666.6951	2498.525
2669.32934	2495.325
2671.96194	2500.325
2674.59291	2517.425
2677.22224	2497.225
2679.84993	2494.825
2682.476	2494.225
2685.10043	2487.125
2687.72324	2491.025
2690.34441	2498.825
2692.96396	2495.425
2695.58188	2488.125
2698.19818	2488.425
2700.81285	2492.525
2703.4259	2494.425
2706.03733	2526.425
2708.64714	2506.225
2711.25533	2494.725
2713.86191	2497.225
2716.46687	2499.325
2719.07021	2490.525
2721.67194	2494.825
2724.27206	2479.125
2726.87057	2480.825
2729.46747	2485.725
2732.06276	2476.425
2734.65644	2497.825
2737.24852	2459.525
2739.83899	2483.425
2742.42786	2476.625
2745.01513	2464.025
2747.60079	2471.625
2750.18486	2477.225
2752.76733	2455.025
2755.3482	2448.325
2757.92747	2446.225
2760.50515	2445.525
2763.08123	2441.825
2765.65573	2432.925
2768.22863	2438.325
2770.79994	2434.625
2773.36967	2432.725
2775.9378	2415.925
2778.50435	2424.425
2781.06932	2416.725
2783.6327	2400.525
2786.1945	2403.125
2788.75471	2395.025
2791.31335	2397.625
2793.87041	2383.325
2796.42589	2375.925
2798.97979	2374.425
2801.53212	2368.025
2804.08288	2364.825
2806.63206	2361.725
2809.17967	2355.625
2811.72571	2353.125
2814.27018	2338.825
2816.81308	2348.025
2819.35442	2344.225
2821.89419	2332.125
2824.43239	2333.025
2826.96904	2319.625
2829.50412	2330.825
2832.03763	2313.525
2834.56959	2327.925
2837.1	2322.225
2839.62884	2319.725
2842.15613	2319.425
2844.68186	2336.225
2847.20604	2309.225
2849.72867	2326.825
2852.24974	2317.725
2854.76927	2310.025
2857.28724	2313.525
2859.80367	2316.325
2862.31855	2304.425
2864.83189	2311.525
2867.34368	2309.125
2869.85393	2315.725
2872.36264	2308.825
2874.8698	2319.125
2877.37543	2301.425
2879.87952	2296.725
2882.38207	2302.425
2884.88308	2301.825
2887.38256	2303.525
2889.88051	2302.525
2892.37692	2304.125
2894.8718	2303.525
2897.36515	2304.725
2899.85698	2303.625
2902.34727	2308.725
2904.83604	2301.925
2907.32328	2313.925
2909.809	2305.825
2912.29319	2299.025
2914.77587	2302.725
2917.25702	2298.025
2919.73665	2299.725
2922.21476	2308.425
2924.69136	2297.125
2927.16644	2313.725
2929.64	2297.325
2932.11205	2301.025
2934.58258	2295.825
2937.05161	2296.725
2939.51912	2293.925
2941.98513	2289.325
2944.44962	2291.525
2946.91261	2283.125
2949.37409	2299.725
2951.83407	2281.525
2954.29254	2295.625
2956.74951	2281.825
2959.20498	2285.025
2961.65895	2279.725
2964.11142	2273.325
2966.56239	2265.625
2969.01186	2273.625
2971.45984	2275.725
2973.90632	2264.725
2976.35131	2248.625
2978.7948	2255.425
2981.23681	2246.425
2983.67732	2233.025
2986.11635	2244.825
2988.55388	2226.725
2990.98993	2237.225
2993.4245	2216.325
2995.85758	2224.525
2998.28917	2226.225
3000.71928	2221.725
3003.14791	2224.125
3005.57506	2220.525
3008.00073	2214.425
3010.42493	2228.625
3012.84764	2212.625
3015.26888	2210.025
3017.68865	2219.625
3020.10694	2209.225
3022.52376	2206.225
3024.9391	2209.025
3027.35298	2218.025
3029.76539	2211.525
3032.17632	2216.925
3034.5858	2212.125
3036.9938	2208.125
3039.40034	2216.625
3041.80542	2212.825
3044.20903	2209.725
3046.61118	2205.225
3049.01187	2203.725
3051.4111	2202.625
3053.80888	2199.125
3056.20519	2207.925
3058.60005	2195.325
3060.99345	2211.925
3063.3854	2192.925
3065.7759	2201.325
3068.16494	2203.125
3070.55254	2215.925
3072.93868	2207.925
3075.32338	2201.225
3077.70662	2197.525
3080.08842	2203.925
3082.46878	2211.525
3084.84769	2207.425
3087.22515	2205.625
3089.60118	2217.325
3091.97576	2215.625
3094.3489	2210.725
3096.72061	2229.725
3099.09087	2234.125
3101.4597	2231.725
3103.82709	2227.325
3106.19305	2229.625
3108.55757	2244.325
3110.92066	2221.225
3113.28232	2232.425
3115.64255	2236.625
3118.00134	2234.625
3120.35871	2240.125
3122.71466	2246.125
3125.06917	2236.325
3127.42226	2233.725
3129.77393	2253.225
3132.12417	2254.825
3134.47299	2267.525
3136.82039	2256.625
3139.16636	2267.425
3141.51092	2273.625
3143.85406	2285.325
3146.19579	2283.625
3148.53609	2283.925
3150.87499	2302.525
3153.21246	2317.725
3155.54853	2326.425
3157.88318	2335.425
3160.21642	2328.125
3162.54826	2341.925
3164.87868	2334.025
3167.2077	2340.525
3169.5353	2343.325
3171.86151	2344.025
3174.18631	2358.725
3176.5097	2356.325
3178.83169	2358.525
3181.15228	2370.325
3183.47147	2373.225
3185.78926	2364.725
3188.10565	2374.325
3190.42065	2365.425
3192.73424	2366.425
3195.04645	2381.725
3197.35725	2386.025
3199.66667	2393.925
3201.97469	2397.525
3204.28132	2396.525
3206.58656	2398.825
3208.8904	2400.725
3211.19287	2410.625
3213.49394	2405.025
3215.79363	2409.625
3218.09193	2431.025
3220.38884	2428.825
3222.68438	2435.125
3224.97853	2421.625
3227.2713	2420.325
3229.56269	2410.625
3231.8527	2423.025
3234.14133	2404.125
3236.42858	2412.325
3238.71446	2416.525
3240.99896	2400.325
3243.28209	2414.825
3245.56384	2418.525
3247.84423	2405.325
3250.12324	2400.025
3252.40088	2404.225
3254.67715	2409.525
3256.95205	2401.925
3259.22558	2402.825
3261.49775	2411.025
3263.76855	2382.225
3266.03799	2386.325
3268.30606	2387.325
3270.57277	2380.625
3272.83812	2378.925
3275.10211	2370.125
3277.36474	2377.125
3279.62601	2363.825
3281.88593	2371.425
3284.14448	2376.825
3286.40168	2365.625
3288.65753	2360.925
3290.91202	2369.925
3293.16516	2339.325
3295.41695	2336.725
3297.66738	2329.925
3299.91647	2320.525
3302.16421	2313.225
3304.4106	2301.825
3306.65564	2295.125
3308.89933	2276.425
3311.14169	2266.225
3313.38269	2252.525
3315.62236	2245.525
3317.86068	2239.425
3320.09766	2205.225
3322.3333	2193.125
3324.5676	2192.925
3326.80056	2161.325
3329.03219	2135.125
3331.26248	0.725
3333.49143	1.025
3335.71905	-1.175
