Data from AgNPs_FTO_APTES_UA_0.1mM_CRN_0uM_NaF_0.1M_Addition_RamanShift__53__11-04-27-516.txt Node

Date: Mon Dec 20 11:04:27 GMT 2021
User: TCL
Spectrometer: QEP01345
Trigger mode: 4
Integration Time (sec): 7.000000E0
Scans to average: 10
Electric dark correction enabled: true
Nonlinearity correction enabled: false
Boxcar width: 0
XAxis mode: Raman Shifts
Number of Pixels in Spectrum: 1044
>>>>>Begin Spectral Data<<<<<
46.04893	0.2875
50.45542	-0.1125
54.85868	-1.1125
59.25871	1.4875
63.6555	29.0875
68.04907	32.5875
72.43941	33.1875
76.82654	36.8875
81.21044	37.6875
85.59113	42.6875
89.96862	36.8875
94.34289	42.5875
98.71396	43.5875
103.08183	43.9875
107.4465	45.6875
111.80798	46.3875
116.16626	46.9875
120.52136	51.5875
124.87327	47.6875
129.222	48.6875
133.56755	52.5875
137.90993	61.9875
142.24913	61.3875
146.58517	63.4875
150.91804	77.4875
155.24774	88.8875
159.57429	103.2875
163.89768	133.7875
168.21792	172.3875
172.53501	225.2875
176.84895	309.0875
181.15975	421.7875
185.46741	588.4875
189.77193	809.0875
194.07331	1069.9875
198.37157	1380.0875
202.6667	1710.0875
206.9587	2046.8875
211.24758	2366.3875
215.53334	2691.4875
219.81599	3031.6875
224.09553	3368.0875
228.37195	3758.2875
232.64527	4188.4875
236.91549	4627.2875
241.18261	5065.9875
245.44663	5468.1875
249.70755	5844.1875
253.96539	6131.4875
258.22014	6387.2875
262.4718	6563.4875
266.72039	6681.7875
270.96589	6721.3875
275.20832	6678.5875
279.44768	6617.7875
283.68397	6525.2875
287.91719	6437.7875
292.14735	6402.9875
296.37445	6364.3875
300.59849	6356.2875
304.81948	6360.5875
309.03742	6332.5875
313.25231	6285.7875
317.46415	6178.8875
321.67296	6041.5875
325.87872	5911.5875
330.08145	5845.9875
334.28114	5847.4875
338.47781	5872.5875
342.67145	5933.7875
346.86207	6000.1875
351.04966	6106.9875
355.23424	6178.9875
359.4158	6316.4875
363.59435	6391.6875
367.76989	6474.4875
371.94243	6521.4875
376.11196	6597.2875
380.27849	6655.2875
384.44203	6732.5875
388.60257	6788.1875
392.76012	6841.7875
396.91468	6914.1875
401.06626	7001.1875
405.21485	7051.7875
409.36047	7058.6875
413.50311	6986.5875
417.64277	6935.3875
421.77947	6886.8875
425.9132	6891.4875
430.04396	6894.0875
434.17176	6936.3875
438.2966	6977.4875
442.41849	7068.3875
446.53742	7170.4875
450.6534	7298.8875
454.76644	7392.4875
458.87653	7446.7875
462.98368	7402.7875
467.08789	7403.7875
471.18916	7360.9875
475.2875	7363.5875
479.38291	7416.5875
483.4754	7502.9875
487.56496	7595.0875
491.6516	7726.5875
495.73531	7783.2875
499.81612	7767.2875
503.89401	7729.3875
507.96899	7620.0875
512.04106	7545.6875
516.11023	7495.3875
520.1765	7467.2875
524.23987	7510.6875
528.30034	7532.3875
532.35792	7561.0875
536.41261	7493.0875
540.46441	7419.9875
544.51333	7293.0875
548.55936	7249.6875
552.60252	7268.6875
556.64279	7271.2875
560.6802	7284.2875
564.71473	7318.5875
568.7464	7367.1875
572.7752	7490.3875
576.80114	7529.1875
580.82422	7600.3875
584.84444	7749.5875
588.86181	7919.5875
592.87633	8038.7875
596.888	8085.5875
600.89682	7999.4875
604.9028	8070.1875
608.90594	8530.7875
612.90624	9192.0875
616.90371	9128.6875
620.89834	8392.4875
624.89015	8292.4875
628.87913	8684.0875
632.86528	9201.1875
636.84862	9504.4875
640.82913	9441.1875
644.80683	9045.5875
648.78172	8576.2875
652.75379	8180.9875
656.72306	7968.5875
660.68952	7853.8875
664.65319	7780.9875
668.61405	7712.6875
672.57211	7732.3875
676.52738	7765.8875
680.47986	7768.4875
684.42955	7748.5875
688.37646	7709.4875
692.32058	7654.5875
696.26192	7569.7875
700.20048	7530.4875
704.13626	7470.7875
708.06928	7390.3875
711.99952	7311.0875
715.927	7287.4875
719.85171	7307.8875
723.77365	7312.2875
727.69284	7308.2875
731.60928	7269.0875
735.52295	7187.3875
739.43388	7174.7875
743.34206	7191.4875
747.24749	7202.4875
751.15017	7192.9875
755.05012	7235.6875
758.94733	7297.9875
762.8418	7507.0875
766.73354	7877.2875
770.62254	8244.5875
774.50882	8449.9875
778.39237	8273.2875
782.27321	7846.5875
786.15132	7467.7875
790.02671	7239.0875
793.89938	7159.7875
797.76935	7163.8875
801.6366	7254.0875
805.50115	7428.9875
809.36299	7630.9875
813.22213	7702.7875
817.07857	7571.4875
820.93231	7374.0875
824.78336	7129.4875
828.63172	6954.2875
832.47738	6870.6875
836.32036	6833.6875
840.16066	6788.6875
843.99827	6784.9875
847.8332	6772.5875
851.66546	6733.7875
855.49504	6755.5875
859.32195	6757.1875
863.1462	6776.3875
866.96777	6841.0875
870.78668	6929.0875
874.60293	7049.6875
878.41652	7187.4875
882.22745	7321.7875
886.03573	7407.4875
889.84136	7424.6875
893.64433	7301.6875
897.44466	7094.6875
901.24235	6891.0875
905.0374	6707.0875
908.8298	6625.3875
912.61957	6556.1875
916.40671	6518.6875
920.19121	6541.7875
923.97308	6562.2875
927.75233	6552.4875
931.52895	6543.7875
935.30295	6466.2875
939.07433	6424.3875
942.84309	6384.8875
946.60924	6377.6875
950.37278	6359.1875
954.13371	6364.3875
957.89203	6349.0875
961.64774	6322.0875
965.40086	6298.6875
969.15137	6251.6875
972.89929	6207.1875
976.64461	6184.9875
980.38733	6159.6875
984.12747	6151.9875
987.86502	6187.7875
991.59999	6226.7875
995.33237	6290.1875
999.06217	6383.3875
1002.78939	6522.1875
1006.51404	6643.7875
1010.23611	6759.0875
1013.95561	6840.2875
1017.67255	6875.1875
1021.38692	6829.6875
1025.09872	6707.1875
1028.80796	6627.7875
1032.51465	6559.9875
1036.21877	6561.9875
1039.92035	6531.5875
1043.61937	6481.8875
1047.31584	6464.4875
1051.00976	6398.5875
1054.70114	6420.3875
1058.38998	6429.9875
1062.07627	6485.0875
1065.76003	6555.5875
1069.44126	6601.1875
1073.11995	6665.3875
1076.79611	6679.4875
1080.46974	6672.0875
1084.14085	6647.9875
1087.80943	6615.8875
1091.47549	6611.1875
1095.13903	6558.6875
1098.80005	6488.2875
1102.45857	6423.8875
1106.11456	6391.8875
1109.76805	6441.6875
1113.41903	6538.3875
1117.06751	6710.7875
1120.71348	6948.8875
1124.35696	7340.6875
1127.99793	7804.1875
1131.63641	8258.2875
1135.2724	8506.4875
1138.90589	8534.9875
1142.5369	8331.1875
1146.16542	7981.4875
1149.79145	7567.1875
1153.415	7187.9875
1157.03607	6941.4875
1160.65467	6811.4875
1164.27079	6814.9875
1167.88443	6923.8875
1171.49561	7137.2875
1175.10432	7441.3875
1178.71056	7836.9875
1182.31434	8236.0875
1185.91565	8485.4875
1189.51451	8538.8875
1193.11091	8524.9875
1196.70485	8504.9875
1200.29634	8484.7875
1203.88538	8430.7875
1207.47197	8316.9875
1211.05612	8090.0875
1214.63782	7856.1875
1218.21708	7598.3875
1221.79391	7384.0875
1225.36829	7236.7875
1228.94024	7104.7875
1232.50976	6985.0875
1236.07685	6875.7875
1239.6415	6849.5875
1243.20374	6849.0875
1246.76355	6884.8875
1250.32093	6948.5875
1253.8759	7020.7875
1257.42845	7129.9875
1260.97859	7253.8875
1264.52631	7341.0875
1268.07163	7442.8875
1271.61453	7543.0875
1275.15503	7649.2875
1278.69312	7736.9875
1282.22882	7812.0875
1285.76211	7965.6875
1289.29301	8079.4875
1292.82151	8311.5875
1296.34761	8591.7875
1299.87133	8965.6875
1303.39266	9366.9875
1306.9116	9816.0875
1310.42815	10246.3875
1313.94233	10509.8875
1317.45412	10548.3875
1320.96354	10399.9875
1324.47058	10188.8875
1327.97525	10002.4875
1331.47754	9858.5875
1334.97747	9830.2875
1338.47502	9842.9875
1341.97022	9891.2875
1345.46305	9921.5875
1348.95352	10028.5875
1352.44163	10266.9875
1355.92738	10628.0875
1359.41078	11148.9875
1362.89183	11574.4875
1366.37053	11462.4875
1369.84688	10723.2875
1373.32088	9791.7875
1376.79254	9124.8875
1380.26186	8780.6875
1383.72883	8648.8875
1387.19347	8538.5875
1390.65578	8406.5875
1394.11575	8322.2875
1397.57339	8307.1875
1401.0287	8348.8875
1404.48168	8361.0875
1407.93234	8295.1875
1411.38068	8143.7875
1414.82669	7931.1875
1418.27039	7661.8875
1421.71177	7352.0875
1425.15083	7102.8875
1428.58758	6967.5875
1432.02203	6918.1875
1435.45416	6952.8875
1438.88399	7036.9875
1442.31151	7131.0875
1445.73673	7215.9875
1449.15965	7283.5875
1452.58027	7333.7875
1455.9986	7372.9875
1459.41463	7383.4875
1462.82837	7466.4875
1466.23982	7575.4875
1469.64898	7663.1875
1473.05586	7742.7875
1476.46045	7783.1875
1479.86276	7780.1875
1483.26279	7781.7875
1486.66054	7779.3875
1490.05602	7829.8875
1493.44922	7904.9875
1496.84016	8010.0875
1500.22882	8162.0875
1503.61521	8419.9875
1506.99934	8744.6875
1510.38121	9030.2875
1513.76081	9154.8875
1517.13816	8923.1875
1520.51324	8551.9875
1523.88607	8179.8875
1527.25665	7963.2875
1530.62498	7895.4875
1533.99105	7863.2875
1537.35488	7860.0875
1540.71647	7876.0875
1544.07581	7846.5875
1547.4329	7856.2875
1550.78776	7837.6875
1554.14038	7834.3875
1557.49077	7847.6875
1560.83892	7890.8875
1564.18484	7942.5875
1567.52853	7967.6875
1570.86999	7987.5875
1574.20922	8029.8875
1577.54624	8041.7875
1580.88103	7998.4875
1584.2136	7935.6875
1587.54395	7982.4875
1590.87208	8144.1875
1594.19801	8432.3875
1597.52172	8760.6875
1600.84321	8944.3875
1604.16251	8813.3875
1607.47959	8472.6875
1610.79447	8093.3875
1614.10715	7741.3875
1617.41763	7475.5875
1620.7259	7303.9875
1624.03199	7212.7875
1627.33587	7255.9875
1630.63757	7367.2875
1633.93707	7594.1875
1637.23439	7955.6875
1640.52951	8511.7875
1643.82246	9176.7875
1647.11321	9812.9875
1650.40179	10108.0875
1653.68819	9810.2875
1656.97241	9121.9875
1660.25446	8263.8875
1663.53433	7631.0875
1666.81203	7200.9875
1670.08756	6871.4875
1673.36092	6690.6875
1676.63211	6526.0875
1679.90115	6393.9875
1683.16801	6275.3875
1686.43272	6138.5875
1689.69527	6025.4875
1692.95567	5915.5875
1696.2139	5795.5875
1699.46999	5674.9875
1702.72392	5548.1875
1705.97571	5476.5875
1709.22535	5361.6875
1712.47284	5280.2875
1715.71819	5210.2875
1718.96139	5160.0875
1722.20246	5092.7875
1725.44139	5040.9875
1728.67818	4961.2875
1731.91284	4899.6875
1735.14537	4847.0875
1738.37576	4811.3875
1741.60403	4766.9875
1744.83017	4725.3875
1748.05418	4711.1875
1751.27607	4685.8875
1754.49584	4673.0875
1757.71349	4688.1875
1760.92903	4670.7875
1764.14244	4641.1875
1767.35375	4647.8875
1770.56294	4627.9875
1773.77002	4604.7875
1776.97499	4588.5875
1780.17785	4566.1875
1783.37861	4551.2875
1786.57727	4511.5875
1789.77382	4481.2875
1792.96828	4485.7875
1796.16064	4451.7875
1799.3509	4435.7875
1802.53907	4419.1875
1805.72514	4402.7875
1808.90913	4382.5875
1812.09102	4390.7875
1815.27083	4359.4875
1818.44856	4343.6875
1821.6242	4349.3875
1824.79776	4328.6875
1827.96924	4334.7875
1831.13864	4319.8875
1834.30597	4303.8875
1837.47122	4317.0875
1840.6344	4311.9875
1843.7955	4285.6875
1846.95454	4299.0875
1850.11151	4281.8875
1853.26642	4267.4875
1856.41926	4282.1875
1859.57004	4269.5875
1862.71876	4272.3875
1865.86542	4251.0875
1869.01003	4248.4875
1872.15258	4248.1875
1875.29308	4255.2875
1878.43152	4234.4875
1881.56792	4234.2875
1884.70227	4220.1875
1887.83457	4211.8875
1890.96482	4227.6875
1894.09304	4208.5875
1897.21921	4193.8875
1900.34335	4200.2875
1903.46544	4183.9875
1906.58551	4189.5875
1909.70353	4175.4875
1912.81953	4172.9875
1915.93349	4159.9875
1919.04543	4147.2875
1922.15534	4143.0875
1925.26322	4119.9875
1928.36908	4131.6875
1931.47292	4110.2875
1934.57473	4098.8875
1937.67453	4080.9875
1940.77232	4074.4875
1943.86808	4062.5875
1946.96184	4049.9875
1950.05358	4026.5875
1953.14331	4033.8875
1956.23103	4006.8875
1959.31675	4009.0875
1962.40046	3980.3875
1965.48217	3983.7875
1968.56188	3963.6875
1971.63959	3942.2875
1974.7153	3937.8875
1977.78901	3928.5875
1980.86073	3927.0875
1983.93046	3902.2875
1986.99819	3889.1875
1990.06394	3872.8875
1993.1277	3866.5875
1996.18947	3839.5875
1999.24925	3854.2875
2002.30706	3835.8875
2005.36288	3805.9875
2008.41672	3797.4875
2011.46859	3793.4875
2014.51848	3781.6875
2017.56639	3766.3875
2020.61233	3775.5875
2023.6563	3748.9875
2026.6983	3726.0875
2029.73833	3722.1875
2032.7764	3724.9875
2035.8125	3709.4875
2038.84664	3712.1875
2041.87881	3707.7875
2044.90903	3680.3875
2047.93729	3670.6875
2050.96359	3679.0875
2053.98794	3679.4875
2057.01034	3686.3875
2060.03078	3665.4875
2063.04927	3665.8875
2066.06582	3661.6875
2069.08042	3656.9875
2072.09307	3658.3875
2075.10378	3646.5875
2078.11255	3656.3875
2081.11938	3640.3875
2084.12426	3640.8875
2087.12722	3648.1875
2090.12824	3654.7875
2093.12732	3629.2875
2096.12447	3645.8875
2099.11969	3628.0875
2102.11299	3637.0875
2105.10435	3634.0875
2108.09379	3636.0875
2111.08131	3629.5875
2114.0669	3636.9875
2117.05057	3649.0875
2120.03233	3641.4875
2123.01216	3622.8875
2125.99008	3644.8875
2128.96609	3640.6875
2131.94018	3653.1875
2134.91236	3657.2875
2137.88263	3644.8875
2140.851	3648.5875
2143.81746	3661.9875
2146.78201	3647.8875
2149.74466	3635.8875
2152.7054	3641.6875
2155.66425	3638.2875
2158.6212	3632.3875
2161.57625	3630.5875
2164.52941	3626.6875
2167.48067	3629.2875
2170.43004	3630.0875
2173.37752	3623.6875
2176.32311	3624.9875
2179.26681	3616.2875
2182.20863	3610.2875
2185.14856	3630.6875
2188.08661	3611.5875
2191.02278	3596.9875
2193.95707	3610.5875
2196.88948	3604.1875
2199.82001	3594.5875
2202.74867	3586.6875
2205.67545	3598.7875
2208.60037	3580.6875
2211.52341	3590.2875
2214.44458	3573.3875
2217.36388	3573.3875
2220.28132	3560.8875
2223.1969	3550.8875
2226.11061	3536.5875
2229.02246	3541.1875
2231.93245	3524.5875
2234.84058	3535.9875
2237.74686	3524.6875
2240.65128	3511.3875
2243.55385	3511.3875
2246.45456	3501.5875
2249.35343	3478.8875
2252.25044	3488.9875
2255.14561	3476.2875
2258.03893	3485.9875
2260.93041	3476.7875
2263.82004	3456.5875
2266.70783	3459.3875
2269.59378	3435.1875
2272.4779	3434.5875
2275.36017	3426.2875
2278.24061	3426.0875
2281.11922	3418.2875
2283.996	3401.0875
2286.87094	3405.3875
2289.74405	3393.9875
2292.61534	3378.2875
2295.4848	3377.0875
2298.35243	3376.9875
2301.21824	3375.7875
2304.08223	3366.2875
2306.94439	3359.8875
2309.80474	3361.6875
2312.66327	3361.9875
2315.51999	3357.7875
2318.37489	3368.7875
2321.22797	3351.3875
2324.07925	3354.3875
2326.92871	3334.0875
2329.77637	3323.4875
2332.62222	3337.0875
2335.46626	3325.0875
2338.3085	3318.2875
2341.14893	3320.6875
2343.98756	3326.1875
2346.8244	3301.8875
2349.65943	3304.4875
2352.49267	3315.6875
2355.32411	3308.5875
2358.15376	3305.2875
2360.98161	3295.6875
2363.80768	3298.0875
2366.63195	3303.2875
2369.45444	3288.6875
2372.27514	3270.4875
2375.09405	3291.8875
2377.91118	3269.7875
2380.72652	3265.0875
2383.54009	3240.7875
2386.35187	3266.1875
2389.16188	3236.8875
2391.97011	3241.1875
2394.77657	3235.9875
2397.58125	3215.9875
2400.38416	3216.4875
2403.18529	3219.1875
2405.98466	3211.5875
2408.78226	3204.4875
2411.57809	3192.9875
2414.37216	3182.8875
2417.16446	3180.1875
2419.955	3177.4875
2422.74378	3171.2875
2425.5308	3178.7875
2428.31606	3166.5875
2431.09956	3155.9875
2433.88131	3156.9875
2436.6613	3166.7875
2439.43954	3159.0875
2442.21603	3146.8875
2444.99077	3137.4875
2447.76377	3139.0875
2450.53501	3152.4875
2453.30451	3128.5875
2456.07226	3134.6875
2458.83827	3120.4875
2461.60254	3118.1875
2464.36507	3112.8875
2467.12586	3131.6875
2469.88492	3111.3875
2472.64224	3121.5875
2475.39782	3116.0875
2478.15167	3115.8875
2480.90379	3117.4875
2483.65417	3109.3875
2486.40283	3096.1875
2489.14976	3121.3875
2491.89497	3104.4875
2494.63845	3101.5875
2497.3802	3111.9875
2500.12024	3097.6875
2502.85855	3088.8875
2505.59514	3096.7875
2508.33002	3085.9875
2511.06318	3081.6875
2513.79462	3061.8875
2516.52435	3068.2875
2519.25237	3070.3875
2521.97867	3060.8875
2524.70327	3060.8875
2527.42616	3057.5875
2530.14734	3050.8875
2532.86681	3033.7875
2535.58458	3045.3875
2538.30065	3037.3875
2541.01501	3040.2875
2543.72768	3027.0875
2546.43864	3016.3875
2549.14791	3011.6875
2551.85548	3020.4875
2554.56136	2989.8875
2557.26554	2989.5875
2559.96803	2993.3875
2562.66883	2993.0875
2565.36794	2999.4875
2568.06536	2978.6875
2570.7611	2989.7875
2573.45514	2973.3875
2576.14751	2977.0875
2578.83819	2965.7875
2581.52719	2971.6875
2584.21451	2960.3875
2586.90015	2952.6875
2589.58411	2944.4875
2592.2664	2957.6875
2594.94701	2936.9875
2597.62594	2934.2875
2600.30321	2933.1875
2602.9788	2935.9875
2605.65273	2923.7875
2608.32498	2931.0875
2610.99557	2918.4875
2613.66449	2921.1875
2616.33175	2911.9875
2618.99734	2915.1875
2621.66128	2912.0875
2624.32355	2907.0875
2626.98416	2911.4875
2629.64311	2908.0875
2632.30041	2912.1875
2634.95605	2904.7875
2637.61004	2893.5875
2640.26238	2907.4875
2642.91306	2901.7875
2645.56209	2891.5875
2648.20948	2895.8875
2650.85521	2885.7875
2653.4993	2877.0875
2656.14175	2883.0875
2658.78255	2872.6875
2661.42171	2874.9875
2664.05923	2872.7875
2666.6951	2881.7875
2669.32934	2870.7875
2671.96194	2881.8875
2674.59291	2881.7875
2677.22224	2875.5875
2679.84993	2889.3875
2682.476	2867.9875
2685.10043	2864.2875
2687.72324	2878.1875
2690.34441	2870.1875
2692.96396	2881.0875
2695.58188	2877.9875
2698.19818	2877.4875
2700.81285	2876.2875
2703.4259	2882.2875
2706.03733	2905.5875
2708.64714	2898.6875
2711.25533	2883.5875
2713.86191	2886.5875
2716.46687	2878.7875
2719.07021	2894.5875
2721.67194	2890.0875
2724.27206	2883.9875
2726.87057	2891.5875
2729.46747	2882.4875
2732.06276	2887.0875
2734.65644	2883.2875
2737.24852	2886.9875
2739.83899	2866.9875
2742.42786	2887.9875
2745.01513	2863.6875
2747.60079	2860.0875
2750.18486	2869.9875
2752.76733	2861.7875
2755.3482	2863.4875
2757.92747	2849.4875
2760.50515	2860.0875
2763.08123	2850.4875
2765.65573	2851.4875
2768.22863	2853.1875
2770.79994	2847.7875
2773.36967	2852.9875
2775.9378	2855.9875
2778.50435	2823.3875
2781.06932	2837.5875
2783.6327	2835.5875
2786.1945	2819.1875
2788.75471	2819.4875
2791.31335	2821.9875
2793.87041	2809.3875
2796.42589	2803.6875
2798.97979	2804.5875
2801.53212	2804.2875
2804.08288	2788.4875
2806.63206	2783.9875
2809.17967	2782.0875
2811.72571	2767.3875
2814.27018	2776.5875
2816.81308	2772.0875
2819.35442	2758.8875
2821.89419	2769.0875
2824.43239	2770.2875
2826.96904	2768.2875
2829.50412	2760.7875
2832.03763	2759.7875
2834.56959	2759.0875
2837.1	2746.1875
2839.62884	2754.1875
2842.15613	2763.7875
2844.68186	2757.0875
2847.20604	2756.7875
2849.72867	2756.3875
2852.24974	2750.8875
2854.76927	2761.6875
2857.28724	2768.0875
2859.80367	2762.0875
2862.31855	2754.9875
2864.83189	2763.3875
2867.34368	2747.1875
2869.85393	2750.6875
2872.36264	2748.8875
2874.8698	2767.0875
2877.37543	2756.8875
2879.87952	2755.5875
2882.38207	2757.4875
2884.88308	2759.2875
2887.38256	2760.8875
2889.88051	2758.0875
2892.37692	2759.5875
2894.8718	2761.9875
2897.36515	2771.5875
2899.85698	2772.8875
2902.34727	2780.7875
2904.83604	2772.2875
2907.32328	2780.4875
2909.809	2785.2875
2912.29319	2787.0875
2914.77587	2782.0875
2917.25702	2779.3875
2919.73665	2783.2875
2922.21476	2766.3875
2924.69136	2768.6875
2927.16644	2777.6875
2929.64	2775.8875
2932.11205	2782.1875
2934.58258	2773.1875
2937.05161	2776.6875
2939.51912	2768.8875
2941.98513	2769.2875
2944.44962	2759.0875
2946.91261	2742.9875
2949.37409	2766.5875
2951.83407	2751.4875
2954.29254	2747.6875
2956.74951	2753.0875
2959.20498	2736.7875
2961.65895	2733.5875
2964.11142	2738.6875
2966.56239	2743.7875
2969.01186	2732.1875
2971.45984	2713.8875
2973.90632	2709.8875
2976.35131	2704.9875
2978.7948	2709.9875
2981.23681	2694.2875
2983.67732	2698.4875
2986.11635	2697.2875
2988.55388	2682.8875
2990.98993	2690.8875
2993.4245	2678.6875
2995.85758	2680.8875
2998.28917	2677.4875
3000.71928	2676.7875
3003.14791	2675.8875
3005.57506	2674.2875
3008.00073	2672.9875
3010.42493	2666.0875
3012.84764	2670.1875
3015.26888	2672.4875
3017.68865	2669.3875
3020.10694	2657.9875
3022.52376	2668.7875
3024.9391	2670.4875
3027.35298	2656.7875
3029.76539	2654.8875
3032.17632	2646.5875
3034.5858	2643.6875
3036.9938	2654.0875
3039.40034	2652.8875
3041.80542	2651.9875
3044.20903	2646.0875
3046.61118	2658.9875
3049.01187	2656.4875
3051.4111	2654.5875
3053.80888	2656.5875
3056.20519	2660.4875
3058.60005	2638.2875
3060.99345	2648.1875
3063.3854	2639.8875
3065.7759	2634.8875
3068.16494	2646.8875
3070.55254	2633.8875
3072.93868	2632.8875
3075.32338	2634.8875
3077.70662	2647.0875
3080.08842	2639.8875
3082.46878	2623.7875
3084.84769	2644.3875
3087.22515	2645.2875
3089.60118	2647.1875
3091.97576	2656.8875
3094.3489	2643.0875
3096.72061	2653.7875
3099.09087	2659.3875
3101.4597	2673.5875
3103.82709	2671.4875
3106.19305	2683.7875
3108.55757	2682.4875
3110.92066	2665.5875
3113.28232	2664.8875
3115.64255	2666.8875
3118.00134	2663.0875
3120.35871	2674.2875
3122.71466	2675.4875
3125.06917	2684.0875
3127.42226	2666.4875
3129.77393	2677.9875
3132.12417	2678.3875
3134.47299	2691.6875
3136.82039	2707.8875
3139.16636	2714.2875
3141.51092	2720.1875
3143.85406	2715.3875
3146.19579	2726.8875
3148.53609	2731.0875
3150.87499	2731.6875
3153.21246	2753.9875
3155.54853	2747.3875
3157.88318	2758.0875
3160.21642	2760.8875
3162.54826	2770.4875
3164.87868	2772.8875
3167.2077	2776.4875
3169.5353	2797.4875
3171.86151	2781.0875
3174.18631	2797.1875
3176.5097	2794.2875
3178.83169	2795.4875
3181.15228	2801.5875
3183.47147	2791.0875
3185.78926	2798.8875
3188.10565	2798.1875
3190.42065	2816.7875
3192.73424	2818.1875
3195.04645	2827.0875
3197.35725	2817.5875
3199.66667	2832.6875
3201.97469	2838.2875
3204.28132	2842.0875
3206.58656	2850.1875
3208.8904	2860.0875
3211.19287	2861.3875
3213.49394	2866.1875
3215.79363	2862.4875
3218.09193	2875.1875
3220.38884	2877.8875
3222.68438	2885.7875
3224.97853	2874.3875
3227.2713	2883.1875
3229.56269	2871.4875
3231.8527	2887.4875
3234.14133	2874.4875
3236.42858	2853.0875
3238.71446	2867.6875
3240.99896	2880.5875
3243.28209	2871.5875
3245.56384	2859.9875
3247.84423	2865.2875
3250.12324	2867.3875
3252.40088	2877.4875
3254.67715	2869.0875
3256.95205	2862.7875
3259.22558	2862.3875
3261.49775	2852.7875
3263.76855	2849.2875
3266.03799	2846.3875
3268.30606	2844.9875
3270.57277	2844.3875
3272.83812	2837.3875
3275.10211	2838.2875
3277.36474	2836.2875
3279.62601	2829.2875
3281.88593	2826.2875
3284.14448	2829.8875
3286.40168	2840.6875
3288.65753	2833.3875
3290.91202	2822.9875
3293.16516	2824.7875
3295.41695	2812.9875
3297.66738	2806.3875
3299.91647	2781.4875
3302.16421	2767.2875
3304.4106	2772.5875
3306.65564	2745.4875
3308.89933	2734.7875
3311.14169	2732.1875
3313.38269	2700.5875
3315.62236	2694.6875
3317.86068	2662.5875
3320.09766	2641.2875
3322.3333	2620.8875
3324.5676	2612.1875
3326.80056	2579.6875
3329.03219	2572.5875
3331.26248	-0.2125
3333.49143	-0.4125
3335.71905	0.3875
