Data from AgNPs_FTO_APTES_UA_0.1mM_CRN_1000uM_NaF_0.1M_Addition_RamanShift__28__15-46-47-835.txt Node

Date: Mon Dec 20 15:46:47 GMT 2021
User: TCL
Spectrometer: QEP01345
Trigger mode: 4
Integration Time (sec): 7.000000E0
Scans to average: 10
Electric dark correction enabled: true
Nonlinearity correction enabled: false
Boxcar width: 0
XAxis mode: Raman Shifts
Number of Pixels in Spectrum: 1044
>>>>>Begin Spectral Data<<<<<
46.04893	0.625
50.45542	0.625
54.85868	-1.075
59.25871	0.925
63.6555	22.925
68.04907	23.525
72.43941	26.525
76.82654	26.725
81.21044	24.925
85.59113	33.425
89.96862	29.825
94.34289	30.825
98.71396	31.525
103.08183	30.925
107.4465	34.225
111.80798	34.425
116.16626	34.425
120.52136	37.625
124.87327	36.325
129.222	33.025
133.56755	35.925
137.90993	40.925
142.24913	41.625
146.58517	40.525
150.91804	49.125
155.24774	56.525
159.57429	64.525
163.89768	74.525
168.21792	99.025
172.53501	116.025
176.84895	155.925
181.15975	215.125
185.46741	293.825
189.77193	408.425
194.07331	537.725
198.37157	705.125
202.6667	869.925
206.9587	1049.025
211.24758	1221.425
215.53334	1395.925
219.81599	1559.525
224.09553	1721.125
228.37195	1902.325
232.64527	2104.025
236.91549	2292.725
241.18261	2484.425
245.44663	2652.125
249.70755	2807.125
253.96539	2940.625
258.22014	3021.825
262.4718	3083.825
266.72039	3114.125
270.96589	3108.425
275.20832	3080.825
279.44768	3024.825
283.68397	2990.625
287.91719	2930.725
292.14735	2902.725
296.37445	2875.125
300.59849	2870.325
304.81948	2874.425
309.03742	2872.925
313.25231	2837.625
317.46415	2791.725
321.67296	2716.025
325.87872	2665.325
330.08145	2612.625
334.28114	2614.825
338.47781	2627.025
342.67145	2636.925
346.86207	2676.425
351.04966	2709.925
355.23424	2786.825
359.4158	2834.525
363.59435	2869.525
367.76989	2912.425
371.94243	2946.325
376.11196	2980.625
380.27849	3015.325
384.44203	3048.825
388.60257	3087.225
392.76012	3113.925
396.91468	3146.425
401.06626	3178.125
405.21485	3193.425
409.36047	3190.625
413.50311	3158.425
417.64277	3097.425
421.77947	3079.525
425.9132	3062.125
430.04396	3060.625
434.17176	3074.825
438.2966	3081.325
442.41849	3101.925
446.53742	3125.525
450.6534	3167.725
454.76644	3190.525
458.87653	3215.025
462.98368	3208.025
467.08789	3202.125
471.18916	3219.325
475.2875	3234.625
479.38291	3260.825
483.4754	3333.425
487.56496	3420.125
491.6516	3521.925
495.73531	3566.725
499.81612	3526.825
503.89401	3467.225
507.96899	3404.325
512.04106	3378.725
516.11023	3383.025
520.1765	3451.325
524.23987	3516.125
528.30034	3568.125
532.35792	3571.525
536.41261	3524.925
540.46441	3407.225
544.51333	3322.525
548.55936	3247.325
552.60252	3200.525
556.64279	3210.025
560.6802	3220.825
564.71473	3234.625
568.7464	3281.925
572.7752	3319.425
576.80114	3311.025
580.82422	3335.025
584.84444	3358.725
588.86181	3422.025
592.87633	3462.025
596.888	3468.325
600.89682	3480.625
604.9028	3561.525
608.90594	3816.325
612.90624	4167.725
616.90371	4293.225
620.89834	4195.625
624.89015	4378.925
628.87913	4795.825
632.86528	5200.025
636.84862	5397.625
640.82913	5252.725
644.80683	4861.025
648.78172	4400.125
652.75379	4048.525
656.72306	3826.325
660.68952	3729.825
664.65319	3656.625
668.61405	3608.325
672.57211	3614.025
676.52738	3631.125
680.47986	3644.825
684.42955	3641.825
688.37646	3605.525
692.32058	3577.025
696.26192	3540.125
700.20048	3528.325
704.13626	3483.025
708.06928	3456.025
711.99952	3402.925
715.927	3378.725
719.85171	3401.925
723.77365	3440.225
727.69284	3455.925
731.60928	3411.825
735.52295	3338.225
739.43388	3289.025
743.34206	3275.125
747.24749	3298.325
751.15017	3295.225
755.05012	3313.225
758.94733	3350.625
762.8418	3417.325
766.73354	3547.825
770.62254	3661.225
774.50882	3694.725
778.39237	3628.225
782.27321	3501.325
786.15132	3384.525
790.02671	3338.225
793.89938	3372.825
797.76935	3424.625
801.6366	3541.625
805.50115	3769.125
809.36299	4019.225
813.22213	4160.625
817.07857	4054.325
820.93231	3818.225
824.78336	3525.225
828.63172	3309.825
832.47738	3194.725
836.32036	3141.125
840.16066	3124.425
843.99827	3093.025
847.8332	3090.125
851.66546	3066.625
855.49504	3062.225
859.32195	3077.925
863.1462	3116.225
866.96777	3177.525
870.78668	3276.525
874.60293	3399.225
878.41652	3563.625
882.22745	3735.325
886.03573	3840.025
889.84136	3859.825
893.64433	3744.925
897.44466	3519.125
901.24235	3300.425
905.0374	3129.225
908.8298	3021.125
912.61957	2968.225
916.40671	2948.425
920.19121	2928.725
923.97308	2909.925
927.75233	2913.225
931.52895	2903.125
935.30295	2896.925
939.07433	2888.425
942.84309	2866.425
946.60924	2864.625
950.37278	2850.125
954.13371	2852.725
957.89203	2838.725
961.64774	2835.325
965.40086	2816.925
969.15137	2799.725
972.89929	2776.425
976.64461	2780.525
980.38733	2771.225
984.12747	2748.425
987.86502	2790.025
991.59999	2806.725
995.33237	2826.825
999.06217	2900.025
1002.78939	2986.725
1006.51404	3083.925
1010.23611	3189.225
1013.95561	3262.425
1017.67255	3304.325
1021.38692	3276.325
1025.09872	3196.725
1028.80796	3089.225
1032.51465	2973.925
1036.21877	2919.525
1039.92035	2865.525
1043.61937	2859.125
1047.31584	2851.325
1051.00976	2867.725
1054.70114	2900.825
1058.38998	2929.525
1062.07627	2966.525
1065.76003	3009.125
1069.44126	3032.425
1073.11995	3047.825
1076.79611	3047.225
1080.46974	3006.325
1084.14085	2959.525
1087.80943	2894.825
1091.47549	2865.025
1095.13903	2812.725
1098.80005	2779.525
1102.45857	2776.425
1106.11456	2784.325
1109.76805	2803.725
1113.41903	2872.325
1117.06751	2997.125
1120.71348	3172.825
1124.35696	3437.325
1127.99793	3795.025
1131.63641	4152.025
1135.2724	4375.125
1138.90589	4444.425
1142.5369	4305.625
1146.16542	4019.325
1149.79145	3687.025
1153.415	3353.825
1157.03607	3130.225
1160.65467	2983.325
1164.27079	2924.625
1167.88443	2914.725
1171.49561	2956.325
1175.10432	3047.525
1178.71056	3180.925
1182.31434	3310.725
1185.91565	3418.625
1189.51451	3503.525
1193.11091	3618.925
1196.70485	3789.225
1200.29634	3958.025
1203.88538	4059.825
1207.47197	4008.825
1211.05612	3842.225
1214.63782	3614.125
1218.21708	3371.725
1221.79391	3177.825
1225.36829	3031.725
1228.94024	2948.725
1232.50976	2888.625
1236.07685	2865.725
1239.6415	2863.225
1243.20374	2876.925
1246.76355	2908.625
1250.32093	2916.725
1253.8759	2930.225
1257.42845	2949.725
1260.97859	2951.625
1264.52631	2971.725
1268.07163	2967.025
1271.61453	2968.225
1275.15503	2954.625
1278.69312	2920.125
1282.22882	2927.725
1285.76211	2931.825
1289.29301	2961.925
1292.82151	2993.225
1296.34761	3046.025
1299.87133	3131.025
1303.39266	3243.425
1306.9116	3402.825
1310.42815	3591.825
1313.94233	3691.125
1317.45412	3696.325
1320.96354	3641.825
1324.47058	3605.325
1327.97525	3597.625
1331.47754	3576.725
1334.97747	3622.525
1338.47502	3673.325
1341.97022	3767.625
1345.46305	3877.725
1348.95352	3980.525
1352.44163	4140.725
1355.92738	4330.325
1359.41078	4528.425
1362.89183	4727.425
1366.37053	4629.225
1369.84688	4341.225
1373.32088	4036.025
1376.79254	3816.925
1380.26186	3666.925
1383.72883	3572.725
1387.19347	3497.125
1390.65578	3406.225
1394.11575	3366.925
1397.57339	3316.525
1401.0287	3284.725
1404.48168	3254.925
1407.93234	3200.625
1411.38068	3135.225
1414.82669	3054.525
1418.27039	2953.125
1421.71177	2865.225
1425.15083	2791.225
1428.58758	2721.525
1432.02203	2676.525
1435.45416	2637.425
1438.88399	2613.125
1442.31151	2586.025
1445.73673	2577.525
1449.15965	2578.425
1452.58027	2563.425
1455.9986	2545.925
1459.41463	2537.525
1462.82837	2549.925
1466.23982	2564.125
1469.64898	2586.925
1473.05586	2601.825
1476.46045	2606.025
1479.86276	2613.825
1483.26279	2648.725
1486.66054	2661.525
1490.05602	2717.025
1493.44922	2782.925
1496.84016	2868.525
1500.22882	2995.225
1503.61521	3168.625
1506.99934	3361.625
1510.38121	3480.225
1513.76081	3509.925
1517.13816	3372.025
1520.51324	3171.825
1523.88607	3003.725
1527.25665	2919.425
1530.62498	2876.125
1533.99105	2882.125
1537.35488	2906.325
1540.71647	2928.825
1544.07581	2971.925
1547.4329	3006.025
1550.78776	3046.025
1554.14038	3054.825
1557.49077	3069.225
1560.83892	3070.225
1564.18484	3071.225
1567.52853	3093.825
1570.86999	3125.825
1574.20922	3154.425
1577.54624	3184.825
1580.88103	3181.925
1584.2136	3144.925
1587.54395	3112.825
1590.87208	3110.025
1594.19801	3141.125
1597.52172	3214.525
1600.84321	3276.925
1604.16251	3256.325
1607.47959	3266.225
1610.79447	3230.125
1614.10715	3199.825
1617.41763	3174.025
1620.7259	3124.625
1624.03199	3126.325
1627.33587	3105.025
1630.63757	3099.625
1633.93707	3116.325
1637.23439	3151.225
1640.52951	3237.025
1643.82246	3347.525
1647.11321	3509.425
1650.40179	3628.125
1653.68819	3637.025
1656.97241	3513.825
1660.25446	3354.625
1663.53433	3234.225
1666.81203	3137.725
1670.08756	3074.125
1673.36092	3022.025
1676.63211	2970.625
1679.90115	2944.625
1683.16801	2886.125
1686.43272	2842.125
1689.69527	2788.025
1692.95567	2749.425
1696.2139	2708.625
1699.46999	2643.525
1702.72392	2561.825
1705.97571	2455.925
1709.22535	2377.125
1712.47284	2311.025
1715.71819	2259.025
1718.96139	2207.725
1722.20246	2167.425
1725.44139	2165.125
1728.67818	2139.825
1731.91284	2109.825
1735.14537	2081.225
1738.37576	2074.025
1741.60403	2061.725
1744.83017	2055.925
1748.05418	2051.825
1751.27607	2044.025
1754.49584	2048.125
1757.71349	2056.125
1760.92903	2028.725
1764.14244	2016.625
1767.35375	1994.925
1770.56294	1972.925
1773.77002	1946.125
1776.97499	1908.025
1780.17785	1880.525
1783.37861	1855.725
1786.57727	1833.325
1789.77382	1822.925
1792.96828	1806.325
1796.16064	1793.325
1799.3509	1782.225
1802.53907	1769.425
1805.72514	1769.325
1808.90913	1749.125
1812.09102	1747.625
1815.27083	1748.825
1818.44856	1723.625
1821.6242	1719.125
1824.79776	1717.925
1827.96924	1719.925
1831.13864	1711.025
1834.30597	1702.925
1837.47122	1711.125
1840.6344	1696.025
1843.7955	1700.625
1846.95454	1693.525
1850.11151	1694.825
1853.26642	1678.725
1856.41926	1682.525
1859.57004	1687.625
1862.71876	1681.625
1865.86542	1676.125
1869.01003	1668.125
1872.15258	1661.725
1875.29308	1662.225
1878.43152	1661.225
1881.56792	1642.025
1884.70227	1651.125
1887.83457	1644.225
1890.96482	1639.225
1894.09304	1631.925
1897.21921	1635.625
1900.34335	1619.625
1903.46544	1619.125
1906.58551	1617.525
1909.70353	1622.025
1912.81953	1616.325
1915.93349	1611.025
1919.04543	1603.825
1922.15534	1600.225
1925.26322	1598.425
1928.36908	1596.625
1931.47292	1593.525
1934.57473	1583.125
1937.67453	1579.925
1940.77232	1567.025
1943.86808	1566.325
1946.96184	1562.725
1950.05358	1544.825
1953.14331	1557.825
1956.23103	1544.525
1959.31675	1533.725
1962.40046	1533.525
1965.48217	1520.425
1968.56188	1514.425
1971.63959	1514.625
1974.7153	1511.725
1977.78901	1509.625
1980.86073	1500.925
1983.93046	1492.325
1986.99819	1487.825
1990.06394	1485.325
1993.1277	1473.425
1996.18947	1475.425
1999.24925	1475.425
2002.30706	1464.525
2005.36288	1455.325
2008.41672	1450.525
2011.46859	1451.125
2014.51848	1443.425
2017.56639	1440.725
2020.61233	1432.825
2023.6563	1429.125
2026.6983	1419.025
2029.73833	1413.925
2032.7764	1412.225
2035.8125	1412.625
2038.84664	1403.925
2041.87881	1406.625
2044.90903	1398.725
2047.93729	1397.825
2050.96359	1396.325
2053.98794	1398.025
2057.01034	1395.125
2060.03078	1379.725
2063.04927	1375.525
2066.06582	1385.925
2069.08042	1379.925
2072.09307	1379.525
2075.10378	1381.025
2078.11255	1374.225
2081.11938	1375.825
2084.12426	1371.125
2087.12722	1368.525
2090.12824	1373.825
2093.12732	1373.325
2096.12447	1358.125
2099.11969	1363.125
2102.11299	1364.325
2105.10435	1370.925
2108.09379	1359.325
2111.08131	1357.925
2114.0669	1363.625
2117.05057	1353.225
2120.03233	1362.725
2123.01216	1364.525
2125.99008	1357.225
2128.96609	1363.725
2131.94018	1353.625
2134.91236	1364.125
2137.88263	1358.625
2140.851	1359.525
2143.81746	1363.125
2146.78201	1363.125
2149.74466	1352.025
2152.7054	1358.125
2155.66425	1356.225
2158.6212	1354.125
2161.57625	1353.225
2164.52941	1354.125
2167.48067	1355.725
2170.43004	1347.425
2173.37752	1348.625
2176.32311	1344.125
2179.26681	1342.525
2182.20863	1348.725
2185.14856	1345.025
2188.08661	1335.925
2191.02278	1337.025
2193.95707	1330.825
2196.88948	1322.625
2199.82001	1329.725
2202.74867	1319.925
2205.67545	1320.925
2208.60037	1319.525
2211.52341	1307.825
2214.44458	1304.325
2217.36388	1307.825
2220.28132	1297.725
2223.1969	1297.025
2226.11061	1296.825
2229.02246	1287.625
2231.93245	1287.725
2234.84058	1289.125
2237.74686	1278.925
2240.65128	1295.225
2243.55385	1278.325
2246.45456	1277.925
2249.35343	1282.025
2252.25044	1275.625
2255.14561	1263.325
2258.03893	1270.325
2260.93041	1277.525
2263.82004	1271.425
2266.70783	1263.325
2269.59378	1260.225
2272.4779	1252.725
2275.36017	1244.325
2278.24061	1241.525
2281.11922	1232.225
2283.996	1241.125
2286.87094	1235.825
2289.74405	1229.925
2292.61534	1221.125
2295.4848	1217.625
2298.35243	1213.225
2301.21824	1213.925
2304.08223	1218.625
2306.94439	1215.125
2309.80474	1215.425
2312.66327	1215.425
2315.51999	1207.825
2318.37489	1206.325
2321.22797	1197.625
2324.07925	1199.025
2326.92871	1197.625
2329.77637	1198.525
2332.62222	1197.025
2335.46626	1193.125
2338.3085	1185.525
2341.14893	1179.925
2343.98756	1177.825
2346.8244	1182.525
2349.65943	1174.425
2352.49267	1183.925
2355.32411	1175.925
2358.15376	1178.225
2360.98161	1171.425
2363.80768	1167.425
2366.63195	1170.725
2369.45444	1166.025
2372.27514	1169.425
2375.09405	1163.025
2377.91118	1169.925
2380.72652	1158.125
2383.54009	1159.525
2386.35187	1167.725
2389.16188	1158.725
2391.97011	1158.325
2394.77657	1153.825
2397.58125	1152.725
2400.38416	1144.625
2403.18529	1145.025
2405.98466	1149.625
2408.78226	1143.225
2411.57809	1136.325
2414.37216	1129.925
2417.16446	1132.825
2419.955	1119.525
2422.74378	1122.425
2425.5308	1115.025
2428.31606	1120.825
2431.09956	1113.425
2433.88131	1111.525
2436.6613	1114.925
2439.43954	1116.025
2442.21603	1096.725
2444.99077	1102.925
2447.76377	1099.125
2450.53501	1099.425
2453.30451	1101.425
2456.07226	1088.125
2458.83827	1091.125
2461.60254	1082.625
2464.36507	1095.025
2467.12586	1086.325
2469.88492	1093.525
2472.64224	1084.625
2475.39782	1086.025
2478.15167	1092.425
2480.90379	1079.525
2483.65417	1077.725
2486.40283	1079.925
2489.14976	1077.825
2491.89497	1079.525
2494.63845	1081.625
2497.3802	1079.025
2500.12024	1073.725
2502.85855	1066.925
2505.59514	1070.925
2508.33002	1062.725
2511.06318	1063.525
2513.79462	1063.025
2516.52435	1053.625
2519.25237	1046.325
2521.97867	1050.425
2524.70327	1046.925
2527.42616	1049.325
2530.14734	1060.625
2532.86681	1061.625
2535.58458	1046.325
2538.30065	1040.325
2541.01501	1031.625
2543.72768	1035.225
2546.43864	1032.025
2549.14791	1029.525
2551.85548	1024.625
2554.56136	1023.425
2557.26554	1024.925
2559.96803	1012.425
2562.66883	1015.925
2565.36794	1018.325
2568.06536	1012.325
2570.7611	1010.725
2573.45514	1001.525
2576.14751	1010.525
2578.83819	1001.625
2581.52719	997.625
2584.21451	992.925
2586.90015	1002.525
2589.58411	992.725
2592.2664	994.425
2594.94701	992.025
2597.62594	993.525
2600.30321	976.125
2602.9788	979.125
2605.65273	971.425
2608.32498	977.525
2610.99557	978.925
2613.66449	969.925
2616.33175	971.625
2618.99734	970.525
2621.66128	967.425
2624.32355	972.225
2626.98416	975.025
2629.64311	964.425
2632.30041	962.425
2634.95605	959.925
2637.61004	960.825
2640.26238	953.325
2642.91306	963.325
2645.56209	959.525
2648.20948	952.025
2650.85521	955.025
2653.4993	947.625
2656.14175	957.225
2658.78255	940.525
2661.42171	948.625
2664.05923	952.625
2666.6951	945.425
2669.32934	945.525
2671.96194	951.725
2674.59291	945.425
2677.22224	943.325
2679.84993	948.225
2682.476	944.525
2685.10043	944.625
2687.72324	945.025
2690.34441	945.225
2692.96396	941.325
2695.58188	950.525
2698.19818	947.625
2700.81285	954.725
2703.4259	961.825
2706.03733	1006.825
2708.64714	981.325
2711.25533	967.725
2713.86191	957.625
2716.46687	954.125
2719.07021	959.625
2721.67194	945.725
2724.27206	940.125
2726.87057	952.925
2729.46747	947.525
2732.06276	942.525
2734.65644	949.625
2737.24852	941.725
2739.83899	938.025
2742.42786	935.825
2745.01513	934.425
2747.60079	941.425
2750.18486	930.325
2752.76733	937.025
2755.3482	932.525
2757.92747	930.725
2760.50515	932.025
2763.08123	924.425
2765.65573	923.525
2768.22863	930.125
2770.79994	923.525
2773.36967	921.125
2775.9378	922.425
2778.50435	910.025
2781.06932	910.825
2783.6327	916.425
2786.1945	917.125
2788.75471	917.825
2791.31335	912.425
2793.87041	909.325
2796.42589	905.025
2798.97979	908.925
2801.53212	898.525
2804.08288	907.725
2806.63206	903.025
2809.17967	907.925
2811.72571	908.925
2814.27018	899.525
2816.81308	903.125
2819.35442	905.125
2821.89419	902.925
2824.43239	901.225
2826.96904	900.725
2829.50412	898.825
2832.03763	900.725
2834.56959	900.525
2837.1	901.525
2839.62884	898.425
2842.15613	898.525
2844.68186	891.725
2847.20604	900.725
2849.72867	896.125
2852.24974	899.325
2854.76927	909.125
2857.28724	913.725
2859.80367	905.825
2862.31855	903.725
2864.83189	896.925
2867.34368	895.325
2869.85393	895.725
2872.36264	897.425
2874.8698	907.725
2877.37543	901.725
2879.87952	902.825
2882.38207	898.325
2884.88308	913.325
2887.38256	909.425
2889.88051	909.625
2892.37692	915.925
2894.8718	919.325
2897.36515	919.125
2899.85698	926.825
2902.34727	933.025
2904.83604	929.725
2907.32328	944.725
2909.809	947.325
2912.29319	943.925
2914.77587	944.225
2917.25702	953.225
2919.73665	954.425
2922.21476	953.025
2924.69136	963.625
2927.16644	963.025
2929.64	957.325
2932.11205	962.625
2934.58258	962.725
2937.05161	959.525
2939.51912	970.025
2941.98513	960.425
2944.44962	965.625
2946.91261	959.825
2949.37409	959.225
2951.83407	957.525
2954.29254	960.225
2956.74951	958.125
2959.20498	950.125
2961.65895	953.125
2964.11142	936.125
2966.56239	942.225
2969.01186	935.525
2971.45984	935.025
2973.90632	924.525
2976.35131	921.225
2978.7948	925.125
2981.23681	913.525
2983.67732	915.825
2986.11635	919.525
2988.55388	911.325
2990.98993	921.325
2993.4245	907.025
2995.85758	910.525
2998.28917	907.525
3000.71928	909.525
3003.14791	908.925
3005.57506	910.725
3008.00073	907.425
3010.42493	913.625
3012.84764	915.525
3015.26888	917.725
3017.68865	918.225
3020.10694	916.325
3022.52376	920.025
3024.9391	922.525
3027.35298	917.325
3029.76539	915.825
3032.17632	915.025
3034.5858	913.925
3036.9938	920.225
3039.40034	920.825
3041.80542	927.525
3044.20903	919.925
3046.61118	917.625
3049.01187	926.425
3051.4111	923.025
3053.80888	922.925
3056.20519	924.325
3058.60005	923.225
3060.99345	931.425
3063.3854	936.525
3065.7759	931.225
3068.16494	933.725
3070.55254	938.725
3072.93868	937.225
3075.32338	937.625
3077.70662	934.725
3080.08842	944.025
3082.46878	957.025
3084.84769	951.625
3087.22515	957.525
3089.60118	965.225
3091.97576	972.125
3094.3489	979.325
3096.72061	974.325
3099.09087	973.225
3101.4597	989.225
3103.82709	987.125
3106.19305	993.125
3108.55757	998.925
3110.92066	998.825
3113.28232	999.725
3115.64255	1003.425
3118.00134	1018.625
3120.35871	1010.525
3122.71466	1023.325
3125.06917	1028.925
3127.42226	1029.625
3129.77393	1038.425
3132.12417	1044.825
3134.47299	1056.025
3136.82039	1060.525
3139.16636	1057.125
3141.51092	1067.425
3143.85406	1072.325
3146.19579	1087.425
3148.53609	1087.825
3150.87499	1094.825
3153.21246	1111.325
3155.54853	1116.425
3157.88318	1120.625
3160.21642	1125.325
3162.54826	1133.025
3164.87868	1143.425
3167.2077	1146.325
3169.5353	1153.225
3171.86151	1154.225
3174.18631	1161.625
3176.5097	1165.125
3178.83169	1163.525
3181.15228	1169.225
3183.47147	1178.825
3185.78926	1181.125
3188.10565	1185.125
3190.42065	1202.125
3192.73424	1208.725
3195.04645	1205.625
3197.35725	1196.325
3199.66667	1215.625
3201.97469	1220.925
3204.28132	1229.825
3206.58656	1231.025
3208.8904	1242.125
3211.19287	1243.625
3213.49394	1247.725
3215.79363	1259.825
3218.09193	1255.825
3220.38884	1274.125
3222.68438	1271.725
3224.97853	1271.925
3227.2713	1284.725
3229.56269	1268.525
3231.8527	1269.125
3234.14133	1272.025
3236.42858	1272.525
3238.71446	1271.925
3240.99896	1276.125
3243.28209	1276.125
3245.56384	1273.825
3247.84423	1281.525
3250.12324	1278.125
3252.40088	1276.825
3254.67715	1276.025
3256.95205	1270.225
3259.22558	1280.625
3261.49775	1276.225
3263.76855	1279.625
3266.03799	1278.225
3268.30606	1274.625
3270.57277	1267.925
3272.83812	1273.525
3275.10211	1275.125
3277.36474	1272.925
3279.62601	1269.625
3281.88593	1264.425
3284.14448	1272.425
3286.40168	1270.225
3288.65753	1270.425
3290.91202	1273.925
3293.16516	1261.425
3295.41695	1269.225
3297.66738	1261.025
3299.91647	1256.025
3302.16421	1253.625
3304.4106	1248.625
3306.65564	1243.425
3308.89933	1237.625
3311.14169	1241.125
3313.38269	1228.425
3315.62236	1225.625
3317.86068	1216.025
3320.09766	1199.225
3322.3333	1189.325
3324.5676	1199.625
3326.80056	1192.525
3329.03219	1182.125
3331.26248	-0.275
3333.49143	-0.075
3335.71905	-0.575
