Data from AgNPs_FTO_APTES_UA_0.1mM_CRN_0uM_NaF_0.1M_Addition_RamanShift__23__10-29-27-476.txt Node

Date: Mon Dec 20 10:29:27 GMT 2021
User: TCL
Spectrometer: QEP01345
Trigger mode: 4
Integration Time (sec): 7.000000E0
Scans to average: 10
Electric dark correction enabled: true
Nonlinearity correction enabled: false
Boxcar width: 0
XAxis mode: Raman Shifts
Number of Pixels in Spectrum: 1044
>>>>>Begin Spectral Data<<<<<
46.04893	0.4375
50.45542	-0.2625
54.85868	-1.3625
59.25871	1.2375
63.6555	26.4375
68.04907	25.5375
72.43941	27.8375
76.82654	29.4375
81.21044	27.3375
85.59113	33.8375
89.96862	34.1375
94.34289	34.1375
98.71396	36.4375
103.08183	32.3375
107.4465	34.9375
111.80798	38.0375
116.16626	40.1375
120.52136	42.0375
124.87327	42.4375
129.222	39.6375
133.56755	42.5375
137.90993	45.7375
142.24913	45.4375
146.58517	49.2375
150.91804	54.7375
155.24774	65.3375
159.57429	72.1375
163.89768	96.3375
168.21792	122.0375
172.53501	150.0375
176.84895	204.0375
181.15975	276.5375
185.46741	386.6375
189.77193	528.9375
194.07331	701.8375
198.37157	898.3375
202.6667	1115.5375
206.9587	1325.6375
211.24758	1539.6375
215.53334	1742.7375
219.81599	1938.6375
224.09553	2154.5375
228.37195	2366.0375
232.64527	2616.3375
236.91549	2849.4375
241.18261	3099.3375
245.44663	3321.4375
249.70755	3527.3375
253.96539	3715.9375
258.22014	3865.4375
262.4718	3936.5375
266.72039	4003.3375
270.96589	4022.2375
275.20832	4011.6375
279.44768	3964.7375
283.68397	3904.6375
287.91719	3845.5375
292.14735	3815.8375
296.37445	3761.7375
300.59849	3770.0375
304.81948	3772.6375
309.03742	3785.0375
313.25231	3768.2375
317.46415	3708.7375
321.67296	3619.8375
325.87872	3524.5375
330.08145	3466.2375
334.28114	3460.9375
338.47781	3479.9375
342.67145	3514.2375
346.86207	3551.8375
351.04966	3639.1375
355.23424	3745.9375
359.4158	3829.9375
363.59435	3899.0375
367.76989	3944.6375
371.94243	4000.9375
376.11196	4032.4375
380.27849	4080.0375
384.44203	4109.4375
388.60257	4133.9375
392.76012	4166.0375
396.91468	4186.2375
401.06626	4240.9375
405.21485	4271.7375
409.36047	4249.8375
413.50311	4187.0375
417.64277	4109.4375
421.77947	4092.7375
425.9132	4056.9375
430.04396	4067.7375
434.17176	4093.3375
438.2966	4116.7375
442.41849	4159.2375
446.53742	4216.0375
450.6534	4287.3375
454.76644	4328.9375
458.87653	4327.1375
462.98368	4344.9375
467.08789	4318.0375
471.18916	4325.2375
475.2875	4345.8375
479.38291	4356.6375
483.4754	4447.9375
487.56496	4576.9375
491.6516	4707.0375
495.73531	4783.1375
499.81612	4732.2375
503.89401	4651.1375
507.96899	4546.8375
512.04106	4510.4375
516.11023	4527.4375
520.1765	4572.0375
524.23987	4650.6375
528.30034	4684.4375
532.35792	4704.8375
536.41261	4633.7375
540.46441	4547.6375
544.51333	4451.1375
548.55936	4390.3375
552.60252	4367.5375
556.64279	4371.4375
560.6802	4361.3375
564.71473	4349.3375
568.7464	4396.1375
572.7752	4436.9375
576.80114	4438.5375
580.82422	4459.9375
584.84444	4523.8375
588.86181	4615.6375
592.87633	4705.5375
596.888	4713.7375
600.89682	4696.7375
604.9028	4779.4375
608.90594	5154.4375
612.90624	5756.2375
616.90371	5927.5375
620.89834	5568.7375
624.89015	5596.0375
628.87913	5981.9375
632.86528	6401.8375
636.84862	6622.7375
640.82913	6475.8375
644.80683	6099.3375
648.78172	5668.6375
652.75379	5308.9375
656.72306	5089.4375
660.68952	4988.8375
664.65319	4925.2375
668.61405	4855.9375
672.57211	4863.7375
676.52738	4862.0375
680.47986	4865.2375
684.42955	4860.2375
688.37646	4864.3375
692.32058	4817.5375
696.26192	4771.6375
700.20048	4721.1375
704.13626	4660.2375
708.06928	4597.8375
711.99952	4547.6375
715.927	4515.4375
719.85171	4542.3375
723.77365	4583.1375
727.69284	4569.3375
731.60928	4534.0375
735.52295	4461.9375
739.43388	4410.9375
743.34206	4427.7375
747.24749	4426.7375
751.15017	4442.2375
755.05012	4420.2375
758.94733	4482.4375
762.8418	4584.6375
766.73354	4788.6375
770.62254	5008.6375
774.50882	5144.8375
778.39237	5098.2375
782.27321	4861.9375
786.15132	4654.4375
790.02671	4581.9375
793.89938	4567.0375
797.76935	4618.9375
801.6366	4730.3375
805.50115	4957.1375
809.36299	5232.9375
813.22213	5306.7375
817.07857	5199.1375
820.93231	4949.3375
824.78336	4688.2375
828.63172	4469.7375
832.47738	4364.4375
836.32036	4304.8375
840.16066	4271.3375
843.99827	4250.4375
847.8332	4241.9375
851.66546	4217.7375
855.49504	4197.6375
859.32195	4189.7375
863.1462	4227.7375
866.96777	4269.1375
870.78668	4358.6375
874.60293	4498.5375
878.41652	4674.3375
882.22745	4833.2375
886.03573	4927.6375
889.84136	4940.5375
893.64433	4796.5375
897.44466	4592.2375
901.24235	4375.0375
905.0374	4218.7375
908.8298	4104.0375
912.61957	4056.0375
916.40671	4025.6375
920.19121	4012.6375
923.97308	4007.8375
927.75233	3990.9375
931.52895	4021.2375
935.30295	4013.0375
939.07433	3982.0375
942.84309	3953.8375
946.60924	3944.5375
950.37278	3919.8375
954.13371	3917.1375
957.89203	3904.5375
961.64774	3869.3375
965.40086	3845.5375
969.15137	3811.3375
972.89929	3793.4375
976.64461	3768.7375
980.38733	3775.9375
984.12747	3771.7375
987.86502	3785.2375
991.59999	3808.3375
995.33237	3848.7375
999.06217	3923.5375
1002.78939	4031.1375
1006.51404	4131.5375
1010.23611	4224.2375
1013.95561	4274.9375
1017.67255	4316.2375
1021.38692	4253.6375
1025.09872	4191.9375
1028.80796	4074.9375
1032.51465	3968.1375
1036.21877	3890.4375
1039.92035	3828.1375
1043.61937	3791.7375
1047.31584	3785.6375
1051.00976	3772.8375
1054.70114	3802.5375
1058.38998	3839.0375
1062.07627	3885.3375
1065.76003	3934.9375
1069.44126	3961.7375
1073.11995	3959.1375
1076.79611	3947.8375
1080.46974	3919.6375
1084.14085	3891.4375
1087.80943	3854.9375
1091.47549	3827.1375
1095.13903	3771.0375
1098.80005	3721.3375
1102.45857	3696.2375
1106.11456	3682.7375
1109.76805	3740.2375
1113.41903	3813.8375
1117.06751	3987.6375
1120.71348	4244.4375
1124.35696	4581.3375
1127.99793	4996.3375
1131.63641	5387.1375
1135.2724	5590.2375
1138.90589	5556.9375
1142.5369	5361.4375
1146.16542	5026.0375
1149.79145	4641.7375
1153.415	4311.2375
1157.03607	4054.0375
1160.65467	3891.6375
1164.27079	3826.8375
1167.88443	3820.7375
1171.49561	3893.9375
1175.10432	4025.7375
1178.71056	4259.5375
1182.31434	4493.4375
1185.91565	4647.2375
1189.51451	4752.7375
1193.11091	4836.6375
1196.70485	4982.5375
1200.29634	5086.5375
1203.88538	5126.6375
1207.47197	5016.3375
1211.05612	4798.7375
1214.63782	4553.8375
1218.21708	4313.2375
1221.79391	4109.1375
1225.36829	3985.0375
1228.94024	3881.9375
1232.50976	3826.3375
1236.07685	3786.0375
1239.6415	3798.8375
1243.20374	3812.7375
1246.76355	3828.0375
1250.32093	3852.6375
1253.8759	3883.7375
1257.42845	3916.0375
1260.97859	3954.7375
1264.52631	3995.2375
1268.07163	4028.9375
1271.61453	4050.9375
1275.15503	4039.4375
1278.69312	4021.0375
1282.22882	3967.2375
1285.76211	4002.1375
1289.29301	4053.3375
1292.82151	4125.0375
1296.34761	4211.1375
1299.87133	4315.2375
1303.39266	4483.0375
1306.9116	4729.3375
1310.42815	5039.7375
1313.94233	5261.6375
1317.45412	5299.0375
1320.96354	5174.7375
1324.47058	5018.0375
1327.97525	4861.9375
1331.47754	4817.4375
1334.97747	4850.7375
1338.47502	4937.3375
1341.97022	5059.8375
1345.46305	5203.4375
1348.95352	5394.4375
1352.44163	5638.1375
1355.92738	5966.8375
1359.41078	6376.6375
1362.89183	6812.8375
1366.37053	6821.8375
1369.84688	6362.5375
1373.32088	5809.4375
1376.79254	5400.2375
1380.26186	5167.2375
1383.72883	5038.2375
1387.19347	4918.4375
1390.65578	4763.4375
1394.11575	4617.9375
1397.57339	4514.4375
1401.0287	4428.4375
1404.48168	4345.0375
1407.93234	4253.1375
1411.38068	4135.0375
1414.82669	4052.8375
1418.27039	3928.7375
1421.71177	3829.5375
1425.15083	3742.6375
1428.58758	3684.7375
1432.02203	3653.1375
1435.45416	3637.3375
1438.88399	3647.5375
1442.31151	3630.5375
1445.73673	3622.8375
1449.15965	3634.9375
1452.58027	3617.4375
1455.9986	3569.3375
1459.41463	3527.5375
1462.82837	3552.0375
1466.23982	3574.9375
1469.64898	3642.0375
1473.05586	3686.0375
1476.46045	3730.4375
1479.86276	3788.5375
1483.26279	3850.1375
1486.66054	3910.0375
1490.05602	3977.6375
1493.44922	4055.9375
1496.84016	4139.9375
1500.22882	4278.2375
1503.61521	4510.0375
1506.99934	4780.7375
1510.38121	5053.5375
1513.76081	5171.2375
1517.13816	5042.6375
1520.51324	4695.9375
1523.88607	4356.5375
1527.25665	4116.7375
1530.62498	4041.3375
1533.99105	4016.9375
1537.35488	4044.0375
1540.71647	4065.5375
1544.07581	4123.1375
1547.4329	4191.2375
1550.78776	4228.1375
1554.14038	4257.0375
1557.49077	4302.8375
1560.83892	4333.1375
1564.18484	4369.2375
1567.52853	4406.1375
1570.86999	4448.5375
1574.20922	4491.9375
1577.54624	4488.1375
1580.88103	4440.3375
1584.2136	4332.2375
1587.54395	4249.3375
1590.87208	4254.1375
1594.19801	4319.8375
1597.52172	4439.0375
1600.84321	4562.0375
1604.16251	4609.6375
1607.47959	4562.2375
1610.79447	4448.0375
1614.10715	4335.4375
1617.41763	4256.3375
1620.7259	4197.3375
1624.03199	4186.4375
1627.33587	4195.6375
1630.63757	4232.1375
1633.93707	4303.5375
1637.23439	4435.8375
1640.52951	4652.2375
1643.82246	4923.9375
1647.11321	5271.4375
1650.40179	5496.6375
1653.68819	5493.5375
1656.97241	5213.8375
1660.25446	4848.0375
1663.53433	4530.7375
1666.81203	4309.3375
1670.08756	4104.7375
1673.36092	3984.8375
1676.63211	3875.8375
1679.90115	3782.8375
1683.16801	3706.2375
1686.43272	3615.5375
1689.69527	3550.5375
1692.95567	3481.4375
1696.2139	3411.9375
1699.46999	3322.1375
1702.72392	3221.5375
1705.97571	3134.1375
1709.22535	3032.2375
1712.47284	2959.4375
1715.71819	2873.5375
1718.96139	2817.8375
1722.20246	2748.4375
1725.44139	2708.3375
1728.67818	2653.7375
1731.91284	2595.2375
1735.14537	2535.4375
1738.37576	2502.1375
1741.60403	2484.7375
1744.83017	2453.6375
1748.05418	2446.5375
1751.27607	2427.0375
1754.49584	2421.7375
1757.71349	2399.3375
1760.92903	2388.4375
1764.14244	2367.5375
1767.35375	2347.1375
1770.56294	2335.3375
1773.77002	2309.4375
1776.97499	2295.6375
1780.17785	2260.8375
1783.37861	2253.1375
1786.57727	2236.4375
1789.77382	2225.6375
1792.96828	2206.3375
1796.16064	2190.3375
1799.3509	2167.5375
1802.53907	2167.1375
1805.72514	2147.0375
1808.90913	2127.9375
1812.09102	2125.0375
1815.27083	2120.9375
1818.44856	2104.1375
1821.6242	2098.3375
1824.79776	2083.6375
1827.96924	2079.9375
1831.13864	2070.9375
1834.30597	2076.5375
1837.47122	2069.7375
1840.6344	2043.9375
1843.7955	2055.5375
1846.95454	2048.1375
1850.11151	2037.8375
1853.26642	2046.4375
1856.41926	2035.7375
1859.57004	2043.0375
1862.71876	2026.5375
1865.86542	2028.8375
1869.01003	2015.2375
1872.15258	2013.6375
1875.29308	2007.5375
1878.43152	1997.9375
1881.56792	1988.7375
1884.70227	1991.8375
1887.83457	1979.4375
1890.96482	1982.3375
1894.09304	1981.5375
1897.21921	1962.0375
1900.34335	1963.2375
1903.46544	1959.5375
1906.58551	1962.5375
1909.70353	1945.6375
1912.81953	1942.5375
1915.93349	1938.9375
1919.04543	1922.3375
1922.15534	1919.4375
1925.26322	1916.6375
1928.36908	1910.0375
1931.47292	1899.9375
1934.57473	1891.8375
1937.67453	1887.3375
1940.77232	1884.4375
1943.86808	1881.2375
1946.96184	1880.2375
1950.05358	1854.7375
1953.14331	1860.8375
1956.23103	1856.8375
1959.31675	1838.5375
1962.40046	1832.5375
1965.48217	1834.3375
1968.56188	1828.7375
1971.63959	1811.2375
1974.7153	1808.6375
1977.78901	1787.7375
1980.86073	1796.2375
1983.93046	1787.3375
1986.99819	1784.2375
1990.06394	1777.6375
1993.1277	1771.1375
1996.18947	1758.3375
1999.24925	1755.9375
2002.30706	1747.2375
2005.36288	1745.6375
2008.41672	1736.3375
2011.46859	1724.8375
2014.51848	1720.0375
2017.56639	1716.8375
2020.61233	1714.5375
2023.6563	1714.3375
2026.6983	1699.8375
2029.73833	1700.8375
2032.7764	1686.7375
2035.8125	1680.1375
2038.84664	1664.2375
2041.87881	1673.3375
2044.90903	1671.4375
2047.93729	1666.8375
2050.96359	1660.7375
2053.98794	1656.6375
2057.01034	1665.3375
2060.03078	1654.9375
2063.04927	1648.2375
2066.06582	1656.4375
2069.08042	1644.2375
2072.09307	1650.0375
2075.10378	1653.1375
2078.11255	1644.8375
2081.11938	1639.5375
2084.12426	1632.1375
2087.12722	1649.9375
2090.12824	1638.4375
2093.12732	1638.4375
2096.12447	1631.7375
2099.11969	1627.6375
2102.11299	1628.9375
2105.10435	1625.8375
2108.09379	1615.3375
2111.08131	1621.0375
2114.0669	1627.3375
2117.05057	1622.3375
2120.03233	1619.8375
2123.01216	1615.5375
2125.99008	1624.1375
2128.96609	1621.9375
2131.94018	1616.8375
2134.91236	1622.6375
2137.88263	1616.7375
2140.851	1612.3375
2143.81746	1612.1375
2146.78201	1614.4375
2149.74466	1600.2375
2152.7054	1597.7375
2155.66425	1595.5375
2158.6212	1591.5375
2161.57625	1590.2375
2164.52941	1596.8375
2167.48067	1590.9375
2170.43004	1583.6375
2173.37752	1584.3375
2176.32311	1579.5375
2179.26681	1577.0375
2182.20863	1584.1375
2185.14856	1575.4375
2188.08661	1581.4375
2191.02278	1571.2375
2193.95707	1562.4375
2196.88948	1565.8375
2199.82001	1561.1375
2202.74867	1559.8375
2205.67545	1553.1375
2208.60037	1556.4375
2211.52341	1539.5375
2214.44458	1545.1375
2217.36388	1534.0375
2220.28132	1534.9375
2223.1969	1515.7375
2226.11061	1529.8375
2229.02246	1515.7375
2231.93245	1520.4375
2234.84058	1510.9375
2237.74686	1505.7375
2240.65128	1507.9375
2243.55385	1503.9375
2246.45456	1490.3375
2249.35343	1488.6375
2252.25044	1492.5375
2255.14561	1486.1375
2258.03893	1487.2375
2260.93041	1483.0375
2263.82004	1477.2375
2266.70783	1469.8375
2269.59378	1472.9375
2272.4779	1470.5375
2275.36017	1462.9375
2278.24061	1453.1375
2281.11922	1442.9375
2283.996	1444.8375
2286.87094	1438.1375
2289.74405	1439.9375
2292.61534	1430.6375
2295.4848	1429.6375
2298.35243	1423.3375
2301.21824	1421.6375
2304.08223	1416.5375
2306.94439	1420.6375
2309.80474	1412.6375
2312.66327	1405.5375
2315.51999	1402.7375
2318.37489	1397.9375
2321.22797	1396.2375
2324.07925	1393.6375
2326.92871	1396.6375
2329.77637	1394.3375
2332.62222	1387.6375
2335.46626	1377.5375
2338.3085	1377.5375
2341.14893	1369.1375
2343.98756	1367.7375
2346.8244	1368.5375
2349.65943	1362.9375
2352.49267	1369.6375
2355.32411	1366.5375
2358.15376	1358.2375
2360.98161	1360.7375
2363.80768	1365.5375
2366.63195	1359.7375
2369.45444	1351.0375
2372.27514	1369.2375
2375.09405	1359.3375
2377.91118	1353.1375
2380.72652	1353.8375
2383.54009	1347.1375
2386.35187	1343.0375
2389.16188	1341.9375
2391.97011	1337.1375
2394.77657	1333.9375
2397.58125	1332.4375
2400.38416	1322.5375
2403.18529	1326.0375
2405.98466	1315.1375
2408.78226	1311.8375
2411.57809	1296.5375
2414.37216	1302.1375
2417.16446	1302.2375
2419.955	1303.8375
2422.74378	1291.6375
2425.5308	1289.0375
2428.31606	1288.6375
2431.09956	1277.3375
2433.88131	1274.8375
2436.6613	1286.5375
2439.43954	1270.9375
2442.21603	1272.7375
2444.99077	1267.7375
2447.76377	1263.2375
2450.53501	1263.4375
2453.30451	1261.3375
2456.07226	1265.5375
2458.83827	1258.0375
2461.60254	1247.7375
2464.36507	1249.6375
2467.12586	1244.7375
2469.88492	1244.5375
2472.64224	1237.2375
2475.39782	1228.9375
2478.15167	1237.8375
2480.90379	1235.5375
2483.65417	1235.8375
2486.40283	1229.0375
2489.14976	1234.2375
2491.89497	1238.3375
2494.63845	1223.5375
2497.3802	1224.4375
2500.12024	1227.4375
2502.85855	1227.5375
2505.59514	1226.4375
2508.33002	1220.9375
2511.06318	1209.3375
2513.79462	1210.6375
2516.52435	1213.6375
2519.25237	1204.6375
2521.97867	1192.6375
2524.70327	1193.5375
2527.42616	1197.3375
2530.14734	1191.2375
2532.86681	1180.7375
2535.58458	1178.4375
2538.30065	1186.2375
2541.01501	1177.9375
2543.72768	1170.0375
2546.43864	1173.8375
2549.14791	1168.9375
2551.85548	1171.1375
2554.56136	1158.7375
2557.26554	1161.0375
2559.96803	1158.9375
2562.66883	1157.5375
2565.36794	1140.4375
2568.06536	1153.8375
2570.7611	1148.9375
2573.45514	1148.0375
2576.14751	1146.2375
2578.83819	1138.5375
2581.52719	1135.7375
2584.21451	1136.4375
2586.90015	1131.6375
2589.58411	1117.6375
2592.2664	1118.4375
2594.94701	1115.5375
2597.62594	1115.3375
2600.30321	1120.4375
2602.9788	1107.7375
2605.65273	1111.3375
2608.32498	1105.2375
2610.99557	1104.2375
2613.66449	1102.5375
2616.33175	1099.3375
2618.99734	1106.4375
2621.66128	1107.3375
2624.32355	1097.8375
2626.98416	1102.0375
2629.64311	1089.5375
2632.30041	1081.9375
2634.95605	1081.4375
2637.61004	1080.5375
2640.26238	1082.8375
2642.91306	1077.8375
2645.56209	1078.1375
2648.20948	1078.6375
2650.85521	1071.3375
2653.4993	1075.1375
2656.14175	1078.4375
2658.78255	1075.8375
2661.42171	1071.1375
2664.05923	1072.6375
2666.6951	1057.9375
2669.32934	1069.5375
2671.96194	1071.4375
2674.59291	1068.2375
2677.22224	1075.7375
2679.84993	1075.7375
2682.476	1072.3375
2685.10043	1068.6375
2687.72324	1079.0375
2690.34441	1067.4375
2692.96396	1067.4375
2695.58188	1077.2375
2698.19818	1066.3375
2700.81285	1069.5375
2703.4259	1076.2375
2706.03733	1070.1375
2708.64714	1080.9375
2711.25533	1080.4375
2713.86191	1081.4375
2716.46687	1083.0375
2719.07021	1082.5375
2721.67194	1077.3375
2724.27206	1074.3375
2726.87057	1086.8375
2729.46747	1077.6375
2732.06276	1077.2375
2734.65644	1081.8375
2737.24852	1070.2375
2739.83899	1081.2375
2742.42786	1079.0375
2745.01513	1068.3375
2747.60079	1076.4375
2750.18486	1068.9375
2752.76733	1067.7375
2755.3482	1072.4375
2757.92747	1060.7375
2760.50515	1064.8375
2763.08123	1058.7375
2765.65573	1066.2375
2768.22863	1061.5375
2770.79994	1061.7375
2773.36967	1059.5375
2775.9378	1060.2375
2778.50435	1050.3375
2781.06932	1056.6375
2783.6327	1050.1375
2786.1945	1055.3375
2788.75471	1052.4375
2791.31335	1052.6375
2793.87041	1050.4375
2796.42589	1043.7375
2798.97979	1041.9375
2801.53212	1044.9375
2804.08288	1038.1375
2806.63206	1046.5375
2809.17967	1041.3375
2811.72571	1043.0375
2814.27018	1043.9375
2816.81308	1037.9375
2819.35442	1034.5375
2821.89419	1037.0375
2824.43239	1040.7375
2826.96904	1033.8375
2829.50412	1033.6375
2832.03763	1041.0375
2834.56959	1038.1375
2837.1	1035.7375
2839.62884	1047.2375
2842.15613	1038.9375
2844.68186	1046.4375
2847.20604	1048.2375
2849.72867	1051.6375
2852.24974	1059.6375
2854.76927	1056.6375
2857.28724	1063.1375
2859.80367	1061.1375
2862.31855	1066.8375
2864.83189	1066.2375
2867.34368	1062.5375
2869.85393	1065.9375
2872.36264	1070.5375
2874.8698	1080.9375
2877.37543	1082.0375
2879.87952	1078.8375
2882.38207	1079.7375
2884.88308	1083.8375
2887.38256	1079.9375
2889.88051	1092.7375
2892.37692	1087.3375
2894.8718	1098.2375
2897.36515	1094.6375
2899.85698	1092.1375
2902.34727	1097.4375
2904.83604	1099.4375
2907.32328	1106.4375
2909.809	1106.3375
2912.29319	1103.0375
2914.77587	1102.5375
2917.25702	1109.1375
2919.73665	1103.5375
2922.21476	1095.9375
2924.69136	1106.9375
2927.16644	1103.7375
2929.64	1102.5375
2932.11205	1103.4375
2934.58258	1096.6375
2937.05161	1097.6375
2939.51912	1096.0375
2941.98513	1088.8375
2944.44962	1087.1375
2946.91261	1066.4375
2949.37409	1077.4375
2951.83407	1065.6375
2954.29254	1060.7375
2956.74951	1049.8375
2959.20498	1047.5375
2961.65895	1043.5375
2964.11142	1038.0375
2966.56239	1030.3375
2969.01186	1026.0375
2971.45984	1017.2375
2973.90632	1020.2375
2976.35131	1008.5375
2978.7948	1008.3375
2981.23681	1009.1375
2983.67732	998.0375
2986.11635	1007.1375
2988.55388	996.5375
2990.98993	994.8375
2993.4245	990.6375
2995.85758	995.9375
2998.28917	986.3375
3000.71928	988.0375
3003.14791	989.4375
3005.57506	979.3375
3008.00073	984.5375
3010.42493	984.5375
3012.84764	989.0375
3015.26888	988.0375
3017.68865	985.8375
3020.10694	988.6375
3022.52376	987.0375
3024.9391	990.9375
3027.35298	984.3375
3029.76539	995.8375
3032.17632	996.2375
3034.5858	992.5375
3036.9938	992.6375
3039.40034	995.1375
3041.80542	991.5375
3044.20903	988.1375
3046.61118	994.6375
3049.01187	990.0375
3051.4111	998.6375
3053.80888	1003.5375
3056.20519	1003.2375
3058.60005	1000.3375
3060.99345	1009.4375
3063.3854	1011.5375
3065.7759	1008.5375
3068.16494	1000.5375
3070.55254	1013.6375
3072.93868	1008.6375
3075.32338	1012.7375
3077.70662	1019.9375
3080.08842	1019.0375
3082.46878	1020.3375
3084.84769	1028.0375
3087.22515	1032.7375
3089.60118	1031.6375
3091.97576	1035.2375
3094.3489	1036.6375
3096.72061	1046.8375
3099.09087	1047.9375
3101.4597	1054.2375
3103.82709	1055.1375
3106.19305	1054.8375
3108.55757	1063.0375
3110.92066	1061.0375
3113.28232	1069.4375
3115.64255	1077.6375
3118.00134	1083.0375
3120.35871	1083.2375
3122.71466	1083.0375
3125.06917	1085.4375
3127.42226	1092.0375
3129.77393	1111.9375
3132.12417	1107.8375
3134.47299	1114.5375
3136.82039	1126.8375
3139.16636	1122.4375
3141.51092	1135.2375
3143.85406	1136.2375
3146.19579	1151.4375
3148.53609	1151.4375
3150.87499	1165.2375
3153.21246	1164.6375
3155.54853	1183.2375
3157.88318	1189.5375
3160.21642	1186.4375
3162.54826	1188.9375
3164.87868	1195.9375
3167.2077	1207.1375
3169.5353	1209.3375
3171.86151	1210.4375
3174.18631	1213.5375
3176.5097	1221.9375
3178.83169	1224.1375
3181.15228	1221.4375
3183.47147	1235.6375
3185.78926	1240.6375
3188.10565	1242.4375
3190.42065	1251.2375
3192.73424	1260.4375
3195.04645	1256.9375
3197.35725	1261.8375
3199.66667	1269.9375
3201.97469	1274.8375
3204.28132	1290.0375
3206.58656	1289.6375
3208.8904	1291.3375
3211.19287	1301.5375
3213.49394	1304.0375
3215.79363	1308.1375
3218.09193	1303.6375
3220.38884	1317.9375
3222.68438	1316.5375
3224.97853	1318.3375
3227.2713	1317.9375
3229.56269	1321.9375
3231.8527	1319.3375
3234.14133	1317.3375
3236.42858	1317.4375
3238.71446	1326.2375
3240.99896	1321.1375
3243.28209	1332.0375
3245.56384	1319.7375
3247.84423	1325.2375
3250.12324	1321.4375
3252.40088	1329.3375
3254.67715	1326.1375
3256.95205	1320.1375
3259.22558	1323.5375
3261.49775	1330.7375
3263.76855	1328.8375
3266.03799	1324.7375
3268.30606	1318.8375
3270.57277	1308.5375
3272.83812	1324.1375
3275.10211	1318.9375
3277.36474	1314.4375
3279.62601	1319.5375
3281.88593	1322.6375
3284.14448	1320.6375
3286.40168	1316.7375
3288.65753	1314.6375
3290.91202	1318.0375
3293.16516	1311.8375
3295.41695	1312.1375
3297.66738	1304.0375
3299.91647	1295.7375
3302.16421	1292.7375
3304.4106	1282.7375
3306.65564	1278.7375
3308.89933	1275.8375
3311.14169	1260.9375
3313.38269	1250.9375
3315.62236	1247.5375
3317.86068	1234.4375
3320.09766	1223.9375
3322.3333	1213.6375
3324.5676	1218.8375
3326.80056	1189.2375
3329.03219	1191.7375
3331.26248	-0.1625
3333.49143	0.1375
3335.71905	0.3375
