Data from AgNPs_FTO_APTES_UA_0.1mM_CRN_20uM_NaF_0.1M_Addition_RamanShift__1__11-58-07-577.txt Node

Date: Mon Dec 20 11:58:07 GMT 2021
User: TCL
Spectrometer: QEP01345
Trigger mode: 4
Integration Time (sec): 7.000000E0
Scans to average: 10
Electric dark correction enabled: true
Nonlinearity correction enabled: false
Boxcar width: 0
XAxis mode: Raman Shifts
Number of Pixels in Spectrum: 1044
>>>>>Begin Spectral Data<<<<<
46.04893	0.1125
50.45542	-0.7875
54.85868	-1.4875
59.25871	2.0125
63.6555	31.1125
68.04907	32.9125
72.43941	37.0125
76.82654	39.7125
81.21044	35.5125
85.59113	43.0125
89.96862	41.2125
94.34289	44.3125
98.71396	43.7125
103.08183	43.1125
107.4465	46.2125
111.80798	50.3125
116.16626	50.2125
120.52136	49.9125
124.87327	53.4125
129.222	53.3125
133.56755	54.6125
137.90993	60.3125
142.24913	63.4125
146.58517	68.1125
150.91804	78.5125
155.24774	91.3125
159.57429	107.2125
163.89768	137.0125
168.21792	177.6125
172.53501	225.8125
176.84895	311.9125
181.15975	429.1125
185.46741	598.3125
189.77193	824.0125
194.07331	1099.1125
198.37157	1408.4125
202.6667	1750.8125
206.9587	2068.9125
211.24758	2411.7125
215.53334	2750.2125
219.81599	3104.5125
224.09553	3505.9125
228.37195	3930.6125
232.64527	4409.3125
236.91549	4901.5125
241.18261	5377.6125
245.44663	5816.6125
249.70755	6206.7125
253.96539	6537.5125
258.22014	6777.9125
262.4718	6935.5125
266.72039	7055.0125
270.96589	7083.8125
275.20832	7051.3125
279.44768	6971.5125
283.68397	6879.3125
287.91719	6768.0125
292.14735	6679.4125
296.37445	6621.3125
300.59849	6639.7125
304.81948	6646.5125
309.03742	6642.1125
313.25231	6602.6125
317.46415	6519.6125
321.67296	6388.9125
325.87872	6281.6125
330.08145	6251.8125
334.28114	6221.7125
338.47781	6236.7125
342.67145	6284.7125
346.86207	6337.3125
351.04966	6427.5125
355.23424	6549.6125
359.4158	6641.3125
363.59435	6743.5125
367.76989	6801.2125
371.94243	6882.7125
376.11196	6941.6125
380.27849	6982.8125
384.44203	7062.7125
388.60257	7116.8125
392.76012	7160.9125
396.91468	7241.5125
401.06626	7300.4125
405.21485	7376.3125
409.36047	7381.9125
413.50311	7299.6125
417.64277	7239.6125
421.77947	7222.7125
425.9132	7213.1125
430.04396	7230.7125
434.17176	7275.9125
438.2966	7320.0125
442.41849	7379.7125
446.53742	7491.6125
450.6534	7593.9125
454.76644	7675.0125
458.87653	7696.3125
462.98368	7697.5125
467.08789	7678.8125
471.18916	7657.9125
475.2875	7680.4125
479.38291	7709.0125
483.4754	7770.4125
487.56496	7861.5125
491.6516	7991.2125
495.73531	8100.5125
499.81612	8099.4125
503.89401	8083.2125
507.96899	7985.1125
512.04106	7919.7125
516.11023	7867.3125
520.1765	7873.6125
524.23987	7905.5125
528.30034	7918.1125
532.35792	7912.5125
536.41261	7878.7125
540.46441	7805.6125
544.51333	7726.1125
548.55936	7674.1125
552.60252	7666.4125
556.64279	7691.7125
560.6802	7724.6125
564.71473	7731.6125
568.7464	7786.9125
572.7752	7849.6125
576.80114	7900.7125
580.82422	7940.1125
584.84444	8075.1125
588.86181	8269.9125
592.87633	8415.5125
596.888	8422.4125
600.89682	8353.1125
604.9028	8438.1125
608.90594	8849.0125
612.90624	9494.0125
616.90371	9475.1125
620.89834	8756.2125
624.89015	8649.9125
628.87913	9036.1125
632.86528	9565.8125
636.84862	9905.7125
640.82913	9911.1125
644.80683	9551.1125
648.78172	9100.9125
652.75379	8695.4125
656.72306	8469.9125
660.68952	8305.3125
664.65319	8137.7125
668.61405	7994.4125
672.57211	7912.8125
676.52738	7907.8125
680.47986	7948.5125
684.42955	7941.5125
688.37646	7887.2125
692.32058	7836.5125
696.26192	7796.8125
700.20048	7792.8125
704.13626	7766.5125
708.06928	7742.2125
711.99952	7707.3125
715.927	7713.8125
719.85171	7799.1125
723.77365	7868.9125
727.69284	7894.1125
731.60928	7857.6125
735.52295	7753.5125
739.43388	7675.6125
743.34206	7683.7125
747.24749	7681.0125
751.15017	7710.2125
755.05012	7744.4125
758.94733	7832.2125
762.8418	8018.6125
766.73354	8313.4125
770.62254	8656.7125
774.50882	8793.7125
778.39237	8592.8125
782.27321	8234.6125
786.15132	7891.6125
790.02671	7722.2125
793.89938	7636.0125
797.76935	7608.6125
801.6366	7704.3125
805.50115	7841.5125
809.36299	8070.2125
813.22213	8203.0125
817.07857	8152.3125
820.93231	7974.9125
824.78336	7772.1125
828.63172	7574.5125
832.47738	7477.0125
836.32036	7420.6125
840.16066	7420.9125
843.99827	7419.6125
847.8332	7390.4125
851.66546	7410.5125
855.49504	7405.0125
859.32195	7403.4125
863.1462	7406.2125
866.96777	7479.4125
870.78668	7564.5125
874.60293	7668.5125
878.41652	7814.6125
882.22745	7971.9125
886.03573	8083.0125
889.84136	8111.4125
893.64433	8047.2125
897.44466	7860.7125
901.24235	7658.1125
905.0374	7477.5125
908.8298	7350.4125
912.61957	7289.7125
916.40671	7281.6125
920.19121	7269.6125
923.97308	7283.1125
927.75233	7275.7125
931.52895	7260.2125
935.30295	7207.5125
939.07433	7151.6125
942.84309	7094.1125
946.60924	7066.7125
950.37278	7041.6125
954.13371	7010.5125
957.89203	7015.2125
961.64774	6980.8125
965.40086	6986.6125
969.15137	6962.4125
972.89929	6938.4125
976.64461	6934.1125
980.38733	6934.4125
984.12747	6950.6125
987.86502	6949.6125
991.59999	6999.2125
995.33237	7042.6125
999.06217	7145.5125
1002.78939	7255.5125
1006.51404	7332.7125
1010.23611	7438.0125
1013.95561	7469.4125
1017.67255	7509.2125
1021.38692	7478.8125
1025.09872	7429.0125
1028.80796	7351.9125
1032.51465	7300.1125
1036.21877	7271.5125
1039.92035	7254.4125
1043.61937	7204.2125
1047.31584	7181.6125
1051.00976	7167.4125
1054.70114	7178.3125
1058.38998	7195.4125
1062.07627	7262.8125
1065.76003	7318.3125
1069.44126	7388.8125
1073.11995	7478.9125
1076.79611	7539.0125
1080.46974	7544.8125
1084.14085	7536.6125
1087.80943	7501.9125
1091.47549	7484.8125
1095.13903	7435.7125
1098.80005	7361.8125
1102.45857	7307.7125
1106.11456	7268.7125
1109.76805	7327.3125
1113.41903	7427.5125
1117.06751	7633.6125
1120.71348	7982.6125
1124.35696	8459.9125
1127.99793	8962.7125
1131.63641	9381.1125
1135.2724	9551.0125
1138.90589	9476.4125
1142.5369	9204.4125
1146.16542	8837.3125
1149.79145	8405.2125
1153.415	8035.2125
1157.03607	7765.3125
1160.65467	7629.3125
1164.27079	7590.9125
1167.88443	7656.5125
1171.49561	7826.9125
1175.10432	8074.2125
1178.71056	8465.3125
1182.31434	8802.4125
1185.91565	8951.1125
1189.51451	8978.7125
1193.11091	8930.9125
1196.70485	8888.6125
1200.29634	8877.3125
1203.88538	8866.2125
1207.47197	8777.3125
1211.05612	8643.3125
1214.63782	8467.4125
1218.21708	8290.0125
1221.79391	8100.8125
1225.36829	7959.1125
1228.94024	7849.0125
1232.50976	7774.7125
1236.07685	7710.4125
1239.6415	7661.4125
1243.20374	7689.7125
1246.76355	7717.0125
1250.32093	7794.8125
1253.8759	7866.7125
1257.42845	7979.9125
1260.97859	8096.8125
1264.52631	8173.0125
1268.07163	8287.2125
1271.61453	8326.7125
1275.15503	8409.2125
1278.69312	8421.1125
1282.22882	8492.9125
1285.76211	8560.9125
1289.29301	8681.4125
1292.82151	8848.7125
1296.34761	9027.0125
1299.87133	9290.4125
1303.39266	9597.2125
1306.9116	9954.0125
1310.42815	10275.3125
1313.94233	10530.2125
1317.45412	10507.0125
1320.96354	10344.9125
1324.47058	10137.3125
1327.97525	9924.5125
1331.47754	9802.2125
1334.97747	9717.5125
1338.47502	9705.1125
1341.97022	9727.7125
1345.46305	9828.2125
1348.95352	10012.8125
1352.44163	10286.2125
1355.92738	10633.2125
1359.41078	11166.6125
1362.89183	11631.3125
1366.37053	11657.9125
1369.84688	10990.2125
1373.32088	10181.7125
1376.79254	9592.4125
1380.26186	9279.7125
1383.72883	9127.1125
1387.19347	8973.0125
1390.65578	8802.2125
1394.11575	8661.0125
1397.57339	8599.7125
1401.0287	8515.0125
1404.48168	8433.0125
1407.93234	8362.2125
1411.38068	8207.7125
1414.82669	8019.5125
1418.27039	7854.0125
1421.71177	7685.2125
1425.15083	7531.3125
1428.58758	7462.5125
1432.02203	7443.1125
1435.45416	7458.8125
1438.88399	7515.9125
1442.31151	7540.1125
1445.73673	7574.3125
1449.15965	7597.1125
1452.58027	7581.5125
1455.9986	7600.2125
1459.41463	7588.8125
1462.82837	7631.5125
1466.23982	7703.2125
1469.64898	7782.0125
1473.05586	7848.5125
1476.46045	7897.6125
1479.86276	7891.3125
1483.26279	7964.2125
1486.66054	8002.6125
1490.05602	8101.6125
1493.44922	8227.0125
1496.84016	8425.4125
1500.22882	8706.2125
1503.61521	9052.5125
1506.99934	9429.5125
1510.38121	9745.4125
1513.76081	9849.8125
1517.13816	9636.0125
1520.51324	9212.3125
1523.88607	8851.1125
1527.25665	8635.9125
1530.62498	8550.5125
1533.99105	8515.0125
1537.35488	8505.6125
1540.71647	8462.1125
1544.07581	8459.7125
1547.4329	8419.5125
1550.78776	8386.9125
1554.14038	8358.3125
1557.49077	8369.9125
1560.83892	8406.2125
1564.18484	8439.5125
1567.52853	8483.4125
1570.86999	8577.0125
1574.20922	8635.4125
1577.54624	8641.8125
1580.88103	8569.4125
1584.2136	8443.2125
1587.54395	8394.3125
1590.87208	8467.9125
1594.19801	8626.2125
1597.52172	8840.3125
1600.84321	8929.0125
1604.16251	8816.8125
1607.47959	8565.4125
1610.79447	8322.6125
1614.10715	8064.4125
1617.41763	7872.0125
1620.7259	7775.5125
1624.03199	7755.3125
1627.33587	7786.6125
1630.63757	7889.0125
1633.93707	8111.1125
1637.23439	8449.5125
1640.52951	8893.9125
1643.82246	9472.2125
1647.11321	10021.7125
1650.40179	10272.9125
1653.68819	10028.0125
1656.97241	9454.8125
1660.25446	8802.1125
1663.53433	8311.1125
1666.81203	7982.2125
1670.08756	7810.9125
1673.36092	7675.7125
1676.63211	7573.3125
1679.90115	7518.3125
1683.16801	7452.0125
1686.43272	7365.2125
1689.69527	7245.4125
1692.95567	7125.1125
1696.2139	7037.4125
1699.46999	6924.9125
1702.72392	6818.3125
1705.97571	6701.2125
1709.22535	6561.4125
1712.47284	6437.8125
1715.71819	6318.7125
1718.96139	6223.5125
1722.20246	6127.4125
1725.44139	6067.4125
1728.67818	5990.9125
1731.91284	5929.1125
1735.14537	5886.2125
1738.37576	5846.2125
1741.60403	5820.0125
1744.83017	5786.4125
1748.05418	5764.3125
1751.27607	5767.0125
1754.49584	5748.5125
1757.71349	5750.1125
1760.92903	5731.0125
1764.14244	5714.3125
1767.35375	5701.9125
1770.56294	5696.5125
1773.77002	5679.2125
1776.97499	5663.4125
1780.17785	5651.9125
1783.37861	5636.1125
1786.57727	5628.6125
1789.77382	5612.0125
1792.96828	5579.8125
1796.16064	5572.3125
1799.3509	5563.9125
1802.53907	5540.0125
1805.72514	5533.4125
1808.90913	5509.6125
1812.09102	5513.2125
1815.27083	5493.3125
1818.44856	5471.4125
1821.6242	5467.1125
1824.79776	5468.6125
1827.96924	5477.5125
1831.13864	5445.0125
1834.30597	5457.4125
1837.47122	5447.2125
1840.6344	5412.7125
1843.7955	5427.0125
1846.95454	5434.8125
1850.11151	5436.7125
1853.26642	5415.7125
1856.41926	5397.2125
1859.57004	5385.4125
1862.71876	5394.8125
1865.86542	5401.6125
1869.01003	5377.4125
1872.15258	5378.6125
1875.29308	5373.2125
1878.43152	5365.4125
1881.56792	5352.5125
1884.70227	5350.2125
1887.83457	5344.2125
1890.96482	5317.8125
1894.09304	5311.8125
1897.21921	5330.3125
1900.34335	5318.6125
1903.46544	5314.6125
1906.58551	5308.9125
1909.70353	5304.6125
1912.81953	5286.6125
1915.93349	5279.1125
1919.04543	5251.5125
1922.15534	5250.8125
1925.26322	5248.5125
1928.36908	5234.9125
1931.47292	5218.1125
1934.57473	5216.5125
1937.67453	5206.9125
1940.77232	5184.9125
1943.86808	5163.8125
1946.96184	5162.1125
1950.05358	5130.9125
1953.14331	5130.4125
1956.23103	5121.6125
1959.31675	5104.5125
1962.40046	5094.1125
1965.48217	5059.6125
1968.56188	5057.5125
1971.63959	5048.4125
1974.7153	5020.8125
1977.78901	4993.6125
1980.86073	4994.2125
1983.93046	4975.4125
1986.99819	4947.9125
1990.06394	4937.3125
1993.1277	4940.9125
1996.18947	4917.0125
1999.24925	4921.5125
2002.30706	4891.2125
2005.36288	4886.3125
2008.41672	4859.8125
2011.46859	4852.8125
2014.51848	4816.0125
2017.56639	4829.0125
2020.61233	4798.5125
2023.6563	4786.4125
2026.6983	4797.0125
2029.73833	4780.3125
2032.7764	4762.8125
2035.8125	4755.1125
2038.84664	4752.2125
2041.87881	4747.4125
2044.90903	4718.4125
2047.93729	4722.7125
2050.96359	4722.0125
2053.98794	4705.9125
2057.01034	4702.9125
2060.03078	4694.5125
2063.04927	4690.9125
2066.06582	4681.6125
2069.08042	4704.1125
2072.09307	4687.7125
2075.10378	4687.5125
2078.11255	4684.3125
2081.11938	4674.6125
2084.12426	4671.8125
2087.12722	4661.8125
2090.12824	4667.1125
2093.12732	4681.3125
2096.12447	4682.8125
2099.11969	4670.8125
2102.11299	4664.2125
2105.10435	4678.6125
2108.09379	4672.1125
2111.08131	4679.1125
2114.0669	4679.4125
2117.05057	4666.7125
2120.03233	4671.4125
2123.01216	4688.2125
2125.99008	4684.0125
2128.96609	4678.6125
2131.94018	4684.3125
2134.91236	4688.6125
2137.88263	4687.6125
2140.851	4689.4125
2143.81746	4703.0125
2146.78201	4695.7125
2149.74466	4687.8125
2152.7054	4678.7125
2155.66425	4690.9125
2158.6212	4700.6125
2161.57625	4692.0125
2164.52941	4684.2125
2167.48067	4699.5125
2170.43004	4680.8125
2173.37752	4671.2125
2176.32311	4689.9125
2179.26681	4672.3125
2182.20863	4684.8125
2185.14856	4671.6125
2188.08661	4681.6125
2191.02278	4664.3125
2193.95707	4647.8125
2196.88948	4651.1125
2199.82001	4658.7125
2202.74867	4641.8125
2205.67545	4657.2125
2208.60037	4641.1125
2211.52341	4625.1125
2214.44458	4605.1125
2217.36388	4614.1125
2220.28132	4591.6125
2223.1969	4575.0125
2226.11061	4575.0125
2229.02246	4564.0125
2231.93245	4559.4125
2234.84058	4547.0125
2237.74686	4530.4125
2240.65128	4535.7125
2243.55385	4536.1125
2246.45456	4526.2125
2249.35343	4511.5125
2252.25044	4498.3125
2255.14561	4498.2125
2258.03893	4508.9125
2260.93041	4498.3125
2263.82004	4494.8125
2266.70783	4476.7125
2269.59378	4454.5125
2272.4779	4458.5125
2275.36017	4449.3125
2278.24061	4438.2125
2281.11922	4419.7125
2283.996	4420.8125
2286.87094	4414.0125
2289.74405	4417.1125
2292.61534	4379.6125
2295.4848	4384.1125
2298.35243	4388.4125
2301.21824	4383.8125
2304.08223	4364.8125
2306.94439	4357.9125
2309.80474	4359.0125
2312.66327	4370.6125
2315.51999	4366.1125
2318.37489	4350.3125
2321.22797	4349.7125
2324.07925	4330.3125
2326.92871	4338.1125
2329.77637	4328.6125
2332.62222	4313.4125
2335.46626	4310.0125
2338.3085	4310.2125
2341.14893	4292.2125
2343.98756	4291.5125
2346.8244	4289.2125
2349.65943	4279.1125
2352.49267	4278.1125
2355.32411	4278.7125
2358.15376	4287.3125
2360.98161	4274.8125
2363.80768	4275.3125
2366.63195	4259.6125
2369.45444	4272.5125
2372.27514	4260.8125
2375.09405	4261.7125
2377.91118	4258.7125
2380.72652	4235.1125
2383.54009	4229.2125
2386.35187	4231.0125
2389.16188	4209.8125
2391.97011	4212.2125
2394.77657	4203.8125
2397.58125	4192.8125
2400.38416	4190.6125
2403.18529	4178.9125
2405.98466	4178.6125
2408.78226	4172.8125
2411.57809	4153.8125
2414.37216	4135.4125
2417.16446	4142.7125
2419.955	4137.0125
2422.74378	4127.9125
2425.5308	4112.1125
2428.31606	4120.6125
2431.09956	4094.8125
2433.88131	4109.5125
2436.6613	4111.8125
2439.43954	4101.5125
2442.21603	4099.0125
2444.99077	4088.3125
2447.76377	4094.3125
2450.53501	4072.8125
2453.30451	4086.6125
2456.07226	4077.5125
2458.83827	4073.3125
2461.60254	4072.4125
2464.36507	4057.1125
2467.12586	4055.6125
2469.88492	4047.9125
2472.64224	4057.4125
2475.39782	4058.9125
2478.15167	4038.2125
2480.90379	4059.0125
2483.65417	4028.7125
2486.40283	4037.1125
2489.14976	4054.8125
2491.89497	4034.9125
2494.63845	4037.0125
2497.3802	4044.4125
2500.12024	4030.7125
2502.85855	4024.1125
2505.59514	4014.1125
2508.33002	4002.7125
2511.06318	3994.7125
2513.79462	3994.3125
2516.52435	3999.2125
2519.25237	3980.0125
2521.97867	3967.3125
2524.70327	3973.7125
2527.42616	3962.9125
2530.14734	3947.7125
2532.86681	3943.3125
2535.58458	3944.8125
2538.30065	3938.0125
2541.01501	3938.9125
2543.72768	3937.4125
2546.43864	3927.9125
2549.14791	3917.2125
2551.85548	3908.5125
2554.56136	3891.6125
2557.26554	3899.4125
2559.96803	3881.9125
2562.66883	3885.0125
2565.36794	3873.6125
2568.06536	3882.4125
2570.7611	3872.2125
2573.45514	3867.8125
2576.14751	3858.9125
2578.83819	3855.2125
2581.52719	3846.8125
2584.21451	3839.5125
2586.90015	3836.7125
2589.58411	3804.4125
2592.2664	3810.4125
2594.94701	3806.8125
2597.62594	3797.2125
2600.30321	3791.6125
2602.9788	3787.7125
2605.65273	3788.1125
2608.32498	3784.3125
2610.99557	3766.1125
2613.66449	3767.6125
2616.33175	3745.3125
2618.99734	3751.9125
2621.66128	3760.1125
2624.32355	3758.2125
2626.98416	3750.8125
2629.64311	3734.2125
2632.30041	3740.9125
2634.95605	3727.7125
2637.61004	3710.6125
2640.26238	3720.9125
2642.91306	3724.1125
2645.56209	3703.9125
2648.20948	3713.8125
2650.85521	3689.1125
2653.4993	3711.6125
2656.14175	3699.4125
2658.78255	3720.3125
2661.42171	3696.7125
2664.05923	3704.6125
2666.6951	3679.7125
2669.32934	3717.8125
2671.96194	3677.5125
2674.59291	3691.2125
2677.22224	3698.3125
2679.84993	3695.5125
2682.476	3681.6125
2685.10043	3683.5125
2687.72324	3686.5125
2690.34441	3690.0125
2692.96396	3695.5125
2695.58188	3710.6125
2698.19818	3695.7125
2700.81285	3713.0125
2703.4259	3714.5125
2706.03733	3744.5125
2708.64714	3708.5125
2711.25533	3716.5125
2713.86191	3716.8125
2716.46687	3713.6125
2719.07021	3700.2125
2721.67194	3701.7125
2724.27206	3688.6125
2726.87057	3706.9125
2729.46747	3687.6125
2732.06276	3685.9125
2734.65644	3686.5125
2737.24852	3682.9125
2739.83899	3689.3125
2742.42786	3680.9125
2745.01513	3663.9125
2747.60079	3666.5125
2750.18486	3664.6125
2752.76733	3653.3125
2755.3482	3654.7125
2757.92747	3654.0125
2760.50515	3648.9125
2763.08123	3643.8125
2765.65573	3647.2125
2768.22863	3642.0125
2770.79994	3624.5125
2773.36967	3620.4125
2775.9378	3614.6125
2778.50435	3607.6125
2781.06932	3605.8125
2783.6327	3604.0125
2786.1945	3608.6125
2788.75471	3604.9125
2791.31335	3588.9125
2793.87041	3564.3125
2796.42589	3573.8125
2798.97979	3564.8125
2801.53212	3546.6125
2804.08288	3552.6125
2806.63206	3544.8125
2809.17967	3532.4125
2811.72571	3526.4125
2814.27018	3514.4125
2816.81308	3517.1125
2819.35442	3511.9125
2821.89419	3504.3125
2824.43239	3496.6125
2826.96904	3497.4125
2829.50412	3499.9125
2832.03763	3503.9125
2834.56959	3496.9125
2837.1	3487.7125
2839.62884	3492.3125
2842.15613	3463.8125
2844.68186	3494.7125
2847.20604	3497.5125
2849.72867	3493.8125
2852.24974	3494.6125
2854.76927	3493.0125
2857.28724	3499.0125
2859.80367	3490.8125
2862.31855	3480.6125
2864.83189	3465.8125
2867.34368	3483.7125
2869.85393	3475.0125
2872.36264	3466.3125
2874.8698	3467.7125
2877.37543	3479.8125
2879.87952	3465.1125
2882.38207	3477.1125
2884.88308	3487.4125
2887.38256	3476.5125
2889.88051	3476.0125
2892.37692	3474.1125
2894.8718	3473.0125
2897.36515	3468.4125
2899.85698	3483.7125
2902.34727	3496.4125
2904.83604	3492.9125
2907.32328	3499.2125
2909.809	3493.2125
2912.29319	3480.9125
2914.77587	3484.4125
2917.25702	3479.6125
2919.73665	3489.8125
2922.21476	3495.4125
2924.69136	3489.0125
2927.16644	3490.8125
2929.64	3485.5125
2932.11205	3479.5125
2934.58258	3479.4125
2937.05161	3482.0125
2939.51912	3467.6125
2941.98513	3467.9125
2944.44962	3452.7125
2946.91261	3452.3125
2949.37409	3468.5125
2951.83407	3459.3125
2954.29254	3452.1125
2956.74951	3453.2125
2959.20498	3449.0125
2961.65895	3447.6125
2964.11142	3447.7125
2966.56239	3431.4125
2969.01186	3429.7125
2971.45984	3429.2125
2973.90632	3416.0125
2976.35131	3412.2125
2978.7948	3411.7125
2981.23681	3412.6125
2983.67732	3399.0125
2986.11635	3387.3125
2988.55388	3398.2125
2990.98993	3382.8125
2993.4245	3376.3125
2995.85758	3377.8125
2998.28917	3362.6125
3000.71928	3376.1125
3003.14791	3364.9125
3005.57506	3372.2125
3008.00073	3369.0125
3010.42493	3365.6125
3012.84764	3341.6125
3015.26888	3353.2125
3017.68865	3359.8125
3020.10694	3356.2125
3022.52376	3345.9125
3024.9391	3347.5125
3027.35298	3340.0125
3029.76539	3335.7125
3032.17632	3336.0125
3034.5858	3325.5125
3036.9938	3335.3125
3039.40034	3323.4125
3041.80542	3334.8125
3044.20903	3315.2125
3046.61118	3321.7125
3049.01187	3321.8125
3051.4111	3324.5125
3053.80888	3323.7125
3056.20519	3331.0125
3058.60005	3307.7125
3060.99345	3308.2125
3063.3854	3305.1125
3065.7759	3289.4125
3068.16494	3313.0125
3070.55254	3297.1125
3072.93868	3303.3125
3075.32338	3300.8125
3077.70662	3308.8125
3080.08842	3300.8125
3082.46878	3296.3125
3084.84769	3311.8125
3087.22515	3299.0125
3089.60118	3293.9125
3091.97576	3305.6125
3094.3489	3315.5125
3096.72061	3319.8125
3099.09087	3316.9125
3101.4597	3323.3125
3103.82709	3336.8125
3106.19305	3320.2125
3108.55757	3322.7125
3110.92066	3317.6125
3113.28232	3319.2125
3115.64255	3310.5125
3118.00134	3310.2125
3120.35871	3315.5125
3122.71466	3314.8125
3125.06917	3312.1125
3127.42226	3319.1125
3129.77393	3331.1125
3132.12417	3316.6125
3134.47299	3334.9125
3136.82039	3340.8125
3139.16636	3347.5125
3141.51092	3350.9125
3143.85406	3365.9125
3146.19579	3375.2125
3148.53609	3362.5125
3150.87499	3381.3125
3153.21246	3385.9125
3155.54853	3399.7125
3157.88318	3403.3125
3160.21642	3406.2125
3162.54826	3394.3125
3164.87868	3411.2125
3167.2077	3417.8125
3169.5353	3425.9125
3171.86151	3406.4125
3174.18631	3417.8125
3176.5097	3422.8125
3178.83169	3409.6125
3181.15228	3416.9125
3183.47147	3423.0125
3185.78926	3430.1125
3188.10565	3421.7125
3190.42065	3447.8125
3192.73424	3423.6125
3195.04645	3437.3125
3197.35725	3446.5125
3199.66667	3439.8125
3201.97469	3458.2125
3204.28132	3466.8125
3206.58656	3465.2125
3208.8904	3469.7125
3211.19287	3483.1125
3213.49394	3484.2125
3215.79363	3475.8125
3218.09193	3475.2125
3220.38884	3485.1125
3222.68438	3493.2125
3224.97853	3482.2125
3227.2713	3479.2125
3229.56269	3476.3125
3231.8527	3472.5125
3234.14133	3456.4125
3236.42858	3466.9125
3238.71446	3454.3125
3240.99896	3453.0125
3243.28209	3470.8125
3245.56384	3457.9125
3247.84423	3466.6125
3250.12324	3440.1125
3252.40088	3470.0125
3254.67715	3456.4125
3256.95205	3451.9125
3259.22558	3447.1125
3261.49775	3449.5125
3263.76855	3426.1125
3266.03799	3417.9125
3268.30606	3436.9125
3270.57277	3417.5125
3272.83812	3409.4125
3275.10211	3409.2125
3277.36474	3394.1125
3279.62601	3417.0125
3281.88593	3405.3125
3284.14448	3399.8125
3286.40168	3401.1125
3288.65753	3390.8125
3290.91202	3393.2125
3293.16516	3389.5125
3295.41695	3362.2125
3297.66738	3352.3125
3299.91647	3341.0125
3302.16421	3322.1125
3304.4106	3321.3125
3306.65564	3314.0125
3308.89933	3295.4125
3311.14169	3269.7125
3313.38269	3255.0125
3315.62236	3232.1125
3317.86068	3193.1125
3320.09766	3167.6125
3322.3333	3145.4125
3324.5676	3156.6125
3326.80056	3105.3125
3329.03219	3085.3125
3331.26248	1.3125
3333.49143	0.3125
3335.71905	-0.9875
