Data from AgNPs_FTO_APTES_UA_0.1mM_CRN_20uM_NaF_0.1M_Addition_RamanShift__29__12-30-47-615.txt Node

Date: Mon Dec 20 12:30:47 GMT 2021
User: TCL
Spectrometer: QEP01345
Trigger mode: 4
Integration Time (sec): 7.000000E0
Scans to average: 10
Electric dark correction enabled: true
Nonlinearity correction enabled: false
Boxcar width: 0
XAxis mode: Raman Shifts
Number of Pixels in Spectrum: 1044
>>>>>Begin Spectral Data<<<<<
46.04893	0.3125
50.45542	1.0125
54.85868	-2.4875
59.25871	0.4125
63.6555	31.5125
68.04907	30.2125
72.43941	33.4125
76.82654	36.9125
81.21044	35.7125
85.59113	40.9125
89.96862	37.5125
94.34289	40.6125
98.71396	43.3125
103.08183	44.3125
107.4465	44.1125
111.80798	46.8125
116.16626	48.1125
120.52136	49.6125
124.87327	52.1125
129.222	50.9125
133.56755	55.4125
137.90993	57.7125
142.24913	59.1125
146.58517	65.1125
150.91804	77.1125
155.24774	85.2125
159.57429	101.1125
163.89768	130.6125
168.21792	170.2125
172.53501	217.2125
176.84895	303.5125
181.15975	415.7125
185.46741	574.7125
189.77193	787.9125
194.07331	1056.6125
198.37157	1360.3125
202.6667	1683.6125
206.9587	2016.4125
211.24758	2331.0125
215.53334	2645.6125
219.81599	2977.2125
224.09553	3317.7125
228.37195	3700.9125
232.64527	4102.3125
236.91549	4536.4125
241.18261	4931.6125
245.44663	5301.2125
249.70755	5615.8125
253.96539	5869.1125
258.22014	6080.3125
262.4718	6259.3125
266.72039	6336.3125
270.96589	6364.1125
275.20832	6351.7125
279.44768	6274.8125
283.68397	6170.1125
287.91719	6105.0125
292.14735	6058.1125
296.37445	6104.7125
300.59849	6191.3125
304.81948	6323.5125
309.03742	6405.9125
313.25231	6360.3125
317.46415	6161.1125
321.67296	5873.0125
325.87872	5605.8125
330.08145	5462.6125
334.28114	5443.5125
338.47781	5488.8125
342.67145	5552.9125
346.86207	5711.1125
351.04966	5912.6125
355.23424	6197.3125
359.4158	6398.7125
363.59435	6524.1125
367.76989	6580.1125
371.94243	6642.3125
376.11196	6657.0125
380.27849	6696.7125
384.44203	6725.3125
388.60257	6698.6125
392.76012	6707.3125
396.91468	6785.4125
401.06626	6878.4125
405.21485	6956.4125
409.36047	6885.5125
413.50311	6663.0125
417.64277	6441.2125
421.77947	6313.1125
425.9132	6260.3125
430.04396	6235.1125
434.17176	6285.9125
438.2966	6318.3125
442.41849	6422.5125
446.53742	6538.4125
450.6534	6679.3125
454.76644	6738.6125
458.87653	6773.6125
462.98368	6714.7125
467.08789	6674.3125
471.18916	6648.5125
475.2875	6592.2125
479.38291	6591.0125
483.4754	6644.6125
487.56496	6774.1125
491.6516	6891.1125
495.73531	6949.7125
499.81612	6899.3125
503.89401	6805.6125
507.96899	6743.0125
512.04106	6748.2125
516.11023	6848.1125
520.1765	6956.1125
524.23987	7059.2125
528.30034	7077.1125
532.35792	7005.6125
536.41261	6865.4125
540.46441	6658.5125
544.51333	6494.6125
548.55936	6440.7125
552.60252	6436.5125
556.64279	6486.0125
560.6802	6523.9125
564.71473	6602.6125
568.7464	6747.6125
572.7752	6875.1125
576.80114	6773.6125
580.82422	6710.1125
584.84444	6731.0125
588.86181	6831.2125
592.87633	6911.8125
596.888	6960.2125
600.89682	7018.3125
604.9028	7391.9125
608.90594	8537.7125
612.90624	10155.3125
616.90371	10323.6125
620.89834	8834.8125
624.89015	8412.0125
628.87913	8850.8125
632.86528	9390.4125
636.84862	9613.5125
640.82913	9336.5125
644.80683	8607.8125
648.78172	7922.4125
652.75379	7458.5125
656.72306	7244.9125
660.68952	7214.2125
664.65319	7060.0125
668.61405	6852.4125
672.57211	6715.7125
676.52738	6696.5125
680.47986	6693.5125
684.42955	6676.5125
688.37646	6673.1125
692.32058	6681.1125
696.26192	6652.0125
700.20048	6678.1125
704.13626	6638.7125
708.06928	6596.3125
711.99952	6534.3125
715.927	6521.2125
719.85171	6578.8125
723.77365	6657.6125
727.69284	6635.0125
731.60928	6540.9125
735.52295	6444.6125
739.43388	6394.5125
743.34206	6400.8125
747.24749	6435.4125
751.15017	6478.8125
755.05012	6528.6125
758.94733	6683.2125
762.8418	7035.5125
766.73354	7653.4125
770.62254	8296.3125
774.50882	8673.1125
778.39237	8456.3125
782.27321	7771.9125
786.15132	7088.4125
790.02671	6727.5125
793.89938	6648.8125
797.76935	6682.2125
801.6366	6853.8125
805.50115	7243.0125
809.36299	7658.9125
813.22213	7782.8125
817.07857	7592.4125
820.93231	7192.4125
824.78336	6781.7125
828.63172	6511.3125
832.47738	6380.1125
836.32036	6293.6125
840.16066	6253.2125
843.99827	6198.2125
847.8332	6189.5125
851.66546	6165.8125
855.49504	6153.9125
859.32195	6191.3125
863.1462	6222.1125
866.96777	6331.5125
870.78668	6485.2125
874.60293	6748.6125
878.41652	7016.5125
882.22745	7271.9125
886.03573	7409.8125
889.84136	7361.5125
893.64433	7127.4125
897.44466	6757.6125
901.24235	6444.1125
905.0374	6230.7125
908.8298	6083.9125
912.61957	5987.2125
916.40671	5939.0125
920.19121	5940.0125
923.97308	5914.9125
927.75233	5934.1125
931.52895	5972.7125
935.30295	5931.0125
939.07433	5835.5125
942.84309	5782.4125
946.60924	5730.5125
950.37278	5714.7125
954.13371	5727.2125
957.89203	5701.5125
961.64774	5667.0125
965.40086	5641.3125
969.15137	5623.1125
972.89929	5615.8125
976.64461	5603.9125
980.38733	5593.9125
984.12747	5586.8125
987.86502	5646.5125
991.59999	5678.8125
995.33237	5780.2125
999.06217	5940.8125
1002.78939	6134.9125
1006.51404	6325.5125
1010.23611	6494.7125
1013.95561	6618.5125
1017.67255	6648.4125
1021.38692	6560.5125
1025.09872	6405.2125
1028.80796	6195.2125
1032.51465	6081.1125
1036.21877	5977.8125
1039.92035	5921.1125
1043.61937	5912.6125
1047.31584	5875.8125
1051.00976	5862.8125
1054.70114	5912.8125
1058.38998	5966.5125
1062.07627	6051.7125
1065.76003	6158.2125
1069.44126	6224.4125
1073.11995	6245.9125
1076.79611	6224.1125
1080.46974	6199.0125
1084.14085	6224.9125
1087.80943	6197.9125
1091.47549	6176.1125
1095.13903	6081.6125
1098.80005	5971.4125
1102.45857	5887.2125
1106.11456	5871.1125
1109.76805	5957.4125
1113.41903	6114.2125
1117.06751	6358.6125
1120.71348	6704.5125
1124.35696	7232.0125
1127.99793	7851.3125
1131.63641	8321.2125
1135.2724	8538.6125
1138.90589	8483.9125
1142.5369	8189.2125
1146.16542	7728.7125
1149.79145	7196.6125
1153.415	6761.0125
1157.03607	6443.5125
1160.65467	6275.4125
1164.27079	6253.3125
1167.88443	6349.6125
1171.49561	6620.4125
1175.10432	7056.6125
1178.71056	7691.1125
1182.31434	8267.8125
1185.91565	8545.9125
1189.51451	8646.6125
1193.11091	8709.7125
1196.70485	8740.9125
1200.29634	8857.4125
1203.88538	8801.9125
1207.47197	8501.3125
1211.05612	8063.5125
1214.63782	7593.5125
1218.21708	7178.6125
1221.79391	6882.4125
1225.36829	6649.7125
1228.94024	6483.7125
1232.50976	6390.0125
1236.07685	6324.7125
1239.6415	6308.7125
1243.20374	6347.4125
1246.76355	6391.0125
1250.32093	6443.2125
1253.8759	6499.8125
1257.42845	6587.1125
1260.97859	6683.1125
1264.52631	6748.7125
1268.07163	6841.9125
1271.61453	6901.5125
1275.15503	6934.4125
1278.69312	6939.0125
1282.22882	6944.9125
1285.76211	7032.4125
1289.29301	7179.9125
1292.82151	7351.7125
1296.34761	7595.1125
1299.87133	7910.9125
1303.39266	8407.7125
1306.9116	9089.6125
1310.42815	9845.1125
1313.94233	10278.7125
1317.45412	10183.3125
1320.96354	9803.5125
1324.47058	9362.1125
1327.97525	9002.7125
1331.47754	8790.1125
1334.97747	8767.0125
1338.47502	8877.9125
1341.97022	9108.6125
1345.46305	9395.8125
1348.95352	9772.7125
1352.44163	10245.7125
1355.92738	10906.5125
1359.41078	11906.3125
1362.89183	12740.2125
1366.37053	12423.7125
1369.84688	11109.8125
1373.32088	9793.1125
1376.79254	8925.2125
1380.26186	8464.3125
1383.72883	8177.4125
1387.19347	8016.0125
1390.65578	7838.1125
1394.11575	7692.4125
1397.57339	7593.3125
1401.0287	7556.6125
1404.48168	7495.0125
1407.93234	7427.6125
1411.38068	7325.0125
1414.82669	7151.0125
1418.27039	6947.2125
1421.71177	6725.8125
1425.15083	6530.3125
1428.58758	6429.3125
1432.02203	6401.7125
1435.45416	6416.0125
1438.88399	6419.6125
1442.31151	6426.0125
1445.73673	6427.9125
1449.15965	6467.1125
1452.58027	6467.0125
1455.9986	6434.7125
1459.41463	6443.9125
1462.82837	6476.6125
1466.23982	6544.1125
1469.64898	6660.8125
1473.05586	6715.5125
1476.46045	6760.3125
1479.86276	6828.5125
1483.26279	6900.3125
1486.66054	7051.3125
1490.05602	7227.4125
1493.44922	7479.7125
1496.84016	7813.2125
1500.22882	8331.7125
1503.61521	9026.7125
1506.99934	9784.9125
1510.38121	10424.1125
1513.76081	10587.4125
1517.13816	10110.3125
1520.51324	9211.9125
1523.88607	8345.2125
1527.25665	7782.7125
1530.62498	7554.0125
1533.99105	7432.8125
1537.35488	7411.2125
1540.71647	7454.5125
1544.07581	7499.3125
1547.4329	7570.4125
1550.78776	7588.1125
1554.14038	7591.3125
1557.49077	7621.9125
1560.83892	7658.7125
1564.18484	7732.3125
1567.52853	7841.5125
1570.86999	7946.7125
1574.20922	8034.1125
1577.54624	8022.0125
1580.88103	7880.5125
1584.2136	7604.6125
1587.54395	7489.6125
1590.87208	7552.3125
1594.19801	7779.3125
1597.52172	8118.7125
1600.84321	8316.6125
1604.16251	8272.1125
1607.47959	8009.2125
1610.79447	7712.5125
1614.10715	7384.9125
1617.41763	7143.7125
1620.7259	6990.9125
1624.03199	6914.7125
1627.33587	6921.2125
1630.63757	7009.1125
1633.93707	7198.9125
1637.23439	7506.0125
1640.52951	7972.0125
1643.82246	8605.0125
1647.11321	9338.8125
1650.40179	9846.8125
1653.68819	9718.8125
1656.97241	8979.2125
1660.25446	8068.2125
1663.53433	7378.5125
1666.81203	6902.0125
1670.08756	6572.9125
1673.36092	6311.1125
1676.63211	6120.6125
1679.90115	6015.1125
1683.16801	5871.0125
1686.43272	5769.6125
1689.69527	5666.4125
1692.95567	5582.7125
1696.2139	5494.6125
1699.46999	5436.8125
1702.72392	5343.8125
1705.97571	5257.6125
1709.22535	5166.8125
1712.47284	5117.4125
1715.71819	5055.2125
1718.96139	5012.7125
1722.20246	4951.1125
1725.44139	4922.7125
1728.67818	4863.7125
1731.91284	4782.7125
1735.14537	4750.0125
1738.37576	4732.3125
1741.60403	4690.0125
1744.83017	4672.3125
1748.05418	4653.4125
1751.27607	4628.3125
1754.49584	4630.6125
1757.71349	4603.5125
1760.92903	4617.5125
1764.14244	4595.2125
1767.35375	4570.8125
1770.56294	4554.6125
1773.77002	4539.6125
1776.97499	4517.7125
1780.17785	4477.7125
1783.37861	4455.6125
1786.57727	4444.7125
1789.77382	4422.2125
1792.96828	4381.6125
1796.16064	4391.3125
1799.3509	4379.9125
1802.53907	4350.0125
1805.72514	4335.1125
1808.90913	4329.9125
1812.09102	4308.0125
1815.27083	4314.2125
1818.44856	4298.7125
1821.6242	4279.0125
1824.79776	4275.4125
1827.96924	4283.1125
1831.13864	4260.3125
1834.30597	4262.4125
1837.47122	4254.4125
1840.6344	4247.7125
1843.7955	4247.9125
1846.95454	4233.4125
1850.11151	4240.8125
1853.26642	4227.0125
1856.41926	4232.6125
1859.57004	4226.5125
1862.71876	4226.9125
1865.86542	4206.8125
1869.01003	4210.7125
1872.15258	4205.7125
1875.29308	4178.0125
1878.43152	4170.4125
1881.56792	4182.0125
1884.70227	4160.0125
1887.83457	4162.7125
1890.96482	4154.7125
1894.09304	4162.1125
1897.21921	4156.1125
1900.34335	4161.5125
1903.46544	4159.4125
1906.58551	4144.5125
1909.70353	4132.8125
1912.81953	4133.2125
1915.93349	4131.6125
1919.04543	4110.5125
1922.15534	4100.9125
1925.26322	4107.7125
1928.36908	4090.2125
1931.47292	4072.2125
1934.57473	4069.3125
1937.67453	4046.5125
1940.77232	4041.6125
1943.86808	4017.9125
1946.96184	3995.4125
1950.05358	3995.8125
1953.14331	4012.6125
1956.23103	3989.1125
1959.31675	3987.3125
1962.40046	3966.6125
1965.48217	3949.6125
1968.56188	3943.1125
1971.63959	3933.0125
1974.7153	3898.7125
1977.78901	3902.3125
1980.86073	3886.1125
1983.93046	3882.6125
1986.99819	3863.1125
1990.06394	3856.6125
1993.1277	3846.3125
1996.18947	3814.2125
1999.24925	3812.3125
2002.30706	3801.2125
2005.36288	3796.4125
2008.41672	3795.6125
2011.46859	3778.7125
2014.51848	3760.2125
2017.56639	3745.2125
2020.61233	3731.1125
2023.6563	3735.7125
2026.6983	3721.4125
2029.73833	3694.8125
2032.7764	3704.3125
2035.8125	3703.5125
2038.84664	3685.8125
2041.87881	3683.1125
2044.90903	3677.6125
2047.93729	3658.7125
2050.96359	3664.5125
2053.98794	3669.5125
2057.01034	3655.2125
2060.03078	3650.7125
2063.04927	3644.4125
2066.06582	3644.5125
2069.08042	3630.8125
2072.09307	3631.6125
2075.10378	3628.2125
2078.11255	3630.1125
2081.11938	3638.9125
2084.12426	3626.9125
2087.12722	3616.2125
2090.12824	3628.1125
2093.12732	3613.8125
2096.12447	3624.7125
2099.11969	3607.1125
2102.11299	3608.0125
2105.10435	3616.3125
2108.09379	3622.8125
2111.08131	3614.2125
2114.0669	3614.9125
2117.05057	3612.5125
2120.03233	3620.0125
2123.01216	3632.8125
2125.99008	3624.6125
2128.96609	3626.9125
2131.94018	3624.8125
2134.91236	3632.6125
2137.88263	3625.3125
2140.851	3631.4125
2143.81746	3635.0125
2146.78201	3638.4125
2149.74466	3637.1125
2152.7054	3633.4125
2155.66425	3629.8125
2158.6212	3634.0125
2161.57625	3624.0125
2164.52941	3618.6125
2167.48067	3625.1125
2170.43004	3615.0125
2173.37752	3617.9125
2176.32311	3619.8125
2179.26681	3617.8125
2182.20863	3596.3125
2185.14856	3620.9125
2188.08661	3596.9125
2191.02278	3597.8125
2193.95707	3598.8125
2196.88948	3585.3125
2199.82001	3578.1125
2202.74867	3585.2125
2205.67545	3587.1125
2208.60037	3571.3125
2211.52341	3554.8125
2214.44458	3561.5125
2217.36388	3556.3125
2220.28132	3549.8125
2223.1969	3524.5125
2226.11061	3524.4125
2229.02246	3524.4125
2231.93245	3513.0125
2234.84058	3495.7125
2237.74686	3499.8125
2240.65128	3500.7125
2243.55385	3491.3125
2246.45456	3478.6125
2249.35343	3469.2125
2252.25044	3477.6125
2255.14561	3469.4125
2258.03893	3467.4125
2260.93041	3468.3125
2263.82004	3456.1125
2266.70783	3463.3125
2269.59378	3446.8125
2272.4779	3434.0125
2275.36017	3432.7125
2278.24061	3436.4125
2281.11922	3411.9125
2283.996	3405.2125
2286.87094	3394.2125
2289.74405	3404.6125
2292.61534	3381.3125
2295.4848	3366.2125
2298.35243	3380.7125
2301.21824	3364.0125
2304.08223	3377.1125
2306.94439	3362.4125
2309.80474	3365.9125
2312.66327	3355.3125
2315.51999	3348.6125
2318.37489	3356.8125
2321.22797	3347.4125
2324.07925	3340.5125
2326.92871	3335.3125
2329.77637	3324.1125
2332.62222	3315.6125
2335.46626	3318.5125
2338.3085	3310.8125
2341.14893	3324.1125
2343.98756	3307.5125
2346.8244	3292.2125
2349.65943	3293.6125
2352.49267	3300.5125
2355.32411	3314.2125
2358.15376	3292.7125
2360.98161	3287.0125
2363.80768	3296.1125
2366.63195	3291.6125
2369.45444	3293.1125
2372.27514	3293.2125
2375.09405	3284.0125
2377.91118	3277.3125
2380.72652	3277.6125
2383.54009	3269.5125
2386.35187	3261.2125
2389.16188	3256.8125
2391.97011	3234.6125
2394.77657	3241.1125
2397.58125	3217.3125
2400.38416	3226.1125
2403.18529	3218.4125
2405.98466	3225.3125
2408.78226	3196.8125
2411.57809	3187.0125
2414.37216	3181.3125
2417.16446	3202.8125
2419.955	3171.3125
2422.74378	3169.0125
2425.5308	3163.9125
2428.31606	3173.3125
2431.09956	3155.5125
2433.88131	3149.2125
2436.6613	3154.7125
2439.43954	3140.5125
2442.21603	3132.1125
2444.99077	3130.2125
2447.76377	3139.3125
2450.53501	3143.6125
2453.30451	3135.0125
2456.07226	3123.9125
2458.83827	3116.3125
2461.60254	3132.7125
2464.36507	3109.5125
2467.12586	3105.0125
2469.88492	3113.9125
2472.64224	3111.3125
2475.39782	3115.3125
2478.15167	3112.4125
2480.90379	3115.0125
2483.65417	3110.5125
2486.40283	3103.6125
2489.14976	3110.8125
2491.89497	3099.8125
2494.63845	3121.6125
2497.3802	3105.1125
2500.12024	3100.2125
2502.85855	3081.2125
2505.59514	3091.5125
2508.33002	3074.3125
2511.06318	3079.6125
2513.79462	3068.1125
2516.52435	3069.9125
2519.25237	3057.6125
2521.97867	3047.8125
2524.70327	3043.2125
2527.42616	3036.9125
2530.14734	3036.3125
2532.86681	3014.4125
2535.58458	3025.9125
2538.30065	3009.9125
2541.01501	3009.6125
2543.72768	3008.8125
2546.43864	2993.1125
2549.14791	2987.2125
2551.85548	2986.1125
2554.56136	2988.8125
2557.26554	2977.8125
2559.96803	2986.8125
2562.66883	2977.7125
2565.36794	2967.1125
2568.06536	2963.0125
2570.7611	2951.4125
2573.45514	2944.4125
2576.14751	2943.2125
2578.83819	2926.3125
2581.52719	2925.1125
2584.21451	2928.8125
2586.90015	2924.1125
2589.58411	2919.4125
2592.2664	2920.4125
2594.94701	2911.5125
2597.62594	2911.8125
2600.30321	2877.6125
2602.9788	2889.0125
2605.65273	2880.7125
2608.32498	2890.5125
2610.99557	2895.4125
2613.66449	2888.3125
2616.33175	2859.8125
2618.99734	2866.9125
2621.66128	2872.8125
2624.32355	2862.4125
2626.98416	2877.7125
2629.64311	2846.8125
2632.30041	2848.6125
2634.95605	2849.1125
2637.61004	2845.4125
2640.26238	2846.1125
2642.91306	2844.5125
2645.56209	2831.0125
2648.20948	2830.2125
2650.85521	2828.0125
2653.4993	2823.5125
2656.14175	2834.2125
2658.78255	2830.1125
2661.42171	2823.1125
2664.05923	2818.4125
2666.6951	2823.1125
2669.32934	2826.8125
2671.96194	2820.7125
2674.59291	2822.1125
2677.22224	2833.6125
2679.84993	2824.9125
2682.476	2841.1125
2685.10043	2820.7125
2687.72324	2822.9125
2690.34441	2818.8125
2692.96396	2823.7125
2695.58188	2839.5125
2698.19818	2835.3125
2700.81285	2836.2125
2703.4259	2836.9125
2706.03733	2873.5125
2708.64714	2853.8125
2711.25533	2851.3125
2713.86191	2846.2125
2716.46687	2845.6125
2719.07021	2835.6125
2721.67194	2847.9125
2724.27206	2843.8125
2726.87057	2842.0125
2729.46747	2837.2125
2732.06276	2846.2125
2734.65644	2849.6125
2737.24852	2821.3125
2739.83899	2831.3125
2742.42786	2823.9125
2745.01513	2815.9125
2747.60079	2828.0125
2750.18486	2805.3125
2752.76733	2808.8125
2755.3482	2783.4125
2757.92747	2808.1125
2760.50515	2790.6125
2763.08123	2794.3125
2765.65573	2781.4125
2768.22863	2787.9125
2770.79994	2794.0125
2773.36967	2780.0125
2775.9378	2772.7125
2778.50435	2774.1125
2781.06932	2764.0125
2783.6327	2766.9125
2786.1945	2771.5125
2788.75471	2766.2125
2791.31335	2761.5125
2793.87041	2751.8125
2796.42589	2739.0125
2798.97979	2748.0125
2801.53212	2747.6125
2804.08288	2733.0125
2806.63206	2731.5125
2809.17967	2725.9125
2811.72571	2730.5125
2814.27018	2724.7125
2816.81308	2708.5125
2819.35442	2711.7125
2821.89419	2700.3125
2824.43239	2712.6125
2826.96904	2701.2125
2829.50412	2702.0125
2832.03763	2712.7125
2834.56959	2716.0125
2837.1	2705.1125
2839.62884	2706.6125
2842.15613	2715.8125
2844.68186	2723.5125
2847.20604	2718.2125
2849.72867	2737.4125
2852.24974	2740.9125
2854.76927	2730.8125
2857.28724	2733.2125
2859.80367	2724.5125
2862.31855	2734.4125
2864.83189	2721.0125
2867.34368	2713.1125
2869.85393	2716.8125
2872.36264	2719.7125
2874.8698	2729.2125
2877.37543	2718.5125
2879.87952	2719.9125
2882.38207	2714.2125
2884.88308	2713.9125
2887.38256	2720.9125
2889.88051	2723.3125
2892.37692	2722.5125
2894.8718	2722.7125
2897.36515	2733.2125
2899.85698	2730.6125
2902.34727	2730.1125
2904.83604	2737.0125
2907.32328	2735.9125
2909.809	2753.9125
2912.29319	2731.5125
2914.77587	2732.2125
2917.25702	2729.6125
2919.73665	2731.7125
2922.21476	2734.5125
2924.69136	2719.8125
2927.16644	2727.0125
2929.64	2723.2125
2932.11205	2724.4125
2934.58258	2718.9125
2937.05161	2711.7125
2939.51912	2710.1125
2941.98513	2695.2125
2944.44962	2697.8125
2946.91261	2696.5125
2949.37409	2690.5125
2951.83407	2691.4125
2954.29254	2673.3125
2956.74951	2683.1125
2959.20498	2675.7125
2961.65895	2664.7125
2964.11142	2673.5125
2966.56239	2657.8125
2969.01186	2665.0125
2971.45984	2645.1125
2973.90632	2651.0125
2976.35131	2644.8125
2978.7948	2644.2125
2981.23681	2634.9125
2983.67732	2637.4125
2986.11635	2632.0125
2988.55388	2621.6125
2990.98993	2619.1125
2993.4245	2616.1125
2995.85758	2613.2125
2998.28917	2616.8125
3000.71928	2615.0125
3003.14791	2612.4125
3005.57506	2617.0125
3008.00073	2614.0125
3010.42493	2609.5125
3012.84764	2604.9125
3015.26888	2599.2125
3017.68865	2602.7125
3020.10694	2596.4125
3022.52376	2592.4125
3024.9391	2599.0125
3027.35298	2596.4125
3029.76539	2583.0125
3032.17632	2599.1125
3034.5858	2592.3125
3036.9938	2584.1125
3039.40034	2601.2125
3041.80542	2593.3125
3044.20903	2585.0125
3046.61118	2609.3125
3049.01187	2589.6125
3051.4111	2590.0125
3053.80888	2598.5125
3056.20519	2586.5125
3058.60005	2580.8125
3060.99345	2585.6125
3063.3854	2582.1125
3065.7759	2596.7125
3068.16494	2582.2125
3070.55254	2587.1125
3072.93868	2585.3125
3075.32338	2577.9125
3077.70662	2585.7125
3080.08842	2584.2125
3082.46878	2584.3125
3084.84769	2574.0125
3087.22515	2599.1125
3089.60118	2590.8125
3091.97576	2595.1125
3094.3489	2600.4125
3096.72061	2600.5125
3099.09087	2613.5125
3101.4597	2610.1125
3103.82709	2601.6125
3106.19305	2610.8125
3108.55757	2610.4125
3110.92066	2613.3125
3113.28232	2623.2125
3115.64255	2616.5125
3118.00134	2617.3125
3120.35871	2618.2125
3122.71466	2635.5125
3125.06917	2628.6125
3127.42226	2625.2125
3129.77393	2641.4125
3132.12417	2646.1125
3134.47299	2655.8125
3136.82039	2648.0125
3139.16636	2668.8125
3141.51092	2675.0125
3143.85406	2683.2125
3146.19579	2684.8125
3148.53609	2687.6125
3150.87499	2708.6125
3153.21246	2714.9125
3155.54853	2731.1125
3157.88318	2723.5125
3160.21642	2735.8125
3162.54826	2730.0125
3164.87868	2746.4125
3167.2077	2754.5125
3169.5353	2763.2125
3171.86151	2759.4125
3174.18631	2767.1125
3176.5097	2761.1125
3178.83169	2773.5125
3181.15228	2771.8125
3183.47147	2765.0125
3185.78926	2792.3125
3188.10565	2785.5125
3190.42065	2802.1125
3192.73424	2794.1125
3195.04645	2816.0125
3197.35725	2805.1125
3199.66667	2817.3125
3201.97469	2823.9125
3204.28132	2842.9125
3206.58656	2849.6125
3208.8904	2854.2125
3211.19287	2860.4125
3213.49394	2858.5125
3215.79363	2863.8125
3218.09193	2877.7125
3220.38884	2877.8125
3222.68438	2887.4125
3224.97853	2875.2125
3227.2713	2880.7125
3229.56269	2881.5125
3231.8527	2879.5125
3234.14133	2874.5125
3236.42858	2873.9125
3238.71446	2862.3125
3240.99896	2872.5125
3243.28209	2872.6125
3245.56384	2869.6125
3247.84423	2876.8125
3250.12324	2873.3125
3252.40088	2860.7125
3254.67715	2875.7125
3256.95205	2857.2125
3259.22558	2870.8125
3261.49775	2871.7125
3263.76855	2852.0125
3266.03799	2860.2125
3268.30606	2856.3125
3270.57277	2857.6125
3272.83812	2847.8125
3275.10211	2851.5125
3277.36474	2842.7125
3279.62601	2844.2125
3281.88593	2846.7125
3284.14448	2850.0125
3286.40168	2836.3125
3288.65753	2829.1125
3290.91202	2843.2125
3293.16516	2808.5125
3295.41695	2820.4125
3297.66738	2799.7125
3299.91647	2785.1125
3302.16421	2762.8125
3304.4106	2770.6125
3306.65564	2750.6125
3308.89933	2749.6125
3311.14169	2742.7125
3313.38269	2713.1125
3315.62236	2691.2125
3317.86068	2669.0125
3320.09766	2651.8125
3322.3333	2620.6125
3324.5676	2635.5125
3326.80056	2592.8125
3329.03219	2573.6125
3331.26248	1.0125
3333.49143	0.2125
3335.71905	-0.2875
