Data from AgNPs_FTO_APTES_UA_0.1mM_CRN_0uM_NaF_0.1M_Addition_RamanShift__47__10-57-27-508.txt Node

Date: Mon Dec 20 10:57:27 GMT 2021
User: TCL
Spectrometer: QEP01345
Trigger mode: 4
Integration Time (sec): 7.000000E0
Scans to average: 10
Electric dark correction enabled: true
Nonlinearity correction enabled: false
Boxcar width: 0
XAxis mode: Raman Shifts
Number of Pixels in Spectrum: 1044
>>>>>Begin Spectral Data<<<<<
46.04893	0.2125
50.45542	-1.0875
54.85868	-0.3875
59.25871	0.6125
63.6555	30.7125
68.04907	30.7125
72.43941	36.9125
76.82654	35.9125
81.21044	35.0125
85.59113	43.2125
89.96862	40.6125
94.34289	46.0125
98.71396	44.5125
103.08183	44.9125
107.4465	45.8125
111.80798	49.5125
116.16626	48.1125
120.52136	51.0125
124.87327	52.7125
129.222	50.7125
133.56755	55.1125
137.90993	57.2125
142.24913	62.4125
146.58517	66.9125
150.91804	75.7125
155.24774	88.3125
159.57429	104.1125
163.89768	133.9125
168.21792	177.0125
172.53501	221.6125
176.84895	308.1125
181.15975	422.1125
185.46741	588.2125
189.77193	812.3125
194.07331	1069.5125
198.37157	1386.8125
202.6667	1716.3125
206.9587	2056.1125
211.24758	2374.7125
215.53334	2701.9125
219.81599	3060.3125
224.09553	3410.0125
228.37195	3821.1125
232.64527	4282.1125
236.91549	4729.2125
241.18261	5191.6125
245.44663	5611.6125
249.70755	5988.1125
253.96539	6274.9125
258.22014	6507.0125
262.4718	6669.0125
266.72039	6738.7125
270.96589	6753.5125
275.20832	6684.3125
279.44768	6599.9125
283.68397	6463.3125
287.91719	6352.8125
292.14735	6251.6125
296.37445	6224.5125
300.59849	6206.5125
304.81948	6205.2125
309.03742	6191.2125
313.25231	6128.8125
317.46415	6027.0125
321.67296	5875.5125
325.87872	5781.8125
330.08145	5731.5125
334.28114	5697.1125
338.47781	5730.5125
342.67145	5767.1125
346.86207	5825.2125
351.04966	5917.6125
355.23424	6015.4125
359.4158	6122.8125
363.59435	6190.7125
367.76989	6283.0125
371.94243	6330.6125
376.11196	6374.8125
380.27849	6439.9125
384.44203	6521.2125
388.60257	6574.3125
392.76012	6624.5125
396.91468	6705.0125
401.06626	6791.6125
405.21485	6825.2125
409.36047	6828.8125
413.50311	6779.4125
417.64277	6701.1125
421.77947	6652.6125
425.9132	6650.5125
430.04396	6655.2125
434.17176	6693.4125
438.2966	6721.2125
442.41849	6779.6125
446.53742	6867.6125
450.6534	6978.6125
454.76644	7084.9125
458.87653	7126.8125
462.98368	7157.7125
467.08789	7109.7125
471.18916	7124.4125
475.2875	7115.1125
479.38291	7170.9125
483.4754	7205.1125
487.56496	7307.5125
491.6516	7406.3125
495.73531	7507.7125
499.81612	7543.6125
503.89401	7545.2125
507.96899	7472.3125
512.04106	7415.2125
516.11023	7352.7125
520.1765	7300.8125
524.23987	7312.8125
528.30034	7320.7125
532.35792	7320.3125
536.41261	7293.6125
540.46441	7216.4125
544.51333	7148.0125
548.55936	7093.5125
552.60252	7107.8125
556.64279	7100.2125
560.6802	7128.5125
564.71473	7141.3125
568.7464	7169.0125
572.7752	7223.6125
576.80114	7264.0125
580.82422	7312.0125
584.84444	7444.6125
588.86181	7613.2125
592.87633	7682.6125
596.888	7695.4125
600.89682	7654.3125
604.9028	7782.4125
608.90594	8273.6125
612.90624	8929.1125
616.90371	8810.9125
620.89834	8006.2125
624.89015	7800.0125
628.87913	8039.1125
632.86528	8463.0125
636.84862	8801.9125
640.82913	8804.7125
644.80683	8573.5125
648.78172	8237.8125
652.75379	7961.5125
656.72306	7777.9125
660.68952	7691.8125
664.65319	7606.1125
668.61405	7549.9125
672.57211	7573.3125
676.52738	7648.7125
680.47986	7684.9125
684.42955	7644.8125
688.37646	7601.1125
692.32058	7554.6125
696.26192	7440.4125
700.20048	7348.6125
704.13626	7303.5125
708.06928	7238.3125
711.99952	7178.6125
715.927	7122.8125
719.85171	7089.0125
723.77365	7107.6125
727.69284	7108.1125
731.60928	7058.6125
735.52295	7023.2125
739.43388	7019.5125
743.34206	7048.2125
747.24749	7078.2125
751.15017	7042.1125
755.05012	7057.8125
758.94733	7129.7125
762.8418	7337.9125
766.73354	7688.2125
770.62254	8105.7125
774.50882	8332.3125
778.39237	8196.7125
782.27321	7767.4125
786.15132	7368.8125
790.02671	7101.6125
793.89938	6989.7125
797.76935	6965.5125
801.6366	7009.5125
805.50115	7126.9125
809.36299	7235.9125
813.22213	7280.1125
817.07857	7187.5125
820.93231	7011.9125
824.78336	6842.4125
828.63172	6720.3125
832.47738	6642.0125
836.32036	6629.6125
840.16066	6594.7125
843.99827	6601.7125
847.8332	6573.0125
851.66546	6556.4125
855.49504	6562.7125
859.32195	6598.1125
863.1462	6616.8125
866.96777	6663.7125
870.78668	6714.3125
874.60293	6808.6125
878.41652	6880.0125
882.22745	6975.5125
886.03573	7040.2125
889.84136	7075.3125
893.64433	7002.8125
897.44466	6853.7125
901.24235	6713.1125
905.0374	6587.6125
908.8298	6502.4125
912.61957	6458.1125
916.40671	6423.2125
920.19121	6442.8125
923.97308	6455.3125
927.75233	6466.2125
931.52895	6443.3125
935.30295	6395.8125
939.07433	6326.6125
942.84309	6292.3125
946.60924	6289.0125
950.37278	6272.3125
954.13371	6264.7125
957.89203	6246.7125
961.64774	6239.3125
965.40086	6208.9125
969.15137	6162.5125
972.89929	6122.8125
976.64461	6086.1125
980.38733	6103.0125
984.12747	6076.7125
987.86502	6089.3125
991.59999	6137.5125
995.33237	6203.4125
999.06217	6278.7125
1002.78939	6362.7125
1006.51404	6470.2125
1010.23611	6570.5125
1013.95561	6676.9125
1017.67255	6692.1125
1021.38692	6663.2125
1025.09872	6577.7125
1028.80796	6488.3125
1032.51465	6448.9125
1036.21877	6425.5125
1039.92035	6427.0125
1043.61937	6413.5125
1047.31584	6377.4125
1051.00976	6394.5125
1054.70114	6392.0125
1058.38998	6392.2125
1062.07627	6449.0125
1065.76003	6521.4125
1069.44126	6584.4125
1073.11995	6640.5125
1076.79611	6689.5125
1080.46974	6715.5125
1084.14085	6673.1125
1087.80943	6683.2125
1091.47549	6666.8125
1095.13903	6631.4125
1098.80005	6576.0125
1102.45857	6505.2125
1106.11456	6460.1125
1109.76805	6473.0125
1113.41903	6574.0125
1117.06751	6722.0125
1120.71348	6976.6125
1124.35696	7327.0125
1127.99793	7730.6125
1131.63641	8125.7125
1135.2724	8347.1125
1138.90589	8365.4125
1142.5369	8206.1125
1146.16542	7906.2125
1149.79145	7534.7125
1153.415	7211.3125
1157.03607	6979.9125
1160.65467	6861.4125
1164.27079	6889.9125
1167.88443	7012.8125
1171.49561	7184.0125
1175.10432	7461.1125
1178.71056	7824.8125
1182.31434	8187.1125
1185.91565	8388.6125
1189.51451	8461.6125
1193.11091	8437.1125
1196.70485	8348.0125
1200.29634	8273.2125
1203.88538	8166.1125
1207.47197	8030.3125
1211.05612	7883.7125
1214.63782	7690.4125
1218.21708	7510.9125
1221.79391	7364.5125
1225.36829	7248.4125
1228.94024	7167.7125
1232.50976	7059.7125
1236.07685	6979.6125
1239.6415	6970.6125
1243.20374	6977.7125
1246.76355	6992.6125
1250.32093	7060.1125
1253.8759	7132.5125
1257.42845	7251.1125
1260.97859	7377.0125
1264.52631	7488.5125
1268.07163	7647.1125
1271.61453	7737.4125
1275.15503	7849.2125
1278.69312	7954.7125
1282.22882	8050.1125
1285.76211	8166.6125
1289.29301	8298.7125
1292.82151	8514.4125
1296.34761	8775.8125
1299.87133	9072.2125
1303.39266	9396.5125
1306.9116	9771.2125
1310.42815	10119.7125
1313.94233	10345.9125
1317.45412	10373.8125
1320.96354	10229.5125
1324.47058	10034.5125
1327.97525	9843.5125
1331.47754	9696.4125
1334.97747	9626.9125
1338.47502	9624.7125
1341.97022	9700.6125
1345.46305	9813.4125
1348.95352	10005.6125
1352.44163	10310.4125
1355.92738	10721.7125
1359.41078	11176.6125
1362.89183	11521.3125
1366.37053	11338.1125
1369.84688	10612.0125
1373.32088	9749.3125
1376.79254	9123.3125
1380.26186	8795.7125
1383.72883	8654.1125
1387.19347	8537.9125
1390.65578	8374.1125
1394.11575	8261.9125
1397.57339	8201.7125
1401.0287	8158.6125
1404.48168	8103.9125
1407.93234	8015.6125
1411.38068	7904.2125
1414.82669	7707.5125
1418.27039	7494.4125
1421.71177	7296.8125
1425.15083	7105.3125
1428.58758	7009.4125
1432.02203	6989.0125
1435.45416	7016.2125
1438.88399	7106.9125
1442.31151	7194.9125
1445.73673	7259.8125
1449.15965	7338.6125
1452.58027	7426.3125
1455.9986	7458.9125
1459.41463	7528.1125
1462.82837	7647.2125
1466.23982	7756.0125
1469.64898	7862.6125
1473.05586	7928.3125
1476.46045	7951.7125
1479.86276	7922.9125
1483.26279	7895.0125
1486.66054	7879.5125
1490.05602	7896.9125
1493.44922	7987.1125
1496.84016	8116.0125
1500.22882	8315.6125
1503.61521	8635.5125
1506.99934	8984.3125
1510.38121	9247.1125
1513.76081	9334.9125
1517.13816	9111.9125
1520.51324	8726.8125
1523.88607	8342.4125
1527.25665	8117.4125
1530.62498	8035.0125
1533.99105	8005.9125
1537.35488	7978.8125
1540.71647	7941.7125
1544.07581	7944.8125
1547.4329	7936.9125
1550.78776	7927.7125
1554.14038	7931.2125
1557.49077	7961.1125
1560.83892	8007.0125
1564.18484	8071.6125
1567.52853	8104.5125
1570.86999	8176.4125
1574.20922	8190.6125
1577.54624	8210.0125
1580.88103	8108.1125
1584.2136	7992.3125
1587.54395	7989.2125
1590.87208	8115.2125
1594.19801	8273.4125
1597.52172	8589.4125
1600.84321	8771.8125
1604.16251	8657.8125
1607.47959	8353.4125
1610.79447	8050.5125
1614.10715	7759.2125
1617.41763	7517.5125
1620.7259	7352.9125
1624.03199	7262.6125
1627.33587	7263.9125
1630.63757	7371.0125
1633.93707	7575.7125
1637.23439	7913.3125
1640.52951	8387.7125
1643.82246	8971.6125
1647.11321	9517.7125
1650.40179	9779.1125
1653.68819	9553.2125
1656.97241	8905.8125
1660.25446	8200.4125
1663.53433	7684.8125
1666.81203	7300.4125
1670.08756	7043.6125
1673.36092	6875.2125
1676.63211	6746.3125
1679.90115	6642.7125
1683.16801	6513.0125
1686.43272	6387.3125
1689.69527	6220.0125
1692.95567	6068.7125
1696.2139	5946.9125
1699.46999	5825.5125
1702.72392	5723.3125
1705.97571	5640.5125
1709.22535	5556.4125
1712.47284	5502.9125
1715.71819	5449.1125
1718.96139	5389.2125
1722.20246	5338.6125
1725.44139	5274.2125
1728.67818	5206.3125
1731.91284	5154.7125
1735.14537	5085.5125
1738.37576	5056.1125
1741.60403	4998.8125
1744.83017	4965.3125
1748.05418	4938.0125
1751.27607	4909.5125
1754.49584	4882.4125
1757.71349	4873.7125
1760.92903	4862.5125
1764.14244	4854.3125
1767.35375	4844.5125
1770.56294	4833.7125
1773.77002	4817.8125
1776.97499	4806.4125
1780.17785	4788.6125
1783.37861	4764.0125
1786.57727	4743.6125
1789.77382	4707.0125
1792.96828	4720.9125
1796.16064	4696.6125
1799.3509	4681.9125
1802.53907	4670.8125
1805.72514	4637.1125
1808.90913	4621.2125
1812.09102	4612.9125
1815.27083	4603.5125
1818.44856	4605.2125
1821.6242	4569.2125
1824.79776	4573.9125
1827.96924	4583.8125
1831.13864	4561.6125
1834.30597	4554.1125
1837.47122	4541.9125
1840.6344	4551.2125
1843.7955	4545.0125
1846.95454	4523.1125
1850.11151	4526.4125
1853.26642	4524.9125
1856.41926	4510.4125
1859.57004	4523.3125
1862.71876	4508.0125
1865.86542	4498.2125
1869.01003	4509.0125
1872.15258	4489.9125
1875.29308	4492.6125
1878.43152	4482.3125
1881.56792	4465.7125
1884.70227	4466.6125
1887.83457	4458.2125
1890.96482	4461.3125
1894.09304	4455.6125
1897.21921	4433.6125
1900.34335	4444.8125
1903.46544	4421.5125
1906.58551	4426.1125
1909.70353	4426.6125
1912.81953	4407.0125
1915.93349	4405.4125
1919.04543	4403.8125
1922.15534	4385.5125
1925.26322	4381.1125
1928.36908	4355.6125
1931.47292	4356.3125
1934.57473	4334.6125
1937.67453	4325.5125
1940.77232	4315.0125
1943.86808	4310.3125
1946.96184	4309.8125
1950.05358	4284.9125
1953.14331	4271.6125
1956.23103	4256.7125
1959.31675	4251.5125
1962.40046	4222.4125
1965.48217	4215.7125
1968.56188	4228.8125
1971.63959	4196.7125
1974.7153	4182.4125
1977.78901	4169.1125
1980.86073	4153.9125
1983.93046	4140.6125
1986.99819	4133.5125
1990.06394	4125.0125
1993.1277	4104.2125
1996.18947	4106.6125
1999.24925	4080.0125
2002.30706	4078.3125
2005.36288	4057.4125
2008.41672	4046.0125
2011.46859	4023.6125
2014.51848	4031.6125
2017.56639	4023.5125
2020.61233	4006.1125
2023.6563	3993.2125
2026.6983	3977.6125
2029.73833	3966.2125
2032.7764	3963.6125
2035.8125	3963.8125
2038.84664	3940.5125
2041.87881	3944.9125
2044.90903	3930.8125
2047.93729	3930.3125
2050.96359	3918.8125
2053.98794	3923.1125
2057.01034	3912.2125
2060.03078	3911.3125
2063.04927	3908.9125
2066.06582	3904.0125
2069.08042	3917.2125
2072.09307	3897.4125
2075.10378	3886.2125
2078.11255	3891.6125
2081.11938	3884.3125
2084.12426	3885.5125
2087.12722	3902.2125
2090.12824	3888.4125
2093.12732	3879.7125
2096.12447	3902.7125
2099.11969	3894.8125
2102.11299	3872.4125
2105.10435	3891.6125
2108.09379	3889.5125
2111.08131	3888.3125
2114.0669	3890.4125
2117.05057	3892.7125
2120.03233	3899.2125
2123.01216	3909.9125
2125.99008	3903.4125
2128.96609	3908.2125
2131.94018	3893.3125
2134.91236	3915.4125
2137.88263	3917.1125
2140.851	3923.9125
2143.81746	3913.3125
2146.78201	3922.6125
2149.74466	3904.0125
2152.7054	3920.3125
2155.66425	3901.9125
2158.6212	3906.0125
2161.57625	3897.1125
2164.52941	3900.5125
2167.48067	3896.3125
2170.43004	3902.3125
2173.37752	3898.9125
2176.32311	3897.5125
2179.26681	3893.3125
2182.20863	3892.3125
2185.14856	3897.5125
2188.08661	3896.7125
2191.02278	3881.3125
2193.95707	3887.7125
2196.88948	3862.2125
2199.82001	3870.7125
2202.74867	3873.5125
2205.67545	3858.4125
2208.60037	3858.2125
2211.52341	3862.5125
2214.44458	3856.1125
2217.36388	3833.0125
2220.28132	3825.8125
2223.1969	3833.6125
2226.11061	3814.8125
2229.02246	3807.1125
2231.93245	3798.8125
2234.84058	3798.6125
2237.74686	3810.3125
2240.65128	3776.8125
2243.55385	3786.4125
2246.45456	3758.7125
2249.35343	3767.7125
2252.25044	3764.3125
2255.14561	3741.7125
2258.03893	3746.4125
2260.93041	3737.9125
2263.82004	3741.9125
2266.70783	3725.9125
2269.59378	3704.3125
2272.4779	3722.1125
2275.36017	3707.3125
2278.24061	3684.3125
2281.11922	3694.3125
2283.996	3681.7125
2286.87094	3676.3125
2289.74405	3672.7125
2292.61534	3638.4125
2295.4848	3645.0125
2298.35243	3639.8125
2301.21824	3639.2125
2304.08223	3644.7125
2306.94439	3637.0125
2309.80474	3645.7125
2312.66327	3631.4125
2315.51999	3638.9125
2318.37489	3633.7125
2321.22797	3612.9125
2324.07925	3607.0125
2326.92871	3606.9125
2329.77637	3582.3125
2332.62222	3585.5125
2335.46626	3590.6125
2338.3085	3588.7125
2341.14893	3584.6125
2343.98756	3595.5125
2346.8244	3576.3125
2349.65943	3573.3125
2352.49267	3576.8125
2355.32411	3567.4125
2358.15376	3566.5125
2360.98161	3575.7125
2363.80768	3565.4125
2366.63195	3557.0125
2369.45444	3554.3125
2372.27514	3554.8125
2375.09405	3547.7125
2377.91118	3547.6125
2380.72652	3539.3125
2383.54009	3530.8125
2386.35187	3526.9125
2389.16188	3517.8125
2391.97011	3520.3125
2394.77657	3507.8125
2397.58125	3497.3125
2400.38416	3495.5125
2403.18529	3492.0125
2405.98466	3488.6125
2408.78226	3484.9125
2411.57809	3459.2125
2414.37216	3465.1125
2417.16446	3457.2125
2419.955	3456.4125
2422.74378	3448.7125
2425.5308	3451.5125
2428.31606	3438.3125
2431.09956	3434.2125
2433.88131	3444.5125
2436.6613	3436.0125
2439.43954	3429.3125
2442.21603	3425.3125
2444.99077	3426.5125
2447.76377	3433.1125
2450.53501	3428.7125
2453.30451	3416.2125
2456.07226	3395.5125
2458.83827	3411.0125
2461.60254	3408.6125
2464.36507	3399.3125
2467.12586	3388.4125
2469.88492	3396.6125
2472.64224	3395.3125
2475.39782	3400.8125
2478.15167	3394.6125
2480.90379	3389.7125
2483.65417	3397.6125
2486.40283	3388.3125
2489.14976	3381.6125
2491.89497	3392.5125
2494.63845	3386.8125
2497.3802	3371.3125
2500.12024	3384.8125
2502.85855	3379.6125
2505.59514	3379.6125
2508.33002	3372.3125
2511.06318	3353.0125
2513.79462	3349.2125
2516.52435	3348.7125
2519.25237	3346.8125
2521.97867	3347.5125
2524.70327	3344.1125
2527.42616	3332.0125
2530.14734	3333.6125
2532.86681	3319.7125
2535.58458	3329.8125
2538.30065	3314.6125
2541.01501	3307.2125
2543.72768	3311.6125
2546.43864	3303.1125
2549.14791	3305.1125
2551.85548	3305.2125
2554.56136	3294.7125
2557.26554	3282.8125
2559.96803	3278.1125
2562.66883	3292.7125
2565.36794	3265.2125
2568.06536	3268.1125
2570.7611	3279.3125
2573.45514	3266.9125
2576.14751	3260.0125
2578.83819	3253.6125
2581.52719	3248.4125
2584.21451	3237.1125
2586.90015	3229.3125
2589.58411	3222.5125
2592.2664	3220.8125
2594.94701	3214.8125
2597.62594	3228.2125
2600.30321	3212.2125
2602.9788	3207.8125
2605.65273	3199.9125
2608.32498	3208.7125
2610.99557	3196.5125
2613.66449	3202.5125
2616.33175	3186.6125
2618.99734	3190.2125
2621.66128	3191.8125
2624.32355	3176.9125
2626.98416	3186.3125
2629.64311	3172.0125
2632.30041	3178.0125
2634.95605	3173.6125
2637.61004	3158.0125
2640.26238	3169.8125
2642.91306	3164.2125
2645.56209	3163.1125
2648.20948	3153.1125
2650.85521	3149.4125
2653.4993	3158.6125
2656.14175	3162.4125
2658.78255	3156.6125
2661.42171	3150.6125
2664.05923	3153.1125
2666.6951	3145.5125
2669.32934	3158.5125
2671.96194	3155.4125
2674.59291	3160.2125
2677.22224	3158.8125
2679.84993	3160.2125
2682.476	3152.0125
2685.10043	3152.5125
2687.72324	3150.1125
2690.34441	3165.2125
2692.96396	3154.3125
2695.58188	3154.5125
2698.19818	3140.2125
2700.81285	3164.4125
2703.4259	3171.0125
2706.03733	3194.3125
2708.64714	3161.4125
2711.25533	3158.5125
2713.86191	3167.2125
2716.46687	3169.5125
2719.07021	3168.5125
2721.67194	3161.0125
2724.27206	3171.1125
2726.87057	3176.4125
2729.46747	3153.5125
2732.06276	3166.0125
2734.65644	3157.5125
2737.24852	3166.3125
2739.83899	3153.1125
2742.42786	3146.2125
2745.01513	3146.1125
2747.60079	3144.1125
2750.18486	3143.0125
2752.76733	3139.8125
2755.3482	3133.8125
2757.92747	3146.7125
2760.50515	3134.0125
2763.08123	3125.7125
2765.65573	3126.7125
2768.22863	3130.0125
2770.79994	3120.2125
2773.36967	3121.9125
2775.9378	3122.7125
2778.50435	3111.8125
2781.06932	3110.6125
2783.6327	3107.2125
2786.1945	3107.7125
2788.75471	3100.5125
2791.31335	3078.2125
2793.87041	3088.6125
2796.42589	3082.0125
2798.97979	3075.4125
2801.53212	3065.1125
2804.08288	3062.1125
2806.63206	3055.6125
2809.17967	3054.5125
2811.72571	3043.8125
2814.27018	3048.0125
2816.81308	3038.2125
2819.35442	3036.0125
2821.89419	3029.9125
2824.43239	3030.1125
2826.96904	3024.5125
2829.50412	3017.9125
2832.03763	3021.9125
2834.56959	3031.4125
2837.1	3022.9125
2839.62884	3017.8125
2842.15613	3008.9125
2844.68186	3020.5125
2847.20604	3014.3125
2849.72867	3027.3125
2852.24974	3021.6125
2854.76927	3024.8125
2857.28724	3022.5125
2859.80367	3013.5125
2862.31855	3005.2125
2864.83189	3017.9125
2867.34368	3018.5125
2869.85393	3009.0125
2872.36264	3018.9125
2874.8698	3012.9125
2877.37543	3021.5125
2879.87952	3014.0125
2882.38207	3038.2125
2884.88308	3018.0125
2887.38256	3012.5125
2889.88051	3025.5125
2892.37692	3029.5125
2894.8718	3034.2125
2897.36515	3027.4125
2899.85698	3043.0125
2902.34727	3037.7125
2904.83604	3040.9125
2907.32328	3033.8125
2909.809	3043.6125
2912.29319	3042.6125
2914.77587	3046.3125
2917.25702	3048.0125
2919.73665	3052.5125
2922.21476	3050.5125
2924.69136	3041.4125
2927.16644	3047.5125
2929.64	3042.5125
2932.11205	3044.0125
2934.58258	3043.9125
2937.05161	3032.2125
2939.51912	3033.3125
2941.98513	3044.1125
2944.44962	3035.6125
2946.91261	3028.9125
2949.37409	3022.6125
2951.83407	3007.7125
2954.29254	3022.5125
2956.74951	3008.5125
2959.20498	3013.1125
2961.65895	3006.5125
2964.11142	2994.9125
2966.56239	2993.3125
2969.01186	3013.9125
2971.45984	3006.7125
2973.90632	2989.7125
2976.35131	2994.1125
2978.7948	2979.7125
2981.23681	2973.4125
2983.67732	2969.0125
2986.11635	2969.5125
2988.55388	2956.2125
2990.98993	2957.6125
2993.4245	2956.3125
2995.85758	2948.4125
2998.28917	2947.4125
3000.71928	2954.4125
3003.14791	2939.3125
3005.57506	2954.9125
3008.00073	2940.0125
3010.42493	2936.0125
3012.84764	2939.3125
3015.26888	2930.8125
3017.68865	2934.2125
3020.10694	2926.6125
3022.52376	2935.4125
3024.9391	2944.8125
3027.35298	2938.5125
3029.76539	2916.6125
3032.17632	2921.2125
3034.5858	2931.0125
3036.9938	2923.3125
3039.40034	2916.4125
3041.80542	2924.1125
3044.20903	2919.8125
3046.61118	2934.2125
3049.01187	2936.9125
3051.4111	2914.4125
3053.80888	2915.3125
3056.20519	2929.1125
3058.60005	2904.8125
3060.99345	2921.5125
3063.3854	2921.7125
3065.7759	2898.4125
3068.16494	2905.8125
3070.55254	2895.3125
3072.93868	2900.2125
3075.32338	2896.1125
3077.70662	2892.8125
3080.08842	2908.8125
3082.46878	2910.2125
3084.84769	2898.6125
3087.22515	2908.1125
3089.60118	2908.2125
3091.97576	2915.4125
3094.3489	2919.7125
3096.72061	2921.5125
3099.09087	2932.4125
3101.4597	2936.0125
3103.82709	2939.8125
3106.19305	2932.5125
3108.55757	2938.6125
3110.92066	2927.6125
3113.28232	2940.3125
3115.64255	2932.8125
3118.00134	2925.3125
3120.35871	2929.9125
3122.71466	2930.3125
3125.06917	2929.6125
3127.42226	2935.2125
3129.77393	2941.6125
3132.12417	2938.7125
3134.47299	2949.5125
3136.82039	2954.7125
3139.16636	2958.4125
3141.51092	2966.4125
3143.85406	2964.7125
3146.19579	2975.7125
3148.53609	2986.9125
3150.87499	2994.0125
3153.21246	3000.8125
3155.54853	3010.5125
3157.88318	3025.6125
3160.21642	3017.5125
3162.54826	3022.0125
3164.87868	3026.2125
3167.2077	3039.1125
3169.5353	3050.4125
3171.86151	3050.5125
3174.18631	3056.0125
3176.5097	3048.3125
3178.83169	3055.7125
3181.15228	3052.5125
3183.47147	3049.0125
3185.78926	3051.4125
3188.10565	3061.3125
3190.42065	3072.0125
3192.73424	3078.8125
3195.04645	3067.2125
3197.35725	3069.0125
3199.66667	3070.7125
3201.97469	3087.4125
3204.28132	3104.2125
3206.58656	3103.0125
3208.8904	3109.9125
3211.19287	3107.8125
3213.49394	3122.0125
3215.79363	3112.0125
3218.09193	3121.7125
3220.38884	3133.8125
3222.68438	3126.5125
3224.97853	3121.9125
3227.2713	3121.6125
3229.56269	3126.0125
3231.8527	3114.9125
3234.14133	3112.1125
3236.42858	3118.3125
3238.71446	3102.2125
3240.99896	3110.7125
3243.28209	3117.5125
3245.56384	3111.8125
3247.84423	3123.0125
3250.12324	3107.3125
3252.40088	3110.0125
3254.67715	3108.9125
3256.95205	3099.7125
3259.22558	3108.5125
3261.49775	3096.1125
3263.76855	3100.0125
3266.03799	3099.3125
3268.30606	3097.4125
3270.57277	3078.7125
3272.83812	3078.1125
3275.10211	3074.0125
3277.36474	3070.0125
3279.62601	3090.4125
3281.88593	3084.5125
3284.14448	3091.9125
3286.40168	3082.5125
3288.65753	3077.7125
3290.91202	3066.9125
3293.16516	3065.0125
3295.41695	3059.5125
3297.66738	3033.8125
3299.91647	3012.7125
3302.16421	3018.6125
3304.4106	3001.3125
3306.65564	2990.4125
3308.89933	2980.9125
3311.14169	2953.0125
3313.38269	2938.7125
3315.62236	2913.3125
3317.86068	2901.3125
3320.09766	2878.3125
3322.3333	2849.1125
3324.5676	2855.6125
3326.80056	2801.4125
3329.03219	2798.3125
3331.26248	1.3125
3333.49143	0.2125
3335.71905	-0.2875
