Data from AgNPs_FTO_APTES_UA_0.1mM_CRN_10uM_NaF_0.1M_Addition_RamanShift__28__11-51-07-569.txt Node

Date: Mon Dec 20 11:51:07 GMT 2021
User: TCL
Spectrometer: QEP01345
Trigger mode: 4
Integration Time (sec): 7.000000E0
Scans to average: 10
Electric dark correction enabled: true
Nonlinearity correction enabled: false
Boxcar width: 0
XAxis mode: Raman Shifts
Number of Pixels in Spectrum: 1044
>>>>>Begin Spectral Data<<<<<
46.04893	0.1125
50.45542	-0.0875
54.85868	-1.8875
59.25871	1.1125
63.6555	34.4125
68.04907	34.2125
72.43941	40.4125
76.82654	37.8125
81.21044	39.4125
85.59113	45.7125
89.96862	42.1125
94.34289	44.6125
98.71396	46.3125
103.08183	47.6125
107.4465	50.3125
111.80798	54.8125
116.16626	51.7125
120.52136	53.0125
124.87327	54.7125
129.222	52.5125
133.56755	61.6125
137.90993	62.6125
142.24913	67.0125
146.58517	69.0125
150.91804	83.1125
155.24774	96.3125
159.57429	113.9125
163.89768	141.7125
168.21792	187.1125
172.53501	247.2125
176.84895	335.1125
181.15975	467.5125
185.46741	639.5125
189.77193	881.9125
194.07331	1180.0125
198.37157	1525.5125
202.6667	1882.2125
206.9587	2252.0125
211.24758	2609.7125
215.53334	2950.5125
219.81599	3312.7125
224.09553	3699.2125
228.37195	4124.4125
232.64527	4571.4125
236.91549	5043.4125
241.18261	5497.9125
245.44663	5921.7125
249.70755	6316.2125
253.96539	6613.8125
258.22014	6884.3125
262.4718	7074.4125
266.72039	7222.4125
270.96589	7261.5125
275.20832	7237.9125
279.44768	7173.9125
283.68397	7058.0125
287.91719	6974.8125
292.14735	6941.4125
296.37445	6951.0125
300.59849	6994.0125
304.81948	7056.8125
309.03742	7084.5125
313.25231	7050.5125
317.46415	6893.0125
321.67296	6641.3125
325.87872	6421.7125
330.08145	6323.2125
334.28114	6310.6125
338.47781	6335.1125
342.67145	6424.1125
346.86207	6557.2125
351.04966	6746.4125
355.23424	6958.8125
359.4158	7135.2125
363.59435	7252.9125
367.76989	7325.1125
371.94243	7386.9125
376.11196	7455.3125
380.27849	7501.8125
384.44203	7555.0125
388.60257	7567.1125
392.76012	7609.9125
396.91468	7670.4125
401.06626	7785.8125
405.21485	7866.5125
409.36047	7822.5125
413.50311	7653.0125
417.64277	7501.8125
421.77947	7398.9125
425.9132	7369.4125
430.04396	7371.0125
434.17176	7416.6125
438.2966	7481.0125
442.41849	7588.9125
446.53742	7733.7125
450.6534	7879.1125
454.76644	7962.4125
458.87653	8007.3125
462.98368	7984.9125
467.08789	7918.8125
471.18916	7869.5125
475.2875	7848.2125
479.38291	7859.9125
483.4754	7944.0125
487.56496	8017.6125
491.6516	8134.0125
495.73531	8185.4125
499.81612	8104.4125
503.89401	8017.2125
507.96899	7923.8125
512.04106	7893.7125
516.11023	7936.5125
520.1765	8010.0125
524.23987	8080.3125
528.30034	8108.8125
532.35792	8071.8125
536.41261	7951.6125
540.46441	7784.5125
544.51333	7664.6125
548.55936	7579.6125
552.60252	7587.0125
556.64279	7641.5125
560.6802	7714.9125
564.71473	7781.2125
568.7464	7909.6125
572.7752	8037.8125
576.80114	8012.4125
580.82422	7967.4125
584.84444	8037.6125
588.86181	8183.1125
592.87633	8331.9125
596.888	8390.7125
600.89682	8365.3125
604.9028	8627.3125
608.90594	9518.5125
612.90624	10848.0125
616.90371	10898.5125
620.89834	9667.6125
624.89015	9365.4125
628.87913	9803.1125
632.86528	10346.1125
636.84862	10562.8125
640.82913	10292.6125
644.80683	9674.2125
648.78172	9029.7125
652.75379	8575.8125
656.72306	8359.7125
660.68952	8289.5125
664.65319	8178.1125
668.61405	8003.5125
672.57211	7927.2125
676.52738	7901.5125
680.47986	7924.0125
684.42955	7884.0125
688.37646	7880.0125
692.32058	7877.4125
696.26192	7893.2125
700.20048	7871.7125
704.13626	7819.9125
708.06928	7763.0125
711.99952	7682.1125
715.927	7654.0125
719.85171	7688.1125
723.77365	7758.0125
727.69284	7734.9125
731.60928	7675.0125
735.52295	7570.1125
739.43388	7513.4125
743.34206	7504.9125
747.24749	7554.8125
751.15017	7569.9125
755.05012	7634.2125
758.94733	7768.9125
762.8418	8068.9125
766.73354	8608.4125
770.62254	9175.5125
774.50882	9466.1125
778.39237	9238.1125
782.27321	8632.9125
786.15132	8066.8125
790.02671	7782.8125
793.89938	7704.7125
797.76935	7706.8125
801.6366	7884.6125
805.50115	8203.6125
809.36299	8550.3125
813.22213	8679.6125
817.07857	8502.4125
820.93231	8165.2125
824.78336	7809.9125
828.63172	7554.9125
832.47738	7419.9125
836.32036	7335.7125
840.16066	7291.4125
843.99827	7267.4125
847.8332	7226.8125
851.66546	7209.0125
855.49504	7209.3125
859.32195	7220.4125
863.1462	7244.7125
866.96777	7306.6125
870.78668	7464.3125
874.60293	7671.4125
878.41652	7924.6125
882.22745	8137.0125
886.03573	8276.4125
889.84136	8236.4125
893.64433	7994.4125
897.44466	7707.0125
901.24235	7405.7125
905.0374	7174.1125
908.8298	7049.4125
912.61957	6941.9125
916.40671	6936.8125
920.19121	6923.6125
923.97308	6925.2125
927.75233	6937.3125
931.52895	6917.5125
935.30295	6895.2125
939.07433	6818.8125
942.84309	6727.8125
946.60924	6704.9125
950.37278	6697.1125
954.13371	6674.2125
957.89203	6648.6125
961.64774	6614.7125
965.40086	6601.1125
969.15137	6580.5125
972.89929	6556.3125
976.64461	6539.7125
980.38733	6535.7125
984.12747	6518.5125
987.86502	6537.5125
991.59999	6587.6125
995.33237	6703.3125
999.06217	6818.7125
1002.78939	7034.0125
1006.51404	7209.3125
1010.23611	7382.2125
1013.95561	7505.6125
1017.67255	7497.6125
1021.38692	7417.6125
1025.09872	7275.2125
1028.80796	7098.7125
1032.51465	6979.1125
1036.21877	6922.5125
1039.92035	6871.3125
1043.61937	6826.2125
1047.31584	6783.6125
1051.00976	6773.9125
1054.70114	6785.7125
1058.38998	6814.4125
1062.07627	6897.6125
1065.76003	6987.2125
1069.44126	7062.9125
1073.11995	7105.3125
1076.79611	7084.5125
1080.46974	7071.1125
1084.14085	7065.1125
1087.80943	7021.2125
1091.47549	7000.9125
1095.13903	6939.4125
1098.80005	6824.2125
1102.45857	6736.3125
1106.11456	6711.9125
1109.76805	6768.1125
1113.41903	6898.1125
1117.06751	7126.0125
1120.71348	7449.6125
1124.35696	7931.9125
1127.99793	8501.0125
1131.63641	8985.8125
1135.2724	9217.6125
1138.90589	9184.5125
1142.5369	8919.9125
1146.16542	8479.5125
1149.79145	8012.6125
1153.415	7577.1125
1157.03607	7267.7125
1160.65467	7138.9125
1164.27079	7123.0125
1167.88443	7259.5125
1171.49561	7526.4125
1175.10432	7973.6125
1178.71056	8579.5125
1182.31434	9126.9125
1185.91565	9405.9125
1189.51451	9498.5125
1193.11091	9489.0125
1196.70485	9530.4125
1200.29634	9600.0125
1203.88538	9535.1125
1207.47197	9281.8125
1211.05612	8878.8125
1214.63782	8478.0125
1218.21708	8097.6125
1221.79391	7818.9125
1225.36829	7615.4125
1228.94024	7450.0125
1232.50976	7292.3125
1236.07685	7193.3125
1239.6415	7191.3125
1243.20374	7207.3125
1246.76355	7231.9125
1250.32093	7305.3125
1253.8759	7367.3125
1257.42845	7486.0125
1260.97859	7585.4125
1264.52631	7704.0125
1268.07163	7785.0125
1271.61453	7852.5125
1275.15503	7936.2125
1278.69312	7940.3125
1282.22882	7982.2125
1285.76211	8080.6125
1289.29301	8256.7125
1292.82151	8483.6125
1296.34761	8753.7125
1299.87133	9153.3125
1303.39266	9653.2125
1306.9116	10300.1125
1310.42815	11046.5125
1313.94233	11517.8125
1317.45412	11550.8125
1320.96354	11258.1125
1324.47058	10860.6125
1327.97525	10488.1125
1331.47754	10309.5125
1334.97747	10261.1125
1338.47502	10357.2125
1341.97022	10486.0125
1345.46305	10629.3125
1348.95352	10857.9125
1352.44163	11224.1125
1355.92738	11726.2125
1359.41078	12572.9125
1362.89183	13357.7125
1366.37053	13203.3125
1369.84688	12059.0125
1373.32088	10720.4125
1376.79254	9866.3125
1380.26186	9439.4125
1383.72883	9214.2125
1387.19347	9091.1125
1390.65578	8946.7125
1394.11575	8854.8125
1397.57339	8780.0125
1401.0287	8814.2125
1404.48168	8814.5125
1407.93234	8773.1125
1411.38068	8633.6125
1414.82669	8441.9125
1418.27039	8144.9125
1421.71177	7821.4125
1425.15083	7564.9125
1428.58758	7398.2125
1432.02203	7360.4125
1435.45416	7383.3125
1438.88399	7437.2125
1442.31151	7484.9125
1445.73673	7518.2125
1449.15965	7571.0125
1452.58027	7602.5125
1455.9986	7571.0125
1459.41463	7593.7125
1462.82837	7626.4125
1466.23982	7725.7125
1469.64898	7830.0125
1473.05586	7901.3125
1476.46045	7931.8125
1479.86276	7970.6125
1483.26279	8022.7125
1486.66054	8099.0125
1490.05602	8217.1125
1493.44922	8399.0125
1496.84016	8610.0125
1500.22882	8965.3125
1503.61521	9455.1125
1506.99934	10094.3125
1510.38121	10639.9125
1513.76081	10865.9125
1517.13816	10542.1125
1520.51324	9797.2125
1523.88607	9072.7125
1527.25665	8623.2125
1530.62498	8402.4125
1533.99105	8346.4125
1537.35488	8357.3125
1540.71647	8353.8125
1544.07581	8386.2125
1547.4329	8412.6125
1550.78776	8391.4125
1554.14038	8360.8125
1557.49077	8366.1125
1560.83892	8399.7125
1564.18484	8459.1125
1567.52853	8561.8125
1570.86999	8630.6125
1574.20922	8712.3125
1577.54624	8740.9125
1580.88103	8665.9125
1584.2136	8467.6125
1587.54395	8428.1125
1590.87208	8559.3125
1594.19801	8864.5125
1597.52172	9276.9125
1600.84321	9518.5125
1604.16251	9448.3125
1607.47959	9087.2125
1610.79447	8671.4125
1614.10715	8267.1125
1617.41763	7915.7125
1620.7259	7707.1125
1624.03199	7631.7125
1627.33587	7639.8125
1630.63757	7750.7125
1633.93707	7976.2125
1637.23439	8357.4125
1640.52951	8903.9125
1643.82246	9587.9125
1647.11321	10314.0125
1650.40179	10823.5125
1653.68819	10627.7125
1656.97241	9799.7125
1660.25446	8851.7125
1663.53433	8068.3125
1666.81203	7529.8125
1670.08756	7183.5125
1673.36092	6920.3125
1676.63211	6748.9125
1679.90115	6603.4125
1683.16801	6465.4125
1686.43272	6375.7125
1689.69527	6296.9125
1692.95567	6172.2125
1696.2139	6096.9125
1699.46999	6023.7125
1702.72392	5912.0125
1705.97571	5801.8125
1709.22535	5716.2125
1712.47284	5642.9125
1715.71819	5593.9125
1718.96139	5535.4125
1722.20246	5479.3125
1725.44139	5418.8125
1728.67818	5358.6125
1731.91284	5302.2125
1735.14537	5247.7125
1738.37576	5222.8125
1741.60403	5177.4125
1744.83017	5156.5125
1748.05418	5133.7125
1751.27607	5113.7125
1754.49584	5102.8125
1757.71349	5099.5125
1760.92903	5073.8125
1764.14244	5076.9125
1767.35375	5041.9125
1770.56294	5032.9125
1773.77002	4995.8125
1776.97499	4971.4125
1780.17785	4936.0125
1783.37861	4900.0125
1786.57727	4901.1125
1789.77382	4873.5125
1792.96828	4851.7125
1796.16064	4854.4125
1799.3509	4828.8125
1802.53907	4802.8125
1805.72514	4781.9125
1808.90913	4770.7125
1812.09102	4760.0125
1815.27083	4736.4125
1818.44856	4731.7125
1821.6242	4725.5125
1824.79776	4717.8125
1827.96924	4716.2125
1831.13864	4693.0125
1834.30597	4696.5125
1837.47122	4677.9125
1840.6344	4664.5125
1843.7955	4673.2125
1846.95454	4664.4125
1850.11151	4661.7125
1853.26642	4659.3125
1856.41926	4671.7125
1859.57004	4652.7125
1862.71876	4656.4125
1865.86542	4632.8125
1869.01003	4629.3125
1872.15258	4628.8125
1875.29308	4622.1125
1878.43152	4636.7125
1881.56792	4595.5125
1884.70227	4599.6125
1887.83457	4600.7125
1890.96482	4576.7125
1894.09304	4572.8125
1897.21921	4583.7125
1900.34335	4574.0125
1903.46544	4567.9125
1906.58551	4565.9125
1909.70353	4550.6125
1912.81953	4561.5125
1915.93349	4545.8125
1919.04543	4538.3125
1922.15534	4506.3125
1925.26322	4508.9125
1928.36908	4498.4125
1931.47292	4493.6125
1934.57473	4472.4125
1937.67453	4449.6125
1940.77232	4448.3125
1943.86808	4431.4125
1946.96184	4410.0125
1950.05358	4408.5125
1953.14331	4388.7125
1956.23103	4374.3125
1959.31675	4359.5125
1962.40046	4363.5125
1965.48217	4341.3125
1968.56188	4341.0125
1971.63959	4323.7125
1974.7153	4299.5125
1977.78901	4276.3125
1980.86073	4281.6125
1983.93046	4260.2125
1986.99819	4253.6125
1990.06394	4234.2125
1993.1277	4213.1125
1996.18947	4215.2125
1999.24925	4205.6125
2002.30706	4169.6125
2005.36288	4160.2125
2008.41672	4150.0125
2011.46859	4136.6125
2014.51848	4128.6125
2017.56639	4105.8125
2020.61233	4117.0125
2023.6563	4091.5125
2026.6983	4073.9125
2029.73833	4074.1125
2032.7764	4071.8125
2035.8125	4074.1125
2038.84664	4051.6125
2041.87881	4042.4125
2044.90903	4029.6125
2047.93729	4029.7125
2050.96359	4025.4125
2053.98794	4031.5125
2057.01034	4022.0125
2060.03078	4001.1125
2063.04927	4003.9125
2066.06582	4007.6125
2069.08042	3987.5125
2072.09307	3975.0125
2075.10378	3969.0125
2078.11255	3987.4125
2081.11938	3978.3125
2084.12426	3974.0125
2087.12722	3966.5125
2090.12824	3976.2125
2093.12732	3969.4125
2096.12447	3963.0125
2099.11969	3968.8125
2102.11299	3969.3125
2105.10435	3974.5125
2108.09379	3962.3125
2111.08131	3973.1125
2114.0669	3964.5125
2117.05057	3976.6125
2120.03233	3973.0125
2123.01216	3967.2125
2125.99008	3970.4125
2128.96609	3977.6125
2131.94018	3982.5125
2134.91236	3986.0125
2137.88263	3977.9125
2140.851	3982.4125
2143.81746	3978.2125
2146.78201	3972.3125
2149.74466	3984.1125
2152.7054	3985.2125
2155.66425	3969.0125
2158.6212	3966.6125
2161.57625	3972.4125
2164.52941	3969.2125
2167.48067	3962.7125
2170.43004	3952.8125
2173.37752	3953.7125
2176.32311	3947.0125
2179.26681	3960.1125
2182.20863	3955.1125
2185.14856	3965.7125
2188.08661	3937.7125
2191.02278	3956.9125
2193.95707	3937.6125
2196.88948	3936.2125
2199.82001	3926.3125
2202.74867	3922.9125
2205.67545	3910.2125
2208.60037	3905.2125
2211.52341	3909.7125
2214.44458	3893.8125
2217.36388	3886.7125
2220.28132	3887.1125
2223.1969	3860.6125
2226.11061	3848.6125
2229.02246	3863.5125
2231.93245	3850.0125
2234.84058	3828.7125
2237.74686	3840.7125
2240.65128	3818.3125
2243.55385	3833.3125
2246.45456	3820.3125
2249.35343	3817.8125
2252.25044	3800.0125
2255.14561	3784.4125
2258.03893	3797.5125
2260.93041	3785.8125
2263.82004	3793.3125
2266.70783	3778.9125
2269.59378	3772.6125
2272.4779	3749.4125
2275.36017	3747.6125
2278.24061	3741.1125
2281.11922	3731.4125
2283.996	3715.9125
2286.87094	3723.2125
2289.74405	3710.6125
2292.61534	3688.7125
2295.4848	3691.8125
2298.35243	3676.5125
2301.21824	3679.7125
2304.08223	3676.7125
2306.94439	3684.0125
2309.80474	3687.3125
2312.66327	3678.2125
2315.51999	3664.2125
2318.37489	3650.7125
2321.22797	3641.8125
2324.07925	3651.8125
2326.92871	3642.2125
2329.77637	3649.3125
2332.62222	3652.4125
2335.46626	3632.9125
2338.3085	3632.1125
2341.14893	3621.4125
2343.98756	3621.4125
2346.8244	3616.2125
2349.65943	3609.9125
2352.49267	3617.3125
2355.32411	3606.7125
2358.15376	3603.1125
2360.98161	3596.9125
2363.80768	3587.2125
2366.63195	3607.5125
2369.45444	3590.7125
2372.27514	3587.7125
2375.09405	3596.2125
2377.91118	3587.6125
2380.72652	3578.9125
2383.54009	3576.0125
2386.35187	3565.2125
2389.16188	3548.2125
2391.97011	3541.9125
2394.77657	3533.7125
2397.58125	3514.2125
2400.38416	3513.3125
2403.18529	3514.4125
2405.98466	3494.2125
2408.78226	3509.0125
2411.57809	3463.6125
2414.37216	3477.5125
2417.16446	3485.6125
2419.955	3464.2125
2422.74378	3461.3125
2425.5308	3455.4125
2428.31606	3452.9125
2431.09956	3449.8125
2433.88131	3435.0125
2436.6613	3452.8125
2439.43954	3428.8125
2442.21603	3423.4125
2444.99077	3418.7125
2447.76377	3432.6125
2450.53501	3428.9125
2453.30451	3422.6125
2456.07226	3418.5125
2458.83827	3411.0125
2461.60254	3404.9125
2464.36507	3396.7125
2467.12586	3397.4125
2469.88492	3394.3125
2472.64224	3391.2125
2475.39782	3382.2125
2478.15167	3371.6125
2480.90379	3387.9125
2483.65417	3383.1125
2486.40283	3401.2125
2489.14976	3385.3125
2491.89497	3393.7125
2494.63845	3399.2125
2497.3802	3386.2125
2500.12024	3385.6125
2502.85855	3372.6125
2505.59514	3372.8125
2508.33002	3363.9125
2511.06318	3353.7125
2513.79462	3353.4125
2516.52435	3350.5125
2519.25237	3324.0125
2521.97867	3320.0125
2524.70327	3319.1125
2527.42616	3298.2125
2530.14734	3321.3125
2532.86681	3306.5125
2535.58458	3298.7125
2538.30065	3291.7125
2541.01501	3275.1125
2543.72768	3285.3125
2546.43864	3274.3125
2549.14791	3258.5125
2551.85548	3257.5125
2554.56136	3253.6125
2557.26554	3260.9125
2559.96803	3246.0125
2562.66883	3246.7125
2565.36794	3239.5125
2568.06536	3233.4125
2570.7611	3236.5125
2573.45514	3209.0125
2576.14751	3211.7125
2578.83819	3203.2125
2581.52719	3208.5125
2584.21451	3203.8125
2586.90015	3207.2125
2589.58411	3189.8125
2592.2664	3181.4125
2594.94701	3170.1125
2597.62594	3172.3125
2600.30321	3167.9125
2602.9788	3176.1125
2605.65273	3159.3125
2608.32498	3157.1125
2610.99557	3156.9125
2613.66449	3158.0125
2616.33175	3147.3125
2618.99734	3151.8125
2621.66128	3145.6125
2624.32355	3134.0125
2626.98416	3131.2125
2629.64311	3126.7125
2632.30041	3124.7125
2634.95605	3126.8125
2637.61004	3116.9125
2640.26238	3113.9125
2642.91306	3107.3125
2645.56209	3104.1125
2648.20948	3112.0125
2650.85521	3101.2125
2653.4993	3102.5125
2656.14175	3102.2125
2658.78255	3085.7125
2661.42171	3102.8125
2664.05923	3097.1125
2666.6951	3094.3125
2669.32934	3099.4125
2671.96194	3092.8125
2674.59291	3100.8125
2677.22224	3102.1125
2679.84993	3110.2125
2682.476	3109.7125
2685.10043	3100.7125
2687.72324	3106.8125
2690.34441	3094.0125
2692.96396	3104.3125
2695.58188	3104.8125
2698.19818	3109.3125
2700.81285	3104.4125
2703.4259	3117.3125
2706.03733	3130.1125
2708.64714	3108.9125
2711.25533	3119.2125
2713.86191	3101.3125
2716.46687	3101.1125
2719.07021	3114.7125
2721.67194	3107.6125
2724.27206	3099.9125
2726.87057	3106.2125
2729.46747	3100.0125
2732.06276	3092.5125
2734.65644	3102.5125
2737.24852	3104.5125
2739.83899	3090.3125
2742.42786	3105.5125
2745.01513	3087.4125
2747.60079	3089.2125
2750.18486	3088.8125
2752.76733	3084.4125
2755.3482	3070.4125
2757.92747	3073.2125
2760.50515	3062.3125
2763.08123	3049.6125
2765.65573	3052.8125
2768.22863	3053.0125
2770.79994	3053.2125
2773.36967	3060.3125
2775.9378	3049.4125
2778.50435	3051.4125
2781.06932	3049.9125
2783.6327	3039.5125
2786.1945	3050.2125
2788.75471	3038.9125
2791.31335	3030.7125
2793.87041	3018.0125
2796.42589	3012.9125
2798.97979	3022.0125
2801.53212	3020.8125
2804.08288	3004.3125
2806.63206	2991.5125
2809.17967	3000.7125
2811.72571	2988.3125
2814.27018	2983.1125
2816.81308	2992.4125
2819.35442	2979.7125
2821.89419	2964.8125
2824.43239	2974.7125
2826.96904	2973.0125
2829.50412	2969.5125
2832.03763	2966.3125
2834.56959	2972.1125
2837.1	2964.9125
2839.62884	2966.1125
2842.15613	2968.1125
2844.68186	2965.8125
2847.20604	2976.8125
2849.72867	2981.3125
2852.24974	2982.5125
2854.76927	2988.5125
2857.28724	2973.3125
2859.80367	2973.0125
2862.31855	2972.4125
2864.83189	2969.9125
2867.34368	2961.2125
2869.85393	2961.1125
2872.36264	2974.2125
2874.8698	2978.7125
2877.37543	2963.8125
2879.87952	2968.1125
2882.38207	2965.7125
2884.88308	2963.7125
2887.38256	2968.8125
2889.88051	2970.4125
2892.37692	2981.7125
2894.8718	2962.9125
2897.36515	2983.6125
2899.85698	2976.3125
2902.34727	2987.7125
2904.83604	2981.6125
2907.32328	2996.5125
2909.809	2997.6125
2912.29319	2992.3125
2914.77587	2989.0125
2917.25702	2987.9125
2919.73665	2976.0125
2922.21476	2986.1125
2924.69136	2979.0125
2927.16644	2989.0125
2929.64	2972.8125
2932.11205	2980.0125
2934.58258	2974.9125
2937.05161	2980.1125
2939.51912	2959.3125
2941.98513	2978.9125
2944.44962	2954.0125
2946.91261	2942.4125
2949.37409	2956.1125
2951.83407	2948.7125
2954.29254	2949.2125
2956.74951	2947.7125
2959.20498	2944.5125
2961.65895	2931.3125
2964.11142	2927.3125
2966.56239	2933.4125
2969.01186	2920.0125
2971.45984	2902.8125
2973.90632	2904.6125
2976.35131	2907.5125
2978.7948	2899.5125
2981.23681	2890.4125
2983.67732	2891.3125
2986.11635	2881.3125
2988.55388	2865.3125
2990.98993	2873.4125
2993.4245	2875.1125
2995.85758	2868.3125
2998.28917	2866.7125
3000.71928	2849.2125
3003.14791	2845.9125
3005.57506	2852.9125
3008.00073	2858.5125
3010.42493	2850.9125
3012.84764	2851.8125
3015.26888	2851.6125
3017.68865	2834.1125
3020.10694	2853.9125
3022.52376	2837.5125
3024.9391	2843.7125
3027.35298	2830.9125
3029.76539	2832.8125
3032.17632	2826.0125
3034.5858	2835.5125
3036.9938	2823.5125
3039.40034	2832.3125
3041.80542	2813.4125
3044.20903	2832.0125
3046.61118	2827.8125
3049.01187	2822.8125
3051.4111	2832.5125
3053.80888	2818.6125
3056.20519	2818.1125
3058.60005	2809.7125
3060.99345	2808.3125
3063.3854	2811.0125
3065.7759	2803.3125
3068.16494	2800.9125
3070.55254	2796.1125
3072.93868	2803.8125
3075.32338	2810.8125
3077.70662	2808.5125
3080.08842	2805.0125
3082.46878	2816.3125
3084.84769	2814.0125
3087.22515	2810.5125
3089.60118	2814.4125
3091.97576	2827.3125
3094.3489	2809.4125
3096.72061	2815.0125
3099.09087	2843.2125
3101.4597	2840.7125
3103.82709	2839.9125
3106.19305	2842.1125
3108.55757	2845.1125
3110.92066	2834.6125
3113.28232	2837.6125
3115.64255	2824.6125
3118.00134	2848.6125
3120.35871	2834.2125
3122.71466	2840.3125
3125.06917	2844.4125
3127.42226	2847.6125
3129.77393	2851.5125
3132.12417	2861.1125
3134.47299	2871.4125
3136.82039	2876.5125
3139.16636	2873.1125
3141.51092	2873.4125
3143.85406	2883.2125
3146.19579	2901.9125
3148.53609	2898.8125
3150.87499	2920.5125
3153.21246	2915.6125
3155.54853	2922.9125
3157.88318	2924.3125
3160.21642	2941.8125
3162.54826	2940.9125
3164.87868	2951.7125
3167.2077	2958.9125
3169.5353	2961.4125
3171.86151	2958.1125
3174.18631	2962.0125
3176.5097	2967.2125
3178.83169	2968.8125
3181.15228	2969.2125
3183.47147	2971.9125
3185.78926	2984.2125
3188.10565	2988.4125
3190.42065	3002.7125
3192.73424	3004.1125
3195.04645	2999.5125
3197.35725	3004.6125
3199.66667	3022.9125
3201.97469	3022.2125
3204.28132	3023.5125
3206.58656	3050.8125
3208.8904	3045.0125
3211.19287	3047.9125
3213.49394	3051.8125
3215.79363	3056.4125
3218.09193	3067.4125
3220.38884	3069.9125
3222.68438	3085.1125
3224.97853	3065.3125
3227.2713	3054.9125
3229.56269	3059.6125
3231.8527	3052.2125
3234.14133	3070.0125
3236.42858	3060.1125
3238.71446	3054.7125
3240.99896	3047.1125
3243.28209	3047.6125
3245.56384	3044.3125
3247.84423	3055.4125
3250.12324	3072.9125
3252.40088	3057.5125
3254.67715	3057.2125
3256.95205	3054.0125
3259.22558	3054.3125
3261.49775	3046.0125
3263.76855	3055.6125
3266.03799	3063.1125
3268.30606	3041.0125
3270.57277	3035.3125
3272.83812	3022.0125
3275.10211	3030.9125
3277.36474	3027.7125
3279.62601	3028.0125
3281.88593	3015.8125
3284.14448	3022.9125
3286.40168	3020.3125
3288.65753	3023.2125
3290.91202	3014.6125
3293.16516	3010.8125
3295.41695	2997.8125
3297.66738	2982.8125
3299.91647	2958.9125
3302.16421	2959.2125
3304.4106	2936.7125
3306.65564	2926.2125
3308.89933	2916.7125
3311.14169	2901.2125
3313.38269	2870.1125
3315.62236	2863.1125
3317.86068	2831.2125
3320.09766	2801.7125
3322.3333	2795.0125
3324.5676	2789.6125
3326.80056	2758.0125
3329.03219	2731.3125
3331.26248	1.1125
3333.49143	-0.0875
3335.71905	0.5125
