Data from AgNPs_FTO_APTES_UA_0.1mM_CRN_20uM_NaF_0.1M_Addition_RamanShift__6__12-03-57-584.txt Node

Date: Mon Dec 20 12:03:57 GMT 2021
User: TCL
Spectrometer: QEP01345
Trigger mode: 4
Integration Time (sec): 7.000000E0
Scans to average: 10
Electric dark correction enabled: true
Nonlinearity correction enabled: false
Boxcar width: 0
XAxis mode: Raman Shifts
Number of Pixels in Spectrum: 1044
>>>>>Begin Spectral Data<<<<<
46.04893	0.825
50.45542	-2.375
54.85868	-2.075
59.25871	1.525
63.6555	29.025
68.04907	29.825
72.43941	35.625
76.82654	38.425
81.21044	36.225
85.59113	41.825
89.96862	41.825
94.34289	42.025
98.71396	43.625
103.08183	41.425
107.4465	44.225
111.80798	49.025
116.16626	49.825
120.52136	51.625
124.87327	50.725
129.222	50.325
133.56755	50.625
137.90993	55.825
142.24913	57.225
146.58517	60.625
150.91804	72.225
155.24774	84.925
159.57429	98.825
163.89768	124.125
168.21792	163.025
172.53501	210.525
176.84895	286.725
181.15975	399.025
185.46741	543.525
189.77193	750.425
194.07331	992.125
198.37157	1293.425
202.6667	1591.525
206.9587	1910.625
211.24758	2218.425
215.53334	2522.425
219.81599	2849.225
224.09553	3214.025
228.37195	3627.525
232.64527	4045.425
236.91549	4518.525
241.18261	4996.425
245.44663	5403.625
249.70755	5765.725
253.96539	6044.425
258.22014	6248.925
262.4718	6394.725
266.72039	6465.325
270.96589	6483.425
275.20832	6457.825
279.44768	6359.125
283.68397	6259.625
287.91719	6146.525
292.14735	6097.625
296.37445	6050.325
300.59849	5994.625
304.81948	5986.725
309.03742	5965.125
313.25231	5903.725
317.46415	5834.725
321.67296	5740.825
325.87872	5642.625
330.08145	5589.225
334.28114	5579.325
338.47781	5589.325
342.67145	5631.825
346.86207	5675.125
351.04966	5743.025
355.23424	5815.525
359.4158	5909.925
363.59435	5964.325
367.76989	6018.125
371.94243	6079.025
376.11196	6118.025
380.27849	6165.525
384.44203	6222.325
388.60257	6285.225
392.76012	6359.925
396.91468	6420.325
401.06626	6479.925
405.21485	6515.625
409.36047	6525.725
413.50311	6469.125
417.64277	6464.125
421.77947	6429.825
425.9132	6456.025
430.04396	6489.025
434.17176	6503.825
438.2966	6538.025
442.41849	6569.525
446.53742	6667.525
450.6534	6735.025
454.76644	6785.825
458.87653	6821.225
462.98368	6835.025
467.08789	6831.925
471.18916	6828.725
475.2875	6849.825
479.38291	6891.825
483.4754	6954.925
487.56496	7058.225
491.6516	7134.225
495.73531	7238.625
499.81612	7275.925
503.89401	7250.125
507.96899	7175.225
512.04106	7095.225
516.11023	7024.725
520.1765	6979.025
524.23987	7010.925
528.30034	7016.725
532.35792	7028.025
536.41261	6982.125
540.46441	6913.325
544.51333	6840.625
548.55936	6811.825
552.60252	6790.425
556.64279	6841.725
560.6802	6851.425
564.71473	6842.725
568.7464	6893.525
572.7752	6944.225
576.80114	7030.925
580.82422	7115.225
584.84444	7247.225
588.86181	7411.325
592.87633	7512.725
596.888	7506.225
600.89682	7391.425
604.9028	7393.925
608.90594	7686.425
612.90624	8079.525
616.90371	8021.625
620.89834	7607.625
624.89015	7594.425
628.87913	7983.625
632.86528	8450.625
636.84862	8833.525
640.82913	8849.425
644.80683	8570.325
648.78172	8146.925
652.75379	7776.625
656.72306	7515.125
660.68952	7358.525
664.65319	7197.625
668.61405	7060.825
672.57211	6986.425
676.52738	7016.225
680.47986	7038.325
684.42955	6993.525
688.37646	6964.225
692.32058	6920.425
696.26192	6847.925
700.20048	6828.625
704.13626	6801.425
708.06928	6809.025
711.99952	6771.025
715.927	6785.625
719.85171	6828.025
723.77365	6888.225
727.69284	6931.925
731.60928	6887.325
735.52295	6800.425
739.43388	6725.725
743.34206	6699.925
747.24749	6724.425
751.15017	6739.725
755.05012	6754.325
758.94733	6825.125
762.8418	6977.025
766.73354	7205.525
770.62254	7426.525
774.50882	7487.325
778.39237	7315.325
782.27321	7044.125
786.15132	6797.825
790.02671	6672.225
793.89938	6616.225
797.76935	6624.825
801.6366	6665.825
805.50115	6812.225
809.36299	7021.425
813.22213	7162.025
817.07857	7147.325
820.93231	6976.625
824.78336	6763.825
828.63172	6589.125
832.47738	6472.025
836.32036	6407.425
840.16066	6399.225
843.99827	6374.625
847.8332	6360.125
851.66546	6361.125
855.49504	6383.625
859.32195	6372.225
863.1462	6394.325
866.96777	6438.725
870.78668	6506.225
874.60293	6599.525
878.41652	6725.625
882.22745	6885.725
886.03573	6973.225
889.84136	7020.925
893.64433	6962.325
897.44466	6801.625
901.24235	6592.325
905.0374	6446.125
908.8298	6329.325
912.61957	6254.525
916.40671	6235.625
920.19121	6239.325
923.97308	6229.525
927.75233	6224.425
931.52895	6185.925
935.30295	6148.925
939.07433	6101.425
942.84309	6048.525
946.60924	6017.925
950.37278	6008.525
954.13371	5989.225
957.89203	5985.525
961.64774	5961.625
965.40086	5951.725
969.15137	5956.125
972.89929	5915.125
976.64461	5899.125
980.38733	5898.325
984.12747	5887.725
987.86502	5886.225
991.59999	5908.725
995.33237	5950.825
999.06217	6027.725
1002.78939	6120.225
1006.51404	6168.325
1010.23611	6262.125
1013.95561	6322.025
1017.67255	6343.725
1021.38692	6348.125
1025.09872	6289.525
1028.80796	6226.725
1032.51465	6160.825
1036.21877	6104.625
1039.92035	6065.625
1043.61937	6053.025
1047.31584	6004.025
1051.00976	6024.625
1054.70114	6038.925
1058.38998	6075.925
1062.07627	6122.525
1065.76003	6196.025
1069.44126	6234.625
1073.11995	6315.325
1076.79611	6382.925
1080.46974	6398.825
1084.14085	6347.825
1087.80943	6305.425
1091.47549	6276.725
1095.13903	6265.225
1098.80005	6204.225
1102.45857	6137.725
1106.11456	6106.725
1109.76805	6140.125
1113.41903	6236.125
1117.06751	6448.425
1120.71348	6777.525
1124.35696	7189.625
1127.99793	7700.125
1131.63641	8085.725
1135.2724	8254.725
1138.90589	8205.725
1142.5369	7963.825
1146.16542	7618.225
1149.79145	7241.125
1153.415	6898.025
1157.03607	6626.925
1160.65467	6476.725
1164.27079	6425.625
1167.88443	6456.225
1171.49561	6602.725
1175.10432	6775.925
1178.71056	7042.425
1182.31434	7301.525
1185.91565	7445.525
1189.51451	7481.025
1193.11091	7491.125
1196.70485	7502.725
1200.29634	7519.925
1203.88538	7536.425
1207.47197	7479.825
1211.05612	7392.425
1214.63782	7259.525
1218.21708	7069.225
1221.79391	6873.125
1225.36829	6726.925
1228.94024	6608.625
1232.50976	6528.325
1236.07685	6463.925
1239.6415	6450.425
1243.20374	6449.625
1246.76355	6477.525
1250.32093	6547.225
1253.8759	6605.825
1257.42845	6707.025
1260.97859	6804.625
1264.52631	6853.925
1268.07163	6937.025
1271.61453	6973.025
1275.15503	7024.125
1278.69312	7086.025
1282.22882	7109.625
1285.76211	7159.125
1289.29301	7257.625
1292.82151	7408.625
1296.34761	7554.525
1299.87133	7784.825
1303.39266	8039.125
1306.9116	8280.025
1310.42815	8501.925
1313.94233	8675.525
1317.45412	8691.525
1320.96354	8615.425
1324.47058	8534.525
1327.97525	8451.925
1331.47754	8390.225
1334.97747	8345.425
1338.47502	8345.525
1341.97022	8395.925
1345.46305	8453.225
1348.95352	8544.525
1352.44163	8703.125
1355.92738	8922.325
1359.41078	9246.025
1362.89183	9589.125
1366.37053	9585.725
1369.84688	9129.925
1373.32088	8541.625
1376.79254	8112.525
1380.26186	7877.925
1383.72883	7770.225
1387.19347	7666.725
1390.65578	7546.025
1394.11575	7421.825
1397.57339	7342.125
1401.0287	7251.625
1404.48168	7207.725
1407.93234	7091.125
1411.38068	6956.425
1414.82669	6758.025
1418.27039	6575.625
1421.71177	6395.225
1425.15083	6231.825
1428.58758	6171.825
1432.02203	6134.825
1435.45416	6169.725
1438.88399	6216.025
1442.31151	6244.425
1445.73673	6271.725
1449.15965	6302.125
1452.58027	6339.225
1455.9986	6314.725
1459.41463	6368.725
1462.82837	6412.725
1466.23982	6461.425
1469.64898	6526.025
1473.05586	6547.325
1476.46045	6600.125
1479.86276	6585.325
1483.26279	6608.525
1486.66054	6660.425
1490.05602	6708.425
1493.44922	6817.225
1496.84016	6967.025
1500.22882	7152.825
1503.61521	7426.625
1506.99934	7690.025
1510.38121	7902.925
1513.76081	7972.225
1517.13816	7828.425
1520.51324	7545.625
1523.88607	7316.525
1527.25665	7169.925
1530.62498	7137.325
1533.99105	7156.525
1537.35488	7142.525
1540.71647	7124.425
1544.07581	7079.025
1547.4329	7053.025
1550.78776	7011.125
1554.14038	7010.525
1557.49077	7016.525
1560.83892	7014.725
1564.18484	7034.625
1567.52853	7069.125
1570.86999	7122.425
1574.20922	7144.325
1577.54624	7182.925
1580.88103	7133.625
1584.2136	7048.225
1587.54395	7017.825
1590.87208	7053.725
1594.19801	7175.125
1597.52172	7328.925
1600.84321	7405.925
1604.16251	7282.025
1607.47959	7081.925
1610.79447	6869.925
1614.10715	6693.825
1617.41763	6535.325
1620.7259	6431.825
1624.03199	6393.725
1627.33587	6422.725
1630.63757	6528.725
1633.93707	6699.725
1637.23439	7001.725
1640.52951	7400.225
1643.82246	7868.225
1647.11321	8329.925
1650.40179	8533.825
1653.68819	8343.525
1656.97241	7885.225
1660.25446	7388.625
1663.53433	6988.025
1666.81203	6712.025
1670.08756	6553.825
1673.36092	6451.925
1676.63211	6379.725
1679.90115	6331.725
1683.16801	6267.925
1686.43272	6167.725
1689.69527	6079.325
1692.95567	5971.225
1696.2139	5873.025
1699.46999	5803.225
1702.72392	5696.225
1705.97571	5584.025
1709.22535	5456.525
1712.47284	5340.225
1715.71819	5186.925
1718.96139	5094.425
1722.20246	4978.725
1725.44139	4907.125
1728.67818	4804.725
1731.91284	4747.525
1735.14537	4687.325
1738.37576	4666.825
1741.60403	4625.225
1744.83017	4586.425
1748.05418	4566.825
1751.27607	4555.425
1754.49584	4551.925
1757.71349	4542.125
1760.92903	4539.325
1764.14244	4519.025
1767.35375	4514.825
1770.56294	4497.825
1773.77002	4477.525
1776.97499	4464.725
1780.17785	4446.925
1783.37861	4428.625
1786.57727	4413.425
1789.77382	4406.725
1792.96828	4393.925
1796.16064	4368.525
1799.3509	4368.625
1802.53907	4353.525
1805.72514	4321.925
1808.90913	4311.025
1812.09102	4313.125
1815.27083	4298.525
1818.44856	4286.125
1821.6242	4278.325
1824.79776	4263.325
1827.96924	4272.825
1831.13864	4261.525
1834.30597	4238.825
1837.47122	4258.625
1840.6344	4229.625
1843.7955	4224.625
1846.95454	4231.925
1850.11151	4217.425
1853.26642	4209.425
1856.41926	4210.625
1859.57004	4211.125
1862.71876	4217.725
1865.86542	4196.225
1869.01003	4188.825
1872.15258	4168.525
1875.29308	4171.225
1878.43152	4168.625
1881.56792	4148.925
1884.70227	4156.225
1887.83457	4144.625
1890.96482	4125.725
1894.09304	4128.925
1897.21921	4109.125
1900.34335	4103.925
1903.46544	4088.625
1906.58551	4099.725
1909.70353	4089.625
1912.81953	4081.625
1915.93349	4067.025
1919.04543	4059.725
1922.15534	4052.025
1925.26322	4055.725
1928.36908	4023.225
1931.47292	4010.125
1934.57473	4016.225
1937.67453	3992.625
1940.77232	3988.325
1943.86808	3970.925
1946.96184	3949.225
1950.05358	3948.325
1953.14331	3938.825
1956.23103	3923.125
1959.31675	3931.525
1962.40046	3896.525
1965.48217	3893.825
1968.56188	3879.525
1971.63959	3868.725
1974.7153	3851.525
1977.78901	3836.625
1980.86073	3832.025
1983.93046	3802.925
1986.99819	3801.325
1990.06394	3787.125
1993.1277	3762.825
1996.18947	3758.525
1999.24925	3765.225
2002.30706	3751.925
2005.36288	3728.825
2008.41672	3714.925
2011.46859	3705.425
2014.51848	3704.025
2017.56639	3679.425
2020.61233	3665.525
2023.6563	3661.925
2026.6983	3634.025
2029.73833	3634.925
2032.7764	3648.125
2035.8125	3615.225
2038.84664	3611.625
2041.87881	3598.525
2044.90903	3596.225
2047.93729	3581.025
2050.96359	3583.825
2053.98794	3577.925
2057.01034	3583.725
2060.03078	3569.725
2063.04927	3555.225
2066.06582	3569.325
2069.08042	3559.125
2072.09307	3554.825
2075.10378	3547.325
2078.11255	3546.225
2081.11938	3549.225
2084.12426	3539.725
2087.12722	3529.325
2090.12824	3525.525
2093.12732	3536.825
2096.12447	3541.425
2099.11969	3528.325
2102.11299	3534.625
2105.10435	3547.425
2108.09379	3535.325
2111.08131	3525.825
2114.0669	3524.425
2117.05057	3542.125
2120.03233	3531.125
2123.01216	3536.725
2125.99008	3547.125
2128.96609	3535.125
2131.94018	3538.325
2134.91236	3541.325
2137.88263	3527.125
2140.851	3533.425
2143.81746	3529.425
2146.78201	3524.425
2149.74466	3531.725
2152.7054	3529.125
2155.66425	3528.025
2158.6212	3519.525
2161.57625	3517.825
2164.52941	3514.225
2167.48067	3516.225
2170.43004	3522.425
2173.37752	3510.225
2176.32311	3500.725
2179.26681	3520.625
2182.20863	3503.025
2185.14856	3506.025
2188.08661	3506.525
2191.02278	3497.625
2193.95707	3484.625
2196.88948	3493.325
2199.82001	3489.025
2202.74867	3463.825
2205.67545	3466.425
2208.60037	3455.525
2211.52341	3452.925
2214.44458	3425.525
2217.36388	3437.025
2220.28132	3428.125
2223.1969	3407.825
2226.11061	3424.825
2229.02246	3409.325
2231.93245	3384.325
2234.84058	3386.725
2237.74686	3380.625
2240.65128	3381.725
2243.55385	3372.025
2246.45456	3363.425
2249.35343	3356.925
2252.25044	3347.625
2255.14561	3351.025
2258.03893	3347.925
2260.93041	3341.825
2263.82004	3327.525
2266.70783	3306.925
2269.59378	3316.225
2272.4779	3299.325
2275.36017	3300.625
2278.24061	3281.925
2281.11922	3264.825
2283.996	3286.925
2286.87094	3268.225
2289.74405	3265.625
2292.61534	3253.625
2295.4848	3255.025
2298.35243	3237.525
2301.21824	3225.425
2304.08223	3225.325
2306.94439	3219.525
2309.80474	3218.525
2312.66327	3219.625
2315.51999	3207.925
2318.37489	3214.325
2321.22797	3186.125
2324.07925	3195.925
2326.92871	3195.025
2329.77637	3175.725
2332.62222	3178.625
2335.46626	3171.225
2338.3085	3159.125
2341.14893	3163.725
2343.98756	3162.325
2346.8244	3149.625
2349.65943	3142.525
2352.49267	3145.625
2355.32411	3144.725
2358.15376	3135.725
2360.98161	3137.625
2363.80768	3127.625
2366.63195	3124.825
2369.45444	3113.425
2372.27514	3119.325
2375.09405	3117.425
2377.91118	3104.525
2380.72652	3110.525
2383.54009	3087.325
2386.35187	3094.125
2389.16188	3076.925
2391.97011	3073.225
2394.77657	3059.225
2397.58125	3062.825
2400.38416	3053.325
2403.18529	3040.625
2405.98466	3051.625
2408.78226	3031.725
2411.57809	3018.525
2414.37216	3017.625
2417.16446	3017.425
2419.955	3006.325
2422.74378	3000.625
2425.5308	3004.925
2428.31606	3001.025
2431.09956	2984.425
2433.88131	2987.625
2436.6613	2988.525
2439.43954	2993.425
2442.21603	2984.425
2444.99077	2962.325
2447.76377	2973.525
2450.53501	2972.025
2453.30451	2971.125
2456.07226	2975.925
2458.83827	2966.625
2461.60254	2958.025
2464.36507	2946.425
2467.12586	2926.525
2469.88492	2935.125
2472.64224	2924.125
2475.39782	2937.425
2478.15167	2945.625
2480.90379	2933.525
2483.65417	2930.125
2486.40283	2930.225
2489.14976	2919.525
2491.89497	2912.825
2494.63845	2919.225
2497.3802	2918.625
2500.12024	2907.725
2502.85855	2903.625
2505.59514	2901.125
2508.33002	2894.025
2511.06318	2897.825
2513.79462	2876.725
2516.52435	2878.125
2519.25237	2866.425
2521.97867	2873.925
2524.70327	2877.225
2527.42616	2857.625
2530.14734	2855.625
2532.86681	2854.925
2535.58458	2836.225
2538.30065	2838.825
2541.01501	2834.425
2543.72768	2820.025
2546.43864	2827.025
2549.14791	2818.125
2551.85548	2815.925
2554.56136	2794.625
2557.26554	2798.525
2559.96803	2788.525
2562.66883	2790.325
2565.36794	2780.425
2568.06536	2780.625
2570.7611	2771.725
2573.45514	2780.125
2576.14751	2773.825
2578.83819	2758.425
2581.52719	2759.025
2584.21451	2746.425
2586.90015	2743.925
2589.58411	2735.925
2592.2664	2732.625
2594.94701	2723.525
2597.62594	2730.525
2600.30321	2710.225
2602.9788	2702.925
2605.65273	2705.425
2608.32498	2696.725
2610.99557	2696.225
2613.66449	2686.125
2616.33175	2687.125
2618.99734	2695.025
2621.66128	2684.325
2624.32355	2683.325
2626.98416	2670.625
2629.64311	2674.025
2632.30041	2678.325
2634.95605	2664.625
2637.61004	2661.625
2640.26238	2669.125
2642.91306	2645.125
2645.56209	2634.825
2648.20948	2647.225
2650.85521	2636.225
2653.4993	2634.625
2656.14175	2640.025
2658.78255	2636.825
2661.42171	2633.525
2664.05923	2636.925
2666.6951	2631.225
2669.32934	2620.425
2671.96194	2617.025
2674.59291	2631.525
2677.22224	2640.125
2679.84993	2623.325
2682.476	2631.125
2685.10043	2641.525
2687.72324	2624.025
2690.34441	2631.425
2692.96396	2619.525
2695.58188	2635.425
2698.19818	2628.625
2700.81285	2626.925
2703.4259	2640.625
2706.03733	2654.725
2708.64714	2660.325
2711.25533	2641.525
2713.86191	2646.425
2716.46687	2630.525
2719.07021	2626.925
2721.67194	2636.825
2724.27206	2631.025
2726.87057	2632.225
2729.46747	2618.025
2732.06276	2623.225
2734.65644	2623.725
2737.24852	2613.325
2739.83899	2616.725
2742.42786	2603.025
2745.01513	2600.425
2747.60079	2607.125
2750.18486	2602.625
2752.76733	2586.325
2755.3482	2589.125
2757.92747	2590.925
2760.50515	2589.125
2763.08123	2581.825
2765.65573	2573.025
2768.22863	2574.325
2770.79994	2577.225
2773.36967	2575.525
2775.9378	2566.325
2778.50435	2546.525
2781.06932	2551.225
2783.6327	2561.925
2786.1945	2548.725
2788.75471	2530.025
2791.31335	2535.725
2793.87041	2520.525
2796.42589	2515.925
2798.97979	2519.025
2801.53212	2514.225
2804.08288	2509.725
2806.63206	2508.125
2809.17967	2496.825
2811.72571	2479.125
2814.27018	2484.825
2816.81308	2480.225
2819.35442	2487.525
2821.89419	2470.225
2824.43239	2467.125
2826.96904	2469.425
2829.50412	2462.025
2832.03763	2463.925
2834.56959	2462.225
2837.1	2460.325
2839.62884	2462.125
2842.15613	2450.025
2844.68186	2463.925
2847.20604	2468.625
2849.72867	2454.225
2852.24974	2463.525
2854.76927	2456.525
2857.28724	2466.525
2859.80367	2464.725
2862.31855	2460.525
2864.83189	2451.625
2867.34368	2452.225
2869.85393	2456.825
2872.36264	2434.425
2874.8698	2450.125
2877.37543	2454.325
2879.87952	2448.225
2882.38207	2454.025
2884.88308	2456.625
2887.38256	2452.125
2889.88051	2457.425
2892.37692	2444.825
2894.8718	2451.625
2897.36515	2453.525
2899.85698	2453.025
2902.34727	2457.825
2904.83604	2442.925
2907.32328	2461.325
2909.809	2451.225
2912.29319	2465.225
2914.77587	2454.425
2917.25702	2437.525
2919.73665	2455.025
2922.21476	2448.325
2924.69136	2442.225
2927.16644	2458.325
2929.64	2454.525
2932.11205	2452.925
2934.58258	2445.025
2937.05161	2452.325
2939.51912	2441.025
2941.98513	2444.525
2944.44962	2435.325
2946.91261	2430.925
2949.37409	2438.225
2951.83407	2434.025
2954.29254	2435.325
2956.74951	2430.225
2959.20498	2426.025
2961.65895	2414.925
2964.11142	2420.425
2966.56239	2419.725
2969.01186	2421.025
2971.45984	2403.725
2973.90632	2397.225
2976.35131	2398.125
2978.7948	2390.525
2981.23681	2395.825
2983.67732	2398.225
2986.11635	2382.825
2988.55388	2389.925
2990.98993	2373.725
2993.4245	2376.725
2995.85758	2377.625
2998.28917	2375.625
3000.71928	2365.325
3003.14791	2366.525
3005.57506	2383.425
3008.00073	2357.225
3010.42493	2340.825
3012.84764	2354.825
3015.26888	2354.525
3017.68865	2355.025
3020.10694	2357.325
3022.52376	2346.125
3024.9391	2341.425
3027.35298	2350.825
3029.76539	2338.325
3032.17632	2354.325
3034.5858	2336.025
3036.9938	2346.225
3039.40034	2340.525
3041.80542	2343.025
3044.20903	2344.925
3046.61118	2344.025
3049.01187	2343.425
3051.4111	2344.225
3053.80888	2344.425
3056.20519	2345.125
3058.60005	2339.625
3060.99345	2335.425
3063.3854	2332.625
3065.7759	2334.425
3068.16494	2334.225
3070.55254	2327.425
3072.93868	2330.525
3075.32338	2324.825
3077.70662	2333.325
3080.08842	2335.225
3082.46878	2333.125
3084.84769	2339.425
3087.22515	2345.325
3089.60118	2354.525
3091.97576	2353.525
3094.3489	2356.125
3096.72061	2346.825
3099.09087	2358.825
3101.4597	2362.825
3103.82709	2363.025
3106.19305	2358.425
3108.55757	2371.025
3110.92066	2364.925
3113.28232	2359.025
3115.64255	2365.425
3118.00134	2362.725
3120.35871	2365.425
3122.71466	2385.025
3125.06917	2380.825
3127.42226	2366.925
3129.77393	2373.225
3132.12417	2377.725
3134.47299	2389.925
3136.82039	2399.125
3139.16636	2398.825
3141.51092	2400.325
3143.85406	2417.425
3146.19579	2419.125
3148.53609	2433.125
3150.87499	2429.525
3153.21246	2439.725
3155.54853	2455.525
3157.88318	2450.725
3160.21642	2462.025
3162.54826	2467.925
3164.87868	2463.625
3167.2077	2462.225
3169.5353	2474.625
3171.86151	2481.825
3174.18631	2471.625
3176.5097	2477.825
3178.83169	2481.625
3181.15228	2482.725
3183.47147	2483.325
3185.78926	2489.325
3188.10565	2494.725
3190.42065	2497.425
3192.73424	2510.825
3195.04645	2498.125
3197.35725	2492.025
3199.66667	2511.325
3201.97469	2520.925
3204.28132	2522.525
3206.58656	2541.325
3208.8904	2529.425
3211.19287	2523.525
3213.49394	2532.525
3215.79363	2542.625
3218.09193	2550.025
3220.38884	2551.125
3222.68438	2565.725
3224.97853	2537.525
3227.2713	2548.125
3229.56269	2552.725
3231.8527	2548.025
3234.14133	2540.625
3236.42858	2539.225
3238.71446	2539.325
3240.99896	2528.325
3243.28209	2543.825
3245.56384	2538.325
3247.84423	2536.225
3250.12324	2547.125
3252.40088	2529.225
3254.67715	2527.625
3256.95205	2521.225
3259.22558	2524.725
3261.49775	2513.125
3263.76855	2522.725
3266.03799	2509.825
3268.30606	2518.025
3270.57277	2500.925
3272.83812	2502.325
3275.10211	2493.125
3277.36474	2491.125
3279.62601	2496.425
3281.88593	2499.125
3284.14448	2495.525
3286.40168	2492.725
3288.65753	2479.925
3290.91202	2482.025
3293.16516	2477.525
3295.41695	2463.825
3297.66738	2447.325
3299.91647	2446.325
3302.16421	2427.725
3304.4106	2425.225
3306.65564	2411.625
3308.89933	2397.725
3311.14169	2385.325
3313.38269	2383.125
3315.62236	2357.825
3317.86068	2335.225
3320.09766	2315.625
3322.3333	2300.125
3324.5676	2307.725
3326.80056	2270.125
3329.03219	2257.725
3331.26248	1.825
3333.49143	1.125
3335.71905	-0.475
