Data from AgNPs_FTO_APTES_UA_0.1mM_CRN_50uM_NaF_0.1M_Addition_RamanShift__32__13-13-57-663.txt Node

Date: Mon Dec 20 13:13:57 GMT 2021
User: TCL
Spectrometer: QEP01345
Trigger mode: 4
Integration Time (sec): 7.000000E0
Scans to average: 10
Electric dark correction enabled: true
Nonlinearity correction enabled: false
Boxcar width: 0
XAxis mode: Raman Shifts
Number of Pixels in Spectrum: 1044
>>>>>Begin Spectral Data<<<<<
46.04893	0.3375
50.45542	-1.9625
54.85868	-1.2625
59.25871	1.5375
63.6555	30.1375
68.04907	28.9375
72.43941	32.4375
76.82654	31.4375
81.21044	34.2375
85.59113	38.7375
89.96862	33.6375
94.34289	37.5375
98.71396	37.9375
103.08183	38.1375
107.4465	42.8375
111.80798	44.3375
116.16626	43.7375
120.52136	43.1375
124.87327	46.3375
129.222	49.8375
133.56755	49.8375
137.90993	55.7375
142.24913	58.6375
146.58517	61.8375
150.91804	75.4375
155.24774	85.8375
159.57429	105.6375
163.89768	135.2375
168.21792	174.1375
172.53501	231.1375
176.84895	311.2375
181.15975	435.2375
185.46741	601.8375
189.77193	832.9375
194.07331	1105.5375
198.37157	1437.9375
202.6667	1789.0375
206.9587	2137.2375
211.24758	2469.8375
215.53334	2830.8375
219.81599	3214.7375
224.09553	3633.0375
228.37195	4121.1375
232.64527	4628.5375
236.91549	5129.9375
241.18261	5569.2375
245.44663	5932.1375
249.70755	6209.9375
253.96539	6400.6375
258.22014	6551.8375
262.4718	6637.3375
266.72039	6695.4375
270.96589	6676.1375
275.20832	6566.8375
279.44768	6407.0375
283.68397	6232.9375
287.91719	6110.1375
292.14735	6148.1375
296.37445	6350.9375
300.59849	6711.5375
304.81948	7171.9375
309.03742	7496.0375
313.25231	7512.3375
317.46415	7076.0375
321.67296	6372.4375
325.87872	5716.8375
330.08145	5397.4375
334.28114	5332.4375
338.47781	5438.7375
342.67145	5592.3375
346.86207	5905.2375
351.04966	6385.4375
355.23424	6948.2375
359.4158	7404.8375
363.59435	7619.8375
367.76989	7717.4375
371.94243	7698.0375
376.11196	7672.5375
380.27849	7615.2375
384.44203	7515.8375
388.60257	7336.2375
392.76012	7222.2375
396.91468	7212.8375
401.06626	7387.5375
405.21485	7484.4375
409.36047	7228.3375
413.50311	6656.8375
417.64277	6088.2375
421.77947	5726.1375
425.9132	5534.4375
430.04396	5468.1375
434.17176	5460.3375
438.2966	5545.5375
442.41849	5687.4375
446.53742	5885.9375
450.6534	6026.6375
454.76644	6094.7375
458.87653	6088.1375
462.98368	6015.4375
467.08789	5909.0375
471.18916	5762.1375
475.2875	5645.2375
479.38291	5570.1375
483.4754	5554.3375
487.56496	5641.8375
491.6516	5768.6375
495.73531	5850.2375
499.81612	5791.6375
503.89401	5759.7375
507.96899	5787.8375
512.04106	5932.0375
516.11023	6181.4375
520.1765	6425.6375
524.23987	6542.4375
528.30034	6485.8375
532.35792	6310.6375
536.41261	6072.0375
540.46441	5747.4375
544.51333	5502.8375
548.55936	5371.0375
552.60252	5398.7375
556.64279	5543.6375
560.6802	5587.1375
564.71473	5723.0375
568.7464	6081.1375
572.7752	6260.5375
576.80114	5972.3375
580.82422	5592.6375
584.84444	5457.8375
588.86181	5509.6375
592.87633	5597.5375
596.888	5662.2375
600.89682	5878.2375
604.9028	6816.8375
608.90594	9489.0375
612.90624	13360.8375
616.90371	13613.8375
620.89834	9507.7375
624.89015	7731.4375
628.87913	7909.7375
632.86528	8538.4375
636.84862	8916.2375
640.82913	8584.0375
644.80683	7678.6375
648.78172	6766.5375
652.75379	6248.7375
656.72306	6179.1375
660.68952	6313.7375
664.65319	6085.6375
668.61405	5539.2375
672.57211	5268.0375
676.52738	5235.0375
680.47986	5230.8375
684.42955	5171.5375
688.37646	5120.3375
692.32058	5118.5375
696.26192	5134.3375
700.20048	5184.0375
704.13626	5194.4375
708.06928	5169.8375
711.99952	5089.5375
715.927	5117.8375
719.85171	5201.8375
723.77365	5314.0375
727.69284	5306.5375
731.60928	5187.7375
735.52295	5070.4375
739.43388	5040.8375
743.34206	5064.7375
747.24749	5083.5375
751.15017	5094.1375
755.05012	5193.5375
758.94733	5494.4375
762.8418	6311.4375
766.73354	7730.3375
770.62254	9212.5375
774.50882	10153.7375
778.39237	9902.6375
782.27321	8350.0375
786.15132	6690.7375
790.02671	5734.7375
793.89938	5371.8375
797.76935	5301.5375
801.6366	5476.3375
805.50115	5876.5375
809.36299	6309.3375
813.22213	6466.4375
817.07857	6256.3375
820.93231	5853.9375
824.78336	5427.7375
828.63172	5149.1375
832.47738	4986.6375
836.32036	4880.0375
840.16066	4779.6375
843.99827	4728.4375
847.8332	4707.0375
851.66546	4692.0375
855.49504	4709.0375
859.32195	4740.3375
863.1462	4782.0375
866.96777	4875.9375
870.78668	5054.7375
874.60293	5337.0375
878.41652	5667.8375
882.22745	5992.6375
886.03573	6204.0375
889.84136	6145.3375
893.64433	5884.6375
897.44466	5520.7375
901.24235	5197.0375
905.0374	4907.7375
908.8298	4718.0375
912.61957	4588.9375
916.40671	4523.8375
920.19121	4485.0375
923.97308	4501.7375
927.75233	4557.9375
931.52895	4663.5375
935.30295	4621.5375
939.07433	4467.8375
942.84309	4300.0375
946.60924	4200.6375
950.37278	4137.0375
954.13371	4120.3375
957.89203	4123.7375
961.64774	4106.4375
965.40086	4095.9375
969.15137	4074.5375
972.89929	4050.9375
976.64461	4059.5375
980.38733	4054.3375
984.12747	4085.2375
987.86502	4103.2375
991.59999	4154.4375
995.33237	4249.9375
999.06217	4413.1375
1002.78939	4616.1375
1006.51404	4859.8375
1010.23611	5120.9375
1013.95561	5265.4375
1017.67255	5285.8375
1021.38692	5154.1375
1025.09872	4973.6375
1028.80796	4749.8375
1032.51465	4575.0375
1036.21877	4488.7375
1039.92035	4430.6375
1043.61937	4424.6375
1047.31584	4434.8375
1051.00976	4474.3375
1054.70114	4494.7375
1058.38998	4516.5375
1062.07627	4614.6375
1065.76003	4697.7375
1069.44126	4772.6375
1073.11995	4808.3375
1076.79611	4864.4375
1080.46974	4946.6375
1084.14085	5064.9375
1087.80943	5190.2375
1091.47549	5182.3375
1095.13903	5016.7375
1098.80005	4778.8375
1102.45857	4620.8375
1106.11456	4602.8375
1109.76805	4738.1375
1113.41903	5006.2375
1117.06751	5454.3375
1120.71348	6071.6375
1124.35696	6876.6375
1127.99793	7674.4375
1131.63641	8080.9375
1135.2724	8006.6375
1138.90589	7663.8375
1142.5369	7205.4375
1146.16542	6630.4375
1149.79145	6037.5375
1153.415	5529.6375
1157.03607	5204.1375
1160.65467	5050.7375
1164.27079	5098.1375
1167.88443	5327.1375
1171.49561	5783.5375
1175.10432	6664.1375
1178.71056	7915.2375
1182.31434	9019.7375
1185.91565	9411.4375
1189.51451	9215.3375
1193.11091	8824.2375
1196.70485	8477.4375
1200.29634	8386.7375
1203.88538	8209.3375
1207.47197	7695.6375
1211.05612	7002.0375
1214.63782	6389.0375
1218.21708	5891.3375
1221.79391	5508.4375
1225.36829	5241.8375
1228.94024	5060.3375
1232.50976	4933.6375
1236.07685	4914.2375
1239.6415	4916.3375
1243.20374	4977.6375
1246.76355	5029.7375
1250.32093	5093.2375
1253.8759	5184.6375
1257.42845	5313.6375
1260.97859	5499.4375
1264.52631	5709.8375
1268.07163	5879.1375
1271.61453	6024.7375
1275.15503	6060.9375
1278.69312	5991.6375
1282.22882	5952.1375
1285.76211	6107.4375
1289.29301	6345.0375
1292.82151	6642.2375
1296.34761	6982.6375
1299.87133	7512.1375
1303.39266	8469.7375
1306.9116	9921.8375
1310.42815	11410.9375
1313.94233	11973.0375
1317.45412	11267.8375
1320.96354	10024.2375
1324.47058	8835.9375
1327.97525	7948.8375
1331.47754	7441.3375
1334.97747	7332.9375
1338.47502	7491.2375
1341.97022	7931.0375
1345.46305	8672.0375
1348.95352	9689.6375
1352.44163	10996.6375
1355.92738	12718.7375
1359.41078	15141.5375
1362.89183	17081.9375
1366.37053	16195.6375
1369.84688	13329.0375
1373.32088	10688.3375
1376.79254	8958.8375
1380.26186	7977.5375
1383.72883	7414.3375
1387.19347	6944.6375
1390.65578	6542.3375
1394.11575	6199.2375
1397.57339	5982.8375
1401.0287	5858.5375
1404.48168	5798.7375
1407.93234	5686.0375
1411.38068	5583.1375
1414.82669	5524.2375
1418.27039	5428.8375
1421.71177	5303.8375
1425.15083	5147.1375
1428.58758	5085.4375
1432.02203	5087.2375
1435.45416	5132.6375
1438.88399	5119.8375
1442.31151	5095.9375
1445.73673	5123.2375
1449.15965	5164.4375
1452.58027	5144.7375
1455.9986	5062.9375
1459.41463	5024.4375
1462.82837	5081.5375
1466.23982	5235.1375
1469.64898	5370.9375
1473.05586	5465.1375
1476.46045	5513.9375
1479.86276	5651.0375
1483.26279	5856.4375
1486.66054	6138.7375
1490.05602	6498.2375
1493.44922	7063.6375
1496.84016	7960.2375
1500.22882	9314.3375
1503.61521	11245.5375
1506.99934	13370.1375
1510.38121	14935.4375
1513.76081	15110.4375
1517.13816	13549.3375
1520.51324	11156.4375
1523.88607	9020.6375
1527.25665	7702.5375
1530.62498	7038.4375
1533.99105	6698.8375
1537.35488	6544.7375
1540.71647	6527.4375
1544.07581	6643.0375
1547.4329	6775.5375
1550.78776	6885.2375
1554.14038	6958.6375
1557.49077	6990.2375
1560.83892	7103.7375
1564.18484	7337.9375
1567.52853	7685.5375
1570.86999	8025.7375
1574.20922	8230.5375
1577.54624	8168.9375
1580.88103	7611.5375
1584.2136	6851.4375
1587.54395	6379.0375
1590.87208	6302.6375
1594.19801	6554.6375
1597.52172	7020.8375
1600.84321	7269.9375
1604.16251	7117.5375
1607.47959	6819.5375
1610.79447	6464.3375
1614.10715	6087.6375
1617.41763	5796.4375
1620.7259	5631.9375
1624.03199	5564.7375
1627.33587	5583.8375
1630.63757	5676.2375
1633.93707	5916.3375
1637.23439	6338.3375
1640.52951	7051.7375
1643.82246	8170.2375
1647.11321	9569.6375
1650.40179	10717.2375
1653.68819	10517.8375
1656.97241	9172.1375
1660.25446	7606.2375
1663.53433	6468.8375
1666.81203	5752.9375
1670.08756	5271.3375
1673.36092	4964.8375
1676.63211	4727.3375
1679.90115	4572.5375
1683.16801	4432.4375
1686.43272	4312.0375
1689.69527	4196.8375
1692.95567	4105.1375
1696.2139	4041.0375
1699.46999	3941.2375
1702.72392	3865.1375
1705.97571	3780.6375
1709.22535	3713.1375
1712.47284	3671.2375
1715.71819	3614.8375
1718.96139	3572.8375
1722.20246	3538.4375
1725.44139	3484.2375
1728.67818	3423.9375
1731.91284	3372.0375
1735.14537	3335.2375
1738.37576	3299.0375
1741.60403	3285.0375
1744.83017	3254.2375
1748.05418	3236.2375
1751.27607	3204.9375
1754.49584	3200.3375
1757.71349	3186.2375
1760.92903	3165.5375
1764.14244	3149.1375
1767.35375	3120.2375
1770.56294	3100.2375
1773.77002	3073.0375
1776.97499	3063.2375
1780.17785	3030.8375
1783.37861	3018.3375
1786.57727	2982.6375
1789.77382	2993.0375
1792.96828	2975.0375
1796.16064	2969.6375
1799.3509	2944.0375
1802.53907	2930.3375
1805.72514	2913.5375
1808.90913	2896.3375
1812.09102	2903.0375
1815.27083	2891.3375
1818.44856	2863.1375
1821.6242	2863.5375
1824.79776	2850.7375
1827.96924	2841.1375
1831.13864	2850.2375
1834.30597	2823.7375
1837.47122	2835.4375
1840.6344	2812.3375
1843.7955	2815.2375
1846.95454	2807.8375
1850.11151	2795.5375
1853.26642	2792.0375
1856.41926	2804.1375
1859.57004	2797.8375
1862.71876	2797.3375
1865.86542	2794.0375
1869.01003	2779.8375
1872.15258	2767.5375
1875.29308	2760.8375
1878.43152	2759.2375
1881.56792	2745.3375
1884.70227	2743.6375
1887.83457	2737.3375
1890.96482	2743.8375
1894.09304	2729.8375
1897.21921	2732.5375
1900.34335	2729.0375
1903.46544	2715.2375
1906.58551	2721.3375
1909.70353	2721.2375
1912.81953	2718.1375
1915.93349	2712.4375
1919.04543	2704.2375
1922.15534	2698.3375
1925.26322	2684.7375
1928.36908	2686.7375
1931.47292	2660.5375
1934.57473	2659.9375
1937.67453	2648.1375
1940.77232	2629.2375
1943.86808	2636.4375
1946.96184	2616.6375
1950.05358	2607.4375
1953.14331	2597.3375
1956.23103	2588.5375
1959.31675	2585.8375
1962.40046	2568.6375
1965.48217	2579.5375
1968.56188	2574.0375
1971.63959	2568.6375
1974.7153	2544.2375
1977.78901	2557.7375
1980.86073	2540.8375
1983.93046	2524.2375
1986.99819	2512.3375
1990.06394	2500.3375
1993.1277	2487.4375
1996.18947	2476.8375
1999.24925	2477.5375
2002.30706	2464.8375
2005.36288	2457.7375
2008.41672	2429.8375
2011.46859	2435.1375
2014.51848	2418.9375
2017.56639	2414.0375
2020.61233	2403.9375
2023.6563	2395.3375
2026.6983	2405.9375
2029.73833	2383.6375
2032.7764	2376.5375
2035.8125	2367.1375
2038.84664	2361.2375
2041.87881	2378.3375
2044.90903	2364.5375
2047.93729	2363.4375
2050.96359	2355.4375
2053.98794	2361.2375
2057.01034	2354.8375
2060.03078	2340.0375
2063.04927	2335.1375
2066.06582	2337.7375
2069.08042	2335.4375
2072.09307	2314.1375
2075.10378	2332.3375
2078.11255	2320.8375
2081.11938	2326.2375
2084.12426	2324.6375
2087.12722	2319.3375
2090.12824	2318.8375
2093.12732	2319.4375
2096.12447	2323.4375
2099.11969	2314.5375
2102.11299	2301.8375
2105.10435	2311.8375
2108.09379	2298.6375
2111.08131	2311.5375
2114.0669	2312.6375
2117.05057	2320.0375
2120.03233	2324.6375
2123.01216	2321.2375
2125.99008	2315.5375
2128.96609	2318.5375
2131.94018	2322.6375
2134.91236	2331.3375
2137.88263	2312.6375
2140.851	2321.1375
2143.81746	2326.6375
2146.78201	2312.7375
2149.74466	2322.2375
2152.7054	2311.4375
2155.66425	2305.7375
2158.6212	2307.4375
2161.57625	2295.4375
2164.52941	2301.1375
2167.48067	2294.5375
2170.43004	2295.8375
2173.37752	2281.0375
2176.32311	2280.6375
2179.26681	2281.1375
2182.20863	2288.2375
2185.14856	2288.7375
2188.08661	2284.5375
2191.02278	2280.9375
2193.95707	2274.3375
2196.88948	2267.5375
2199.82001	2250.2375
2202.74867	2255.3375
2205.67545	2260.4375
2208.60037	2257.2375
2211.52341	2238.8375
2214.44458	2243.4375
2217.36388	2230.8375
2220.28132	2248.3375
2223.1969	2223.4375
2226.11061	2222.0375
2229.02246	2202.5375
2231.93245	2211.1375
2234.84058	2201.7375
2237.74686	2204.9375
2240.65128	2187.1375
2243.55385	2200.7375
2246.45456	2189.4375
2249.35343	2186.9375
2252.25044	2183.1375
2255.14561	2186.3375
2258.03893	2198.3375
2260.93041	2197.3375
2263.82004	2187.2375
2266.70783	2179.5375
2269.59378	2166.8375
2272.4779	2165.3375
2275.36017	2167.8375
2278.24061	2161.6375
2281.11922	2150.0375
2283.996	2156.4375
2286.87094	2144.6375
2289.74405	2141.5375
2292.61534	2128.8375
2295.4848	2119.0375
2298.35243	2105.4375
2301.21824	2099.4375
2304.08223	2104.5375
2306.94439	2108.8375
2309.80474	2100.6375
2312.66327	2108.9375
2315.51999	2095.3375
2318.37489	2096.6375
2321.22797	2076.1375
2324.07925	2091.1375
2326.92871	2074.0375
2329.77637	2069.7375
2332.62222	2076.8375
2335.46626	2069.7375
2338.3085	2062.3375
2341.14893	2075.3375
2343.98756	2058.6375
2346.8244	2053.6375
2349.65943	2055.2375
2352.49267	2064.3375
2355.32411	2066.1375
2358.15376	2085.2375
2360.98161	2084.7375
2363.80768	2089.8375
2366.63195	2100.1375
2369.45444	2095.6375
2372.27514	2088.7375
2375.09405	2102.0375
2377.91118	2083.6375
2380.72652	2082.2375
2383.54009	2069.0375
2386.35187	2068.3375
2389.16188	2058.7375
2391.97011	2053.0375
2394.77657	2039.2375
2397.58125	2012.3375
2400.38416	2011.8375
2403.18529	2003.1375
2405.98466	2012.2375
2408.78226	1999.1375
2411.57809	2001.2375
2414.37216	1991.8375
2417.16446	1986.2375
2419.955	1971.4375
2422.74378	1985.6375
2425.5308	1982.6375
2428.31606	1960.7375
2431.09956	1958.9375
2433.88131	1968.0375
2436.6613	1969.1375
2439.43954	1969.2375
2442.21603	1973.0375
2444.99077	1975.5375
2447.76377	1972.4375
2450.53501	1963.9375
2453.30451	1976.9375
2456.07226	1978.2375
2458.83827	1946.2375
2461.60254	1956.4375
2464.36507	1964.9375
2467.12586	1955.5375
2469.88492	1960.0375
2472.64224	1963.5375
2475.39782	1959.1375
2478.15167	1963.5375
2480.90379	1965.0375
2483.65417	1966.3375
2486.40283	1982.4375
2489.14976	1988.5375
2491.89497	1974.5375
2494.63845	1980.4375
2497.3802	1992.5375
2500.12024	1969.0375
2502.85855	1968.7375
2505.59514	1943.0375
2508.33002	1947.3375
2511.06318	1938.2375
2513.79462	1925.0375
2516.52435	1906.3375
2519.25237	1904.3375
2521.97867	1890.7375
2524.70327	1884.0375
2527.42616	1882.0375
2530.14734	1875.2375
2532.86681	1858.4375
2535.58458	1870.8375
2538.30065	1876.6375
2541.01501	1868.3375
2543.72768	1863.2375
2546.43864	1863.9375
2549.14791	1857.9375
2551.85548	1864.6375
2554.56136	1850.1375
2557.26554	1858.9375
2559.96803	1841.5375
2562.66883	1853.4375
2565.36794	1842.3375
2568.06536	1844.2375
2570.7611	1839.5375
2573.45514	1838.2375
2576.14751	1838.2375
2578.83819	1822.1375
2581.52719	1815.2375
2584.21451	1811.2375
2586.90015	1811.8375
2589.58411	1802.0375
2592.2664	1805.7375
2594.94701	1805.1375
2597.62594	1795.6375
2600.30321	1789.7375
2602.9788	1789.3375
2605.65273	1791.4375
2608.32498	1786.6375
2610.99557	1784.9375
2613.66449	1780.6375
2616.33175	1780.1375
2618.99734	1782.4375
2621.66128	1774.1375
2624.32355	1770.2375
2626.98416	1766.7375
2629.64311	1769.0375
2632.30041	1753.9375
2634.95605	1752.5375
2637.61004	1753.7375
2640.26238	1749.0375
2642.91306	1739.4375
2645.56209	1738.8375
2648.20948	1739.7375
2650.85521	1731.7375
2653.4993	1739.1375
2656.14175	1736.0375
2658.78255	1738.0375
2661.42171	1733.5375
2664.05923	1732.5375
2666.6951	1749.1375
2669.32934	1758.3375
2671.96194	1737.8375
2674.59291	1750.2375
2677.22224	1745.7375
2679.84993	1756.0375
2682.476	1750.6375
2685.10043	1745.9375
2687.72324	1754.2375
2690.34441	1742.9375
2692.96396	1743.5375
2695.58188	1755.1375
2698.19818	1752.9375
2700.81285	1758.9375
2703.4259	1768.6375
2706.03733	1787.1375
2708.64714	1773.7375
2711.25533	1767.7375
2713.86191	1774.2375
2716.46687	1765.4375
2719.07021	1768.4375
2721.67194	1775.3375
2724.27206	1773.7375
2726.87057	1762.0375
2729.46747	1769.5375
2732.06276	1757.2375
2734.65644	1760.3375
2737.24852	1753.1375
2739.83899	1753.7375
2742.42786	1752.2375
2745.01513	1729.2375
2747.60079	1739.3375
2750.18486	1727.9375
2752.76733	1717.7375
2755.3482	1721.7375
2757.92747	1728.1375
2760.50515	1718.3375
2763.08123	1716.6375
2765.65573	1709.3375
2768.22863	1720.9375
2770.79994	1721.1375
2773.36967	1715.8375
2775.9378	1715.1375
2778.50435	1698.1375
2781.06932	1707.9375
2783.6327	1697.7375
2786.1945	1707.1375
2788.75471	1708.7375
2791.31335	1706.1375
2793.87041	1702.9375
2796.42589	1700.5375
2798.97979	1704.3375
2801.53212	1695.3375
2804.08288	1710.3375
2806.63206	1686.2375
2809.17967	1698.4375
2811.72571	1695.2375
2814.27018	1706.0375
2816.81308	1703.3375
2819.35442	1708.9375
2821.89419	1707.4375
2824.43239	1706.8375
2826.96904	1709.2375
2829.50412	1718.7375
2832.03763	1722.3375
2834.56959	1717.9375
2837.1	1725.5375
2839.62884	1722.3375
2842.15613	1730.5375
2844.68186	1737.2375
2847.20604	1756.5375
2849.72867	1776.2375
2852.24974	1775.8375
2854.76927	1787.8375
2857.28724	1786.0375
2859.80367	1774.7375
2862.31855	1779.3375
2864.83189	1771.0375
2867.34368	1772.3375
2869.85393	1784.6375
2872.36264	1784.5375
2874.8698	1778.5375
2877.37543	1775.6375
2879.87952	1773.4375
2882.38207	1771.9375
2884.88308	1776.4375
2887.38256	1776.5375
2889.88051	1774.3375
2892.37692	1772.3375
2894.8718	1764.3375
2897.36515	1780.9375
2899.85698	1774.7375
2902.34727	1782.4375
2904.83604	1786.0375
2907.32328	1780.2375
2909.809	1785.9375
2912.29319	1770.4375
2914.77587	1796.5375
2917.25702	1771.4375
2919.73665	1775.9375
2922.21476	1771.6375
2924.69136	1775.7375
2927.16644	1769.8375
2929.64	1763.0375
2932.11205	1760.4375
2934.58258	1755.4375
2937.05161	1753.4375
2939.51912	1743.4375
2941.98513	1738.6375
2944.44962	1742.7375
2946.91261	1725.4375
2949.37409	1731.2375
2951.83407	1722.1375
2954.29254	1716.4375
2956.74951	1718.6375
2959.20498	1706.4375
2961.65895	1701.7375
2964.11142	1708.2375
2966.56239	1700.4375
2969.01186	1699.3375
2971.45984	1684.6375
2973.90632	1671.7375
2976.35131	1673.8375
2978.7948	1683.0375
2981.23681	1671.1375
2983.67732	1679.2375
2986.11635	1663.3375
2988.55388	1653.9375
2990.98993	1651.7375
2993.4245	1649.2375
2995.85758	1659.2375
2998.28917	1646.8375
3000.71928	1656.6375
3003.14791	1658.9375
3005.57506	1667.4375
3008.00073	1667.4375
3010.42493	1658.3375
3012.84764	1662.6375
3015.26888	1665.6375
3017.68865	1658.2375
3020.10694	1658.5375
3022.52376	1661.6375
3024.9391	1664.3375
3027.35298	1660.4375
3029.76539	1674.8375
3032.17632	1660.0375
3034.5858	1660.9375
3036.9938	1654.0375
3039.40034	1659.1375
3041.80542	1663.4375
3044.20903	1655.5375
3046.61118	1661.5375
3049.01187	1659.9375
3051.4111	1663.4375
3053.80888	1664.0375
3056.20519	1663.9375
3058.60005	1664.5375
3060.99345	1669.4375
3063.3854	1660.1375
3065.7759	1668.9375
3068.16494	1667.9375
3070.55254	1661.1375
3072.93868	1664.1375
3075.32338	1680.3375
3077.70662	1676.5375
3080.08842	1671.9375
3082.46878	1681.1375
3084.84769	1682.2375
3087.22515	1687.3375
3089.60118	1676.6375
3091.97576	1691.5375
3094.3489	1691.2375
3096.72061	1701.5375
3099.09087	1703.3375
3101.4597	1713.7375
3103.82709	1706.0375
3106.19305	1712.3375
3108.55757	1724.6375
3110.92066	1720.8375
3113.28232	1727.3375
3115.64255	1722.2375
3118.00134	1726.5375
3120.35871	1729.0375
3122.71466	1725.9375
3125.06917	1743.0375
3127.42226	1738.2375
3129.77393	1751.4375
3132.12417	1757.9375
3134.47299	1763.2375
3136.82039	1774.9375
3139.16636	1784.6375
3141.51092	1783.4375
3143.85406	1805.9375
3146.19579	1809.3375
3148.53609	1822.7375
3150.87499	1831.6375
3153.21246	1840.8375
3155.54853	1846.5375
3157.88318	1858.8375
3160.21642	1858.5375
3162.54826	1869.4375
3164.87868	1877.1375
3167.2077	1884.9375
3169.5353	1893.9375
3171.86151	1892.0375
3174.18631	1899.9375
3176.5097	1900.4375
3178.83169	1899.2375
3181.15228	1915.8375
3183.47147	1915.9375
3185.78926	1922.9375
3188.10565	1925.9375
3190.42065	1942.3375
3192.73424	1947.1375
3195.04645	1954.2375
3197.35725	1959.2375
3199.66667	1968.5375
3201.97469	1974.1375
3204.28132	1981.3375
3206.58656	1992.3375
3208.8904	1991.1375
3211.19287	2007.5375
3213.49394	2020.3375
3215.79363	2013.3375
3218.09193	2031.7375
3220.38884	2036.0375
3222.68438	2045.9375
3224.97853	2023.0375
3227.2713	2036.4375
3229.56269	2033.7375
3231.8527	2038.9375
3234.14133	2040.5375
3236.42858	2026.5375
3238.71446	2029.7375
3240.99896	2033.1375
3243.28209	2039.8375
3245.56384	2033.2375
3247.84423	2026.0375
3250.12324	2033.1375
3252.40088	2038.3375
3254.67715	2038.5375
3256.95205	2052.2375
3259.22558	2046.8375
3261.49775	2040.7375
3263.76855	2031.1375
3266.03799	2032.6375
3268.30606	2038.8375
3270.57277	2034.1375
3272.83812	2031.5375
3275.10211	2023.2375
3277.36474	2045.1375
3279.62601	2027.3375
3281.88593	2032.9375
3284.14448	2034.5375
3286.40168	2030.8375
3288.65753	2025.0375
3290.91202	2020.8375
3293.16516	2022.0375
3295.41695	2012.3375
3297.66738	2005.4375
3299.91647	2002.6375
3302.16421	1977.5375
3304.4106	1980.5375
3306.65564	1977.5375
3308.89933	1960.5375
3311.14169	1948.3375
3313.38269	1936.7375
3315.62236	1924.2375
3317.86068	1901.1375
3320.09766	1896.3375
3322.3333	1874.3375
3324.5676	1872.5375
3326.80056	1848.4375
3329.03219	1834.6375
3331.26248	0.0375
3333.49143	2.0375
3335.71905	-1.0625
