Data from AgNPs_FTO_APTES_UA_0.1mM_CRN_500uM_NaF_0.1M_Addition_RamanShift__25__15-03-37-786.txt Node

Date: Mon Dec 20 15:03:37 GMT 2021
User: TCL
Spectrometer: QEP01345
Trigger mode: 4
Integration Time (sec): 7.000000E0
Scans to average: 10
Electric dark correction enabled: true
Nonlinearity correction enabled: false
Boxcar width: 0
XAxis mode: Raman Shifts
Number of Pixels in Spectrum: 1044
>>>>>Begin Spectral Data<<<<<
46.04893	0.8375
50.45542	-0.2625
54.85868	-1.3625
59.25871	1.3375
63.6555	24.9375
68.04907	26.5375
72.43941	28.4375
76.82654	29.1375
81.21044	31.8375
85.59113	34.8375
89.96862	32.3375
94.34289	35.0375
98.71396	32.7375
103.08183	36.7375
107.4465	37.3375
111.80798	37.3375
116.16626	36.4375
120.52136	38.1375
124.87327	42.8375
129.222	40.3375
133.56755	40.8375
137.90993	46.0375
142.24913	45.8375
146.58517	41.6375
150.91804	55.4375
155.24774	62.1375
159.57429	70.8375
163.89768	86.6375
168.21792	108.9375
172.53501	140.2375
176.84895	186.5375
181.15975	252.1375
185.46741	344.1375
189.77193	479.5375
194.07331	632.7375
198.37157	825.4375
202.6667	1027.5375
206.9587	1238.1375
211.24758	1437.0375
215.53334	1626.3375
219.81599	1827.2375
224.09553	2017.4375
228.37195	2228.4375
232.64527	2438.6375
236.91549	2664.5375
241.18261	2872.6375
245.44663	3077.6375
249.70755	3253.1375
253.96539	3415.0375
258.22014	3532.5375
262.4718	3609.6375
266.72039	3638.5375
270.96589	3635.9375
275.20832	3603.6375
279.44768	3557.5375
283.68397	3504.1375
287.91719	3446.1375
292.14735	3413.9375
296.37445	3371.1375
300.59849	3366.4375
304.81948	3340.3375
309.03742	3332.8375
313.25231	3291.2375
317.46415	3244.4375
321.67296	3189.9375
325.87872	3146.1375
330.08145	3113.0375
334.28114	3105.4375
338.47781	3113.3375
342.67145	3123.7375
346.86207	3154.6375
351.04966	3187.7375
355.23424	3263.1375
359.4158	3300.2375
363.59435	3355.0375
367.76989	3387.0375
371.94243	3435.0375
376.11196	3480.9375
380.27849	3522.5375
384.44203	3561.7375
388.60257	3599.4375
392.76012	3637.0375
396.91468	3679.5375
401.06626	3709.0375
405.21485	3740.3375
409.36047	3734.7375
413.50311	3713.0375
417.64277	3686.5375
421.77947	3665.0375
425.9132	3662.3375
430.04396	3668.0375
434.17176	3665.2375
438.2966	3696.1375
442.41849	3717.0375
446.53742	3779.0375
450.6534	3823.5375
454.76644	3863.1375
458.87653	3876.0375
462.98368	3868.7375
467.08789	3862.3375
471.18916	3895.9375
475.2875	3890.7375
479.38291	3938.0375
483.4754	4010.3375
487.56496	4099.2375
491.6516	4228.6375
495.73531	4286.5375
499.81612	4231.1375
503.89401	4143.3375
507.96899	4067.0375
512.04106	4017.9375
516.11023	4018.4375
520.1765	4043.8375
524.23987	4120.3375
528.30034	4174.8375
532.35792	4178.5375
536.41261	4144.2375
540.46441	4038.4375
544.51333	3939.1375
548.55936	3864.2375
552.60252	3847.2375
556.64279	3841.7375
560.6802	3848.7375
564.71473	3864.3375
568.7464	3914.0375
572.7752	3945.5375
576.80114	3953.8375
580.82422	3995.0375
584.84444	4053.5375
588.86181	4131.6375
592.87633	4186.2375
596.888	4192.8375
600.89682	4164.3375
604.9028	4210.1375
608.90594	4405.1375
612.90624	4715.3375
616.90371	4827.5375
620.89834	4765.4375
624.89015	5001.0375
628.87913	5403.6375
632.86528	5827.8375
636.84862	6008.2375
640.82913	5879.8375
644.80683	5524.0375
648.78172	5064.8375
652.75379	4731.6375
656.72306	4511.8375
660.68952	4415.6375
664.65319	4371.3375
668.61405	4356.0375
672.57211	4390.5375
676.52738	4406.5375
680.47986	4407.4375
684.42955	4389.7375
688.37646	4363.4375
692.32058	4310.2375
696.26192	4255.4375
700.20048	4230.3375
704.13626	4177.6375
708.06928	4115.0375
711.99952	4058.9375
715.927	4016.3375
719.85171	4041.6375
723.77365	4065.2375
727.69284	4056.4375
731.60928	4030.0375
735.52295	3943.4375
739.43388	3903.0375
743.34206	3895.9375
747.24749	3908.4375
751.15017	3923.6375
755.05012	3932.3375
758.94733	3957.8375
762.8418	4013.9375
766.73354	4126.5375
770.62254	4226.7375
774.50882	4281.1375
778.39237	4215.1375
782.27321	4092.1375
786.15132	4010.8375
790.02671	3997.1375
793.89938	4009.9375
797.76935	4070.4375
801.6366	4194.9375
805.50115	4415.5375
809.36299	4644.3375
813.22213	4742.5375
817.07857	4618.6375
820.93231	4372.4375
824.78336	4090.6375
828.63172	3891.7375
832.47738	3777.7375
836.32036	3730.1375
840.16066	3692.7375
843.99827	3676.8375
847.8332	3651.4375
851.66546	3630.8375
855.49504	3636.6375
859.32195	3654.7375
863.1462	3675.7375
866.96777	3735.0375
870.78668	3827.7375
874.60293	3942.4375
878.41652	4092.2375
882.22745	4257.1375
886.03573	4357.4375
889.84136	4350.2375
893.64433	4217.0375
897.44466	4027.1375
901.24235	3806.5375
905.0374	3638.5375
908.8298	3543.9375
912.61957	3486.6375
916.40671	3452.0375
920.19121	3428.7375
923.97308	3433.5375
927.75233	3424.7375
931.52895	3440.0375
935.30295	3422.9375
939.07433	3417.0375
942.84309	3391.7375
946.60924	3381.0375
950.37278	3387.9375
954.13371	3381.0375
957.89203	3365.7375
961.64774	3346.2375
965.40086	3333.0375
969.15137	3304.0375
972.89929	3285.8375
976.64461	3268.2375
980.38733	3248.2375
984.12747	3243.6375
987.86502	3257.8375
991.59999	3286.3375
995.33237	3316.1375
999.06217	3382.1375
1002.78939	3466.8375
1006.51404	3539.4375
1010.23611	3648.9375
1013.95561	3716.9375
1017.67255	3731.6375
1021.38692	3716.8375
1025.09872	3631.7375
1028.80796	3529.8375
1032.51465	3439.5375
1036.21877	3368.3375
1039.92035	3327.4375
1043.61937	3305.7375
1047.31584	3306.7375
1051.00976	3317.1375
1054.70114	3345.0375
1058.38998	3365.4375
1062.07627	3415.1375
1065.76003	3456.5375
1069.44126	3485.0375
1073.11995	3491.1375
1076.79611	3488.6375
1080.46974	3445.2375
1084.14085	3397.5375
1087.80943	3341.2375
1091.47549	3294.0375
1095.13903	3266.2375
1098.80005	3231.3375
1102.45857	3225.7375
1106.11456	3223.0375
1109.76805	3254.5375
1113.41903	3316.0375
1117.06751	3437.1375
1120.71348	3641.0375
1124.35696	3902.9375
1127.99793	4280.0375
1131.63641	4659.6375
1135.2724	4914.3375
1138.90589	4937.5375
1142.5369	4798.8375
1146.16542	4478.6375
1149.79145	4129.5375
1153.415	3824.6375
1157.03607	3598.3375
1160.65467	3449.0375
1164.27079	3386.6375
1167.88443	3368.5375
1171.49561	3419.9375
1175.10432	3501.6375
1178.71056	3653.4375
1182.31434	3783.8375
1185.91565	3896.4375
1189.51451	3982.3375
1193.11091	4094.2375
1196.70485	4243.0375
1200.29634	4414.4375
1203.88538	4488.3375
1207.47197	4424.3375
1211.05612	4268.6375
1214.63782	4058.4375
1218.21708	3830.4375
1221.79391	3670.3375
1225.36829	3528.8375
1228.94024	3423.6375
1232.50976	3362.1375
1236.07685	3325.2375
1239.6415	3326.8375
1243.20374	3334.5375
1246.76355	3358.5375
1250.32093	3385.6375
1253.8759	3388.3375
1257.42845	3406.2375
1260.97859	3435.2375
1264.52631	3443.2375
1268.07163	3447.4375
1271.61453	3452.7375
1275.15503	3455.9375
1278.69312	3430.5375
1282.22882	3420.4375
1285.76211	3421.7375
1289.29301	3464.8375
1292.82151	3517.4375
1296.34761	3583.6375
1299.87133	3692.5375
1303.39266	3825.9375
1306.9116	3976.5375
1310.42815	4161.9375
1313.94233	4319.6375
1317.45412	4365.0375
1320.96354	4358.2375
1324.47058	4323.6375
1327.97525	4295.1375
1331.47754	4299.9375
1334.97747	4337.0375
1338.47502	4392.4375
1341.97022	4449.3375
1345.46305	4541.5375
1348.95352	4642.5375
1352.44163	4747.6375
1355.92738	4906.0375
1359.41078	5073.7375
1362.89183	5247.6375
1366.37053	5230.2375
1369.84688	4987.0375
1373.32088	4658.2375
1376.79254	4433.6375
1380.26186	4273.7375
1383.72883	4175.0375
1387.19347	4070.3375
1390.65578	4025.3375
1394.11575	3943.3375
1397.57339	3905.6375
1401.0287	3894.8375
1404.48168	3854.6375
1407.93234	3802.4375
1411.38068	3726.8375
1414.82669	3621.6375
1418.27039	3474.5375
1421.71177	3356.9375
1425.15083	3251.8375
1428.58758	3183.2375
1432.02203	3125.7375
1435.45416	3098.3375
1438.88399	3073.0375
1442.31151	3053.9375
1445.73673	3048.6375
1449.15965	3064.2375
1452.58027	3048.2375
1455.9986	3037.6375
1459.41463	3042.9375
1462.82837	3062.1375
1466.23982	3074.2375
1469.64898	3111.3375
1473.05586	3113.2375
1476.46045	3131.7375
1479.86276	3147.3375
1483.26279	3149.3375
1486.66054	3169.8375
1490.05602	3202.0375
1493.44922	3254.1375
1496.84016	3303.0375
1500.22882	3391.4375
1503.61521	3507.6375
1506.99934	3633.6375
1510.38121	3751.2375
1513.76081	3778.5375
1517.13816	3697.6375
1520.51324	3561.4375
1523.88607	3425.3375
1527.25665	3327.7375
1530.62498	3318.1375
1533.99105	3324.6375
1537.35488	3359.4375
1540.71647	3403.0375
1544.07581	3449.0375
1547.4329	3476.4375
1550.78776	3491.2375
1554.14038	3499.6375
1557.49077	3511.8375
1560.83892	3523.6375
1564.18484	3534.9375
1567.52853	3549.7375
1570.86999	3562.9375
1574.20922	3602.4375
1577.54624	3643.4375
1580.88103	3621.0375
1584.2136	3606.8375
1587.54395	3600.3375
1590.87208	3617.8375
1594.19801	3678.1375
1597.52172	3757.4375
1600.84321	3840.0375
1604.16251	3837.9375
1607.47959	3791.6375
1610.79447	3730.5375
1614.10715	3672.1375
1617.41763	3624.6375
1620.7259	3585.7375
1624.03199	3556.1375
1627.33587	3552.8375
1630.63757	3577.1375
1633.93707	3628.0375
1637.23439	3677.9375
1640.52951	3825.9375
1643.82246	3965.7375
1647.11321	4157.4375
1650.40179	4274.5375
1653.68819	4270.9375
1656.97241	4115.3375
1660.25446	3910.3375
1663.53433	3769.2375
1666.81203	3647.8375
1670.08756	3553.2375
1673.36092	3475.8375
1676.63211	3417.0375
1679.90115	3363.3375
1683.16801	3312.9375
1686.43272	3249.6375
1689.69527	3198.2375
1692.95567	3122.3375
1696.2139	3074.2375
1699.46999	2998.5375
1702.72392	2894.6375
1705.97571	2781.0375
1709.22535	2687.1375
1712.47284	2600.5375
1715.71819	2551.9375
1718.96139	2507.2375
1722.20246	2461.9375
1725.44139	2421.5375
1728.67818	2398.2375
1731.91284	2368.3375
1735.14537	2340.7375
1738.37576	2324.7375
1741.60403	2296.1375
1744.83017	2290.5375
1748.05418	2295.7375
1751.27607	2296.2375
1754.49584	2292.7375
1757.71349	2288.5375
1760.92903	2284.2375
1764.14244	2254.5375
1767.35375	2233.0375
1770.56294	2211.7375
1773.77002	2167.6375
1776.97499	2131.2375
1780.17785	2100.6375
1783.37861	2075.0375
1786.57727	2055.6375
1789.77382	2026.6375
1792.96828	2008.3375
1796.16064	1994.8375
1799.3509	1973.3375
1802.53907	1967.9375
1805.72514	1961.3375
1808.90913	1944.2375
1812.09102	1936.4375
1815.27083	1926.2375
1818.44856	1920.7375
1821.6242	1911.9375
1824.79776	1891.6375
1827.96924	1900.7375
1831.13864	1889.3375
1834.30597	1888.9375
1837.47122	1889.2375
1840.6344	1881.6375
1843.7955	1873.0375
1846.95454	1859.6375
1850.11151	1865.7375
1853.26642	1857.8375
1856.41926	1857.6375
1859.57004	1852.9375
1862.71876	1850.8375
1865.86542	1854.2375
1869.01003	1840.5375
1872.15258	1832.9375
1875.29308	1834.6375
1878.43152	1824.0375
1881.56792	1824.1375
1884.70227	1811.2375
1887.83457	1797.7375
1890.96482	1802.2375
1894.09304	1803.3375
1897.21921	1793.6375
1900.34335	1787.8375
1903.46544	1796.5375
1906.58551	1787.3375
1909.70353	1776.5375
1912.81953	1781.9375
1915.93349	1771.6375
1919.04543	1758.8375
1922.15534	1766.2375
1925.26322	1760.8375
1928.36908	1753.8375
1931.47292	1750.0375
1934.57473	1730.0375
1937.67453	1730.9375
1940.77232	1712.4375
1943.86808	1720.3375
1946.96184	1714.4375
1950.05358	1708.0375
1953.14331	1705.7375
1956.23103	1704.6375
1959.31675	1688.6375
1962.40046	1674.0375
1965.48217	1676.7375
1968.56188	1676.0375
1971.63959	1674.9375
1974.7153	1658.9375
1977.78901	1652.3375
1980.86073	1636.3375
1983.93046	1625.6375
1986.99819	1638.1375
1990.06394	1623.2375
1993.1277	1629.6375
1996.18947	1604.6375
1999.24925	1606.2375
2002.30706	1599.6375
2005.36288	1586.3375
2008.41672	1598.5375
2011.46859	1587.0375
2014.51848	1577.0375
2017.56639	1570.0375
2020.61233	1565.6375
2023.6563	1556.3375
2026.6983	1559.0375
2029.73833	1547.1375
2032.7764	1541.4375
2035.8125	1541.7375
2038.84664	1546.7375
2041.87881	1550.5375
2044.90903	1528.9375
2047.93729	1526.0375
2050.96359	1520.7375
2053.98794	1523.2375
2057.01034	1523.0375
2060.03078	1515.0375
2063.04927	1508.3375
2066.06582	1509.6375
2069.08042	1514.6375
2072.09307	1510.8375
2075.10378	1506.1375
2078.11255	1489.6375
2081.11938	1501.0375
2084.12426	1495.1375
2087.12722	1482.1375
2090.12824	1494.4375
2093.12732	1493.8375
2096.12447	1486.7375
2099.11969	1490.7375
2102.11299	1482.8375
2105.10435	1487.2375
2108.09379	1480.8375
2111.08131	1484.4375
2114.0669	1475.7375
2117.05057	1483.9375
2120.03233	1486.3375
2123.01216	1478.1375
2125.99008	1482.6375
2128.96609	1476.0375
2131.94018	1485.1375
2134.91236	1489.6375
2137.88263	1473.8375
2140.851	1478.8375
2143.81746	1485.2375
2146.78201	1475.0375
2149.74466	1470.7375
2152.7054	1470.2375
2155.66425	1480.5375
2158.6212	1472.0375
2161.57625	1462.0375
2164.52941	1462.7375
2167.48067	1470.1375
2170.43004	1455.9375
2173.37752	1451.2375
2176.32311	1446.6375
2179.26681	1456.8375
2182.20863	1448.2375
2185.14856	1449.2375
2188.08661	1454.9375
2191.02278	1446.6375
2193.95707	1440.0375
2196.88948	1434.3375
2199.82001	1441.5375
2202.74867	1434.3375
2205.67545	1435.0375
2208.60037	1421.1375
2211.52341	1421.5375
2214.44458	1423.0375
2217.36388	1417.0375
2220.28132	1404.2375
2223.1969	1401.5375
2226.11061	1400.3375
2229.02246	1392.7375
2231.93245	1391.2375
2234.84058	1389.1375
2237.74686	1384.9375
2240.65128	1384.9375
2243.55385	1384.3375
2246.45456	1386.2375
2249.35343	1375.5375
2252.25044	1376.4375
2255.14561	1369.2375
2258.03893	1374.2375
2260.93041	1372.8375
2263.82004	1358.1375
2266.70783	1357.2375
2269.59378	1356.2375
2272.4779	1345.1375
2275.36017	1338.8375
2278.24061	1343.4375
2281.11922	1327.7375
2283.996	1325.2375
2286.87094	1318.7375
2289.74405	1322.8375
2292.61534	1308.7375
2295.4848	1314.4375
2298.35243	1322.2375
2301.21824	1309.6375
2304.08223	1308.3375
2306.94439	1302.9375
2309.80474	1306.3375
2312.66327	1296.9375
2315.51999	1299.4375
2318.37489	1294.2375
2321.22797	1287.1375
2324.07925	1294.1375
2326.92871	1297.7375
2329.77637	1286.6375
2332.62222	1275.0375
2335.46626	1281.0375
2338.3085	1270.3375
2341.14893	1264.3375
2343.98756	1266.1375
2346.8244	1270.1375
2349.65943	1257.3375
2352.49267	1265.5375
2355.32411	1257.5375
2358.15376	1261.5375
2360.98161	1251.5375
2363.80768	1255.2375
2366.63195	1254.4375
2369.45444	1252.0375
2372.27514	1240.8375
2375.09405	1261.3375
2377.91118	1240.7375
2380.72652	1245.3375
2383.54009	1232.9375
2386.35187	1233.1375
2389.16188	1232.3375
2391.97011	1238.9375
2394.77657	1229.3375
2397.58125	1226.2375
2400.38416	1216.0375
2403.18529	1213.2375
2405.98466	1219.6375
2408.78226	1216.0375
2411.57809	1213.1375
2414.37216	1206.2375
2417.16446	1210.7375
2419.955	1196.7375
2422.74378	1195.9375
2425.5308	1187.1375
2428.31606	1187.4375
2431.09956	1180.3375
2433.88131	1179.0375
2436.6613	1194.3375
2439.43954	1175.9375
2442.21603	1170.3375
2444.99077	1164.5375
2447.76377	1172.8375
2450.53501	1170.6375
2453.30451	1166.4375
2456.07226	1164.8375
2458.83827	1163.1375
2461.60254	1153.5375
2464.36507	1157.1375
2467.12586	1154.5375
2469.88492	1158.7375
2472.64224	1150.7375
2475.39782	1151.9375
2478.15167	1150.6375
2480.90379	1149.4375
2483.65417	1147.5375
2486.40283	1141.8375
2489.14976	1142.2375
2491.89497	1144.4375
2494.63845	1147.2375
2497.3802	1138.4375
2500.12024	1141.1375
2502.85855	1137.5375
2505.59514	1132.0375
2508.33002	1130.1375
2511.06318	1128.7375
2513.79462	1126.4375
2516.52435	1119.2375
2519.25237	1114.6375
2521.97867	1111.6375
2524.70327	1114.9375
2527.42616	1109.7375
2530.14734	1102.2375
2532.86681	1095.8375
2535.58458	1101.9375
2538.30065	1100.8375
2541.01501	1096.4375
2543.72768	1096.3375
2546.43864	1092.0375
2549.14791	1081.5375
2551.85548	1077.7375
2554.56136	1078.4375
2557.26554	1075.7375
2559.96803	1072.7375
2562.66883	1076.2375
2565.36794	1065.5375
2568.06536	1067.4375
2570.7611	1063.8375
2573.45514	1064.3375
2576.14751	1066.7375
2578.83819	1057.5375
2581.52719	1053.8375
2584.21451	1052.7375
2586.90015	1046.1375
2589.58411	1044.3375
2592.2664	1048.4375
2594.94701	1038.7375
2597.62594	1036.1375
2600.30321	1038.3375
2602.9788	1030.3375
2605.65273	1030.4375
2608.32498	1029.2375
2610.99557	1030.3375
2613.66449	1021.7375
2616.33175	1029.4375
2618.99734	1018.5375
2621.66128	1016.6375
2624.32355	1022.5375
2626.98416	1015.9375
2629.64311	1016.0375
2632.30041	1011.4375
2634.95605	1010.1375
2637.61004	1011.6375
2640.26238	1008.2375
2642.91306	1001.3375
2645.56209	1009.6375
2648.20948	1001.7375
2650.85521	1002.5375
2653.4993	1000.1375
2656.14175	994.1375
2658.78255	1003.3375
2661.42171	994.4375
2664.05923	986.3375
2666.6951	996.5375
2669.32934	995.7375
2671.96194	991.4375
2674.59291	998.6375
2677.22224	988.9375
2679.84993	995.3375
2682.476	995.4375
2685.10043	996.3375
2687.72324	1001.4375
2690.34441	994.1375
2692.96396	992.0375
2695.58188	995.6375
2698.19818	996.0375
2700.81285	1001.1375
2703.4259	1006.9375
2706.03733	1030.5375
2708.64714	1018.4375
2711.25533	1003.4375
2713.86191	1000.7375
2716.46687	1000.6375
2719.07021	1000.3375
2721.67194	994.4375
2724.27206	992.6375
2726.87057	998.2375
2729.46747	988.8375
2732.06276	995.0375
2734.65644	990.1375
2737.24852	986.0375
2739.83899	986.5375
2742.42786	983.8375
2745.01513	987.5375
2747.60079	983.7375
2750.18486	971.9375
2752.76733	979.5375
2755.3482	978.9375
2757.92747	967.2375
2760.50515	974.9375
2763.08123	966.1375
2765.65573	962.8375
2768.22863	967.5375
2770.79994	963.9375
2773.36967	964.4375
2775.9378	960.4375
2778.50435	955.4375
2781.06932	963.3375
2783.6327	957.1375
2786.1945	956.0375
2788.75471	961.9375
2791.31335	951.6375
2793.87041	953.4375
2796.42589	945.8375
2798.97979	944.0375
2801.53212	947.8375
2804.08288	952.1375
2806.63206	942.7375
2809.17967	946.8375
2811.72571	936.1375
2814.27018	941.3375
2816.81308	940.7375
2819.35442	939.1375
2821.89419	932.0375
2824.43239	933.7375
2826.96904	939.0375
2829.50412	945.4375
2832.03763	940.8375
2834.56959	932.0375
2837.1	931.3375
2839.62884	932.9375
2842.15613	928.2375
2844.68186	937.5375
2847.20604	941.3375
2849.72867	933.1375
2852.24974	940.0375
2854.76927	944.1375
2857.28724	956.1375
2859.80367	941.6375
2862.31855	942.2375
2864.83189	938.0375
2867.34368	937.0375
2869.85393	937.0375
2872.36264	943.2375
2874.8698	953.1375
2877.37543	941.1375
2879.87952	946.8375
2882.38207	943.6375
2884.88308	947.7375
2887.38256	950.3375
2889.88051	950.5375
2892.37692	960.5375
2894.8718	959.8375
2897.36515	963.7375
2899.85698	969.8375
2902.34727	963.6375
2904.83604	971.1375
2907.32328	981.9375
2909.809	985.7375
2912.29319	979.4375
2914.77587	988.2375
2917.25702	993.4375
2919.73665	989.5375
2922.21476	990.4375
2924.69136	996.6375
2927.16644	1002.8375
2929.64	1001.6375
2932.11205	1001.4375
2934.58258	996.7375
2937.05161	995.4375
2939.51912	992.1375
2941.98513	1001.1375
2944.44962	999.0375
2946.91261	998.6375
2949.37409	999.5375
2951.83407	997.5375
2954.29254	997.4375
2956.74951	988.5375
2959.20498	988.4375
2961.65895	987.1375
2964.11142	977.3375
2966.56239	978.1375
2969.01186	975.6375
2971.45984	962.5375
2973.90632	956.0375
2976.35131	958.0375
2978.7948	954.7375
2981.23681	960.1375
2983.67732	945.1375
2986.11635	946.1375
2988.55388	950.5375
2990.98993	942.0375
2993.4245	941.3375
2995.85758	940.1375
2998.28917	944.4375
3000.71928	944.8375
3003.14791	943.6375
3005.57506	940.8375
3008.00073	944.9375
3010.42493	947.3375
3012.84764	947.2375
3015.26888	943.9375
3017.68865	952.4375
3020.10694	954.0375
3022.52376	956.0375
3024.9391	954.4375
3027.35298	950.3375
3029.76539	947.4375
3032.17632	950.5375
3034.5858	953.5375
3036.9938	954.5375
3039.40034	959.0375
3041.80542	960.3375
3044.20903	963.8375
3046.61118	964.4375
3049.01187	957.9375
3051.4111	960.2375
3053.80888	971.5375
3056.20519	964.6375
3058.60005	969.4375
3060.99345	979.0375
3063.3854	970.9375
3065.7759	971.8375
3068.16494	968.5375
3070.55254	972.5375
3072.93868	972.8375
3075.32338	980.7375
3077.70662	976.8375
3080.08842	986.5375
3082.46878	991.5375
3084.84769	993.2375
3087.22515	993.2375
3089.60118	1000.5375
3091.97576	1005.3375
3094.3489	1008.3375
3096.72061	1015.6375
3099.09087	1021.3375
3101.4597	1031.9375
3103.82709	1028.9375
3106.19305	1027.1375
3108.55757	1047.0375
3110.92066	1042.2375
3113.28232	1045.2375
3115.64255	1075.7375
3118.00134	1060.8375
3120.35871	1050.6375
3122.71466	1066.5375
3125.06917	1073.8375
3127.42226	1079.0375
3129.77393	1084.3375
3132.12417	1091.1375
3134.47299	1097.9375
3136.82039	1100.9375
3139.16636	1108.3375
3141.51092	1118.8375
3143.85406	1126.2375
3146.19579	1136.3375
3148.53609	1145.5375
3150.87499	1145.7375
3153.21246	1166.3375
3155.54853	1164.0375
3157.88318	1170.2375
3160.21642	1180.4375
3162.54826	1189.3375
3164.87868	1190.2375
3167.2077	1203.2375
3169.5353	1204.8375
3171.86151	1210.5375
3174.18631	1224.4375
3176.5097	1222.6375
3178.83169	1224.2375
3181.15228	1235.9375
3183.47147	1233.0375
3185.78926	1254.5375
3188.10565	1237.1375
3190.42065	1254.9375
3192.73424	1272.0375
3195.04645	1277.4375
3197.35725	1280.4375
3199.66667	1279.6375
3201.97469	1287.5375
3204.28132	1289.3375
3206.58656	1297.4375
3208.8904	1305.4375
3211.19287	1309.0375
3213.49394	1314.5375
3215.79363	1323.1375
3218.09193	1320.9375
3220.38884	1334.8375
3222.68438	1340.1375
3224.97853	1335.0375
3227.2713	1340.4375
3229.56269	1336.9375
3231.8527	1341.4375
3234.14133	1336.7375
3236.42858	1339.2375
3238.71446	1340.3375
3240.99896	1334.9375
3243.28209	1344.3375
3245.56384	1347.2375
3247.84423	1342.3375
3250.12324	1334.3375
3252.40088	1347.4375
3254.67715	1345.1375
3256.95205	1346.7375
3259.22558	1349.0375
3261.49775	1346.4375
3263.76855	1347.0375
3266.03799	1342.7375
3268.30606	1340.8375
3270.57277	1343.2375
3272.83812	1339.6375
3275.10211	1342.8375
3277.36474	1338.4375
3279.62601	1347.5375
3281.88593	1340.2375
3284.14448	1347.2375
3286.40168	1341.4375
3288.65753	1341.6375
3290.91202	1334.8375
3293.16516	1329.4375
3295.41695	1327.7375
3297.66738	1330.4375
3299.91647	1324.8375
3302.16421	1308.3375
3304.4106	1312.9375
3306.65564	1301.9375
3308.89933	1302.0375
3311.14169	1299.3375
3313.38269	1296.7375
3315.62236	1285.5375
3317.86068	1265.5375
3320.09766	1259.1375
3322.3333	1249.6375
3324.5676	1260.6375
3326.80056	1237.3375
3329.03219	1229.9375
3331.26248	0.2375
3333.49143	1.1375
3335.71905	-1.1625
