Data from AgNPs_FTO_APTES_UA_0.1mM_CRN_50uM_NaF_0.1M_Addition_RamanShift__17__12-56-27-643.txt Node

Date: Mon Dec 20 12:56:27 GMT 2021
User: TCL
Spectrometer: QEP01345
Trigger mode: 4
Integration Time (sec): 7.000000E0
Scans to average: 10
Electric dark correction enabled: true
Nonlinearity correction enabled: false
Boxcar width: 0
XAxis mode: Raman Shifts
Number of Pixels in Spectrum: 1044
>>>>>Begin Spectral Data<<<<<
46.04893	0.1125
50.45542	0.1125
54.85868	-0.9875
59.25871	1.1125
63.6555	32.9125
68.04907	33.3125
72.43941	35.5125
76.82654	37.3125
81.21044	36.2125
85.59113	41.1125
89.96862	39.6125
94.34289	43.1125
98.71396	43.2125
103.08183	42.7125
107.4465	48.1125
111.80798	47.8125
116.16626	45.9125
120.52136	47.4125
124.87327	53.8125
129.222	55.5125
133.56755	51.3125
137.90993	58.9125
142.24913	64.1125
146.58517	65.6125
150.91804	80.0125
155.24774	94.3125
159.57429	109.4125
163.89768	138.3125
168.21792	183.3125
172.53501	233.9125
176.84895	328.0125
181.15975	451.5125
185.46741	631.4125
189.77193	868.1125
194.07331	1164.9125
198.37157	1520.3125
202.6667	1891.8125
206.9587	2277.7125
211.24758	2650.9125
215.53334	3028.9125
219.81599	3427.5125
224.09553	3855.0125
228.37195	4305.0125
232.64527	4774.9125
236.91549	5288.0125
241.18261	5784.8125
245.44663	6228.7125
249.70755	6628.7125
253.96539	6954.6125
258.22014	7213.5125
262.4718	7388.6125
266.72039	7488.7125
270.96589	7512.1125
275.20832	7437.8125
279.44768	7314.3125
283.68397	7194.4125
287.91719	7055.1125
292.14735	6948.3125
296.37445	6878.5125
300.59849	6863.8125
304.81948	6839.0125
309.03742	6809.2125
313.25231	6766.1125
317.46415	6654.0125
321.67296	6531.0125
325.87872	6422.7125
330.08145	6382.6125
334.28114	6365.4125
338.47781	6400.8125
342.67145	6463.4125
346.86207	6544.9125
351.04966	6633.9125
355.23424	6758.9125
359.4158	6860.8125
363.59435	6958.5125
367.76989	7035.1125
371.94243	7103.6125
376.11196	7164.3125
380.27849	7227.1125
384.44203	7304.6125
388.60257	7332.3125
392.76012	7391.1125
396.91468	7454.2125
401.06626	7535.2125
405.21485	7578.0125
409.36047	7579.2125
413.50311	7514.6125
417.64277	7429.7125
421.77947	7415.9125
425.9132	7422.7125
430.04396	7429.6125
434.17176	7431.1125
438.2966	7489.5125
442.41849	7552.2125
446.53742	7624.3125
450.6534	7734.8125
454.76644	7815.3125
458.87653	7868.0125
462.98368	7868.3125
467.08789	7839.6125
471.18916	7861.8125
475.2875	7876.5125
479.38291	7882.5125
483.4754	7963.8125
487.56496	8013.9125
491.6516	8095.7125
495.73531	8155.9125
499.81612	8158.2125
503.89401	8146.9125
507.96899	8097.0125
512.04106	8050.6125
516.11023	8045.3125
520.1765	8011.5125
524.23987	8029.4125
528.30034	8034.2125
532.35792	8011.8125
536.41261	7976.3125
540.46441	7903.9125
544.51333	7839.5125
548.55936	7826.3125
552.60252	7812.3125
556.64279	7864.8125
560.6802	7878.4125
564.71473	7901.7125
568.7464	7964.8125
572.7752	8016.2125
576.80114	8022.1125
580.82422	8030.2125
584.84444	8110.6125
588.86181	8195.2125
592.87633	8247.4125
596.888	8255.5125
600.89682	8256.2125
604.9028	8398.9125
608.90594	8896.2125
612.90624	9558.9125
616.90371	9530.0125
620.89834	8838.3125
624.89015	8633.1125
628.87913	8878.5125
632.86528	9264.6125
636.84862	9553.2125
640.82913	9559.0125
644.80683	9307.8125
648.78172	8963.4125
652.75379	8689.8125
656.72306	8532.6125
660.68952	8527.6125
664.65319	8486.0125
668.61405	8419.6125
672.57211	8461.1125
676.52738	8512.8125
680.47986	8550.5125
684.42955	8571.4125
688.37646	8526.6125
692.32058	8453.6125
696.26192	8406.8125
700.20048	8286.6125
704.13626	8229.2125
708.06928	8160.1125
711.99952	8079.9125
715.927	8020.3125
719.85171	7992.9125
723.77365	7994.2125
727.69284	7976.9125
731.60928	7934.3125
735.52295	7885.3125
739.43388	7876.8125
743.34206	7861.0125
747.24749	7872.6125
751.15017	7866.4125
755.05012	7900.1125
758.94733	7976.0125
762.8418	8153.0125
766.73354	8448.7125
770.62254	8762.3125
774.50882	8925.0125
778.39237	8789.5125
782.27321	8412.9125
786.15132	8103.2125
790.02671	7930.6125
793.89938	7834.9125
797.76935	7820.0125
801.6366	7881.1125
805.50115	7974.1125
809.36299	8092.1125
813.22213	8168.7125
817.07857	8093.0125
820.93231	7933.5125
824.78336	7773.6125
828.63172	7634.2125
832.47738	7548.8125
836.32036	7500.5125
840.16066	7517.3125
843.99827	7472.5125
847.8332	7467.9125
851.66546	7460.4125
855.49504	7464.7125
859.32195	7472.5125
863.1462	7489.4125
866.96777	7552.7125
870.78668	7587.1125
874.60293	7668.3125
878.41652	7748.5125
882.22745	7849.3125
886.03573	7910.2125
889.84136	7909.5125
893.64433	7822.9125
897.44466	7706.7125
901.24235	7569.5125
905.0374	7458.2125
908.8298	7372.0125
912.61957	7329.7125
916.40671	7285.9125
920.19121	7306.0125
923.97308	7306.5125
927.75233	7271.1125
931.52895	7283.0125
935.30295	7261.9125
939.07433	7203.8125
942.84309	7171.4125
946.60924	7137.3125
950.37278	7101.4125
954.13371	7090.6125
957.89203	7053.5125
961.64774	7031.6125
965.40086	7016.2125
969.15137	6975.5125
972.89929	6971.5125
976.64461	6953.0125
980.38733	6950.1125
984.12747	6942.7125
987.86502	6972.8125
991.59999	6988.8125
995.33237	7018.0125
999.06217	7081.6125
1002.78939	7162.2125
1006.51404	7214.2125
1010.23611	7293.4125
1013.95561	7351.0125
1017.67255	7360.1125
1021.38692	7323.8125
1025.09872	7270.2125
1028.80796	7202.1125
1032.51465	7143.9125
1036.21877	7135.8125
1039.92035	7111.4125
1043.61937	7097.6125
1047.31584	7094.8125
1051.00976	7090.1125
1054.70114	7103.5125
1058.38998	7134.4125
1062.07627	7178.0125
1065.76003	7233.6125
1069.44126	7296.7125
1073.11995	7344.0125
1076.79611	7362.2125
1080.46974	7365.5125
1084.14085	7347.6125
1087.80943	7299.9125
1091.47549	7293.4125
1095.13903	7238.4125
1098.80005	7216.3125
1102.45857	7112.4125
1106.11456	7128.1125
1109.76805	7141.5125
1113.41903	7225.1125
1117.06751	7346.5125
1120.71348	7581.6125
1124.35696	7911.1125
1127.99793	8286.8125
1131.63641	8636.9125
1135.2724	8788.1125
1138.90589	8758.4125
1142.5369	8590.7125
1146.16542	8304.3125
1149.79145	8000.3125
1153.415	7741.3125
1157.03607	7503.9125
1160.65467	7402.8125
1164.27079	7377.1125
1167.88443	7435.0125
1171.49561	7559.6125
1175.10432	7795.6125
1178.71056	8115.6125
1182.31434	8420.0125
1185.91565	8588.4125
1189.51451	8601.3125
1193.11091	8524.8125
1196.70485	8454.9125
1200.29634	8392.3125
1203.88538	8347.5125
1207.47197	8240.3125
1211.05612	8073.2125
1214.63782	7895.7125
1218.21708	7746.4125
1221.79391	7631.2125
1225.36829	7525.3125
1228.94024	7450.6125
1232.50976	7430.0125
1236.07685	7351.0125
1239.6415	7356.3125
1243.20374	7377.0125
1246.76355	7396.5125
1250.32093	7444.2125
1253.8759	7502.7125
1257.42845	7562.8125
1260.97859	7662.5125
1264.52631	7706.8125
1268.07163	7779.0125
1271.61453	7817.7125
1275.15503	7895.5125
1278.69312	7940.0125
1282.22882	7953.7125
1285.76211	8005.4125
1289.29301	8085.0125
1292.82151	8229.2125
1296.34761	8384.7125
1299.87133	8602.2125
1303.39266	8857.6125
1306.9116	9174.8125
1310.42815	9546.8125
1313.94233	9793.5125
1317.45412	9809.6125
1320.96354	9666.6125
1324.47058	9468.0125
1327.97525	9317.1125
1331.47754	9185.0125
1334.97747	9164.3125
1338.47502	9173.7125
1341.97022	9264.0125
1345.46305	9383.9125
1348.95352	9541.6125
1352.44163	9774.5125
1355.92738	10075.9125
1359.41078	10497.5125
1362.89183	10943.3125
1366.37053	10923.1125
1369.84688	10295.1125
1373.32088	9503.0125
1376.79254	9015.1125
1380.26186	8745.5125
1383.72883	8590.3125
1387.19347	8480.1125
1390.65578	8339.6125
1394.11575	8236.2125
1397.57339	8141.6125
1401.0287	8069.4125
1404.48168	7987.3125
1407.93234	7923.8125
1411.38068	7817.2125
1414.82669	7685.0125
1418.27039	7551.0125
1421.71177	7411.1125
1425.15083	7280.0125
1428.58758	7174.1125
1432.02203	7105.4125
1435.45416	7128.5125
1438.88399	7159.2125
1442.31151	7142.6125
1445.73673	7174.8125
1449.15965	7199.4125
1452.58027	7231.0125
1455.9986	7243.3125
1459.41463	7282.8125
1462.82837	7323.1125
1466.23982	7390.2125
1469.64898	7481.5125
1473.05586	7510.6125
1476.46045	7547.2125
1479.86276	7543.7125
1483.26279	7540.7125
1486.66054	7564.6125
1490.05602	7602.7125
1493.44922	7693.8125
1496.84016	7849.0125
1500.22882	8065.1125
1503.61521	8388.3125
1506.99934	8779.3125
1510.38121	9130.1125
1513.76081	9246.2125
1517.13816	9055.8125
1520.51324	8621.3125
1523.88607	8221.0125
1527.25665	7948.4125
1530.62498	7810.8125
1533.99105	7810.4125
1537.35488	7773.8125
1540.71647	7762.2125
1544.07581	7767.6125
1547.4329	7776.3125
1550.78776	7790.4125
1554.14038	7775.0125
1557.49077	7832.0125
1560.83892	7884.5125
1564.18484	7942.7125
1567.52853	8018.8125
1570.86999	8074.5125
1574.20922	8146.4125
1577.54624	8163.5125
1580.88103	8089.2125
1584.2136	7972.7125
1587.54395	7880.9125
1590.87208	7905.9125
1594.19801	8009.3125
1597.52172	8167.5125
1600.84321	8242.1125
1604.16251	8180.7125
1607.47959	7996.3125
1610.79447	7837.4125
1614.10715	7661.5125
1617.41763	7500.6125
1620.7259	7377.2125
1624.03199	7319.8125
1627.33587	7329.6125
1630.63757	7365.3125
1633.93707	7511.6125
1637.23439	7730.9125
1640.52951	8050.7125
1643.82246	8462.1125
1647.11321	8888.1125
1650.40179	9137.9125
1653.68819	9057.6125
1656.97241	8616.7125
1660.25446	8103.0125
1663.53433	7733.0125
1666.81203	7473.8125
1670.08756	7308.1125
1673.36092	7217.3125
1676.63211	7147.9125
1679.90115	7066.9125
1683.16801	6992.0125
1686.43272	6885.3125
1689.69527	6754.9125
1692.95567	6614.3125
1696.2139	6515.0125
1699.46999	6371.3125
1702.72392	6261.2125
1705.97571	6199.5125
1709.22535	6093.1125
1712.47284	6049.7125
1715.71819	5997.2125
1718.96139	5930.0125
1722.20246	5885.6125
1725.44139	5849.7125
1728.67818	5789.1125
1731.91284	5717.9125
1735.14537	5665.6125
1738.37576	5606.4125
1741.60403	5611.7125
1744.83017	5569.6125
1748.05418	5542.1125
1751.27607	5551.6125
1754.49584	5536.4125
1757.71349	5519.3125
1760.92903	5491.9125
1764.14244	5480.3125
1767.35375	5482.5125
1770.56294	5438.8125
1773.77002	5402.6125
1776.97499	5384.6125
1780.17785	5340.0125
1783.37861	5326.9125
1786.57727	5310.3125
1789.77382	5270.7125
1792.96828	5238.1125
1796.16064	5219.0125
1799.3509	5208.5125
1802.53907	5172.0125
1805.72514	5168.9125
1808.90913	5148.7125
1812.09102	5141.0125
1815.27083	5116.2125
1818.44856	5114.0125
1821.6242	5089.8125
1824.79776	5083.2125
1827.96924	5084.6125
1831.13864	5063.4125
1834.30597	5062.9125
1837.47122	5062.8125
1840.6344	5041.3125
1843.7955	5049.1125
1846.95454	5025.7125
1850.11151	5026.1125
1853.26642	5042.4125
1856.41926	5021.3125
1859.57004	5013.5125
1862.71876	4996.9125
1865.86542	4991.1125
1869.01003	4978.4125
1872.15258	4982.2125
1875.29308	4978.1125
1878.43152	4942.8125
1881.56792	4949.9125
1884.70227	4960.4125
1887.83457	4950.6125
1890.96482	4917.9125
1894.09304	4941.9125
1897.21921	4913.3125
1900.34335	4905.6125
1903.46544	4907.8125
1906.58551	4892.2125
1909.70353	4903.8125
1912.81953	4876.2125
1915.93349	4887.7125
1919.04543	4839.1125
1922.15534	4862.4125
1925.26322	4863.3125
1928.36908	4829.4125
1931.47292	4832.9125
1934.57473	4806.2125
1937.67453	4797.9125
1940.77232	4780.2125
1943.86808	4770.1125
1946.96184	4774.2125
1950.05358	4730.9125
1953.14331	4734.9125
1956.23103	4719.2125
1959.31675	4707.5125
1962.40046	4683.9125
1965.48217	4681.3125
1968.56188	4659.2125
1971.63959	4643.5125
1974.7153	4641.4125
1977.78901	4631.0125
1980.86073	4600.8125
1983.93046	4593.6125
1986.99819	4574.1125
1990.06394	4553.2125
1993.1277	4556.9125
1996.18947	4536.5125
1999.24925	4549.8125
2002.30706	4514.3125
2005.36288	4511.3125
2008.41672	4484.5125
2011.46859	4468.1125
2014.51848	4449.0125
2017.56639	4426.8125
2020.61233	4420.7125
2023.6563	4420.8125
2026.6983	4411.1125
2029.73833	4388.0125
2032.7764	4370.6125
2035.8125	4380.0125
2038.84664	4357.7125
2041.87881	4365.7125
2044.90903	4348.8125
2047.93729	4340.7125
2050.96359	4343.6125
2053.98794	4338.9125
2057.01034	4324.3125
2060.03078	4308.1125
2063.04927	4306.7125
2066.06582	4306.8125
2069.08042	4295.7125
2072.09307	4292.4125
2075.10378	4293.4125
2078.11255	4281.1125
2081.11938	4303.2125
2084.12426	4292.3125
2087.12722	4305.2125
2090.12824	4285.9125
2093.12732	4283.2125
2096.12447	4292.0125
2099.11969	4296.5125
2102.11299	4296.7125
2105.10435	4295.1125
2108.09379	4280.2125
2111.08131	4287.8125
2114.0669	4285.1125
2117.05057	4296.0125
2120.03233	4310.3125
2123.01216	4308.2125
2125.99008	4299.0125
2128.96609	4303.9125
2131.94018	4312.3125
2134.91236	4316.4125
2137.88263	4333.4125
2140.851	4311.5125
2143.81746	4320.2125
2146.78201	4314.3125
2149.74466	4320.1125
2152.7054	4320.5125
2155.66425	4331.3125
2158.6212	4307.4125
2161.57625	4324.8125
2164.52941	4317.2125
2167.48067	4307.5125
2170.43004	4316.0125
2173.37752	4299.9125
2176.32311	4310.2125
2179.26681	4305.7125
2182.20863	4304.7125
2185.14856	4307.4125
2188.08661	4306.3125
2191.02278	4304.9125
2193.95707	4287.8125
2196.88948	4284.6125
2199.82001	4283.2125
2202.74867	4273.4125
2205.67545	4262.9125
2208.60037	4251.6125
2211.52341	4237.4125
2214.44458	4253.0125
2217.36388	4236.5125
2220.28132	4225.2125
2223.1969	4212.8125
2226.11061	4216.9125
2229.02246	4194.5125
2231.93245	4192.7125
2234.84058	4176.1125
2237.74686	4178.6125
2240.65128	4159.2125
2243.55385	4163.0125
2246.45456	4148.8125
2249.35343	4139.7125
2252.25044	4133.6125
2255.14561	4125.6125
2258.03893	4144.1125
2260.93041	4143.4125
2263.82004	4108.8125
2266.70783	4105.1125
2269.59378	4092.2125
2272.4779	4080.0125
2275.36017	4085.1125
2278.24061	4069.4125
2281.11922	4058.8125
2283.996	4049.0125
2286.87094	4061.6125
2289.74405	4024.2125
2292.61534	4026.4125
2295.4848	4030.5125
2298.35243	4023.5125
2301.21824	4008.6125
2304.08223	4023.3125
2306.94439	4016.4125
2309.80474	4006.5125
2312.66327	4004.9125
2315.51999	3998.1125
2318.37489	3998.0125
2321.22797	3987.4125
2324.07925	3981.0125
2326.92871	3981.0125
2329.77637	3962.3125
2332.62222	3967.0125
2335.46626	3957.0125
2338.3085	3940.8125
2341.14893	3949.2125
2343.98756	3937.6125
2346.8244	3935.2125
2349.65943	3930.2125
2352.49267	3939.6125
2355.32411	3932.2125
2358.15376	3941.0125
2360.98161	3917.2125
2363.80768	3911.5125
2366.63195	3926.0125
2369.45444	3903.3125
2372.27514	3905.1125
2375.09405	3910.9125
2377.91118	3885.6125
2380.72652	3891.7125
2383.54009	3873.3125
2386.35187	3867.4125
2389.16188	3864.8125
2391.97011	3867.4125
2394.77657	3853.5125
2397.58125	3838.0125
2400.38416	3853.4125
2403.18529	3836.8125
2405.98466	3830.8125
2408.78226	3828.3125
2411.57809	3814.7125
2414.37216	3814.4125
2417.16446	3818.4125
2419.955	3799.8125
2422.74378	3804.1125
2425.5308	3786.2125
2428.31606	3775.2125
2431.09956	3779.1125
2433.88131	3765.9125
2436.6613	3766.2125
2439.43954	3766.2125
2442.21603	3768.4125
2444.99077	3754.4125
2447.76377	3765.1125
2450.53501	3760.9125
2453.30451	3759.8125
2456.07226	3745.4125
2458.83827	3750.4125
2461.60254	3739.3125
2464.36507	3730.8125
2467.12586	3729.6125
2469.88492	3723.8125
2472.64224	3750.4125
2475.39782	3730.8125
2478.15167	3721.9125
2480.90379	3720.9125
2483.65417	3724.8125
2486.40283	3713.4125
2489.14976	3707.5125
2491.89497	3707.0125
2494.63845	3716.0125
2497.3802	3708.8125
2500.12024	3698.0125
2502.85855	3700.1125
2505.59514	3701.2125
2508.33002	3689.4125
2511.06318	3684.6125
2513.79462	3666.6125
2516.52435	3681.3125
2519.25237	3660.4125
2521.97867	3660.1125
2524.70327	3672.5125
2527.42616	3650.9125
2530.14734	3654.4125
2532.86681	3636.5125
2535.58458	3626.6125
2538.30065	3630.0125
2541.01501	3633.5125
2543.72768	3615.0125
2546.43864	3610.4125
2549.14791	3609.3125
2551.85548	3604.9125
2554.56136	3593.2125
2557.26554	3588.9125
2559.96803	3583.4125
2562.66883	3586.1125
2565.36794	3576.6125
2568.06536	3576.1125
2570.7611	3563.4125
2573.45514	3557.9125
2576.14751	3546.4125
2578.83819	3542.8125
2581.52719	3543.8125
2584.21451	3525.4125
2586.90015	3528.5125
2589.58411	3524.5125
2592.2664	3525.9125
2594.94701	3508.8125
2597.62594	3495.7125
2600.30321	3482.4125
2602.9788	3481.2125
2605.65273	3474.7125
2608.32498	3479.2125
2610.99557	3479.3125
2613.66449	3463.4125
2616.33175	3481.9125
2618.99734	3464.3125
2621.66128	3449.6125
2624.32355	3462.8125
2626.98416	3465.7125
2629.64311	3441.9125
2632.30041	3457.3125
2634.95605	3438.4125
2637.61004	3434.5125
2640.26238	3438.9125
2642.91306	3425.9125
2645.56209	3421.9125
2648.20948	3421.7125
2650.85521	3420.4125
2653.4993	3412.7125
2656.14175	3413.5125
2658.78255	3410.2125
2661.42171	3405.8125
2664.05923	3422.8125
2666.6951	3406.5125
2669.32934	3410.9125
2671.96194	3411.6125
2674.59291	3410.5125
2677.22224	3416.0125
2679.84993	3397.8125
2682.476	3405.9125
2685.10043	3412.1125
2687.72324	3416.9125
2690.34441	3419.0125
2692.96396	3404.8125
2695.58188	3421.8125
2698.19818	3408.7125
2700.81285	3410.4125
2703.4259	3412.4125
2706.03733	3432.1125
2708.64714	3434.8125
2711.25533	3429.0125
2713.86191	3412.3125
2716.46687	3420.2125
2719.07021	3430.5125
2721.67194	3404.0125
2724.27206	3413.0125
2726.87057	3408.2125
2729.46747	3418.3125
2732.06276	3412.9125
2734.65644	3402.9125
2737.24852	3419.8125
2739.83899	3406.3125
2742.42786	3411.1125
2745.01513	3402.8125
2747.60079	3401.3125
2750.18486	3387.9125
2752.76733	3389.4125
2755.3482	3379.3125
2757.92747	3372.4125
2760.50515	3377.8125
2763.08123	3359.7125
2765.65573	3373.1125
2768.22863	3370.9125
2770.79994	3362.9125
2773.36967	3366.2125
2775.9378	3355.8125
2778.50435	3355.8125
2781.06932	3338.3125
2783.6327	3345.8125
2786.1945	3331.5125
2788.75471	3335.4125
2791.31335	3330.3125
2793.87041	3315.6125
2796.42589	3301.5125
2798.97979	3314.4125
2801.53212	3308.0125
2804.08288	3274.6125
2806.63206	3287.7125
2809.17967	3282.3125
2811.72571	3269.8125
2814.27018	3270.7125
2816.81308	3268.9125
2819.35442	3263.8125
2821.89419	3262.9125
2824.43239	3265.1125
2826.96904	3244.6125
2829.50412	3255.9125
2832.03763	3230.4125
2834.56959	3252.8125
2837.1	3240.9125
2839.62884	3232.0125
2842.15613	3242.4125
2844.68186	3245.1125
2847.20604	3259.9125
2849.72867	3255.1125
2852.24974	3246.5125
2854.76927	3258.7125
2857.28724	3247.1125
2859.80367	3242.2125
2862.31855	3242.4125
2864.83189	3223.6125
2867.34368	3233.0125
2869.85393	3235.5125
2872.36264	3235.6125
2874.8698	3235.5125
2877.37543	3237.4125
2879.87952	3232.6125
2882.38207	3246.6125
2884.88308	3238.4125
2887.38256	3239.5125
2889.88051	3253.3125
2892.37692	3242.9125
2894.8718	3233.3125
2897.36515	3227.4125
2899.85698	3234.6125
2902.34727	3253.0125
2904.83604	3250.4125
2907.32328	3276.7125
2909.809	3263.4125
2912.29319	3270.5125
2914.77587	3261.2125
2917.25702	3268.1125
2919.73665	3263.3125
2922.21476	3257.8125
2924.69136	3266.7125
2927.16644	3288.8125
2929.64	3266.8125
2932.11205	3280.0125
2934.58258	3277.9125
2937.05161	3271.1125
2939.51912	3265.9125
2941.98513	3268.6125
2944.44962	3267.0125
2946.91261	3260.2125
2949.37409	3271.8125
2951.83407	3268.3125
2954.29254	3265.9125
2956.74951	3253.0125
2959.20498	3261.9125
2961.65895	3248.6125
2964.11142	3235.5125
2966.56239	3236.2125
2969.01186	3229.3125
2971.45984	3215.5125
2973.90632	3218.1125
2976.35131	3207.6125
2978.7948	3205.4125
2981.23681	3195.9125
2983.67732	3190.8125
2986.11635	3183.0125
2988.55388	3177.0125
2990.98993	3167.8125
2993.4245	3171.1125
2995.85758	3161.8125
2998.28917	3168.3125
3000.71928	3158.2125
3003.14791	3170.1125
3005.57506	3151.2125
3008.00073	3146.4125
3010.42493	3150.1125
3012.84764	3149.1125
3015.26888	3143.5125
3017.68865	3137.0125
3020.10694	3143.9125
3022.52376	3132.5125
3024.9391	3134.5125
3027.35298	3135.9125
3029.76539	3134.7125
3032.17632	3126.6125
3034.5858	3120.1125
3036.9938	3144.6125
3039.40034	3130.6125
3041.80542	3118.6125
3044.20903	3112.4125
3046.61118	3121.2125
3049.01187	3109.6125
3051.4111	3106.6125
3053.80888	3124.3125
3056.20519	3107.3125
3058.60005	3105.6125
3060.99345	3091.9125
3063.3854	3098.4125
3065.7759	3086.9125
3068.16494	3096.2125
3070.55254	3077.4125
3072.93868	3081.8125
3075.32338	3089.3125
3077.70662	3085.9125
3080.08842	3069.8125
3082.46878	3088.2125
3084.84769	3096.2125
3087.22515	3089.1125
3089.60118	3106.7125
3091.97576	3103.1125
3094.3489	3113.8125
3096.72061	3107.2125
3099.09087	3110.2125
3101.4597	3108.4125
3103.82709	3128.7125
3106.19305	3114.6125
3108.55757	3124.2125
3110.92066	3107.1125
3113.28232	3116.8125
3115.64255	3103.9125
3118.00134	3105.9125
3120.35871	3114.2125
3122.71466	3124.2125
3125.06917	3108.1125
3127.42226	3110.1125
3129.77393	3117.7125
3132.12417	3125.3125
3134.47299	3136.5125
3136.82039	3131.7125
3139.16636	3134.8125
3141.51092	3142.2125
3143.85406	3150.6125
3146.19579	3161.8125
3148.53609	3161.0125
3150.87499	3187.4125
3153.21246	3186.3125
3155.54853	3196.7125
3157.88318	3198.7125
3160.21642	3197.9125
3162.54826	3201.4125
3164.87868	3205.3125
3167.2077	3218.2125
3169.5353	3221.1125
3171.86151	3223.7125
3174.18631	3235.7125
3176.5097	3228.5125
3178.83169	3224.5125
3181.15228	3240.9125
3183.47147	3215.6125
3185.78926	3236.4125
3188.10565	3234.6125
3190.42065	3246.6125
3192.73424	3245.3125
3195.04645	3247.1125
3197.35725	3258.8125
3199.66667	3265.9125
3201.97469	3275.2125
3204.28132	3272.5125
3206.58656	3295.8125
3208.8904	3271.0125
3211.19287	3295.5125
3213.49394	3297.0125
3215.79363	3295.8125
3218.09193	3311.8125
3220.38884	3316.0125
3222.68438	3327.3125
3224.97853	3305.0125
3227.2713	3311.5125
3229.56269	3309.4125
3231.8527	3304.1125
3234.14133	3303.3125
3236.42858	3305.5125
3238.71446	3298.4125
3240.99896	3283.0125
3243.28209	3300.3125
3245.56384	3289.0125
3247.84423	3285.5125
3250.12324	3277.6125
3252.40088	3282.8125
3254.67715	3296.4125
3256.95205	3272.5125
3259.22558	3289.4125
3261.49775	3285.0125
3263.76855	3275.6125
3266.03799	3264.4125
3268.30606	3284.6125
3270.57277	3261.1125
3272.83812	3272.7125
3275.10211	3246.6125
3277.36474	3266.7125
3279.62601	3268.5125
3281.88593	3246.1125
3284.14448	3265.4125
3286.40168	3264.6125
3288.65753	3240.7125
3290.91202	3246.8125
3293.16516	3232.9125
3295.41695	3224.3125
3297.66738	3201.9125
3299.91647	3206.3125
3302.16421	3176.9125
3304.4106	3174.8125
3306.65564	3168.0125
3308.89933	3168.3125
3311.14169	3128.8125
3313.38269	3103.2125
3315.62236	3106.2125
3317.86068	3053.8125
3320.09766	3043.5125
3322.3333	3025.6125
3324.5676	3032.3125
3326.80056	2988.1125
3329.03219	2961.6125
3331.26248	0.6125
3333.49143	-0.0875
3335.71905	-1.2875
