Data from AgNPs_FTO_APTES_UA_0.1mM_CRN_0uM_NaF_0.1M_Addition_RamanShift__14__10-18-57-465.txt Node

Date: Mon Dec 20 10:18:57 GMT 2021
User: TCL
Spectrometer: QEP01345
Trigger mode: 4
Integration Time (sec): 7.000000E0
Scans to average: 10
Electric dark correction enabled: true
Nonlinearity correction enabled: false
Boxcar width: 0
XAxis mode: Raman Shifts
Number of Pixels in Spectrum: 1044
>>>>>Begin Spectral Data<<<<<
46.04893	0.4375
50.45542	0.3375
54.85868	-1.6625
59.25871	1.5375
63.6555	20.1375
68.04907	21.6375
72.43941	24.7375
76.82654	28.2375
81.21044	25.6375
85.59113	32.7375
89.96862	27.7375
94.34289	34.1375
98.71396	30.4375
103.08183	31.7375
107.4465	32.7375
111.80798	33.6375
116.16626	33.5375
120.52136	36.0375
124.87327	38.6375
129.222	36.1375
133.56755	38.5375
137.90993	40.7375
142.24913	37.8375
146.58517	39.1375
150.91804	45.3375
155.24774	51.3375
159.57429	57.6375
163.89768	71.1375
168.21792	88.5375
172.53501	111.5375
176.84895	145.0375
181.15975	201.9375
185.46741	273.2375
189.77193	379.2375
194.07331	499.9375
198.37157	646.4375
202.6667	812.7375
206.9587	966.7375
211.24758	1124.1375
215.53334	1280.7375
219.81599	1447.4375
224.09553	1609.5375
228.37195	1801.1375
232.64527	1979.5375
236.91549	2180.1375
241.18261	2362.1375
245.44663	2530.4375
249.70755	2670.8375
253.96539	2791.0375
258.22014	2882.7375
262.4718	2945.5375
266.72039	2980.4375
270.96589	2985.1375
275.20832	2952.6375
279.44768	2890.2375
283.68397	2814.9375
287.91719	2732.9375
292.14735	2662.9375
296.37445	2619.0375
300.59849	2595.9375
304.81948	2571.3375
309.03742	2564.2375
313.25231	2520.3375
317.46415	2477.0375
321.67296	2411.9375
325.87872	2371.0375
330.08145	2348.3375
334.28114	2345.3375
338.47781	2354.4375
342.67145	2353.4375
346.86207	2395.1375
351.04966	2428.7375
355.23424	2473.7375
359.4158	2514.2375
363.59435	2547.0375
367.76989	2583.0375
371.94243	2603.9375
376.11196	2638.7375
380.27849	2659.0375
384.44203	2671.5375
388.60257	2679.7375
392.76012	2710.4375
396.91468	2724.0375
401.06626	2743.4375
405.21485	2746.5375
409.36047	2738.8375
413.50311	2706.2375
417.64277	2658.2375
421.77947	2644.2375
425.9132	2642.5375
430.04396	2643.4375
434.17176	2655.3375
438.2966	2661.8375
442.41849	2689.4375
446.53742	2712.1375
450.6534	2724.3375
454.76644	2753.9375
458.87653	2761.9375
462.98368	2775.0375
467.08789	2774.8375
471.18916	2787.4375
475.2875	2788.4375
479.38291	2801.5375
483.4754	2810.5375
487.56496	2862.6375
491.6516	2902.0375
495.73531	2955.7375
499.81612	2940.2375
503.89401	2932.7375
507.96899	2921.0375
512.04106	2896.1375
516.11023	2897.7375
520.1765	2896.3375
524.23987	2906.1375
528.30034	2889.2375
532.35792	2895.1375
536.41261	2867.4375
540.46441	2848.8375
544.51333	2817.7375
548.55936	2805.5375
552.60252	2811.3375
556.64279	2813.8375
560.6802	2839.9375
564.71473	2821.1375
568.7464	2845.1375
572.7752	2852.8375
576.80114	2841.7375
580.82422	2838.9375
584.84444	2848.9375
588.86181	2878.9375
592.87633	2904.0375
596.888	2903.7375
600.89682	2900.8375
604.9028	2967.6375
608.90594	3180.5375
612.90624	3501.0375
616.90371	3567.3375
620.89834	3264.5375
624.89015	3165.7375
628.87913	3283.8375
632.86528	3431.3375
636.84862	3534.7375
640.82913	3542.7375
644.80683	3423.3375
648.78172	3281.8375
652.75379	3178.8375
656.72306	3132.4375
660.68952	3157.3375
664.65319	3138.1375
668.61405	3138.4375
672.57211	3169.9375
676.52738	3230.8375
680.47986	3290.1375
684.42955	3373.2375
688.37646	3444.1375
692.32058	3425.8375
696.26192	3326.4375
700.20048	3215.2375
704.13626	3165.6375
708.06928	3130.7375
711.99952	3093.0375
715.927	3053.2375
719.85171	3013.6375
723.77365	2985.4375
727.69284	2976.5375
731.60928	2957.5375
735.52295	2923.5375
739.43388	2903.5375
743.34206	2895.0375
747.24749	2896.3375
751.15017	2872.9375
755.05012	2882.5375
758.94733	2903.8375
762.8418	2970.9375
766.73354	3088.0375
770.62254	3244.3375
774.50882	3335.5375
778.39237	3308.1375
782.27321	3167.7375
786.15132	3040.0375
790.02671	2993.9375
793.89938	2993.6375
797.76935	3008.0375
801.6366	3038.8375
805.50115	3078.5375
809.36299	3145.2375
813.22213	3175.7375
817.07857	3117.1375
820.93231	3020.8375
824.78336	2944.1375
828.63172	2878.1375
832.47738	2843.5375
836.32036	2819.9375
840.16066	2805.5375
843.99827	2810.8375
847.8332	2804.6375
851.66546	2779.9375
855.49504	2766.6375
859.32195	2753.6375
863.1462	2762.9375
866.96777	2767.0375
870.78668	2786.9375
874.60293	2801.4375
878.41652	2844.2375
882.22745	2888.2375
886.03573	2927.6375
889.84136	2966.8375
893.64433	2942.7375
897.44466	2887.9375
901.24235	2847.4375
905.0374	2801.5375
908.8298	2801.3375
912.61957	2823.7375
916.40671	2851.4375
920.19121	2899.0375
923.97308	2953.3375
927.75233	2962.9375
931.52895	2973.3375
935.30295	2957.7375
939.07433	2923.7375
942.84309	2889.3375
946.60924	2848.5375
950.37278	2822.8375
954.13371	2814.0375
957.89203	2783.6375
961.64774	2739.9375
965.40086	2721.1375
969.15137	2686.8375
972.89929	2636.7375
976.64461	2633.1375
980.38733	2610.3375
984.12747	2608.5375
987.86502	2608.0375
991.59999	2612.4375
995.33237	2634.7375
999.06217	2664.9375
1002.78939	2701.6375
1006.51404	2727.7375
1010.23611	2767.1375
1013.95561	2799.6375
1017.67255	2820.8375
1021.38692	2794.1375
1025.09872	2793.3375
1028.80796	2763.2375
1032.51465	2730.6375
1036.21877	2700.0375
1039.92035	2661.0375
1043.61937	2635.8375
1047.31584	2626.7375
1051.00976	2609.7375
1054.70114	2619.5375
1058.38998	2612.0375
1062.07627	2631.1375
1065.76003	2620.0375
1069.44126	2639.9375
1073.11995	2637.9375
1076.79611	2626.8375
1080.46974	2636.5375
1084.14085	2629.7375
1087.80943	2620.5375
1091.47549	2608.6375
1095.13903	2581.9375
1098.80005	2559.8375
1102.45857	2547.7375
1106.11456	2545.4375
1109.76805	2559.2375
1113.41903	2600.5375
1117.06751	2682.9375
1120.71348	2788.1375
1124.35696	2941.2375
1127.99793	3123.5375
1131.63641	3269.9375
1135.2724	3344.4375
1138.90589	3307.7375
1142.5369	3197.1375
1146.16542	3044.1375
1149.79145	2903.3375
1153.415	2780.8375
1157.03607	2701.0375
1160.65467	2647.7375
1164.27079	2628.1375
1167.88443	2637.5375
1171.49561	2685.1375
1175.10432	2761.5375
1178.71056	2870.7375
1182.31434	2971.2375
1185.91565	3014.9375
1189.51451	3009.8375
1193.11091	2971.6375
1196.70485	2945.2375
1200.29634	2950.2375
1203.88538	2951.7375
1207.47197	2903.4375
1211.05612	2830.3375
1214.63782	2776.0375
1218.21708	2708.6375
1221.79391	2665.2375
1225.36829	2635.8375
1228.94024	2621.8375
1232.50976	2617.4375
1236.07685	2628.3375
1239.6415	2640.6375
1243.20374	2651.8375
1246.76355	2682.0375
1250.32093	2686.4375
1253.8759	2719.2375
1257.42845	2739.5375
1260.97859	2767.2375
1264.52631	2787.0375
1268.07163	2824.3375
1271.61453	2843.5375
1275.15503	2867.7375
1278.69312	2891.3375
1282.22882	2901.0375
1285.76211	2932.0375
1289.29301	2972.4375
1292.82151	3033.5375
1296.34761	3103.0375
1299.87133	3179.7375
1303.39266	3267.5375
1306.9116	3400.9375
1310.42815	3535.8375
1313.94233	3616.7375
1317.45412	3592.3375
1320.96354	3490.5375
1324.47058	3389.2375
1327.97525	3308.5375
1331.47754	3282.4375
1334.97747	3302.5375
1338.47502	3353.7375
1341.97022	3427.1375
1345.46305	3544.2375
1348.95352	3714.3375
1352.44163	3892.7375
1355.92738	4114.3375
1359.41078	4390.1375
1362.89183	4692.5375
1366.37053	4748.7375
1369.84688	4453.7375
1373.32088	4128.7375
1376.79254	3867.8375
1380.26186	3724.8375
1383.72883	3627.7375
1387.19347	3553.4375
1390.65578	3468.5375
1394.11575	3394.1375
1397.57339	3330.7375
1401.0287	3257.0375
1404.48168	3191.4375
1407.93234	3130.5375
1411.38068	3075.4375
1414.82669	3015.8375
1418.27039	2962.5375
1421.71177	2923.5375
1425.15083	2882.7375
1428.58758	2838.6375
1432.02203	2779.2375
1435.45416	2774.5375
1438.88399	2738.1375
1442.31151	2718.3375
1445.73673	2715.8375
1449.15965	2707.4375
1452.58027	2682.9375
1455.9986	2669.2375
1459.41463	2675.5375
1462.82837	2674.9375
1466.23982	2694.7375
1469.64898	2723.8375
1473.05586	2765.9375
1476.46045	2774.7375
1479.86276	2799.0375
1483.26279	2819.5375
1486.66054	2867.0375
1490.05602	2862.9375
1493.44922	2914.1375
1496.84016	2973.9375
1500.22882	3071.6375
1503.61521	3241.1375
1506.99934	3430.6375
1510.38121	3602.7375
1513.76081	3671.3375
1517.13816	3549.1375
1520.51324	3348.8375
1523.88607	3129.2375
1527.25665	2980.9375
1530.62498	2909.2375
1533.99105	2889.8375
1537.35488	2866.9375
1540.71647	2863.4375
1544.07581	2865.2375
1547.4329	2897.6375
1550.78776	2920.4375
1554.14038	2928.3375
1557.49077	2962.9375
1560.83892	2981.5375
1564.18484	2993.2375
1567.52853	3007.0375
1570.86999	3018.6375
1574.20922	3026.7375
1577.54624	2997.6375
1580.88103	2950.6375
1584.2136	2850.4375
1587.54395	2785.5375
1590.87208	2757.4375
1594.19801	2743.1375
1597.52172	2758.0375
1600.84321	2783.5375
1604.16251	2768.3375
1607.47959	2755.8375
1610.79447	2732.6375
1614.10715	2710.8375
1617.41763	2690.9375
1620.7259	2671.2375
1624.03199	2651.5375
1627.33587	2656.0375
1630.63757	2655.9375
1633.93707	2679.8375
1637.23439	2705.2375
1640.52951	2758.0375
1643.82246	2831.6375
1647.11321	2966.3375
1650.40179	3073.9375
1653.68819	3096.3375
1656.97241	2981.0375
1660.25446	2834.2375
1663.53433	2729.9375
1666.81203	2660.7375
1670.08756	2624.7375
1673.36092	2606.1375
1676.63211	2591.2375
1679.90115	2578.2375
1683.16801	2571.6375
1686.43272	2512.3375
1689.69527	2476.4375
1692.95567	2427.0375
1696.2139	2360.1375
1699.46999	2311.1375
1702.72392	2271.4375
1705.97571	2214.2375
1709.22535	2157.7375
1712.47284	2109.8375
1715.71819	2075.3375
1718.96139	2021.7375
1722.20246	1976.0375
1725.44139	1941.0375
1728.67818	1891.3375
1731.91284	1850.0375
1735.14537	1813.5375
1738.37576	1780.1375
1741.60403	1756.2375
1744.83017	1726.4375
1748.05418	1700.1375
1751.27607	1690.4375
1754.49584	1669.3375
1757.71349	1655.4375
1760.92903	1629.1375
1764.14244	1634.1375
1767.35375	1622.4375
1770.56294	1620.1375
1773.77002	1620.1375
1776.97499	1599.6375
1780.17785	1598.1375
1783.37861	1594.6375
1786.57727	1583.2375
1789.77382	1574.1375
1792.96828	1558.3375
1796.16064	1553.2375
1799.3509	1531.6375
1802.53907	1531.4375
1805.72514	1512.8375
1808.90913	1518.7375
1812.09102	1506.6375
1815.27083	1502.0375
1818.44856	1498.5375
1821.6242	1491.7375
1824.79776	1482.1375
1827.96924	1489.7375
1831.13864	1474.8375
1834.30597	1477.1375
1837.47122	1473.5375
1840.6344	1465.1375
1843.7955	1463.6375
1846.95454	1461.8375
1850.11151	1461.5375
1853.26642	1448.6375
1856.41926	1450.2375
1859.57004	1448.2375
1862.71876	1442.7375
1865.86542	1446.6375
1869.01003	1440.0375
1872.15258	1435.4375
1875.29308	1433.8375
1878.43152	1435.3375
1881.56792	1424.7375
1884.70227	1431.0375
1887.83457	1420.3375
1890.96482	1422.3375
1894.09304	1417.8375
1897.21921	1414.0375
1900.34335	1408.0375
1903.46544	1412.0375
1906.58551	1402.4375
1909.70353	1402.2375
1912.81953	1398.9375
1915.93349	1390.1375
1919.04543	1391.4375
1922.15534	1386.2375
1925.26322	1376.0375
1928.36908	1379.0375
1931.47292	1375.1375
1934.57473	1364.5375
1937.67453	1362.9375
1940.77232	1352.5375
1943.86808	1356.0375
1946.96184	1346.8375
1950.05358	1337.9375
1953.14331	1338.6375
1956.23103	1330.1375
1959.31675	1335.7375
1962.40046	1326.7375
1965.48217	1319.9375
1968.56188	1314.0375
1971.63959	1316.4375
1974.7153	1300.8375
1977.78901	1298.9375
1980.86073	1300.9375
1983.93046	1296.7375
1986.99819	1287.0375
1990.06394	1280.9375
1993.1277	1283.1375
1996.18947	1279.0375
1999.24925	1276.6375
2002.30706	1266.1375
2005.36288	1258.6375
2008.41672	1252.2375
2011.46859	1251.6375
2014.51848	1247.8375
2017.56639	1241.8375
2020.61233	1253.5375
2023.6563	1235.2375
2026.6983	1235.6375
2029.73833	1224.4375
2032.7764	1227.6375
2035.8125	1222.1375
2038.84664	1209.3375
2041.87881	1216.0375
2044.90903	1217.6375
2047.93729	1210.9375
2050.96359	1207.4375
2053.98794	1211.4375
2057.01034	1212.2375
2060.03078	1209.5375
2063.04927	1214.8375
2066.06582	1204.7375
2069.08042	1204.7375
2072.09307	1204.6375
2075.10378	1199.0375
2078.11255	1202.2375
2081.11938	1204.2375
2084.12426	1199.1375
2087.12722	1211.3375
2090.12824	1203.7375
2093.12732	1205.8375
2096.12447	1202.4375
2099.11969	1198.7375
2102.11299	1206.1375
2105.10435	1200.6375
2108.09379	1202.5375
2111.08131	1202.1375
2114.0669	1198.8375
2117.05057	1205.3375
2120.03233	1194.2375
2123.01216	1200.6375
2125.99008	1197.1375
2128.96609	1195.8375
2131.94018	1190.2375
2134.91236	1203.9375
2137.88263	1190.6375
2140.851	1184.2375
2143.81746	1189.4375
2146.78201	1182.5375
2149.74466	1180.0375
2152.7054	1183.9375
2155.66425	1185.7375
2158.6212	1182.4375
2161.57625	1163.5375
2164.52941	1177.7375
2167.48067	1170.8375
2170.43004	1171.5375
2173.37752	1164.6375
2176.32311	1160.0375
2179.26681	1164.1375
2182.20863	1167.7375
2185.14856	1164.1375
2188.08661	1160.8375
2191.02278	1159.2375
2193.95707	1160.4375
2196.88948	1155.6375
2199.82001	1156.9375
2202.74867	1151.0375
2205.67545	1143.3375
2208.60037	1146.5375
2211.52341	1141.5375
2214.44458	1135.8375
2217.36388	1136.9375
2220.28132	1133.9375
2223.1969	1126.0375
2226.11061	1129.1375
2229.02246	1123.4375
2231.93245	1124.5375
2234.84058	1120.2375
2237.74686	1119.0375
2240.65128	1109.1375
2243.55385	1106.3375
2246.45456	1103.2375
2249.35343	1106.9375
2252.25044	1103.3375
2255.14561	1090.3375
2258.03893	1095.1375
2260.93041	1094.1375
2263.82004	1096.4375
2266.70783	1084.2375
2269.59378	1093.2375
2272.4779	1072.3375
2275.36017	1080.2375
2278.24061	1078.7375
2281.11922	1070.3375
2283.996	1065.1375
2286.87094	1066.1375
2289.74405	1073.4375
2292.61534	1063.2375
2295.4848	1058.8375
2298.35243	1054.5375
2301.21824	1047.0375
2304.08223	1048.5375
2306.94439	1055.0375
2309.80474	1044.0375
2312.66327	1045.0375
2315.51999	1039.6375
2318.37489	1039.6375
2321.22797	1038.9375
2324.07925	1030.8375
2326.92871	1040.4375
2329.77637	1035.0375
2332.62222	1028.9375
2335.46626	1032.2375
2338.3085	1027.5375
2341.14893	1016.8375
2343.98756	1012.3375
2346.8244	1020.8375
2349.65943	1015.9375
2352.49267	1013.8375
2355.32411	1007.9375
2358.15376	1015.1375
2360.98161	1017.5375
2363.80768	1015.9375
2366.63195	1006.1375
2369.45444	1010.7375
2372.27514	1011.7375
2375.09405	1019.3375
2377.91118	1005.6375
2380.72652	996.3375
2383.54009	1008.1375
2386.35187	1000.2375
2389.16188	994.9375
2391.97011	995.2375
2394.77657	984.4375
2397.58125	980.2375
2400.38416	982.2375
2403.18529	980.5375
2405.98466	978.1375
2408.78226	979.4375
2411.57809	973.9375
2414.37216	958.8375
2417.16446	967.2375
2419.955	960.1375
2422.74378	961.3375
2425.5308	958.3375
2428.31606	955.2375
2431.09956	953.8375
2433.88131	959.0375
2436.6613	958.7375
2439.43954	955.3375
2442.21603	949.6375
2444.99077	949.9375
2447.76377	948.4375
2450.53501	946.5375
2453.30451	951.1375
2456.07226	942.0375
2458.83827	942.5375
2461.60254	940.0375
2464.36507	935.3375
2467.12586	929.5375
2469.88492	936.9375
2472.64224	929.2375
2475.39782	925.4375
2478.15167	924.4375
2480.90379	927.5375
2483.65417	929.6375
2486.40283	925.1375
2489.14976	928.7375
2491.89497	929.2375
2494.63845	923.6375
2497.3802	911.5375
2500.12024	920.3375
2502.85855	914.0375
2505.59514	909.2375
2508.33002	910.0375
2511.06318	916.3375
2513.79462	901.6375
2516.52435	902.1375
2519.25237	905.1375
2521.97867	900.3375
2524.70327	901.4375
2527.42616	901.4375
2530.14734	900.8375
2532.86681	888.9375
2535.58458	890.0375
2538.30065	889.5375
2541.01501	885.0375
2543.72768	881.1375
2546.43864	883.8375
2549.14791	879.5375
2551.85548	882.1375
2554.56136	878.3375
2557.26554	880.4375
2559.96803	872.5375
2562.66883	868.8375
2565.36794	872.7375
2568.06536	868.1375
2570.7611	868.2375
2573.45514	866.3375
2576.14751	862.8375
2578.83819	865.9375
2581.52719	854.7375
2584.21451	860.6375
2586.90015	854.1375
2589.58411	857.3375
2592.2664	847.5375
2594.94701	860.5375
2597.62594	848.6375
2600.30321	847.0375
2602.9788	844.4375
2605.65273	844.7375
2608.32498	831.8375
2610.99557	843.5375
2613.66449	837.3375
2616.33175	837.8375
2618.99734	835.7375
2621.66128	839.4375
2624.32355	835.6375
2626.98416	838.3375
2629.64311	833.8375
2632.30041	828.0375
2634.95605	826.1375
2637.61004	822.9375
2640.26238	824.3375
2642.91306	825.2375
2645.56209	822.8375
2648.20948	824.5375
2650.85521	824.6375
2653.4993	821.9375
2656.14175	826.2375
2658.78255	824.8375
2661.42171	821.4375
2664.05923	822.7375
2666.6951	817.4375
2669.32934	823.1375
2671.96194	822.8375
2674.59291	824.5375
2677.22224	822.6375
2679.84993	817.4375
2682.476	818.7375
2685.10043	810.7375
2687.72324	823.2375
2690.34441	820.6375
2692.96396	829.4375
2695.58188	822.0375
2698.19818	825.2375
2700.81285	819.9375
2703.4259	818.8375
2706.03733	811.3375
2708.64714	816.0375
2711.25533	821.6375
2713.86191	823.7375
2716.46687	827.9375
2719.07021	823.5375
2721.67194	831.0375
2724.27206	818.5375
2726.87057	825.8375
2729.46747	823.5375
2732.06276	822.6375
2734.65644	824.1375
2737.24852	811.8375
2739.83899	820.7375
2742.42786	815.1375
2745.01513	813.2375
2747.60079	814.9375
2750.18486	813.2375
2752.76733	807.1375
2755.3482	813.4375
2757.92747	806.5375
2760.50515	806.8375
2763.08123	811.9375
2765.65573	796.5375
2768.22863	811.3375
2770.79994	801.3375
2773.36967	801.6375
2775.9378	802.6375
2778.50435	794.6375
2781.06932	792.8375
2783.6327	789.4375
2786.1945	799.0375
2788.75471	794.6375
2791.31335	795.0375
2793.87041	786.2375
2796.42589	790.1375
2798.97979	777.4375
2801.53212	782.4375
2804.08288	779.4375
2806.63206	777.4375
2809.17967	782.9375
2811.72571	768.9375
2814.27018	772.7375
2816.81308	773.2375
2819.35442	771.3375
2821.89419	776.9375
2824.43239	771.2375
2826.96904	768.3375
2829.50412	771.5375
2832.03763	768.7375
2834.56959	773.5375
2837.1	757.0375
2839.62884	769.2375
2842.15613	772.0375
2844.68186	772.8375
2847.20604	775.1375
2849.72867	776.9375
2852.24974	771.9375
2854.76927	766.7375
2857.28724	769.4375
2859.80367	767.0375
2862.31855	772.8375
2864.83189	782.1375
2867.34368	781.3375
2869.85393	785.2375
2872.36264	787.0375
2874.8698	797.4375
2877.37543	798.5375
2879.87952	798.4375
2882.38207	801.0375
2884.88308	800.4375
2887.38256	801.3375
2889.88051	807.3375
2892.37692	809.0375
2894.8718	811.0375
2897.36515	820.3375
2899.85698	821.3375
2902.34727	828.5375
2904.83604	828.8375
2907.32328	837.5375
2909.809	836.1375
2912.29319	844.1375
2914.77587	837.5375
2917.25702	846.9375
2919.73665	853.3375
2922.21476	855.6375
2924.69136	858.9375
2927.16644	864.1375
2929.64	864.7375
2932.11205	870.6375
2934.58258	870.8375
2937.05161	866.4375
2939.51912	869.1375
2941.98513	870.2375
2944.44962	863.6375
2946.91261	854.3375
2949.37409	852.7375
2951.83407	838.8375
2954.29254	842.6375
2956.74951	831.4375
2959.20498	828.9375
2961.65895	823.8375
2964.11142	817.8375
2966.56239	811.1375
2969.01186	813.1375
2971.45984	796.1375
2973.90632	789.4375
2976.35131	788.6375
2978.7948	785.9375
2981.23681	781.7375
2983.67732	791.3375
2986.11635	778.0375
2988.55388	782.3375
2990.98993	775.6375
2993.4245	776.2375
2995.85758	774.0375
2998.28917	775.5375
3000.71928	767.3375
3003.14791	771.6375
3005.57506	768.0375
3008.00073	771.2375
3010.42493	776.5375
3012.84764	777.4375
3015.26888	764.1375
3017.68865	764.6375
3020.10694	771.9375
3022.52376	769.6375
3024.9391	776.1375
3027.35298	769.2375
3029.76539	771.9375
3032.17632	779.3375
3034.5858	769.5375
3036.9938	769.4375
3039.40034	775.3375
3041.80542	778.8375
3044.20903	778.9375
3046.61118	787.9375
3049.01187	778.7375
3051.4111	772.6375
3053.80888	779.3375
3056.20519	787.1375
3058.60005	779.0375
3060.99345	791.8375
3063.3854	788.6375
3065.7759	785.9375
3068.16494	785.4375
3070.55254	787.4375
3072.93868	789.1375
3075.32338	799.5375
3077.70662	798.9375
3080.08842	802.8375
3082.46878	805.5375
3084.84769	810.7375
3087.22515	811.5375
3089.60118	810.2375
3091.97576	818.2375
3094.3489	820.0375
3096.72061	822.5375
3099.09087	833.2375
3101.4597	834.5375
3103.82709	833.0375
3106.19305	839.1375
3108.55757	840.6375
3110.92066	840.4375
3113.28232	847.2375
3115.64255	858.3375
3118.00134	860.4375
3120.35871	856.1375
3122.71466	860.2375
3125.06917	864.3375
3127.42226	866.8375
3129.77393	871.3375
3132.12417	881.3375
3134.47299	890.0375
3136.82039	881.6375
3139.16636	893.5375
3141.51092	906.2375
3143.85406	906.2375
3146.19579	911.9375
3148.53609	925.8375
3150.87499	926.2375
3153.21246	930.0375
3155.54853	936.8375
3157.88318	943.9375
3160.21642	947.9375
3162.54826	956.4375
3164.87868	961.4375
3167.2077	967.8375
3169.5353	967.8375
3171.86151	974.9375
3174.18631	983.5375
3176.5097	985.3375
3178.83169	990.6375
3181.15228	995.1375
3183.47147	999.3375
3185.78926	1008.3375
3188.10565	1003.3375
3190.42065	1018.6375
3192.73424	1009.7375
3195.04645	1025.1375
3197.35725	1028.7375
3199.66667	1028.3375
3201.97469	1030.2375
3204.28132	1042.2375
3206.58656	1042.7375
3208.8904	1046.9375
3211.19287	1055.6375
3213.49394	1067.4375
3215.79363	1062.7375
3218.09193	1059.7375
3220.38884	1068.4375
3222.68438	1063.3375
3224.97853	1071.2375
3227.2713	1077.9375
3229.56269	1070.1375
3231.8527	1072.2375
3234.14133	1063.5375
3236.42858	1070.5375
3238.71446	1070.8375
3240.99896	1076.9375
3243.28209	1082.8375
3245.56384	1079.3375
3247.84423	1077.3375
3250.12324	1073.7375
3252.40088	1080.4375
3254.67715	1078.0375
3256.95205	1072.1375
3259.22558	1079.5375
3261.49775	1075.1375
3263.76855	1082.7375
3266.03799	1070.9375
3268.30606	1077.6375
3270.57277	1076.4375
3272.83812	1072.7375
3275.10211	1070.9375
3277.36474	1077.7375
3279.62601	1076.9375
3281.88593	1069.3375
3284.14448	1072.5375
3286.40168	1083.4375
3288.65753	1069.4375
3290.91202	1069.7375
3293.16516	1064.4375
3295.41695	1070.5375
3297.66738	1062.7375
3299.91647	1059.4375
3302.16421	1051.0375
3304.4106	1050.4375
3306.65564	1046.9375
3308.89933	1047.1375
3311.14169	1030.1375
3313.38269	1022.8375
3315.62236	1016.1375
3317.86068	1018.3375
3320.09766	1008.4375
3322.3333	1004.7375
3324.5676	1005.8375
3326.80056	986.3375
3329.03219	974.6375
3331.26248	0.0375
3333.49143	1.0375
3335.71905	-1.1625
