Data from AgNPs_FTO_APTES_UA_0.1mM_CRN_1000uM_NaF_0.1M_Addition_RamanShift__29__15-47-57-836.txt Node

Date: Mon Dec 20 15:47:57 GMT 2021
User: TCL
Spectrometer: QEP01345
Trigger mode: 4
Integration Time (sec): 7.000000E0
Scans to average: 10
Electric dark correction enabled: true
Nonlinearity correction enabled: false
Boxcar width: 0
XAxis mode: Raman Shifts
Number of Pixels in Spectrum: 1044
>>>>>Begin Spectral Data<<<<<
46.04893	2.2375
50.45542	-0.3625
54.85868	-0.5625
59.25871	1.1375
63.6555	23.0375
68.04907	22.7375
72.43941	26.9375
76.82654	25.2375
81.21044	26.3375
85.59113	30.7375
89.96862	26.9375
94.34289	32.5375
98.71396	30.8375
103.08183	32.0375
107.4465	32.3375
111.80798	35.0375
116.16626	32.6375
120.52136	36.6375
124.87327	36.9375
129.222	35.5375
133.56755	37.9375
137.90993	38.2375
142.24913	39.2375
146.58517	37.5375
150.91804	47.3375
155.24774	52.6375
159.57429	57.7375
163.89768	71.2375
168.21792	93.6375
172.53501	112.5375
176.84895	155.4375
181.15975	210.6375
185.46741	282.1375
189.77193	391.4375
194.07331	508.8375
198.37157	672.9375
202.6667	825.6375
206.9587	985.3375
211.24758	1142.9375
215.53334	1296.2375
219.81599	1451.9375
224.09553	1609.1375
228.37195	1788.6375
232.64527	1980.4375
236.91549	2188.4375
241.18261	2378.5375
245.44663	2545.1375
249.70755	2675.5375
253.96539	2776.5375
258.22014	2861.0375
262.4718	2905.2375
266.72039	2906.7375
270.96589	2875.4375
275.20832	2832.6375
279.44768	2793.0375
283.68397	2727.7375
287.91719	2685.5375
292.14735	2664.4375
296.37445	2694.8375
300.59849	2753.6375
304.81948	2831.9375
309.03742	2881.7375
313.25231	2848.5375
317.46415	2749.8375
321.67296	2581.3375
325.87872	2426.5375
330.08145	2335.8375
334.28114	2315.7375
338.47781	2343.8375
342.67145	2367.1375
346.86207	2432.3375
351.04966	2547.2375
355.23424	2683.9375
359.4158	2795.5375
363.59435	2880.0375
367.76989	2913.6375
371.94243	2947.0375
376.11196	2979.8375
380.27849	2994.5375
384.44203	2992.7375
388.60257	2992.7375
392.76012	2989.6375
396.91468	3012.7375
401.06626	3068.2375
405.21485	3079.5375
409.36047	3016.6375
413.50311	2881.2375
417.64277	2749.1375
421.77947	2667.3375
425.9132	2611.5375
430.04396	2563.1375
434.17176	2584.1375
438.2966	2610.9375
442.41849	2636.8375
446.53742	2673.2375
450.6534	2720.9375
454.76644	2746.6375
458.87653	2731.2375
462.98368	2748.5375
467.08789	2735.1375
471.18916	2720.9375
475.2875	2715.6375
479.38291	2720.9375
483.4754	2785.7375
487.56496	2896.5375
491.6516	2989.2375
495.73531	3033.4375
499.81612	2994.0375
503.89401	2921.5375
507.96899	2876.0375
512.04106	2890.0375
516.11023	2966.4375
520.1765	3065.7375
524.23987	3163.2375
528.30034	3183.5375
532.35792	3140.8375
536.41261	3039.8375
540.46441	2900.8375
544.51333	2759.3375
548.55936	2685.9375
552.60252	2655.9375
556.64279	2689.9375
560.6802	2687.4375
564.71473	2722.0375
568.7464	2816.6375
572.7752	2870.0375
576.80114	2823.1375
580.82422	2772.5375
584.84444	2796.4375
588.86181	2855.1375
592.87633	2886.8375
596.888	2892.6375
600.89682	2953.5375
604.9028	3173.6375
608.90594	3811.8375
612.90624	4689.7375
616.90371	4850.5375
620.89834	4185.8375
624.89015	4109.4375
628.87913	4496.3375
632.86528	4917.8375
636.84862	5117.7375
640.82913	4931.8375
644.80683	4437.4375
648.78172	3895.1375
652.75379	3521.6375
656.72306	3320.4375
660.68952	3247.6375
664.65319	3126.9375
668.61405	2998.0375
672.57211	2935.2375
676.52738	2958.8375
680.47986	2950.3375
684.42955	2955.4375
688.37646	2909.0375
692.32058	2898.1375
696.26192	2875.6375
700.20048	2859.9375
704.13626	2848.5375
708.06928	2794.3375
711.99952	2772.1375
715.927	2773.1375
719.85171	2819.6375
723.77365	2869.4375
727.69284	2874.2375
731.60928	2817.8375
735.52295	2733.0375
739.43388	2696.8375
743.34206	2684.4375
747.24749	2709.0375
751.15017	2711.8375
755.05012	2747.2375
758.94733	2812.6375
762.8418	2997.6375
766.73354	3323.1375
770.62254	3646.4375
774.50882	3829.6375
778.39237	3755.7375
782.27321	3407.1375
786.15132	3052.9375
790.02671	2876.1375
793.89938	2833.0375
797.76935	2886.7375
801.6366	3027.3375
805.50115	3307.9375
809.36299	3640.5375
813.22213	3796.6375
817.07857	3652.3375
820.93231	3345.3375
824.78336	3014.0375
828.63172	2776.6375
832.47738	2657.7375
836.32036	2599.0375
840.16066	2562.0375
843.99827	2555.1375
847.8332	2525.6375
851.66546	2519.2375
855.49504	2518.2375
859.32195	2525.5375
863.1462	2560.5375
866.96777	2617.6375
870.78668	2750.3375
874.60293	2915.2375
878.41652	3141.4375
882.22745	3345.0375
886.03573	3504.0375
889.84136	3503.0375
893.64433	3327.2375
897.44466	3079.7375
901.24235	2822.0375
905.0374	2630.2375
908.8298	2497.2375
912.61957	2444.4375
916.40671	2402.4375
920.19121	2400.0375
923.97308	2377.0375
927.75233	2379.5375
931.52895	2377.8375
935.30295	2361.2375
939.07433	2317.7375
942.84309	2298.4375
946.60924	2284.2375
950.37278	2261.4375
954.13371	2265.1375
957.89203	2252.5375
961.64774	2253.3375
965.40086	2245.0375
969.15137	2224.8375
972.89929	2214.8375
976.64461	2216.4375
980.38733	2217.8375
984.12747	2223.2375
987.86502	2237.7375
991.59999	2264.7375
995.33237	2315.6375
999.06217	2396.1375
1002.78939	2507.2375
1006.51404	2654.4375
1010.23611	2795.8375
1013.95561	2890.2375
1017.67255	2908.7375
1021.38692	2881.1375
1025.09872	2760.8375
1028.80796	2634.9375
1032.51465	2513.2375
1036.21877	2425.5375
1039.92035	2373.9375
1043.61937	2369.5375
1047.31584	2371.4375
1051.00976	2392.1375
1054.70114	2405.1375
1058.38998	2455.5375
1062.07627	2516.4375
1065.76003	2573.4375
1069.44126	2598.4375
1073.11995	2614.7375
1076.79611	2591.8375
1080.46974	2563.0375
1084.14085	2549.4375
1087.80943	2506.1375
1091.47549	2490.3375
1095.13903	2435.6375
1098.80005	2366.5375
1102.45857	2337.6375
1106.11456	2354.5375
1109.76805	2388.3375
1113.41903	2495.6375
1117.06751	2659.8375
1120.71348	2901.5375
1124.35696	3240.1375
1127.99793	3649.4375
1131.63641	4002.5375
1135.2724	4205.8375
1138.90589	4211.0375
1142.5369	4020.4375
1146.16542	3694.9375
1149.79145	3317.8375
1153.415	2979.9375
1157.03607	2742.8375
1160.65467	2590.5375
1164.27079	2549.1375
1167.88443	2562.1375
1171.49561	2661.9375
1175.10432	2853.8375
1178.71056	3166.4375
1182.31434	3450.9375
1185.91565	3633.1375
1189.51451	3686.7375
1193.11091	3744.1375
1196.70485	3900.4375
1200.29634	4055.9375
1203.88538	4151.2375
1207.47197	4026.1375
1211.05612	3765.5375
1214.63782	3420.5375
1218.21708	3124.7375
1221.79391	2859.1375
1225.36829	2676.4375
1228.94024	2555.3375
1232.50976	2484.9375
1236.07685	2470.9375
1239.6415	2462.2375
1243.20374	2488.3375
1246.76355	2507.1375
1250.32093	2527.2375
1253.8759	2552.5375
1257.42845	2580.2375
1260.97859	2600.0375
1264.52631	2627.3375
1268.07163	2658.9375
1271.61453	2651.4375
1275.15503	2650.3375
1278.69312	2641.9375
1282.22882	2626.0375
1285.76211	2652.9375
1289.29301	2705.4375
1292.82151	2767.2375
1296.34761	2874.1375
1299.87133	3012.9375
1303.39266	3267.8375
1306.9116	3623.5375
1310.42815	3973.9375
1313.94233	4117.4375
1317.45412	3971.6375
1320.96354	3739.7375
1324.47058	3536.5375
1327.97525	3412.6375
1331.47754	3352.5375
1334.97747	3380.7375
1338.47502	3456.7375
1341.97022	3612.9375
1345.46305	3818.7375
1348.95352	4084.8375
1352.44163	4398.4375
1355.92738	4819.2375
1359.41078	5363.1375
1362.89183	5768.7375
1366.37053	5530.0375
1369.84688	4878.3375
1373.32088	4277.4375
1376.79254	3847.9375
1380.26186	3587.6375
1383.72883	3409.2375
1387.19347	3291.0375
1390.65578	3176.3375
1394.11575	3083.9375
1397.57339	3031.4375
1401.0287	2971.3375
1404.48168	2920.0375
1407.93234	2854.2375
1411.38068	2768.0375
1414.82669	2686.3375
1418.27039	2616.5375
1421.71177	2539.2375
1425.15083	2460.4375
1428.58758	2411.9375
1432.02203	2364.3375
1435.45416	2338.2375
1438.88399	2307.0375
1442.31151	2276.4375
1445.73673	2292.9375
1449.15965	2294.9375
1452.58027	2264.9375
1455.9986	2256.6375
1459.41463	2253.8375
1462.82837	2259.4375
1466.23982	2288.5375
1469.64898	2328.6375
1473.05586	2359.7375
1476.46045	2362.4375
1479.86276	2395.8375
1483.26279	2439.6375
1486.66054	2520.1375
1490.05602	2621.6375
1493.44922	2780.2375
1496.84016	3009.2375
1500.22882	3348.7375
1503.61521	3791.5375
1506.99934	4278.9375
1510.38121	4609.7375
1513.76081	4605.7375
1517.13816	4213.3375
1520.51324	3672.4375
1523.88607	3221.3375
1527.25665	2973.0375
1530.62498	2858.3375
1533.99105	2818.1375
1537.35488	2812.8375
1540.71647	2853.3375
1544.07581	2915.7375
1547.4329	2967.6375
1550.78776	2998.8375
1554.14038	3045.0375
1557.49077	3053.8375
1560.83892	3055.4375
1564.18484	3099.5375
1567.52853	3184.0375
1570.86999	3252.6375
1574.20922	3311.6375
1577.54624	3319.0375
1580.88103	3221.4375
1584.2136	3055.0375
1587.54395	2983.4375
1590.87208	2960.6375
1594.19801	3029.8375
1597.52172	3142.3375
1600.84321	3183.3375
1604.16251	3185.8375
1607.47959	3145.8375
1610.79447	3088.5375
1614.10715	3023.2375
1617.41763	2970.2375
1620.7259	2931.1375
1624.03199	2904.2375
1627.33587	2894.6375
1630.63757	2919.5375
1633.93707	2947.7375
1637.23439	3048.7375
1640.52951	3193.8375
1643.82246	3460.7375
1647.11321	3788.5375
1650.40179	4059.3375
1653.68819	4054.7375
1656.97241	3769.9375
1660.25446	3431.1375
1663.53433	3188.8375
1666.81203	3003.3375
1670.08756	2860.7375
1673.36092	2745.3375
1676.63211	2662.2375
1679.90115	2584.0375
1683.16801	2518.2375
1686.43272	2450.8375
1689.69527	2398.3375
1692.95567	2359.3375
1696.2139	2312.7375
1699.46999	2268.2375
1702.72392	2189.6375
1705.97571	2109.5375
1709.22535	2033.2375
1712.47284	1995.0375
1715.71819	1956.5375
1718.96139	1916.3375
1722.20246	1894.8375
1725.44139	1881.0375
1728.67818	1837.7375
1731.91284	1829.4375
1735.14537	1797.8375
1738.37576	1788.2375
1741.60403	1771.2375
1744.83017	1761.0375
1748.05418	1751.5375
1751.27607	1752.5375
1754.49584	1745.8375
1757.71349	1744.0375
1760.92903	1727.5375
1764.14244	1699.0375
1767.35375	1687.5375
1770.56294	1669.2375
1773.77002	1643.9375
1776.97499	1623.3375
1780.17785	1588.4375
1783.37861	1580.8375
1786.57727	1557.9375
1789.77382	1541.3375
1792.96828	1535.8375
1796.16064	1528.2375
1799.3509	1523.3375
1802.53907	1508.9375
1805.72514	1509.5375
1808.90913	1494.3375
1812.09102	1490.3375
1815.27083	1481.0375
1818.44856	1471.9375
1821.6242	1475.4375
1824.79776	1465.7375
1827.96924	1460.5375
1831.13864	1460.9375
1834.30597	1460.9375
1837.47122	1455.6375
1840.6344	1447.7375
1843.7955	1455.9375
1846.95454	1440.7375
1850.11151	1442.0375
1853.26642	1439.6375
1856.41926	1431.2375
1859.57004	1436.0375
1862.71876	1432.7375
1865.86542	1433.2375
1869.01003	1420.7375
1872.15258	1417.5375
1875.29308	1422.8375
1878.43152	1411.9375
1881.56792	1400.4375
1884.70227	1400.3375
1887.83457	1406.2375
1890.96482	1394.3375
1894.09304	1397.7375
1897.21921	1385.1375
1900.34335	1383.5375
1903.46544	1384.2375
1906.58551	1387.1375
1909.70353	1384.2375
1912.81953	1372.5375
1915.93349	1376.7375
1919.04543	1377.1375
1922.15534	1371.5375
1925.26322	1368.7375
1928.36908	1357.6375
1931.47292	1360.3375
1934.57473	1351.5375
1937.67453	1348.5375
1940.77232	1337.5375
1943.86808	1339.3375
1946.96184	1338.2375
1950.05358	1320.6375
1953.14331	1327.3375
1956.23103	1312.6375
1959.31675	1318.6375
1962.40046	1308.7375
1965.48217	1306.3375
1968.56188	1312.1375
1971.63959	1305.0375
1974.7153	1293.2375
1977.78901	1287.4375
1980.86073	1286.6375
1983.93046	1280.6375
1986.99819	1270.7375
1990.06394	1265.6375
1993.1277	1262.0375
1996.18947	1259.9375
1999.24925	1251.8375
2002.30706	1257.8375
2005.36288	1247.4375
2008.41672	1232.5375
2011.46859	1233.6375
2014.51848	1240.4375
2017.56639	1232.4375
2020.61233	1229.9375
2023.6563	1221.9375
2026.6983	1213.1375
2029.73833	1219.4375
2032.7764	1214.7375
2035.8125	1212.4375
2038.84664	1207.7375
2041.87881	1200.6375
2044.90903	1205.4375
2047.93729	1202.7375
2050.96359	1201.3375
2053.98794	1196.2375
2057.01034	1195.8375
2060.03078	1191.2375
2063.04927	1192.8375
2066.06582	1195.6375
2069.08042	1177.6375
2072.09307	1182.9375
2075.10378	1187.0375
2078.11255	1189.8375
2081.11938	1182.4375
2084.12426	1175.4375
2087.12722	1175.3375
2090.12824	1170.6375
2093.12732	1173.8375
2096.12447	1178.5375
2099.11969	1174.0375
2102.11299	1169.4375
2105.10435	1169.5375
2108.09379	1171.8375
2111.08131	1173.3375
2114.0669	1174.2375
2117.05057	1174.4375
2120.03233	1168.2375
2123.01216	1174.2375
2125.99008	1184.0375
2128.96609	1173.2375
2131.94018	1172.7375
2134.91236	1186.7375
2137.88263	1174.1375
2140.851	1177.3375
2143.81746	1183.5375
2146.78201	1179.8375
2149.74466	1176.2375
2152.7054	1172.7375
2155.66425	1171.1375
2158.6212	1170.4375
2161.57625	1157.5375
2164.52941	1167.1375
2167.48067	1169.8375
2170.43004	1160.9375
2173.37752	1162.4375
2176.32311	1162.1375
2179.26681	1158.6375
2182.20863	1156.0375
2185.14856	1156.4375
2188.08661	1150.5375
2191.02278	1144.8375
2193.95707	1151.8375
2196.88948	1146.8375
2199.82001	1149.9375
2202.74867	1141.7375
2205.67545	1142.8375
2208.60037	1143.4375
2211.52341	1135.3375
2214.44458	1139.0375
2217.36388	1138.2375
2220.28132	1125.9375
2223.1969	1117.4375
2226.11061	1119.3375
2229.02246	1117.5375
2231.93245	1110.4375
2234.84058	1116.2375
2237.74686	1110.8375
2240.65128	1111.0375
2243.55385	1106.1375
2246.45456	1109.0375
2249.35343	1104.0375
2252.25044	1107.4375
2255.14561	1102.5375
2258.03893	1103.9375
2260.93041	1114.1375
2263.82004	1101.4375
2266.70783	1097.7375
2269.59378	1097.2375
2272.4779	1095.9375
2275.36017	1091.9375
2278.24061	1086.0375
2281.11922	1081.4375
2283.996	1074.4375
2286.87094	1081.9375
2289.74405	1079.2375
2292.61534	1068.8375
2295.4848	1068.3375
2298.35243	1069.8375
2301.21824	1062.9375
2304.08223	1062.5375
2306.94439	1054.1375
2309.80474	1051.8375
2312.66327	1061.2375
2315.51999	1058.5375
2318.37489	1047.6375
2321.22797	1051.0375
2324.07925	1045.0375
2326.92871	1052.0375
2329.77637	1044.3375
2332.62222	1050.2375
2335.46626	1036.7375
2338.3085	1037.5375
2341.14893	1042.8375
2343.98756	1023.4375
2346.8244	1034.7375
2349.65943	1031.1375
2352.49267	1032.1375
2355.32411	1033.2375
2358.15376	1032.4375
2360.98161	1026.5375
2363.80768	1028.5375
2366.63195	1032.8375
2369.45444	1035.1375
2372.27514	1033.5375
2375.09405	1037.0375
2377.91118	1038.8375
2380.72652	1026.2375
2383.54009	1031.0375
2386.35187	1028.9375
2389.16188	1019.6375
2391.97011	1019.7375
2394.77657	1017.0375
2397.58125	1016.5375
2400.38416	1010.6375
2403.18529	1005.7375
2405.98466	1012.9375
2408.78226	1005.7375
2411.57809	1001.7375
2414.37216	993.4375
2417.16446	997.1375
2419.955	990.5375
2422.74378	990.8375
2425.5308	982.9375
2428.31606	988.8375
2431.09956	981.0375
2433.88131	982.1375
2436.6613	979.2375
2439.43954	974.1375
2442.21603	974.0375
2444.99077	976.9375
2447.76377	974.5375
2450.53501	979.4375
2453.30451	972.8375
2456.07226	975.0375
2458.83827	974.0375
2461.60254	964.2375
2464.36507	969.1375
2467.12586	960.1375
2469.88492	968.1375
2472.64224	962.2375
2475.39782	969.6375
2478.15167	975.8375
2480.90379	964.0375
2483.65417	961.1375
2486.40283	966.7375
2489.14976	957.7375
2491.89497	967.5375
2494.63845	974.2375
2497.3802	971.0375
2500.12024	964.3375
2502.85855	959.1375
2505.59514	959.4375
2508.33002	955.4375
2511.06318	947.8375
2513.79462	948.8375
2516.52435	940.1375
2519.25237	936.9375
2521.97867	936.5375
2524.70327	929.0375
2527.42616	931.3375
2530.14734	929.3375
2532.86681	923.1375
2535.58458	925.5375
2538.30065	925.3375
2541.01501	920.9375
2543.72768	918.0375
2546.43864	918.8375
2549.14791	917.2375
2551.85548	915.5375
2554.56136	910.7375
2557.26554	915.3375
2559.96803	905.4375
2562.66883	905.8375
2565.36794	901.4375
2568.06536	908.8375
2570.7611	902.5375
2573.45514	893.6375
2576.14751	891.7375
2578.83819	889.7375
2581.52719	890.5375
2584.21451	882.4375
2586.90015	880.5375
2589.58411	885.1375
2592.2664	886.6375
2594.94701	881.0375
2597.62594	875.0375
2600.30321	872.4375
2602.9788	874.6375
2605.65273	875.3375
2608.32498	871.8375
2610.99557	874.3375
2613.66449	873.8375
2616.33175	872.2375
2618.99734	866.1375
2621.66128	863.6375
2624.32355	863.3375
2626.98416	868.5375
2629.64311	864.8375
2632.30041	856.9375
2634.95605	859.3375
2637.61004	847.9375
2640.26238	856.7375
2642.91306	850.7375
2645.56209	856.8375
2648.20948	859.6375
2650.85521	852.7375
2653.4993	856.6375
2656.14175	849.6375
2658.78255	852.4375
2661.42171	842.3375
2664.05923	849.4375
2666.6951	851.5375
2669.32934	850.6375
2671.96194	852.6375
2674.59291	856.2375
2677.22224	848.3375
2679.84993	847.7375
2682.476	856.8375
2685.10043	852.1375
2687.72324	849.2375
2690.34441	853.2375
2692.96396	857.1375
2695.58188	855.8375
2698.19818	854.6375
2700.81285	860.2375
2703.4259	879.2375
2706.03733	910.8375
2708.64714	892.9375
2711.25533	873.1375
2713.86191	869.3375
2716.46687	863.8375
2719.07021	867.1375
2721.67194	855.2375
2724.27206	858.4375
2726.87057	863.3375
2729.46747	850.6375
2732.06276	858.2375
2734.65644	858.2375
2737.24852	856.8375
2739.83899	851.2375
2742.42786	853.1375
2745.01513	853.0375
2747.60079	852.2375
2750.18486	842.8375
2752.76733	842.9375
2755.3482	839.0375
2757.92747	849.5375
2760.50515	838.8375
2763.08123	841.2375
2765.65573	834.8375
2768.22863	846.8375
2770.79994	831.4375
2773.36967	837.8375
2775.9378	840.7375
2778.50435	820.0375
2781.06932	835.9375
2783.6327	829.3375
2786.1945	837.5375
2788.75471	831.8375
2791.31335	832.0375
2793.87041	825.9375
2796.42589	828.4375
2798.97979	822.7375
2801.53212	826.2375
2804.08288	826.6375
2806.63206	825.9375
2809.17967	828.9375
2811.72571	824.0375
2814.27018	827.7375
2816.81308	816.8375
2819.35442	827.5375
2821.89419	826.4375
2824.43239	833.4375
2826.96904	827.5375
2829.50412	831.7375
2832.03763	830.9375
2834.56959	831.9375
2837.1	822.7375
2839.62884	827.0375
2842.15613	830.9375
2844.68186	836.8375
2847.20604	833.8375
2849.72867	830.7375
2852.24974	840.1375
2854.76927	842.5375
2857.28724	858.4375
2859.80367	844.6375
2862.31855	845.0375
2864.83189	844.0375
2867.34368	843.8375
2869.85393	844.4375
2872.36264	840.9375
2874.8698	846.9375
2877.37543	851.6375
2879.87952	850.8375
2882.38207	856.3375
2884.88308	846.0375
2887.38256	857.8375
2889.88051	861.8375
2892.37692	851.0375
2894.8718	859.6375
2897.36515	861.7375
2899.85698	862.3375
2902.34727	870.3375
2904.83604	872.4375
2907.32328	876.5375
2909.809	880.3375
2912.29319	878.0375
2914.77587	881.6375
2917.25702	883.9375
2919.73665	882.4375
2922.21476	886.1375
2924.69136	886.1375
2927.16644	889.1375
2929.64	885.0375
2932.11205	895.0375
2934.58258	896.7375
2937.05161	884.7375
2939.51912	887.6375
2941.98513	888.0375
2944.44962	882.4375
2946.91261	888.1375
2949.37409	884.2375
2951.83407	893.8375
2954.29254	884.3375
2956.74951	884.2375
2959.20498	877.5375
2961.65895	873.2375
2964.11142	872.0375
2966.56239	863.4375
2969.01186	862.9375
2971.45984	860.0375
2973.90632	860.5375
2976.35131	853.5375
2978.7948	856.9375
2981.23681	851.7375
2983.67732	848.2375
2986.11635	846.9375
2988.55388	848.3375
2990.98993	843.6375
2993.4245	843.8375
2995.85758	842.7375
2998.28917	846.0375
3000.71928	846.0375
3003.14791	848.8375
3005.57506	848.1375
3008.00073	850.4375
3010.42493	847.6375
3012.84764	846.8375
3015.26888	855.1375
3017.68865	852.5375
3020.10694	850.0375
3022.52376	854.4375
3024.9391	860.0375
3027.35298	856.2375
3029.76539	860.7375
3032.17632	865.0375
3034.5858	862.4375
3036.9938	868.3375
3039.40034	864.5375
3041.80542	865.9375
3044.20903	859.8375
3046.61118	871.4375
3049.01187	868.5375
3051.4111	867.8375
3053.80888	874.2375
3056.20519	871.7375
3058.60005	869.6375
3060.99345	879.1375
3063.3854	870.8375
3065.7759	872.4375
3068.16494	885.1375
3070.55254	886.6375
3072.93868	884.9375
3075.32338	890.1375
3077.70662	890.0375
3080.08842	888.9375
3082.46878	903.8375
3084.84769	895.9375
3087.22515	907.9375
3089.60118	915.4375
3091.97576	921.1375
3094.3489	920.9375
3096.72061	925.1375
3099.09087	928.3375
3101.4597	938.4375
3103.82709	948.5375
3106.19305	941.0375
3108.55757	953.0375
3110.92066	940.2375
3113.28232	950.7375
3115.64255	952.4375
3118.00134	962.4375
3120.35871	969.8375
3122.71466	978.9375
3125.06917	975.5375
3127.42226	977.2375
3129.77393	987.2375
3132.12417	995.7375
3134.47299	1004.1375
3136.82039	1010.4375
3139.16636	1019.0375
3141.51092	1032.7375
3143.85406	1024.8375
3146.19579	1042.2375
3148.53609	1041.6375
3150.87499	1046.7375
3153.21246	1064.0375
3155.54853	1071.4375
3157.88318	1083.7375
3160.21642	1084.2375
3162.54826	1095.8375
3164.87868	1104.2375
3167.2077	1108.6375
3169.5353	1109.9375
3171.86151	1116.8375
3174.18631	1125.3375
3176.5097	1122.5375
3178.83169	1133.4375
3181.15228	1137.2375
3183.47147	1142.3375
3185.78926	1148.7375
3188.10565	1154.5375
3190.42065	1163.9375
3192.73424	1164.5375
3195.04645	1173.2375
3197.35725	1173.8375
3199.66667	1181.1375
3201.97469	1186.5375
3204.28132	1196.8375
3206.58656	1198.3375
3208.8904	1218.8375
3211.19287	1210.2375
3213.49394	1218.7375
3215.79363	1225.6375
3218.09193	1227.7375
3220.38884	1247.5375
3222.68438	1246.9375
3224.97853	1247.7375
3227.2713	1245.1375
3229.56269	1236.6375
3231.8527	1243.4375
3234.14133	1244.9375
3236.42858	1244.3375
3238.71446	1250.4375
3240.99896	1253.3375
3243.28209	1245.5375
3245.56384	1249.8375
3247.84423	1249.5375
3250.12324	1258.7375
3252.40088	1253.6375
3254.67715	1255.2375
3256.95205	1256.7375
3259.22558	1261.0375
3261.49775	1255.8375
3263.76855	1254.5375
3266.03799	1253.2375
3268.30606	1255.0375
3270.57277	1254.4375
3272.83812	1258.8375
3275.10211	1242.0375
3277.36474	1256.6375
3279.62601	1253.9375
3281.88593	1254.5375
3284.14448	1251.7375
3286.40168	1258.8375
3288.65753	1250.2375
3290.91202	1262.1375
3293.16516	1247.9375
3295.41695	1248.5375
3297.66738	1239.2375
3299.91647	1235.1375
3302.16421	1230.2375
3304.4106	1230.3375
3306.65564	1232.0375
3308.89933	1218.1375
3311.14169	1219.0375
3313.38269	1214.2375
3315.62236	1195.5375
3317.86068	1197.3375
3320.09766	1194.2375
3322.3333	1176.8375
3324.5676	1186.7375
3326.80056	1180.6375
3329.03219	1162.2375
3331.26248	-0.4625
3333.49143	-0.0625
3335.71905	-0.9625
