Data from AgNPs_FTO_APTES_UA_0.1mM_CRN_1000uM_NaF_0.1M_Addition_RamanShift__22__15-39-47-827.txt Node

Date: Mon Dec 20 15:39:47 GMT 2021
User: TCL
Spectrometer: QEP01345
Trigger mode: 4
Integration Time (sec): 7.000000E0
Scans to average: 10
Electric dark correction enabled: true
Nonlinearity correction enabled: false
Boxcar width: 0
XAxis mode: Raman Shifts
Number of Pixels in Spectrum: 1044
>>>>>Begin Spectral Data<<<<<
46.04893	-0.0125
50.45542	0.0875
54.85868	-0.8125
59.25871	-0.5125
63.6555	19.6875
68.04907	20.0875
72.43941	24.3875
76.82654	24.5875
81.21044	25.2875
85.59113	31.9875
89.96862	26.7875
94.34289	30.2875
98.71396	31.6875
103.08183	29.2875
107.4465	32.6875
111.80798	35.9875
116.16626	34.8875
120.52136	33.5875
124.87327	38.7875
129.222	34.1875
133.56755	36.7875
137.90993	39.5875
142.24913	39.4875
146.58517	40.9875
150.91804	48.6875
155.24774	54.3875
159.57429	59.5875
163.89768	78.5875
168.21792	96.1875
172.53501	120.5875
176.84895	159.2875
181.15975	223.4875
185.46741	301.6875
189.77193	415.3875
194.07331	556.4875
198.37157	727.2875
202.6667	899.8875
206.9587	1097.6875
211.24758	1272.0875
215.53334	1463.8875
219.81599	1657.6875
224.09553	1837.4875
228.37195	2053.6875
232.64527	2263.1875
236.91549	2478.1875
241.18261	2674.6875
245.44663	2846.3875
249.70755	3008.9875
253.96539	3147.5875
258.22014	3242.9875
262.4718	3302.9875
266.72039	3347.7875
270.96589	3336.6875
275.20832	3304.2875
279.44768	3266.7875
283.68397	3196.2875
287.91719	3142.8875
292.14735	3104.9875
296.37445	3057.3875
300.59849	3038.4875
304.81948	3016.4875
309.03742	2997.6875
313.25231	2971.1875
317.46415	2944.8875
321.67296	2886.7875
325.87872	2881.0875
330.08145	2871.8875
334.28114	2846.5875
338.47781	2865.3875
342.67145	2888.5875
346.86207	2907.6875
351.04966	2960.8875
355.23424	2989.3875
359.4158	3025.7875
363.59435	3054.1875
367.76989	3083.0875
371.94243	3128.0875
376.11196	3154.3875
380.27849	3201.2875
384.44203	3230.9875
388.60257	3253.0875
392.76012	3287.7875
396.91468	3318.0875
401.06626	3345.0875
405.21485	3372.2875
409.36047	3376.2875
413.50311	3370.8875
417.64277	3344.9875
421.77947	3363.7875
425.9132	3362.3875
430.04396	3365.9875
434.17176	3374.7875
438.2966	3378.9875
442.41849	3410.0875
446.53742	3441.4875
450.6534	3452.4875
454.76644	3508.1875
458.87653	3529.0875
462.98368	3529.1875
467.08789	3541.5875
471.18916	3545.6875
475.2875	3545.5875
479.38291	3583.4875
483.4754	3623.5875
487.56496	3676.6875
491.6516	3743.0875
495.73531	3808.1875
499.81612	3794.1875
503.89401	3754.9875
507.96899	3710.3875
512.04106	3684.6875
516.11023	3666.1875
520.1765	3668.0875
524.23987	3709.2875
528.30034	3747.7875
532.35792	3758.0875
536.41261	3720.2875
540.46441	3674.2875
544.51333	3603.9875
548.55936	3558.8875
552.60252	3533.3875
556.64279	3532.8875
560.6802	3540.0875
564.71473	3543.6875
568.7464	3562.7875
572.7752	3596.3875
576.80114	3621.2875
580.82422	3616.4875
584.84444	3671.5875
588.86181	3720.2875
592.87633	3753.1875
596.888	3754.5875
600.89682	3753.6875
604.9028	3794.8875
608.90594	3910.6875
612.90624	4110.3875
616.90371	4175.6875
620.89834	4137.8875
624.89015	4269.7875
628.87913	4570.0875
632.86528	4854.1875
636.84862	5034.8875
640.82913	4968.4875
644.80683	4752.7875
648.78172	4435.9875
652.75379	4194.2875
656.72306	4049.6875
660.68952	3962.7875
664.65319	3958.1875
668.61405	3956.0875
672.57211	4003.4875
676.52738	4058.8875
680.47986	4097.5875
684.42955	4083.9875
688.37646	4048.8875
692.32058	3992.8875
696.26192	3950.6875
700.20048	3899.8875
704.13626	3865.2875
708.06928	3810.8875
711.99952	3756.8875
715.927	3718.0875
719.85171	3702.3875
723.77365	3720.5875
727.69284	3736.0875
731.60928	3716.2875
735.52295	3658.0875
739.43388	3604.1875
743.34206	3602.7875
747.24749	3596.1875
751.15017	3607.7875
755.05012	3607.5875
758.94733	3618.6875
762.8418	3674.3875
766.73354	3735.1875
770.62254	3784.9875
774.50882	3807.7875
778.39237	3755.0875
782.27321	3664.0875
786.15132	3602.3875
790.02671	3566.4875
793.89938	3569.1875
797.76935	3612.9875
801.6366	3655.7875
805.50115	3771.2875
809.36299	3901.5875
813.22213	3981.9875
817.07857	3934.4875
820.93231	3793.1875
824.78336	3632.5875
828.63172	3503.7875
832.47738	3433.6875
836.32036	3391.3875
840.16066	3368.7875
843.99827	3368.0875
847.8332	3356.3875
851.66546	3354.1875
855.49504	3356.2875
859.32195	3371.8875
863.1462	3395.0875
866.96777	3444.4875
870.78668	3489.7875
874.60293	3545.8875
878.41652	3625.9875
882.22745	3703.5875
886.03573	3779.5875
889.84136	3800.3875
893.64433	3711.7875
897.44466	3599.6875
901.24235	3467.2875
905.0374	3373.0875
908.8298	3301.1875
912.61957	3267.7875
916.40671	3228.9875
920.19121	3233.5875
923.97308	3210.9875
927.75233	3223.9875
931.52895	3230.9875
935.30295	3220.7875
939.07433	3220.6875
942.84309	3197.1875
946.60924	3176.7875
950.37278	3152.2875
954.13371	3149.1875
957.89203	3143.7875
961.64774	3121.8875
965.40086	3103.5875
969.15137	3095.9875
972.89929	3074.0875
976.64461	3067.7875
980.38733	3065.3875
984.12747	3067.1875
987.86502	3064.7875
991.59999	3079.3875
995.33237	3099.4875
999.06217	3104.9875
1002.78939	3177.3875
1006.51404	3217.7875
1010.23611	3268.4875
1013.95561	3320.7875
1017.67255	3323.4875
1021.38692	3308.1875
1025.09872	3268.6875
1028.80796	3210.6875
1032.51465	3155.9875
1036.21877	3126.6875
1039.92035	3100.0875
1043.61937	3081.5875
1047.31584	3088.4875
1051.00976	3106.5875
1054.70114	3108.1875
1058.38998	3125.2875
1062.07627	3159.5875
1065.76003	3177.6875
1069.44126	3209.6875
1073.11995	3242.7875
1076.79611	3249.4875
1080.46974	3236.7875
1084.14085	3171.1875
1087.80943	3132.1875
1091.47549	3092.9875
1095.13903	3047.5875
1098.80005	3023.1875
1102.45857	3016.9875
1106.11456	3015.3875
1109.76805	3033.7875
1113.41903	3082.3875
1117.06751	3181.8875
1120.71348	3287.6875
1124.35696	3513.2875
1127.99793	3753.0875
1131.63641	4022.9875
1135.2724	4185.6875
1138.90589	4223.5875
1142.5369	4098.5875
1146.16542	3885.6875
1149.79145	3657.4875
1153.415	3411.4875
1157.03607	3265.5875
1160.65467	3166.3875
1164.27079	3104.7875
1167.88443	3093.3875
1171.49561	3124.9875
1175.10432	3179.3875
1178.71056	3262.5875
1182.31434	3339.6875
1185.91565	3389.3875
1189.51451	3429.0875
1193.11091	3471.1875
1196.70485	3527.9875
1200.29634	3593.1875
1203.88538	3651.5875
1207.47197	3630.3875
1211.05612	3541.5875
1214.63782	3430.9875
1218.21708	3313.2875
1221.79391	3200.5875
1225.36829	3116.6875
1228.94024	3072.7875
1232.50976	3050.0875
1236.07685	3023.4875
1239.6415	3044.4875
1243.20374	3027.3875
1246.76355	3051.5875
1250.32093	3069.9875
1253.8759	3079.3875
1257.42845	3089.5875
1260.97859	3104.6875
1264.52631	3095.8875
1268.07163	3113.8875
1271.61453	3090.2875
1275.15503	3100.8875
1278.69312	3082.0875
1282.22882	3073.9875
1285.76211	3079.0875
1289.29301	3102.2875
1292.82151	3106.2875
1296.34761	3165.4875
1299.87133	3193.1875
1303.39266	3271.9875
1306.9116	3374.3875
1310.42815	3469.2875
1313.94233	3542.2875
1317.45412	3567.7875
1320.96354	3548.1875
1324.47058	3528.7875
1327.97525	3522.4875
1331.47754	3517.5875
1334.97747	3548.1875
1338.47502	3575.3875
1341.97022	3627.2875
1345.46305	3689.9875
1348.95352	3756.6875
1352.44163	3860.5875
1355.92738	3952.5875
1359.41078	4087.3875
1362.89183	4196.5875
1366.37053	4179.5875
1369.84688	4018.7875
1373.32088	3835.7875
1376.79254	3682.1875
1380.26186	3577.6875
1383.72883	3497.5875
1387.19347	3448.1875
1390.65578	3370.4875
1394.11575	3339.8875
1397.57339	3274.4875
1401.0287	3237.1875
1404.48168	3225.2875
1407.93234	3185.4875
1411.38068	3158.4875
1414.82669	3101.5875
1418.27039	3029.1875
1421.71177	2985.0875
1425.15083	2914.2875
1428.58758	2863.6875
1432.02203	2807.2875
1435.45416	2781.8875
1438.88399	2739.6875
1442.31151	2713.0875
1445.73673	2694.5875
1449.15965	2695.2875
1452.58027	2672.5875
1455.9986	2679.3875
1459.41463	2678.8875
1462.82837	2684.1875
1466.23982	2695.4875
1469.64898	2723.0875
1473.05586	2730.1875
1476.46045	2724.9875
1479.86276	2745.0875
1483.26279	2744.1875
1486.66054	2755.7875
1490.05602	2780.1875
1493.44922	2809.2875
1496.84016	2852.0875
1500.22882	2898.4875
1503.61521	2994.5875
1506.99934	3106.7875
1510.38121	3198.9875
1513.76081	3216.0875
1517.13816	3145.7875
1520.51324	3052.0875
1523.88607	2946.4875
1527.25665	2912.2875
1530.62498	2880.0875
1533.99105	2895.5875
1537.35488	2895.8875
1540.71647	2917.7875
1544.07581	2943.4875
1547.4329	2958.8875
1550.78776	2985.1875
1554.14038	3004.0875
1557.49077	3037.1875
1560.83892	3026.6875
1564.18484	3045.1875
1567.52853	3056.6875
1570.86999	3072.6875
1574.20922	3100.3875
1577.54624	3117.3875
1580.88103	3116.8875
1584.2136	3089.4875
1587.54395	3052.8875
1590.87208	3028.5875
1594.19801	3050.7875
1597.52172	3071.4875
1600.84321	3099.0875
1604.16251	3101.0875
1607.47959	3077.6875
1610.79447	3067.4875
1614.10715	3047.4875
1617.41763	3027.6875
1620.7259	2991.3875
1624.03199	2978.2875
1627.33587	2993.1875
1630.63757	2992.6875
1633.93707	3006.2875
1637.23439	3039.0875
1640.52951	3101.3875
1643.82246	3189.5875
1647.11321	3293.9875
1650.40179	3361.5875
1653.68819	3386.4875
1656.97241	3311.8875
1660.25446	3229.8875
1663.53433	3159.9875
1666.81203	3106.3875
1670.08756	3093.1875
1673.36092	3080.2875
1676.63211	3048.6875
1679.90115	3053.0875
1683.16801	3027.3875
1686.43272	2993.4875
1689.69527	2946.1875
1692.95567	2898.7875
1696.2139	2835.6875
1699.46999	2768.8875
1702.72392	2668.3875
1705.97571	2574.1875
1709.22535	2488.1875
1712.47284	2422.2875
1715.71819	2383.5875
1718.96139	2351.5875
1722.20246	2329.3875
1725.44139	2294.8875
1728.67818	2269.5875
1731.91284	2249.0875
1735.14537	2235.9875
1738.37576	2215.7875
1741.60403	2205.5875
1744.83017	2194.9875
1748.05418	2193.2875
1751.27607	2204.1875
1754.49584	2206.5875
1757.71349	2219.6875
1760.92903	2204.2875
1764.14244	2183.5875
1767.35375	2154.5875
1770.56294	2136.6875
1773.77002	2107.5875
1776.97499	2071.5875
1780.17785	2045.0875
1783.37861	2009.5875
1786.57727	1980.9875
1789.77382	1979.5875
1792.96828	1951.1875
1796.16064	1934.0875
1799.3509	1918.0875
1802.53907	1902.6875
1805.72514	1893.0875
1808.90913	1880.5875
1812.09102	1869.4875
1815.27083	1872.4875
1818.44856	1857.6875
1821.6242	1848.9875
1824.79776	1847.8875
1827.96924	1842.5875
1831.13864	1829.4875
1834.30597	1829.6875
1837.47122	1820.9875
1840.6344	1820.7875
1843.7955	1825.6875
1846.95454	1814.8875
1850.11151	1822.7875
1853.26642	1810.5875
1856.41926	1798.4875
1859.57004	1807.7875
1862.71876	1797.1875
1865.86542	1800.2875
1869.01003	1777.9875
1872.15258	1780.1875
1875.29308	1780.8875
1878.43152	1773.8875
1881.56792	1767.5875
1884.70227	1760.3875
1887.83457	1759.7875
1890.96482	1757.1875
1894.09304	1743.5875
1897.21921	1745.2875
1900.34335	1738.8875
1903.46544	1741.4875
1906.58551	1738.6875
1909.70353	1726.6875
1912.81953	1724.2875
1915.93349	1720.9875
1919.04543	1719.1875
1922.15534	1712.9875
1925.26322	1713.3875
1928.36908	1703.5875
1931.47292	1703.1875
1934.57473	1683.8875
1937.67453	1673.8875
1940.77232	1686.2875
1943.86808	1678.8875
1946.96184	1668.5875
1950.05358	1666.7875
1953.14331	1658.8875
1956.23103	1658.5875
1959.31675	1643.2875
1962.40046	1635.6875
1965.48217	1627.8875
1968.56188	1629.0875
1971.63959	1625.3875
1974.7153	1614.8875
1977.78901	1604.6875
1980.86073	1603.1875
1983.93046	1588.5875
1986.99819	1597.6875
1990.06394	1574.5875
1993.1277	1579.0875
1996.18947	1573.7875
1999.24925	1570.2875
2002.30706	1567.8875
2005.36288	1555.1875
2008.41672	1544.3875
2011.46859	1551.5875
2014.51848	1540.1875
2017.56639	1528.4875
2020.61233	1525.4875
2023.6563	1525.0875
2026.6983	1518.9875
2029.73833	1513.8875
2032.7764	1515.2875
2035.8125	1504.2875
2038.84664	1491.3875
2041.87881	1496.0875
2044.90903	1490.1875
2047.93729	1494.9875
2050.96359	1489.0875
2053.98794	1479.2875
2057.01034	1479.3875
2060.03078	1481.2875
2063.04927	1465.4875
2066.06582	1470.9875
2069.08042	1467.7875
2072.09307	1471.9875
2075.10378	1462.8875
2078.11255	1463.4875
2081.11938	1458.3875
2084.12426	1466.5875
2087.12722	1463.0875
2090.12824	1452.0875
2093.12732	1458.8875
2096.12447	1460.1875
2099.11969	1458.4875
2102.11299	1448.9875
2105.10435	1450.9875
2108.09379	1447.0875
2111.08131	1443.1875
2114.0669	1444.9875
2117.05057	1449.3875
2120.03233	1445.4875
2123.01216	1451.1875
2125.99008	1437.2875
2128.96609	1448.4875
2131.94018	1443.3875
2134.91236	1445.5875
2137.88263	1453.5875
2140.851	1453.2875
2143.81746	1451.0875
2146.78201	1447.3875
2149.74466	1441.6875
2152.7054	1440.3875
2155.66425	1445.9875
2158.6212	1436.9875
2161.57625	1434.3875
2164.52941	1436.6875
2167.48067	1435.3875
2170.43004	1433.8875
2173.37752	1436.1875
2176.32311	1432.2875
2179.26681	1425.8875
2182.20863	1421.3875
2185.14856	1425.2875
2188.08661	1421.4875
2191.02278	1417.8875
2193.95707	1418.0875
2196.88948	1413.0875
2199.82001	1408.3875
2202.74867	1413.0875
2205.67545	1398.2875
2208.60037	1400.0875
2211.52341	1392.6875
2214.44458	1392.0875
2217.36388	1385.5875
2220.28132	1383.4875
2223.1969	1376.8875
2226.11061	1372.5875
2229.02246	1368.9875
2231.93245	1377.7875
2234.84058	1359.7875
2237.74686	1365.4875
2240.65128	1353.0875
2243.55385	1364.1875
2246.45456	1348.8875
2249.35343	1351.7875
2252.25044	1344.7875
2255.14561	1335.7875
2258.03893	1342.8875
2260.93041	1348.4875
2263.82004	1331.5875
2266.70783	1332.0875
2269.59378	1331.0875
2272.4779	1321.3875
2275.36017	1315.0875
2278.24061	1310.8875
2281.11922	1298.6875
2283.996	1307.2875
2286.87094	1296.3875
2289.74405	1289.6875
2292.61534	1291.6875
2295.4848	1291.7875
2298.35243	1288.4875
2301.21824	1283.6875
2304.08223	1285.3875
2306.94439	1283.6875
2309.80474	1282.7875
2312.66327	1283.7875
2315.51999	1272.3875
2318.37489	1277.0875
2321.22797	1259.8875
2324.07925	1268.1875
2326.92871	1267.5875
2329.77637	1264.8875
2332.62222	1263.4875
2335.46626	1252.3875
2338.3085	1248.9875
2341.14893	1255.8875
2343.98756	1254.1875
2346.8244	1238.0875
2349.65943	1240.8875
2352.49267	1247.4875
2355.32411	1234.7875
2358.15376	1244.0875
2360.98161	1237.4875
2363.80768	1233.7875
2366.63195	1233.0875
2369.45444	1226.8875
2372.27514	1226.3875
2375.09405	1223.3875
2377.91118	1221.5875
2380.72652	1221.8875
2383.54009	1210.6875
2386.35187	1222.1875
2389.16188	1208.5875
2391.97011	1208.4875
2394.77657	1195.5875
2397.58125	1191.6875
2400.38416	1198.8875
2403.18529	1192.9875
2405.98466	1196.0875
2408.78226	1191.5875
2411.57809	1186.5875
2414.37216	1181.6875
2417.16446	1179.4875
2419.955	1181.1875
2422.74378	1179.7875
2425.5308	1173.1875
2428.31606	1167.2875
2431.09956	1163.8875
2433.88131	1170.4875
2436.6613	1167.4875
2439.43954	1153.9875
2442.21603	1154.2875
2444.99077	1150.3875
2447.76377	1151.6875
2450.53501	1151.5875
2453.30451	1153.7875
2456.07226	1150.3875
2458.83827	1144.4875
2461.60254	1145.1875
2464.36507	1137.8875
2467.12586	1141.4875
2469.88492	1140.9875
2472.64224	1132.4875
2475.39782	1140.8875
2478.15167	1139.6875
2480.90379	1139.8875
2483.65417	1134.2875
2486.40283	1133.0875
2489.14976	1123.7875
2491.89497	1130.4875
2494.63845	1123.5875
2497.3802	1131.1875
2500.12024	1124.4875
2502.85855	1121.9875
2505.59514	1115.1875
2508.33002	1114.0875
2511.06318	1109.3875
2513.79462	1107.1875
2516.52435	1100.4875
2519.25237	1106.6875
2521.97867	1095.6875
2524.70327	1099.2875
2527.42616	1098.9875
2530.14734	1092.4875
2532.86681	1086.8875
2535.58458	1089.1875
2538.30065	1074.9875
2541.01501	1081.1875
2543.72768	1082.5875
2546.43864	1078.1875
2549.14791	1075.7875
2551.85548	1067.3875
2554.56136	1066.9875
2557.26554	1070.0875
2559.96803	1063.8875
2562.66883	1061.8875
2565.36794	1053.3875
2568.06536	1054.6875
2570.7611	1056.3875
2573.45514	1058.0875
2576.14751	1054.5875
2578.83819	1040.0875
2581.52719	1044.1875
2584.21451	1043.8875
2586.90015	1033.2875
2589.58411	1034.8875
2592.2664	1031.9875
2594.94701	1027.2875
2597.62594	1032.3875
2600.30321	1028.0875
2602.9788	1031.5875
2605.65273	1022.0875
2608.32498	1016.2875
2610.99557	1019.4875
2613.66449	1015.7875
2616.33175	1014.2875
2618.99734	1016.7875
2621.66128	1005.5875
2624.32355	999.5875
2626.98416	1006.1875
2629.64311	1005.8875
2632.30041	1001.5875
2634.95605	1001.4875
2637.61004	993.3875
2640.26238	993.6875
2642.91306	993.0875
2645.56209	991.6875
2648.20948	992.0875
2650.85521	984.5875
2653.4993	992.0875
2656.14175	990.5875
2658.78255	987.9875
2661.42171	988.7875
2664.05923	987.6875
2666.6951	982.7875
2669.32934	983.1875
2671.96194	981.0875
2674.59291	981.7875
2677.22224	979.5875
2679.84993	975.9875
2682.476	977.5875
2685.10043	977.2875
2687.72324	976.7875
2690.34441	976.3875
2692.96396	974.7875
2695.58188	982.3875
2698.19818	985.0875
2700.81285	983.1875
2703.4259	996.9875
2706.03733	1016.6875
2708.64714	1003.7875
2711.25533	994.7875
2713.86191	990.9875
2716.46687	979.5875
2719.07021	975.0875
2721.67194	985.1875
2724.27206	970.4875
2726.87057	970.9875
2729.46747	980.2875
2732.06276	976.9875
2734.65644	971.9875
2737.24852	973.8875
2739.83899	969.7875
2742.42786	970.1875
2745.01513	958.1875
2747.60079	970.2875
2750.18486	966.4875
2752.76733	960.5875
2755.3482	953.7875
2757.92747	958.9875
2760.50515	957.4875
2763.08123	950.0875
2765.65573	948.4875
2768.22863	949.2875
2770.79994	950.1875
2773.36967	956.8875
2775.9378	943.9875
2778.50435	939.8875
2781.06932	947.7875
2783.6327	946.5875
2786.1945	941.3875
2788.75471	937.0875
2791.31335	933.1875
2793.87041	931.2875
2796.42589	922.4875
2798.97979	928.6875
2801.53212	921.5875
2804.08288	931.0875
2806.63206	930.4875
2809.17967	920.8875
2811.72571	927.1875
2814.27018	929.1875
2816.81308	923.5875
2819.35442	916.7875
2821.89419	917.2875
2824.43239	922.9875
2826.96904	921.7875
2829.50412	918.3875
2832.03763	915.6875
2834.56959	919.2875
2837.1	913.6875
2839.62884	921.2875
2842.15613	916.2875
2844.68186	924.5875
2847.20604	920.7875
2849.72867	915.8875
2852.24974	918.7875
2854.76927	921.5875
2857.28724	928.4875
2859.80367	916.4875
2862.31855	913.0875
2864.83189	910.6875
2867.34368	910.6875
2869.85393	900.6875
2872.36264	908.9875
2874.8698	921.5875
2877.37543	920.7875
2879.87952	923.8875
2882.38207	924.3875
2884.88308	930.3875
2887.38256	924.1875
2889.88051	927.0875
2892.37692	928.8875
2894.8718	928.6875
2897.36515	931.6875
2899.85698	940.4875
2902.34727	946.9875
2904.83604	941.8875
2907.32328	948.6875
2909.809	956.7875
2912.29319	951.0875
2914.77587	970.0875
2917.25702	968.6875
2919.73665	969.1875
2922.21476	977.4875
2924.69136	981.7875
2927.16644	978.1875
2929.64	987.2875
2932.11205	984.6875
2934.58258	988.5875
2937.05161	987.4875
2939.51912	981.9875
2941.98513	985.7875
2944.44962	984.0875
2946.91261	977.6875
2949.37409	977.0875
2951.83407	974.9875
2954.29254	969.2875
2956.74951	974.6875
2959.20498	971.1875
2961.65895	956.3875
2964.11142	962.2875
2966.56239	953.6875
2969.01186	953.0875
2971.45984	942.5875
2973.90632	937.9875
2976.35131	931.6875
2978.7948	937.3875
2981.23681	929.5875
2983.67732	925.6875
2986.11635	927.3875
2988.55388	923.7875
2990.98993	925.9875
2993.4245	921.0875
2995.85758	919.8875
2998.28917	918.0875
3000.71928	915.4875
3003.14791	913.4875
3005.57506	917.6875
3008.00073	922.0875
3010.42493	922.1875
3012.84764	928.7875
3015.26888	931.1875
3017.68865	918.9875
3020.10694	925.6875
3022.52376	922.7875
3024.9391	931.4875
3027.35298	919.6875
3029.76539	922.0875
3032.17632	925.1875
3034.5858	916.2875
3036.9938	917.5875
3039.40034	926.3875
3041.80542	922.8875
3044.20903	920.7875
3046.61118	920.0875
3049.01187	915.3875
3051.4111	921.4875
3053.80888	916.9875
3056.20519	923.8875
3058.60005	924.2875
3060.99345	928.1875
3063.3854	927.0875
3065.7759	927.1875
3068.16494	926.3875
3070.55254	920.3875
3072.93868	927.7875
3075.32338	924.9875
3077.70662	932.6875
3080.08842	939.8875
3082.46878	941.3875
3084.84769	936.0875
3087.22515	947.6875
3089.60118	950.7875
3091.97576	949.3875
3094.3489	961.7875
3096.72061	964.5875
3099.09087	969.2875
3101.4597	969.8875
3103.82709	976.3875
3106.19305	978.2875
3108.55757	983.4875
3110.92066	985.7875
3113.28232	982.6875
3115.64255	992.2875
3118.00134	993.7875
3120.35871	993.0875
3122.71466	998.6875
3125.06917	1002.8875
3127.42226	1002.4875
3129.77393	1017.6875
3132.12417	1019.8875
3134.47299	1027.8875
3136.82039	1025.2875
3139.16636	1032.9875
3141.51092	1046.1875
3143.85406	1043.4875
3146.19579	1051.8875
3148.53609	1061.6875
3150.87499	1069.3875
3153.21246	1068.9875
3155.54853	1082.4875
3157.88318	1099.9875
3160.21642	1093.1875
3162.54826	1101.0875
3164.87868	1094.2875
3167.2077	1105.5875
3169.5353	1107.6875
3171.86151	1112.6875
3174.18631	1122.7875
3176.5097	1126.1875
3178.83169	1132.2875
3181.15228	1132.6875
3183.47147	1134.8875
3185.78926	1138.0875
3188.10565	1148.0875
3190.42065	1153.2875
3192.73424	1157.9875
3195.04645	1163.8875
3197.35725	1169.0875
3199.66667	1170.3875
3201.97469	1181.2875
3204.28132	1172.6875
3206.58656	1184.3875
3208.8904	1188.4875
3211.19287	1189.1875
3213.49394	1202.0875
3215.79363	1204.8875
3218.09193	1205.4875
3220.38884	1216.2875
3222.68438	1223.0875
3224.97853	1217.6875
3227.2713	1222.4875
3229.56269	1214.6875
3231.8527	1213.9875
3234.14133	1211.1875
3236.42858	1216.8875
3238.71446	1220.1875
3240.99896	1212.4875
3243.28209	1207.6875
3245.56384	1215.6875
3247.84423	1214.9875
3250.12324	1212.2875
3252.40088	1227.4875
3254.67715	1227.2875
3256.95205	1207.0875
3259.22558	1216.3875
3261.49775	1219.6875
3263.76855	1220.7875
3266.03799	1218.4875
3268.30606	1215.4875
3270.57277	1221.4875
3272.83812	1209.5875
3275.10211	1207.9875
3277.36474	1207.6875
3279.62601	1212.0875
3281.88593	1213.1875
3284.14448	1210.3875
3286.40168	1206.9875
3288.65753	1220.2875
3290.91202	1206.6875
3293.16516	1204.4875
3295.41695	1205.8875
3297.66738	1198.2875
3299.91647	1185.9875
3302.16421	1189.1875
3304.4106	1181.0875
3306.65564	1176.3875
3308.89933	1169.3875
3311.14169	1171.6875
3313.38269	1163.5875
3315.62236	1164.5875
3317.86068	1154.5875
3320.09766	1143.1875
3322.3333	1141.0875
3324.5676	1139.2875
3326.80056	1136.4875
3329.03219	1121.7875
3331.26248	0.9875
3333.49143	0.6875
3335.71905	-0.0125
