Data from AgNPs_FTO_APTES_UA_0.1mM_CRN_50uM_NaF_0.1M_Addition_RamanShift__12__12-50-37-637.txt Node

Date: Mon Dec 20 12:50:37 GMT 2021
User: TCL
Spectrometer: QEP01345
Trigger mode: 4
Integration Time (sec): 7.000000E0
Scans to average: 10
Electric dark correction enabled: true
Nonlinearity correction enabled: false
Boxcar width: 0
XAxis mode: Raman Shifts
Number of Pixels in Spectrum: 1044
>>>>>Begin Spectral Data<<<<<
46.04893	0.5875
50.45542	-0.2125
54.85868	-2.0125
59.25871	0.7875
63.6555	30.7875
68.04907	29.0875
72.43941	32.9875
76.82654	36.8875
81.21044	36.5875
85.59113	40.3875
89.96862	35.7875
94.34289	40.6875
98.71396	40.6875
103.08183	41.5875
107.4465	45.1875
111.80798	47.2875
116.16626	45.1875
120.52136	48.0875
124.87327	48.9875
129.222	51.5875
133.56755	53.3875
137.90993	57.6875
142.24913	61.1875
146.58517	65.7875
150.91804	77.1875
155.24774	95.3875
159.57429	106.2875
163.89768	137.9875
168.21792	184.1875
172.53501	244.6875
176.84895	342.8875
181.15975	482.8875
185.46741	675.5875
189.77193	933.6875
194.07331	1248.1875
198.37157	1634.1875
202.6667	2034.7875
206.9587	2419.3875
211.24758	2809.6875
215.53334	3207.3875
219.81599	3600.4875
224.09553	4063.9875
228.37195	4555.1875
232.64527	5119.3875
236.91549	5723.3875
241.18261	6328.9875
245.44663	6936.1875
249.70755	7463.4875
253.96539	7863.4875
258.22014	8153.8875
262.4718	8300.9875
266.72039	8311.6875
270.96589	8194.2875
275.20832	7986.9875
279.44768	7730.7875
283.68397	7470.6875
287.91719	7223.9875
292.14735	7016.9875
296.37445	6847.2875
300.59849	6749.0875
304.81948	6649.4875
309.03742	6581.6875
313.25231	6509.0875
317.46415	6441.1875
321.67296	6368.8875
325.87872	6305.1875
330.08145	6299.9875
334.28114	6279.2875
338.47781	6291.7875
342.67145	6317.7875
346.86207	6352.5875
351.04966	6414.7875
355.23424	6480.0875
359.4158	6531.8875
363.59435	6591.7875
367.76989	6651.0875
371.94243	6733.8875
376.11196	6759.8875
380.27849	6813.5875
384.44203	6885.7875
388.60257	6958.7875
392.76012	7028.5875
396.91468	7147.1875
401.06626	7280.5875
405.21485	7423.9875
409.36047	7469.5875
413.50311	7466.6875
417.64277	7424.8875
421.77947	7390.1875
425.9132	7359.1875
430.04396	7349.7875
434.17176	7329.8875
438.2966	7353.6875
442.41849	7352.6875
446.53742	7401.8875
450.6534	7420.4875
454.76644	7492.2875
458.87653	7513.4875
462.98368	7554.4875
467.08789	7550.1875
471.18916	7544.4875
475.2875	7588.8875
479.38291	7640.1875
483.4754	7670.9875
487.56496	7751.8875
491.6516	7824.7875
495.73531	7876.5875
499.81612	7945.1875
503.89401	8005.6875
507.96899	8040.0875
512.04106	8020.8875
516.11023	7954.6875
520.1765	7892.7875
524.23987	7808.0875
528.30034	7716.1875
532.35792	7680.3875
536.41261	7631.9875
540.46441	7589.7875
544.51333	7563.6875
548.55936	7573.5875
552.60252	7594.2875
556.64279	7630.8875
560.6802	7691.8875
564.71473	7712.1875
568.7464	7718.5875
572.7752	7755.9875
576.80114	7781.9875
580.82422	7788.5875
584.84444	7826.9875
588.86181	7871.1875
592.87633	7894.7875
596.888	7921.5875
600.89682	8006.8875
604.9028	8142.2875
608.90594	8472.4875
612.90624	8825.6875
616.90371	8784.3875
620.89834	8341.8875
624.89015	8131.6875
628.87913	8153.7875
632.86528	8233.6875
636.84862	8364.8875
640.82913	8398.4875
644.80683	8391.1875
648.78172	8342.5875
652.75379	8315.0875
656.72306	8310.4875
660.68952	8349.2875
664.65319	8357.3875
668.61405	8367.1875
672.57211	8438.2875
676.52738	8473.7875
680.47986	8500.7875
684.42955	8463.1875
688.37646	8439.1875
692.32058	8465.9875
696.26192	8440.7875
700.20048	8411.0875
704.13626	8366.0875
708.06928	8261.9875
711.99952	8109.3875
715.927	8010.1875
719.85171	7927.6875
723.77365	7880.1875
727.69284	7842.3875
731.60928	7820.5875
735.52295	7800.7875
739.43388	7838.1875
743.34206	7882.2875
747.24749	7950.9875
751.15017	8012.8875
755.05012	8071.7875
758.94733	8146.9875
762.8418	8262.5875
766.73354	8366.8875
770.62254	8508.1875
774.50882	8552.7875
778.39237	8478.7875
782.27321	8296.9875
786.15132	8071.7875
790.02671	7921.7875
793.89938	7880.0875
797.76935	7870.0875
801.6366	7889.2875
805.50115	7979.3875
809.36299	8029.5875
813.22213	8060.0875
817.07857	8000.8875
820.93231	7913.2875
824.78336	7799.5875
828.63172	7710.0875
832.47738	7650.5875
836.32036	7609.6875
840.16066	7590.0875
843.99827	7591.4875
847.8332	7600.4875
851.66546	7597.7875
855.49504	7604.9875
859.32195	7611.4875
863.1462	7610.3875
866.96777	7595.7875
870.78668	7613.1875
874.60293	7661.9875
878.41652	7658.4875
882.22745	7729.7875
886.03573	7737.3875
889.84136	7777.4875
893.64433	7770.7875
897.44466	7743.0875
901.24235	7728.7875
905.0374	7704.6875
908.8298	7673.5875
912.61957	7653.3875
916.40671	7619.4875
920.19121	7618.0875
923.97308	7606.2875
927.75233	7600.6875
931.52895	7557.5875
935.30295	7524.4875
939.07433	7482.7875
942.84309	7449.4875
946.60924	7443.7875
950.37278	7413.3875
954.13371	7387.1875
957.89203	7405.4875
961.64774	7396.4875
965.40086	7382.2875
969.15137	7380.2875
972.89929	7347.6875
976.64461	7359.1875
980.38733	7341.5875
984.12747	7367.8875
987.86502	7367.0875
991.59999	7381.8875
995.33237	7374.7875
999.06217	7393.5875
1002.78939	7431.8875
1006.51404	7441.0875
1010.23611	7478.3875
1013.95561	7515.5875
1017.67255	7546.1875
1021.38692	7543.2875
1025.09872	7543.5875
1028.80796	7542.5875
1032.51465	7515.9875
1036.21877	7510.1875
1039.92035	7495.4875
1043.61937	7491.2875
1047.31584	7510.6875
1051.00976	7541.8875
1054.70114	7549.9875
1058.38998	7565.8875
1062.07627	7557.5875
1065.76003	7585.9875
1069.44126	7614.5875
1073.11995	7620.2875
1076.79611	7644.9875
1080.46974	7634.2875
1084.14085	7644.7875
1087.80943	7617.0875
1091.47549	7613.1875
1095.13903	7626.4875
1098.80005	7579.3875
1102.45857	7559.3875
1106.11456	7549.3875
1109.76805	7564.0875
1113.41903	7596.6875
1117.06751	7661.7875
1120.71348	7768.6875
1124.35696	7924.5875
1127.99793	8069.2875
1131.63641	8189.9875
1135.2724	8256.3875
1138.90589	8271.3875
1142.5369	8249.8875
1146.16542	8187.4875
1149.79145	8064.0875
1153.415	7954.8875
1157.03607	7818.1875
1160.65467	7721.9875
1164.27079	7706.8875
1167.88443	7699.8875
1171.49561	7757.2875
1175.10432	7859.5875
1178.71056	8008.2875
1182.31434	8167.2875
1185.91565	8267.2875
1189.51451	8326.0875
1193.11091	8297.4875
1196.70485	8275.7875
1200.29634	8261.1875
1203.88538	8224.6875
1207.47197	8193.1875
1211.05612	8179.5875
1214.63782	8167.7875
1218.21708	8192.2875
1221.79391	8151.2875
1225.36829	8119.2875
1228.94024	8073.8875
1232.50976	8038.2875
1236.07685	7967.2875
1239.6415	7937.3875
1243.20374	7920.6875
1246.76355	7927.7875
1250.32093	7967.8875
1253.8759	8006.7875
1257.42845	8087.0875
1260.97859	8121.0875
1264.52631	8150.8875
1268.07163	8175.6875
1271.61453	8156.5875
1275.15503	8173.6875
1278.69312	8166.9875
1282.22882	8159.8875
1285.76211	8170.6875
1289.29301	8191.0875
1292.82151	8245.9875
1296.34761	8335.6875
1299.87133	8438.9875
1303.39266	8584.6875
1306.9116	8755.1875
1310.42815	8920.9875
1313.94233	9054.1875
1317.45412	9100.3875
1320.96354	9082.4875
1324.47058	9043.2875
1327.97525	8983.0875
1331.47754	8950.4875
1334.97747	8952.9875
1338.47502	8992.8875
1341.97022	9073.4875
1345.46305	9203.1875
1348.95352	9319.1875
1352.44163	9461.3875
1355.92738	9568.1875
1359.41078	9697.4875
1362.89183	9826.5875
1366.37053	9804.9875
1369.84688	9470.9875
1373.32088	9089.9875
1376.79254	8830.0875
1380.26186	8670.3875
1383.72883	8581.2875
1387.19347	8479.1875
1390.65578	8372.2875
1394.11575	8318.9875
1397.57339	8253.7875
1401.0287	8158.5875
1404.48168	8104.1875
1407.93234	8067.7875
1411.38068	7985.3875
1414.82669	7911.9875
1418.27039	7803.3875
1421.71177	7707.1875
1425.15083	7626.8875
1428.58758	7550.2875
1432.02203	7487.6875
1435.45416	7460.6875
1438.88399	7447.2875
1442.31151	7431.4875
1445.73673	7418.2875
1449.15965	7417.2875
1452.58027	7412.5875
1455.9986	7444.5875
1459.41463	7456.8875
1462.82837	7500.5875
1466.23982	7536.1875
1469.64898	7615.4875
1473.05586	7651.0875
1476.46045	7687.3875
1479.86276	7717.2875
1483.26279	7743.4875
1486.66054	7780.0875
1490.05602	7803.6875
1493.44922	7873.0875
1496.84016	7984.0875
1500.22882	8124.3875
1503.61521	8354.1875
1506.99934	8561.9875
1510.38121	8729.1875
1513.76081	8769.0875
1517.13816	8645.5875
1520.51324	8477.0875
1523.88607	8301.2875
1527.25665	8204.9875
1530.62498	8161.4875
1533.99105	8175.6875
1537.35488	8188.1875
1540.71647	8214.2875
1544.07581	8265.5875
1547.4329	8315.2875
1550.78776	8366.7875
1554.14038	8408.8875
1557.49077	8474.2875
1560.83892	8540.0875
1564.18484	8578.8875
1567.52853	8645.4875
1570.86999	8685.9875
1574.20922	8715.3875
1577.54624	8749.6875
1580.88103	8711.4875
1584.2136	8640.6875
1587.54395	8593.5875
1590.87208	8567.4875
1594.19801	8578.9875
1597.52172	8621.4875
1600.84321	8637.4875
1604.16251	8565.8875
1607.47959	8464.0875
1610.79447	8364.5875
1614.10715	8225.3875
1617.41763	8077.7875
1620.7259	7970.6875
1624.03199	7904.5875
1627.33587	7858.3875
1630.63757	7866.4875
1633.93707	7885.3875
1637.23439	7967.0875
1640.52951	8065.5875
1643.82246	8256.6875
1647.11321	8450.8875
1650.40179	8569.0875
1653.68819	8545.3875
1656.97241	8354.2875
1660.25446	8034.5875
1663.53433	7837.7875
1666.81203	7663.2875
1670.08756	7528.7875
1673.36092	7410.7875
1676.63211	7317.1875
1679.90115	7237.8875
1683.16801	7144.0875
1686.43272	7041.1875
1689.69527	6951.7875
1692.95567	6847.0875
1696.2139	6781.6875
1699.46999	6726.0875
1702.72392	6661.9875
1705.97571	6602.1875
1709.22535	6570.4875
1712.47284	6538.1875
1715.71819	6505.6875
1718.96139	6465.9875
1722.20246	6406.1875
1725.44139	6376.1875
1728.67818	6316.5875
1731.91284	6253.3875
1735.14537	6203.3875
1738.37576	6140.6875
1741.60403	6119.6875
1744.83017	6084.3875
1748.05418	6043.7875
1751.27607	6022.5875
1754.49584	6021.4875
1757.71349	6003.6875
1760.92903	5977.3875
1764.14244	5953.8875
1767.35375	5949.6875
1770.56294	5917.7875
1773.77002	5885.0875
1776.97499	5862.4875
1780.17785	5817.3875
1783.37861	5820.9875
1786.57727	5801.3875
1789.77382	5753.9875
1792.96828	5737.8875
1796.16064	5717.5875
1799.3509	5698.0875
1802.53907	5675.9875
1805.72514	5647.0875
1808.90913	5616.0875
1812.09102	5617.6875
1815.27083	5585.5875
1818.44856	5584.8875
1821.6242	5572.0875
1824.79776	5552.4875
1827.96924	5552.0875
1831.13864	5524.7875
1834.30597	5533.9875
1837.47122	5504.7875
1840.6344	5495.9875
1843.7955	5502.1875
1846.95454	5476.0875
1850.11151	5486.8875
1853.26642	5472.6875
1856.41926	5468.1875
1859.57004	5459.6875
1862.71876	5465.6875
1865.86542	5434.4875
1869.01003	5416.9875
1872.15258	5401.8875
1875.29308	5396.0875
1878.43152	5385.5875
1881.56792	5361.4875
1884.70227	5362.1875
1887.83457	5350.1875
1890.96482	5349.0875
1894.09304	5321.1875
1897.21921	5311.2875
1900.34335	5303.9875
1903.46544	5307.4875
1906.58551	5311.0875
1909.70353	5296.0875
1912.81953	5279.7875
1915.93349	5258.9875
1919.04543	5252.5875
1922.15534	5256.8875
1925.26322	5241.3875
1928.36908	5227.4875
1931.47292	5197.5875
1934.57473	5199.2875
1937.67453	5170.3875
1940.77232	5144.6875
1943.86808	5139.8875
1946.96184	5140.4875
1950.05358	5101.5875
1953.14331	5097.7875
1956.23103	5075.8875
1959.31675	5066.9875
1962.40046	5055.2875
1965.48217	5040.3875
1968.56188	5014.4875
1971.63959	4990.9875
1974.7153	4972.5875
1977.78901	4950.9875
1980.86073	4951.4875
1983.93046	4934.1875
1986.99819	4915.3875
1990.06394	4884.9875
1993.1277	4889.2875
1996.18947	4870.2875
1999.24925	4854.0875
2002.30706	4839.6875
2005.36288	4805.7875
2008.41672	4794.8875
2011.46859	4787.3875
2014.51848	4763.2875
2017.56639	4731.4875
2020.61233	4737.1875
2023.6563	4708.0875
2026.6983	4722.2875
2029.73833	4696.1875
2032.7764	4687.0875
2035.8125	4678.4875
2038.84664	4651.4875
2041.87881	4648.5875
2044.90903	4638.6875
2047.93729	4618.0875
2050.96359	4613.1875
2053.98794	4614.6875
2057.01034	4601.1875
2060.03078	4597.6875
2063.04927	4580.9875
2066.06582	4563.3875
2069.08042	4577.6875
2072.09307	4561.4875
2075.10378	4564.0875
2078.11255	4563.8875
2081.11938	4569.3875
2084.12426	4552.7875
2087.12722	4561.6875
2090.12824	4543.5875
2093.12732	4555.0875
2096.12447	4545.0875
2099.11969	4529.7875
2102.11299	4530.3875
2105.10435	4571.8875
2108.09379	4553.2875
2111.08131	4553.5875
2114.0669	4545.1875
2117.05057	4542.2875
2120.03233	4543.4875
2123.01216	4530.0875
2125.99008	4548.2875
2128.96609	4548.7875
2131.94018	4539.9875
2134.91236	4558.0875
2137.88263	4543.7875
2140.851	4548.6875
2143.81746	4550.3875
2146.78201	4551.1875
2149.74466	4550.2875
2152.7054	4559.7875
2155.66425	4557.8875
2158.6212	4542.3875
2161.57625	4532.8875
2164.52941	4541.9875
2167.48067	4535.4875
2170.43004	4532.0875
2173.37752	4511.7875
2176.32311	4510.1875
2179.26681	4507.2875
2182.20863	4521.4875
2185.14856	4495.1875
2188.08661	4520.9875
2191.02278	4508.0875
2193.95707	4495.3875
2196.88948	4494.3875
2199.82001	4473.9875
2202.74867	4461.7875
2205.67545	4460.8875
2208.60037	4455.2875
2211.52341	4443.9875
2214.44458	4427.2875
2217.36388	4417.0875
2220.28132	4414.5875
2223.1969	4395.2875
2226.11061	4395.6875
2229.02246	4381.3875
2231.93245	4360.4875
2234.84058	4347.0875
2237.74686	4338.1875
2240.65128	4330.4875
2243.55385	4339.7875
2246.45456	4325.3875
2249.35343	4322.8875
2252.25044	4311.2875
2255.14561	4290.3875
2258.03893	4290.1875
2260.93041	4297.2875
2263.82004	4266.5875
2266.70783	4258.0875
2269.59378	4257.2875
2272.4779	4235.3875
2275.36017	4228.8875
2278.24061	4220.3875
2281.11922	4212.4875
2283.996	4192.6875
2286.87094	4195.4875
2289.74405	4170.9875
2292.61534	4153.1875
2295.4848	4162.9875
2298.35243	4156.9875
2301.21824	4144.6875
2304.08223	4140.1875
2306.94439	4126.8875
2309.80474	4125.0875
2312.66327	4121.4875
2315.51999	4129.5875
2318.37489	4119.6875
2321.22797	4110.2875
2324.07925	4094.6875
2326.92871	4090.6875
2329.77637	4085.3875
2332.62222	4068.2875
2335.46626	4051.3875
2338.3085	4048.7875
2341.14893	4044.5875
2343.98756	4025.3875
2346.8244	4028.2875
2349.65943	4029.0875
2352.49267	4015.0875
2355.32411	4016.5875
2358.15376	3997.9875
2360.98161	4003.2875
2363.80768	3996.5875
2366.63195	3989.2875
2369.45444	3989.4875
2372.27514	3975.8875
2375.09405	3966.5875
2377.91118	3959.2875
2380.72652	3941.4875
2383.54009	3945.6875
2386.35187	3929.0875
2389.16188	3918.8875
2391.97011	3928.8875
2394.77657	3907.8875
2397.58125	3892.9875
2400.38416	3892.7875
2403.18529	3880.1875
2405.98466	3881.9875
2408.78226	3876.0875
2411.57809	3848.3875
2414.37216	3850.1875
2417.16446	3845.5875
2419.955	3847.0875
2422.74378	3831.4875
2425.5308	3833.0875
2428.31606	3824.5875
2431.09956	3798.5875
2433.88131	3812.1875
2436.6613	3803.2875
2439.43954	3803.5875
2442.21603	3789.3875
2444.99077	3797.6875
2447.76377	3802.1875
2450.53501	3784.7875
2453.30451	3776.9875
2456.07226	3767.4875
2458.83827	3762.0875
2461.60254	3757.4875
2464.36507	3745.1875
2467.12586	3751.0875
2469.88492	3752.9875
2472.64224	3750.0875
2475.39782	3738.1875
2478.15167	3745.7875
2480.90379	3724.4875
2483.65417	3705.9875
2486.40283	3717.3875
2489.14976	3700.1875
2491.89497	3699.1875
2494.63845	3702.1875
2497.3802	3696.9875
2500.12024	3684.4875
2502.85855	3681.8875
2505.59514	3677.1875
2508.33002	3655.0875
2511.06318	3666.7875
2513.79462	3657.6875
2516.52435	3654.3875
2519.25237	3636.5875
2521.97867	3635.4875
2524.70327	3629.6875
2527.42616	3626.1875
2530.14734	3624.5875
2532.86681	3610.9875
2535.58458	3594.2875
2538.30065	3577.3875
2541.01501	3590.6875
2543.72768	3569.0875
2546.43864	3557.0875
2549.14791	3559.1875
2551.85548	3563.0875
2554.56136	3541.9875
2557.26554	3537.1875
2559.96803	3532.3875
2562.66883	3508.3875
2565.36794	3511.8875
2568.06536	3497.7875
2570.7611	3495.4875
2573.45514	3478.3875
2576.14751	3489.6875
2578.83819	3485.4875
2581.52719	3466.5875
2584.21451	3454.0875
2586.90015	3460.2875
2589.58411	3463.9875
2592.2664	3436.1875
2594.94701	3424.7875
2597.62594	3422.3875
2600.30321	3405.8875
2602.9788	3417.6875
2605.65273	3383.3875
2608.32498	3377.5875
2610.99557	3377.4875
2613.66449	3374.8875
2616.33175	3379.0875
2618.99734	3366.0875
2621.66128	3362.6875
2624.32355	3356.4875
2626.98416	3352.0875
2629.64311	3349.6875
2632.30041	3345.3875
2634.95605	3330.7875
2637.61004	3331.0875
2640.26238	3334.6875
2642.91306	3311.4875
2645.56209	3320.9875
2648.20948	3304.2875
2650.85521	3296.9875
2653.4993	3294.3875
2656.14175	3286.4875
2658.78255	3301.4875
2661.42171	3295.3875
2664.05923	3278.2875
2666.6951	3284.2875
2669.32934	3277.0875
2671.96194	3283.3875
2674.59291	3266.2875
2677.22224	3276.0875
2679.84993	3271.0875
2682.476	3261.5875
2685.10043	3262.2875
2687.72324	3275.5875
2690.34441	3262.7875
2692.96396	3257.9875
2695.58188	3262.9875
2698.19818	3253.6875
2700.81285	3268.0875
2703.4259	3261.8875
2706.03733	3291.2875
2708.64714	3258.4875
2711.25533	3261.3875
2713.86191	3250.6875
2716.46687	3259.2875
2719.07021	3252.5875
2721.67194	3247.8875
2724.27206	3234.6875
2726.87057	3241.1875
2729.46747	3243.8875
2732.06276	3239.8875
2734.65644	3229.3875
2737.24852	3222.3875
2739.83899	3222.2875
2742.42786	3208.6875
2745.01513	3208.4875
2747.60079	3210.5875
2750.18486	3211.4875
2752.76733	3182.8875
2755.3482	3202.9875
2757.92747	3186.1875
2760.50515	3192.4875
2763.08123	3185.3875
2765.65573	3178.7875
2768.22863	3166.8875
2770.79994	3171.8875
2773.36967	3164.1875
2775.9378	3146.5875
2778.50435	3135.9875
2781.06932	3150.7875
2783.6327	3126.3875
2786.1945	3126.9875
2788.75471	3115.4875
2791.31335	3117.1875
2793.87041	3107.3875
2796.42589	3088.7875
2798.97979	3088.3875
2801.53212	3079.5875
2804.08288	3080.5875
2806.63206	3068.4875
2809.17967	3067.7875
2811.72571	3049.1875
2814.27018	3034.7875
2816.81308	3034.4875
2819.35442	3028.3875
2821.89419	3032.5875
2824.43239	3039.2875
2826.96904	3014.7875
2829.50412	3016.2875
2832.03763	2997.8875
2834.56959	2998.2875
2837.1	3001.1875
2839.62884	3000.0875
2842.15613	2992.0875
2844.68186	2997.9875
2847.20604	2984.1875
2849.72867	3004.5875
2852.24974	2987.3875
2854.76927	2988.9875
2857.28724	2982.6875
2859.80367	2974.8875
2862.31855	2970.0875
2864.83189	2957.3875
2867.34368	2959.3875
2869.85393	2957.6875
2872.36264	2959.1875
2874.8698	2951.7875
2877.37543	2945.6875
2879.87952	2951.2875
2882.38207	2942.5875
2884.88308	2937.3875
2887.38256	2945.7875
2889.88051	2940.9875
2892.37692	2948.1875
2894.8718	2948.9875
2897.36515	2942.1875
2899.85698	2930.1875
2902.34727	2941.5875
2904.83604	2938.3875
2907.32328	2942.8875
2909.809	2939.2875
2912.29319	2938.3875
2914.77587	2938.1875
2917.25702	2937.1875
2919.73665	2921.4875
2922.21476	2920.0875
2924.69136	2937.6875
2927.16644	2932.9875
2929.64	2928.2875
2932.11205	2931.6875
2934.58258	2925.6875
2937.05161	2917.0875
2939.51912	2930.2875
2941.98513	2908.2875
2944.44962	2920.0875
2946.91261	2896.4875
2949.37409	2913.3875
2951.83407	2906.8875
2954.29254	2908.5875
2956.74951	2912.6875
2959.20498	2890.5875
2961.65895	2895.6875
2964.11142	2905.3875
2966.56239	2886.1875
2969.01186	2896.1875
2971.45984	2886.2875
2973.90632	2887.4875
2976.35131	2847.3875
2978.7948	2859.1875
2981.23681	2850.5875
2983.67732	2851.6875
2986.11635	2841.5875
2988.55388	2838.2875
2990.98993	2834.2875
2993.4245	2834.5875
2995.85758	2830.1875
2998.28917	2821.4875
3000.71928	2815.8875
3003.14791	2805.5875
3005.57506	2808.8875
3008.00073	2807.3875
3010.42493	2796.5875
3012.84764	2793.4875
3015.26888	2788.7875
3017.68865	2796.5875
3020.10694	2785.3875
3022.52376	2779.4875
3024.9391	2777.5875
3027.35298	2774.5875
3029.76539	2761.9875
3032.17632	2778.3875
3034.5858	2758.4875
3036.9938	2772.6875
3039.40034	2774.9875
3041.80542	2754.9875
3044.20903	2756.2875
3046.61118	2760.6875
3049.01187	2746.8875
3051.4111	2739.9875
3053.80888	2745.4875
3056.20519	2737.5875
3058.60005	2740.7875
3060.99345	2745.4875
3063.3854	2743.3875
3065.7759	2728.5875
3068.16494	2724.9875
3070.55254	2734.4875
3072.93868	2724.6875
3075.32338	2725.3875
3077.70662	2721.6875
3080.08842	2727.5875
3082.46878	2730.8875
3084.84769	2720.5875
3087.22515	2722.6875
3089.60118	2726.0875
3091.97576	2729.6875
3094.3489	2716.5875
3096.72061	2728.0875
3099.09087	2743.2875
3101.4597	2739.8875
3103.82709	2735.1875
3106.19305	2725.3875
3108.55757	2742.9875
3110.92066	2726.6875
3113.28232	2721.0875
3115.64255	2713.8875
3118.00134	2733.7875
3120.35871	2727.8875
3122.71466	2715.0875
3125.06917	2719.9875
3127.42226	2715.2875
3129.77393	2714.9875
3132.12417	2727.6875
3134.47299	2739.4875
3136.82039	2733.5875
3139.16636	2732.8875
3141.51092	2744.0875
3143.85406	2745.8875
3146.19579	2764.4875
3148.53609	2760.3875
3150.87499	2774.2875
3153.21246	2780.6875
3155.54853	2771.0875
3157.88318	2789.1875
3160.21642	2794.1875
3162.54826	2790.3875
3164.87868	2786.8875
3167.2077	2783.1875
3169.5353	2802.2875
3171.86151	2790.5875
3174.18631	2797.1875
3176.5097	2801.3875
3178.83169	2805.2875
3181.15228	2803.0875
3183.47147	2793.7875
3185.78926	2788.3875
3188.10565	2796.7875
3190.42065	2787.4875
3192.73424	2816.1875
3195.04645	2801.0875
3197.35725	2797.9875
3199.66667	2807.1875
3201.97469	2823.4875
3204.28132	2815.6875
3206.58656	2825.7875
3208.8904	2817.7875
3211.19287	2831.3875
3213.49394	2838.9875
3215.79363	2833.5875
3218.09193	2845.9875
3220.38884	2845.7875
3222.68438	2832.0875
3224.97853	2828.6875
3227.2713	2831.2875
3229.56269	2820.1875
3231.8527	2823.1875
3234.14133	2828.8875
3236.42858	2828.0875
3238.71446	2811.5875
3240.99896	2802.9875
3243.28209	2812.4875
3245.56384	2825.1875
3247.84423	2799.0875
3250.12324	2797.1875
3252.40088	2805.1875
3254.67715	2806.5875
3256.95205	2794.2875
3259.22558	2806.9875
3261.49775	2799.6875
3263.76855	2796.6875
3266.03799	2798.1875
3268.30606	2796.2875
3270.57277	2790.1875
3272.83812	2786.8875
3275.10211	2769.2875
3277.36474	2759.3875
3279.62601	2774.3875
3281.88593	2774.5875
3284.14448	2774.2875
3286.40168	2772.0875
3288.65753	2761.9875
3290.91202	2771.7875
3293.16516	2748.2875
3295.41695	2738.2875
3297.66738	2717.0875
3299.91647	2722.5875
3302.16421	2688.7875
3304.4106	2681.4875
3306.65564	2664.8875
3308.89933	2663.2875
3311.14169	2650.9875
3313.38269	2638.2875
3315.62236	2614.2875
3317.86068	2600.2875
3320.09766	2575.0875
3322.3333	2553.5875
3324.5676	2552.9875
3326.80056	2518.5875
3329.03219	2503.3875
3331.26248	-0.1125
3333.49143	-0.0125
3335.71905	0.4875
