Data from AgNPs_FTO_APTES_UA_0.1mM_CRN_1000uM_NaF_0.1M_Addition_RamanShift__10__15-25-47-811.txt Node

Date: Mon Dec 20 15:25:47 GMT 2021
User: TCL
Spectrometer: QEP01345
Trigger mode: 4
Integration Time (sec): 7.000000E0
Scans to average: 10
Electric dark correction enabled: true
Nonlinearity correction enabled: false
Boxcar width: 0
XAxis mode: Raman Shifts
Number of Pixels in Spectrum: 1044
>>>>>Begin Spectral Data<<<<<
46.04893	-0.4625
50.45542	0.4375
54.85868	-0.3625
59.25871	1.5375
63.6555	19.8375
68.04907	24.7375
72.43941	23.8375
76.82654	25.6375
81.21044	28.8375
85.59113	34.8375
89.96862	31.2375
94.34289	35.0375
98.71396	31.8375
103.08183	27.9375
107.4465	34.5375
111.80798	38.4375
116.16626	38.0375
120.52136	34.7375
124.87327	34.5375
129.222	35.8375
133.56755	38.6375
137.90993	40.9375
142.24913	42.2375
146.58517	43.1375
150.91804	55.1375
155.24774	59.4375
159.57429	67.8375
163.89768	85.7375
168.21792	112.6375
172.53501	144.8375
176.84895	200.3375
181.15975	274.3375
185.46741	378.6375
189.77193	522.0375
194.07331	693.0375
198.37157	900.9375
202.6667	1108.3375
206.9587	1337.5375
211.24758	1555.9375
215.53334	1769.8375
219.81599	2013.6375
224.09553	2269.6375
228.37195	2568.7375
232.64527	2894.3375
236.91549	3226.0375
241.18261	3574.0375
245.44663	3866.3375
249.70755	4103.5375
253.96539	4266.3375
258.22014	4323.6375
262.4718	4346.0375
266.72039	4269.9375
270.96589	4156.4375
275.20832	4011.5375
279.44768	3865.2375
283.68397	3722.5375
287.91719	3574.7375
292.14735	3465.7375
296.37445	3396.1375
300.59849	3323.8375
304.81948	3276.1375
309.03742	3229.5375
313.25231	3176.8375
317.46415	3150.2375
321.67296	3101.8375
325.87872	3085.3375
330.08145	3058.7375
334.28114	3045.8375
338.47781	3044.6375
342.67145	3035.2375
346.86207	3033.0375
351.04966	3055.8375
355.23424	3074.8375
359.4158	3085.2375
363.59435	3123.6375
367.76989	3143.5375
371.94243	3174.0375
376.11196	3208.2375
380.27849	3248.4375
384.44203	3279.1375
388.60257	3329.7375
392.76012	3394.6375
396.91468	3468.5375
401.06626	3544.7375
405.21485	3616.8375
409.36047	3652.8375
413.50311	3663.0375
417.64277	3629.7375
421.77947	3583.8375
425.9132	3541.8375
430.04396	3528.4375
434.17176	3502.6375
438.2966	3486.5375
442.41849	3486.0375
446.53742	3485.0375
450.6534	3501.6375
454.76644	3510.5375
458.87653	3528.5375
462.98368	3539.0375
467.08789	3541.9375
471.18916	3549.5375
475.2875	3568.8375
479.38291	3620.0375
483.4754	3678.7375
487.56496	3765.3375
491.6516	3848.4375
495.73531	3923.3375
499.81612	3938.4375
503.89401	3964.3375
507.96899	3934.1375
512.04106	3875.3375
516.11023	3826.9375
520.1765	3782.0375
524.23987	3733.2375
528.30034	3722.5375
532.35792	3692.5375
536.41261	3669.4375
540.46441	3634.9375
544.51333	3611.9375
548.55936	3571.4375
552.60252	3567.8375
556.64279	3551.8375
560.6802	3538.1375
564.71473	3541.1375
568.7464	3569.3375
572.7752	3597.7375
576.80114	3592.3375
580.82422	3658.3375
584.84444	3700.5375
588.86181	3770.8375
592.87633	3826.8375
596.888	3802.8375
600.89682	3824.6375
604.9028	3818.5375
608.90594	3926.3375
612.90624	4011.4375
616.90371	4030.4375
620.89834	4007.0375
624.89015	4058.3375
628.87913	4255.2375
632.86528	4464.6375
636.84862	4645.6375
640.82913	4716.2375
644.80683	4637.4375
648.78172	4496.3375
652.75379	4318.8375
656.72306	4177.6375
660.68952	4110.4375
664.65319	4047.6375
668.61405	4039.6375
672.57211	4061.0375
676.52738	4085.4375
680.47986	4113.1375
684.42955	4112.3375
688.37646	4110.5375
692.32058	4042.6375
696.26192	3969.3375
700.20048	3866.5375
704.13626	3799.6375
708.06928	3732.6375
711.99952	3689.9375
715.927	3661.8375
719.85171	3655.6375
723.77365	3666.8375
727.69284	3676.0375
731.60928	3679.1375
735.52295	3651.5375
739.43388	3653.7375
743.34206	3673.5375
747.24749	3704.7375
751.15017	3720.6375
755.05012	3755.4375
758.94733	3787.2375
762.8418	3818.5375
766.73354	3833.0375
770.62254	3831.5375
774.50882	3787.6375
778.39237	3705.9375
782.27321	3652.2375
786.15132	3587.2375
790.02671	3561.3375
793.89938	3552.1375
797.76935	3576.8375
801.6366	3634.5375
805.50115	3726.9375
809.36299	3858.9375
813.22213	3926.5375
817.07857	3910.1375
820.93231	3792.0375
824.78336	3664.0375
828.63172	3522.8375
832.47738	3433.2375
836.32036	3396.7375
840.16066	3394.6375
843.99827	3386.3375
847.8332	3382.7375
851.66546	3390.5375
855.49504	3390.0375
859.32195	3409.5375
863.1462	3402.4375
866.96777	3412.7375
870.78668	3437.5375
874.60293	3484.1375
878.41652	3536.0375
882.22745	3615.5375
886.03573	3676.5375
889.84136	3688.4375
893.64433	3691.6375
897.44466	3632.0375
901.24235	3559.5375
905.0374	3489.4375
908.8298	3418.5375
912.61957	3370.4375
916.40671	3332.5375
920.19121	3320.5375
923.97308	3300.9375
927.75233	3278.3375
931.52895	3294.3375
935.30295	3277.3375
939.07433	3268.8375
942.84309	3239.5375
946.60924	3223.2375
950.37278	3217.8375
954.13371	3212.5375
957.89203	3210.3375
961.64774	3212.7375
965.40086	3218.4375
969.15137	3207.0375
972.89929	3182.0375
976.64461	3177.7375
980.38733	3175.6375
984.12747	3183.7375
987.86502	3189.2375
991.59999	3204.8375
995.33237	3207.5375
999.06217	3223.0375
1002.78939	3251.5375
1006.51404	3276.3375
1010.23611	3302.9375
1013.95561	3334.2375
1017.67255	3347.5375
1021.38692	3363.4375
1025.09872	3344.9375
1028.80796	3334.8375
1032.51465	3311.4375
1036.21877	3287.9375
1039.92035	3265.0375
1043.61937	3241.3375
1047.31584	3233.6375
1051.00976	3239.3375
1054.70114	3257.0375
1058.38998	3263.7375
1062.07627	3294.1375
1065.76003	3312.2375
1069.44126	3333.4375
1073.11995	3348.7375
1076.79611	3347.9375
1080.46974	3341.8375
1084.14085	3323.7375
1087.80943	3272.4375
1091.47549	3244.2375
1095.13903	3211.2375
1098.80005	3194.5375
1102.45857	3205.3375
1106.11456	3212.7375
1109.76805	3243.7375
1113.41903	3311.5375
1117.06751	3436.4375
1120.71348	3581.4375
1124.35696	3794.1375
1127.99793	4023.3375
1131.63641	4217.6375
1135.2724	4334.6375
1138.90589	4340.8375
1142.5369	4247.4375
1146.16542	4097.9375
1149.79145	3893.5375
1153.415	3709.0375
1157.03607	3530.4375
1160.65467	3403.4375
1164.27079	3332.0375
1167.88443	3278.9375
1171.49561	3274.0375
1175.10432	3311.1375
1178.71056	3334.9375
1182.31434	3375.4375
1185.91565	3435.7375
1189.51451	3459.7375
1193.11091	3504.9375
1196.70485	3551.5375
1200.29634	3582.6375
1203.88538	3632.6375
1207.47197	3648.9375
1211.05612	3647.4375
1214.63782	3645.4375
1218.21708	3602.9375
1221.79391	3550.9375
1225.36829	3498.0375
1228.94024	3450.4375
1232.50976	3416.3375
1236.07685	3396.3375
1239.6415	3384.4375
1243.20374	3380.9375
1246.76355	3395.6375
1250.32093	3434.3375
1253.8759	3466.5375
1257.42845	3510.1375
1260.97859	3526.2375
1264.52631	3526.1375
1268.07163	3520.7375
1271.61453	3502.3375
1275.15503	3473.3375
1278.69312	3434.5375
1282.22882	3387.8375
1285.76211	3374.1375
1289.29301	3345.3375
1292.82151	3351.2375
1296.34761	3384.4375
1299.87133	3413.3375
1303.39266	3456.2375
1306.9116	3501.7375
1310.42815	3582.2375
1313.94233	3634.6375
1317.45412	3665.6375
1320.96354	3684.9375
1324.47058	3723.2375
1327.97525	3731.1375
1331.47754	3734.5375
1334.97747	3770.9375
1338.47502	3798.4375
1341.97022	3852.2375
1345.46305	3897.7375
1348.95352	3957.4375
1352.44163	4030.8375
1355.92738	4087.0375
1359.41078	4151.8375
1362.89183	4207.6375
1366.37053	4217.4375
1369.84688	4132.7375
1373.32088	4043.9375
1376.79254	3963.4375
1380.26186	3889.1375
1383.72883	3817.8375
1387.19347	3765.4375
1390.65578	3697.0375
1394.11575	3643.6375
1397.57339	3577.7375
1401.0287	3537.1375
1404.48168	3491.5375
1407.93234	3436.9375
1411.38068	3399.5375
1414.82669	3338.9375
1418.27039	3305.4375
1421.71177	3251.5375
1425.15083	3199.8375
1428.58758	3170.2375
1432.02203	3136.3375
1435.45416	3112.2375
1438.88399	3066.9375
1442.31151	3054.7375
1445.73673	3043.1375
1449.15965	3037.7375
1452.58027	3034.7375
1455.9986	3013.6375
1459.41463	3042.1375
1462.82837	3034.5375
1466.23982	3065.7375
1469.64898	3086.1375
1473.05586	3107.3375
1476.46045	3121.3375
1479.86276	3145.3375
1483.26279	3149.8375
1486.66054	3148.2375
1490.05602	3155.8375
1493.44922	3178.6375
1496.84016	3196.2375
1500.22882	3254.0375
1503.61521	3298.8375
1506.99934	3365.2375
1510.38121	3418.2375
1513.76081	3419.9375
1517.13816	3394.7375
1520.51324	3356.3375
1523.88607	3326.2375
1527.25665	3306.4375
1530.62498	3313.7375
1533.99105	3348.4375
1537.35488	3359.1375
1540.71647	3399.0375
1544.07581	3452.7375
1547.4329	3492.2375
1550.78776	3535.7375
1554.14038	3554.8375
1557.49077	3604.4375
1560.83892	3611.8375
1564.18484	3622.9375
1567.52853	3632.6375
1570.86999	3660.8375
1574.20922	3663.4375
1577.54624	3669.8375
1580.88103	3678.5375
1584.2136	3660.8375
1587.54395	3637.3375
1590.87208	3615.5375
1594.19801	3586.5375
1597.52172	3581.8375
1600.84321	3583.2375
1604.16251	3569.9375
1607.47959	3546.0375
1610.79447	3539.8375
1614.10715	3496.1375
1617.41763	3478.1375
1620.7259	3459.6375
1624.03199	3434.8375
1627.33587	3458.0375
1630.63757	3448.6375
1633.93707	3493.0375
1637.23439	3527.1375
1640.52951	3580.4375
1643.82246	3664.6375
1647.11321	3752.7375
1650.40179	3824.3375
1653.68819	3847.9375
1656.97241	3840.2375
1660.25446	3810.1375
1663.53433	3788.6375
1666.81203	3780.3375
1670.08756	3754.1375
1673.36092	3731.0375
1676.63211	3730.5375
1679.90115	3704.0375
1683.16801	3655.7375
1686.43272	3621.8375
1689.69527	3538.2375
1692.95567	3483.0375
1696.2139	3378.0375
1699.46999	3306.1375
1702.72392	3215.3375
1705.97571	3099.6375
1709.22535	2999.1375
1712.47284	2903.1375
1715.71819	2820.3375
1718.96139	2753.2375
1722.20246	2694.1375
1725.44139	2634.4375
1728.67818	2596.8375
1731.91284	2550.6375
1735.14537	2507.1375
1738.37576	2497.0375
1741.60403	2477.2375
1744.83017	2460.3375
1748.05418	2439.4375
1751.27607	2426.2375
1754.49584	2426.6375
1757.71349	2451.7375
1760.92903	2432.9375
1764.14244	2410.7375
1767.35375	2403.7375
1770.56294	2394.3375
1773.77002	2357.6375
1776.97499	2319.9375
1780.17785	2294.9375
1783.37861	2275.1375
1786.57727	2261.4375
1789.77382	2236.4375
1792.96828	2224.1375
1796.16064	2204.6375
1799.3509	2187.6375
1802.53907	2183.9375
1805.72514	2168.3375
1808.90913	2155.1375
1812.09102	2143.5375
1815.27083	2146.4375
1818.44856	2126.7375
1821.6242	2124.2375
1824.79776	2116.3375
1827.96924	2098.5375
1831.13864	2094.6375
1834.30597	2092.4375
1837.47122	2092.8375
1840.6344	2074.5375
1843.7955	2079.6375
1846.95454	2081.7375
1850.11151	2063.2375
1853.26642	2065.1375
1856.41926	2058.3375
1859.57004	2056.2375
1862.71876	2045.0375
1865.86542	2043.7375
1869.01003	2029.2375
1872.15258	2028.8375
1875.29308	2015.2375
1878.43152	2011.9375
1881.56792	2020.1375
1884.70227	2015.5375
1887.83457	1997.7375
1890.96482	1995.5375
1894.09304	1996.3375
1897.21921	1978.4375
1900.34335	1988.6375
1903.46544	1979.1375
1906.58551	1986.9375
1909.70353	1971.2375
1912.81953	1973.2375
1915.93349	1961.2375
1919.04543	1966.1375
1922.15534	1948.0375
1925.26322	1941.0375
1928.36908	1936.8375
1931.47292	1937.2375
1934.57473	1925.6375
1937.67453	1919.6375
1940.77232	1905.9375
1943.86808	1912.0375
1946.96184	1897.8375
1950.05358	1886.1375
1953.14331	1887.8375
1956.23103	1872.6375
1959.31675	1880.0375
1962.40046	1862.4375
1965.48217	1862.5375
1968.56188	1857.6375
1971.63959	1851.7375
1974.7153	1831.6375
1977.78901	1835.9375
1980.86073	1830.3375
1983.93046	1815.3375
1986.99819	1811.6375
1990.06394	1803.5375
1993.1277	1799.0375
1996.18947	1788.8375
1999.24925	1789.6375
2002.30706	1773.6375
2005.36288	1765.2375
2008.41672	1767.4375
2011.46859	1758.2375
2014.51848	1754.4375
2017.56639	1744.2375
2020.61233	1739.3375
2023.6563	1736.8375
2026.6983	1724.3375
2029.73833	1720.4375
2032.7764	1720.5375
2035.8125	1722.8375
2038.84664	1707.7375
2041.87881	1709.0375
2044.90903	1691.4375
2047.93729	1698.2375
2050.96359	1690.4375
2053.98794	1691.9375
2057.01034	1699.5375
2060.03078	1688.2375
2063.04927	1678.8375
2066.06582	1676.8375
2069.08042	1681.8375
2072.09307	1667.9375
2075.10378	1669.7375
2078.11255	1665.2375
2081.11938	1664.2375
2084.12426	1654.1375
2087.12722	1669.3375
2090.12824	1667.1375
2093.12732	1659.5375
2096.12447	1655.2375
2099.11969	1652.7375
2102.11299	1652.7375
2105.10435	1654.1375
2108.09379	1650.3375
2111.08131	1647.7375
2114.0669	1660.9375
2117.05057	1648.0375
2120.03233	1657.2375
2123.01216	1651.3375
2125.99008	1655.3375
2128.96609	1651.1375
2131.94018	1647.1375
2134.91236	1642.6375
2137.88263	1654.7375
2140.851	1637.8375
2143.81746	1650.2375
2146.78201	1650.3375
2149.74466	1649.1375
2152.7054	1635.9375
2155.66425	1636.0375
2158.6212	1635.8375
2161.57625	1638.0375
2164.52941	1636.7375
2167.48067	1634.2375
2170.43004	1629.8375
2173.37752	1634.9375
2176.32311	1627.4375
2179.26681	1628.9375
2182.20863	1629.4375
2185.14856	1631.7375
2188.08661	1627.3375
2191.02278	1610.6375
2193.95707	1614.4375
2196.88948	1607.8375
2199.82001	1619.6375
2202.74867	1596.6375
2205.67545	1598.8375
2208.60037	1590.9375
2211.52341	1591.9375
2214.44458	1588.6375
2217.36388	1581.2375
2220.28132	1576.7375
2223.1969	1574.5375
2226.11061	1571.0375
2229.02246	1563.5375
2231.93245	1563.2375
2234.84058	1561.8375
2237.74686	1554.5375
2240.65128	1553.4375
2243.55385	1549.7375
2246.45456	1542.2375
2249.35343	1550.9375
2252.25044	1532.5375
2255.14561	1527.2375
2258.03893	1535.8375
2260.93041	1541.0375
2263.82004	1526.5375
2266.70783	1515.5375
2269.59378	1511.7375
2272.4779	1501.4375
2275.36017	1498.7375
2278.24061	1494.2375
2281.11922	1496.5375
2283.996	1496.9375
2286.87094	1491.0375
2289.74405	1489.3375
2292.61534	1478.1375
2295.4848	1475.7375
2298.35243	1466.2375
2301.21824	1480.6375
2304.08223	1475.9375
2306.94439	1474.7375
2309.80474	1461.2375
2312.66327	1470.2375
2315.51999	1462.6375
2318.37489	1460.4375
2321.22797	1455.3375
2324.07925	1448.5375
2326.92871	1445.8375
2329.77637	1451.3375
2332.62222	1450.1375
2335.46626	1440.0375
2338.3085	1430.2375
2341.14893	1422.9375
2343.98756	1425.9375
2346.8244	1418.7375
2349.65943	1416.7375
2352.49267	1421.1375
2355.32411	1414.7375
2358.15376	1413.1375
2360.98161	1401.6375
2363.80768	1404.3375
2366.63195	1414.1375
2369.45444	1401.8375
2372.27514	1394.2375
2375.09405	1409.5375
2377.91118	1386.9375
2380.72652	1391.4375
2383.54009	1395.1375
2386.35187	1383.9375
2389.16188	1382.8375
2391.97011	1381.6375
2394.77657	1373.6375
2397.58125	1374.5375
2400.38416	1364.8375
2403.18529	1363.4375
2405.98466	1365.1375
2408.78226	1356.0375
2411.57809	1350.9375
2414.37216	1347.7375
2417.16446	1360.4375
2419.955	1343.0375
2422.74378	1348.2375
2425.5308	1342.7375
2428.31606	1344.1375
2431.09956	1336.7375
2433.88131	1338.5375
2436.6613	1337.2375
2439.43954	1334.2375
2442.21603	1326.3375
2444.99077	1327.2375
2447.76377	1327.5375
2450.53501	1322.6375
2453.30451	1322.7375
2456.07226	1314.5375
2458.83827	1310.5375
2461.60254	1315.2375
2464.36507	1301.8375
2467.12586	1307.7375
2469.88492	1304.7375
2472.64224	1308.1375
2475.39782	1302.2375
2478.15167	1308.0375
2480.90379	1289.2375
2483.65417	1298.1375
2486.40283	1289.3375
2489.14976	1296.1375
2491.89497	1286.5375
2494.63845	1288.9375
2497.3802	1281.1375
2500.12024	1283.2375
2502.85855	1278.3375
2505.59514	1274.0375
2508.33002	1273.0375
2511.06318	1267.8375
2513.79462	1267.9375
2516.52435	1260.4375
2519.25237	1257.6375
2521.97867	1254.6375
2524.70327	1255.9375
2527.42616	1255.7375
2530.14734	1256.3375
2532.86681	1246.8375
2535.58458	1242.2375
2538.30065	1246.5375
2541.01501	1237.1375
2543.72768	1244.4375
2546.43864	1232.2375
2549.14791	1227.6375
2551.85548	1233.9375
2554.56136	1222.7375
2557.26554	1221.4375
2559.96803	1224.7375
2562.66883	1219.1375
2565.36794	1211.0375
2568.06536	1217.6375
2570.7611	1209.3375
2573.45514	1204.0375
2576.14751	1209.1375
2578.83819	1194.2375
2581.52719	1196.9375
2584.21451	1189.7375
2586.90015	1191.4375
2589.58411	1188.0375
2592.2664	1187.8375
2594.94701	1185.8375
2597.62594	1184.5375
2600.30321	1177.2375
2602.9788	1173.0375
2605.65273	1175.4375
2608.32498	1176.4375
2610.99557	1173.6375
2613.66449	1164.1375
2616.33175	1166.5375
2618.99734	1159.5375
2621.66128	1162.4375
2624.32355	1153.2375
2626.98416	1158.4375
2629.64311	1155.9375
2632.30041	1147.9375
2634.95605	1154.5375
2637.61004	1145.4375
2640.26238	1145.0375
2642.91306	1137.4375
2645.56209	1140.9375
2648.20948	1140.7375
2650.85521	1137.4375
2653.4993	1138.4375
2656.14175	1134.4375
2658.78255	1142.6375
2661.42171	1134.2375
2664.05923	1132.4375
2666.6951	1133.1375
2669.32934	1129.1375
2671.96194	1124.2375
2674.59291	1129.9375
2677.22224	1130.9375
2679.84993	1134.4375
2682.476	1131.9375
2685.10043	1129.3375
2687.72324	1117.0375
2690.34441	1129.9375
2692.96396	1130.2375
2695.58188	1133.9375
2698.19818	1126.8375
2700.81285	1132.4375
2703.4259	1140.6375
2706.03733	1169.9375
2708.64714	1151.1375
2711.25533	1138.0375
2713.86191	1136.4375
2716.46687	1141.3375
2719.07021	1131.1375
2721.67194	1124.5375
2724.27206	1115.8375
2726.87057	1122.6375
2729.46747	1118.1375
2732.06276	1117.1375
2734.65644	1123.6375
2737.24852	1112.0375
2739.83899	1113.8375
2742.42786	1114.6375
2745.01513	1107.3375
2747.60079	1107.0375
2750.18486	1108.2375
2752.76733	1102.9375
2755.3482	1102.6375
2757.92747	1094.6375
2760.50515	1099.7375
2763.08123	1098.6375
2765.65573	1089.3375
2768.22863	1090.7375
2770.79994	1094.9375
2773.36967	1093.2375
2775.9378	1081.6375
2778.50435	1083.8375
2781.06932	1083.2375
2783.6327	1081.9375
2786.1945	1080.5375
2788.75471	1071.6375
2791.31335	1075.2375
2793.87041	1074.3375
2796.42589	1065.9375
2798.97979	1061.9375
2801.53212	1068.4375
2804.08288	1058.2375
2806.63206	1058.4375
2809.17967	1058.8375
2811.72571	1052.2375
2814.27018	1054.3375
2816.81308	1054.0375
2819.35442	1049.8375
2821.89419	1047.0375
2824.43239	1043.3375
2826.96904	1056.9375
2829.50412	1053.2375
2832.03763	1043.8375
2834.56959	1047.0375
2837.1	1037.8375
2839.62884	1041.7375
2842.15613	1046.3375
2844.68186	1042.4375
2847.20604	1048.8375
2849.72867	1047.3375
2852.24974	1041.6375
2854.76927	1045.8375
2857.28724	1057.2375
2859.80367	1042.2375
2862.31855	1037.8375
2864.83189	1035.0375
2867.34368	1034.1375
2869.85393	1035.4375
2872.36264	1024.9375
2874.8698	1045.1375
2877.37543	1031.5375
2879.87952	1035.1375
2882.38207	1041.5375
2884.88308	1042.1375
2887.38256	1039.1375
2889.88051	1032.4375
2892.37692	1041.6375
2894.8718	1041.8375
2897.36515	1031.9375
2899.85698	1043.1375
2902.34727	1049.9375
2904.83604	1049.0375
2907.32328	1061.9375
2909.809	1054.2375
2912.29319	1053.1375
2914.77587	1066.7375
2917.25702	1063.9375
2919.73665	1063.3375
2922.21476	1075.5375
2924.69136	1068.2375
2927.16644	1078.9375
2929.64	1073.3375
2932.11205	1080.9375
2934.58258	1082.4375
2937.05161	1076.5375
2939.51912	1084.6375
2941.98513	1085.4375
2944.44962	1081.0375
2946.91261	1080.4375
2949.37409	1087.9375
2951.83407	1089.2375
2954.29254	1088.7375
2956.74951	1082.1375
2959.20498	1078.2375
2961.65895	1073.4375
2964.11142	1062.7375
2966.56239	1063.9375
2969.01186	1063.6375
2971.45984	1053.2375
2973.90632	1048.5375
2976.35131	1042.7375
2978.7948	1036.9375
2981.23681	1042.9375
2983.67732	1034.6375
2986.11635	1036.8375
2988.55388	1027.4375
2990.98993	1025.9375
2993.4245	1030.6375
2995.85758	1018.0375
2998.28917	1025.9375
3000.71928	1022.2375
3003.14791	1019.9375
3005.57506	1026.3375
3008.00073	1018.2375
3010.42493	1022.7375
3012.84764	1016.2375
3015.26888	1024.5375
3017.68865	1020.6375
3020.10694	1020.1375
3022.52376	1021.2375
3024.9391	1028.5375
3027.35298	1012.8375
3029.76539	1012.5375
3032.17632	1026.0375
3034.5858	1012.0375
3036.9938	1021.4375
3039.40034	1019.8375
3041.80542	1024.6375
3044.20903	1022.6375
3046.61118	1021.2375
3049.01187	1010.0375
3051.4111	1012.9375
3053.80888	1023.1375
3056.20519	1023.8375
3058.60005	1022.5375
3060.99345	1029.8375
3063.3854	1019.9375
3065.7759	1026.5375
3068.16494	1022.4375
3070.55254	1030.2375
3072.93868	1023.9375
3075.32338	1030.2375
3077.70662	1033.3375
3080.08842	1039.7375
3082.46878	1037.4375
3084.84769	1043.5375
3087.22515	1046.5375
3089.60118	1049.4375
3091.97576	1050.5375
3094.3489	1052.4375
3096.72061	1057.4375
3099.09087	1066.8375
3101.4597	1066.8375
3103.82709	1063.3375
3106.19305	1069.3375
3108.55757	1070.4375
3110.92066	1070.6375
3113.28232	1071.3375
3115.64255	1076.1375
3118.00134	1081.8375
3120.35871	1081.1375
3122.71466	1089.2375
3125.06917	1089.8375
3127.42226	1082.1375
3129.77393	1100.1375
3132.12417	1092.1375
3134.47299	1108.3375
3136.82039	1107.6375
3139.16636	1114.8375
3141.51092	1127.1375
3143.85406	1129.8375
3146.19579	1138.6375
3148.53609	1144.8375
3150.87499	1142.3375
3153.21246	1150.9375
3155.54853	1156.1375
3157.88318	1166.2375
3160.21642	1166.2375
3162.54826	1170.7375
3164.87868	1175.9375
3167.2077	1185.8375
3169.5353	1177.3375
3171.86151	1192.3375
3174.18631	1191.8375
3176.5097	1187.7375
3178.83169	1192.8375
3181.15228	1199.8375
3183.47147	1203.3375
3185.78926	1214.0375
3188.10565	1216.7375
3190.42065	1212.6375
3192.73424	1227.1375
3195.04645	1231.4375
3197.35725	1217.2375
3199.66667	1230.1375
3201.97469	1238.1375
3204.28132	1239.2375
3206.58656	1247.1375
3208.8904	1236.3375
3211.19287	1254.2375
3213.49394	1253.8375
3215.79363	1254.0375
3218.09193	1255.5375
3220.38884	1272.6375
3222.68438	1270.8375
3224.97853	1258.6375
3227.2713	1272.0375
3229.56269	1266.0375
3231.8527	1265.7375
3234.14133	1258.6375
3236.42858	1257.8375
3238.71446	1265.2375
3240.99896	1257.3375
3243.28209	1263.3375
3245.56384	1262.2375
3247.84423	1258.4375
3250.12324	1263.8375
3252.40088	1256.1375
3254.67715	1266.9375
3256.95205	1264.6375
3259.22558	1260.5375
3261.49775	1262.4375
3263.76855	1258.1375
3266.03799	1256.2375
3268.30606	1249.0375
3270.57277	1263.5375
3272.83812	1247.0375
3275.10211	1237.5375
3277.36474	1252.8375
3279.62601	1245.9375
3281.88593	1250.5375
3284.14448	1244.7375
3286.40168	1251.9375
3288.65753	1251.1375
3290.91202	1240.0375
3293.16516	1242.6375
3295.41695	1240.8375
3297.66738	1227.3375
3299.91647	1225.2375
3302.16421	1222.0375
3304.4106	1217.5375
3306.65564	1217.8375
3308.89933	1208.2375
3311.14169	1207.3375
3313.38269	1201.2375
3315.62236	1185.5375
3317.86068	1181.7375
3320.09766	1172.7375
3322.3333	1166.3375
3324.5676	1164.3375
3326.80056	1151.4375
3329.03219	1149.2375
3331.26248	0.1375
3333.49143	0.8375
3335.71905	-0.7625
