Data from AgNPs_FTO_APTES_UA_0.1mM_CRN_50uM_NaF_0.1M_Addition_RamanShift__2__12-38-57-624.txt Node

Date: Mon Dec 20 12:38:57 GMT 2021
User: TCL
Spectrometer: QEP01345
Trigger mode: 4
Integration Time (sec): 7.000000E0
Scans to average: 10
Electric dark correction enabled: true
Nonlinearity correction enabled: false
Boxcar width: 0
XAxis mode: Raman Shifts
Number of Pixels in Spectrum: 1044
>>>>>Begin Spectral Data<<<<<
46.04893	1.425
50.45542	-0.875
54.85868	-1.275
59.25871	1.625
63.6555	29.625
68.04907	31.325
72.43941	34.925
76.82654	48.725
81.21044	42.825
85.59113	42.225
89.96862	40.325
94.34289	43.225
98.71396	41.225
103.08183	41.025
107.4465	46.925
111.80798	46.625
116.16626	45.825
120.52136	50.925
124.87327	50.825
129.222	52.425
133.56755	55.325
137.90993	58.125
142.24913	61.525
146.58517	62.425
150.91804	75.125
155.24774	87.825
159.57429	102.525
163.89768	132.025
168.21792	170.125
172.53501	220.025
176.84895	306.025
181.15975	421.525
185.46741	584.425
189.77193	801.525
194.07331	1065.225
198.37157	1385.925
202.6667	1722.625
206.9587	2058.925
211.24758	2385.825
215.53334	2712.925
219.81599	3069.425
224.09553	3435.425
228.37195	3875.125
232.64527	4343.925
236.91549	4828.625
241.18261	5304.425
245.44663	5739.825
249.70755	6107.825
253.96539	6404.625
258.22014	6652.225
262.4718	6825.925
266.72039	6927.425
270.96589	6965.825
275.20832	6932.025
279.44768	6870.325
283.68397	6764.225
287.91719	6681.825
292.14735	6614.825
296.37445	6559.625
300.59849	6534.025
304.81948	6530.725
309.03742	6523.625
313.25231	6484.325
317.46415	6409.525
321.67296	6282.625
325.87872	6197.525
330.08145	6133.825
334.28114	6106.325
338.47781	6147.325
342.67145	6177.825
346.86207	6244.525
351.04966	6313.325
355.23424	6434.925
359.4158	6507.025
363.59435	6586.825
367.76989	6683.625
371.94243	6730.325
376.11196	6797.525
380.27849	6842.125
384.44203	6919.325
388.60257	6985.625
392.76012	7055.525
396.91468	7104.425
401.06626	7167.425
405.21485	7214.125
409.36047	7234.625
413.50311	7170.225
417.64277	7111.625
421.77947	7076.225
425.9132	7088.425
430.04396	7105.525
434.17176	7137.225
438.2966	7168.925
442.41849	7233.925
446.53742	7309.025
450.6534	7406.625
454.76644	7446.325
458.87653	7507.125
462.98368	7519.025
467.08789	7510.825
471.18916	7513.525
475.2875	7518.825
479.38291	7565.525
483.4754	7647.225
487.56496	7747.925
491.6516	7904.925
495.73531	7993.225
499.81612	8007.025
503.89401	7972.925
507.96899	7885.425
512.04106	7779.025
516.11023	7770.025
520.1765	7774.625
524.23987	7781.325
528.30034	7836.025
532.35792	7850.925
536.41261	7808.725
540.46441	7735.825
544.51333	7657.925
548.55936	7587.925
552.60252	7586.925
556.64279	7621.225
560.6802	7592.925
564.71473	7591.125
568.7464	7658.225
572.7752	7702.625
576.80114	7738.025
580.82422	7798.525
584.84444	7935.325
588.86181	8071.525
592.87633	8163.525
596.888	8164.425
600.89682	8099.425
604.9028	8163.325
608.90594	8555.125
612.90624	9153.625
616.90371	9161.525
620.89834	8647.325
624.89015	8630.125
628.87913	9082.425
632.86528	9662.225
636.84862	10080.225
640.82913	10063.925
644.80683	9679.125
648.78172	9165.225
652.75379	8715.425
656.72306	8381.025
660.68952	8229.825
664.65319	8064.425
668.61405	7890.025
672.57211	7820.425
676.52738	7856.725
680.47986	7868.925
684.42955	7855.025
688.37646	7808.125
692.32058	7741.425
696.26192	7720.825
700.20048	7700.525
704.13626	7684.725
708.06928	7664.225
711.99952	7643.725
715.927	7631.025
719.85171	7701.825
723.77365	7778.825
727.69284	7818.025
731.60928	7766.225
735.52295	7688.425
739.43388	7615.525
743.34206	7604.225
747.24749	7581.725
751.15017	7586.525
755.05012	7617.725
758.94733	7690.925
762.8418	7851.725
766.73354	8146.925
770.62254	8400.725
774.50882	8511.425
778.39237	8337.125
782.27321	8042.525
786.15132	7762.425
790.02671	7590.425
793.89938	7518.625
797.76935	7513.125
801.6366	7589.825
805.50115	7774.925
809.36299	8000.225
813.22213	8169.825
817.07857	8131.825
820.93231	7938.925
824.78336	7714.425
828.63172	7521.925
832.47738	7396.925
836.32036	7341.425
840.16066	7311.425
843.99827	7283.225
847.8332	7287.625
851.66546	7286.725
855.49504	7292.425
859.32195	7305.425
863.1462	7321.425
866.96777	7378.225
870.78668	7476.625
874.60293	7618.225
878.41652	7759.925
882.22745	7910.825
886.03573	8049.325
889.84136	8112.825
893.64433	8028.525
897.44466	7829.525
901.24235	7611.025
905.0374	7395.525
908.8298	7262.925
912.61957	7198.825
916.40671	7155.125
920.19121	7134.625
923.97308	7130.825
927.75233	7114.925
931.52895	7108.725
935.30295	7080.525
939.07433	7019.025
942.84309	6972.125
946.60924	6934.025
950.37278	6932.225
954.13371	6907.625
957.89203	6900.325
961.64774	6895.725
965.40086	6862.425
969.15137	6842.025
972.89929	6821.425
976.64461	6823.425
980.38733	6805.825
984.12747	6819.025
987.86502	6844.625
991.59999	6865.525
995.33237	6900.825
999.06217	6987.025
1002.78939	7071.425
1006.51404	7160.025
1010.23611	7262.225
1013.95561	7340.325
1017.67255	7369.125
1021.38692	7361.425
1025.09872	7297.725
1028.80796	7234.825
1032.51465	7169.925
1036.21877	7129.425
1039.92035	7051.225
1043.61937	7052.525
1047.31584	7004.225
1051.00976	6989.725
1054.70114	7025.225
1058.38998	7033.525
1062.07627	7097.125
1065.76003	7180.925
1069.44126	7236.125
1073.11995	7326.825
1076.79611	7378.825
1080.46974	7386.325
1084.14085	7338.625
1087.80943	7294.325
1091.47549	7248.825
1095.13903	7217.425
1098.80005	7148.425
1102.45857	7084.425
1106.11456	7075.525
1109.76805	7088.925
1113.41903	7213.525
1117.06751	7450.125
1120.71348	7816.125
1124.35696	8280.625
1127.99793	8850.225
1131.63641	9328.025
1135.2724	9540.325
1138.90589	9456.725
1142.5369	9149.425
1146.16542	8709.625
1149.79145	8267.525
1153.415	7881.125
1157.03607	7541.525
1160.65467	7362.125
1164.27079	7307.225
1167.88443	7337.725
1171.49561	7458.625
1175.10432	7678.225
1178.71056	7985.525
1182.31434	8281.225
1185.91565	8423.225
1189.51451	8471.625
1193.11091	8506.325
1196.70485	8506.925
1200.29634	8564.325
1203.88538	8572.625
1207.47197	8470.325
1211.05612	8339.325
1214.63782	8151.425
1218.21708	7960.325
1221.79391	7751.825
1225.36829	7587.425
1228.94024	7487.325
1232.50976	7430.925
1236.07685	7378.525
1239.6415	7354.225
1243.20374	7356.825
1246.76355	7416.425
1250.32093	7478.225
1253.8759	7541.825
1257.42845	7650.725
1260.97859	7743.125
1264.52631	7816.325
1268.07163	7878.025
1271.61453	7932.825
1275.15503	7949.125
1278.69312	7985.725
1282.22882	7978.925
1285.76211	8010.225
1289.29301	8076.125
1292.82151	8167.725
1296.34761	8306.125
1299.87133	8485.725
1303.39266	8758.325
1306.9116	8998.025
1310.42815	9285.425
1313.94233	9506.625
1317.45412	9510.125
1320.96354	9414.025
1324.47058	9275.125
1327.97525	9145.025
1331.47754	9026.525
1334.97747	9012.625
1338.47502	9029.325
1341.97022	9132.025
1345.46305	9278.625
1348.95352	9456.325
1352.44163	9656.925
1355.92738	9931.125
1359.41078	10332.425
1362.89183	10709.325
1366.37053	10730.725
1369.84688	10166.325
1373.32088	9535.125
1376.79254	9062.525
1380.26186	8778.025
1383.72883	8595.025
1387.19347	8459.625
1390.65578	8286.125
1394.11575	8136.625
1397.57339	8032.025
1401.0287	7923.325
1404.48168	7844.725
1407.93234	7745.325
1411.38068	7628.625
1414.82669	7485.025
1418.27039	7338.525
1421.71177	7206.825
1425.15083	7078.625
1428.58758	7008.725
1432.02203	6979.125
1435.45416	6969.525
1438.88399	7014.625
1442.31151	7017.425
1445.73673	7014.025
1449.15965	7038.225
1452.58027	7043.425
1455.9986	7045.225
1459.41463	7072.425
1462.82837	7105.425
1466.23982	7155.925
1469.64898	7225.125
1473.05586	7249.625
1476.46045	7312.025
1479.86276	7321.825
1483.26279	7363.925
1486.66054	7429.425
1490.05602	7524.525
1493.44922	7649.925
1496.84016	7870.125
1500.22882	8156.725
1503.61521	8496.025
1506.99934	8859.825
1510.38121	9141.225
1513.76081	9232.925
1517.13816	9002.925
1520.51324	8636.025
1523.88607	8271.825
1527.25665	8066.925
1530.62498	7971.125
1533.99105	7990.125
1537.35488	7983.425
1540.71647	7986.225
1544.07581	7994.525
1547.4329	8001.225
1550.78776	7989.225
1554.14038	7973.525
1557.49077	7975.925
1560.83892	7997.725
1564.18484	8039.025
1567.52853	8086.325
1570.86999	8149.225
1574.20922	8192.125
1577.54624	8192.225
1580.88103	8130.025
1584.2136	7989.325
1587.54395	7902.425
1590.87208	7919.325
1594.19801	8001.925
1597.52172	8141.325
1600.84321	8236.825
1604.16251	8137.325
1607.47959	8002.525
1610.79447	7849.425
1614.10715	7688.825
1617.41763	7541.725
1620.7259	7475.325
1624.03199	7437.425
1627.33587	7493.625
1630.63757	7576.125
1633.93707	7739.725
1637.23439	8017.425
1640.52951	8351.125
1643.82246	8817.925
1647.11321	9268.125
1650.40179	9515.525
1653.68819	9385.325
1656.97241	8951.925
1660.25446	8440.325
1663.53433	8033.025
1666.81203	7760.725
1670.08756	7560.325
1673.36092	7473.825
1676.63211	7384.325
1679.90115	7343.625
1683.16801	7288.525
1686.43272	7215.025
1689.69527	7086.725
1692.95567	6978.725
1696.2139	6880.525
1699.46999	6797.225
1702.72392	6664.925
1705.97571	6538.725
1709.22535	6383.125
1712.47284	6231.025
1715.71819	6142.125
1718.96139	6021.425
1722.20246	5958.025
1725.44139	5872.925
1728.67818	5812.225
1731.91284	5744.125
1735.14537	5679.425
1738.37576	5644.125
1741.60403	5616.425
1744.83017	5578.325
1748.05418	5583.225
1751.27607	5561.025
1754.49584	5553.025
1757.71349	5547.425
1760.92903	5529.425
1764.14244	5515.225
1767.35375	5510.625
1770.56294	5489.125
1773.77002	5491.125
1776.97499	5482.125
1780.17785	5443.825
1783.37861	5434.825
1786.57727	5424.225
1789.77382	5398.825
1792.96828	5377.825
1796.16064	5375.725
1799.3509	5357.325
1802.53907	5357.625
1805.72514	5322.325
1808.90913	5298.925
1812.09102	5288.825
1815.27083	5308.925
1818.44856	5266.125
1821.6242	5265.025
1824.79776	5235.225
1827.96924	5242.725
1831.13864	5236.225
1834.30597	5248.325
1837.47122	5231.825
1840.6344	5219.325
1843.7955	5208.825
1846.95454	5210.525
1850.11151	5200.225
1853.26642	5192.025
1856.41926	5194.225
1859.57004	5180.425
1862.71876	5185.825
1865.86542	5187.425
1869.01003	5169.425
1872.15258	5153.525
1875.29308	5149.925
1878.43152	5150.325
1881.56792	5138.325
1884.70227	5131.025
1887.83457	5123.625
1890.96482	5113.025
1894.09304	5090.125
1897.21921	5098.925
1900.34335	5086.025
1903.46544	5064.325
1906.58551	5077.925
1909.70353	5073.425
1912.81953	5041.825
1915.93349	5037.925
1919.04543	5034.325
1922.15534	5042.125
1925.26322	5034.025
1928.36908	5000.025
1931.47292	4993.625
1934.57473	4989.725
1937.67453	4984.625
1940.77232	4953.125
1943.86808	4959.925
1946.96184	4939.625
1950.05358	4936.825
1953.14331	4915.525
1956.23103	4890.525
1959.31675	4885.625
1962.40046	4866.125
1965.48217	4861.425
1968.56188	4844.725
1971.63959	4821.625
1974.7153	4814.125
1977.78901	4787.925
1980.86073	4784.525
1983.93046	4778.625
1986.99819	4755.125
1990.06394	4722.425
1993.1277	4729.025
1996.18947	4713.225
1999.24925	4705.325
2002.30706	4700.625
2005.36288	4670.325
2008.41672	4657.625
2011.46859	4647.825
2014.51848	4621.525
2017.56639	4620.425
2020.61233	4592.725
2023.6563	4589.425
2026.6983	4583.025
2029.73833	4581.825
2032.7764	4573.725
2035.8125	4544.725
2038.84664	4533.125
2041.87881	4536.925
2044.90903	4514.625
2047.93729	4503.725
2050.96359	4517.525
2053.98794	4511.325
2057.01034	4504.425
2060.03078	4496.125
2063.04927	4488.325
2066.06582	4479.625
2069.08042	4466.225
2072.09307	4465.325
2075.10378	4462.325
2078.11255	4466.425
2081.11938	4472.325
2084.12426	4463.525
2087.12722	4464.625
2090.12824	4459.725
2093.12732	4467.725
2096.12447	4475.325
2099.11969	4451.125
2102.11299	4459.125
2105.10435	4465.125
2108.09379	4449.525
2111.08131	4447.825
2114.0669	4456.725
2117.05057	4470.525
2120.03233	4480.025
2123.01216	4466.025
2125.99008	4472.225
2128.96609	4484.625
2131.94018	4477.925
2134.91236	4490.025
2137.88263	4497.625
2140.851	4495.125
2143.81746	4505.725
2146.78201	4498.125
2149.74466	4498.225
2152.7054	4490.625
2155.66425	4479.925
2158.6212	4489.125
2161.57625	4488.325
2164.52941	4473.725
2167.48067	4481.725
2170.43004	4476.225
2173.37752	4471.525
2176.32311	4472.225
2179.26681	4473.225
2182.20863	4471.025
2185.14856	4466.425
2188.08661	4460.425
2191.02278	4459.725
2193.95707	4460.425
2196.88948	4455.025
2199.82001	4444.825
2202.74867	4433.125
2205.67545	4432.925
2208.60037	4422.625
2211.52341	4404.525
2214.44458	4402.725
2217.36388	4401.525
2220.28132	4407.725
2223.1969	4370.825
2226.11061	4366.825
2229.02246	4353.125
2231.93245	4360.125
2234.84058	4346.025
2237.74686	4338.625
2240.65128	4338.125
2243.55385	4328.325
2246.45456	4325.525
2249.35343	4304.225
2252.25044	4309.625
2255.14561	4307.625
2258.03893	4312.325
2260.93041	4312.925
2263.82004	4293.425
2266.70783	4294.625
2269.59378	4258.025
2272.4779	4250.625
2275.36017	4240.225
2278.24061	4235.125
2281.11922	4212.325
2283.996	4219.225
2286.87094	4226.225
2289.74405	4205.425
2292.61534	4187.825
2295.4848	4186.325
2298.35243	4177.525
2301.21824	4167.025
2304.08223	4179.225
2306.94439	4164.325
2309.80474	4170.725
2312.66327	4177.025
2315.51999	4168.425
2318.37489	4152.925
2321.22797	4149.125
2324.07925	4144.525
2326.92871	4129.025
2329.77637	4126.325
2332.62222	4118.325
2335.46626	4109.125
2338.3085	4115.625
2341.14893	4103.025
2343.98756	4093.825
2346.8244	4092.025
2349.65943	4071.625
2352.49267	4097.725
2355.32411	4090.525
2358.15376	4083.325
2360.98161	4077.225
2363.80768	4085.825
2366.63195	4074.625
2369.45444	4064.925
2372.27514	4057.225
2375.09405	4047.025
2377.91118	4047.325
2380.72652	4038.625
2383.54009	4034.125
2386.35187	4027.425
2389.16188	4017.725
2391.97011	4029.825
2394.77657	3996.325
2397.58125	4000.425
2400.38416	3976.225
2403.18529	3981.625
2405.98466	3973.225
2408.78226	3961.725
2411.57809	3965.025
2414.37216	3962.625
2417.16446	3954.225
2419.955	3943.225
2422.74378	3938.925
2425.5308	3921.625
2428.31606	3921.925
2431.09956	3913.025
2433.88131	3902.525
2436.6613	3926.025
2439.43954	3918.125
2442.21603	3903.325
2444.99077	3900.725
2447.76377	3896.825
2450.53501	3901.225
2453.30451	3902.925
2456.07226	3894.025
2458.83827	3882.525
2461.60254	3884.525
2464.36507	3880.625
2467.12586	3865.825
2469.88492	3862.525
2472.64224	3881.525
2475.39782	3865.725
2478.15167	3864.325
2480.90379	3858.725
2483.65417	3862.225
2486.40283	3857.325
2489.14976	3847.225
2491.89497	3844.925
2494.63845	3849.525
2497.3802	3850.625
2500.12024	3835.725
2502.85855	3839.525
2505.59514	3823.725
2508.33002	3815.925
2511.06318	3816.025
2513.79462	3807.025
2516.52435	3795.325
2519.25237	3795.325
2521.97867	3791.525
2524.70327	3801.825
2527.42616	3786.325
2530.14734	3774.225
2532.86681	3770.325
2535.58458	3767.725
2538.30065	3749.825
2541.01501	3749.325
2543.72768	3751.325
2546.43864	3749.225
2549.14791	3731.925
2551.85548	3728.625
2554.56136	3720.025
2557.26554	3711.125
2559.96803	3725.825
2562.66883	3684.025
2565.36794	3681.925
2568.06536	3696.425
2570.7611	3683.525
2573.45514	3670.425
2576.14751	3685.525
2578.83819	3680.925
2581.52719	3674.525
2584.21451	3655.525
2586.90015	3634.525
2589.58411	3626.725
2592.2664	3640.125
2594.94701	3614.125
2597.62594	3621.125
2600.30321	3606.525
2602.9788	3601.625
2605.65273	3596.425
2608.32498	3583.925
2610.99557	3587.725
2613.66449	3567.425
2616.33175	3574.125
2618.99734	3577.925
2621.66128	3572.825
2624.32355	3552.025
2626.98416	3570.925
2629.64311	3546.625
2632.30041	3556.325
2634.95605	3545.725
2637.61004	3556.325
2640.26238	3539.825
2642.91306	3543.725
2645.56209	3537.625
2648.20948	3541.025
2650.85521	3522.825
2653.4993	3536.825
2656.14175	3525.525
2658.78255	3517.225
2661.42171	3522.725
2664.05923	3527.325
2666.6951	3508.325
2669.32934	3519.525
2671.96194	3511.525
2674.59291	3511.825
2677.22224	3509.225
2679.84993	3520.425
2682.476	3521.325
2685.10043	3525.125
2687.72324	3513.225
2690.34441	3517.625
2692.96396	3505.425
2695.58188	3507.325
2698.19818	3507.125
2700.81285	3515.525
2703.4259	3527.425
2706.03733	3556.925
2708.64714	3543.925
2711.25533	3521.925
2713.86191	3518.025
2716.46687	3527.125
2719.07021	3528.725
2721.67194	3519.925
2724.27206	3515.725
2726.87057	3517.325
2729.46747	3510.425
2732.06276	3532.625
2734.65644	3508.425
2737.24852	3510.725
2739.83899	3515.325
2742.42786	3507.025
2745.01513	3492.025
2747.60079	3490.625
2750.18486	3504.625
2752.76733	3476.925
2755.3482	3483.325
2757.92747	3484.425
2760.50515	3466.125
2763.08123	3477.325
2765.65573	3476.825
2768.22863	3470.725
2770.79994	3469.525
2773.36967	3464.425
2775.9378	3445.525
2778.50435	3436.925
2781.06932	3442.025
2783.6327	3421.425
2786.1945	3425.525
2788.75471	3418.825
2791.31335	3413.925
2793.87041	3399.925
2796.42589	3399.225
2798.97979	3409.425
2801.53212	3384.125
2804.08288	3385.525
2806.63206	3378.825
2809.17967	3367.325
2811.72571	3361.725
2814.27018	3374.125
2816.81308	3355.425
2819.35442	3356.425
2821.89419	3337.325
2824.43239	3340.225
2826.96904	3338.125
2829.50412	3340.325
2832.03763	3320.325
2834.56959	3325.325
2837.1	3336.725
2839.62884	3318.925
2842.15613	3324.025
2844.68186	3320.025
2847.20604	3320.325
2849.72867	3323.225
2852.24974	3332.625
2854.76927	3330.425
2857.28724	3326.325
2859.80367	3311.525
2862.31855	3316.025
2864.83189	3313.425
2867.34368	3312.625
2869.85393	3305.425
2872.36264	3306.225
2874.8698	3314.225
2877.37543	3305.325
2879.87952	3299.525
2882.38207	3309.825
2884.88308	3305.125
2887.38256	3309.825
2889.88051	3309.425
2892.37692	3311.425
2894.8718	3307.325
2897.36515	3303.925
2899.85698	3314.225
2902.34727	3323.025
2904.83604	3308.925
2907.32328	3325.625
2909.809	3321.325
2912.29319	3319.725
2914.77587	3314.925
2917.25702	3315.125
2919.73665	3313.025
2922.21476	3315.625
2924.69136	3314.525
2927.16644	3322.225
2929.64	3322.025
2932.11205	3312.525
2934.58258	3301.125
2937.05161	3322.725
2939.51912	3312.925
2941.98513	3307.825
2944.44962	3309.125
2946.91261	3289.325
2949.37409	3315.025
2951.83407	3298.625
2954.29254	3302.225
2956.74951	3299.825
2959.20498	3289.425
2961.65895	3285.725
2964.11142	3290.125
2966.56239	3280.625
2969.01186	3285.225
2971.45984	3278.425
2973.90632	3263.525
2976.35131	3259.725
2978.7948	3264.025
2981.23681	3251.625
2983.67732	3232.525
2986.11635	3255.325
2988.55388	3234.725
2990.98993	3241.025
2993.4245	3237.025
2995.85758	3229.225
2998.28917	3227.125
3000.71928	3227.525
3003.14791	3237.825
3005.57506	3227.625
3008.00073	3223.725
3010.42493	3216.825
3012.84764	3214.625
3015.26888	3215.625
3017.68865	3213.625
3020.10694	3197.225
3022.52376	3204.325
3024.9391	3202.825
3027.35298	3203.125
3029.76539	3208.325
3032.17632	3206.725
3034.5858	3198.325
3036.9938	3201.525
3039.40034	3203.325
3041.80542	3192.125
3044.20903	3186.425
3046.61118	3205.925
3049.01187	3191.325
3051.4111	3184.525
3053.80888	3190.625
3056.20519	3182.725
3058.60005	3181.125
3060.99345	3194.625
3063.3854	3179.725
3065.7759	3164.525
3068.16494	3173.625
3070.55254	3167.425
3072.93868	3166.825
3075.32338	3173.125
3077.70662	3173.625
3080.08842	3175.825
3082.46878	3178.825
3084.84769	3164.125
3087.22515	3176.125
3089.60118	3183.525
3091.97576	3189.225
3094.3489	3189.825
3096.72061	3199.025
3099.09087	3204.525
3101.4597	3204.425
3103.82709	3198.925
3106.19305	3206.125
3108.55757	3213.825
3110.92066	3205.925
3113.28232	3202.325
3115.64255	3199.925
3118.00134	3206.025
3120.35871	3192.525
3122.71466	3207.625
3125.06917	3199.925
3127.42226	3193.125
3129.77393	3211.725
3132.12417	3214.025
3134.47299	3223.425
3136.82039	3225.325
3139.16636	3225.425
3141.51092	3233.725
3143.85406	3230.825
3146.19579	3251.125
3148.53609	3269.125
3150.87499	3279.525
3153.21246	3288.725
3155.54853	3300.425
3157.88318	3293.025
3160.21642	3305.525
3162.54826	3304.825
3164.87868	3295.725
3167.2077	3295.025
3169.5353	3315.825
3171.86151	3310.025
3174.18631	3327.925
3176.5097	3320.625
3178.83169	3317.825
3181.15228	3328.125
3183.47147	3329.025
3185.78926	3320.325
3188.10565	3335.225
3190.42065	3334.925
3192.73424	3335.225
3195.04645	3356.325
3197.35725	3329.525
3199.66667	3342.325
3201.97469	3363.925
3204.28132	3365.725
3206.58656	3364.425
3208.8904	3375.125
3211.19287	3368.525
3213.49394	3377.025
3215.79363	3383.025
3218.09193	3395.425
3220.38884	3394.125
3222.68438	3406.125
3224.97853	3387.225
3227.2713	3380.225
3229.56269	3372.425
3231.8527	3389.725
3234.14133	3377.925
3236.42858	3368.125
3238.71446	3367.825
3240.99896	3354.825
3243.28209	3358.525
3245.56384	3369.125
3247.84423	3362.925
3250.12324	3363.525
3252.40088	3359.225
3254.67715	3367.625
3256.95205	3346.925
3259.22558	3355.925
3261.49775	3358.525
3263.76855	3354.025
3266.03799	3327.025
3268.30606	3339.225
3270.57277	3333.825
3272.83812	3325.825
3275.10211	3328.925
3277.36474	3319.125
3279.62601	3318.925
3281.88593	3322.825
3284.14448	3325.925
3286.40168	3327.825
3288.65753	3318.425
3290.91202	3300.625
3293.16516	3282.025
3295.41695	3284.625
3297.66738	3267.125
3299.91647	3248.425
3302.16421	3244.325
3304.4106	3233.525
3306.65564	3219.025
3308.89933	3203.325
3311.14169	3180.425
3313.38269	3158.425
3315.62236	3142.225
3317.86068	3112.325
3320.09766	3082.125
3322.3333	3072.225
3324.5676	3079.525
3326.80056	3028.525
3329.03219	3008.125
3331.26248	0.925
3333.49143	-0.775
3335.71905	-0.575
