Data from AgNPs_FTO_APTES_UA_0.1mM_CRN_1000uM_NaF_0.1M_Addition_RamanShift__3__15-17-37-802.txt Node

Date: Mon Dec 20 15:17:37 GMT 2021
User: TCL
Spectrometer: QEP01345
Trigger mode: 4
Integration Time (sec): 7.000000E0
Scans to average: 10
Electric dark correction enabled: true
Nonlinearity correction enabled: false
Boxcar width: 0
XAxis mode: Raman Shifts
Number of Pixels in Spectrum: 1044
>>>>>Begin Spectral Data<<<<<
46.04893	0.7
50.45542	-0.3
54.85868	-1.6
59.25871	0.4
63.6555	23.1
68.04907	25.2
72.43941	29.7
76.82654	28.2
81.21044	29.4
85.59113	34.3
89.96862	30.8
94.34289	32.6
98.71396	33.4
103.08183	33.6
107.4465	39.5
111.80798	39.6
116.16626	38.7
120.52136	38.4
124.87327	39.9
129.222	38.7
133.56755	39.9
137.90993	45.1
142.24913	44.4
146.58517	46.4
150.91804	54.3
155.24774	62.3
159.57429	67.7
163.89768	85.6
168.21792	110
172.53501	130.8
176.84895	183.8
181.15975	256.1
185.46741	347
189.77193	474.6
194.07331	634.2
198.37157	820.4
202.6667	1017.5
206.9587	1221.5
211.24758	1415.1
215.53334	1638.4
219.81599	1862.7
224.09553	2087.5
228.37195	2354.9
232.64527	2643.8
236.91549	2937.7
241.18261	3204.3
245.44663	3450.5
249.70755	3639.1
253.96539	3787.8
258.22014	3883.8
262.4718	3939.7
266.72039	3964
270.96589	3952.8
275.20832	3912.5
279.44768	3854.4
283.68397	3809.1
287.91719	3718.8
292.14735	3676.1
296.37445	3622.5
300.59849	3600.1
304.81948	3566.5
309.03742	3530.6
313.25231	3501.2
317.46415	3466
321.67296	3419.6
325.87872	3378.6
330.08145	3362.9
334.28114	3360.3
338.47781	3354.2
342.67145	3376.3
346.86207	3397
351.04966	3425.4
355.23424	3462.5
359.4158	3497.9
363.59435	3540.2
367.76989	3573.3
371.94243	3623
376.11196	3671.1
380.27849	3706.8
384.44203	3757.4
388.60257	3795.3
392.76012	3823.1
396.91468	3857.9
401.06626	3891.7
405.21485	3904.5
409.36047	3914.7
413.50311	3916.9
417.64277	3891.8
421.77947	3894.5
425.9132	3889.8
430.04396	3891.5
434.17176	3906.8
438.2966	3923.4
442.41849	3945.1
446.53742	3966.4
450.6534	4014.2
454.76644	4035.5
458.87653	4067.7
462.98368	4080.4
467.08789	4086.9
471.18916	4101.3
475.2875	4140.2
479.38291	4165
483.4754	4244.6
487.56496	4355.3
491.6516	4475.5
495.73531	4603.3
499.81612	4608.6
503.89401	4560.1
507.96899	4460.3
512.04106	4378.2
516.11023	4356.6
520.1765	4368.9
524.23987	4406.8
528.30034	4443.5
532.35792	4470.8
536.41261	4448.6
540.46441	4399.1
544.51333	4313
548.55936	4244.2
552.60252	4174.6
556.64279	4156.8
560.6802	4146
564.71473	4138.6
568.7464	4158.4
572.7752	4186
576.80114	4221.4
580.82422	4268.5
584.84444	4362.1
588.86181	4468.1
592.87633	4526.3
596.888	4500.4
600.89682	4456.6
604.9028	4449.5
608.90594	4563.5
612.90624	4749.4
616.90371	4834.1
620.89834	4868.1
624.89015	5119.8
628.87913	5571.6
632.86528	6051.3
636.84862	6400.4
640.82913	6426.4
644.80683	6097.6
648.78172	5677
652.75379	5273
656.72306	4971.5
660.68952	4781.2
664.65319	4649.9
668.61405	4577.7
672.57211	4547.5
676.52738	4566.6
680.47986	4591.9
684.42955	4583.3
688.37646	4542.3
692.32058	4488.1
696.26192	4426.2
700.20048	4362.6
704.13626	4364.8
708.06928	4341.1
711.99952	4325.6
715.927	4312.2
719.85171	4375.8
723.77365	4435.8
727.69284	4488.7
731.60928	4480.8
735.52295	4391.1
739.43388	4314.7
743.34206	4275.6
747.24749	4263.7
751.15017	4269.9
755.05012	4275
758.94733	4286.1
762.8418	4324.7
766.73354	4402.8
770.62254	4436.3
774.50882	4439.4
778.39237	4386.8
782.27321	4301.9
786.15132	4229.9
790.02671	4194.2
793.89938	4213
797.76935	4220
801.6366	4301.2
805.50115	4435.5
809.36299	4655.6
813.22213	4778.7
817.07857	4773.8
820.93231	4619.7
824.78336	4416.8
828.63172	4224.1
832.47738	4096.8
836.32036	4054.3
840.16066	4043.7
843.99827	4020
847.8332	4025.3
851.66546	4012.5
855.49504	4026.5
859.32195	4029.7
863.1462	4054.3
866.96777	4113
870.78668	4182.2
874.60293	4292.4
878.41652	4419.8
882.22745	4561.6
886.03573	4680.6
889.84136	4717
893.64433	4661.1
897.44466	4500.9
901.24235	4302.3
905.0374	4117
908.8298	3994.4
912.61957	3934.2
916.40671	3888.6
920.19121	3871.4
923.97308	3867.5
927.75233	3852.3
931.52895	3848.5
935.30295	3833.9
939.07433	3835.5
942.84309	3814.1
946.60924	3801.7
950.37278	3770.6
954.13371	3772.2
957.89203	3765.8
961.64774	3768.4
965.40086	3737.6
969.15137	3728.2
972.89929	3731.4
976.64461	3717.4
980.38733	3697.9
984.12747	3695.6
987.86502	3715
991.59999	3735.9
995.33237	3754.1
999.06217	3792.6
1002.78939	3853.1
1006.51404	3922.7
1010.23611	3984.1
1013.95561	4039.9
1017.67255	4058.7
1021.38692	4065.7
1025.09872	4028.9
1028.80796	3979.5
1032.51465	3930.3
1036.21877	3867
1039.92035	3824.9
1043.61937	3783.4
1047.31584	3773.8
1051.00976	3786.1
1054.70114	3780.7
1058.38998	3811
1062.07627	3856.5
1065.76003	3916.5
1069.44126	3982.9
1073.11995	4036.2
1076.79611	4073.9
1080.46974	4051.3
1084.14085	3965.4
1087.80943	3898.1
1091.47549	3835.6
1095.13903	3790.1
1098.80005	3767.1
1102.45857	3760.4
1106.11456	3764.1
1109.76805	3791.7
1113.41903	3898.4
1117.06751	4080.7
1120.71348	4340.1
1124.35696	4743.4
1127.99793	5190.1
1131.63641	5603.1
1135.2724	5819.3
1138.90589	5793
1142.5369	5555.5
1146.16542	5181.9
1149.79145	4767.5
1153.415	4410.4
1157.03607	4141.4
1160.65467	3968.7
1164.27079	3858.9
1167.88443	3817.8
1171.49561	3833.1
1175.10432	3867.8
1178.71056	3963.5
1182.31434	4023
1185.91565	4089.1
1189.51451	4157.9
1193.11091	4238.9
1196.70485	4333.7
1200.29634	4438.7
1203.88538	4533.7
1207.47197	4548.5
1211.05612	4493.3
1214.63782	4371.1
1218.21708	4241.1
1221.79391	4087.7
1225.36829	3957.6
1228.94024	3883.5
1232.50976	3814.6
1236.07685	3795.7
1239.6415	3787.7
1243.20374	3800.9
1246.76355	3849.8
1250.32093	3886
1253.8759	3910.9
1257.42845	3954.1
1260.97859	3981.6
1264.52631	3987.4
1268.07163	4001.5
1271.61453	3993
1275.15503	3981.5
1278.69312	3957.9
1282.22882	3915.3
1285.76211	3898.7
1289.29301	3879.9
1292.82151	3895.1
1296.34761	3925.7
1299.87133	3969.8
1303.39266	4018.6
1306.9116	4098.9
1310.42815	4191.2
1313.94233	4265.1
1317.45412	4305.8
1320.96354	4318.3
1324.47058	4321.6
1327.97525	4329.8
1331.47754	4342.7
1334.97747	4362.1
1338.47502	4435.1
1341.97022	4500.4
1345.46305	4572.7
1348.95352	4650
1352.44163	4756.2
1355.92738	4874
1359.41078	5012.2
1362.89183	5120.4
1366.37053	5144.5
1369.84688	5026.1
1373.32088	4866
1376.79254	4713.5
1380.26186	4595
1383.72883	4493.1
1387.19347	4389.5
1390.65578	4289.3
1394.11575	4193.2
1397.57339	4111.5
1401.0287	4032.3
1404.48168	3983.8
1407.93234	3902.3
1411.38068	3840
1414.82669	3760.4
1418.27039	3682.3
1421.71177	3609.4
1425.15083	3544.3
1428.58758	3486.2
1432.02203	3444
1435.45416	3405.7
1438.88399	3391.6
1442.31151	3384.5
1445.73673	3375.6
1449.15965	3367.7
1452.58027	3381.8
1455.9986	3357.4
1459.41463	3370.7
1462.82837	3379.4
1466.23982	3394.6
1469.64898	3422.7
1473.05586	3426.6
1476.46045	3440.1
1479.86276	3465.3
1483.26279	3474.2
1486.66054	3499.6
1490.05602	3527
1493.44922	3598.6
1496.84016	3648.9
1500.22882	3727.4
1503.61521	3839.1
1506.99934	3931.8
1510.38121	4025.4
1513.76081	4024
1517.13816	3971.6
1520.51324	3873.2
1523.88607	3783.4
1527.25665	3753.7
1530.62498	3749.4
1533.99105	3777.6
1537.35488	3800.2
1540.71647	3838.5
1544.07581	3885.2
1547.4329	3919.4
1550.78776	3957.2
1554.14038	3957.7
1557.49077	3998.4
1560.83892	4000.3
1564.18484	3990.2
1567.52853	4008
1570.86999	4024.6
1574.20922	4029.6
1577.54624	4070.4
1580.88103	4061.3
1584.2136	3999.8
1587.54395	3962.3
1590.87208	3912.9
1594.19801	3861.9
1597.52172	3876.1
1600.84321	3904.3
1604.16251	3891.7
1607.47959	3888.2
1610.79447	3877.9
1614.10715	3868
1617.41763	3872.7
1620.7259	3862.3
1624.03199	3880.8
1627.33587	3897
1630.63757	3938.5
1633.93707	4004.4
1637.23439	4104.7
1640.52951	4206.7
1643.82246	4329.3
1647.11321	4486.9
1650.40179	4606.6
1653.68819	4605.3
1656.97241	4543.2
1660.25446	4462.9
1663.53433	4389.1
1666.81203	4311.9
1670.08756	4287.4
1673.36092	4268.1
1676.63211	4253.2
1679.90115	4263.2
1683.16801	4241.7
1686.43272	4209.4
1689.69527	4133.7
1692.95567	4064.1
1696.2139	3978.9
1699.46999	3891.9
1702.72392	3777.4
1705.97571	3632.6
1709.22535	3478.4
1712.47284	3337.5
1715.71819	3242.9
1718.96139	3149.8
1722.20246	3067.8
1725.44139	3020.1
1728.67818	2972.5
1731.91284	2927.3
1735.14537	2880.2
1738.37576	2857.3
1741.60403	2827.4
1744.83017	2799.6
1748.05418	2794.9
1751.27607	2772.8
1754.49584	2774.8
1757.71349	2797.7
1760.92903	2782.3
1764.14244	2760.4
1767.35375	2758.1
1770.56294	2743.4
1773.77002	2721.4
1776.97499	2693.4
1780.17785	2676.4
1783.37861	2658.5
1786.57727	2645.3
1789.77382	2617.6
1792.96828	2610.8
1796.16064	2600.5
1799.3509	2582.6
1802.53907	2564.6
1805.72514	2567.1
1808.90913	2552.9
1812.09102	2546.4
1815.27083	2542
1818.44856	2528.8
1821.6242	2515.9
1824.79776	2507
1827.96924	2509.7
1831.13864	2497.7
1834.30597	2495.8
1837.47122	2493.6
1840.6344	2491.3
1843.7955	2486.6
1846.95454	2486.2
1850.11151	2488.1
1853.26642	2463.4
1856.41926	2470.3
1859.57004	2468.2
1862.71876	2465.7
1865.86542	2453.9
1869.01003	2448
1872.15258	2445.1
1875.29308	2435.8
1878.43152	2438.2
1881.56792	2425.8
1884.70227	2422.4
1887.83457	2408.5
1890.96482	2406.4
1894.09304	2401.6
1897.21921	2397.1
1900.34335	2399.1
1903.46544	2392.7
1906.58551	2390.8
1909.70353	2393.4
1912.81953	2371.5
1915.93349	2378.9
1919.04543	2365.6
1922.15534	2357.2
1925.26322	2358.4
1928.36908	2351.7
1931.47292	2350.6
1934.57473	2339.4
1937.67453	2338.7
1940.77232	2321
1943.86808	2313.8
1946.96184	2303.9
1950.05358	2309.1
1953.14331	2300.6
1956.23103	2276.2
1959.31675	2278.9
1962.40046	2263.9
1965.48217	2258.4
1968.56188	2257.3
1971.63959	2243.7
1974.7153	2257.6
1977.78901	2240.1
1980.86073	2238.3
1983.93046	2218
1986.99819	2209.6
1990.06394	2208.9
1993.1277	2203.8
1996.18947	2182.8
1999.24925	2184.1
2002.30706	2171.1
2005.36288	2162.6
2008.41672	2150.9
2011.46859	2150.1
2014.51848	2137.7
2017.56639	2140.9
2020.61233	2133.2
2023.6563	2120.3
2026.6983	2115.1
2029.73833	2102.1
2032.7764	2096.6
2035.8125	2104.1
2038.84664	2085
2041.87881	2082.9
2044.90903	2071.5
2047.93729	2073.1
2050.96359	2073.8
2053.98794	2067.9
2057.01034	2067.5
2060.03078	2057.8
2063.04927	2056.1
2066.06582	2063.8
2069.08042	2050.7
2072.09307	2039.8
2075.10378	2057.2
2078.11255	2048.6
2081.11938	2052.1
2084.12426	2037.2
2087.12722	2042.3
2090.12824	2048.7
2093.12732	2037.8
2096.12447	2041.7
2099.11969	2034.5
2102.11299	2041.2
2105.10435	2030.2
2108.09379	2040
2111.08131	2034.2
2114.0669	2041.2
2117.05057	2033.7
2120.03233	2030.4
2123.01216	2032.5
2125.99008	2041.4
2128.96609	2037.4
2131.94018	2039.3
2134.91236	2033
2137.88263	2046.2
2140.851	2034.7
2143.81746	2040.2
2146.78201	2039.4
2149.74466	2051.6
2152.7054	2026.3
2155.66425	2040.2
2158.6212	2035.5
2161.57625	2027.9
2164.52941	2027.9
2167.48067	2023.9
2170.43004	2031
2173.37752	2029.8
2176.32311	2020.3
2179.26681	2017.5
2182.20863	2018
2185.14856	2014.2
2188.08661	2009
2191.02278	2007.9
2193.95707	2001.3
2196.88948	2004.2
2199.82001	1996.1
2202.74867	1990.7
2205.67545	1996.4
2208.60037	2001.3
2211.52341	1982.5
2214.44458	1976.7
2217.36388	1970.7
2220.28132	1963.3
2223.1969	1962.5
2226.11061	1954.6
2229.02246	1946.6
2231.93245	1952.5
2234.84058	1942.1
2237.74686	1940.5
2240.65128	1943.4
2243.55385	1927.2
2246.45456	1931.9
2249.35343	1921.5
2252.25044	1931.7
2255.14561	1920.5
2258.03893	1913.3
2260.93041	1930
2263.82004	1900.5
2266.70783	1899.5
2269.59378	1895.2
2272.4779	1890.7
2275.36017	1888.8
2278.24061	1879.5
2281.11922	1868.7
2283.996	1866.1
2286.87094	1870
2289.74405	1864.7
2292.61534	1859.7
2295.4848	1858.7
2298.35243	1854.1
2301.21824	1854.8
2304.08223	1846.9
2306.94439	1838.5
2309.80474	1848.3
2312.66327	1830.6
2315.51999	1832.4
2318.37489	1829.5
2321.22797	1820.4
2324.07925	1814.9
2326.92871	1821.2
2329.77637	1813.1
2332.62222	1816.5
2335.46626	1798
2338.3085	1797.9
2341.14893	1801.1
2343.98756	1789.9
2346.8244	1795.4
2349.65943	1778.1
2352.49267	1791.6
2355.32411	1782.8
2358.15376	1782.4
2360.98161	1782.2
2363.80768	1774.1
2366.63195	1770
2369.45444	1763.2
2372.27514	1770.2
2375.09405	1780.3
2377.91118	1759
2380.72652	1757.6
2383.54009	1752.2
2386.35187	1756.8
2389.16188	1751.9
2391.97011	1752.3
2394.77657	1740.7
2397.58125	1739.1
2400.38416	1732.5
2403.18529	1724
2405.98466	1729.2
2408.78226	1729.2
2411.57809	1719.4
2414.37216	1715.7
2417.16446	1723
2419.955	1708.3
2422.74378	1713.4
2425.5308	1708.4
2428.31606	1709.1
2431.09956	1689.5
2433.88131	1699.9
2436.6613	1690.3
2439.43954	1684.8
2442.21603	1684.4
2444.99077	1678
2447.76377	1676
2450.53501	1673.7
2453.30451	1673.5
2456.07226	1660.2
2458.83827	1668.6
2461.60254	1664.1
2464.36507	1661.4
2467.12586	1674.7
2469.88492	1657.9
2472.64224	1663.5
2475.39782	1664.8
2478.15167	1645.1
2480.90379	1651.3
2483.65417	1643.2
2486.40283	1646.4
2489.14976	1642.4
2491.89497	1640.1
2494.63845	1650.6
2497.3802	1639.1
2500.12024	1634.9
2502.85855	1633.6
2505.59514	1626.2
2508.33002	1622.9
2511.06318	1618.4
2513.79462	1622.9
2516.52435	1606.8
2519.25237	1605.6
2521.97867	1601.4
2524.70327	1597.5
2527.42616	1600.2
2530.14734	1599.2
2532.86681	1590.5
2535.58458	1596.4
2538.30065	1594.6
2541.01501	1585.5
2543.72768	1577
2546.43864	1587.4
2549.14791	1579.8
2551.85548	1574.1
2554.56136	1578.5
2557.26554	1560.2
2559.96803	1554.3
2562.66883	1557.5
2565.36794	1556.2
2568.06536	1551.4
2570.7611	1556.1
2573.45514	1544.9
2576.14751	1545.1
2578.83819	1544.3
2581.52719	1533.7
2584.21451	1531
2586.90015	1538.3
2589.58411	1525.2
2592.2664	1532
2594.94701	1524.9
2597.62594	1512.9
2600.30321	1502.4
2602.9788	1512.8
2605.65273	1506.9
2608.32498	1509.1
2610.99557	1499.2
2613.66449	1494.1
2616.33175	1497
2618.99734	1494.6
2621.66128	1482.4
2624.32355	1484.6
2626.98416	1485.9
2629.64311	1484
2632.30041	1480.4
2634.95605	1478.6
2637.61004	1469.8
2640.26238	1477.1
2642.91306	1473.2
2645.56209	1471.2
2648.20948	1466.4
2650.85521	1459.4
2653.4993	1469.7
2656.14175	1460.3
2658.78255	1465.5
2661.42171	1456.5
2664.05923	1455
2666.6951	1462
2669.32934	1455.2
2671.96194	1451.8
2674.59291	1457
2677.22224	1449.9
2679.84993	1447.6
2682.476	1449.9
2685.10043	1449.3
2687.72324	1444.6
2690.34441	1456.8
2692.96396	1449.7
2695.58188	1453.4
2698.19818	1452.9
2700.81285	1456.3
2703.4259	1473
2706.03733	1501.8
2708.64714	1475.5
2711.25533	1464.3
2713.86191	1460.3
2716.46687	1456.4
2719.07021	1461.1
2721.67194	1448.1
2724.27206	1454.2
2726.87057	1462.5
2729.46747	1448.4
2732.06276	1455.3
2734.65644	1446.4
2737.24852	1443.6
2739.83899	1446.2
2742.42786	1450.7
2745.01513	1439.6
2747.60079	1439.4
2750.18486	1440.3
2752.76733	1422.2
2755.3482	1421.4
2757.92747	1430.2
2760.50515	1426.9
2763.08123	1416.9
2765.65573	1408.7
2768.22863	1421.4
2770.79994	1408.7
2773.36967	1416
2775.9378	1417.4
2778.50435	1403.4
2781.06932	1409.1
2783.6327	1415.7
2786.1945	1394.6
2788.75471	1396.9
2791.31335	1396.8
2793.87041	1389.2
2796.42589	1382.1
2798.97979	1378.4
2801.53212	1379.6
2804.08288	1379.2
2806.63206	1381.5
2809.17967	1372.7
2811.72571	1369.5
2814.27018	1367.6
2816.81308	1370.9
2819.35442	1370.7
2821.89419	1364
2824.43239	1365.7
2826.96904	1366
2829.50412	1365.4
2832.03763	1360.6
2834.56959	1362.3
2837.1	1358.1
2839.62884	1360.6
2842.15613	1360.9
2844.68186	1356.8
2847.20604	1351.9
2849.72867	1359.9
2852.24974	1359.6
2854.76927	1361.4
2857.28724	1363.4
2859.80367	1349.7
2862.31855	1352.4
2864.83189	1349
2867.34368	1353.6
2869.85393	1339.6
2872.36264	1341.2
2874.8698	1352
2877.37543	1348.6
2879.87952	1353.8
2882.38207	1358.6
2884.88308	1352.3
2887.38256	1358.3
2889.88051	1368.6
2892.37692	1360.8
2894.8718	1349.8
2897.36515	1357.3
2899.85698	1363.2
2902.34727	1374
2904.83604	1374.6
2907.32328	1384.3
2909.809	1379.7
2912.29319	1377.7
2914.77587	1385.3
2917.25702	1386.6
2919.73665	1384.7
2922.21476	1393.1
2924.69136	1390.8
2927.16644	1394.5
2929.64	1394.9
2932.11205	1390.7
2934.58258	1399.4
2937.05161	1398.8
2939.51912	1400.5
2941.98513	1401.3
2944.44962	1398.1
2946.91261	1395.5
2949.37409	1396.8
2951.83407	1401.3
2954.29254	1390.9
2956.74951	1391.3
2959.20498	1383.9
2961.65895	1379.3
2964.11142	1380.8
2966.56239	1376.5
2969.01186	1376
2971.45984	1364.9
2973.90632	1352.1
2976.35131	1353.1
2978.7948	1358.9
2981.23681	1347.6
2983.67732	1352
2986.11635	1339.6
2988.55388	1345.6
2990.98993	1341.2
2993.4245	1339.4
2995.85758	1331.8
2998.28917	1341.7
3000.71928	1343.9
3003.14791	1348.1
3005.57506	1345.6
3008.00073	1344.4
3010.42493	1334.2
3012.84764	1343.2
3015.26888	1340.7
3017.68865	1345.2
3020.10694	1347.5
3022.52376	1343.5
3024.9391	1342.6
3027.35298	1334.8
3029.76539	1338.3
3032.17632	1345.3
3034.5858	1340.8
3036.9938	1346.3
3039.40034	1346.5
3041.80542	1342.1
3044.20903	1338.5
3046.61118	1347.3
3049.01187	1350.2
3051.4111	1340.3
3053.80888	1349.9
3056.20519	1341.9
3058.60005	1344
3060.99345	1348.4
3063.3854	1350.1
3065.7759	1350.4
3068.16494	1350
3070.55254	1349.7
3072.93868	1354
3075.32338	1358.6
3077.70662	1355.2
3080.08842	1359.5
3082.46878	1354.6
3084.84769	1367.7
3087.22515	1378.9
3089.60118	1386.4
3091.97576	1385.9
3094.3489	1382.7
3096.72061	1396.4
3099.09087	1391.7
3101.4597	1400.5
3103.82709	1389.1
3106.19305	1403.4
3108.55757	1409.1
3110.92066	1399.8
3113.28232	1412
3115.64255	1416.8
3118.00134	1423.6
3120.35871	1429
3122.71466	1430.9
3125.06917	1426.6
3127.42226	1427.2
3129.77393	1441.7
3132.12417	1444.1
3134.47299	1449.7
3136.82039	1458
3139.16636	1449.3
3141.51092	1467.8
3143.85406	1479.3
3146.19579	1484.1
3148.53609	1495.2
3150.87499	1488.1
3153.21246	1502.7
3155.54853	1507.7
3157.88318	1513.7
3160.21642	1518.3
3162.54826	1529
3164.87868	1537.5
3167.2077	1536
3169.5353	1534.4
3171.86151	1543.6
3174.18631	1546.1
3176.5097	1554.9
3178.83169	1559.6
3181.15228	1560.2
3183.47147	1572.7
3185.78926	1574.7
3188.10565	1574.1
3190.42065	1585.1
3192.73424	1581.4
3195.04645	1591.8
3197.35725	1588.2
3199.66667	1592.9
3201.97469	1603.7
3204.28132	1614
3206.58656	1609.5
3208.8904	1611.3
3211.19287	1616.6
3213.49394	1627.8
3215.79363	1630.7
3218.09193	1624.7
3220.38884	1638.8
3222.68438	1645.9
3224.97853	1638
3227.2713	1635.6
3229.56269	1641.5
3231.8527	1629.1
3234.14133	1632.7
3236.42858	1629.6
3238.71446	1628.1
3240.99896	1631.3
3243.28209	1635.9
3245.56384	1630.2
3247.84423	1644
3250.12324	1630.7
3252.40088	1635.3
3254.67715	1631.7
3256.95205	1630.6
3259.22558	1633.6
3261.49775	1633.1
3263.76855	1625.2
3266.03799	1620.6
3268.30606	1628
3270.57277	1616
3272.83812	1611.2
3275.10211	1610.4
3277.36474	1613
3279.62601	1613.1
3281.88593	1614.1
3284.14448	1614.4
3286.40168	1616.9
3288.65753	1606.3
3290.91202	1602.2
3293.16516	1597.9
3295.41695	1595.1
3297.66738	1580.5
3299.91647	1586.4
3302.16421	1578
3304.4106	1579.2
3306.65564	1555.7
3308.89933	1562.5
3311.14169	1558.8
3313.38269	1541.1
3315.62236	1536.6
3317.86068	1530.1
3320.09766	1515
3322.3333	1505
3324.5676	1500.8
3326.80056	1490.3
3329.03219	1478.1
3331.26248	0.7
3333.49143	1.6
3335.71905	-0.5
