Data from AgNPs_FTO_APTES_UA_0.1mM_CRN_1000uM_NaF_0.1M_Addition_RamanShift__25__15-43-17-831.txt Node

Date: Mon Dec 20 15:43:17 GMT 2021
User: TCL
Spectrometer: QEP01345
Trigger mode: 4
Integration Time (sec): 7.000000E0
Scans to average: 10
Electric dark correction enabled: true
Nonlinearity correction enabled: false
Boxcar width: 0
XAxis mode: Raman Shifts
Number of Pixels in Spectrum: 1044
>>>>>Begin Spectral Data<<<<<
46.04893	0.5375
50.45542	1.4375
54.85868	-2.5625
59.25871	1.0375
63.6555	21.3375
68.04907	27.1375
72.43941	28.7375
76.82654	26.2375
81.21044	25.9375
85.59113	31.1375
89.96862	29.3375
94.34289	30.9375
98.71396	34.7375
103.08183	29.2375
107.4465	34.0375
111.80798	37.2375
116.16626	35.9375
120.52136	38.2375
124.87327	37.9375
129.222	37.1375
133.56755	35.3375
137.90993	43.1375
142.24913	37.6375
146.58517	42.1375
150.91804	50.0375
155.24774	56.7375
159.57429	63.6375
163.89768	76.9375
168.21792	100.5375
172.53501	123.1375
176.84895	165.3375
181.15975	226.2375
185.46741	308.2375
189.77193	427.7375
194.07331	573.0375
198.37157	742.9375
202.6667	926.8375
206.9587	1111.1375
211.24758	1290.0375
215.53334	1471.6375
219.81599	1660.4375
224.09553	1820.6375
228.37195	2020.7375
232.64527	2219.7375
236.91549	2431.8375
241.18261	2639.1375
245.44663	2806.1375
249.70755	2979.6375
253.96539	3113.7375
258.22014	3241.8375
262.4718	3291.5375
266.72039	3327.6375
270.96589	3326.2375
275.20832	3306.4375
279.44768	3266.0375
283.68397	3202.8375
287.91719	3157.6375
292.14735	3133.9375
296.37445	3097.3375
300.59849	3078.7375
304.81948	3074.3375
309.03742	3059.9375
313.25231	3023.7375
317.46415	2987.2375
321.67296	2923.0375
325.87872	2880.4375
330.08145	2870.4375
334.28114	2849.5375
338.47781	2869.4375
342.67145	2877.2375
346.86207	2911.5375
351.04966	2962.0375
355.23424	3007.0375
359.4158	3053.0375
363.59435	3098.9375
367.76989	3124.8375
371.94243	3160.6375
376.11196	3186.4375
380.27849	3234.8375
384.44203	3267.3375
388.60257	3309.2375
392.76012	3337.4375
396.91468	3373.6375
401.06626	3395.6375
405.21485	3427.1375
409.36047	3418.1375
413.50311	3408.3375
417.64277	3370.0375
421.77947	3368.7375
425.9132	3348.3375
430.04396	3357.9375
434.17176	3370.3375
438.2966	3375.1375
442.41849	3408.6375
446.53742	3428.6375
450.6534	3468.7375
454.76644	3483.8375
458.87653	3517.4375
462.98368	3518.7375
467.08789	3520.6375
471.18916	3529.5375
475.2875	3542.1375
479.38291	3563.9375
483.4754	3643.3375
487.56496	3712.9375
491.6516	3792.5375
495.73531	3847.3375
499.81612	3824.3375
503.89401	3761.5375
507.96899	3696.3375
512.04106	3659.1375
516.11023	3672.9375
520.1765	3705.0375
524.23987	3766.8375
528.30034	3813.6375
532.35792	3812.7375
536.41261	3785.9375
540.46441	3712.4375
544.51333	3613.1375
548.55936	3535.3375
552.60252	3524.2375
556.64279	3528.6375
560.6802	3529.7375
564.71473	3528.5375
568.7464	3560.2375
572.7752	3595.8375
576.80114	3609.8375
580.82422	3608.3375
584.84444	3656.8375
588.86181	3714.1375
592.87633	3760.7375
596.888	3762.7375
600.89682	3764.6375
604.9028	3824.1375
608.90594	4023.9375
612.90624	4336.0375
616.90371	4435.2375
620.89834	4361.0375
624.89015	4536.9375
628.87913	4904.9375
632.86528	5275.0375
636.84862	5453.3375
640.82913	5336.0375
644.80683	5017.0375
648.78172	4603.8375
652.75379	4280.1375
656.72306	4095.4375
660.68952	4012.0375
664.65319	3955.7375
668.61405	3936.8375
672.57211	3945.5375
676.52738	3977.3375
680.47986	3982.7375
684.42955	3983.8375
688.37646	3946.6375
692.32058	3908.4375
696.26192	3871.0375
700.20048	3838.0375
704.13626	3811.3375
708.06928	3771.2375
711.99952	3719.9375
715.927	3687.8375
719.85171	3698.1375
723.77365	3739.4375
727.69284	3741.8375
731.60928	3708.0375
735.52295	3634.9375
739.43388	3601.5375
743.34206	3573.7375
747.24749	3580.8375
751.15017	3595.9375
755.05012	3583.7375
758.94733	3633.3375
762.8418	3687.6375
766.73354	3765.7375
770.62254	3873.9375
774.50882	3891.0375
778.39237	3856.0375
782.27321	3743.8375
786.15132	3635.5375
790.02671	3611.9375
793.89938	3631.1375
797.76935	3664.3375
801.6366	3770.0375
805.50115	3939.7375
809.36299	4164.2375
813.22213	4279.8375
817.07857	4206.0375
820.93231	3987.3375
824.78336	3734.9375
828.63172	3562.1375
832.47738	3452.2375
836.32036	3398.4375
840.16066	3384.4375
843.99827	3353.0375
847.8332	3356.4375
851.66546	3343.9375
855.49504	3353.9375
859.32195	3368.0375
863.1462	3386.8375
866.96777	3438.3375
870.78668	3510.4375
874.60293	3620.9375
878.41652	3752.4375
882.22745	3889.0375
886.03573	3977.9375
889.84136	4000.3375
893.64433	3910.0375
897.44466	3709.9375
901.24235	3542.3375
905.0374	3374.2375
908.8298	3296.6375
912.61957	3248.0375
916.40671	3203.5375
920.19121	3180.4375
923.97308	3190.2375
927.75233	3177.7375
931.52895	3193.2375
935.30295	3184.4375
939.07433	3182.4375
942.84309	3152.6375
946.60924	3141.4375
950.37278	3134.2375
954.13371	3135.6375
957.89203	3123.2375
961.64774	3097.3375
965.40086	3084.9375
969.15137	3063.1375
972.89929	3040.9375
976.64461	3045.1375
980.38733	3032.2375
984.12747	3022.0375
987.86502	3037.0375
991.59999	3058.3375
995.33237	3083.7375
999.06217	3132.9375
1002.78939	3201.3375
1006.51404	3279.2375
1010.23611	3370.3375
1013.95561	3431.1375
1017.67255	3460.1375
1021.38692	3442.4375
1025.09872	3382.2375
1028.80796	3280.1375
1032.51465	3206.5375
1036.21877	3137.4375
1039.92035	3106.7375
1043.61937	3099.8375
1047.31584	3095.9375
1051.00976	3098.5375
1054.70114	3128.2375
1058.38998	3142.4375
1062.07627	3183.3375
1065.76003	3224.6375
1069.44126	3246.5375
1073.11995	3260.0375
1076.79611	3285.1375
1080.46974	3229.4375
1084.14085	3169.9375
1087.80943	3115.1375
1091.47549	3088.1375
1095.13903	3046.4375
1098.80005	3016.2375
1102.45857	2998.1375
1106.11456	3005.9375
1109.76805	3035.1375
1113.41903	3099.1375
1117.06751	3190.6375
1120.71348	3340.8375
1124.35696	3574.2375
1127.99793	3903.6375
1131.63641	4230.5375
1135.2724	4446.9375
1138.90589	4513.0375
1142.5369	4379.3375
1146.16542	4119.4375
1149.79145	3809.6375
1153.415	3535.6375
1157.03607	3311.1375
1160.65467	3191.4375
1164.27079	3122.0375
1167.88443	3109.8375
1171.49561	3146.2375
1175.10432	3232.7375
1178.71056	3330.8375
1182.31434	3449.4375
1185.91565	3535.9375
1189.51451	3605.7375
1193.11091	3681.6375
1196.70485	3811.6375
1200.29634	3957.0375
1203.88538	4037.7375
1207.47197	4009.8375
1211.05612	3865.2375
1214.63782	3682.4375
1218.21708	3488.4375
1221.79391	3325.8375
1225.36829	3200.2375
1228.94024	3135.3375
1232.50976	3078.6375
1236.07685	3069.8375
1239.6415	3051.5375
1243.20374	3079.0375
1246.76355	3095.9375
1250.32093	3105.3375
1253.8759	3114.1375
1257.42845	3136.0375
1260.97859	3151.2375
1264.52631	3159.4375
1268.07163	3160.7375
1271.61453	3146.9375
1275.15503	3138.9375
1278.69312	3123.9375
1282.22882	3112.8375
1285.76211	3116.9375
1289.29301	3143.4375
1292.82151	3171.0375
1296.34761	3202.8375
1299.87133	3289.8375
1303.39266	3387.9375
1306.9116	3527.0375
1310.42815	3672.1375
1313.94233	3779.6375
1317.45412	3784.5375
1320.96354	3761.8375
1324.47058	3734.4375
1327.97525	3692.6375
1331.47754	3679.6375
1334.97747	3730.3375
1338.47502	3768.5375
1341.97022	3843.5375
1345.46305	3934.7375
1348.95352	4037.2375
1352.44163	4158.2375
1355.92738	4314.6375
1359.41078	4494.5375
1362.89183	4643.8375
1366.37053	4592.0375
1369.84688	4380.9375
1373.32088	4095.5375
1376.79254	3916.6375
1380.26186	3747.4375
1383.72883	3664.7375
1387.19347	3598.4375
1390.65578	3514.2375
1394.11575	3467.5375
1397.57339	3431.3375
1401.0287	3381.9375
1404.48168	3352.0375
1407.93234	3309.1375
1411.38068	3265.7375
1414.82669	3190.9375
1418.27039	3105.1375
1421.71177	3025.2375
1425.15083	2933.4375
1428.58758	2874.4375
1432.02203	2838.6375
1435.45416	2802.9375
1438.88399	2774.0375
1442.31151	2743.9375
1445.73673	2730.1375
1449.15965	2726.0375
1452.58027	2713.7375
1455.9986	2696.9375
1459.41463	2704.6375
1462.82837	2714.8375
1466.23982	2715.9375
1469.64898	2748.3375
1473.05586	2761.5375
1476.46045	2760.6375
1479.86276	2781.8375
1483.26279	2782.1375
1486.66054	2805.6375
1490.05602	2828.9375
1493.44922	2887.1375
1496.84016	2958.6375
1500.22882	3044.8375
1503.61521	3183.5375
1506.99934	3350.2375
1510.38121	3467.3375
1513.76081	3492.3375
1517.13816	3397.0375
1520.51324	3236.3375
1523.88607	3090.2375
1527.25665	3002.9375
1530.62498	2979.3375
1533.99105	2993.6375
1537.35488	3008.6375
1540.71647	3036.9375
1544.07581	3057.6375
1547.4329	3089.1375
1550.78776	3115.8375
1554.14038	3122.0375
1557.49077	3152.1375
1560.83892	3153.2375
1564.18484	3165.7375
1567.52853	3178.6375
1570.86999	3214.5375
1574.20922	3241.5375
1577.54624	3265.8375
1580.88103	3255.9375
1584.2136	3232.7375
1587.54395	3191.7375
1590.87208	3195.9375
1594.19801	3208.4375
1597.52172	3268.1375
1600.84321	3327.8375
1604.16251	3330.2375
1607.47959	3312.7375
1610.79447	3314.3375
1614.10715	3278.1375
1617.41763	3237.5375
1620.7259	3207.8375
1624.03199	3200.6375
1627.33587	3176.0375
1630.63757	3184.1375
1633.93707	3188.4375
1637.23439	3219.6375
1640.52951	3288.9375
1643.82246	3381.0375
1647.11321	3510.0375
1650.40179	3614.8375
1653.68819	3633.7375
1656.97241	3527.1375
1660.25446	3401.3375
1663.53433	3285.7375
1666.81203	3218.8375
1670.08756	3166.5375
1673.36092	3127.4375
1676.63211	3084.5375
1679.90115	3069.9375
1683.16801	3029.9375
1686.43272	2974.5375
1689.69527	2940.4375
1692.95567	2896.4375
1696.2139	2852.0375
1699.46999	2778.6375
1702.72392	2700.2375
1705.97571	2588.6375
1709.22535	2496.2375
1712.47284	2434.1375
1715.71819	2377.3375
1718.96139	2354.7375
1722.20246	2326.1375
1725.44139	2286.8375
1728.67818	2263.0375
1731.91284	2239.7375
1735.14537	2226.4375
1738.37576	2205.2375
1741.60403	2184.5375
1744.83017	2183.9375
1748.05418	2188.3375
1751.27607	2185.3375
1754.49584	2180.9375
1757.71349	2188.5375
1760.92903	2169.7375
1764.14244	2158.7375
1767.35375	2126.0375
1770.56294	2119.4375
1773.77002	2076.3375
1776.97499	2051.1375
1780.17785	2010.5375
1783.37861	1984.6375
1786.57727	1965.7375
1789.77382	1950.6375
1792.96828	1943.0375
1796.16064	1918.7375
1799.3509	1912.6375
1802.53907	1893.1375
1805.72514	1890.3375
1808.90913	1874.0375
1812.09102	1863.7375
1815.27083	1865.6375
1818.44856	1847.6375
1821.6242	1844.2375
1824.79776	1838.8375
1827.96924	1845.1375
1831.13864	1833.3375
1834.30597	1838.4375
1837.47122	1828.2375
1840.6344	1809.7375
1843.7955	1813.1375
1846.95454	1809.1375
1850.11151	1810.7375
1853.26642	1797.2375
1856.41926	1794.9375
1859.57004	1799.3375
1862.71876	1791.6375
1865.86542	1784.3375
1869.01003	1769.4375
1872.15258	1763.9375
1875.29308	1776.3375
1878.43152	1773.0375
1881.56792	1756.8375
1884.70227	1754.4375
1887.83457	1771.3375
1890.96482	1747.2375
1894.09304	1743.6375
1897.21921	1742.5375
1900.34335	1741.8375
1903.46544	1731.9375
1906.58551	1746.4375
1909.70353	1724.3375
1912.81953	1715.4375
1915.93349	1712.3375
1919.04543	1715.5375
1922.15534	1706.1375
1925.26322	1708.8375
1928.36908	1702.0375
1931.47292	1695.6375
1934.57473	1691.1375
1937.67453	1669.9375
1940.77232	1672.0375
1943.86808	1673.6375
1946.96184	1670.1375
1950.05358	1658.9375
1953.14331	1656.9375
1956.23103	1654.1375
1959.31675	1643.6375
1962.40046	1637.2375
1965.48217	1629.0375
1968.56188	1620.1375
1971.63959	1623.3375
1974.7153	1618.8375
1977.78901	1610.1375
1980.86073	1598.6375
1983.93046	1590.4375
1986.99819	1574.4375
1990.06394	1578.1375
1993.1277	1579.3375
1996.18947	1579.6375
1999.24925	1568.6375
2002.30706	1555.9375
2005.36288	1557.2375
2008.41672	1544.9375
2011.46859	1545.4375
2014.51848	1536.6375
2017.56639	1527.2375
2020.61233	1520.2375
2023.6563	1514.4375
2026.6983	1515.5375
2029.73833	1507.8375
2032.7764	1506.6375
2035.8125	1504.4375
2038.84664	1490.8375
2041.87881	1498.8375
2044.90903	1493.3375
2047.93729	1490.5375
2050.96359	1485.4375
2053.98794	1481.6375
2057.01034	1471.6375
2060.03078	1474.7375
2063.04927	1475.0375
2066.06582	1477.8375
2069.08042	1466.8375
2072.09307	1464.7375
2075.10378	1466.4375
2078.11255	1457.0375
2081.11938	1447.7375
2084.12426	1456.3375
2087.12722	1455.9375
2090.12824	1456.8375
2093.12732	1452.9375
2096.12447	1453.8375
2099.11969	1458.3375
2102.11299	1440.1375
2105.10435	1453.2375
2108.09379	1449.0375
2111.08131	1454.7375
2114.0669	1444.2375
2117.05057	1443.0375
2120.03233	1448.4375
2123.01216	1452.8375
2125.99008	1435.8375
2128.96609	1443.3375
2131.94018	1445.5375
2134.91236	1443.6375
2137.88263	1441.9375
2140.851	1447.3375
2143.81746	1444.9375
2146.78201	1452.8375
2149.74466	1443.6375
2152.7054	1437.7375
2155.66425	1442.3375
2158.6212	1430.5375
2161.57625	1436.5375
2164.52941	1436.4375
2167.48067	1438.2375
2170.43004	1437.1375
2173.37752	1425.4375
2176.32311	1420.7375
2179.26681	1426.9375
2182.20863	1423.9375
2185.14856	1432.2375
2188.08661	1422.4375
2191.02278	1415.2375
2193.95707	1412.0375
2196.88948	1413.9375
2199.82001	1412.7375
2202.74867	1409.0375
2205.67545	1397.4375
2208.60037	1402.6375
2211.52341	1398.3375
2214.44458	1389.5375
2217.36388	1389.2375
2220.28132	1382.3375
2223.1969	1373.1375
2226.11061	1370.3375
2229.02246	1371.7375
2231.93245	1370.4375
2234.84058	1367.9375
2237.74686	1363.5375
2240.65128	1355.2375
2243.55385	1356.8375
2246.45456	1349.8375
2249.35343	1347.6375
2252.25044	1336.7375
2255.14561	1343.1375
2258.03893	1348.7375
2260.93041	1357.4375
2263.82004	1339.9375
2266.70783	1332.4375
2269.59378	1327.8375
2272.4779	1314.8375
2275.36017	1316.9375
2278.24061	1316.0375
2281.11922	1310.6375
2283.996	1300.2375
2286.87094	1305.9375
2289.74405	1306.8375
2292.61534	1298.0375
2295.4848	1296.7375
2298.35243	1295.4375
2301.21824	1291.1375
2304.08223	1295.5375
2306.94439	1284.7375
2309.80474	1284.5375
2312.66327	1286.8375
2315.51999	1273.7375
2318.37489	1280.2375
2321.22797	1275.8375
2324.07925	1271.9375
2326.92871	1277.2375
2329.77637	1270.3375
2332.62222	1260.1375
2335.46626	1255.6375
2338.3085	1252.3375
2341.14893	1255.1375
2343.98756	1245.4375
2346.8244	1246.0375
2349.65943	1244.8375
2352.49267	1244.0375
2355.32411	1246.1375
2358.15376	1242.4375
2360.98161	1233.9375
2363.80768	1229.4375
2366.63195	1236.5375
2369.45444	1234.3375
2372.27514	1231.6375
2375.09405	1231.3375
2377.91118	1221.4375
2380.72652	1225.4375
2383.54009	1222.7375
2386.35187	1226.9375
2389.16188	1213.9375
2391.97011	1223.3375
2394.77657	1215.1375
2397.58125	1207.4375
2400.38416	1206.1375
2403.18529	1206.4375
2405.98466	1198.5375
2408.78226	1199.2375
2411.57809	1201.2375
2414.37216	1190.1375
2417.16446	1188.5375
2419.955	1188.6375
2422.74378	1181.4375
2425.5308	1179.2375
2428.31606	1177.6375
2431.09956	1170.7375
2433.88131	1172.0375
2436.6613	1172.8375
2439.43954	1177.9375
2442.21603	1170.5375
2444.99077	1156.4375
2447.76377	1162.7375
2450.53501	1154.4375
2453.30451	1162.5375
2456.07226	1159.3375
2458.83827	1145.5375
2461.60254	1149.1375
2464.36507	1147.4375
2467.12586	1135.1375
2469.88492	1136.6375
2472.64224	1137.5375
2475.39782	1151.6375
2478.15167	1148.4375
2480.90379	1134.1375
2483.65417	1135.6375
2486.40283	1127.5375
2489.14976	1135.6375
2491.89497	1130.4375
2494.63845	1140.6375
2497.3802	1129.2375
2500.12024	1128.3375
2502.85855	1128.7375
2505.59514	1126.6375
2508.33002	1125.9375
2511.06318	1113.7375
2513.79462	1110.1375
2516.52435	1112.6375
2519.25237	1105.7375
2521.97867	1102.1375
2524.70327	1101.3375
2527.42616	1108.8375
2530.14734	1100.0375
2532.86681	1099.7375
2535.58458	1092.1375
2538.30065	1093.7375
2541.01501	1100.7375
2543.72768	1087.6375
2546.43864	1088.1375
2549.14791	1083.0375
2551.85548	1079.9375
2554.56136	1078.2375
2557.26554	1073.5375
2559.96803	1073.4375
2562.66883	1066.8375
2565.36794	1060.5375
2568.06536	1064.3375
2570.7611	1066.3375
2573.45514	1055.8375
2576.14751	1053.5375
2578.83819	1050.3375
2581.52719	1053.1375
2584.21451	1051.2375
2586.90015	1046.7375
2589.58411	1049.9375
2592.2664	1045.6375
2594.94701	1035.5375
2597.62594	1033.8375
2600.30321	1027.8375
2602.9788	1035.8375
2605.65273	1024.5375
2608.32498	1023.4375
2610.99557	1014.9375
2613.66449	1022.4375
2616.33175	1017.9375
2618.99734	1021.8375
2621.66128	1016.6375
2624.32355	1010.9375
2626.98416	1016.0375
2629.64311	1017.2375
2632.30041	1007.2375
2634.95605	1011.2375
2637.61004	1004.5375
2640.26238	1003.5375
2642.91306	1007.3375
2645.56209	1001.0375
2648.20948	998.3375
2650.85521	994.4375
2653.4993	997.6375
2656.14175	997.7375
2658.78255	993.8375
2661.42171	991.8375
2664.05923	987.6375
2666.6951	990.8375
2669.32934	991.5375
2671.96194	990.3375
2674.59291	995.3375
2677.22224	990.4375
2679.84993	991.8375
2682.476	984.1375
2685.10043	991.3375
2687.72324	984.5375
2690.34441	990.9375
2692.96396	986.0375
2695.58188	991.7375
2698.19818	995.4375
2700.81285	995.6375
2703.4259	1014.0375
2706.03733	1043.0375
2708.64714	1012.5375
2711.25533	1009.8375
2713.86191	990.0375
2716.46687	995.7375
2719.07021	994.9375
2721.67194	999.0375
2724.27206	978.3375
2726.87057	992.0375
2729.46747	987.2375
2732.06276	983.4375
2734.65644	984.1375
2737.24852	980.3375
2739.83899	976.4375
2742.42786	978.1375
2745.01513	975.4375
2747.60079	980.1375
2750.18486	973.6375
2752.76733	965.2375
2755.3482	972.1375
2757.92747	967.0375
2760.50515	971.0375
2763.08123	962.1375
2765.65573	961.9375
2768.22863	958.0375
2770.79994	955.7375
2773.36967	961.5375
2775.9378	955.7375
2778.50435	956.0375
2781.06932	951.8375
2783.6327	953.2375
2786.1945	956.0375
2788.75471	947.1375
2791.31335	949.8375
2793.87041	944.2375
2796.42589	944.9375
2798.97979	943.2375
2801.53212	938.0375
2804.08288	947.4375
2806.63206	937.9375
2809.17967	933.0375
2811.72571	937.2375
2814.27018	938.5375
2816.81308	937.4375
2819.35442	935.7375
2821.89419	924.0375
2824.43239	935.3375
2826.96904	933.6375
2829.50412	933.6375
2832.03763	934.8375
2834.56959	936.9375
2837.1	932.0375
2839.62884	926.2375
2842.15613	922.0375
2844.68186	934.2375
2847.20604	922.4375
2849.72867	925.7375
2852.24974	933.7375
2854.76927	937.9375
2857.28724	950.8375
2859.80367	934.6375
2862.31855	925.6375
2864.83189	929.3375
2867.34368	931.6375
2869.85393	922.9375
2872.36264	926.7375
2874.8698	927.1375
2877.37543	930.6375
2879.87952	930.4375
2882.38207	941.5375
2884.88308	937.7375
2887.38256	943.1375
2889.88051	936.9375
2892.37692	945.9375
2894.8718	950.7375
2897.36515	948.8375
2899.85698	960.3375
2902.34727	959.2375
2904.83604	963.0375
2907.32328	967.5375
2909.809	971.3375
2912.29319	974.8375
2914.77587	973.6375
2917.25702	981.6375
2919.73665	984.2375
2922.21476	981.9375
2924.69136	984.9375
2927.16644	992.3375
2929.64	991.8375
2932.11205	989.6375
2934.58258	996.2375
2937.05161	993.1375
2939.51912	990.2375
2941.98513	992.3375
2944.44962	999.8375
2946.91261	988.6375
2949.37409	992.7375
2951.83407	996.1375
2954.29254	986.8375
2956.74951	985.8375
2959.20498	982.0375
2961.65895	968.0375
2964.11142	974.0375
2966.56239	960.1375
2969.01186	970.8375
2971.45984	958.9375
2973.90632	945.9375
2976.35131	948.0375
2978.7948	945.3375
2981.23681	944.4375
2983.67732	943.6375
2986.11635	938.0375
2988.55388	930.3375
2990.98993	939.0375
2993.4245	934.6375
2995.85758	930.6375
2998.28917	929.5375
3000.71928	938.0375
3003.14791	931.3375
3005.57506	946.4375
3008.00073	938.9375
3010.42493	938.9375
3012.84764	938.5375
3015.26888	944.7375
3017.68865	938.8375
3020.10694	940.1375
3022.52376	941.6375
3024.9391	939.5375
3027.35298	940.4375
3029.76539	934.2375
3032.17632	946.2375
3034.5858	941.2375
3036.9938	945.0375
3039.40034	942.0375
3041.80542	945.8375
3044.20903	935.1375
3046.61118	945.0375
3049.01187	934.9375
3051.4111	939.5375
3053.80888	952.0375
3056.20519	950.6375
3058.60005	953.3375
3060.99345	948.1375
3063.3854	945.4375
3065.7759	950.8375
3068.16494	943.3375
3070.55254	952.7375
3072.93868	959.1375
3075.32338	955.8375
3077.70662	962.2375
3080.08842	962.6375
3082.46878	964.6375
3084.84769	974.3375
3087.22515	973.0375
3089.60118	977.2375
3091.97576	989.2375
3094.3489	993.0375
3096.72061	987.5375
3099.09087	998.6375
3101.4597	996.3375
3103.82709	1006.3375
3106.19305	1004.1375
3108.55757	1017.0375
3110.92066	1015.1375
3113.28232	1018.6375
3115.64255	1021.5375
3118.00134	1028.8375
3120.35871	1033.8375
3122.71466	1033.7375
3125.06917	1034.3375
3127.42226	1036.0375
3129.77393	1045.7375
3132.12417	1049.7375
3134.47299	1062.1375
3136.82039	1059.7375
3139.16636	1063.9375
3141.51092	1077.9375
3143.85406	1076.2375
3146.19579	1094.2375
3148.53609	1106.1375
3150.87499	1106.5375
3153.21246	1119.3375
3155.54853	1125.6375
3157.88318	1127.5375
3160.21642	1133.4375
3162.54826	1142.8375
3164.87868	1139.3375
3167.2077	1143.1375
3169.5353	1153.3375
3171.86151	1155.7375
3174.18631	1166.5375
3176.5097	1165.7375
3178.83169	1173.2375
3181.15228	1175.6375
3183.47147	1186.2375
3185.78926	1192.3375
3188.10565	1189.4375
3190.42065	1201.4375
3192.73424	1207.2375
3195.04645	1212.7375
3197.35725	1208.6375
3199.66667	1218.3375
3201.97469	1226.3375
3204.28132	1231.5375
3206.58656	1232.4375
3208.8904	1239.3375
3211.19287	1252.3375
3213.49394	1247.4375
3215.79363	1263.1375
3218.09193	1257.4375
3220.38884	1263.9375
3222.68438	1269.3375
3224.97853	1268.2375
3227.2713	1269.6375
3229.56269	1271.6375
3231.8527	1270.7375
3234.14133	1263.2375
3236.42858	1271.3375
3238.71446	1269.7375
3240.99896	1270.0375
3243.28209	1273.3375
3245.56384	1261.8375
3247.84423	1266.8375
3250.12324	1265.2375
3252.40088	1276.0375
3254.67715	1273.7375
3256.95205	1269.0375
3259.22558	1272.6375
3261.49775	1268.0375
3263.76855	1266.0375
3266.03799	1273.2375
3268.30606	1274.1375
3270.57277	1273.3375
3272.83812	1268.0375
3275.10211	1266.2375
3277.36474	1271.6375
3279.62601	1271.2375
3281.88593	1270.3375
3284.14448	1270.0375
3286.40168	1265.1375
3288.65753	1261.4375
3290.91202	1261.3375
3293.16516	1257.9375
3295.41695	1257.7375
3297.66738	1248.2375
3299.91647	1251.2375
3302.16421	1241.1375
3304.4106	1238.0375
3306.65564	1237.9375
3308.89933	1233.1375
3311.14169	1225.1375
3313.38269	1221.2375
3315.62236	1218.8375
3317.86068	1209.9375
3320.09766	1193.5375
3322.3333	1181.4375
3324.5676	1187.8375
3326.80056	1180.9375
3329.03219	1174.6375
3331.26248	0.4375
3333.49143	0.2375
3335.71905	-0.5625
