Data from AgNPs_FTO_APTES_UA_0.1mM_CRN_20uM_NaF_0.1M_Addition_RamanShift__31__12-33-07-617.txt Node

Date: Mon Dec 20 12:33:07 GMT 2021
User: TCL
Spectrometer: QEP01345
Trigger mode: 4
Integration Time (sec): 7.000000E0
Scans to average: 10
Electric dark correction enabled: true
Nonlinearity correction enabled: false
Boxcar width: 0
XAxis mode: Raman Shifts
Number of Pixels in Spectrum: 1044
>>>>>Begin Spectral Data<<<<<
46.04893	0.6875
50.45542	-0.2125
54.85868	-2.3125
59.25871	1.9875
63.6555	24.8875
68.04907	31.6875
72.43941	33.5875
76.82654	34.0875
81.21044	34.6875
85.59113	40.8875
89.96862	36.3875
94.34289	41.9875
98.71396	41.6875
103.08183	39.6875
107.4465	42.5875
111.80798	46.8875
116.16626	42.3875
120.52136	48.5875
124.87327	47.0875
129.222	49.1875
133.56755	50.9875
137.90993	57.8875
142.24913	60.5875
146.58517	60.1875
150.91804	75.4875
155.24774	84.6875
159.57429	98.9875
163.89768	124.5875
168.21792	166.8875
172.53501	212.8875
176.84895	289.8875
181.15975	397.6875
185.46741	549.7875
189.77193	752.7875
194.07331	1002.3875
198.37157	1303.5875
202.6667	1613.5875
206.9587	1914.6875
211.24758	2218.8875
215.53334	2529.1875
219.81599	2852.6875
224.09553	3211.0875
228.37195	3624.3875
232.64527	4055.5875
236.91549	4475.4875
241.18261	4869.4875
245.44663	5184.6875
249.70755	5448.8875
253.96539	5648.5875
258.22014	5788.6875
262.4718	5919.2875
266.72039	5981.2875
270.96589	5996.7875
275.20832	5917.4875
279.44768	5833.3875
283.68397	5721.3875
287.91719	5632.1875
292.14735	5654.8875
296.37445	5748.4875
300.59849	5996.4875
304.81948	6272.5875
309.03742	6473.0875
313.25231	6454.3875
317.46415	6157.9875
321.67296	5666.9875
325.87872	5198.7875
330.08145	4978.5875
334.28114	4932.8875
338.47781	4975.0875
342.67145	5109.9875
346.86207	5331.2875
351.04966	5678.7875
355.23424	6086.5875
359.4158	6410.2875
363.59435	6567.3875
367.76989	6635.8875
371.94243	6667.7875
376.11196	6649.9875
380.27849	6651.7875
384.44203	6611.1875
388.60257	6523.4875
392.76012	6469.5875
396.91468	6476.4875
401.06626	6610.4875
405.21485	6705.2875
409.36047	6557.4875
413.50311	6151.7875
417.64277	5739.9875
421.77947	5492.8875
425.9132	5396.2875
430.04396	5333.2875
434.17176	5333.7875
438.2966	5417.0875
442.41849	5546.4875
446.53742	5680.6875
450.6534	5810.8875
454.76644	5892.6875
458.87653	5899.9875
462.98368	5826.5875
467.08789	5752.8875
471.18916	5656.2875
475.2875	5578.6875
479.38291	5536.7875
483.4754	5542.0875
487.56496	5650.5875
491.6516	5769.7875
495.73531	5836.6875
499.81612	5774.9875
503.89401	5715.6875
507.96899	5706.3875
512.04106	5800.1875
516.11023	5964.8875
520.1765	6135.2875
524.23987	6254.4875
528.30034	6223.3875
532.35792	6105.1875
536.41261	5888.1875
540.46441	5647.6875
544.51333	5440.5875
548.55936	5335.7875
552.60252	5352.1875
556.64279	5443.1875
560.6802	5506.4875
564.71473	5594.1875
568.7464	5843.4875
572.7752	6003.2875
576.80114	5796.0875
580.82422	5577.3875
584.84444	5540.6875
588.86181	5615.6875
592.87633	5697.3875
596.888	5756.9875
600.89682	5902.7875
604.9028	6534.1875
608.90594	8445.6875
612.90624	11220.4875
616.90371	11359.3875
620.89834	8582.1875
624.89015	7478.6875
628.87913	7772.4875
632.86528	8313.3875
636.84862	8584.4875
640.82913	8272.6875
644.80683	7505.9875
648.78172	6724.7875
652.75379	6243.3875
656.72306	6135.1875
660.68952	6171.9875
664.65319	5992.9875
668.61405	5608.3875
672.57211	5422.8875
676.52738	5361.9875
680.47986	5361.0875
684.42955	5315.3875
688.37646	5294.3875
692.32058	5295.2875
696.26192	5329.7875
700.20048	5349.3875
704.13626	5360.9875
708.06928	5316.0875
711.99952	5245.7875
715.927	5248.9875
719.85171	5343.3875
723.77365	5421.2875
727.69284	5415.0875
731.60928	5316.3875
735.52295	5187.4875
739.43388	5160.1875
743.34206	5176.7875
747.24749	5214.2875
751.15017	5250.5875
755.05012	5316.7875
758.94733	5533.7875
762.8418	6145.2875
766.73354	7147.2875
770.62254	8226.0875
774.50882	8879.1875
778.39237	8636.3875
782.27321	7526.6875
786.15132	6353.0875
790.02671	5690.0875
793.89938	5439.9875
797.76935	5446.0875
801.6366	5603.8875
805.50115	5980.2875
809.36299	6422.0875
813.22213	6555.4875
817.07857	6340.0875
820.93231	5944.6875
824.78336	5556.6875
828.63172	5267.4875
832.47738	5122.7875
836.32036	5056.9875
840.16066	4954.5875
843.99827	4928.0875
847.8332	4910.8875
851.66546	4891.0875
855.49504	4900.0875
859.32195	4934.3875
863.1462	4968.3875
866.96777	5062.9875
870.78668	5251.2875
874.60293	5502.1875
878.41652	5812.4875
882.22745	6100.0875
886.03573	6280.1875
889.84136	6215.3875
893.64433	5969.0875
897.44466	5604.7875
901.24235	5300.6875
905.0374	5053.5875
908.8298	4880.2875
912.61957	4779.2875
916.40671	4742.8875
920.19121	4724.9875
923.97308	4719.3875
927.75233	4761.2875
931.52895	4820.6875
935.30295	4781.3875
939.07433	4664.4875
942.84309	4543.9875
946.60924	4454.9875
950.37278	4431.4875
954.13371	4411.4875
957.89203	4398.9875
961.64774	4384.2875
965.40086	4374.6875
969.15137	4370.0875
972.89929	4341.6875
976.64461	4336.7875
980.38733	4347.6875
984.12747	4365.1875
987.86502	4379.4875
991.59999	4451.9875
995.33237	4532.4875
999.06217	4681.7875
1002.78939	4894.4875
1006.51404	5100.5875
1010.23611	5334.3875
1013.95561	5475.6875
1017.67255	5476.0875
1021.38692	5362.4875
1025.09872	5190.5875
1028.80796	4979.4875
1032.51465	4834.7875
1036.21877	4742.9875
1039.92035	4700.4875
1043.61937	4685.9875
1047.31584	4689.8875
1051.00976	4699.2875
1054.70114	4723.5875
1058.38998	4772.5875
1062.07627	4856.4875
1065.76003	4957.6875
1069.44126	5012.7875
1073.11995	5045.2875
1076.79611	5076.7875
1080.46974	5117.6875
1084.14085	5167.7875
1087.80943	5237.8875
1091.47549	5229.4875
1095.13903	5098.2875
1098.80005	4918.5875
1102.45857	4815.5875
1106.11456	4787.4875
1109.76805	4869.9875
1113.41903	5085.7875
1117.06751	5419.3875
1120.71348	5905.8875
1124.35696	6544.4875
1127.99793	7268.5875
1131.63641	7696.5875
1135.2724	7748.4875
1138.90589	7550.5875
1142.5369	7174.6875
1146.16542	6656.1875
1149.79145	6115.4875
1153.415	5669.1875
1157.03607	5339.5875
1160.65467	5189.9875
1164.27079	5218.7875
1167.88443	5395.2875
1171.49561	5776.3875
1175.10432	6429.4875
1178.71056	7418.5875
1182.31434	8227.3875
1185.91565	8538.3875
1189.51451	8518.7875
1193.11091	8358.9875
1196.70485	8214.7875
1200.29634	8195.2875
1203.88538	8075.0875
1207.47197	7629.0875
1211.05612	7080.3875
1214.63782	6531.0875
1218.21708	6098.2875
1221.79391	5753.3875
1225.36829	5521.1875
1228.94024	5342.4875
1232.50976	5238.9875
1236.07685	5203.1875
1239.6415	5218.8875
1243.20374	5259.2875
1246.76355	5307.5875
1250.32093	5331.5875
1253.8759	5424.8875
1257.42845	5562.2875
1260.97859	5666.7875
1264.52631	5817.1875
1268.07163	5949.0875
1271.61453	6046.9875
1275.15503	6091.4875
1278.69312	6052.2875
1282.22882	6023.5875
1285.76211	6133.2875
1289.29301	6347.8875
1292.82151	6585.6875
1296.34761	6861.0875
1299.87133	7274.2875
1303.39266	7970.0875
1306.9116	9012.6875
1310.42815	10130.4875
1313.94233	10644.6875
1317.45412	10335.1875
1320.96354	9534.9875
1324.47058	8732.5875
1327.97525	8071.6875
1331.47754	7698.7875
1334.97747	7621.1875
1338.47502	7743.8875
1341.97022	8090.6875
1345.46305	8572.3875
1348.95352	9290.4875
1352.44163	10136.2875
1355.92738	11339.2875
1359.41078	13051.7875
1362.89183	14453.7875
1366.37053	13885.6875
1369.84688	11829.9875
1373.32088	9846.4875
1376.79254	8515.9875
1380.26186	7784.1875
1383.72883	7392.7875
1387.19347	7091.3875
1390.65578	6770.2875
1394.11575	6510.0875
1397.57339	6370.5875
1401.0287	6277.6875
1404.48168	6212.8875
1407.93234	6145.8875
1411.38068	6039.3875
1414.82669	5909.4875
1418.27039	5784.6875
1421.71177	5619.3875
1425.15083	5471.3875
1428.58758	5374.9875
1432.02203	5366.7875
1435.45416	5405.1875
1438.88399	5407.8875
1442.31151	5409.0875
1445.73673	5429.8875
1449.15965	5440.0875
1452.58027	5441.8875
1455.9986	5403.7875
1459.41463	5372.1875
1462.82837	5419.0875
1466.23982	5521.2875
1469.64898	5655.2875
1473.05586	5722.7875
1476.46045	5788.3875
1479.86276	5877.8875
1483.26279	6044.2875
1486.66054	6256.3875
1490.05602	6538.2875
1493.44922	6930.6875
1496.84016	7517.2875
1500.22882	8445.9875
1503.61521	9704.4875
1506.99934	11066.2875
1510.38121	12161.1875
1513.76081	12379.5875
1517.13816	11482.5875
1520.51324	9851.3875
1523.88607	8376.1875
1527.25665	7413.4875
1530.62498	6967.5875
1533.99105	6742.3875
1537.35488	6665.3875
1540.71647	6648.5875
1544.07581	6724.9875
1547.4329	6786.6875
1550.78776	6866.8875
1554.14038	6900.2875
1557.49077	6915.4875
1560.83892	6989.4875
1564.18484	7134.1875
1567.52853	7353.9875
1570.86999	7578.8875
1574.20922	7731.5875
1577.54624	7687.7875
1580.88103	7335.9875
1584.2136	6799.2875
1587.54395	6513.6875
1590.87208	6514.8875
1594.19801	6787.0875
1597.52172	7182.5875
1600.84321	7411.5875
1604.16251	7315.4875
1607.47959	7033.8875
1610.79447	6691.6875
1614.10715	6324.7875
1617.41763	6049.9875
1620.7259	5868.5875
1624.03199	5798.4875
1627.33587	5819.9875
1630.63757	5926.6875
1633.93707	6138.9875
1637.23439	6506.8875
1640.52951	7087.9875
1643.82246	7945.6875
1647.11321	9000.7875
1650.40179	9844.9875
1653.68819	9735.5875
1656.97241	8680.9875
1660.25446	7454.7875
1663.53433	6511.5875
1666.81203	5877.8875
1670.08756	5473.7875
1673.36092	5176.3875
1676.63211	4982.2875
1679.90115	4829.8875
1683.16801	4717.0875
1686.43272	4600.8875
1689.69527	4500.9875
1692.95567	4406.0875
1696.2139	4340.4875
1699.46999	4265.1875
1702.72392	4172.9875
1705.97571	4098.2875
1709.22535	4046.8875
1712.47284	3996.7875
1715.71819	3942.3875
1718.96139	3906.6875
1722.20246	3869.3875
1725.44139	3822.5875
1728.67818	3775.7875
1731.91284	3722.5875
1735.14537	3669.6875
1738.37576	3643.1875
1741.60403	3599.2875
1744.83017	3588.4875
1748.05418	3578.0875
1751.27607	3575.4875
1754.49584	3556.0875
1757.71349	3544.3875
1760.92903	3522.0875
1764.14244	3498.3875
1767.35375	3483.5875
1770.56294	3463.7875
1773.77002	3453.7875
1776.97499	3418.6875
1780.17785	3397.7875
1783.37861	3382.8875
1786.57727	3383.5875
1789.77382	3352.4875
1792.96828	3343.2875
1796.16064	3342.1875
1799.3509	3320.6875
1802.53907	3323.6875
1805.72514	3310.3875
1808.90913	3279.5875
1812.09102	3271.1875
1815.27083	3272.4875
1818.44856	3259.3875
1821.6242	3250.0875
1824.79776	3227.7875
1827.96924	3226.9875
1831.13864	3228.3875
1834.30597	3231.5875
1837.47122	3210.1875
1840.6344	3213.7875
1843.7955	3195.8875
1846.95454	3200.6875
1850.11151	3197.5875
1853.26642	3194.6875
1856.41926	3187.7875
1859.57004	3176.2875
1862.71876	3193.3875
1865.86542	3181.8875
1869.01003	3168.0875
1872.15258	3160.2875
1875.29308	3168.8875
1878.43152	3149.7875
1881.56792	3147.5875
1884.70227	3136.2875
1887.83457	3142.4875
1890.96482	3141.6875
1894.09304	3134.9875
1897.21921	3121.6875
1900.34335	3118.4875
1903.46544	3121.6875
1906.58551	3116.7875
1909.70353	3109.6875
1912.81953	3108.1875
1915.93349	3085.0875
1919.04543	3092.7875
1922.15534	3076.4875
1925.26322	3072.8875
1928.36908	3055.4875
1931.47292	3051.7875
1934.57473	3042.7875
1937.67453	3038.0875
1940.77232	3026.3875
1943.86808	3026.8875
1946.96184	3007.2875
1950.05358	2989.9875
1953.14331	2987.6875
1956.23103	2993.1875
1959.31675	2967.8875
1962.40046	2966.3875
1965.48217	2951.7875
1968.56188	2955.6875
1971.63959	2933.0875
1974.7153	2940.0875
1977.78901	2919.4875
1980.86073	2901.2875
1983.93046	2892.1875
1986.99819	2884.3875
1990.06394	2881.5875
1993.1277	2861.3875
1996.18947	2845.7875
1999.24925	2856.4875
2002.30706	2835.2875
2005.36288	2824.7875
2008.41672	2814.9875
2011.46859	2806.6875
2014.51848	2804.2875
2017.56639	2780.3875
2020.61233	2784.5875
2023.6563	2779.5875
2026.6983	2780.5875
2029.73833	2757.2875
2032.7764	2751.3875
2035.8125	2763.7875
2038.84664	2728.5875
2041.87881	2749.0875
2044.90903	2729.2875
2047.93729	2718.0875
2050.96359	2718.8875
2053.98794	2719.1875
2057.01034	2725.1875
2060.03078	2706.7875
2063.04927	2713.7875
2066.06582	2710.4875
2069.08042	2704.3875
2072.09307	2694.8875
2075.10378	2691.0875
2078.11255	2693.6875
2081.11938	2698.9875
2084.12426	2687.8875
2087.12722	2692.9875
2090.12824	2687.0875
2093.12732	2685.9875
2096.12447	2689.9875
2099.11969	2689.9875
2102.11299	2680.1875
2105.10435	2688.4875
2108.09379	2692.3875
2111.08131	2694.9875
2114.0669	2682.2875
2117.05057	2687.1875
2120.03233	2691.3875
2123.01216	2682.7875
2125.99008	2693.8875
2128.96609	2696.7875
2131.94018	2689.5875
2134.91236	2697.5875
2137.88263	2690.1875
2140.851	2698.2875
2143.81746	2684.9875
2146.78201	2698.7875
2149.74466	2685.0875
2152.7054	2686.1875
2155.66425	2673.3875
2158.6212	2674.4875
2161.57625	2674.1875
2164.52941	2673.6875
2167.48067	2676.4875
2170.43004	2672.5875
2173.37752	2668.6875
2176.32311	2655.7875
2179.26681	2662.3875
2182.20863	2667.5875
2185.14856	2663.2875
2188.08661	2657.9875
2191.02278	2664.3875
2193.95707	2649.4875
2196.88948	2649.4875
2199.82001	2638.5875
2202.74867	2647.2875
2205.67545	2643.8875
2208.60037	2628.9875
2211.52341	2625.4875
2214.44458	2615.6875
2217.36388	2607.6875
2220.28132	2603.1875
2223.1969	2591.9875
2226.11061	2599.0875
2229.02246	2592.5875
2231.93245	2566.5875
2234.84058	2580.7875
2237.74686	2570.6875
2240.65128	2565.8875
2243.55385	2563.1875
2246.45456	2555.5875
2249.35343	2562.2875
2252.25044	2566.0875
2255.14561	2560.2875
2258.03893	2559.8875
2260.93041	2565.2875
2263.82004	2558.0875
2266.70783	2551.0875
2269.59378	2532.0875
2272.4779	2531.9875
2275.36017	2525.6875
2278.24061	2524.1875
2281.11922	2524.9875
2283.996	2503.2875
2286.87094	2513.8875
2289.74405	2497.8875
2292.61534	2490.8875
2295.4848	2484.2875
2298.35243	2484.3875
2301.21824	2464.1875
2304.08223	2469.0875
2306.94439	2473.4875
2309.80474	2463.0875
2312.66327	2464.1875
2315.51999	2453.2875
2318.37489	2448.4875
2321.22797	2448.9875
2324.07925	2439.9875
2326.92871	2453.2875
2329.77637	2435.7875
2332.62222	2436.9875
2335.46626	2421.4875
2338.3085	2427.8875
2341.14893	2423.6875
2343.98756	2420.6875
2346.8244	2409.3875
2349.65943	2416.8875
2352.49267	2428.4875
2355.32411	2423.7875
2358.15376	2433.2875
2360.98161	2432.2875
2363.80768	2426.0875
2366.63195	2444.3875
2369.45444	2432.1875
2372.27514	2432.0875
2375.09405	2435.3875
2377.91118	2425.8875
2380.72652	2422.1875
2383.54009	2415.8875
2386.35187	2407.4875
2389.16188	2387.6875
2391.97011	2385.6875
2394.77657	2374.4875
2397.58125	2365.8875
2400.38416	2377.1875
2403.18529	2358.7875
2405.98466	2363.9875
2408.78226	2342.2875
2411.57809	2342.9875
2414.37216	2336.3875
2417.16446	2338.1875
2419.955	2326.9875
2422.74378	2326.9875
2425.5308	2323.3875
2428.31606	2320.9875
2431.09956	2305.9875
2433.88131	2312.7875
2436.6613	2317.2875
2439.43954	2319.1875
2442.21603	2299.8875
2444.99077	2299.8875
2447.76377	2294.1875
2450.53501	2307.5875
2453.30451	2297.4875
2456.07226	2293.0875
2458.83827	2307.4875
2461.60254	2285.0875
2464.36507	2288.5875
2467.12586	2275.9875
2469.88492	2278.5875
2472.64224	2277.4875
2475.39782	2292.0875
2478.15167	2291.6875
2480.90379	2274.9875
2483.65417	2289.0875
2486.40283	2298.6875
2489.14976	2291.8875
2491.89497	2304.1875
2494.63845	2305.4875
2497.3802	2293.6875
2500.12024	2289.0875
2502.85855	2273.2875
2505.59514	2273.6875
2508.33002	2256.5875
2511.06318	2265.3875
2513.79462	2257.5875
2516.52435	2234.8875
2519.25237	2224.4875
2521.97867	2220.1875
2524.70327	2210.6875
2527.42616	2215.5875
2530.14734	2227.2875
2532.86681	2194.2875
2535.58458	2196.1875
2538.30065	2205.2875
2541.01501	2201.5875
2543.72768	2197.1875
2546.43864	2194.5875
2549.14791	2189.4875
2551.85548	2181.8875
2554.56136	2181.7875
2557.26554	2180.4875
2559.96803	2165.0875
2562.66883	2180.1875
2565.36794	2163.0875
2568.06536	2170.3875
2570.7611	2153.4875
2573.45514	2148.7875
2576.14751	2159.4875
2578.83819	2143.5875
2581.52719	2140.5875
2584.21451	2141.8875
2586.90015	2142.3875
2589.58411	2124.3875
2592.2664	2123.7875
2594.94701	2127.6875
2597.62594	2120.7875
2600.30321	2111.0875
2602.9788	2106.2875
2605.65273	2103.2875
2608.32498	2097.3875
2610.99557	2101.0875
2613.66449	2088.8875
2616.33175	2107.6875
2618.99734	2093.7875
2621.66128	2092.3875
2624.32355	2085.3875
2626.98416	2092.0875
2629.64311	2076.5875
2632.30041	2077.9875
2634.95605	2078.7875
2637.61004	2063.3875
2640.26238	2071.6875
2642.91306	2059.8875
2645.56209	2067.2875
2648.20948	2060.4875
2650.85521	2051.3875
2653.4993	2060.3875
2656.14175	2054.2875
2658.78255	2056.7875
2661.42171	2058.6875
2664.05923	2050.4875
2666.6951	2051.7875
2669.32934	2060.8875
2671.96194	2058.6875
2674.59291	2054.9875
2677.22224	2068.0875
2679.84993	2066.2875
2682.476	2062.4875
2685.10043	2075.6875
2687.72324	2065.5875
2690.34441	2058.3875
2692.96396	2059.9875
2695.58188	2066.9875
2698.19818	2069.9875
2700.81285	2068.7875
2703.4259	2085.4875
2706.03733	2111.3875
2708.64714	2094.1875
2711.25533	2078.5875
2713.86191	2073.2875
2716.46687	2084.1875
2719.07021	2082.2875
2721.67194	2074.1875
2724.27206	2077.7875
2726.87057	2083.7875
2729.46747	2077.7875
2732.06276	2076.3875
2734.65644	2071.6875
2737.24852	2066.2875
2739.83899	2057.9875
2742.42786	2058.8875
2745.01513	2052.5875
2747.60079	2052.0875
2750.18486	2061.1875
2752.76733	2040.8875
2755.3482	2031.8875
2757.92747	2048.5875
2760.50515	2046.0875
2763.08123	2041.0875
2765.65573	2031.4875
2768.22863	2039.1875
2770.79994	2034.5875
2773.36967	2026.2875
2775.9378	2023.4875
2778.50435	2014.1875
2781.06932	2013.7875
2783.6327	2016.8875
2786.1945	2022.3875
2788.75471	2017.4875
2791.31335	2010.1875
2793.87041	2012.1875
2796.42589	2007.3875
2798.97979	2004.8875
2801.53212	2009.8875
2804.08288	2009.1875
2806.63206	1996.8875
2809.17967	1998.8875
2811.72571	1997.5875
2814.27018	1988.2875
2816.81308	1991.1875
2819.35442	1999.5875
2821.89419	1995.3875
2824.43239	2002.9875
2826.96904	1993.3875
2829.50412	2005.0875
2832.03763	2000.6875
2834.56959	2007.7875
2837.1	2002.5875
2839.62884	2010.1875
2842.15613	2013.3875
2844.68186	2024.0875
2847.20604	2037.1875
2849.72867	2050.2875
2852.24974	2060.7875
2854.76927	2069.0875
2857.28724	2063.7875
2859.80367	2061.9875
2862.31855	2060.5875
2864.83189	2059.5875
2867.34368	2057.9875
2869.85393	2054.8875
2872.36264	2047.2875
2874.8698	2056.8875
2877.37543	2061.7875
2879.87952	2047.0875
2882.38207	2043.0875
2884.88308	2042.8875
2887.38256	2050.4875
2889.88051	2056.2875
2892.37692	2051.3875
2894.8718	2048.5875
2897.36515	2054.8875
2899.85698	2055.8875
2902.34727	2063.7875
2904.83604	2059.1875
2907.32328	2065.6875
2909.809	2061.1875
2912.29319	2056.7875
2914.77587	2062.8875
2917.25702	2058.4875
2919.73665	2054.7875
2922.21476	2051.6875
2924.69136	2049.3875
2927.16644	2043.9875
2929.64	2048.6875
2932.11205	2051.0875
2934.58258	2037.2875
2937.05161	2034.8875
2939.51912	2018.5875
2941.98513	2015.5875
2944.44962	2003.0875
2946.91261	2001.6875
2949.37409	2006.5875
2951.83407	1993.1875
2954.29254	1989.8875
2956.74951	1980.9875
2959.20498	1980.8875
2961.65895	1965.6875
2964.11142	1972.2875
2966.56239	1964.0875
2969.01186	1957.9875
2971.45984	1951.9875
2973.90632	1953.5875
2976.35131	1937.9875
2978.7948	1949.3875
2981.23681	1946.8875
2983.67732	1949.0875
2986.11635	1934.8875
2988.55388	1942.1875
2990.98993	1938.5875
2993.4245	1925.7875
2995.85758	1929.7875
2998.28917	1929.2875
3000.71928	1924.6875
3003.14791	1927.8875
3005.57506	1926.9875
3008.00073	1925.6875
3010.42493	1912.3875
3012.84764	1916.1875
3015.26888	1925.5875
3017.68865	1924.8875
3020.10694	1925.2875
3022.52376	1931.2875
3024.9391	1921.3875
3027.35298	1921.0875
3029.76539	1911.7875
3032.17632	1917.9875
3034.5858	1922.9875
3036.9938	1917.5875
3039.40034	1927.7875
3041.80542	1917.8875
3044.20903	1908.7875
3046.61118	1918.2875
3049.01187	1923.6875
3051.4111	1924.3875
3053.80888	1929.4875
3056.20519	1926.3875
3058.60005	1913.4875
3060.99345	1920.0875
3063.3854	1916.7875
3065.7759	1924.3875
3068.16494	1928.6875
3070.55254	1929.0875
3072.93868	1919.5875
3075.32338	1932.0875
3077.70662	1924.3875
3080.08842	1927.0875
3082.46878	1935.6875
3084.84769	1937.3875
3087.22515	1941.0875
3089.60118	1936.5875
3091.97576	1945.3875
3094.3489	1948.3875
3096.72061	1939.4875
3099.09087	1960.1875
3101.4597	1956.6875
3103.82709	1961.7875
3106.19305	1952.1875
3108.55757	1967.9875
3110.92066	1963.7875
3113.28232	1962.6875
3115.64255	1966.2875
3118.00134	1972.6875
3120.35871	1981.1875
3122.71466	1988.7875
3125.06917	1987.8875
3127.42226	1987.2875
3129.77393	2001.8875
3132.12417	2005.0875
3134.47299	2011.3875
3136.82039	2006.6875
3139.16636	2026.3875
3141.51092	2019.4875
3143.85406	2045.3875
3146.19579	2049.2875
3148.53609	2049.1875
3150.87499	2065.3875
3153.21246	2074.6875
3155.54853	2076.7875
3157.88318	2087.7875
3160.21642	2087.0875
3162.54826	2098.3875
3164.87868	2094.7875
3167.2077	2124.1875
3169.5353	2117.0875
3171.86151	2122.1875
3174.18631	2134.8875
3176.5097	2132.7875
3178.83169	2125.3875
3181.15228	2138.9875
3183.47147	2143.2875
3185.78926	2151.8875
3188.10565	2156.5875
3190.42065	2166.0875
3192.73424	2167.1875
3195.04645	2175.5875
3197.35725	2173.8875
3199.66667	2195.1875
3201.97469	2211.9875
3204.28132	2209.3875
3206.58656	2215.8875
3208.8904	2218.2875
3211.19287	2230.3875
3213.49394	2233.2875
3215.79363	2231.7875
3218.09193	2239.8875
3220.38884	2252.6875
3222.68438	2255.4875
3224.97853	2248.7875
3227.2713	2246.3875
3229.56269	2249.8875
3231.8527	2250.9875
3234.14133	2244.6875
3236.42858	2245.0875
3238.71446	2242.5875
3240.99896	2246.3875
3243.28209	2253.5875
3245.56384	2250.7875
3247.84423	2253.2875
3250.12324	2244.4875
3252.40088	2264.0875
3254.67715	2247.3875
3256.95205	2244.9875
3259.22558	2244.2875
3261.49775	2241.9875
3263.76855	2247.1875
3266.03799	2239.4875
3268.30606	2250.9875
3270.57277	2233.0875
3272.83812	2244.3875
3275.10211	2238.3875
3277.36474	2239.4875
3279.62601	2227.4875
3281.88593	2239.3875
3284.14448	2237.5875
3286.40168	2229.3875
3288.65753	2230.8875
3290.91202	2226.4875
3293.16516	2216.5875
3295.41695	2214.7875
3297.66738	2210.9875
3299.91647	2190.6875
3302.16421	2185.7875
3304.4106	2174.2875
3306.65564	2164.4875
3308.89933	2161.9875
3311.14169	2161.2875
3313.38269	2135.3875
3315.62236	2113.1875
3317.86068	2089.6875
3320.09766	2076.5875
3322.3333	2054.0875
3324.5676	2074.3875
3326.80056	2034.6875
3329.03219	2023.3875
3331.26248	-0.4125
3333.49143	1.1875
3335.71905	-0.6125
