Data from AgNPs_FTO_APTES_UA_0.1mM_CRN_1000uM_NaF_0.1M_Addition_RamanShift__0__15-14-07-798.txt Node

Date: Mon Dec 20 15:14:07 GMT 2021
User: TCL
Spectrometer: QEP01345
Trigger mode: 4
Integration Time (sec): 7.000000E0
Scans to average: 10
Electric dark correction enabled: true
Nonlinearity correction enabled: false
Boxcar width: 0
XAxis mode: Raman Shifts
Number of Pixels in Spectrum: 1044
>>>>>Begin Spectral Data<<<<<
46.04893	0.8
50.45542	0.9
54.85868	-1.2
59.25871	0.1
63.6555	13.1
68.04907	12.2
72.43941	12.9
76.82654	16.7
81.21044	14.2
85.59113	18.6
89.96862	15.1
94.34289	16.8
98.71396	15.8
103.08183	15.5
107.4465	18.1
111.80798	20.5
116.16626	18.7
120.52136	22.7
124.87327	21.8
129.222	20.1
133.56755	18.9
137.90993	25.1
142.24913	23
146.58517	21.3
150.91804	29.3
155.24774	33
159.57429	37.3
163.89768	48
168.21792	58.8
172.53501	75.1
176.84895	99.9
181.15975	139.9
185.46741	192.9
189.77193	268
194.07331	355.6
198.37157	459.6
202.6667	571.1
206.9587	691.2
211.24758	803.6
215.53334	929.2
219.81599	1043.2
224.09553	1178.3
228.37195	1339.4
232.64527	1502.4
236.91549	1679.4
241.18261	1841.5
245.44663	1971.6
249.70755	2102.1
253.96539	2194.5
258.22014	2240.9
262.4718	2281.2
266.72039	2290.3
270.96589	2295.3
275.20832	2259.4
279.44768	2229.3
283.68397	2184.9
287.91719	2153.2
292.14735	2125.5
296.37445	2086.5
300.59849	2071.3
304.81948	2052.5
309.03742	2034.8
313.25231	2038.9
317.46415	1999.5
321.67296	1984.3
325.87872	1952.5
330.08145	1937.1
334.28114	1939.1
338.47781	1948.5
342.67145	1956.2
346.86207	1970.8
351.04966	1995.7
355.23424	2023.7
359.4158	2042.7
363.59435	2064.4
367.76989	2094.1
371.94243	2115.7
376.11196	2135.8
380.27849	2173.4
384.44203	2187
388.60257	2219.2
392.76012	2248.4
396.91468	2273
401.06626	2297.5
405.21485	2320.9
409.36047	2350.7
413.50311	2395.3
417.64277	2460.6
421.77947	2561.3
425.9132	2700.5
430.04396	2796.6
434.17176	2810.9
438.2966	2722.7
442.41849	2623
446.53742	2556.5
450.6534	2537.6
454.76644	2517.5
458.87653	2518.4
462.98368	2477.7
467.08789	2444.5
471.18916	2445.9
475.2875	2458.3
479.38291	2508.2
483.4754	2569.8
487.56496	2661.9
491.6516	2758.1
495.73531	2818.8
499.81612	2787.7
503.89401	2742.7
507.96899	2666.6
512.04106	2609.6
516.11023	2583.2
520.1765	2567.2
524.23987	2590.2
528.30034	2596.2
532.35792	2619
536.41261	2600.1
540.46441	2572.3
544.51333	2533.3
548.55936	2488.9
552.60252	2458.8
556.64279	2445.1
560.6802	2447
564.71473	2432.3
568.7464	2448.9
572.7752	2456.2
576.80114	2464.1
580.82422	2497.3
584.84444	2565.7
588.86181	2610.3
592.87633	2658.8
596.888	2677.6
600.89682	2660.4
604.9028	2671.3
608.90594	2725.4
612.90624	2797.9
616.90371	2826.9
620.89834	2807.9
624.89015	2893.1
628.87913	3102.5
632.86528	3315.4
636.84862	3509.6
640.82913	3508.8
644.80683	3362.6
648.78172	3150.4
652.75379	2946.5
656.72306	2781.8
660.68952	2709.1
664.65319	2651.2
668.61405	2604.1
672.57211	2586.6
676.52738	2596
680.47986	2607.7
684.42955	2626.6
688.37646	2651.4
692.32058	2668.8
696.26192	2714.3
700.20048	2802
704.13626	2884.3
708.06928	2928
711.99952	2889.4
715.927	2781.5
719.85171	2732.8
723.77365	2703.8
727.69284	2687.5
731.60928	2659.3
735.52295	2609.5
739.43388	2561.5
743.34206	2528.5
747.24749	2521.4
751.15017	2497
755.05012	2490.6
758.94733	2482
762.8418	2508.8
766.73354	2544.3
770.62254	2577.2
774.50882	2575.8
778.39237	2539.8
782.27321	2502.1
786.15132	2457.9
790.02671	2427.4
793.89938	2441.6
797.76935	2453.7
801.6366	2489.4
805.50115	2546.7
809.36299	2666.6
813.22213	2733
817.07857	2744
820.93231	2657.3
824.78336	2555.2
828.63172	2450.9
832.47738	2396.9
836.32036	2369.2
840.16066	2354.3
843.99827	2343.2
847.8332	2356.9
851.66546	2346.9
855.49504	2341.8
859.32195	2352.7
863.1462	2361.7
866.96777	2390.6
870.78668	2432.7
874.60293	2473.7
878.41652	2528.7
882.22745	2598.9
886.03573	2645.2
889.84136	2676.5
893.64433	2652.5
897.44466	2576.9
901.24235	2481.4
905.0374	2391.2
908.8298	2328.8
912.61957	2295.7
916.40671	2275.6
920.19121	2266.5
923.97308	2247.5
927.75233	2246.8
931.52895	2245
935.30295	2232.6
939.07433	2232.9
942.84309	2212.1
946.60924	2215
950.37278	2192
954.13371	2186.8
957.89203	2169
961.64774	2168.3
965.40086	2165.4
969.15137	2146.6
972.89929	2148.4
976.64461	2143.4
980.38733	2129.4
984.12747	2132.2
987.86502	2128.7
991.59999	2143.2
995.33237	2164.8
999.06217	2181.3
1002.78939	2207.7
1006.51404	2220.3
1010.23611	2266.5
1013.95561	2288.7
1017.67255	2307.5
1021.38692	2302.9
1025.09872	2286.5
1028.80796	2268.9
1032.51465	2250.1
1036.21877	2213
1039.92035	2170.1
1043.61937	2165.7
1047.31584	2163.6
1051.00976	2149.3
1054.70114	2162.8
1058.38998	2177
1062.07627	2205.5
1065.76003	2243.2
1069.44126	2275.8
1073.11995	2294.9
1076.79611	2320
1080.46974	2312.7
1084.14085	2285.5
1087.80943	2249.6
1091.47549	2225.8
1095.13903	2208.5
1098.80005	2199.2
1102.45857	2200.3
1106.11456	2199
1109.76805	2231.8
1113.41903	2284.3
1117.06751	2374.9
1120.71348	2518.4
1124.35696	2708.5
1127.99793	2922.7
1131.63641	3129.4
1135.2724	3222.9
1138.90589	3191
1142.5369	3057.1
1146.16542	2873.6
1149.79145	2659.4
1153.415	2488.8
1157.03607	2343.2
1160.65467	2259.8
1164.27079	2214.6
1167.88443	2205
1171.49561	2189.9
1175.10432	2215.2
1178.71056	2259.1
1182.31434	2287.9
1185.91565	2332
1189.51451	2362.5
1193.11091	2397.9
1196.70485	2443.9
1200.29634	2489.2
1203.88538	2539.5
1207.47197	2555
1211.05612	2528.6
1214.63782	2478.8
1218.21708	2417.9
1221.79391	2361.7
1225.36829	2307
1228.94024	2284.7
1232.50976	2278.6
1236.07685	2275.1
1239.6415	2313.3
1243.20374	2365.8
1246.76355	2419.1
1250.32093	2516.5
1253.8759	2576.3
1257.42845	2648.5
1260.97859	2668.5
1264.52631	2684.3
1268.07163	2670.3
1271.61453	2626.1
1275.15503	2558.4
1278.69312	2489.4
1282.22882	2409.9
1285.76211	2359.2
1289.29301	2316.5
1292.82151	2300.2
1296.34761	2287
1299.87133	2289.6
1303.39266	2307.1
1306.9116	2331.9
1310.42815	2380.6
1313.94233	2416.4
1317.45412	2420.6
1320.96354	2420.6
1324.47058	2466.3
1327.97525	2563.3
1331.47754	2419.3
1334.97747	2399.7
1338.47502	2419.9
1341.97022	2438.1
1345.46305	2471.5
1348.95352	2528.4
1352.44163	2577.3
1355.92738	2642.8
1359.41078	2737.2
1362.89183	2795.1
1366.37053	2821.6
1369.84688	2780.4
1373.32088	2721.4
1376.79254	2690.3
1380.26186	2720
1383.72883	2829.6
1387.19347	2928.7
1390.65578	2884.4
1394.11575	2687.9
1397.57339	2488.7
1401.0287	2337.4
1404.48168	2261.8
1407.93234	2201
1411.38068	2155.4
1414.82669	2099.3
1418.27039	2052.2
1421.71177	2019.3
1425.15083	1983.9
1428.58758	1960.7
1432.02203	1939.5
1435.45416	1928
1438.88399	1902.4
1442.31151	1894.2
1445.73673	1966
1449.15965	1989.6
1452.58027	1891.9
1455.9986	1866.2
1459.41463	1854.1
1462.82837	1859.9
1466.23982	1862.7
1469.64898	1887.8
1473.05586	1881
1476.46045	1887.5
1479.86276	1898.2
1483.26279	1900
1486.66054	1919.9
1490.05602	1920.8
1493.44922	1945.5
1496.84016	1976.4
1500.22882	2022.6
1503.61521	2077.3
1506.99934	2143.2
1510.38121	2178.9
1513.76081	2197.8
1517.13816	2159.7
1520.51324	2105.3
1523.88607	2064.7
1527.25665	2033.8
1530.62498	2040
1533.99105	2048.9
1537.35488	2075.3
1540.71647	2096.3
1544.07581	2098.7
1547.4329	2120.1
1550.78776	2151.9
1554.14038	2161.3
1557.49077	2167.5
1560.83892	2177.1
1564.18484	2181.6
1567.52853	2194.9
1570.86999	2194.3
1574.20922	2207.7
1577.54624	2220.9
1580.88103	2224.3
1584.2136	2203.8
1587.54395	2180.3
1590.87208	2175.1
1594.19801	2203.1
1597.52172	2263.2
1600.84321	2289.1
1604.16251	2268.5
1607.47959	2259.1
1610.79447	2233.6
1614.10715	2226.8
1617.41763	2240.1
1620.7259	2271.9
1624.03199	2317.4
1627.33587	2384.4
1630.63757	2466.7
1633.93707	2573.2
1637.23439	2696.7
1640.52951	2855.2
1643.82246	3043.4
1647.11321	3252.9
1650.40179	3460
1653.68819	3686.2
1656.97241	3728.9
1660.25446	3678.3
1663.53433	3600.3
1666.81203	3481
1670.08756	3302
1673.36092	3109.7
1676.63211	2933.7
1679.90115	2821.8
1683.16801	2792.4
1686.43272	2804
1689.69527	2905.7
1692.95567	3202.1
1696.2139	3705.2
1699.46999	4204.4
1702.72392	4207.9
1705.97571	3623.9
1709.22535	2942.1
1712.47284	2475.1
1715.71819	2176.1
1718.96139	1995.6
1722.20246	1901.4
1725.44139	1839
1728.67818	1801.8
1731.91284	1771.5
1735.14537	1763.2
1738.37576	1764.4
1741.60403	1805.6
1744.83017	1849.4
1748.05418	1941.5
1751.27607	2101.5
1754.49584	2381.5
1757.71349	2739.9
1760.92903	2926.5
1764.14244	2872.7
1767.35375	2839.4
1770.56294	2855.5
1773.77002	2688.4
1776.97499	2321.7
1780.17785	2002.4
1783.37861	1780.5
1786.57727	1669.9
1789.77382	1587.6
1792.96828	1547.1
1796.16064	1502.2
1799.3509	1475.8
1802.53907	1464
1805.72514	1436.4
1808.90913	1429
1812.09102	1425.7
1815.27083	1413.3
1818.44856	1393.4
1821.6242	1384
1824.79776	1377.2
1827.96924	1383.7
1831.13864	1364.3
1834.30597	1369.6
1837.47122	1361
1840.6344	1350.1
1843.7955	1354.4
1846.95454	1347.1
1850.11151	1345.6
1853.26642	1346.1
1856.41926	1344.4
1859.57004	1344.6
1862.71876	1333.6
1865.86542	1328.7
1869.01003	1321.8
1872.15258	1313.5
1875.29308	1326.6
1878.43152	1314.1
1881.56792	1301.1
1884.70227	1299.1
1887.83457	1299.1
1890.96482	1303.8
1894.09304	1307.2
1897.21921	1296.6
1900.34335	1291
1903.46544	1289
1906.58551	1289.4
1909.70353	1289.7
1912.81953	1278.5
1915.93349	1277
1919.04543	1271.7
1922.15534	1266.1
1925.26322	1261.7
1928.36908	1262.9
1931.47292	1256.7
1934.57473	1254.9
1937.67453	1246.1
1940.77232	1245.6
1943.86808	1253.6
1946.96184	1246.8
1950.05358	1233.4
1953.14331	1232.9
1956.23103	1220.3
1959.31675	1221.3
1962.40046	1211.9
1965.48217	1211.5
1968.56188	1212.5
1971.63959	1201.8
1974.7153	1191
1977.78901	1190
1980.86073	1187.5
1983.93046	1182
1986.99819	1180.7
1990.06394	1176.1
1993.1277	1169.7
1996.18947	1168.4
1999.24925	1162.7
2002.30706	1166.3
2005.36288	1152.5
2008.41672	1153.6
2011.46859	1148.4
2014.51848	1147.1
2017.56639	1136.5
2020.61233	1140.1
2023.6563	1134.3
2026.6983	1125.6
2029.73833	1128.6
2032.7764	1126
2035.8125	1117.6
2038.84664	1110.9
2041.87881	1111
2044.90903	1109.8
2047.93729	1099.4
2050.96359	1108.8
2053.98794	1142.5
2057.01034	1121.3
2060.03078	1111.1
2063.04927	1101.4
2066.06582	1098.4
2069.08042	1095.1
2072.09307	1090
2075.10378	1092
2078.11255	1086.5
2081.11938	1086.8
2084.12426	1088.9
2087.12722	1087.2
2090.12824	1087.8
2093.12732	1080.4
2096.12447	1079.3
2099.11969	1081.5
2102.11299	1077.7
2105.10435	1075.9
2108.09379	1087.2
2111.08131	1083.1
2114.0669	1086.5
2117.05057	1079.9
2120.03233	1078.8
2123.01216	1079.7
2125.99008	1066.8
2128.96609	1081.6
2131.94018	1068.4
2134.91236	1079.5
2137.88263	1074.2
2140.851	1073.4
2143.81746	1083.2
2146.78201	1074.3
2149.74466	1070.3
2152.7054	1072.5
2155.66425	1076.4
2158.6212	1067
2161.57625	1065.9
2164.52941	1066.3
2167.48067	1066.5
2170.43004	1066.4
2173.37752	1061.8
2176.32311	1055.5
2179.26681	1053.2
2182.20863	1052.1
2185.14856	1058.3
2188.08661	1054.8
2191.02278	1050.1
2193.95707	1042.4
2196.88948	1051.7
2199.82001	1047.2
2202.74867	1042.9
2205.67545	1042.8
2208.60037	1043.3
2211.52341	1028.8
2214.44458	1029.1
2217.36388	1029
2220.28132	1030.4
2223.1969	1020.9
2226.11061	1035.8
2229.02246	1013.1
2231.93245	1016.4
2234.84058	1016.4
2237.74686	1015.2
2240.65128	1014.8
2243.55385	1013.1
2246.45456	1004.2
2249.35343	1010.7
2252.25044	1005.2
2255.14561	1005
2258.03893	1072.2
2260.93041	1210.4
2263.82004	1096.9
2266.70783	1048.3
2269.59378	1017
2272.4779	995.7
2275.36017	988.3
2278.24061	980.8
2281.11922	979.9
2283.996	973.7
2286.87094	967.3
2289.74405	966.1
2292.61534	966.1
2295.4848	972.4
2298.35243	967.1
2301.21824	966.2
2304.08223	959.9
2306.94439	958.3
2309.80474	966
2312.66327	966.1
2315.51999	965.8
2318.37489	962.8
2321.22797	968.4
2324.07925	967.2
2326.92871	971.8
2329.77637	976.2
2332.62222	974.9
2335.46626	982.1
2338.3085	975.5
2341.14893	969.8
2343.98756	975.4
2346.8244	965.9
2349.65943	955.3
2352.49267	951.9
2355.32411	943.2
2358.15376	939.4
2360.98161	931.1
2363.80768	927.2
2366.63195	919.6
2369.45444	921.6
2372.27514	915.3
2375.09405	921.8
2377.91118	906.5
2380.72652	905.6
2383.54009	907.5
2386.35187	910.7
2389.16188	909.7
2391.97011	909.5
2394.77657	901
2397.58125	894.8
2400.38416	901
2403.18529	900.5
2405.98466	903.7
2408.78226	908.5
2411.57809	908
2414.37216	891.3
2417.16446	901.2
2419.955	894.2
2422.74378	892.2
2425.5308	875.3
2428.31606	878.4
2431.09956	873.7
2433.88131	876
2436.6613	875.7
2439.43954	861.9
2442.21603	863
2444.99077	854.2
2447.76377	853.5
2450.53501	864.1
2453.30451	862.4
2456.07226	859.3
2458.83827	849.1
2461.60254	848.6
2464.36507	846.7
2467.12586	845
2469.88492	850.6
2472.64224	858.1
2475.39782	953.4
2478.15167	993.6
2480.90379	905.9
2483.65417	875.7
2486.40283	859.6
2489.14976	855
2491.89497	859.7
2494.63845	973.6
2497.3802	1001.3
2500.12024	907.1
2502.85855	874.1
2505.59514	855.3
2508.33002	844.8
2511.06318	831.6
2513.79462	832.8
2516.52435	826.5
2519.25237	813.9
2521.97867	819.5
2524.70327	825.5
2527.42616	817.1
2530.14734	824.8
2532.86681	813.8
2535.58458	807
2538.30065	808.5
2541.01501	808.7
2543.72768	803
2546.43864	802.2
2549.14791	804.8
2551.85548	802.6
2554.56136	797.1
2557.26554	791.5
2559.96803	789.4
2562.66883	791.2
2565.36794	780.2
2568.06536	786.6
2570.7611	781.6
2573.45514	781.5
2576.14751	779.4
2578.83819	775.9
2581.52719	772.2
2584.21451	766.2
2586.90015	769.8
2589.58411	767.1
2592.2664	765.6
2594.94701	770.9
2597.62594	763.7
2600.30321	760.5
2602.9788	764.9
2605.65273	757.9
2608.32498	759.1
2610.99557	752.7
2613.66449	752.9
2616.33175	753.6
2618.99734	747.2
2621.66128	751.6
2624.32355	754.6
2626.98416	753.2
2629.64311	745.2
2632.30041	742.3
2634.95605	742.1
2637.61004	735.9
2640.26238	739.2
2642.91306	737.8
2645.56209	755.6
2648.20948	782.3
2650.85521	766.5
2653.4993	751.8
2656.14175	743.3
2658.78255	740.9
2661.42171	732.5
2664.05923	727.7
2666.6951	727.1
2669.32934	728.3
2671.96194	730.9
2674.59291	732.6
2677.22224	724
2679.84993	723.7
2682.476	721.9
2685.10043	729.2
2687.72324	726.8
2690.34441	722.1
2692.96396	723.9
2695.58188	729.5
2698.19818	732.7
2700.81285	762.7
2703.4259	1006.9
2706.03733	1547.3
2708.64714	1198.6
2711.25533	956.6
2713.86191	883.8
2716.46687	845.4
2719.07021	791.9
2721.67194	752.6
2724.27206	730.3
2726.87057	736.5
2729.46747	726.7
2732.06276	723.1
2734.65644	720.3
2737.24852	718.4
2739.83899	718.9
2742.42786	716
2745.01513	712
2747.60079	720
2750.18486	715.8
2752.76733	704.6
2755.3482	710.2
2757.92747	708
2760.50515	710.4
2763.08123	704.8
2765.65573	702.2
2768.22863	709.6
2770.79994	706.5
2773.36967	707.6
2775.9378	696.6
2778.50435	692.2
2781.06932	699.8
2783.6327	696.4
2786.1945	700
2788.75471	698
2791.31335	699.4
2793.87041	690.9
2796.42589	690.8
2798.97979	682.8
2801.53212	683
2804.08288	686.5
2806.63206	684.9
2809.17967	684.1
2811.72571	689.7
2814.27018	679.8
2816.81308	681.9
2819.35442	682.1
2821.89419	681
2824.43239	680.7
2826.96904	669.7
2829.50412	675.5
2832.03763	677.5
2834.56959	676.2
2837.1	672.1
2839.62884	669.1
2842.15613	672.9
2844.68186	677.4
2847.20604	675.1
2849.72867	670.3
2852.24974	687.5
2854.76927	794.2
2857.28724	926
2859.80367	806.6
2862.31855	747.5
2864.83189	736.3
2867.34368	720.2
2869.85393	703.2
2872.36264	682.2
2874.8698	682.5
2877.37543	673.8
2879.87952	674.1
2882.38207	674.3
2884.88308	678.1
2887.38256	680.4
2889.88051	668.7
2892.37692	675.1
2894.8718	676.8
2897.36515	676.1
2899.85698	681.4
2902.34727	681.3
2904.83604	685
2907.32328	682.3
2909.809	685.5
2912.29319	687.9
2914.77587	695.2
2917.25702	684.1
2919.73665	690.8
2922.21476	685.4
2924.69136	692.5
2927.16644	692.1
2929.64	687.8
2932.11205	690.2
2934.58258	700.8
2937.05161	691.1
2939.51912	696.6
2941.98513	693.6
2944.44962	698.3
2946.91261	682.7
2949.37409	687.1
2951.83407	682.5
2954.29254	679.8
2956.74951	684.6
2959.20498	684.7
2961.65895	675.9
2964.11142	675.3
2966.56239	671.7
2969.01186	679.9
2971.45984	673.8
2973.90632	668.1
2976.35131	659
2978.7948	659.8
2981.23681	657.4
2983.67732	653.3
2986.11635	658.9
2988.55388	659.4
2990.98993	657.1
2993.4245	656.9
2995.85758	653.4
2998.28917	646.3
3000.71928	653.7
3003.14791	655
3005.57506	649.5
3008.00073	649.9
3010.42493	652.2
3012.84764	655.6
3015.26888	655.5
3017.68865	653.3
3020.10694	656.3
3022.52376	660.1
3024.9391	657.7
3027.35298	654.5
3029.76539	647
3032.17632	651.1
3034.5858	649.8
3036.9938	655
3039.40034	654.5
3041.80542	657.2
3044.20903	650.4
3046.61118	656.9
3049.01187	652.3
3051.4111	651.7
3053.80888	654.7
3056.20519	659.9
3058.60005	646.2
3060.99345	658.3
3063.3854	651.5
3065.7759	652
3068.16494	655.8
3070.55254	659.2
3072.93868	663.2
3075.32338	661
3077.70662	665.8
3080.08842	660.4
3082.46878	666.9
3084.84769	684.7
3087.22515	682.1
3089.60118	668.5
3091.97576	664.3
3094.3489	668.8
3096.72061	673.8
3099.09087	670.4
3101.4597	676
3103.82709	675.5
3106.19305	680.4
3108.55757	681
3110.92066	683.7
3113.28232	680.2
3115.64255	681.5
3118.00134	690
3120.35871	699.2
3122.71466	693.5
3125.06917	692.7
3127.42226	692.8
3129.77393	691.6
3132.12417	700.9
3134.47299	705.1
3136.82039	701.9
3139.16636	702.7
3141.51092	709
3143.85406	718.2
3146.19579	723.4
3148.53609	720.8
3150.87499	724
3153.21246	729.1
3155.54853	734.7
3157.88318	731.7
3160.21642	734.3
3162.54826	743.2
3164.87868	742.8
3167.2077	749
3169.5353	748.8
3171.86151	754.8
3174.18631	749
3176.5097	758
3178.83169	756.9
3181.15228	757.8
3183.47147	756.6
3185.78926	760.4
3188.10565	766.3
3190.42065	765.4
3192.73424	773.2
3195.04645	770.4
3197.35725	767.2
3199.66667	770.6
3201.97469	773.8
3204.28132	783
3206.58656	779.6
3208.8904	778.3
3211.19287	783.9
3213.49394	793.2
3215.79363	795.2
3218.09193	801.3
3220.38884	923.3
3222.68438	1031.2
3224.97853	917.2
3227.2713	862
3229.56269	842.5
3231.8527	836.3
3234.14133	821.6
3236.42858	816.4
3238.71446	802.6
3240.99896	798.7
3243.28209	796.9
3245.56384	788.8
3247.84423	785.5
3250.12324	788.4
3252.40088	791.2
3254.67715	788.7
3256.95205	795
3259.22558	786.1
3261.49775	787.8
3263.76855	788.5
3266.03799	790.9
3268.30606	786.5
3270.57277	786.5
3272.83812	785.9
3275.10211	778.3
3277.36474	780.8
3279.62601	784.3
3281.88593	780.7
3284.14448	778.2
3286.40168	781.8
3288.65753	775.1
3290.91202	781.1
3293.16516	773.5
3295.41695	781.4
3297.66738	768
3299.91647	766.7
3302.16421	761.8
3304.4106	768.5
3306.65564	761.2
3308.89933	764.9
3311.14169	794.1
3313.38269	866
3315.62236	808.3
3317.86068	779.4
3320.09766	758.9
3322.3333	758.1
3324.5676	843
3326.80056	974.8
3329.03219	883.9
3331.26248	0.3
3333.49143	0.6
3335.71905	-0.9
