Data from AgNPs_FTO_APTES_UA_0.1mM_CRN_20uM_NaF_0.1M_Addition_RamanShift__23__12-23-47-607.txt Node

Date: Mon Dec 20 12:23:47 GMT 2021
User: TCL
Spectrometer: QEP01345
Trigger mode: 4
Integration Time (sec): 7.000000E0
Scans to average: 10
Electric dark correction enabled: true
Nonlinearity correction enabled: false
Boxcar width: 0
XAxis mode: Raman Shifts
Number of Pixels in Spectrum: 1044
>>>>>Begin Spectral Data<<<<<
46.04893	0.325
50.45542	-0.175
54.85868	-0.975
59.25871	0.925
63.6555	32.625
68.04907	30.925
72.43941	36.825
76.82654	38.025
81.21044	39.625
85.59113	42.625
89.96862	39.725
94.34289	43.625
98.71396	43.025
103.08183	46.525
107.4465	46.825
111.80798	50.425
116.16626	48.825
120.52136	52.425
124.87327	53.525
129.222	53.925
133.56755	56.725
137.90993	61.225
142.24913	64.225
146.58517	72.225
150.91804	82.725
155.24774	100.825
159.57429	117.925
163.89768	147.525
168.21792	195.625
172.53501	251.525
176.84895	350.725
181.15975	489.925
185.46741	675.125
189.77193	928.525
194.07331	1250.525
198.37157	1618.825
202.6667	2017.525
206.9587	2407.625
211.24758	2807.625
215.53334	3182.025
219.81599	3588.625
224.09553	4020.925
228.37195	4472.825
232.64527	4986.725
236.91549	5505.725
241.18261	6008.025
245.44663	6494.125
249.70755	6943.825
253.96539	7302.525
258.22014	7602.625
262.4718	7825.525
266.72039	7977.125
270.96589	8045.325
275.20832	8034.825
279.44768	7937.325
283.68397	7834.825
287.91719	7716.525
292.14735	7644.325
296.37445	7587.625
300.59849	7585.725
304.81948	7591.625
309.03742	7591.225
313.25231	7505.125
317.46415	7388.625
321.67296	7213.225
325.87872	7091.425
330.08145	7030.025
334.28114	7033.525
338.47781	7070.225
342.67145	7137.225
346.86207	7221.725
351.04966	7352.125
355.23424	7491.725
359.4158	7628.325
363.59435	7723.225
367.76989	7796.825
371.94243	7869.325
376.11196	7947.425
380.27849	8025.425
384.44203	8088.425
388.60257	8155.925
392.76012	8201.725
396.91468	8278.925
401.06626	8360.925
405.21485	8412.625
409.36047	8438.925
413.50311	8346.425
417.64277	8258.625
421.77947	8218.525
425.9132	8218.425
430.04396	8216.425
434.17176	8256.325
438.2966	8291.025
442.41849	8400.825
446.53742	8478.825
450.6534	8588.925
454.76644	8700.225
458.87653	8779.625
462.98368	8754.425
467.08789	8747.225
471.18916	8767.825
475.2875	8753.925
479.38291	8789.925
483.4754	8857.225
487.56496	8950.125
491.6516	9048.025
495.73531	9095.125
499.81612	9057.525
503.89401	9005.125
507.96899	8896.025
512.04106	8857.925
516.11023	8853.525
520.1765	8843.325
524.23987	8879.925
528.30034	8881.125
532.35792	8880.725
536.41261	8822.825
540.46441	8735.925
544.51333	8631.425
548.55936	8595.325
552.60252	8608.625
556.64279	8621.225
560.6802	8705.025
564.71473	8752.325
568.7464	8803.625
572.7752	8890.925
576.80114	8896.825
580.82422	8908.825
584.84444	9003.825
588.86181	9131.625
592.87633	9224.025
596.888	9256.725
600.89682	9249.625
604.9028	9393.125
608.90594	9929.425
612.90624	10728.825
616.90371	10720.225
620.89834	9889.225
624.89015	9707.425
628.87913	10084.325
632.86528	10558.925
636.84862	10841.925
640.82913	10756.325
644.80683	10400.925
648.78172	9869.425
652.75379	9481.825
656.72306	9273.025
660.68952	9211.725
664.65319	9145.025
668.61405	9085.625
672.57211	9094.025
676.52738	9129.325
680.47986	9140.225
684.42955	9145.225
688.37646	9069.325
692.32058	9042.525
696.26192	8967.125
700.20048	8908.125
704.13626	8850.925
708.06928	8770.225
711.99952	8706.525
715.927	8645.125
719.85171	8656.125
723.77365	8684.325
727.69284	8695.925
731.60928	8646.025
735.52295	8539.725
739.43388	8503.325
743.34206	8492.425
747.24749	8529.525
751.15017	8515.225
755.05012	8563.225
758.94733	8651.225
762.8418	8872.625
766.73354	9225.625
770.62254	9634.225
774.50882	9831.225
778.39237	9653.825
782.27321	9188.225
786.15132	8786.625
790.02671	8555.625
793.89938	8474.925
797.76935	8499.525
801.6366	8569.025
805.50115	8753.725
809.36299	8968.925
813.22213	9043.125
817.07857	8955.125
820.93231	8718.625
824.78336	8466.125
828.63172	8290.925
832.47738	8197.525
836.32036	8125.025
840.16066	8106.825
843.99827	8086.025
847.8332	8062.825
851.66546	8067.825
855.49504	8063.125
859.32195	8070.025
863.1462	8099.625
866.96777	8153.025
870.78668	8237.625
874.60293	8380.525
878.41652	8507.725
882.22745	8635.525
886.03573	8726.425
889.84136	8722.725
893.64433	8597.325
897.44466	8369.525
901.24235	8171.225
905.0374	7994.925
908.8298	7890.225
912.61957	7833.825
916.40671	7803.525
920.19121	7801.625
923.97308	7830.125
927.75233	7802.225
931.52895	7784.225
935.30295	7764.025
939.07433	7685.125
942.84309	7636.925
946.60924	7600.525
950.37278	7597.225
954.13371	7559.425
957.89203	7546.025
961.64774	7521.125
965.40086	7488.325
969.15137	7481.125
972.89929	7421.825
976.64461	7407.525
980.38733	7368.225
984.12747	7376.725
987.86502	7379.325
991.59999	7434.025
995.33237	7480.425
999.06217	7574.525
1002.78939	7666.025
1006.51404	7805.325
1010.23611	7893.425
1013.95561	7959.425
1017.67255	7988.325
1021.38692	7924.825
1025.09872	7857.125
1028.80796	7749.725
1032.51465	7683.325
1036.21877	7643.125
1039.92035	7610.425
1043.61937	7581.025
1047.31584	7555.325
1051.00976	7535.425
1054.70114	7560.425
1058.38998	7588.725
1062.07627	7634.825
1065.76003	7715.625
1069.44126	7769.125
1073.11995	7806.325
1076.79611	7814.525
1080.46974	7822.125
1084.14085	7789.525
1087.80943	7751.725
1091.47549	7724.325
1095.13903	7656.725
1098.80005	7590.325
1102.45857	7537.825
1106.11456	7525.025
1109.76805	7539.225
1113.41903	7649.925
1117.06751	7818.625
1120.71348	8084.225
1124.35696	8468.125
1127.99793	8935.525
1131.63641	9376.825
1135.2724	9584.825
1138.90589	9598.325
1142.5369	9366.525
1146.16542	8980.025
1149.79145	8567.525
1153.415	8241.025
1157.03607	7972.325
1160.65467	7860.625
1164.27079	7865.125
1167.88443	7970.625
1171.49561	8146.225
1175.10432	8437.025
1178.71056	8870.525
1182.31434	9287.925
1185.91565	9485.425
1189.51451	9517.925
1193.11091	9475.625
1196.70485	9423.125
1200.29634	9411.825
1203.88538	9371.925
1207.47197	9210.625
1211.05612	9013.025
1214.63782	8770.525
1218.21708	8506.525
1221.79391	8308.625
1225.36829	8134.025
1228.94024	8033.125
1232.50976	7923.325
1236.07685	7863.525
1239.6415	7830.925
1243.20374	7851.725
1246.76355	7887.925
1250.32093	7945.125
1253.8759	8009.225
1257.42845	8096.125
1260.97859	8192.125
1264.52631	8294.025
1268.07163	8354.925
1271.61453	8437.825
1275.15503	8522.825
1278.69312	8554.725
1282.22882	8608.225
1285.76211	8692.425
1289.29301	8829.325
1292.82151	9033.025
1296.34761	9296.725
1299.87133	9605.025
1303.39266	9976.625
1306.9116	10446.225
1310.42815	10892.425
1313.94233	11173.025
1317.45412	11189.225
1320.96354	11010.025
1324.47058	10819.525
1327.97525	10619.625
1331.47754	10515.525
1334.97747	10473.625
1338.47502	10520.125
1341.97022	10605.225
1345.46305	10736.525
1348.95352	10864.325
1352.44163	11079.225
1355.92738	11364.625
1359.41078	11911.925
1362.89183	12449.125
1366.37053	12313.025
1369.84688	11475.925
1373.32088	10538.825
1376.79254	9941.625
1380.26186	9587.625
1383.72883	9420.525
1387.19347	9339.925
1390.65578	9207.525
1394.11575	9113.425
1397.57339	9086.025
1401.0287	9054.025
1404.48168	9056.925
1407.93234	9003.425
1411.38068	8863.025
1414.82669	8621.025
1418.27039	8383.525
1421.71177	8126.025
1425.15083	7904.925
1428.58758	7752.625
1432.02203	7711.925
1435.45416	7721.125
1438.88399	7760.025
1442.31151	7820.825
1445.73673	7835.125
1449.15965	7920.225
1452.58027	7975.025
1455.9986	8006.025
1459.41463	8028.725
1462.82837	8093.525
1466.23982	8164.425
1469.64898	8261.825
1473.05586	8316.325
1476.46045	8342.225
1479.86276	8317.825
1483.26279	8323.425
1486.66054	8335.425
1490.05602	8364.425
1493.44922	8470.325
1496.84016	8627.825
1500.22882	8866.225
1503.61521	9211.525
1506.99934	9671.725
1510.38121	10041.525
1513.76081	10151.825
1517.13816	9888.925
1520.51324	9413.025
1523.88607	8964.525
1527.25665	8695.825
1530.62498	8537.425
1533.99105	8530.025
1537.35488	8539.725
1540.71647	8545.925
1544.07581	8527.125
1547.4329	8522.325
1550.78776	8512.525
1554.14038	8500.925
1557.49077	8550.625
1560.83892	8590.325
1564.18484	8658.425
1567.52853	8712.825
1570.86999	8775.025
1574.20922	8857.325
1577.54624	8868.325
1580.88103	8821.525
1584.2136	8722.725
1587.54395	8691.025
1590.87208	8790.125
1594.19801	8988.825
1597.52172	9273.025
1600.84321	9400.225
1604.16251	9283.425
1607.47959	8994.725
1610.79447	8706.225
1614.10715	8400.525
1617.41763	8169.325
1620.7259	7990.825
1624.03199	7936.525
1627.33587	7936.425
1630.63757	8007.425
1633.93707	8231.225
1637.23439	8534.325
1640.52951	9010.525
1643.82246	9605.425
1647.11321	10198.225
1650.40179	10454.525
1653.68819	10307.125
1656.97241	9664.325
1660.25446	8917.225
1663.53433	8331.725
1666.81203	7954.425
1670.08756	7668.825
1673.36092	7488.225
1676.63211	7360.125
1679.90115	7267.325
1683.16801	7150.725
1686.43272	7042.925
1689.69527	6920.625
1692.95567	6789.525
1696.2139	6653.625
1699.46999	6553.125
1702.72392	6422.525
1705.97571	6328.225
1709.22535	6222.525
1712.47284	6142.825
1715.71819	6075.225
1718.96139	6013.725
1722.20246	5959.925
1725.44139	5892.025
1728.67818	5840.525
1731.91284	5765.225
1735.14537	5708.025
1738.37576	5669.025
1741.60403	5647.725
1744.83017	5620.525
1748.05418	5606.325
1751.27607	5573.325
1754.49584	5580.025
1757.71349	5566.125
1760.92903	5550.225
1764.14244	5532.925
1767.35375	5524.125
1770.56294	5491.525
1773.77002	5461.725
1776.97499	5447.425
1780.17785	5392.125
1783.37861	5374.825
1786.57727	5353.325
1789.77382	5346.925
1792.96828	5308.525
1796.16064	5295.525
1799.3509	5258.025
1802.53907	5250.825
1805.72514	5228.425
1808.90913	5208.425
1812.09102	5197.725
1815.27083	5183.825
1818.44856	5191.925
1821.6242	5164.425
1824.79776	5153.525
1827.96924	5150.525
1831.13864	5120.525
1834.30597	5126.725
1837.47122	5120.825
1840.6344	5122.925
1843.7955	5101.325
1846.95454	5100.225
1850.11151	5108.525
1853.26642	5094.425
1856.41926	5070.425
1859.57004	5068.125
1862.71876	5079.325
1865.86542	5068.225
1869.01003	5048.825
1872.15258	5047.625
1875.29308	5052.025
1878.43152	5024.025
1881.56792	5021.525
1884.70227	5015.925
1887.83457	5013.725
1890.96482	5009.225
1894.09304	4996.625
1897.21921	4988.125
1900.34335	4986.925
1903.46544	4973.425
1906.58551	4966.625
1909.70353	4961.525
1912.81953	4952.925
1915.93349	4949.725
1919.04543	4902.625
1922.15534	4912.025
1925.26322	4905.125
1928.36908	4892.025
1931.47292	4862.825
1934.57473	4867.625
1937.67453	4837.225
1940.77232	4830.325
1943.86808	4822.925
1946.96184	4797.925
1950.05358	4796.925
1953.14331	4778.925
1956.23103	4773.725
1959.31675	4765.325
1962.40046	4733.625
1965.48217	4720.925
1968.56188	4713.225
1971.63959	4690.625
1974.7153	4682.125
1977.78901	4651.125
1980.86073	4653.425
1983.93046	4637.125
1986.99819	4620.925
1990.06394	4616.225
1993.1277	4588.725
1996.18947	4565.725
1999.24925	4541.225
2002.30706	4539.125
2005.36288	4531.825
2008.41672	4511.125
2011.46859	4516.725
2014.51848	4488.725
2017.56639	4478.925
2020.61233	4453.625
2023.6563	4460.825
2026.6983	4444.825
2029.73833	4434.325
2032.7764	4426.425
2035.8125	4411.025
2038.84664	4401.225
2041.87881	4390.325
2044.90903	4385.925
2047.93729	4377.825
2050.96359	4380.025
2053.98794	4373.825
2057.01034	4358.225
2060.03078	4363.525
2063.04927	4354.325
2066.06582	4350.525
2069.08042	4346.625
2072.09307	4342.125
2075.10378	4322.925
2078.11255	4320.725
2081.11938	4325.825
2084.12426	4323.625
2087.12722	4326.625
2090.12824	4310.925
2093.12732	4322.625
2096.12447	4317.925
2099.11969	4318.025
2102.11299	4317.825
2105.10435	4321.425
2108.09379	4319.125
2111.08131	4299.425
2114.0669	4304.125
2117.05057	4316.925
2120.03233	4315.025
2123.01216	4316.825
2125.99008	4316.525
2128.96609	4320.725
2131.94018	4318.725
2134.91236	4317.825
2137.88263	4341.525
2140.851	4326.425
2143.81746	4326.825
2146.78201	4332.125
2149.74466	4327.825
2152.7054	4331.825
2155.66425	4311.525
2158.6212	4324.425
2161.57625	4339.525
2164.52941	4320.025
2167.48067	4316.225
2170.43004	4325.525
2173.37752	4309.525
2176.32311	4313.425
2179.26681	4306.525
2182.20863	4289.625
2185.14856	4297.725
2188.08661	4289.225
2191.02278	4291.525
2193.95707	4298.525
2196.88948	4279.525
2199.82001	4289.325
2202.74867	4264.525
2205.67545	4269.025
2208.60037	4268.325
2211.52341	4245.425
2214.44458	4250.125
2217.36388	4236.025
2220.28132	4222.025
2223.1969	4209.125
2226.11061	4206.625
2229.02246	4198.325
2231.93245	4184.025
2234.84058	4184.725
2237.74686	4174.125
2240.65128	4168.025
2243.55385	4174.625
2246.45456	4156.625
2249.35343	4144.125
2252.25044	4142.725
2255.14561	4124.025
2258.03893	4133.225
2260.93041	4130.625
2263.82004	4115.225
2266.70783	4109.225
2269.59378	4102.025
2272.4779	4081.525
2275.36017	4084.725
2278.24061	4064.525
2281.11922	4053.825
2283.996	4036.525
2286.87094	4043.925
2289.74405	4035.225
2292.61534	4016.325
2295.4848	4013.525
2298.35243	4029.425
2301.21824	4001.925
2304.08223	4011.125
2306.94439	4002.925
2309.80474	3994.025
2312.66327	3997.525
2315.51999	3991.925
2318.37489	3983.925
2321.22797	3977.625
2324.07925	3966.325
2326.92871	3978.125
2329.77637	3967.525
2332.62222	3953.325
2335.46626	3937.825
2338.3085	3944.725
2341.14893	3940.125
2343.98756	3935.025
2346.8244	3921.025
2349.65943	3902.825
2352.49267	3919.825
2355.32411	3921.925
2358.15376	3915.125
2360.98161	3913.525
2363.80768	3899.825
2366.63195	3908.125
2369.45444	3907.925
2372.27514	3896.925
2375.09405	3906.625
2377.91118	3886.025
2380.72652	3882.025
2383.54009	3857.425
2386.35187	3869.425
2389.16188	3860.925
2391.97011	3845.325
2394.77657	3840.325
2397.58125	3815.525
2400.38416	3825.725
2403.18529	3813.325
2405.98466	3821.425
2408.78226	3813.725
2411.57809	3789.925
2414.37216	3779.225
2417.16446	3787.525
2419.955	3769.525
2422.74378	3768.625
2425.5308	3766.125
2428.31606	3755.825
2431.09956	3752.825
2433.88131	3748.925
2436.6613	3747.825
2439.43954	3735.125
2442.21603	3745.925
2444.99077	3738.425
2447.76377	3717.525
2450.53501	3721.425
2453.30451	3734.325
2456.07226	3717.125
2458.83827	3710.425
2461.60254	3706.025
2464.36507	3712.725
2467.12586	3693.025
2469.88492	3704.725
2472.64224	3691.625
2475.39782	3693.825
2478.15167	3697.525
2480.90379	3680.625
2483.65417	3688.525
2486.40283	3697.125
2489.14976	3686.925
2491.89497	3666.825
2494.63845	3687.125
2497.3802	3678.725
2500.12024	3670.725
2502.85855	3649.825
2505.59514	3677.725
2508.33002	3640.425
2511.06318	3665.925
2513.79462	3634.525
2516.52435	3635.125
2519.25237	3624.825
2521.97867	3619.325
2524.70327	3610.625
2527.42616	3606.925
2530.14734	3616.625
2532.86681	3610.825
2535.58458	3595.725
2538.30065	3600.425
2541.01501	3604.525
2543.72768	3584.625
2546.43864	3579.625
2549.14791	3566.325
2551.85548	3572.625
2554.56136	3548.125
2557.26554	3555.625
2559.96803	3553.225
2562.66883	3531.525
2565.36794	3527.025
2568.06536	3540.025
2570.7611	3525.725
2573.45514	3512.325
2576.14751	3513.325
2578.83819	3503.525
2581.52719	3500.925
2584.21451	3487.225
2586.90015	3479.525
2589.58411	3486.125
2592.2664	3477.225
2594.94701	3466.525
2597.62594	3461.525
2600.30321	3454.725
2602.9788	3465.125
2605.65273	3458.625
2608.32498	3440.425
2610.99557	3436.825
2613.66449	3444.525
2616.33175	3428.525
2618.99734	3439.425
2621.66128	3444.225
2624.32355	3416.825
2626.98416	3425.725
2629.64311	3411.725
2632.30041	3414.325
2634.95605	3405.525
2637.61004	3401.625
2640.26238	3407.125
2642.91306	3385.125
2645.56209	3403.025
2648.20948	3398.425
2650.85521	3392.025
2653.4993	3383.925
2656.14175	3387.925
2658.78255	3387.425
2661.42171	3382.525
2664.05923	3386.425
2666.6951	3378.125
2669.32934	3377.825
2671.96194	3362.825
2674.59291	3375.525
2677.22224	3385.725
2679.84993	3373.825
2682.476	3375.925
2685.10043	3388.325
2687.72324	3373.825
2690.34441	3382.625
2692.96396	3375.125
2695.58188	3375.425
2698.19818	3380.025
2700.81285	3379.825
2703.4259	3382.925
2706.03733	3418.525
2708.64714	3401.625
2711.25533	3384.525
2713.86191	3389.325
2716.46687	3391.125
2719.07021	3394.025
2721.67194	3380.125
2724.27206	3380.025
2726.87057	3393.625
2729.46747	3377.525
2732.06276	3379.025
2734.65644	3378.125
2737.24852	3387.325
2739.83899	3368.525
2742.42786	3367.725
2745.01513	3353.025
2747.60079	3355.525
2750.18486	3351.425
2752.76733	3345.325
2755.3482	3340.325
2757.92747	3343.225
2760.50515	3331.325
2763.08123	3336.625
2765.65573	3330.325
2768.22863	3350.025
2770.79994	3330.925
2773.36967	3319.725
2775.9378	3316.725
2778.50435	3308.825
2781.06932	3303.125
2783.6327	3316.825
2786.1945	3312.325
2788.75471	3302.025
2791.31335	3274.125
2793.87041	3285.625
2796.42589	3276.125
2798.97979	3265.925
2801.53212	3276.525
2804.08288	3259.325
2806.63206	3250.225
2809.17967	3246.625
2811.72571	3244.025
2814.27018	3239.325
2816.81308	3236.425
2819.35442	3222.225
2821.89419	3218.425
2824.43239	3199.925
2826.96904	3223.025
2829.50412	3213.025
2832.03763	3222.325
2834.56959	3219.125
2837.1	3208.325
2839.62884	3212.725
2842.15613	3207.125
2844.68186	3205.725
2847.20604	3209.325
2849.72867	3205.025
2852.24974	3224.225
2854.76927	3201.525
2857.28724	3213.525
2859.80367	3199.625
2862.31855	3193.825
2864.83189	3202.525
2867.34368	3201.925
2869.85393	3203.325
2872.36264	3192.125
2874.8698	3191.625
2877.37543	3198.125
2879.87952	3205.725
2882.38207	3194.425
2884.88308	3196.825
2887.38256	3203.825
2889.88051	3185.925
2892.37692	3194.525
2894.8718	3207.525
2897.36515	3195.025
2899.85698	3201.925
2902.34727	3213.025
2904.83604	3215.125
2907.32328	3224.325
2909.809	3213.225
2912.29319	3214.525
2914.77587	3222.225
2917.25702	3216.825
2919.73665	3218.125
2922.21476	3212.825
2924.69136	3228.725
2927.16644	3224.625
2929.64	3213.625
2932.11205	3220.125
2934.58258	3219.025
2937.05161	3218.025
2939.51912	3217.125
2941.98513	3205.925
2944.44962	3196.625
2946.91261	3192.025
2949.37409	3206.825
2951.83407	3208.125
2954.29254	3194.125
2956.74951	3185.725
2959.20498	3192.825
2961.65895	3183.725
2964.11142	3184.125
2966.56239	3171.625
2969.01186	3164.925
2971.45984	3158.625
2973.90632	3155.725
2976.35131	3139.025
2978.7948	3138.925
2981.23681	3132.525
2983.67732	3135.625
2986.11635	3127.325
2988.55388	3115.025
2990.98993	3122.725
2993.4245	3112.625
2995.85758	3109.425
2998.28917	3109.225
3000.71928	3104.525
3003.14791	3092.125
3005.57506	3113.225
3008.00073	3090.425
3010.42493	3097.525
3012.84764	3089.225
3015.26888	3087.625
3017.68865	3074.125
3020.10694	3084.125
3022.52376	3082.925
3024.9391	3074.825
3027.35298	3064.325
3029.76539	3062.925
3032.17632	3069.125
3034.5858	3062.425
3036.9938	3060.625
3039.40034	3054.325
3041.80542	3059.725
3044.20903	3052.825
3046.61118	3065.125
3049.01187	3063.525
3051.4111	3071.025
3053.80888	3060.925
3056.20519	3052.325
3058.60005	3045.325
3060.99345	3048.925
3063.3854	3032.925
3065.7759	3036.625
3068.16494	3040.625
3070.55254	3026.825
3072.93868	3045.925
3075.32338	3026.125
3077.70662	3030.025
3080.08842	3031.625
3082.46878	3031.825
3084.84769	3031.825
3087.22515	3032.225
3089.60118	3039.925
3091.97576	3049.525
3094.3489	3066.625
3096.72061	3047.625
3099.09087	3048.825
3101.4597	3060.025
3103.82709	3058.125
3106.19305	3037.925
3108.55757	3054.425
3110.92066	3050.425
3113.28232	3055.725
3115.64255	3045.125
3118.00134	3040.925
3120.35871	3039.425
3122.71466	3050.225
3125.06917	3054.225
3127.42226	3040.825
3129.77393	3061.325
3132.12417	3044.725
3134.47299	3064.425
3136.82039	3079.725
3139.16636	3075.425
3141.51092	3077.125
3143.85406	3103.025
3146.19579	3090.225
3148.53609	3097.725
3150.87499	3116.825
3153.21246	3132.625
3155.54853	3127.625
3157.88318	3143.025
3160.21642	3134.225
3162.54826	3139.525
3164.87868	3139.125
3167.2077	3138.725
3169.5353	3150.925
3171.86151	3145.925
3174.18631	3164.825
3176.5097	3159.925
3178.83169	3156.625
3181.15228	3162.225
3183.47147	3160.825
3185.78926	3181.825
3188.10565	3168.525
3190.42065	3167.325
3192.73424	3181.125
3195.04645	3188.525
3197.35725	3179.825
3199.66667	3189.525
3201.97469	3198.425
3204.28132	3208.625
3206.58656	3216.325
3208.8904	3216.925
3211.19287	3210.225
3213.49394	3214.125
3215.79363	3220.225
3218.09193	3235.925
3220.38884	3254.625
3222.68438	3235.225
3224.97853	3234.225
3227.2713	3238.225
3229.56269	3233.025
3231.8527	3224.825
3234.14133	3230.325
3236.42858	3229.125
3238.71446	3219.925
3240.99896	3217.425
3243.28209	3220.125
3245.56384	3215.125
3247.84423	3232.625
3250.12324	3216.125
3252.40088	3216.825
3254.67715	3213.925
3256.95205	3214.725
3259.22558	3208.825
3261.49775	3208.725
3263.76855	3215.025
3266.03799	3199.625
3268.30606	3205.825
3270.57277	3188.825
3272.83812	3179.225
3275.10211	3178.525
3277.36474	3177.125
3279.62601	3188.325
3281.88593	3162.125
3284.14448	3182.025
3286.40168	3175.025
3288.65753	3175.725
3290.91202	3165.125
3293.16516	3153.325
3295.41695	3149.825
3297.66738	3121.425
3299.91647	3109.825
3302.16421	3088.325
3304.4106	3095.825
3306.65564	3072.125
3308.89933	3064.725
3311.14169	3048.225
3313.38269	3032.025
3315.62236	3008.425
3317.86068	2984.925
3320.09766	2953.325
3322.3333	2932.425
3324.5676	2946.325
3326.80056	2892.425
3329.03219	2859.325
3331.26248	0.125
3333.49143	0.325
3335.71905	-0.375
