Data from AgNPs_FTO_APTES_UA_0.1mM_CRN_10uM_NaF_0.1M_Addition_RamanShift__2__11-20-47-535.txt Node

Date: Mon Dec 20 11:20:47 GMT 2021
User: TCL
Spectrometer: QEP01345
Trigger mode: 4
Integration Time (sec): 7.000000E0
Scans to average: 10
Electric dark correction enabled: true
Nonlinearity correction enabled: false
Boxcar width: 0
XAxis mode: Raman Shifts
Number of Pixels in Spectrum: 1044
>>>>>Begin Spectral Data<<<<<
46.04893	0.4875
50.45542	0.0875
54.85868	-1.3125
59.25871	0.8875
63.6555	28.3875
68.04907	31.9875
72.43941	33.2875
76.82654	35.1875
81.21044	38.6875
85.59113	41.5875
89.96862	37.6875
94.34289	42.7875
98.71396	39.9875
103.08183	42.9875
107.4465	44.7875
111.80798	45.8875
116.16626	49.4875
120.52136	50.7875
124.87327	46.8875
129.222	49.6875
133.56755	51.4875
137.90993	54.8875
142.24913	57.8875
146.58517	60.9875
150.91804	72.4875
155.24774	79.9875
159.57429	94.9875
163.89768	122.2875
168.21792	156.8875
172.53501	196.3875
176.84895	269.7875
181.15975	366.9875
185.46741	504.0875
189.77193	697.7875
194.07331	924.6875
198.37157	1193.7875
202.6667	1466.8875
206.9587	1753.4875
211.24758	2037.4875
215.53334	2324.9875
219.81599	2631.7875
224.09553	2955.9875
228.37195	3311.3875
232.64527	3727.6875
236.91549	4134.7875
241.18261	4540.2875
245.44663	4887.8875
249.70755	5171.7875
253.96539	5427.8875
258.22014	5598.5875
262.4718	5743.2875
266.72039	5811.0875
270.96589	5851.7875
275.20832	5809.6875
279.44768	5745.6875
283.68397	5649.7875
287.91719	5569.7875
292.14735	5520.2875
296.37445	5489.4875
300.59849	5486.8875
304.81948	5464.5875
309.03742	5494.5875
313.25231	5479.1875
317.46415	5400.9875
321.67296	5272.0875
325.87872	5168.5875
330.08145	5117.8875
334.28114	5082.5875
338.47781	5100.5875
342.67145	5141.1875
346.86207	5184.2875
351.04966	5251.6875
355.23424	5343.5875
359.4158	5430.5875
363.59435	5469.2875
367.76989	5553.0875
371.94243	5604.2875
376.11196	5619.9875
380.27849	5677.5875
384.44203	5723.4875
388.60257	5776.6875
392.76012	5819.9875
396.91468	5870.3875
401.06626	5963.2875
405.21485	6004.5875
409.36047	5997.5875
413.50311	5960.0875
417.64277	5861.6875
421.77947	5871.1875
425.9132	5874.4875
430.04396	5877.3875
434.17176	5911.6875
438.2966	5948.8875
442.41849	5990.0875
446.53742	6101.5875
450.6534	6211.2875
454.76644	6269.3875
458.87653	6296.0875
462.98368	6269.2875
467.08789	6266.8875
471.18916	6238.4875
475.2875	6218.2875
479.38291	6247.3875
483.4754	6332.0875
487.56496	6418.6875
491.6516	6507.8875
495.73531	6638.8875
499.81612	6644.4875
503.89401	6620.6875
507.96899	6538.6875
512.04106	6459.1875
516.11023	6425.6875
520.1765	6398.7875
524.23987	6405.9875
528.30034	6400.8875
532.35792	6421.2875
536.41261	6369.0875
540.46441	6301.9875
544.51333	6211.6875
548.55936	6161.1875
552.60252	6158.7875
556.64279	6199.4875
560.6802	6247.5875
564.71473	6268.0875
568.7464	6316.0875
572.7752	6360.1875
576.80114	6443.7875
580.82422	6513.3875
584.84444	6664.7875
588.86181	6880.5875
592.87633	7082.0875
596.888	7086.8875
600.89682	6937.6875
604.9028	6939.4875
608.90594	7310.6875
612.90624	7862.6875
616.90371	7792.8875
620.89834	7147.4875
624.89015	7031.1875
628.87913	7406.2875
632.86528	7878.5875
636.84862	8236.7875
640.82913	8216.1875
644.80683	7895.0875
648.78172	7489.3875
652.75379	7121.8875
656.72306	6881.3875
660.68952	6716.5875
664.65319	6575.1875
668.61405	6395.1875
672.57211	6334.8875
676.52738	6350.3875
680.47986	6351.2875
684.42955	6373.6875
688.37646	6355.8875
692.32058	6304.8875
696.26192	6246.2875
700.20048	6227.2875
704.13626	6218.4875
708.06928	6196.4875
711.99952	6172.4875
715.927	6168.7875
719.85171	6218.0875
723.77365	6297.7875
727.69284	6301.5875
731.60928	6247.7875
735.52295	6156.4875
739.43388	6124.7875
743.34206	6116.0875
747.24749	6130.3875
751.15017	6152.6875
755.05012	6201.8875
758.94733	6286.3875
762.8418	6449.3875
766.73354	6768.1875
770.62254	7072.1875
774.50882	7176.4875
778.39237	6989.7875
782.27321	6638.8875
786.15132	6309.2875
790.02671	6142.2875
793.89938	6080.0875
797.76935	6074.7875
801.6366	6149.4875
805.50115	6285.4875
809.36299	6482.2875
813.22213	6589.1875
817.07857	6536.4875
820.93231	6375.1875
824.78336	6162.9875
828.63172	5998.4875
832.47738	5917.8875
836.32036	5863.4875
840.16066	5865.8875
843.99827	5850.2875
847.8332	5830.4875
851.66546	5831.9875
855.49504	5830.5875
859.32195	5859.8875
863.1462	5856.3875
866.96777	5897.5875
870.78668	5966.4875
874.60293	6085.2875
878.41652	6208.9875
882.22745	6335.9875
886.03573	6456.1875
889.84136	6508.5875
893.64433	6424.0875
897.44466	6239.2875
901.24235	6083.9875
905.0374	5928.5875
908.8298	5815.1875
912.61957	5760.4875
916.40671	5724.5875
920.19121	5742.8875
923.97308	5751.7875
927.75233	5752.7875
931.52895	5744.7875
935.30295	5694.1875
939.07433	5622.0875
942.84309	5581.6875
946.60924	5517.3875
950.37278	5527.4875
954.13371	5524.9875
957.89203	5482.9875
961.64774	5487.4875
965.40086	5455.1875
969.15137	5471.5875
972.89929	5443.7875
976.64461	5427.6875
980.38733	5422.6875
984.12747	5428.5875
987.86502	5447.4875
991.59999	5477.3875
995.33237	5520.9875
999.06217	5600.5875
1002.78939	5720.5875
1006.51404	5809.5875
1010.23611	5898.3875
1013.95561	5952.5875
1017.67255	6005.8875
1021.38692	5989.2875
1025.09872	5918.7875
1028.80796	5817.9875
1032.51465	5780.2875
1036.21877	5737.6875
1039.92035	5698.5875
1043.61937	5679.4875
1047.31584	5670.9875
1051.00976	5648.0875
1054.70114	5668.5875
1058.38998	5692.0875
1062.07627	5715.1875
1065.76003	5781.3875
1069.44126	5853.4875
1073.11995	5942.1875
1076.79611	5998.3875
1080.46974	6011.9875
1084.14085	5993.2875
1087.80943	5962.7875
1091.47549	5975.2875
1095.13903	5932.6875
1098.80005	5869.2875
1102.45857	5795.8875
1106.11456	5760.0875
1109.76805	5780.5875
1113.41903	5895.7875
1117.06751	6102.9875
1120.71348	6398.7875
1124.35696	6817.6875
1127.99793	7308.4875
1131.63641	7706.7875
1135.2724	7899.1875
1138.90589	7819.7875
1142.5369	7578.8875
1146.16542	7245.2875
1149.79145	6883.7875
1153.415	6548.9875
1157.03607	6280.7875
1160.65467	6174.0875
1164.27079	6159.2875
1167.88443	6253.7875
1171.49561	6429.8875
1175.10432	6705.9875
1178.71056	7080.0875
1182.31434	7428.2875
1185.91565	7573.1875
1189.51451	7574.0875
1193.11091	7512.9875
1196.70485	7465.8875
1200.29634	7454.1875
1203.88538	7421.4875
1207.47197	7340.6875
1211.05612	7211.7875
1214.63782	7056.8875
1218.21708	6859.5875
1221.79391	6696.1875
1225.36829	6554.0875
1228.94024	6453.2875
1232.50976	6342.4875
1236.07685	6266.7875
1239.6415	6228.5875
1243.20374	6237.2875
1246.76355	6267.3875
1250.32093	6327.4875
1253.8759	6410.8875
1257.42845	6524.5875
1260.97859	6632.9875
1264.52631	6736.3875
1268.07163	6829.4875
1271.61453	6887.7875
1275.15503	6943.7875
1278.69312	7028.1875
1282.22882	7084.4875
1285.76211	7198.8875
1289.29301	7347.8875
1292.82151	7555.3875
1296.34761	7778.3875
1299.87133	8086.5875
1303.39266	8402.9875
1306.9116	8745.1875
1310.42815	9097.9875
1313.94233	9328.7875
1317.45412	9328.2875
1320.96354	9176.5875
1324.47058	8942.2875
1327.97525	8742.8875
1331.47754	8592.9875
1334.97747	8500.5875
1338.47502	8442.6875
1341.97022	8454.1875
1345.46305	8520.0875
1348.95352	8651.2875
1352.44163	8890.3875
1355.92738	9291.0875
1359.41078	9811.8875
1362.89183	10329.6875
1366.37053	10339.3875
1369.84688	9674.4875
1373.32088	8822.6875
1376.79254	8248.0875
1380.26186	7974.2875
1383.72883	7817.4875
1387.19347	7706.9875
1390.65578	7534.1875
1394.11575	7400.2875
1397.57339	7377.4875
1401.0287	7332.8875
1404.48168	7305.0875
1407.93234	7207.9875
1411.38068	7038.9875
1414.82669	6855.2875
1418.27039	6664.8875
1421.71177	6453.7875
1425.15083	6307.1875
1428.58758	6231.2875
1432.02203	6228.1875
1435.45416	6264.1875
1438.88399	6347.5875
1442.31151	6377.7875
1445.73673	6408.4875
1449.15965	6441.7875
1452.58027	6463.5875
1455.9986	6426.4875
1459.41463	6454.0875
1462.82837	6490.7875
1466.23982	6580.1875
1469.64898	6662.0875
1473.05586	6719.4875
1476.46045	6758.1875
1479.86276	6781.2875
1483.26279	6781.4875
1486.66054	6858.1875
1490.05602	6931.3875
1493.44922	7069.1875
1496.84016	7250.1875
1500.22882	7486.6875
1503.61521	7807.5875
1506.99934	8172.5875
1510.38121	8478.6875
1513.76081	8558.4875
1517.13816	8346.7875
1520.51324	7961.5875
1523.88607	7601.5875
1527.25665	7406.9875
1530.62498	7324.7875
1533.99105	7323.1875
1537.35488	7290.7875
1540.71647	7264.3875
1544.07581	7211.9875
1547.4329	7156.4875
1550.78776	7102.7875
1554.14038	7091.6875
1557.49077	7095.3875
1560.83892	7107.1875
1564.18484	7150.1875
1567.52853	7187.5875
1570.86999	7253.6875
1574.20922	7314.3875
1577.54624	7338.6875
1580.88103	7250.1875
1584.2136	7158.1875
1587.54395	7158.0875
1590.87208	7281.2875
1594.19801	7496.0875
1597.52172	7712.1875
1600.84321	7827.1875
1604.16251	7691.5875
1607.47959	7395.1875
1610.79447	7123.0875
1614.10715	6829.4875
1617.41763	6634.7875
1620.7259	6508.5875
1624.03199	6480.1875
1627.33587	6529.1875
1630.63757	6643.4875
1633.93707	6853.8875
1637.23439	7219.2875
1640.52951	7723.6875
1643.82246	8346.2875
1647.11321	8929.4875
1650.40179	9210.2875
1653.68819	8916.1875
1656.97241	8240.5875
1660.25446	7560.8875
1663.53433	7025.6875
1666.81203	6687.9875
1670.08756	6447.5875
1673.36092	6282.7875
1676.63211	6215.1875
1679.90115	6149.7875
1683.16801	6072.1875
1686.43272	5978.1875
1689.69527	5886.0875
1692.95567	5798.2875
1696.2139	5697.5875
1699.46999	5597.4875
1702.72392	5506.2875
1705.97571	5385.4875
1709.22535	5245.4875
1712.47284	5126.9875
1715.71819	5019.3875
1718.96139	4952.6875
1722.20246	4849.8875
1725.44139	4802.4875
1728.67818	4743.6875
1731.91284	4668.0875
1735.14537	4627.5875
1738.37576	4591.1875
1741.60403	4542.0875
1744.83017	4534.6875
1748.05418	4517.7875
1751.27607	4511.9875
1754.49584	4490.9875
1757.71349	4484.2875
1760.92903	4481.3875
1764.14244	4463.9875
1767.35375	4451.8875
1770.56294	4451.9875
1773.77002	4455.1875
1776.97499	4432.1875
1780.17785	4398.4875
1783.37861	4395.1875
1786.57727	4382.0875
1789.77382	4364.3875
1792.96828	4353.9875
1796.16064	4339.1875
1799.3509	4321.9875
1802.53907	4303.0875
1805.72514	4308.2875
1808.90913	4286.4875
1812.09102	4288.1875
1815.27083	4270.6875
1818.44856	4250.7875
1821.6242	4247.6875
1824.79776	4238.7875
1827.96924	4244.1875
1831.13864	4232.7875
1834.30597	4246.7875
1837.47122	4222.0875
1840.6344	4210.0875
1843.7955	4212.2875
1846.95454	4227.2875
1850.11151	4210.0875
1853.26642	4206.4875
1856.41926	4207.0875
1859.57004	4198.8875
1862.71876	4202.4875
1865.86542	4184.7875
1869.01003	4179.9875
1872.15258	4180.3875
1875.29308	4175.0875
1878.43152	4174.2875
1881.56792	4170.5875
1884.70227	4144.2875
1887.83457	4135.9875
1890.96482	4136.0875
1894.09304	4129.3875
1897.21921	4128.0875
1900.34335	4130.3875
1903.46544	4102.6875
1906.58551	4129.6875
1909.70353	4100.1875
1912.81953	4103.5875
1915.93349	4087.4875
1919.04543	4089.6875
1922.15534	4078.3875
1925.26322	4062.4875
1928.36908	4059.2875
1931.47292	4047.0875
1934.57473	4036.8875
1937.67453	4020.4875
1940.77232	4015.6875
1943.86808	4004.6875
1946.96184	3999.1875
1950.05358	3975.9875
1953.14331	3982.4875
1956.23103	3964.1875
1959.31675	3951.3875
1962.40046	3937.4875
1965.48217	3930.5875
1968.56188	3935.0875
1971.63959	3906.1875
1974.7153	3904.5875
1977.78901	3890.2875
1980.86073	3872.9875
1983.93046	3867.5875
1986.99819	3847.7875
1990.06394	3818.1875
1993.1277	3832.6875
1996.18947	3805.1875
1999.24925	3817.4875
2002.30706	3787.5875
2005.36288	3772.6875
2008.41672	3780.2875
2011.46859	3764.0875
2014.51848	3738.5875
2017.56639	3743.8875
2020.61233	3719.8875
2023.6563	3709.5875
2026.6983	3708.4875
2029.73833	3683.7875
2032.7764	3696.5875
2035.8125	3688.4875
2038.84664	3675.4875
2041.87881	3675.2875
2044.90903	3658.2875
2047.93729	3654.8875
2050.96359	3658.3875
2053.98794	3645.9875
2057.01034	3656.0875
2060.03078	3646.6875
2063.04927	3630.9875
2066.06582	3638.0875
2069.08042	3639.8875
2072.09307	3631.9875
2075.10378	3626.7875
2078.11255	3616.8875
2081.11938	3618.8875
2084.12426	3627.3875
2087.12722	3612.1875
2090.12824	3610.5875
2093.12732	3633.6875
2096.12447	3631.1875
2099.11969	3617.6875
2102.11299	3617.6875
2105.10435	3617.4875
2108.09379	3627.8875
2111.08131	3625.5875
2114.0669	3637.6875
2117.05057	3630.5875
2120.03233	3620.1875
2123.01216	3646.4875
2125.99008	3646.0875
2128.96609	3635.7875
2131.94018	3655.8875
2134.91236	3646.7875
2137.88263	3636.9875
2140.851	3636.7875
2143.81746	3643.0875
2146.78201	3626.2875
2149.74466	3639.6875
2152.7054	3643.2875
2155.66425	3641.1875
2158.6212	3635.0875
2161.57625	3638.6875
2164.52941	3617.4875
2167.48067	3617.4875
2170.43004	3636.4875
2173.37752	3622.3875
2176.32311	3619.6875
2179.26681	3622.4875
2182.20863	3617.8875
2185.14856	3619.1875
2188.08661	3623.8875
2191.02278	3623.5875
2193.95707	3601.4875
2196.88948	3605.0875
2199.82001	3597.8875
2202.74867	3601.6875
2205.67545	3590.0875
2208.60037	3600.9875
2211.52341	3580.5875
2214.44458	3563.7875
2217.36388	3568.7875
2220.28132	3563.9875
2223.1969	3544.4875
2226.11061	3547.0875
2229.02246	3531.3875
2231.93245	3530.4875
2234.84058	3518.2875
2237.74686	3511.6875
2240.65128	3511.8875
2243.55385	3495.3875
2246.45456	3501.2875
2249.35343	3500.0875
2252.25044	3494.5875
2255.14561	3489.1875
2258.03893	3491.9875
2260.93041	3487.1875
2263.82004	3484.7875
2266.70783	3457.0875
2269.59378	3447.0875
2272.4779	3449.0875
2275.36017	3443.9875
2278.24061	3418.4875
2281.11922	3440.8875
2283.996	3419.5875
2286.87094	3413.9875
2289.74405	3407.3875
2292.61534	3398.0875
2295.4848	3380.8875
2298.35243	3390.2875
2301.21824	3383.2875
2304.08223	3379.1875
2306.94439	3388.8875
2309.80474	3377.5875
2312.66327	3380.6875
2315.51999	3364.6875
2318.37489	3371.3875
2321.22797	3370.8875
2324.07925	3352.7875
2326.92871	3350.3875
2329.77637	3349.2875
2332.62222	3343.5875
2335.46626	3346.6875
2338.3085	3344.3875
2341.14893	3326.4875
2343.98756	3324.7875
2346.8244	3302.6875
2349.65943	3310.9875
2352.49267	3319.6875
2355.32411	3320.9875
2358.15376	3312.4875
2360.98161	3307.3875
2363.80768	3312.0875
2366.63195	3291.8875
2369.45444	3303.7875
2372.27514	3299.9875
2375.09405	3295.8875
2377.91118	3301.0875
2380.72652	3281.3875
2383.54009	3276.3875
2386.35187	3278.5875
2389.16188	3263.2875
2391.97011	3253.8875
2394.77657	3240.9875
2397.58125	3220.0875
2400.38416	3233.5875
2403.18529	3232.2875
2405.98466	3221.7875
2408.78226	3210.1875
2411.57809	3224.5875
2414.37216	3194.8875
2417.16446	3212.4875
2419.955	3197.2875
2422.74378	3204.0875
2425.5308	3185.7875
2428.31606	3190.6875
2431.09956	3181.7875
2433.88131	3173.2875
2436.6613	3174.8875
2439.43954	3179.1875
2442.21603	3165.2875
2444.99077	3154.9875
2447.76377	3163.5875
2450.53501	3178.1875
2453.30451	3173.4875
2456.07226	3163.6875
2458.83827	3147.2875
2461.60254	3153.1875
2464.36507	3135.8875
2467.12586	3140.1875
2469.88492	3153.4875
2472.64224	3131.5875
2475.39782	3133.0875
2478.15167	3128.6875
2480.90379	3129.3875
2483.65417	3136.7875
2486.40283	3138.7875
2489.14976	3133.5875
2491.89497	3134.7875
2494.63845	3132.0875
2497.3802	3119.7875
2500.12024	3116.4875
2502.85855	3114.1875
2505.59514	3113.0875
2508.33002	3112.1875
2511.06318	3100.6875
2513.79462	3093.7875
2516.52435	3079.7875
2519.25237	3085.4875
2521.97867	3088.5875
2524.70327	3090.7875
2527.42616	3067.7875
2530.14734	3068.5875
2532.86681	3065.9875
2535.58458	3057.1875
2538.30065	3054.5875
2541.01501	3049.3875
2543.72768	3052.1875
2546.43864	3031.4875
2549.14791	3034.8875
2551.85548	3028.1875
2554.56136	3008.5875
2557.26554	3019.6875
2559.96803	3015.3875
2562.66883	3018.1875
2565.36794	3003.3875
2568.06536	3001.8875
2570.7611	3005.6875
2573.45514	2987.7875
2576.14751	3000.6875
2578.83819	2982.1875
2581.52719	2983.9875
2584.21451	2976.1875
2586.90015	2979.5875
2589.58411	2955.6875
2592.2664	2959.7875
2594.94701	2960.4875
2597.62594	2948.9875
2600.30321	2925.3875
2602.9788	2936.8875
2605.65273	2933.6875
2608.32498	2935.6875
2610.99557	2924.6875
2613.66449	2926.6875
2616.33175	2930.9875
2618.99734	2912.0875
2621.66128	2913.6875
2624.32355	2907.6875
2626.98416	2907.9875
2629.64311	2903.7875
2632.30041	2904.9875
2634.95605	2892.8875
2637.61004	2891.2875
2640.26238	2911.2875
2642.91306	2885.5875
2645.56209	2890.9875
2648.20948	2892.5875
2650.85521	2873.8875
2653.4993	2867.1875
2656.14175	2873.7875
2658.78255	2876.9875
2661.42171	2876.7875
2664.05923	2886.5875
2666.6951	2883.5875
2669.32934	2885.6875
2671.96194	2875.3875
2674.59291	2884.2875
2677.22224	2881.8875
2679.84993	2874.0875
2682.476	2882.9875
2685.10043	2878.1875
2687.72324	2871.9875
2690.34441	2865.7875
2692.96396	2863.9875
2695.58188	2874.5875
2698.19818	2879.6875
2700.81285	2885.1875
2703.4259	2881.9875
2706.03733	2900.7875
2708.64714	2893.5875
2711.25533	2880.2875
2713.86191	2875.3875
2716.46687	2882.0875
2719.07021	2892.1875
2721.67194	2891.2875
2724.27206	2870.2875
2726.87057	2886.2875
2729.46747	2879.2875
2732.06276	2880.7875
2734.65644	2884.6875
2737.24852	2876.7875
2739.83899	2881.1875
2742.42786	2883.3875
2745.01513	2873.2875
2747.60079	2873.2875
2750.18486	2864.9875
2752.76733	2865.4875
2755.3482	2861.5875
2757.92747	2872.6875
2760.50515	2839.2875
2763.08123	2844.9875
2765.65573	2841.0875
2768.22863	2845.3875
2770.79994	2832.1875
2773.36967	2843.2875
2775.9378	2825.8875
2778.50435	2821.6875
2781.06932	2824.3875
2783.6327	2820.5875
2786.1945	2819.5875
2788.75471	2821.2875
2791.31335	2802.9875
2793.87041	2804.3875
2796.42589	2793.2875
2798.97979	2796.3875
2801.53212	2787.6875
2804.08288	2789.5875
2806.63206	2774.4875
2809.17967	2769.3875
2811.72571	2770.9875
2814.27018	2752.2875
2816.81308	2755.5875
2819.35442	2749.7875
2821.89419	2754.3875
2824.43239	2750.1875
2826.96904	2743.8875
2829.50412	2740.8875
2832.03763	2738.1875
2834.56959	2749.9875
2837.1	2740.0875
2839.62884	2742.1875
2842.15613	2722.4875
2844.68186	2736.0875
2847.20604	2739.0875
2849.72867	2734.6875
2852.24974	2736.4875
2854.76927	2754.7875
2857.28724	2745.3875
2859.80367	2756.1875
2862.31855	2739.0875
2864.83189	2740.8875
2867.34368	2739.6875
2869.85393	2738.3875
2872.36264	2738.5875
2874.8698	2740.2875
2877.37543	2751.2875
2879.87952	2749.0875
2882.38207	2750.5875
2884.88308	2755.5875
2887.38256	2754.9875
2889.88051	2747.6875
2892.37692	2749.7875
2894.8718	2752.1875
2897.36515	2756.7875
2899.85698	2770.8875
2902.34727	2758.7875
2904.83604	2757.7875
2907.32328	2772.1875
2909.809	2756.1875
2912.29319	2767.0875
2914.77587	2765.7875
2917.25702	2755.1875
2919.73665	2763.2875
2922.21476	2757.4875
2924.69136	2754.7875
2927.16644	2763.1875
2929.64	2760.9875
2932.11205	2760.1875
2934.58258	2750.9875
2937.05161	2765.2875
2939.51912	2762.0875
2941.98513	2748.1875
2944.44962	2749.5875
2946.91261	2744.2875
2949.37409	2741.0875
2951.83407	2734.9875
2954.29254	2738.3875
2956.74951	2731.5875
2959.20498	2741.0875
2961.65895	2732.5875
2964.11142	2738.5875
2966.56239	2718.3875
2969.01186	2721.8875
2971.45984	2706.8875
2973.90632	2705.0875
2976.35131	2692.1875
2978.7948	2688.6875
2981.23681	2684.7875
2983.67732	2677.0875
2986.11635	2688.4875
2988.55388	2666.8875
2990.98993	2667.4875
2993.4245	2674.3875
2995.85758	2667.6875
2998.28917	2657.3875
3000.71928	2660.3875
3003.14791	2656.9875
3005.57506	2659.5875
3008.00073	2664.9875
3010.42493	2653.2875
3012.84764	2642.4875
3015.26888	2657.4875
3017.68865	2642.3875
3020.10694	2645.6875
3022.52376	2635.0875
3024.9391	2654.2875
3027.35298	2654.1875
3029.76539	2635.6875
3032.17632	2637.7875
3034.5858	2628.6875
3036.9938	2637.6875
3039.40034	2645.1875
3041.80542	2640.5875
3044.20903	2638.9875
3046.61118	2634.7875
3049.01187	2628.1875
3051.4111	2642.3875
3053.80888	2636.3875
3056.20519	2635.7875
3058.60005	2627.0875
3060.99345	2646.3875
3063.3854	2626.9875
3065.7759	2625.0875
3068.16494	2624.8875
3070.55254	2615.6875
3072.93868	2613.6875
3075.32338	2621.7875
3077.70662	2632.6875
3080.08842	2628.4875
3082.46878	2637.1875
3084.84769	2618.1875
3087.22515	2634.4875
3089.60118	2641.3875
3091.97576	2638.0875
3094.3489	2640.8875
3096.72061	2648.8875
3099.09087	2646.0875
3101.4597	2655.3875
3103.82709	2656.5875
3106.19305	2654.2875
3108.55757	2661.2875
3110.92066	2654.2875
3113.28232	2669.6875
3115.64255	2646.5875
3118.00134	2664.6875
3120.35871	2654.0875
3122.71466	2667.3875
3125.06917	2671.9875
3127.42226	2668.2875
3129.77393	2683.3875
3132.12417	2668.6875
3134.47299	2682.7875
3136.82039	2695.5875
3139.16636	2685.8875
3141.51092	2687.1875
3143.85406	2705.4875
3146.19579	2712.0875
3148.53609	2714.8875
3150.87499	2724.8875
3153.21246	2719.8875
3155.54853	2732.8875
3157.88318	2747.3875
3160.21642	2750.2875
3162.54826	2768.1875
3164.87868	2753.5875
3167.2077	2765.6875
3169.5353	2773.9875
3171.86151	2769.9875
3174.18631	2772.1875
3176.5097	2779.1875
3178.83169	2769.8875
3181.15228	2779.2875
3183.47147	2782.7875
3185.78926	2786.1875
3188.10565	2783.8875
3190.42065	2794.8875
3192.73424	2788.7875
3195.04645	2814.2875
3197.35725	2809.8875
3199.66667	2807.8875
3201.97469	2832.1875
3204.28132	2828.3875
3206.58656	2833.9875
3208.8904	2839.6875
3211.19287	2835.1875
3213.49394	2836.9875
3215.79363	2851.7875
3218.09193	2843.8875
3220.38884	2864.4875
3222.68438	2864.5875
3224.97853	2840.9875
3227.2713	2838.1875
3229.56269	2844.2875
3231.8527	2836.3875
3234.14133	2851.1875
3236.42858	2843.6875
3238.71446	2833.5875
3240.99896	2841.3875
3243.28209	2831.4875
3245.56384	2845.6875
3247.84423	2828.8875
3250.12324	2825.8875
3252.40088	2826.4875
3254.67715	2827.2875
3256.95205	2825.5875
3259.22558	2835.0875
3261.49775	2838.2875
3263.76855	2829.3875
3266.03799	2832.9875
3268.30606	2816.7875
3270.57277	2803.0875
3272.83812	2805.7875
3275.10211	2812.2875
3277.36474	2787.3875
3279.62601	2801.9875
3281.88593	2798.5875
3284.14448	2797.5875
3286.40168	2806.3875
3288.65753	2793.7875
3290.91202	2783.7875
3293.16516	2781.1875
3295.41695	2775.6875
3297.66738	2763.8875
3299.91647	2744.3875
3302.16421	2736.0875
3304.4106	2715.6875
3306.65564	2702.3875
3308.89933	2686.1875
3311.14169	2674.5875
3313.38269	2661.7875
3315.62236	2642.4875
3317.86068	2620.3875
3320.09766	2597.7875
3322.3333	2583.1875
3324.5676	2585.4875
3326.80056	2546.4875
3329.03219	2532.8875
3331.26248	0.5875
3333.49143	0.9875
3335.71905	-1.5125
