Data from AgNPs_FTO_APTES_UA_0.1mM_CRN_200uM_NaF_0.1M_Addition_RamanShift__26__14-25-07-743.txt Node

Date: Mon Dec 20 14:25:07 GMT 2021
User: TCL
Spectrometer: QEP01345
Trigger mode: 4
Integration Time (sec): 7.000000E0
Scans to average: 10
Electric dark correction enabled: true
Nonlinearity correction enabled: false
Boxcar width: 0
XAxis mode: Raman Shifts
Number of Pixels in Spectrum: 1044
>>>>>Begin Spectral Data<<<<<
46.04893	1.9375
50.45542	-0.0625
54.85868	-2.3625
59.25871	1.5375
63.6555	29.2375
68.04907	26.2375
72.43941	33.0375
76.82654	30.7375
81.21044	34.5375
85.59113	39.0375
89.96862	35.4375
94.34289	38.1375
98.71396	35.6375
103.08183	40.2375
107.4465	40.3375
111.80798	44.6375
116.16626	42.8375
120.52136	41.0375
124.87327	45.1375
129.222	45.0375
133.56755	49.2375
137.90993	52.0375
142.24913	52.9375
146.58517	53.5375
150.91804	64.4375
155.24774	77.8375
159.57429	88.6375
163.89768	112.9375
168.21792	144.2375
172.53501	181.7375
176.84895	243.9375
181.15975	340.7375
185.46741	471.8375
189.77193	651.1375
194.07331	864.6375
198.37157	1124.3375
202.6667	1406.7375
206.9587	1679.4375
211.24758	1951.7375
215.53334	2217.4375
219.81599	2482.0375
224.09553	2779.7375
228.37195	3069.1375
232.64527	3377.9375
236.91549	3710.1375
241.18261	4022.0375
245.44663	4312.7375
249.70755	4565.2375
253.96539	4803.8375
258.22014	4950.3375
262.4718	5094.4375
266.72039	5148.3375
270.96589	5156.5375
275.20832	5112.9375
279.44768	5062.4375
283.68397	4992.7375
287.91719	4930.8375
292.14735	4845.5375
296.37445	4819.9375
300.59849	4815.4375
304.81948	4840.3375
309.03742	4839.1375
313.25231	4785.0375
317.46415	4693.2375
321.67296	4573.0375
325.87872	4471.6375
330.08145	4413.6375
334.28114	4406.2375
338.47781	4433.9375
342.67145	4465.7375
346.86207	4523.3375
351.04966	4609.3375
355.23424	4698.1375
359.4158	4804.0375
363.59435	4866.7375
367.76989	4936.1375
371.94243	4975.9375
376.11196	5015.9375
380.27849	5072.7375
384.44203	5118.3375
388.60257	5153.7375
392.76012	5194.4375
396.91468	5245.7375
401.06626	5297.1375
405.21485	5350.1375
409.36047	5336.7375
413.50311	5274.3375
417.64277	5187.0375
421.77947	5151.0375
425.9132	5130.4375
430.04396	5153.0375
434.17176	5155.8375
438.2966	5199.4375
442.41849	5248.1375
446.53742	5315.4375
450.6534	5404.7375
454.76644	5440.3375
458.87653	5466.5375
462.98368	5480.3375
467.08789	5470.9375
471.18916	5476.6375
475.2875	5490.5375
479.38291	5530.7375
483.4754	5596.8375
487.56496	5704.2375
491.6516	5827.2375
495.73531	5868.9375
499.81612	5820.6375
503.89401	5715.1375
507.96899	5613.0375
512.04106	5582.2375
516.11023	5572.9375
520.1765	5627.6375
524.23987	5720.8375
528.30034	5772.0375
532.35792	5764.8375
536.41261	5706.6375
540.46441	5565.2375
544.51333	5469.5375
548.55936	5397.3375
552.60252	5359.2375
556.64279	5384.2375
560.6802	5422.6375
564.71473	5447.7375
568.7464	5517.8375
572.7752	5580.0375
576.80114	5607.0375
580.82422	5587.6375
584.84444	5643.1375
588.86181	5756.7375
592.87633	5831.7375
596.888	5834.0375
600.89682	5811.2375
604.9028	5937.1375
608.90594	6318.8375
612.90624	6908.6375
616.90371	7024.6375
620.89834	6656.3375
624.89015	6758.0375
628.87913	7212.3375
632.86528	7743.4375
636.84862	7991.7375
640.82913	7834.9375
644.80683	7378.7375
648.78172	6779.0375
652.75379	6374.9375
656.72306	6120.3375
660.68952	6035.4375
664.65319	5972.3375
668.61405	5899.8375
672.57211	5924.1375
676.52738	5938.2375
680.47986	5957.6375
684.42955	5954.0375
688.37646	5917.4375
692.32058	5859.3375
696.26192	5828.3375
700.20048	5767.1375
704.13626	5720.3375
708.06928	5640.9375
711.99952	5573.9375
715.927	5522.4375
719.85171	5560.1375
723.77365	5581.9375
727.69284	5590.5375
731.60928	5539.8375
735.52295	5441.9375
739.43388	5381.3375
743.34206	5381.9375
747.24749	5394.0375
751.15017	5392.4375
755.05012	5432.8375
758.94733	5502.5375
762.8418	5644.5375
766.73354	5896.7375
770.62254	6109.9375
774.50882	6215.0375
778.39237	6078.3375
782.27321	5829.9375
786.15132	5613.3375
790.02671	5514.0375
793.89938	5510.6375
797.76935	5564.0375
801.6366	5702.5375
805.50115	5946.0375
809.36299	6247.7375
813.22213	6373.7375
817.07857	6258.9375
820.93231	5958.9375
824.78336	5630.5375
828.63172	5380.0375
832.47738	5251.3375
836.32036	5168.2375
840.16066	5150.1375
843.99827	5123.4375
847.8332	5085.9375
851.66546	5069.3375
855.49504	5059.6375
859.32195	5059.0375
863.1462	5098.4375
866.96777	5171.4375
870.78668	5280.8375
874.60293	5434.4375
878.41652	5624.1375
882.22745	5836.4375
886.03573	5937.0375
889.84136	5968.8375
893.64433	5811.1375
897.44466	5549.4375
901.24235	5269.7375
905.0374	5065.1375
908.8298	4933.4375
912.61957	4864.7375
916.40671	4832.9375
920.19121	4821.3375
923.97308	4814.2375
927.75233	4801.4375
931.52895	4809.0375
935.30295	4798.8375
939.07433	4762.8375
942.84309	4736.3375
946.60924	4739.7375
950.37278	4725.5375
954.13371	4724.4375
957.89203	4708.3375
961.64774	4687.6375
965.40086	4655.4375
969.15137	4616.2375
972.89929	4597.1375
976.64461	4583.3375
980.38733	4584.8375
984.12747	4569.9375
987.86502	4573.6375
991.59999	4614.3375
995.33237	4653.0375
999.06217	4740.0375
1002.78939	4852.4375
1006.51404	4984.8375
1010.23611	5106.8375
1013.95561	5203.4375
1017.67255	5219.0375
1021.38692	5194.9375
1025.09872	5076.2375
1028.80796	4966.8375
1032.51465	4842.5375
1036.21877	4762.2375
1039.92035	4691.5375
1043.61937	4670.2375
1047.31584	4664.8375
1051.00976	4672.6375
1054.70114	4716.6375
1058.38998	4750.7375
1062.07627	4806.2375
1065.76003	4871.3375
1069.44126	4922.9375
1073.11995	4964.7375
1076.79611	4967.4375
1080.46974	4924.1375
1084.14085	4850.9375
1087.80943	4807.1375
1091.47549	4758.4375
1095.13903	4689.4375
1098.80005	4642.7375
1102.45857	4607.3375
1106.11456	4617.9375
1109.76805	4640.7375
1113.41903	4728.2375
1117.06751	4872.2375
1120.71348	5139.5375
1124.35696	5500.3375
1127.99793	5965.1375
1131.63641	6414.0375
1135.2724	6717.1375
1138.90589	6745.2375
1142.5369	6539.2375
1146.16542	6160.6375
1149.79145	5723.2375
1153.415	5361.5375
1157.03607	5071.6375
1160.65467	4911.1375
1164.27079	4869.1375
1167.88443	4883.2375
1171.49561	5008.6375
1175.10432	5192.6375
1178.71056	5467.5375
1182.31434	5727.1375
1185.91565	5867.9375
1189.51451	5937.4375
1193.11091	6022.7375
1196.70485	6157.6375
1200.29634	6293.9375
1203.88538	6373.7375
1207.47197	6307.6375
1211.05612	6070.2375
1214.63782	5773.4375
1218.21708	5494.3375
1221.79391	5251.1375
1225.36829	5072.5375
1228.94024	4947.0375
1232.50976	4863.7375
1236.07685	4819.8375
1239.6415	4820.0375
1243.20374	4847.5375
1246.76355	4884.3375
1250.32093	4920.6375
1253.8759	4943.7375
1257.42845	4981.8375
1260.97859	5016.6375
1264.52631	5054.8375
1268.07163	5086.3375
1271.61453	5082.0375
1275.15503	5087.8375
1278.69312	5095.1375
1282.22882	5086.6375
1285.76211	5133.3375
1289.29301	5217.0375
1292.82151	5305.5375
1296.34761	5430.7375
1299.87133	5612.2375
1303.39266	5850.2375
1306.9116	6164.6375
1310.42815	6480.1375
1313.94233	6720.0375
1317.45412	6742.2375
1320.96354	6679.5375
1324.47058	6587.3375
1327.97525	6490.9375
1331.47754	6432.8375
1334.97747	6484.5375
1338.47502	6579.2375
1341.97022	6680.3375
1345.46305	6782.6375
1348.95352	6932.9375
1352.44163	7118.5375
1355.92738	7384.1375
1359.41078	7696.1375
1362.89183	8068.2375
1366.37053	7998.1375
1369.84688	7473.9375
1373.32088	6893.7375
1376.79254	6475.5375
1380.26186	6245.3375
1383.72883	6108.8375
1387.19347	5997.6375
1390.65578	5898.5375
1394.11575	5827.2375
1397.57339	5779.3375
1401.0287	5756.1375
1404.48168	5721.4375
1407.93234	5667.3375
1411.38068	5555.7375
1414.82669	5398.3375
1418.27039	5205.2375
1421.71177	5006.2375
1425.15083	4856.7375
1428.58758	4716.3375
1432.02203	4654.6375
1435.45416	4647.2375
1438.88399	4630.7375
1442.31151	4614.2375
1445.73673	4627.2375
1449.15965	4642.0375
1452.58027	4669.2375
1455.9986	4669.6375
1459.41463	4676.6375
1462.82837	4678.6375
1466.23982	4737.0375
1469.64898	4784.0375
1473.05586	4811.1375
1476.46045	4816.8375
1479.86276	4827.3375
1483.26279	4838.8375
1486.66054	4875.2375
1490.05602	4940.6375
1493.44922	5000.7375
1496.84016	5124.7375
1500.22882	5302.3375
1503.61521	5558.0375
1506.99934	5849.9375
1510.38121	6110.7375
1513.76081	6186.4375
1517.13816	5989.9375
1520.51324	5668.9375
1523.88607	5354.5375
1527.25665	5175.2375
1530.62498	5113.9375
1533.99105	5119.8375
1537.35488	5145.9375
1540.71647	5178.6375
1544.07581	5223.3375
1547.4329	5239.4375
1550.78776	5284.3375
1554.14038	5290.4375
1557.49077	5305.9375
1560.83892	5327.8375
1564.18484	5340.6375
1567.52853	5379.3375
1570.86999	5408.7375
1574.20922	5487.5375
1577.54624	5545.3375
1580.88103	5529.4375
1584.2136	5457.1375
1587.54395	5431.9375
1590.87208	5459.8375
1594.19801	5562.0375
1597.52172	5714.5375
1600.84321	5827.9375
1604.16251	5780.1375
1607.47959	5664.3375
1610.79447	5537.5375
1614.10715	5389.0375
1617.41763	5262.1375
1620.7259	5196.5375
1624.03199	5134.4375
1627.33587	5116.5375
1630.63757	5145.5375
1633.93707	5217.6375
1637.23439	5356.0375
1640.52951	5585.7375
1643.82246	5910.4375
1647.11321	6254.8375
1650.40179	6471.0375
1653.68819	6426.5375
1656.97241	6116.1375
1660.25446	5698.0375
1663.53433	5384.7375
1666.81203	5152.8375
1670.08756	5020.2375
1673.36092	4898.3375
1676.63211	4820.4375
1679.90115	4753.8375
1683.16801	4686.7375
1686.43272	4608.9375
1689.69527	4527.6375
1692.95567	4446.2375
1696.2139	4382.5375
1699.46999	4270.3375
1702.72392	4140.0375
1705.97571	4024.4375
1709.22535	3925.7375
1712.47284	3833.5375
1715.71819	3762.8375
1718.96139	3689.9375
1722.20246	3653.3375
1725.44139	3608.6375
1728.67818	3566.9375
1731.91284	3526.0375
1735.14537	3482.6375
1738.37576	3459.2375
1741.60403	3438.4375
1744.83017	3425.0375
1748.05418	3423.9375
1751.27607	3407.2375
1754.49584	3410.9375
1757.71349	3399.3375
1760.92903	3380.8375
1764.14244	3349.7375
1767.35375	3320.0375
1770.56294	3304.9375
1773.77002	3261.0375
1776.97499	3230.0375
1780.17785	3186.6375
1783.37861	3151.6375
1786.57727	3135.6375
1789.77382	3101.5375
1792.96828	3073.1375
1796.16064	3050.4375
1799.3509	3044.1375
1802.53907	3032.7375
1805.72514	3005.7375
1808.90913	2990.5375
1812.09102	2996.1375
1815.27083	2971.7375
1818.44856	2967.4375
1821.6242	2963.8375
1824.79776	2949.4375
1827.96924	2951.4375
1831.13864	2937.5375
1834.30597	2920.5375
1837.47122	2928.7375
1840.6344	2919.4375
1843.7955	2905.3375
1846.95454	2907.7375
1850.11151	2910.9375
1853.26642	2901.6375
1856.41926	2890.7375
1859.57004	2895.2375
1862.71876	2888.8375
1865.86542	2890.1375
1869.01003	2876.0375
1872.15258	2874.9375
1875.29308	2867.3375
1878.43152	2860.0375
1881.56792	2849.7375
1884.70227	2829.0375
1887.83457	2834.4375
1890.96482	2833.2375
1894.09304	2818.0375
1897.21921	2810.2375
1900.34335	2800.1375
1903.46544	2810.4375
1906.58551	2802.0375
1909.70353	2799.3375
1912.81953	2785.5375
1915.93349	2777.8375
1919.04543	2775.5375
1922.15534	2754.5375
1925.26322	2752.4375
1928.36908	2751.0375
1931.47292	2750.0375
1934.57473	2731.0375
1937.67453	2725.0375
1940.77232	2712.5375
1943.86808	2718.1375
1946.96184	2705.0375
1950.05358	2680.4375
1953.14331	2681.9375
1956.23103	2672.2375
1959.31675	2676.4375
1962.40046	2650.6375
1965.48217	2654.2375
1968.56188	2637.7375
1971.63959	2624.6375
1974.7153	2622.4375
1977.78901	2612.2375
1980.86073	2594.9375
1983.93046	2599.0375
1986.99819	2576.9375
1990.06394	2563.2375
1993.1277	2549.1375
1996.18947	2560.0375
1999.24925	2542.2375
2002.30706	2546.6375
2005.36288	2528.7375
2008.41672	2526.7375
2011.46859	2522.0375
2014.51848	2498.6375
2017.56639	2488.7375
2020.61233	2489.4375
2023.6563	2480.9375
2026.6983	2466.6375
2029.73833	2460.4375
2032.7764	2467.1375
2035.8125	2457.1375
2038.84664	2444.3375
2041.87881	2438.9375
2044.90903	2442.0375
2047.93729	2445.7375
2050.96359	2428.2375
2053.98794	2418.4375
2057.01034	2421.0375
2060.03078	2421.9375
2063.04927	2412.5375
2066.06582	2409.1375
2069.08042	2413.6375
2072.09307	2395.2375
2075.10378	2393.5375
2078.11255	2400.6375
2081.11938	2393.1375
2084.12426	2392.3375
2087.12722	2392.7375
2090.12824	2389.7375
2093.12732	2383.1375
2096.12447	2388.9375
2099.11969	2385.5375
2102.11299	2372.0375
2105.10435	2384.5375
2108.09379	2370.7375
2111.08131	2373.9375
2114.0669	2375.8375
2117.05057	2381.7375
2120.03233	2372.1375
2123.01216	2381.4375
2125.99008	2381.6375
2128.96609	2382.4375
2131.94018	2380.9375
2134.91236	2382.4375
2137.88263	2378.7375
2140.851	2384.6375
2143.81746	2395.8375
2146.78201	2384.8375
2149.74466	2374.9375
2152.7054	2377.7375
2155.66425	2380.5375
2158.6212	2380.0375
2161.57625	2379.5375
2164.52941	2374.5375
2167.48067	2373.6375
2170.43004	2359.5375
2173.37752	2365.8375
2176.32311	2373.9375
2179.26681	2361.5375
2182.20863	2346.9375
2185.14856	2350.3375
2188.08661	2354.7375
2191.02278	2350.8375
2193.95707	2356.3375
2196.88948	2330.3375
2199.82001	2325.2375
2202.74867	2323.7375
2205.67545	2318.0375
2208.60037	2318.0375
2211.52341	2320.1375
2214.44458	2321.9375
2217.36388	2308.9375
2220.28132	2309.5375
2223.1969	2288.3375
2226.11061	2285.4375
2229.02246	2277.8375
2231.93245	2284.1375
2234.84058	2274.5375
2237.74686	2270.9375
2240.65128	2265.2375
2243.55385	2267.0375
2246.45456	2241.5375
2249.35343	2256.6375
2252.25044	2255.9375
2255.14561	2233.4375
2258.03893	2235.4375
2260.93041	2245.1375
2263.82004	2235.1375
2266.70783	2212.7375
2269.59378	2217.1375
2272.4779	2199.7375
2275.36017	2195.1375
2278.24061	2194.5375
2281.11922	2192.6375
2283.996	2169.6375
2286.87094	2178.2375
2289.74405	2178.1375
2292.61534	2165.5375
2295.4848	2167.2375
2298.35243	2159.8375
2301.21824	2162.7375
2304.08223	2153.3375
2306.94439	2157.5375
2309.80474	2151.4375
2312.66327	2138.7375
2315.51999	2147.8375
2318.37489	2144.4375
2321.22797	2127.3375
2324.07925	2131.6375
2326.92871	2134.5375
2329.77637	2124.5375
2332.62222	2115.5375
2335.46626	2104.1375
2338.3085	2110.3375
2341.14893	2110.1375
2343.98756	2101.0375
2346.8244	2109.6375
2349.65943	2105.2375
2352.49267	2095.4375
2355.32411	2098.6375
2358.15376	2086.4375
2360.98161	2083.3375
2363.80768	2093.7375
2366.63195	2094.2375
2369.45444	2076.8375
2372.27514	2090.7375
2375.09405	2073.6375
2377.91118	2078.4375
2380.72652	2076.2375
2383.54009	2073.4375
2386.35187	2069.0375
2389.16188	2058.4375
2391.97011	2054.4375
2394.77657	2049.1375
2397.58125	2039.8375
2400.38416	2038.5375
2403.18529	2031.1375
2405.98466	2031.6375
2408.78226	2042.0375
2411.57809	2015.4375
2414.37216	2009.4375
2417.16446	2019.7375
2419.955	2009.1375
2422.74378	1994.7375
2425.5308	2000.0375
2428.31606	1990.2375
2431.09956	1984.0375
2433.88131	1984.2375
2436.6613	1991.1375
2439.43954	1976.6375
2442.21603	1968.2375
2444.99077	1968.0375
2447.76377	1976.4375
2450.53501	1976.0375
2453.30451	1966.6375
2456.07226	1965.9375
2458.83827	1961.9375
2461.60254	1963.4375
2464.36507	1952.3375
2467.12586	1945.9375
2469.88492	1940.4375
2472.64224	1951.8375
2475.39782	1949.3375
2478.15167	1942.9375
2480.90379	1937.3375
2483.65417	1938.8375
2486.40283	1936.6375
2489.14976	1938.0375
2491.89497	1934.1375
2494.63845	1940.4375
2497.3802	1935.8375
2500.12024	1934.5375
2502.85855	1918.4375
2505.59514	1927.8375
2508.33002	1918.2375
2511.06318	1925.8375
2513.79462	1907.4375
2516.52435	1912.9375
2519.25237	1901.1375
2521.97867	1894.4375
2524.70327	1895.9375
2527.42616	1891.3375
2530.14734	1882.4375
2532.86681	1877.2375
2535.58458	1880.4375
2538.30065	1878.3375
2541.01501	1877.5375
2543.72768	1850.9375
2546.43864	1863.0375
2549.14791	1860.1375
2551.85548	1861.4375
2554.56136	1855.6375
2557.26554	1849.4375
2559.96803	1839.4375
2562.66883	1834.5375
2565.36794	1834.1375
2568.06536	1827.2375
2570.7611	1828.4375
2573.45514	1823.3375
2576.14751	1822.9375
2578.83819	1816.2375
2581.52719	1815.5375
2584.21451	1811.0375
2586.90015	1807.0375
2589.58411	1799.5375
2592.2664	1794.1375
2594.94701	1784.5375
2597.62594	1793.2375
2600.30321	1780.7375
2602.9788	1783.5375
2605.65273	1779.0375
2608.32498	1779.1375
2610.99557	1771.2375
2613.66449	1772.4375
2616.33175	1760.5375
2618.99734	1759.5375
2621.66128	1757.9375
2624.32355	1773.6375
2626.98416	1761.1375
2629.64311	1749.0375
2632.30041	1748.1375
2634.95605	1749.0375
2637.61004	1732.9375
2640.26238	1737.9375
2642.91306	1742.4375
2645.56209	1744.5375
2648.20948	1736.4375
2650.85521	1723.6375
2653.4993	1739.9375
2656.14175	1736.5375
2658.78255	1732.9375
2661.42171	1725.1375
2664.05923	1742.1375
2666.6951	1728.2375
2669.32934	1732.2375
2671.96194	1738.3375
2674.59291	1733.7375
2677.22224	1735.1375
2679.84993	1730.4375
2682.476	1732.1375
2685.10043	1725.6375
2687.72324	1721.4375
2690.34441	1723.0375
2692.96396	1732.2375
2695.58188	1729.1375
2698.19818	1736.0375
2700.81285	1726.2375
2703.4259	1738.3375
2706.03733	1762.4375
2708.64714	1751.5375
2711.25533	1738.7375
2713.86191	1738.0375
2716.46687	1734.6375
2719.07021	1731.4375
2721.67194	1735.6375
2724.27206	1724.7375
2726.87057	1728.3375
2729.46747	1730.5375
2732.06276	1728.4375
2734.65644	1733.2375
2737.24852	1723.3375
2739.83899	1728.2375
2742.42786	1720.9375
2745.01513	1709.2375
2747.60079	1718.8375
2750.18486	1716.1375
2752.76733	1706.7375
2755.3482	1708.9375
2757.92747	1699.1375
2760.50515	1698.6375
2763.08123	1695.3375
2765.65573	1691.9375
2768.22863	1697.5375
2770.79994	1691.0375
2773.36967	1697.3375
2775.9378	1686.0375
2778.50435	1681.0375
2781.06932	1682.5375
2783.6327	1686.9375
2786.1945	1678.1375
2788.75471	1671.9375
2791.31335	1675.7375
2793.87041	1669.4375
2796.42589	1664.9375
2798.97979	1664.5375
2801.53212	1665.9375
2804.08288	1656.2375
2806.63206	1658.9375
2809.17967	1653.1375
2811.72571	1652.6375
2814.27018	1649.0375
2816.81308	1647.8375
2819.35442	1644.1375
2821.89419	1642.2375
2824.43239	1649.7375
2826.96904	1646.9375
2829.50412	1638.9375
2832.03763	1642.5375
2834.56959	1636.5375
2837.1	1637.7375
2839.62884	1639.2375
2842.15613	1630.6375
2844.68186	1636.7375
2847.20604	1637.7375
2849.72867	1635.2375
2852.24974	1649.6375
2854.76927	1636.9375
2857.28724	1640.0375
2859.80367	1637.2375
2862.31855	1629.1375
2864.83189	1635.8375
2867.34368	1637.0375
2869.85393	1629.6375
2872.36264	1627.3375
2874.8698	1629.6375
2877.37543	1638.8375
2879.87952	1635.7375
2882.38207	1634.1375
2884.88308	1648.0375
2887.38256	1645.4375
2889.88051	1648.8375
2892.37692	1651.2375
2894.8718	1649.5375
2897.36515	1650.2375
2899.85698	1657.1375
2902.34727	1665.3375
2904.83604	1660.6375
2907.32328	1674.8375
2909.809	1674.7375
2912.29319	1677.7375
2914.77587	1668.8375
2917.25702	1676.5375
2919.73665	1677.6375
2922.21476	1678.6375
2924.69136	1693.6375
2927.16644	1680.7375
2929.64	1680.6375
2932.11205	1685.9375
2934.58258	1692.2375
2937.05161	1695.1375
2939.51912	1693.5375
2941.98513	1682.5375
2944.44962	1678.1375
2946.91261	1683.4375
2949.37409	1683.9375
2951.83407	1684.5375
2954.29254	1683.0375
2956.74951	1677.7375
2959.20498	1675.8375
2961.65895	1664.1375
2964.11142	1668.4375
2966.56239	1656.2375
2969.01186	1655.1375
2971.45984	1641.6375
2973.90632	1639.4375
2976.35131	1638.4375
2978.7948	1634.8375
2981.23681	1617.6375
2983.67732	1620.1375
2986.11635	1624.1375
2988.55388	1625.4375
2990.98993	1615.0375
2993.4245	1617.3375
2995.85758	1611.8375
2998.28917	1609.6375
3000.71928	1615.2375
3003.14791	1604.1375
3005.57506	1612.3375
3008.00073	1607.0375
3010.42493	1619.7375
3012.84764	1610.0375
3015.26888	1620.7375
3017.68865	1610.6375
3020.10694	1609.4375
3022.52376	1618.0375
3024.9391	1620.3375
3027.35298	1619.7375
3029.76539	1601.2375
3032.17632	1615.2375
3034.5858	1601.5375
3036.9938	1609.6375
3039.40034	1610.4375
3041.80542	1611.5375
3044.20903	1607.5375
3046.61118	1609.4375
3049.01187	1612.6375
3051.4111	1611.1375
3053.80888	1619.7375
3056.20519	1615.5375
3058.60005	1612.2375
3060.99345	1607.9375
3063.3854	1611.6375
3065.7759	1619.0375
3068.16494	1624.9375
3070.55254	1621.3375
3072.93868	1624.7375
3075.32338	1616.2375
3077.70662	1621.2375
3080.08842	1629.2375
3082.46878	1641.0375
3084.84769	1626.2375
3087.22515	1637.1375
3089.60118	1638.3375
3091.97576	1636.1375
3094.3489	1652.1375
3096.72061	1652.1375
3099.09087	1667.7375
3101.4597	1664.0375
3103.82709	1666.8375
3106.19305	1669.9375
3108.55757	1670.5375
3110.92066	1679.2375
3113.28232	1674.0375
3115.64255	1687.5375
3118.00134	1683.6375
3120.35871	1687.2375
3122.71466	1692.8375
3125.06917	1698.2375
3127.42226	1694.0375
3129.77393	1714.8375
3132.12417	1714.7375
3134.47299	1715.2375
3136.82039	1727.0375
3139.16636	1733.3375
3141.51092	1734.7375
3143.85406	1748.3375
3146.19579	1769.8375
3148.53609	1766.9375
3150.87499	1772.7375
3153.21246	1789.2375
3155.54853	1786.5375
3157.88318	1810.3375
3160.21642	1808.2375
3162.54826	1815.0375
3164.87868	1812.0375
3167.2077	1826.9375
3169.5353	1832.8375
3171.86151	1833.3375
3174.18631	1846.6375
3176.5097	1852.5375
3178.83169	1853.0375
3181.15228	1854.4375
3183.47147	1860.7375
3185.78926	1867.4375
3188.10565	1874.0375
3190.42065	1875.3375
3192.73424	1884.9375
3195.04645	1883.1375
3197.35725	1885.7375
3199.66667	1903.4375
3201.97469	1914.4375
3204.28132	1927.8375
3206.58656	1919.0375
3208.8904	1934.3375
3211.19287	1933.2375
3213.49394	1934.0375
3215.79363	1942.0375
3218.09193	1945.0375
3220.38884	1949.2375
3222.68438	1959.6375
3224.97853	1965.1375
3227.2713	1962.9375
3229.56269	1965.1375
3231.8527	1959.2375
3234.14133	1960.0375
3236.42858	1949.9375
3238.71446	1955.7375
3240.99896	1958.5375
3243.28209	1962.8375
3245.56384	1955.5375
3247.84423	1960.2375
3250.12324	1952.4375
3252.40088	1964.4375
3254.67715	1958.1375
3256.95205	1961.8375
3259.22558	1962.0375
3261.49775	1960.7375
3263.76855	1962.2375
3266.03799	1961.5375
3268.30606	1955.6375
3270.57277	1951.0375
3272.83812	1948.2375
3275.10211	1944.2375
3277.36474	1947.2375
3279.62601	1953.2375
3281.88593	1939.8375
3284.14448	1948.5375
3286.40168	1949.0375
3288.65753	1947.2375
3290.91202	1931.9375
3293.16516	1936.9375
3295.41695	1932.8375
3297.66738	1916.3375
3299.91647	1917.8375
3302.16421	1907.3375
3304.4106	1902.6375
3306.65564	1894.4375
3308.89933	1882.4375
3311.14169	1879.2375
3313.38269	1858.5375
3315.62236	1854.7375
3317.86068	1832.4375
3320.09766	1812.4375
3322.3333	1812.9375
3324.5676	1824.5375
3326.80056	1785.2375
3329.03219	1778.6375
3331.26248	-0.7625
3333.49143	1.1375
3335.71905	-1.1625
