Data from AgNPs_FTO_APTES_UA_0.1mM_CRN_1000uM_NaF_0.1M_Addition_RamanShift__1__15-15-17-799.txt Node

Date: Mon Dec 20 15:15:17 GMT 2021
User: TCL
Spectrometer: QEP01345
Trigger mode: 4
Integration Time (sec): 7.000000E0
Scans to average: 10
Electric dark correction enabled: true
Nonlinearity correction enabled: false
Boxcar width: 0
XAxis mode: Raman Shifts
Number of Pixels in Spectrum: 1044
>>>>>Begin Spectral Data<<<<<
46.04893	0.7875
50.45542	-0.2125
54.85868	-0.9125
59.25871	1.0875
63.6555	26.4875
68.04907	27.5875
72.43941	27.5875
76.82654	28.6875
81.21044	31.0875
85.59113	34.5875
89.96862	32.2875
94.34289	34.6875
98.71396	34.3875
103.08183	36.0875
107.4465	38.5875
111.80798	39.5875
116.16626	37.8875
120.52136	41.0875
124.87327	40.8875
129.222	40.9875
133.56755	39.1875
137.90993	44.2875
142.24913	44.2875
146.58517	46.2875
150.91804	56.9875
155.24774	63.9875
159.57429	69.9875
163.89768	91.5875
168.21792	115.3875
172.53501	141.8875
176.84895	189.0875
181.15975	257.4875
185.46741	359.7875
189.77193	492.9875
194.07331	648.2875
198.37157	851.6875
202.6667	1055.5875
206.9587	1261.7875
211.24758	1473.5875
215.53334	1683.8875
219.81599	1925.8875
224.09553	2163.1875
228.37195	2445.3875
232.64527	2756.6875
236.91549	3057.6875
241.18261	3355.1875
245.44663	3603.9875
249.70755	3813.6875
253.96539	3971.6875
258.22014	4062.5875
262.4718	4118.1875
266.72039	4137.4875
270.96589	4110.9875
275.20832	4080.4875
279.44768	4028.1875
283.68397	3946.0875
287.91719	3880.1875
292.14735	3833.5875
296.37445	3784.2875
300.59849	3755.5875
304.81948	3716.3875
309.03742	3688.4875
313.25231	3664.0875
317.46415	3611.3875
321.67296	3547.0875
325.87872	3537.0875
330.08145	3498.5875
334.28114	3508.5875
338.47781	3507.9875
342.67145	3530.2875
346.86207	3555.5875
351.04966	3582.6875
355.23424	3628.4875
359.4158	3660.4875
363.59435	3695.5875
367.76989	3752.2875
371.94243	3793.0875
376.11196	3835.3875
380.27849	3883.1875
384.44203	3934.9875
388.60257	3958.4875
392.76012	4011.7875
396.91468	4025.2875
401.06626	4059.7875
405.21485	4089.8875
409.36047	4077.0875
413.50311	4077.2875
417.64277	4069.9875
421.77947	4066.4875
425.9132	4066.0875
430.04396	4071.7875
434.17176	4083.5875
438.2966	4118.4875
442.41849	4130.1875
446.53742	4159.3875
450.6534	4206.8875
454.76644	4231.0875
458.87653	4263.8875
462.98368	4281.6875
467.08789	4281.9875
471.18916	4297.3875
475.2875	4325.1875
479.38291	4362.4875
483.4754	4433.4875
487.56496	4550.6875
491.6516	4671.8875
495.73531	4775.1875
499.81612	4794.7875
503.89401	4743.8875
507.96899	4643.9875
512.04106	4600.3875
516.11023	4562.7875
520.1765	4555.8875
524.23987	4591.4875
528.30034	4623.5875
532.35792	4661.7875
536.41261	4662.8875
540.46441	4584.9875
544.51333	4527.3875
548.55936	4450.8875
552.60252	4385.8875
556.64279	4366.0875
560.6802	4333.4875
564.71473	4334.6875
568.7464	4352.5875
572.7752	4384.0875
576.80114	4421.6875
580.82422	4481.7875
584.84444	4567.3875
588.86181	4650.6875
592.87633	4732.4875
596.888	4697.6875
600.89682	4672.5875
604.9028	4675.2875
608.90594	4789.9875
612.90624	4986.4875
616.90371	5068.5875
620.89834	5081.3875
624.89015	5320.7875
628.87913	5743.2875
632.86528	6245.3875
636.84862	6566.4875
640.82913	6578.8875
644.80683	6291.1875
648.78172	5839.8875
652.75379	5462.2875
656.72306	5187.1875
660.68952	4991.6875
664.65319	4858.0875
668.61405	4775.3875
672.57211	4745.5875
676.52738	4771.5875
680.47986	4788.9875
684.42955	4782.7875
688.37646	4770.3875
692.32058	4695.8875
696.26192	4634.3875
700.20048	4601.7875
704.13626	4576.7875
708.06928	4550.1875
711.99952	4542.1875
715.927	4557.8875
719.85171	4582.7875
723.77365	4656.6875
727.69284	4724.9875
731.60928	4685.6875
735.52295	4612.5875
739.43388	4533.0875
743.34206	4491.1875
747.24749	4482.8875
751.15017	4475.2875
755.05012	4493.5875
758.94733	4510.9875
762.8418	4548.8875
766.73354	4610.6875
770.62254	4669.6875
774.50882	4685.3875
778.39237	4619.0875
782.27321	4535.8875
786.15132	4453.5875
790.02671	4416.7875
793.89938	4418.2875
797.76935	4436.3875
801.6366	4517.3875
805.50115	4641.3875
809.36299	4840.4875
813.22213	5003.5875
817.07857	4988.6875
820.93231	4852.8875
824.78336	4643.9875
828.63172	4453.3875
832.47738	4328.0875
836.32036	4286.9875
840.16066	4259.6875
843.99827	4263.3875
847.8332	4250.7875
851.66546	4240.8875
855.49504	4232.1875
859.32195	4255.8875
863.1462	4293.8875
866.96777	4342.4875
870.78668	4412.9875
874.60293	4516.0875
878.41652	4634.9875
882.22745	4765.0875
886.03573	4884.8875
889.84136	4934.8875
893.64433	4884.4875
897.44466	4729.8875
901.24235	4520.6875
905.0374	4358.3875
908.8298	4232.3875
912.61957	4150.0875
916.40671	4121.4875
920.19121	4122.7875
923.97308	4091.2875
927.75233	4091.0875
931.52895	4085.8875
935.30295	4073.4875
939.07433	4055.0875
942.84309	4049.5875
946.60924	4030.1875
950.37278	4010.1875
954.13371	3999.2875
957.89203	3985.7875
961.64774	3975.2875
965.40086	3963.0875
969.15137	3943.0875
972.89929	3956.6875
976.64461	3945.1875
980.38733	3933.5875
984.12747	3929.2875
987.86502	3951.8875
991.59999	3955.2875
995.33237	3979.8875
999.06217	4005.0875
1002.78939	4073.2875
1006.51404	4138.4875
1010.23611	4198.3875
1013.95561	4250.2875
1017.67255	4274.2875
1021.38692	4294.2875
1025.09872	4262.2875
1028.80796	4217.1875
1032.51465	4142.8875
1036.21877	4082.1875
1039.92035	4042.7875
1043.61937	4010.4875
1047.31584	4004.4875
1051.00976	3984.8875
1054.70114	4026.4875
1058.38998	4036.9875
1062.07627	4078.1875
1065.76003	4130.9875
1069.44126	4185.2875
1073.11995	4268.8875
1076.79611	4274.8875
1080.46974	4254.7875
1084.14085	4193.5875
1087.80943	4114.3875
1091.47549	4052.1875
1095.13903	4034.8875
1098.80005	3987.1875
1102.45857	3969.4875
1106.11456	3982.9875
1109.76805	4037.8875
1113.41903	4125.5875
1117.06751	4309.8875
1120.71348	4584.7875
1124.35696	4974.0875
1127.99793	5433.3875
1131.63641	5842.3875
1135.2724	6050.5875
1138.90589	5999.1875
1142.5369	5770.8875
1146.16542	5389.8875
1149.79145	4988.6875
1153.415	4647.5875
1157.03607	4341.9875
1160.65467	4177.0875
1164.27079	4091.2875
1167.88443	4064.0875
1171.49561	4055.5875
1175.10432	4108.8875
1178.71056	4193.5875
1182.31434	4276.1875
1185.91565	4342.1875
1189.51451	4402.7875
1193.11091	4468.2875
1196.70485	4552.8875
1200.29634	4651.5875
1203.88538	4739.9875
1207.47197	4766.3875
1211.05612	4704.9875
1214.63782	4593.5875
1218.21708	4454.2875
1221.79391	4310.9875
1225.36829	4187.5875
1228.94024	4120.2875
1232.50976	4062.4875
1236.07685	4026.0875
1239.6415	4035.3875
1243.20374	4024.7875
1246.76355	4070.4875
1250.32093	4130.4875
1253.8759	4145.4875
1257.42845	4184.1875
1260.97859	4207.4875
1264.52631	4229.6875
1268.07163	4247.9875
1271.61453	4238.7875
1275.15503	4223.3875
1278.69312	4200.2875
1282.22882	4162.5875
1285.76211	4135.5875
1289.29301	4140.6875
1292.82151	4148.4875
1296.34761	4181.0875
1299.87133	4227.7875
1303.39266	4292.9875
1306.9116	4390.8875
1310.42815	4473.0875
1313.94233	4555.7875
1317.45412	4595.4875
1320.96354	4587.5875
1324.47058	4574.1875
1327.97525	4586.6875
1331.47754	4585.4875
1334.97747	4607.1875
1338.47502	4642.8875
1341.97022	4720.4875
1345.46305	4792.8875
1348.95352	4885.1875
1352.44163	4998.3875
1355.92738	5114.2875
1359.41078	5249.1875
1362.89183	5378.6875
1366.37053	5393.4875
1369.84688	5278.6875
1373.32088	5094.8875
1376.79254	4946.9875
1380.26186	4819.7875
1383.72883	4717.6875
1387.19347	4627.5875
1390.65578	4518.5875
1394.11575	4419.8875
1397.57339	4335.9875
1401.0287	4272.6875
1404.48168	4194.3875
1407.93234	4144.6875
1411.38068	4080.8875
1414.82669	4007.7875
1418.27039	3927.5875
1421.71177	3863.4875
1425.15083	3792.5875
1428.58758	3757.3875
1432.02203	3682.6875
1435.45416	3668.7875
1438.88399	3633.0875
1442.31151	3615.3875
1445.73673	3602.0875
1449.15965	3606.2875
1452.58027	3611.1875
1455.9986	3589.8875
1459.41463	3599.3875
1462.82837	3607.0875
1466.23982	3628.9875
1469.64898	3658.3875
1473.05586	3669.9875
1476.46045	3659.4875
1479.86276	3690.3875
1483.26279	3699.0875
1486.66054	3719.6875
1490.05602	3763.5875
1493.44922	3810.3875
1496.84016	3869.4875
1500.22882	3957.7875
1503.61521	4055.4875
1506.99934	4164.6875
1510.38121	4235.4875
1513.76081	4262.3875
1517.13816	4211.2875
1520.51324	4112.6875
1523.88607	4023.2875
1527.25665	3978.7875
1530.62498	3972.0875
1533.99105	4000.0875
1537.35488	4021.5875
1540.71647	4057.7875
1544.07581	4112.3875
1547.4329	4132.6875
1550.78776	4161.9875
1554.14038	4170.8875
1557.49077	4198.9875
1560.83892	4213.0875
1564.18484	4219.7875
1567.52853	4201.1875
1570.86999	4244.9875
1574.20922	4252.4875
1577.54624	4265.3875
1580.88103	4245.3875
1584.2136	4207.9875
1587.54395	4158.9875
1590.87208	4107.2875
1594.19801	4097.6875
1597.52172	4112.9875
1600.84321	4144.4875
1604.16251	4124.1875
1607.47959	4101.1875
1610.79447	4079.3875
1614.10715	4058.8875
1617.41763	4059.3875
1620.7259	4056.1875
1624.03199	4049.5875
1627.33587	4088.3875
1630.63757	4134.7875
1633.93707	4195.7875
1637.23439	4269.6875
1640.52951	4400.3875
1643.82246	4534.0875
1647.11321	4691.9875
1650.40179	4813.3875
1653.68819	4813.1875
1656.97241	4738.4875
1660.25446	4630.7875
1663.53433	4566.2875
1666.81203	4499.0875
1670.08756	4459.5875
1673.36092	4479.3875
1676.63211	4451.6875
1679.90115	4467.9875
1683.16801	4456.0875
1686.43272	4425.9875
1689.69527	4342.0875
1692.95567	4274.6875
1696.2139	4199.0875
1699.46999	4086.5875
1702.72392	3969.1875
1705.97571	3826.0875
1709.22535	3667.7875
1712.47284	3534.8875
1715.71819	3424.5875
1718.96139	3329.2875
1722.20246	3254.1875
1725.44139	3211.2875
1728.67818	3151.8875
1731.91284	3110.5875
1735.14537	3068.6875
1738.37576	3035.1875
1741.60403	2993.3875
1744.83017	2990.7875
1748.05418	2971.3875
1751.27607	2964.3875
1754.49584	2967.2875
1757.71349	2976.8875
1760.92903	2965.9875
1764.14244	2943.9875
1767.35375	2943.2875
1770.56294	2920.1875
1773.77002	2902.8875
1776.97499	2892.2875
1780.17785	2876.7875
1783.37861	2844.8875
1786.57727	2839.4875
1789.77382	2827.4875
1792.96828	2808.2875
1796.16064	2794.7875
1799.3509	2779.0875
1802.53907	2771.5875
1805.72514	2765.2875
1808.90913	2741.7875
1812.09102	2735.6875
1815.27083	2729.6875
1818.44856	2727.2875
1821.6242	2709.6875
1824.79776	2714.0875
1827.96924	2710.4875
1831.13864	2700.3875
1834.30597	2694.7875
1837.47122	2690.4875
1840.6344	2686.0875
1843.7955	2687.6875
1846.95454	2674.1875
1850.11151	2676.8875
1853.26642	2663.7875
1856.41926	2651.2875
1859.57004	2661.6875
1862.71876	2650.4875
1865.86542	2655.7875
1869.01003	2635.8875
1872.15258	2633.2875
1875.29308	2634.8875
1878.43152	2631.6875
1881.56792	2610.3875
1884.70227	2611.6875
1887.83457	2599.4875
1890.96482	2586.4875
1894.09304	2589.9875
1897.21921	2583.1875
1900.34335	2584.1875
1903.46544	2592.6875
1906.58551	2577.4875
1909.70353	2577.4875
1912.81953	2572.4875
1915.93349	2560.2875
1919.04543	2563.1875
1922.15534	2557.1875
1925.26322	2550.0875
1928.36908	2538.2875
1931.47292	2529.8875
1934.57473	2517.6875
1937.67453	2522.0875
1940.77232	2512.9875
1943.86808	2511.7875
1946.96184	2497.4875
1950.05358	2480.8875
1953.14331	2482.3875
1956.23103	2461.7875
1959.31675	2454.2875
1962.40046	2445.9875
1965.48217	2436.8875
1968.56188	2436.1875
1971.63959	2434.0875
1974.7153	2413.8875
1977.78901	2420.4875
1980.86073	2397.0875
1983.93046	2390.7875
1986.99819	2379.0875
1990.06394	2373.4875
1993.1277	2365.7875
1996.18947	2350.1875
1999.24925	2352.5875
2002.30706	2343.9875
2005.36288	2330.5875
2008.41672	2325.0875
2011.46859	2328.1875
2014.51848	2305.9875
2017.56639	2307.0875
2020.61233	2294.1875
2023.6563	2296.5875
2026.6983	2273.5875
2029.73833	2276.4875
2032.7764	2267.3875
2035.8125	2268.7875
2038.84664	2257.7875
2041.87881	2255.9875
2044.90903	2235.1875
2047.93729	2232.8875
2050.96359	2225.9875
2053.98794	2242.1875
2057.01034	2228.6875
2060.03078	2229.2875
2063.04927	2217.3875
2066.06582	2226.2875
2069.08042	2224.6875
2072.09307	2216.7875
2075.10378	2218.6875
2078.11255	2216.6875
2081.11938	2209.0875
2084.12426	2221.3875
2087.12722	2207.5875
2090.12824	2217.2875
2093.12732	2208.7875
2096.12447	2204.5875
2099.11969	2200.6875
2102.11299	2200.7875
2105.10435	2201.5875
2108.09379	2202.5875
2111.08131	2194.2875
2114.0669	2216.1875
2117.05057	2195.8875
2120.03233	2195.0875
2123.01216	2200.5875
2125.99008	2203.6875
2128.96609	2199.8875
2131.94018	2197.3875
2134.91236	2210.3875
2137.88263	2199.7875
2140.851	2206.3875
2143.81746	2202.1875
2146.78201	2209.1875
2149.74466	2204.9875
2152.7054	2210.9875
2155.66425	2195.2875
2158.6212	2202.0875
2161.57625	2199.2875
2164.52941	2203.8875
2167.48067	2202.8875
2170.43004	2193.6875
2173.37752	2187.5875
2176.32311	2179.2875
2179.26681	2191.4875
2182.20863	2173.0875
2185.14856	2183.2875
2188.08661	2176.4875
2191.02278	2168.3875
2193.95707	2166.8875
2196.88948	2160.5875
2199.82001	2159.8875
2202.74867	2153.8875
2205.67545	2156.5875
2208.60037	2143.2875
2211.52341	2133.5875
2214.44458	2135.5875
2217.36388	2128.3875
2220.28132	2123.1875
2223.1969	2126.0875
2226.11061	2109.3875
2229.02246	2107.2875
2231.93245	2098.4875
2234.84058	2099.6875
2237.74686	2101.3875
2240.65128	2101.0875
2243.55385	2099.4875
2246.45456	2090.1875
2249.35343	2079.2875
2252.25044	2081.4875
2255.14561	2077.1875
2258.03893	2080.8875
2260.93041	2085.4875
2263.82004	2056.6875
2266.70783	2057.5875
2269.59378	2045.5875
2272.4779	2048.9875
2275.36017	2046.6875
2278.24061	2021.3875
2281.11922	2029.1875
2283.996	2029.7875
2286.87094	2020.7875
2289.74405	2020.2875
2292.61534	2009.9875
2295.4848	2004.1875
2298.35243	2003.6875
2301.21824	1992.1875
2304.08223	1998.4875
2306.94439	1999.7875
2309.80474	1993.1875
2312.66327	1992.5875
2315.51999	1982.6875
2318.37489	1981.7875
2321.22797	1975.2875
2324.07925	1960.1875
2326.92871	1970.4875
2329.77637	1965.6875
2332.62222	1958.8875
2335.46626	1955.2875
2338.3085	1948.0875
2341.14893	1942.9875
2343.98756	1953.6875
2346.8244	1933.0875
2349.65943	1925.1875
2352.49267	1927.2875
2355.32411	1922.2875
2358.15376	1935.1875
2360.98161	1917.5875
2363.80768	1917.8875
2366.63195	1918.0875
2369.45444	1919.4875
2372.27514	1906.1875
2375.09405	1909.2875
2377.91118	1903.1875
2380.72652	1903.8875
2383.54009	1904.2875
2386.35187	1897.3875
2389.16188	1883.4875
2391.97011	1891.7875
2394.77657	1883.5875
2397.58125	1868.0875
2400.38416	1882.3875
2403.18529	1867.4875
2405.98466	1858.3875
2408.78226	1867.2875
2411.57809	1858.2875
2414.37216	1849.0875
2417.16446	1865.1875
2419.955	1846.6875
2422.74378	1847.9875
2425.5308	1840.5875
2428.31606	1841.1875
2431.09956	1833.5875
2433.88131	1816.9875
2436.6613	1819.9875
2439.43954	1823.7875
2442.21603	1815.7875
2444.99077	1819.9875
2447.76377	1816.8875
2450.53501	1811.7875
2453.30451	1806.8875
2456.07226	1801.7875
2458.83827	1800.1875
2461.60254	1802.2875
2464.36507	1797.6875
2467.12586	1793.1875
2469.88492	1787.7875
2472.64224	1796.3875
2475.39782	1790.9875
2478.15167	1784.2875
2480.90379	1784.4875
2483.65417	1776.5875
2486.40283	1774.2875
2489.14976	1771.7875
2491.89497	1768.3875
2494.63845	1773.8875
2497.3802	1771.2875
2500.12024	1760.2875
2502.85855	1768.9875
2505.59514	1757.6875
2508.33002	1754.1875
2511.06318	1742.7875
2513.79462	1753.3875
2516.52435	1735.7875
2519.25237	1747.1875
2521.97867	1732.4875
2524.70327	1737.3875
2527.42616	1729.9875
2530.14734	1732.2875
2532.86681	1726.0875
2535.58458	1711.6875
2538.30065	1721.7875
2541.01501	1716.4875
2543.72768	1714.9875
2546.43864	1704.5875
2549.14791	1702.9875
2551.85548	1690.5875
2554.56136	1687.6875
2557.26554	1689.8875
2559.96803	1682.8875
2562.66883	1681.8875
2565.36794	1671.2875
2568.06536	1676.9875
2570.7611	1669.9875
2573.45514	1669.6875
2576.14751	1665.0875
2578.83819	1655.9875
2581.52719	1663.8875
2584.21451	1654.7875
2586.90015	1648.8875
2589.58411	1645.9875
2592.2664	1645.5875
2594.94701	1638.4875
2597.62594	1631.7875
2600.30321	1631.9875
2602.9788	1621.3875
2605.65273	1618.6875
2608.32498	1624.9875
2610.99557	1612.6875
2613.66449	1608.6875
2616.33175	1607.3875
2618.99734	1602.3875
2621.66128	1609.0875
2624.32355	1602.2875
2626.98416	1602.6875
2629.64311	1600.1875
2632.30041	1593.1875
2634.95605	1584.3875
2637.61004	1590.7875
2640.26238	1593.2875
2642.91306	1591.9875
2645.56209	1590.3875
2648.20948	1578.8875
2650.85521	1581.2875
2653.4993	1577.8875
2656.14175	1571.8875
2658.78255	1573.6875
2661.42171	1574.8875
2664.05923	1567.4875
2666.6951	1567.3875
2669.32934	1568.6875
2671.96194	1565.1875
2674.59291	1567.7875
2677.22224	1568.4875
2679.84993	1565.2875
2682.476	1565.0875
2685.10043	1566.9875
2687.72324	1567.7875
2690.34441	1568.4875
2692.96396	1565.2875
2695.58188	1569.7875
2698.19818	1562.9875
2700.81285	1564.6875
2703.4259	1580.0875
2706.03733	1603.6875
2708.64714	1587.7875
2711.25533	1586.3875
2713.86191	1576.2875
2716.46687	1571.0875
2719.07021	1568.3875
2721.67194	1564.1875
2724.27206	1559.9875
2726.87057	1552.9875
2729.46747	1556.4875
2732.06276	1561.5875
2734.65644	1561.8875
2737.24852	1553.5875
2739.83899	1550.7875
2742.42786	1548.2875
2745.01513	1538.2875
2747.60079	1558.8875
2750.18486	1543.8875
2752.76733	1543.9875
2755.3482	1541.1875
2757.92747	1537.5875
2760.50515	1524.8875
2763.08123	1523.8875
2765.65573	1520.8875
2768.22863	1529.6875
2770.79994	1511.2875
2773.36967	1522.7875
2775.9378	1519.3875
2778.50435	1511.5875
2781.06932	1508.2875
2783.6327	1504.1875
2786.1945	1506.2875
2788.75471	1498.6875
2791.31335	1497.8875
2793.87041	1490.9875
2796.42589	1489.1875
2798.97979	1483.3875
2801.53212	1469.7875
2804.08288	1474.6875
2806.63206	1477.9875
2809.17967	1476.3875
2811.72571	1475.3875
2814.27018	1464.1875
2816.81308	1463.4875
2819.35442	1467.0875
2821.89419	1464.3875
2824.43239	1466.1875
2826.96904	1453.2875
2829.50412	1464.8875
2832.03763	1463.2875
2834.56959	1463.1875
2837.1	1456.5875
2839.62884	1457.8875
2842.15613	1454.4875
2844.68186	1455.9875
2847.20604	1455.5875
2849.72867	1449.5875
2852.24974	1450.4875
2854.76927	1453.0875
2857.28724	1461.9875
2859.80367	1453.7875
2862.31855	1444.7875
2864.83189	1442.7875
2867.34368	1441.9875
2869.85393	1446.0875
2872.36264	1448.9875
2874.8698	1453.4875
2877.37543	1446.8875
2879.87952	1450.3875
2882.38207	1457.3875
2884.88308	1460.4875
2887.38256	1463.3875
2889.88051	1456.6875
2892.37692	1456.5875
2894.8718	1461.2875
2897.36515	1466.1875
2899.85698	1469.7875
2902.34727	1473.6875
2904.83604	1478.2875
2907.32328	1484.2875
2909.809	1479.6875
2912.29319	1477.9875
2914.77587	1489.0875
2917.25702	1494.0875
2919.73665	1479.3875
2922.21476	1486.1875
2924.69136	1496.8875
2927.16644	1492.7875
2929.64	1493.8875
2932.11205	1493.0875
2934.58258	1501.3875
2937.05161	1507.0875
2939.51912	1501.2875
2941.98513	1501.4875
2944.44962	1488.5875
2946.91261	1488.9875
2949.37409	1487.5875
2951.83407	1487.4875
2954.29254	1483.1875
2956.74951	1485.6875
2959.20498	1481.6875
2961.65895	1462.1875
2964.11142	1468.7875
2966.56239	1467.7875
2969.01186	1466.0875
2971.45984	1456.8875
2973.90632	1449.6875
2976.35131	1454.9875
2978.7948	1439.3875
2981.23681	1446.8875
2983.67732	1434.5875
2986.11635	1439.2875
2988.55388	1432.5875
2990.98993	1443.5875
2993.4245	1425.7875
2995.85758	1427.4875
2998.28917	1422.8875
3000.71928	1422.3875
3003.14791	1428.7875
3005.57506	1430.8875
3008.00073	1430.5875
3010.42493	1433.0875
3012.84764	1425.7875
3015.26888	1439.5875
3017.68865	1432.1875
3020.10694	1426.3875
3022.52376	1427.6875
3024.9391	1430.0875
3027.35298	1427.7875
3029.76539	1426.5875
3032.17632	1426.4875
3034.5858	1429.0875
3036.9938	1425.5875
3039.40034	1427.0875
3041.80542	1434.7875
3044.20903	1427.4875
3046.61118	1423.7875
3049.01187	1424.3875
3051.4111	1424.7875
3053.80888	1427.4875
3056.20519	1438.5875
3058.60005	1419.9875
3060.99345	1432.2875
3063.3854	1429.6875
3065.7759	1428.9875
3068.16494	1434.3875
3070.55254	1421.1875
3072.93868	1433.5875
3075.32338	1431.4875
3077.70662	1438.8875
3080.08842	1438.5875
3082.46878	1446.3875
3084.84769	1452.1875
3087.22515	1451.2875
3089.60118	1459.2875
3091.97576	1463.2875
3094.3489	1466.3875
3096.72061	1465.3875
3099.09087	1473.5875
3101.4597	1477.2875
3103.82709	1475.6875
3106.19305	1485.9875
3108.55757	1487.3875
3110.92066	1481.1875
3113.28232	1491.9875
3115.64255	1490.0875
3118.00134	1487.2875
3120.35871	1503.4875
3122.71466	1497.7875
3125.06917	1509.5875
3127.42226	1501.1875
3129.77393	1514.8875
3132.12417	1521.4875
3134.47299	1525.7875
3136.82039	1528.1875
3139.16636	1531.5875
3141.51092	1542.9875
3143.85406	1548.7875
3146.19579	1554.3875
3148.53609	1566.1875
3150.87499	1571.3875
3153.21246	1581.1875
3155.54853	1584.0875
3157.88318	1579.1875
3160.21642	1595.7875
3162.54826	1598.7875
3164.87868	1604.3875
3167.2077	1607.8875
3169.5353	1619.7875
3171.86151	1616.4875
3174.18631	1626.6875
3176.5097	1627.2875
3178.83169	1625.5875
3181.15228	1635.8875
3183.47147	1639.9875
3185.78926	1642.2875
3188.10565	1636.0875
3190.42065	1650.7875
3192.73424	1654.9875
3195.04645	1658.2875
3197.35725	1663.3875
3199.66667	1657.9875
3201.97469	1673.2875
3204.28132	1677.5875
3206.58656	1680.2875
3208.8904	1682.3875
3211.19287	1692.9875
3213.49394	1687.4875
3215.79363	1692.1875
3218.09193	1698.5875
3220.38884	1709.3875
3222.68438	1707.9875
3224.97853	1710.3875
3227.2713	1709.1875
3229.56269	1708.4875
3231.8527	1708.4875
3234.14133	1698.8875
3236.42858	1705.5875
3238.71446	1700.5875
3240.99896	1689.2875
3243.28209	1696.6875
3245.56384	1693.7875
3247.84423	1705.0875
3250.12324	1698.7875
3252.40088	1700.3875
3254.67715	1703.7875
3256.95205	1700.7875
3259.22558	1698.9875
3261.49775	1693.8875
3263.76855	1690.0875
3266.03799	1687.9875
3268.30606	1688.1875
3270.57277	1682.9875
3272.83812	1683.1875
3275.10211	1679.4875
3277.36474	1687.9875
3279.62601	1674.8875
3281.88593	1680.2875
3284.14448	1671.2875
3286.40168	1672.1875
3288.65753	1672.3875
3290.91202	1674.2875
3293.16516	1659.0875
3295.41695	1663.4875
3297.66738	1646.8875
3299.91647	1642.2875
3302.16421	1637.9875
3304.4106	1634.3875
3306.65564	1624.6875
3308.89933	1630.0875
3311.14169	1615.4875
3313.38269	1608.3875
3315.62236	1608.3875
3317.86068	1593.0875
3320.09766	1575.5875
3322.3333	1559.5875
3324.5676	1562.6875
3326.80056	1544.0875
3329.03219	1539.3875
3331.26248	-1.8125
3333.49143	0.0875
3335.71905	-0.5125
