Data from AgNPs_FTO_APTES_UA_0.1mM_CRN_1000uM_NaF_0.1M_Addition_RamanShift__20__15-37-27-824.txt Node

Date: Mon Dec 20 15:37:27 GMT 2021
User: TCL
Spectrometer: QEP01345
Trigger mode: 4
Integration Time (sec): 7.000000E0
Scans to average: 10
Electric dark correction enabled: true
Nonlinearity correction enabled: false
Boxcar width: 0
XAxis mode: Raman Shifts
Number of Pixels in Spectrum: 1044
>>>>>Begin Spectral Data<<<<<
46.04893	0.5375
50.45542	-1.1625
54.85868	-1.5625
59.25871	0.3375
63.6555	22.0375
68.04907	22.6375
72.43941	26.5375
76.82654	26.5375
81.21044	25.6375
85.59113	31.1375
89.96862	28.2375
94.34289	31.7375
98.71396	31.1375
103.08183	30.0375
107.4465	32.9375
111.80798	31.4375
116.16626	34.6375
120.52136	35.7375
124.87327	38.9375
129.222	33.1375
133.56755	37.6375
137.90993	39.0375
142.24913	40.1375
146.58517	38.4375
150.91804	46.9375
155.24774	52.3375
159.57429	57.3375
163.89768	75.8375
168.21792	93.2375
172.53501	115.3375
176.84895	157.7375
181.15975	213.4375
185.46741	301.4375
189.77193	418.2375
194.07331	545.3375
198.37157	717.4375
202.6667	895.7375
206.9587	1085.4375
211.24758	1264.6375
215.53334	1454.5375
219.81599	1636.4375
224.09553	1821.3375
228.37195	2019.4375
232.64527	2236.2375
236.91549	2438.9375
241.18261	2626.4375
245.44663	2821.8375
249.70755	2973.7375
253.96539	3098.0375
258.22014	3193.8375
262.4718	3263.7375
266.72039	3294.1375
270.96589	3286.2375
275.20832	3256.2375
279.44768	3204.4375
283.68397	3141.7375
287.91719	3089.6375
292.14735	3039.0375
296.37445	3000.4375
300.59849	2981.5375
304.81948	2947.5375
309.03742	2935.9375
313.25231	2910.0375
317.46415	2895.6375
321.67296	2855.6375
325.87872	2822.9375
330.08145	2804.2375
334.28114	2803.9375
338.47781	2827.4375
342.67145	2828.7375
346.86207	2864.4375
351.04966	2895.8375
355.23424	2924.5375
359.4158	2966.9375
363.59435	3002.9375
367.76989	3035.7375
371.94243	3077.6375
376.11196	3108.5375
380.27849	3136.4375
384.44203	3170.5375
388.60257	3179.3375
392.76012	3230.5375
396.91468	3242.7375
401.06626	3276.2375
405.21485	3293.8375
409.36047	3315.8375
413.50311	3303.2375
417.64277	3282.8375
421.77947	3301.7375
425.9132	3292.6375
430.04396	3301.0375
434.17176	3325.2375
438.2966	3345.2375
442.41849	3352.3375
446.53742	3379.7375
450.6534	3402.4375
454.76644	3423.9375
458.87653	3461.5375
462.98368	3470.0375
467.08789	3455.5375
471.18916	3460.3375
475.2875	3490.0375
479.38291	3510.0375
483.4754	3556.0375
487.56496	3596.1375
491.6516	3678.3375
495.73531	3716.2375
499.81612	3704.9375
503.89401	3673.3375
507.96899	3641.0375
512.04106	3600.9375
516.11023	3603.0375
520.1765	3601.3375
524.23987	3622.6375
528.30034	3645.4375
532.35792	3652.1375
536.41261	3628.2375
540.46441	3583.9375
544.51333	3532.8375
548.55936	3485.6375
552.60252	3461.2375
556.64279	3469.2375
560.6802	3463.7375
564.71473	3475.5375
568.7464	3491.8375
572.7752	3517.5375
576.80114	3530.3375
580.82422	3546.9375
584.84444	3586.3375
588.86181	3627.2375
592.87633	3673.2375
596.888	3666.3375
600.89682	3654.6375
604.9028	3693.2375
608.90594	3824.5375
612.90624	4004.7375
616.90371	4069.9375
620.89834	4013.5375
624.89015	4141.3375
628.87913	4390.0375
632.86528	4652.6375
636.84862	4811.0375
640.82913	4770.9375
644.80683	4576.2375
648.78172	4313.0375
652.75379	4106.8375
656.72306	3964.2375
660.68952	3917.0375
664.65319	3903.4375
668.61405	3905.2375
672.57211	3948.6375
676.52738	4013.3375
680.47986	4050.4375
684.42955	4041.0375
688.37646	4004.7375
692.32058	3958.7375
696.26192	3881.4375
700.20048	3838.7375
704.13626	3797.5375
708.06928	3746.8375
711.99952	3700.6375
715.927	3644.0375
719.85171	3643.2375
723.77365	3642.7375
727.69284	3647.7375
731.60928	3620.5375
735.52295	3589.6375
739.43388	3562.1375
743.34206	3521.1375
747.24749	3531.0375
751.15017	3541.3375
755.05012	3547.9375
758.94733	3567.3375
762.8418	3603.5375
766.73354	3664.2375
770.62254	3717.7375
774.50882	3743.6375
778.39237	3694.5375
782.27321	3605.4375
786.15132	3541.8375
790.02671	3504.7375
793.89938	3510.0375
797.76935	3534.6375
801.6366	3574.3375
805.50115	3665.9375
809.36299	3800.2375
813.22213	3853.7375
817.07857	3808.5375
820.93231	3681.8375
824.78336	3527.7375
828.63172	3429.4375
832.47738	3367.7375
836.32036	3332.7375
840.16066	3313.7375
843.99827	3294.3375
847.8332	3290.6375
851.66546	3273.5375
855.49504	3283.9375
859.32195	3310.5375
863.1462	3316.3375
866.96777	3363.0375
870.78668	3399.2375
874.60293	3454.1375
878.41652	3524.0375
882.22745	3593.8375
886.03573	3673.1375
889.84136	3670.2375
893.64433	3615.4375
897.44466	3512.1375
901.24235	3381.4375
905.0374	3296.4375
908.8298	3242.6375
912.61957	3193.7375
916.40671	3166.8375
920.19121	3174.7375
923.97308	3165.2375
927.75233	3146.7375
931.52895	3169.4375
935.30295	3159.8375
939.07433	3152.5375
942.84309	3140.1375
946.60924	3121.3375
950.37278	3105.7375
954.13371	3091.2375
957.89203	3076.8375
961.64774	3085.1375
965.40086	3053.1375
969.15137	3038.2375
972.89929	3023.9375
976.64461	3016.8375
980.38733	3017.0375
984.12747	3011.5375
987.86502	3006.5375
991.59999	3032.9375
995.33237	3029.7375
999.06217	3062.4375
1002.78939	3114.8375
1006.51404	3150.3375
1010.23611	3185.4375
1013.95561	3231.4375
1017.67255	3244.4375
1021.38692	3226.4375
1025.09872	3186.7375
1028.80796	3151.7375
1032.51465	3099.7375
1036.21877	3054.5375
1039.92035	3037.5375
1043.61937	3035.6375
1047.31584	3020.0375
1051.00976	3053.5375
1054.70114	3082.9375
1058.38998	3083.2375
1062.07627	3111.3375
1065.76003	3133.3375
1069.44126	3159.9375
1073.11995	3175.1375
1076.79611	3184.2375
1080.46974	3169.0375
1084.14085	3116.4375
1087.80943	3061.8375
1091.47549	3038.5375
1095.13903	3009.2375
1098.80005	2987.6375
1102.45857	2978.2375
1106.11456	2977.9375
1109.76805	2994.5375
1113.41903	3048.8375
1117.06751	3103.3375
1120.71348	3233.8375
1124.35696	3419.9375
1127.99793	3638.3375
1131.63641	3864.4375
1135.2724	4011.9375
1138.90589	4058.1375
1142.5369	3957.0375
1146.16542	3768.1375
1149.79145	3550.3375
1153.415	3351.8375
1157.03607	3204.5375
1160.65467	3117.0375
1164.27079	3060.1375
1167.88443	3051.1375
1171.49561	3064.8375
1175.10432	3122.7375
1178.71056	3192.1375
1182.31434	3262.9375
1185.91565	3319.8375
1189.51451	3358.6375
1193.11091	3390.4375
1196.70485	3443.2375
1200.29634	3497.2375
1203.88538	3527.5375
1207.47197	3502.9375
1211.05612	3421.5375
1214.63782	3316.6375
1218.21708	3214.1375
1221.79391	3110.7375
1225.36829	3071.3375
1228.94024	3001.1375
1232.50976	2974.5375
1236.07685	2971.2375
1239.6415	2975.6375
1243.20374	2978.2375
1246.76355	2997.4375
1250.32093	3013.5375
1253.8759	3019.4375
1257.42845	3041.6375
1260.97859	3044.7375
1264.52631	3044.9375
1268.07163	3053.2375
1271.61453	3044.5375
1275.15503	3041.3375
1278.69312	3028.9375
1282.22882	3010.1375
1285.76211	3030.5375
1289.29301	3040.3375
1292.82151	3063.3375
1296.34761	3109.1375
1299.87133	3154.0375
1303.39266	3214.7375
1306.9116	3307.8375
1310.42815	3400.7375
1313.94233	3465.6375
1317.45412	3497.8375
1320.96354	3479.8375
1324.47058	3451.0375
1327.97525	3439.5375
1331.47754	3430.2375
1334.97747	3446.0375
1338.47502	3484.1375
1341.97022	3536.0375
1345.46305	3589.1375
1348.95352	3667.9375
1352.44163	3763.9375
1355.92738	3869.5375
1359.41078	3972.8375
1362.89183	4089.6375
1366.37053	4074.3375
1369.84688	3935.8375
1373.32088	3741.0375
1376.79254	3605.8375
1380.26186	3507.4375
1383.72883	3438.1375
1387.19347	3350.2375
1390.65578	3313.8375
1394.11575	3252.7375
1397.57339	3208.6375
1401.0287	3183.1375
1404.48168	3150.8375
1407.93234	3116.7375
1411.38068	3078.2375
1414.82669	3048.5375
1418.27039	2973.2375
1421.71177	2915.3375
1425.15083	2847.9375
1428.58758	2795.1375
1432.02203	2748.3375
1435.45416	2719.0375
1438.88399	2686.2375
1442.31151	2669.6375
1445.73673	2643.4375
1449.15965	2640.1375
1452.58027	2630.0375
1455.9986	2627.0375
1459.41463	2636.0375
1462.82837	2633.5375
1466.23982	2653.2375
1469.64898	2673.6375
1473.05586	2685.6375
1476.46045	2690.6375
1479.86276	2699.6375
1483.26279	2702.9375
1486.66054	2709.2375
1490.05602	2724.1375
1493.44922	2753.2375
1496.84016	2786.2375
1500.22882	2852.4375
1503.61521	2948.4375
1506.99934	3044.7375
1510.38121	3136.4375
1513.76081	3165.7375
1517.13816	3099.2375
1520.51324	3005.3375
1523.88607	2907.3375
1527.25665	2857.8375
1530.62498	2837.6375
1533.99105	2834.3375
1537.35488	2856.7375
1540.71647	2855.3375
1544.07581	2881.4375
1547.4329	2899.1375
1550.78776	2923.6375
1554.14038	2924.0375
1557.49077	2960.0375
1560.83892	2978.0375
1564.18484	2979.0375
1567.52853	2999.9375
1570.86999	3006.5375
1574.20922	3035.2375
1577.54624	3067.5375
1580.88103	3059.7375
1584.2136	3028.3375
1587.54395	2990.6375
1590.87208	2965.3375
1594.19801	2972.1375
1597.52172	2998.2375
1600.84321	3033.4375
1604.16251	3018.7375
1607.47959	3000.0375
1610.79447	2982.0375
1614.10715	2969.1375
1617.41763	2932.6375
1620.7259	2936.3375
1624.03199	2922.4375
1627.33587	2910.2375
1630.63757	2908.7375
1633.93707	2927.2375
1637.23439	2964.3375
1640.52951	3038.4375
1643.82246	3094.2375
1647.11321	3187.0375
1650.40179	3253.9375
1653.68819	3296.0375
1656.97241	3244.9375
1660.25446	3147.5375
1663.53433	3080.4375
1666.81203	3056.0375
1670.08756	3031.8375
1673.36092	3008.4375
1676.63211	3005.0375
1679.90115	2991.0375
1683.16801	2965.6375
1686.43272	2921.3375
1689.69527	2879.9375
1692.95567	2822.8375
1696.2139	2775.6375
1699.46999	2704.1375
1702.72392	2615.8375
1705.97571	2539.5375
1709.22535	2451.8375
1712.47284	2413.0375
1715.71819	2360.4375
1718.96139	2340.2375
1722.20246	2299.5375
1725.44139	2281.7375
1728.67818	2271.4375
1731.91284	2242.2375
1735.14537	2217.6375
1738.37576	2210.2375
1741.60403	2195.4375
1744.83017	2174.3375
1748.05418	2198.2375
1751.27607	2188.9375
1754.49584	2202.2375
1757.71349	2199.6375
1760.92903	2186.4375
1764.14244	2169.3375
1767.35375	2138.6375
1770.56294	2117.3375
1773.77002	2090.5375
1776.97499	2053.7375
1780.17785	2024.1375
1783.37861	1994.0375
1786.57727	1970.2375
1789.77382	1942.4375
1792.96828	1940.2375
1796.16064	1910.2375
1799.3509	1891.1375
1802.53907	1881.6375
1805.72514	1874.5375
1808.90913	1863.5375
1812.09102	1855.9375
1815.27083	1848.3375
1818.44856	1835.7375
1821.6242	1832.6375
1824.79776	1817.5375
1827.96924	1825.4375
1831.13864	1803.7375
1834.30597	1806.5375
1837.47122	1800.6375
1840.6344	1798.8375
1843.7955	1795.5375
1846.95454	1790.3375
1850.11151	1788.4375
1853.26642	1780.7375
1856.41926	1776.6375
1859.57004	1787.6375
1862.71876	1778.7375
1865.86542	1768.7375
1869.01003	1760.8375
1872.15258	1763.3375
1875.29308	1760.9375
1878.43152	1755.9375
1881.56792	1749.6375
1884.70227	1734.4375
1887.83457	1730.8375
1890.96482	1734.6375
1894.09304	1726.8375
1897.21921	1720.4375
1900.34335	1720.4375
1903.46544	1716.8375
1906.58551	1710.4375
1909.70353	1714.3375
1912.81953	1699.1375
1915.93349	1709.6375
1919.04543	1694.9375
1922.15534	1694.2375
1925.26322	1684.3375
1928.36908	1685.6375
1931.47292	1672.0375
1934.57473	1665.9375
1937.67453	1665.6375
1940.77232	1664.5375
1943.86808	1657.8375
1946.96184	1644.3375
1950.05358	1637.9375
1953.14331	1630.6375
1956.23103	1633.7375
1959.31675	1616.3375
1962.40046	1624.4375
1965.48217	1610.7375
1968.56188	1610.2375
1971.63959	1601.6375
1974.7153	1596.3375
1977.78901	1591.3375
1980.86073	1584.1375
1983.93046	1575.5375
1986.99819	1569.0375
1990.06394	1562.2375
1993.1277	1562.9375
1996.18947	1559.7375
1999.24925	1555.0375
2002.30706	1535.8375
2005.36288	1538.2375
2008.41672	1531.8375
2011.46859	1533.1375
2014.51848	1521.3375
2017.56639	1518.6375
2020.61233	1507.0375
2023.6563	1503.3375
2026.6983	1514.1375
2029.73833	1488.1375
2032.7764	1494.2375
2035.8125	1492.9375
2038.84664	1474.3375
2041.87881	1479.0375
2044.90903	1472.2375
2047.93729	1473.6375
2050.96359	1471.0375
2053.98794	1471.0375
2057.01034	1466.4375
2060.03078	1455.2375
2063.04927	1453.7375
2066.06582	1457.6375
2069.08042	1453.0375
2072.09307	1456.0375
2075.10378	1452.7375
2078.11255	1449.3375
2081.11938	1438.2375
2084.12426	1446.4375
2087.12722	1438.4375
2090.12824	1435.8375
2093.12732	1435.1375
2096.12447	1437.1375
2099.11969	1434.0375
2102.11299	1434.8375
2105.10435	1433.5375
2108.09379	1431.4375
2111.08131	1436.3375
2114.0669	1430.2375
2117.05057	1429.0375
2120.03233	1425.1375
2123.01216	1426.1375
2125.99008	1431.2375
2128.96609	1434.5375
2131.94018	1434.8375
2134.91236	1443.7375
2137.88263	1426.3375
2140.851	1427.9375
2143.81746	1434.6375
2146.78201	1429.1375
2149.74466	1431.0375
2152.7054	1420.1375
2155.66425	1427.5375
2158.6212	1415.5375
2161.57625	1424.6375
2164.52941	1424.2375
2167.48067	1415.7375
2170.43004	1421.0375
2173.37752	1409.3375
2176.32311	1411.8375
2179.26681	1407.2375
2182.20863	1411.9375
2185.14856	1416.0375
2188.08661	1408.3375
2191.02278	1414.2375
2193.95707	1400.1375
2196.88948	1405.1375
2199.82001	1397.8375
2202.74867	1389.1375
2205.67545	1387.3375
2208.60037	1387.7375
2211.52341	1390.1375
2214.44458	1371.7375
2217.36388	1370.1375
2220.28132	1370.7375
2223.1969	1357.4375
2226.11061	1361.2375
2229.02246	1357.1375
2231.93245	1359.8375
2234.84058	1349.5375
2237.74686	1347.1375
2240.65128	1351.1375
2243.55385	1346.0375
2246.45456	1334.0375
2249.35343	1337.4375
2252.25044	1331.6375
2255.14561	1327.7375
2258.03893	1330.6375
2260.93041	1338.5375
2263.82004	1324.1375
2266.70783	1321.0375
2269.59378	1314.9375
2272.4779	1302.8375
2275.36017	1298.6375
2278.24061	1295.1375
2281.11922	1295.4375
2283.996	1296.9375
2286.87094	1289.0375
2289.74405	1280.6375
2292.61534	1280.2375
2295.4848	1285.3375
2298.35243	1277.3375
2301.21824	1272.1375
2304.08223	1275.7375
2306.94439	1278.4375
2309.80474	1266.9375
2312.66327	1266.9375
2315.51999	1259.5375
2318.37489	1261.0375
2321.22797	1264.7375
2324.07925	1256.6375
2326.92871	1256.2375
2329.77637	1255.8375
2332.62222	1254.1375
2335.46626	1240.6375
2338.3085	1242.7375
2341.14893	1241.3375
2343.98756	1235.6375
2346.8244	1237.4375
2349.65943	1225.5375
2352.49267	1230.8375
2355.32411	1221.1375
2358.15376	1224.0375
2360.98161	1224.8375
2363.80768	1221.9375
2366.63195	1217.4375
2369.45444	1220.6375
2372.27514	1219.1375
2375.09405	1216.6375
2377.91118	1203.8375
2380.72652	1208.0375
2383.54009	1207.1375
2386.35187	1199.3375
2389.16188	1196.6375
2391.97011	1194.5375
2394.77657	1189.3375
2397.58125	1191.2375
2400.38416	1187.2375
2403.18529	1180.7375
2405.98466	1181.3375
2408.78226	1183.3375
2411.57809	1174.0375
2414.37216	1174.8375
2417.16446	1175.4375
2419.955	1174.4375
2422.74378	1168.4375
2425.5308	1162.8375
2428.31606	1170.7375
2431.09956	1157.3375
2433.88131	1152.8375
2436.6613	1162.1375
2439.43954	1154.9375
2442.21603	1150.5375
2444.99077	1147.7375
2447.76377	1146.2375
2450.53501	1149.9375
2453.30451	1145.0375
2456.07226	1134.3375
2458.83827	1136.6375
2461.60254	1128.2375
2464.36507	1133.3375
2467.12586	1130.6375
2469.88492	1130.4375
2472.64224	1123.1375
2475.39782	1144.6375
2478.15167	1133.8375
2480.90379	1122.1375
2483.65417	1115.4375
2486.40283	1105.5375
2489.14976	1120.7375
2491.89497	1114.0375
2494.63845	1121.5375
2497.3802	1115.8375
2500.12024	1115.4375
2502.85855	1108.4375
2505.59514	1113.6375
2508.33002	1102.6375
2511.06318	1106.2375
2513.79462	1101.7375
2516.52435	1094.7375
2519.25237	1092.9375
2521.97867	1091.1375
2524.70327	1092.7375
2527.42616	1088.7375
2530.14734	1093.1375
2532.86681	1078.6375
2535.58458	1072.0375
2538.30065	1071.7375
2541.01501	1073.5375
2543.72768	1074.4375
2546.43864	1070.8375
2549.14791	1068.4375
2551.85548	1066.5375
2554.56136	1061.9375
2557.26554	1054.3375
2559.96803	1054.9375
2562.66883	1052.7375
2565.36794	1048.8375
2568.06536	1048.2375
2570.7611	1046.4375
2573.45514	1043.5375
2576.14751	1037.3375
2578.83819	1034.6375
2581.52719	1036.2375
2584.21451	1036.5375
2586.90015	1035.5375
2589.58411	1032.1375
2592.2664	1024.4375
2594.94701	1019.2375
2597.62594	1015.2375
2600.30321	1014.9375
2602.9788	1012.9375
2605.65273	1010.8375
2608.32498	1011.9375
2610.99557	1003.3375
2613.66449	1005.8375
2616.33175	1011.8375
2618.99734	1001.8375
2621.66128	1010.1375
2624.32355	996.1375
2626.98416	998.5375
2629.64311	1000.6375
2632.30041	987.9375
2634.95605	995.5375
2637.61004	994.2375
2640.26238	988.4375
2642.91306	991.8375
2645.56209	988.1375
2648.20948	990.1375
2650.85521	983.8375
2653.4993	986.3375
2656.14175	979.4375
2658.78255	983.0375
2661.42171	973.8375
2664.05923	974.1375
2666.6951	978.0375
2669.32934	975.8375
2671.96194	976.9375
2674.59291	979.1375
2677.22224	970.5375
2679.84993	973.1375
2682.476	973.6375
2685.10043	972.9375
2687.72324	975.6375
2690.34441	971.7375
2692.96396	976.2375
2695.58188	982.8375
2698.19818	972.1375
2700.81285	972.3375
2703.4259	994.8375
2706.03733	1015.2375
2708.64714	1003.6375
2711.25533	978.9375
2713.86191	977.9375
2716.46687	983.1375
2719.07021	976.5375
2721.67194	976.2375
2724.27206	961.5375
2726.87057	978.0375
2729.46747	968.7375
2732.06276	965.1375
2734.65644	967.4375
2737.24852	965.7375
2739.83899	966.1375
2742.42786	963.0375
2745.01513	957.3375
2747.60079	966.6375
2750.18486	957.0375
2752.76733	953.6375
2755.3482	950.6375
2757.92747	952.5375
2760.50515	947.6375
2763.08123	938.7375
2765.65573	939.5375
2768.22863	946.7375
2770.79994	939.6375
2773.36967	952.3375
2775.9378	937.8375
2778.50435	940.5375
2781.06932	939.2375
2783.6327	941.1375
2786.1945	930.8375
2788.75471	941.6375
2791.31335	934.6375
2793.87041	935.8375
2796.42589	929.6375
2798.97979	922.0375
2801.53212	925.6375
2804.08288	921.3375
2806.63206	924.9375
2809.17967	925.3375
2811.72571	925.5375
2814.27018	919.4375
2816.81308	918.3375
2819.35442	913.7375
2821.89419	918.8375
2824.43239	917.5375
2826.96904	921.9375
2829.50412	909.5375
2832.03763	915.7375
2834.56959	908.1375
2837.1	915.5375
2839.62884	909.6375
2842.15613	908.6375
2844.68186	910.0375
2847.20604	914.2375
2849.72867	910.1375
2852.24974	911.6375
2854.76927	914.1375
2857.28724	922.6375
2859.80367	908.3375
2862.31855	914.6375
2864.83189	913.5375
2867.34368	907.5375
2869.85393	908.7375
2872.36264	905.8375
2874.8698	911.1375
2877.37543	918.2375
2879.87952	907.3375
2882.38207	915.9375
2884.88308	914.6375
2887.38256	921.4375
2889.88051	922.9375
2892.37692	919.6375
2894.8718	925.7375
2897.36515	928.4375
2899.85698	933.8375
2902.34727	934.7375
2904.83604	934.2375
2907.32328	938.0375
2909.809	946.0375
2912.29319	950.3375
2914.77587	957.3375
2917.25702	957.4375
2919.73665	958.2375
2922.21476	958.0375
2924.69136	968.4375
2927.16644	962.5375
2929.64	970.1375
2932.11205	966.7375
2934.58258	961.8375
2937.05161	964.3375
2939.51912	974.7375
2941.98513	970.2375
2944.44962	970.7375
2946.91261	971.0375
2949.37409	976.6375
2951.83407	970.3375
2954.29254	971.1375
2956.74951	963.1375
2959.20498	967.0375
2961.65895	959.5375
2964.11142	955.4375
2966.56239	951.8375
2969.01186	943.6375
2971.45984	940.9375
2973.90632	939.1375
2976.35131	927.1375
2978.7948	931.6375
2981.23681	920.3375
2983.67732	924.0375
2986.11635	920.7375
2988.55388	918.8375
2990.98993	917.4375
2993.4245	915.5375
2995.85758	917.7375
2998.28917	915.5375
3000.71928	918.0375
3003.14791	914.2375
3005.57506	921.1375
3008.00073	914.5375
3010.42493	918.4375
3012.84764	913.3375
3015.26888	914.3375
3017.68865	917.7375
3020.10694	915.0375
3022.52376	913.4375
3024.9391	912.3375
3027.35298	913.5375
3029.76539	910.6375
3032.17632	920.6375
3034.5858	912.5375
3036.9938	917.7375
3039.40034	913.4375
3041.80542	912.0375
3044.20903	912.7375
3046.61118	916.2375
3049.01187	914.3375
3051.4111	920.6375
3053.80888	917.2375
3056.20519	921.0375
3058.60005	914.0375
3060.99345	920.5375
3063.3854	924.6375
3065.7759	920.9375
3068.16494	925.6375
3070.55254	922.1375
3072.93868	921.6375
3075.32338	930.2375
3077.70662	925.0375
3080.08842	927.4375
3082.46878	931.5375
3084.84769	939.4375
3087.22515	936.9375
3089.60118	941.2375
3091.97576	951.8375
3094.3489	953.1375
3096.72061	954.1375
3099.09087	962.7375
3101.4597	967.7375
3103.82709	967.9375
3106.19305	975.5375
3108.55757	980.3375
3110.92066	976.4375
3113.28232	972.1375
3115.64255	986.4375
3118.00134	987.0375
3120.35871	990.6375
3122.71466	988.4375
3125.06917	992.4375
3127.42226	998.9375
3129.77393	1007.1375
3132.12417	1008.6375
3134.47299	1017.4375
3136.82039	1020.0375
3139.16636	1031.8375
3141.51092	1034.4375
3143.85406	1039.1375
3146.19579	1051.0375
3148.53609	1052.8375
3150.87499	1057.7375
3153.21246	1066.3375
3155.54853	1066.1375
3157.88318	1084.1375
3160.21642	1086.0375
3162.54826	1091.3375
3164.87868	1095.0375
3167.2077	1090.3375
3169.5353	1102.8375
3171.86151	1106.2375
3174.18631	1111.7375
3176.5097	1111.3375
3178.83169	1115.6375
3181.15228	1121.3375
3183.47147	1130.4375
3185.78926	1139.5375
3188.10565	1142.6375
3190.42065	1146.4375
3192.73424	1153.0375
3195.04645	1145.4375
3197.35725	1157.2375
3199.66667	1162.3375
3201.97469	1162.5375
3204.28132	1165.8375
3206.58656	1175.8375
3208.8904	1178.8375
3211.19287	1191.4375
3213.49394	1181.2375
3215.79363	1195.8375
3218.09193	1191.2375
3220.38884	1205.2375
3222.68438	1210.8375
3224.97853	1203.6375
3227.2713	1204.2375
3229.56269	1206.1375
3231.8527	1200.0375
3234.14133	1206.4375
3236.42858	1198.0375
3238.71446	1195.8375
3240.99896	1204.1375
3243.28209	1210.1375
3245.56384	1209.9375
3247.84423	1207.9375
3250.12324	1206.0375
3252.40088	1208.0375
3254.67715	1211.7375
3256.95205	1206.3375
3259.22558	1202.9375
3261.49775	1212.7375
3263.76855	1205.1375
3266.03799	1201.9375
3268.30606	1202.5375
3270.57277	1202.1375
3272.83812	1202.5375
3275.10211	1189.3375
3277.36474	1208.3375
3279.62601	1205.2375
3281.88593	1200.0375
3284.14448	1197.2375
3286.40168	1198.9375
3288.65753	1203.8375
3290.91202	1196.0375
3293.16516	1182.3375
3295.41695	1195.1375
3297.66738	1183.2375
3299.91647	1178.7375
3302.16421	1174.1375
3304.4106	1174.9375
3306.65564	1179.2375
3308.89933	1170.0375
3311.14169	1169.3375
3313.38269	1155.5375
3315.62236	1145.8375
3317.86068	1144.7375
3320.09766	1131.1375
3322.3333	1134.3375
3324.5676	1139.1375
3326.80056	1124.0375
3329.03219	1115.4375
3331.26248	-0.1625
3333.49143	1.0375
3335.71905	0.8375
