Data from AgNPs_FTO_APTES_UA_0.1mM_CRN_500uM_NaF_0.1M_Addition_RamanShift__3__14-37-57-757.txt Node

Date: Mon Dec 20 14:37:57 GMT 2021
User: TCL
Spectrometer: QEP01345
Trigger mode: 4
Integration Time (sec): 7.000000E0
Scans to average: 10
Electric dark correction enabled: true
Nonlinearity correction enabled: false
Boxcar width: 0
XAxis mode: Raman Shifts
Number of Pixels in Spectrum: 1044
>>>>>Begin Spectral Data<<<<<
46.04893	0.025
50.45542	0.025
54.85868	-0.475
59.25871	0.125
63.6555	24.925
68.04907	26.025
72.43941	28.225
76.82654	31.425
81.21044	32.225
85.59113	35.825
89.96862	33.625
94.34289	34.525
98.71396	35.025
103.08183	37.425
107.4465	38.125
111.80798	38.825
116.16626	42.225
120.52136	43.925
124.87327	42.125
129.222	41.325
133.56755	40.425
137.90993	44.325
142.24913	46.425
146.58517	46.925
150.91804	53.525
155.24774	60.425
159.57429	70.425
163.89768	83.225
168.21792	109.425
172.53501	132.025
176.84895	175.725
181.15975	242.325
185.46741	326.825
189.77193	447.525
194.07331	590.625
198.37157	764.325
202.6667	949.225
206.9587	1127.725
211.24758	1314.125
215.53334	1495.925
219.81599	1706.025
224.09553	1893.625
228.37195	2140.525
232.64527	2399.625
236.91549	2672.525
241.18261	2905.525
245.44663	3141.825
249.70755	3306.925
253.96539	3459.325
258.22014	3561.725
262.4718	3618.525
266.72039	3644.425
270.96589	3648.625
275.20832	3615.425
279.44768	3539.325
283.68397	3481.125
287.91719	3442.925
292.14735	3380.025
296.37445	3354.325
300.59849	3307.925
304.81948	3286.325
309.03742	3270.025
313.25231	3232.525
317.46415	3188.825
321.67296	3143.825
325.87872	3130.625
330.08145	3074.825
334.28114	3077.525
338.47781	3092.325
342.67145	3106.025
346.86207	3113.625
351.04966	3143.925
355.23424	3185.125
359.4158	3227.625
363.59435	3253.825
367.76989	3292.625
371.94243	3331.325
376.11196	3373.725
380.27849	3415.125
384.44203	3461.025
388.60257	3502.225
392.76012	3525.225
396.91468	3570.925
401.06626	3592.925
405.21485	3610.325
409.36047	3609.525
413.50311	3625.225
417.64277	3590.225
421.77947	3592.325
425.9132	3582.525
430.04396	3603.125
434.17176	3612.525
438.2966	3613.125
442.41849	3628.825
446.53742	3653.825
450.6534	3678.225
454.76644	3710.725
458.87653	3717.225
462.98368	3727.525
467.08789	3751.425
471.18916	3779.125
475.2875	3791.425
479.38291	3836.025
483.4754	3903.225
487.56496	4020.725
491.6516	4145.125
495.73531	4251.125
499.81612	4287.125
503.89401	4242.225
507.96899	4150.625
512.04106	4070.725
516.11023	3997.025
520.1765	4011.625
524.23987	4031.525
528.30034	4056.525
532.35792	4075.825
536.41261	4058.725
540.46441	4001.725
544.51333	3964.725
548.55936	3876.325
552.60252	3831.225
556.64279	3804.925
560.6802	3809.525
564.71473	3780.925
568.7464	3801.225
572.7752	3816.725
576.80114	3853.225
580.82422	3892.425
584.84444	3996.525
588.86181	4118.425
592.87633	4178.325
596.888	4159.825
600.89682	4108.525
604.9028	4096.325
608.90594	4220.425
612.90624	4416.925
616.90371	4498.325
620.89834	4499.025
624.89015	4673.725
628.87913	5089.425
632.86528	5557.825
636.84862	5867.125
640.82913	5869.325
644.80683	5619.625
648.78172	5219.325
652.75379	4853.125
656.72306	4580.025
660.68952	4417.825
664.65319	4275.525
668.61405	4210.125
672.57211	4177.725
676.52738	4172.225
680.47986	4214.325
684.42955	4212.125
688.37646	4178.325
692.32058	4086.025
696.26192	4034.225
700.20048	3987.125
704.13626	3949.025
708.06928	3931.725
711.99952	3911.125
715.927	3925.625
719.85171	3941.525
723.77365	4012.425
727.69284	4062.325
731.60928	4040.425
735.52295	3948.325
739.43388	3885.525
743.34206	3870.925
747.24749	3887.525
751.15017	3881.625
755.05012	3886.725
758.94733	3894.125
762.8418	3953.925
766.73354	4032.925
770.62254	4089.325
774.50882	4092.825
778.39237	4039.225
782.27321	3953.925
786.15132	3856.925
790.02671	3825.125
793.89938	3821.725
797.76935	3850.925
801.6366	3910.025
805.50115	4060.325
809.36299	4220.725
813.22213	4341.925
817.07857	4302.925
820.93231	4148.825
824.78336	3971.725
828.63172	3808.325
832.47738	3725.225
836.32036	3676.025
840.16066	3659.125
843.99827	3635.825
847.8332	3627.825
851.66546	3636.825
855.49504	3645.125
859.32195	3648.725
863.1462	3663.125
866.96777	3723.425
870.78668	3781.425
874.60293	3874.925
878.41652	3990.925
882.22745	4118.225
886.03573	4188.125
889.84136	4230.625
893.64433	4161.925
897.44466	4024.525
901.24235	3864.725
905.0374	3702.225
908.8298	3604.525
912.61957	3537.925
916.40671	3510.725
920.19121	3501.525
923.97308	3477.025
927.75233	3484.125
931.52895	3469.625
935.30295	3447.725
939.07433	3434.425
942.84309	3418.825
946.60924	3396.625
950.37278	3396.225
954.13371	3393.025
957.89203	3376.225
961.64774	3372.025
965.40086	3361.925
969.15137	3364.125
972.89929	3337.625
976.64461	3329.725
980.38733	3335.325
984.12747	3319.825
987.86502	3322.225
991.59999	3339.225
995.33237	3369.625
999.06217	3384.325
1002.78939	3452.925
1006.51404	3512.225
1010.23611	3568.025
1013.95561	3614.625
1017.67255	3630.625
1021.38692	3644.425
1025.09872	3600.225
1028.80796	3561.525
1032.51465	3496.025
1036.21877	3442.325
1039.92035	3414.825
1043.61937	3392.125
1047.31584	3361.225
1051.00976	3369.125
1054.70114	3381.425
1058.38998	3410.625
1062.07627	3444.325
1065.76003	3490.425
1069.44126	3540.725
1073.11995	3568.225
1076.79611	3590.925
1080.46974	3578.525
1084.14085	3526.625
1087.80943	3484.025
1091.47549	3430.525
1095.13903	3393.125
1098.80005	3367.925
1102.45857	3351.225
1106.11456	3359.825
1109.76805	3387.325
1113.41903	3484.625
1117.06751	3630.825
1120.71348	3892.125
1124.35696	4239.325
1127.99793	4661.125
1131.63641	5035.425
1135.2724	5215.125
1138.90589	5194.225
1142.5369	4978.525
1146.16542	4634.325
1149.79145	4276.525
1153.415	3952.425
1157.03607	3698.225
1160.65467	3542.325
1164.27079	3443.625
1167.88443	3418.925
1171.49561	3431.225
1175.10432	3489.325
1178.71056	3558.925
1182.31434	3663.825
1185.91565	3725.925
1189.51451	3795.725
1193.11091	3850.425
1196.70485	3955.525
1200.29634	4045.125
1203.88538	4113.625
1207.47197	4110.525
1211.05612	4047.425
1214.63782	3932.525
1218.21708	3814.725
1221.79391	3678.425
1225.36829	3560.525
1228.94024	3495.025
1232.50976	3440.425
1236.07685	3411.625
1239.6415	3413.125
1243.20374	3402.125
1246.76355	3449.025
1250.32093	3478.525
1253.8759	3514.825
1257.42845	3533.725
1260.97859	3571.925
1264.52631	3593.725
1268.07163	3610.325
1271.61453	3618.225
1275.15503	3598.825
1278.69312	3568.825
1282.22882	3559.125
1285.76211	3541.425
1289.29301	3528.825
1292.82151	3562.525
1296.34761	3584.725
1299.87133	3631.325
1303.39266	3696.125
1306.9116	3787.925
1310.42815	3881.125
1313.94233	3976.625
1317.45412	3987.425
1320.96354	4012.125
1324.47058	3977.325
1327.97525	3969.925
1331.47754	3967.025
1334.97747	3988.425
1338.47502	4032.725
1341.97022	4089.225
1345.46305	4143.325
1348.95352	4233.425
1352.44163	4342.625
1355.92738	4446.425
1359.41078	4597.625
1362.89183	4762.725
1366.37053	4794.325
1369.84688	4659.825
1373.32088	4466.325
1376.79254	4301.325
1380.26186	4177.625
1383.72883	4059.525
1387.19347	3978.525
1390.65578	3872.925
1394.11575	3789.225
1397.57339	3718.325
1401.0287	3650.925
1404.48168	3578.225
1407.93234	3512.625
1411.38068	3436.625
1414.82669	3375.225
1418.27039	3298.025
1421.71177	3232.225
1425.15083	3164.325
1428.58758	3116.425
1432.02203	3086.725
1435.45416	3071.225
1438.88399	3066.625
1442.31151	3049.125
1445.73673	3042.025
1449.15965	3049.925
1452.58027	3042.425
1455.9986	3040.325
1459.41463	3030.625
1462.82837	3057.225
1466.23982	3077.625
1469.64898	3111.625
1473.05586	3126.825
1476.46045	3138.925
1479.86276	3156.425
1483.26279	3174.325
1486.66054	3219.025
1490.05602	3253.225
1493.44922	3330.625
1496.84016	3396.125
1500.22882	3492.425
1503.61521	3606.525
1506.99934	3713.825
1510.38121	3791.425
1513.76081	3795.225
1517.13816	3745.025
1520.51324	3613.625
1523.88607	3511.225
1527.25665	3438.325
1530.62498	3437.425
1533.99105	3452.325
1537.35488	3480.625
1540.71647	3527.525
1544.07581	3553.325
1547.4329	3575.025
1550.78776	3614.525
1554.14038	3636.625
1557.49077	3658.825
1560.83892	3685.125
1564.18484	3678.825
1567.52853	3679.025
1570.86999	3690.225
1574.20922	3690.825
1577.54624	3679.525
1580.88103	3664.725
1584.2136	3601.825
1587.54395	3553.725
1590.87208	3533.725
1594.19801	3532.425
1597.52172	3565.425
1600.84321	3589.625
1604.16251	3578.125
1607.47959	3565.925
1610.79447	3558.425
1614.10715	3538.625
1617.41763	3535.825
1620.7259	3539.025
1624.03199	3558.525
1627.33587	3591.725
1630.63757	3663.725
1633.93707	3747.025
1637.23439	3859.125
1640.52951	4013.125
1643.82246	4171.725
1647.11321	4329.625
1650.40179	4450.325
1653.68819	4454.325
1656.97241	4333.825
1660.25446	4187.125
1663.53433	4020.525
1666.81203	3919.425
1670.08756	3834.725
1673.36092	3791.125
1676.63211	3735.525
1679.90115	3702.025
1683.16801	3677.725
1686.43272	3627.525
1689.69527	3568.225
1692.95567	3496.925
1696.2139	3443.225
1699.46999	3372.825
1702.72392	3291.925
1705.97571	3184.125
1709.22535	3049.625
1712.47284	2933.425
1715.71819	2835.925
1718.96139	2746.525
1722.20246	2676.825
1725.44139	2616.425
1728.67818	2570.225
1731.91284	2529.125
1735.14537	2478.225
1738.37576	2452.925
1741.60403	2440.625
1744.83017	2420.625
1748.05418	2396.625
1751.27607	2394.825
1754.49584	2380.425
1757.71349	2388.725
1760.92903	2382.525
1764.14244	2371.725
1767.35375	2347.025
1770.56294	2352.125
1773.77002	2332.425
1776.97499	2319.025
1780.17785	2307.725
1783.37861	2285.025
1786.57727	2281.325
1789.77382	2266.025
1792.96828	2251.325
1796.16064	2229.825
1799.3509	2226.325
1802.53907	2209.625
1805.72514	2198.925
1808.90913	2200.125
1812.09102	2190.625
1815.27083	2177.925
1818.44856	2171.325
1821.6242	2170.825
1824.79776	2159.325
1827.96924	2162.625
1831.13864	2148.025
1834.30597	2159.225
1837.47122	2148.125
1840.6344	2134.525
1843.7955	2132.525
1846.95454	2127.825
1850.11151	2142.425
1853.26642	2116.725
1856.41926	2124.725
1859.57004	2119.925
1862.71876	2115.825
1865.86542	2105.525
1869.01003	2111.125
1872.15258	2090.425
1875.29308	2088.525
1878.43152	2090.925
1881.56792	2084.925
1884.70227	2074.525
1887.83457	2077.625
1890.96482	2068.625
1894.09304	2051.125
1897.21921	2051.925
1900.34335	2055.825
1903.46544	2041.425
1906.58551	2052.725
1909.70353	2042.625
1912.81953	2041.625
1915.93349	2031.625
1919.04543	2028.725
1922.15534	2023.725
1925.26322	2027.325
1928.36908	2012.025
1931.47292	2001.725
1934.57473	2003.225
1937.67453	1991.225
1940.77232	1993.625
1943.86808	1990.025
1946.96184	1968.925
1950.05358	1965.325
1953.14331	1953.325
1956.23103	1947.425
1959.31675	1942.425
1962.40046	1932.725
1965.48217	1934.925
1968.56188	1922.425
1971.63959	1920.825
1974.7153	1907.325
1977.78901	1904.225
1980.86073	1900.125
1983.93046	1888.325
1986.99819	1887.825
1990.06394	1869.625
1993.1277	1872.325
1996.18947	1854.925
1999.24925	1861.525
2002.30706	1848.325
2005.36288	1845.425
2008.41672	1832.825
2011.46859	1837.025
2014.51848	1821.025
2017.56639	1817.325
2020.61233	1812.625
2023.6563	1801.225
2026.6983	1787.525
2029.73833	1795.225
2032.7764	1784.925
2035.8125	1787.525
2038.84664	1775.225
2041.87881	1784.125
2044.90903	1772.525
2047.93729	1765.325
2050.96359	1757.925
2053.98794	1754.425
2057.01034	1749.225
2060.03078	1754.725
2063.04927	1751.625
2066.06582	1743.125
2069.08042	1739.225
2072.09307	1734.125
2075.10378	1740.425
2078.11255	1740.025
2081.11938	1744.025
2084.12426	1741.125
2087.12722	1736.825
2090.12824	1734.925
2093.12732	1729.625
2096.12447	1731.325
2099.11969	1725.225
2102.11299	1731.025
2105.10435	1724.925
2108.09379	1724.725
2111.08131	1723.025
2114.0669	1715.425
2117.05057	1725.725
2120.03233	1724.125
2123.01216	1721.325
2125.99008	1726.025
2128.96609	1714.725
2131.94018	1723.725
2134.91236	1712.325
2137.88263	1728.425
2140.851	1725.125
2143.81746	1724.425
2146.78201	1720.925
2149.74466	1722.925
2152.7054	1729.225
2155.66425	1727.425
2158.6212	1708.025
2161.57625	1706.625
2164.52941	1712.625
2167.48067	1702.925
2170.43004	1707.825
2173.37752	1700.325
2176.32311	1711.725
2179.26681	1701.625
2182.20863	1700.125
2185.14856	1696.125
2188.08661	1689.425
2191.02278	1691.625
2193.95707	1683.225
2196.88948	1681.325
2199.82001	1672.625
2202.74867	1673.525
2205.67545	1680.125
2208.60037	1670.125
2211.52341	1666.225
2214.44458	1668.625
2217.36388	1663.525
2220.28132	1657.625
2223.1969	1647.125
2226.11061	1641.525
2229.02246	1638.725
2231.93245	1633.325
2234.84058	1637.325
2237.74686	1629.225
2240.65128	1625.125
2243.55385	1617.125
2246.45456	1617.825
2249.35343	1616.325
2252.25044	1611.525
2255.14561	1599.925
2258.03893	1616.025
2260.93041	1611.725
2263.82004	1597.925
2266.70783	1591.425
2269.59378	1581.725
2272.4779	1578.425
2275.36017	1577.125
2278.24061	1571.525
2281.11922	1560.525
2283.996	1570.525
2286.87094	1558.125
2289.74405	1568.525
2292.61534	1543.625
2295.4848	1547.525
2298.35243	1542.725
2301.21824	1536.625
2304.08223	1535.125
2306.94439	1530.225
2309.80474	1527.225
2312.66327	1536.225
2315.51999	1537.425
2318.37489	1528.125
2321.22797	1520.425
2324.07925	1522.825
2326.92871	1527.525
2329.77637	1517.525
2332.62222	1519.425
2335.46626	1505.225
2338.3085	1503.125
2341.14893	1500.225
2343.98756	1501.825
2346.8244	1492.425
2349.65943	1489.725
2352.49267	1489.525
2355.32411	1481.525
2358.15376	1480.825
2360.98161	1486.025
2363.80768	1484.025
2366.63195	1475.225
2369.45444	1474.925
2372.27514	1476.225
2375.09405	1475.625
2377.91118	1471.425
2380.72652	1462.825
2383.54009	1454.825
2386.35187	1466.525
2389.16188	1454.325
2391.97011	1454.625
2394.77657	1443.225
2397.58125	1442.425
2400.38416	1450.825
2403.18529	1436.825
2405.98466	1440.625
2408.78226	1441.025
2411.57809	1431.925
2414.37216	1417.725
2417.16446	1425.525
2419.955	1420.125
2422.74378	1409.325
2425.5308	1408.925
2428.31606	1405.525
2431.09956	1395.625
2433.88131	1400.025
2436.6613	1404.425
2439.43954	1402.825
2442.21603	1392.725
2444.99077	1387.925
2447.76377	1391.225
2450.53501	1385.425
2453.30451	1386.125
2456.07226	1378.525
2458.83827	1380.425
2461.60254	1368.325
2464.36507	1372.425
2467.12586	1375.725
2469.88492	1366.325
2472.64224	1359.225
2475.39782	1372.725
2478.15167	1371.625
2480.90379	1367.925
2483.65417	1356.025
2486.40283	1355.425
2489.14976	1355.525
2491.89497	1363.225
2494.63845	1361.625
2497.3802	1351.225
2500.12024	1352.025
2502.85855	1352.725
2505.59514	1348.225
2508.33002	1339.325
2511.06318	1341.425
2513.79462	1346.325
2516.52435	1340.725
2519.25237	1330.525
2521.97867	1332.925
2524.70327	1320.625
2527.42616	1334.725
2530.14734	1316.325
2532.86681	1313.325
2535.58458	1310.725
2538.30065	1308.425
2541.01501	1310.825
2543.72768	1302.325
2546.43864	1304.225
2549.14791	1300.025
2551.85548	1300.425
2554.56136	1294.225
2557.26554	1290.825
2559.96803	1285.225
2562.66883	1287.025
2565.36794	1280.625
2568.06536	1279.925
2570.7611	1275.325
2573.45514	1272.325
2576.14751	1273.825
2578.83819	1264.425
2581.52719	1266.025
2584.21451	1261.325
2586.90015	1251.325
2589.58411	1255.525
2592.2664	1258.025
2594.94701	1248.025
2597.62594	1245.025
2600.30321	1237.625
2602.9788	1231.725
2605.65273	1243.525
2608.32498	1231.925
2610.99557	1224.125
2613.66449	1224.225
2616.33175	1222.625
2618.99734	1232.825
2621.66128	1227.125
2624.32355	1220.125
2626.98416	1219.925
2629.64311	1215.625
2632.30041	1213.425
2634.95605	1212.625
2637.61004	1205.625
2640.26238	1205.025
2642.91306	1200.625
2645.56209	1213.625
2648.20948	1198.325
2650.85521	1199.525
2653.4993	1204.725
2656.14175	1202.725
2658.78255	1194.925
2661.42171	1196.225
2664.05923	1195.525
2666.6951	1192.725
2669.32934	1203.625
2671.96194	1199.225
2674.59291	1188.825
2677.22224	1201.125
2679.84993	1196.925
2682.476	1183.625
2685.10043	1195.725
2687.72324	1198.525
2690.34441	1193.425
2692.96396	1192.925
2695.58188	1203.725
2698.19818	1195.425
2700.81285	1199.425
2703.4259	1215.625
2706.03733	1221.725
2708.64714	1219.525
2711.25533	1201.025
2713.86191	1198.125
2716.46687	1198.125
2719.07021	1209.125
2721.67194	1200.625
2724.27206	1193.525
2726.87057	1194.725
2729.46747	1188.225
2732.06276	1193.525
2734.65644	1190.825
2737.24852	1178.025
2739.83899	1190.025
2742.42786	1184.025
2745.01513	1179.925
2747.60079	1184.825
2750.18486	1172.525
2752.76733	1167.125
2755.3482	1172.325
2757.92747	1172.125
2760.50515	1172.525
2763.08123	1164.125
2765.65573	1162.425
2768.22863	1170.125
2770.79994	1158.525
2773.36967	1171.825
2775.9378	1161.125
2778.50435	1154.925
2781.06932	1145.625
2783.6327	1150.325
2786.1945	1146.625
2788.75471	1146.925
2791.31335	1144.825
2793.87041	1138.025
2796.42589	1142.525
2798.97979	1136.925
2801.53212	1137.525
2804.08288	1133.125
2806.63206	1133.725
2809.17967	1128.525
2811.72571	1118.625
2814.27018	1123.825
2816.81308	1129.725
2819.35442	1126.325
2821.89419	1118.825
2824.43239	1124.525
2826.96904	1128.325
2829.50412	1112.025
2832.03763	1117.025
2834.56959	1117.325
2837.1	1111.525
2839.62884	1114.525
2842.15613	1110.925
2844.68186	1125.325
2847.20604	1119.225
2849.72867	1118.025
2852.24974	1118.825
2854.76927	1131.925
2857.28724	1130.325
2859.80367	1117.625
2862.31855	1118.725
2864.83189	1114.025
2867.34368	1113.325
2869.85393	1120.125
2872.36264	1112.725
2874.8698	1116.125
2877.37543	1117.125
2879.87952	1117.325
2882.38207	1111.725
2884.88308	1126.125
2887.38256	1130.825
2889.88051	1125.925
2892.37692	1124.725
2894.8718	1184.125
2897.36515	1151.425
2899.85698	1138.625
2902.34727	1135.925
2904.83604	1132.725
2907.32328	1141.325
2909.809	1140.925
2912.29319	1136.325
2914.77587	1141.425
2917.25702	1143.625
2919.73665	1151.525
2922.21476	1149.725
2924.69136	1147.725
2927.16644	1143.625
2929.64	1148.525
2932.11205	1154.625
2934.58258	1153.525
2937.05161	1150.125
2939.51912	1149.225
2941.98513	1150.125
2944.44962	1144.325
2946.91261	1135.325
2949.37409	1159.925
2951.83407	1149.525
2954.29254	1147.225
2956.74951	1141.225
2959.20498	1142.425
2961.65895	1142.525
2964.11142	1132.925
2966.56239	1136.425
2969.01186	1137.325
2971.45984	1127.225
2973.90632	1118.125
2976.35131	1121.525
2978.7948	1123.825
2981.23681	1116.325
2983.67732	1113.425
2986.11635	1112.425
2988.55388	1108.325
2990.98993	1110.725
2993.4245	1119.725
2995.85758	1111.025
2998.28917	1112.425
3000.71928	1113.525
3003.14791	1115.925
3005.57506	1113.425
3008.00073	1116.425
3010.42493	1116.325
3012.84764	1118.425
3015.26888	1116.125
3017.68865	1119.025
3020.10694	1117.325
3022.52376	1123.225
3024.9391	1128.425
3027.35298	1114.725
3029.76539	1119.725
3032.17632	1123.025
3034.5858	1126.925
3036.9938	1123.225
3039.40034	1128.125
3041.80542	1128.025
3044.20903	1127.025
3046.61118	1130.225
3049.01187	1129.925
3051.4111	1132.625
3053.80888	1130.825
3056.20519	1144.325
3058.60005	1137.725
3060.99345	1148.025
3063.3854	1136.725
3065.7759	1149.225
3068.16494	1156.525
3070.55254	1149.325
3072.93868	1152.225
3075.32338	1151.825
3077.70662	1155.225
3080.08842	1162.025
3082.46878	1169.525
3084.84769	1175.725
3087.22515	1168.825
3089.60118	1186.025
3091.97576	1179.925
3094.3489	1180.025
3096.72061	1193.425
3099.09087	1195.425
3101.4597	1201.725
3103.82709	1206.425
3106.19305	1206.825
3108.55757	1220.325
3110.92066	1210.125
3113.28232	1219.125
3115.64255	1224.825
3118.00134	1232.725
3120.35871	1228.225
3122.71466	1245.725
3125.06917	1244.525
3127.42226	1237.825
3129.77393	1260.225
3132.12417	1258.025
3134.47299	1266.825
3136.82039	1274.025
3139.16636	1275.825
3141.51092	1294.525
3143.85406	1302.525
3146.19579	1309.825
3148.53609	1313.025
3150.87499	1327.225
3153.21246	1328.125
3155.54853	1343.325
3157.88318	1357.125
3160.21642	1350.125
3162.54826	1356.925
3164.87868	1365.225
3167.2077	1380.625
3169.5353	1386.325
3171.86151	1383.525
3174.18631	1393.825
3176.5097	1388.525
3178.83169	1403.125
3181.15228	1397.025
3183.47147	1411.625
3185.78926	1421.125
3188.10565	1419.925
3190.42065	1429.825
3192.73424	1433.725
3195.04645	1432.925
3197.35725	1444.025
3199.66667	1440.025
3201.97469	1451.825
3204.28132	1466.725
3206.58656	1461.625
3208.8904	1468.225
3211.19287	1471.725
3213.49394	1479.125
3215.79363	1488.425
3218.09193	1491.825
3220.38884	1490.825
3222.68438	1500.925
3224.97853	1498.425
3227.2713	1501.625
3229.56269	1497.725
3231.8527	1498.225
3234.14133	1495.125
3236.42858	1496.625
3238.71446	1498.925
3240.99896	1504.125
3243.28209	1499.525
3245.56384	1504.225
3247.84423	1499.225
3250.12324	1486.025
3252.40088	1504.325
3254.67715	1501.025
3256.95205	1495.525
3259.22558	1504.625
3261.49775	1501.725
3263.76855	1504.025
3266.03799	1493.925
3268.30606	1492.825
3270.57277	1494.525
3272.83812	1493.525
3275.10211	1491.725
3277.36474	1490.425
3279.62601	1493.125
3281.88593	1492.325
3284.14448	1494.125
3286.40168	1493.925
3288.65753	1484.025
3290.91202	1479.525
3293.16516	1477.625
3295.41695	1477.325
3297.66738	1471.725
3299.91647	1464.425
3302.16421	1455.525
3304.4106	1447.625
3306.65564	1457.025
3308.89933	1442.225
3311.14169	1439.825
3313.38269	1431.725
3315.62236	1420.525
3317.86068	1408.725
3320.09766	1394.725
3322.3333	1390.225
3324.5676	1394.825
3326.80056	1374.125
3329.03219	1364.125
3331.26248	1.025
3333.49143	-0.075
3335.71905	-0.475
