Data from AgNPs_FTO_APTES_UA_0.1mM_CRN_10uM_NaF_0.1M_Addition_RamanShift__29__11-52-17-571.txt Node

Date: Mon Dec 20 11:52:17 GMT 2021
User: TCL
Spectrometer: QEP01345
Trigger mode: 4
Integration Time (sec): 7.000000E0
Scans to average: 10
Electric dark correction enabled: true
Nonlinearity correction enabled: false
Boxcar width: 0
XAxis mode: Raman Shifts
Number of Pixels in Spectrum: 1044
>>>>>Begin Spectral Data<<<<<
46.04893	0.1125
50.45542	1.1125
54.85868	-1.0875
59.25871	1.9125
63.6555	32.4125
68.04907	31.3125
72.43941	36.1125
76.82654	35.1125
81.21044	36.9125
85.59113	40.5125
89.96862	40.0125
94.34289	44.5125
98.71396	46.9125
103.08183	44.8125
107.4465	48.1125
111.80798	49.3125
116.16626	46.7125
120.52136	49.2125
124.87327	51.1125
129.222	50.6125
133.56755	53.9125
137.90993	59.5125
142.24913	60.0125
146.58517	61.7125
150.91804	74.7125
155.24774	83.0125
159.57429	105.5125
163.89768	128.4125
168.21792	164.3125
172.53501	209.3125
176.84895	287.3125
181.15975	393.3125
185.46741	534.6125
189.77193	731.0125
194.07331	975.0125
198.37157	1270.3125
202.6667	1559.3125
206.9587	1861.7125
211.24758	2142.6125
215.53334	2427.0125
219.81599	2740.4125
224.09553	3054.6125
228.37195	3422.2125
232.64527	3799.7125
236.91549	4196.3125
241.18261	4568.3125
245.44663	4889.4125
249.70755	5152.9125
253.96539	5388.0125
258.22014	5566.7125
262.4718	5688.1125
266.72039	5768.4125
270.96589	5802.7125
275.20832	5783.3125
279.44768	5706.9125
283.68397	5639.6125
287.91719	5575.3125
292.14735	5550.8125
296.37445	5604.1125
300.59849	5711.3125
304.81948	5853.3125
309.03742	5959.1125
313.25231	5938.4125
317.46415	5743.1125
321.67296	5381.4125
325.87872	5110.1125
330.08145	4937.6125
334.28114	4905.6125
338.47781	4960.7125
342.67145	5056.9125
346.86207	5215.4125
351.04966	5427.3125
355.23424	5720.5125
359.4158	5944.3125
363.59435	6060.7125
367.76989	6132.6125
371.94243	6177.7125
376.11196	6217.7125
380.27849	6232.4125
384.44203	6225.1125
388.60257	6214.5125
392.76012	6205.2125
396.91468	6259.7125
401.06626	6373.8125
405.21485	6464.1125
409.36047	6336.5125
413.50311	6094.9125
417.64277	5855.9125
421.77947	5696.9125
425.9132	5620.8125
430.04396	5616.5125
434.17176	5641.7125
438.2966	5709.7125
442.41849	5797.9125
446.53742	5935.6125
450.6534	6067.0125
454.76644	6150.4125
458.87653	6159.4125
462.98368	6114.3125
467.08789	6057.3125
471.18916	5996.7125
475.2875	5917.6125
479.38291	5915.8125
483.4754	5959.9125
487.56496	6070.4125
491.6516	6193.8125
495.73531	6234.5125
499.81612	6186.7125
503.89401	6097.2125
507.96899	6040.2125
512.04106	6057.2125
516.11023	6175.9125
520.1765	6294.1125
524.23987	6391.7125
528.30034	6383.0125
532.35792	6305.6125
536.41261	6161.0125
540.46441	5955.3125
544.51333	5767.5125
548.55936	5719.4125
552.60252	5719.4125
556.64279	5794.7125
560.6802	5848.4125
564.71473	5897.2125
568.7464	6072.0125
572.7752	6197.8125
576.80114	6134.2125
580.82422	6026.9125
584.84444	6040.7125
588.86181	6137.0125
592.87633	6246.1125
596.888	6285.2125
600.89682	6350.8125
604.9028	6789.4125
608.90594	8066.7125
612.90624	9898.2125
616.90371	10029.9125
620.89834	8280.4125
624.89015	7740.9125
628.87913	8144.9125
632.86528	8635.6125
636.84862	8850.6125
640.82913	8550.4125
644.80683	7865.4125
648.78172	7169.9125
652.75379	6721.7125
656.72306	6530.4125
660.68952	6500.6125
664.65319	6370.0125
668.61405	6119.0125
672.57211	5964.7125
676.52738	5933.5125
680.47986	5921.9125
684.42955	5897.3125
688.37646	5906.4125
692.32058	5921.0125
696.26192	5927.1125
700.20048	5934.1125
704.13626	5929.0125
708.06928	5869.6125
711.99952	5795.9125
715.927	5792.0125
719.85171	5856.7125
723.77365	5926.8125
727.69284	5901.4125
731.60928	5793.9125
735.52295	5709.1125
739.43388	5676.4125
743.34206	5679.0125
747.24749	5719.8125
751.15017	5759.2125
755.05012	5815.0125
758.94733	6002.7125
762.8418	6409.7125
766.73354	7098.2125
770.62254	7860.9125
774.50882	8284.4125
778.39237	8066.4125
782.27321	7272.6125
786.15132	6500.7125
790.02671	6086.5125
793.89938	5942.5125
797.76935	5972.4125
801.6366	6132.5125
805.50115	6523.2125
809.36299	6942.9125
813.22213	7062.6125
817.07857	6863.5125
820.93231	6464.0125
824.78336	6085.5125
828.63172	5809.4125
832.47738	5678.1125
836.32036	5607.9125
840.16066	5549.9125
843.99827	5513.9125
847.8332	5480.2125
851.66546	5461.7125
855.49504	5458.2125
859.32195	5476.3125
863.1462	5536.6125
866.96777	5626.2125
870.78668	5796.3125
874.60293	6053.6125
878.41652	6333.8125
882.22745	6598.6125
886.03573	6748.5125
889.84136	6698.1125
893.64433	6422.2125
897.44466	6106.9125
901.24235	5789.7125
905.0374	5563.2125
908.8298	5397.7125
912.61957	5318.1125
916.40671	5291.0125
920.19121	5275.6125
923.97308	5282.2125
927.75233	5296.3125
931.52895	5320.0125
935.30295	5277.1125
939.07433	5196.6125
942.84309	5095.9125
946.60924	5063.2125
950.37278	5021.4125
954.13371	5026.5125
957.89203	5001.0125
961.64774	4978.4125
965.40086	4975.3125
969.15137	4959.0125
972.89929	4942.4125
976.64461	4927.4125
980.38733	4938.0125
984.12747	4945.4125
987.86502	4980.3125
991.59999	5039.7125
995.33237	5123.0125
999.06217	5291.9125
1002.78939	5477.2125
1006.51404	5697.0125
1010.23611	5883.6125
1013.95561	6021.5125
1017.67255	6038.8125
1021.38692	5921.7125
1025.09872	5750.5125
1028.80796	5567.7125
1032.51465	5438.0125
1036.21877	5353.8125
1039.92035	5288.7125
1043.61937	5264.5125
1047.31584	5247.6125
1051.00976	5261.0125
1054.70114	5280.2125
1058.38998	5344.3125
1062.07627	5431.3125
1065.76003	5534.3125
1069.44126	5595.4125
1073.11995	5611.7125
1076.79611	5623.7125
1080.46974	5600.7125
1084.14085	5631.7125
1087.80943	5634.8125
1091.47549	5604.1125
1095.13903	5521.7125
1098.80005	5392.2125
1102.45857	5311.8125
1106.11456	5266.5125
1109.76805	5359.0125
1113.41903	5513.7125
1117.06751	5760.0125
1120.71348	6145.7125
1124.35696	6680.1125
1127.99793	7311.3125
1131.63641	7782.3125
1135.2724	7956.6125
1138.90589	7864.8125
1142.5369	7550.8125
1146.16542	7087.9125
1149.79145	6570.1125
1153.415	6114.5125
1157.03607	5834.2125
1160.65467	5687.6125
1164.27079	5686.6125
1167.88443	5788.6125
1171.49561	6119.4125
1175.10432	6630.9125
1178.71056	7363.5125
1182.31434	8016.3125
1185.91565	8295.2125
1189.51451	8385.1125
1193.11091	8413.2125
1196.70485	8422.9125
1200.29634	8457.0125
1203.88538	8380.0125
1207.47197	8051.2125
1211.05612	7531.6125
1214.63782	7062.5125
1218.21708	6643.3125
1221.79391	6329.5125
1225.36829	6104.2125
1228.94024	5934.9125
1232.50976	5833.3125
1236.07685	5763.6125
1239.6415	5752.4125
1243.20374	5780.2125
1246.76355	5832.3125
1250.32093	5880.6125
1253.8759	5954.0125
1257.42845	6067.5125
1260.97859	6160.0125
1264.52631	6283.5125
1268.07163	6379.7125
1271.61453	6429.2125
1275.15503	6489.3125
1278.69312	6495.8125
1282.22882	6493.1125
1285.76211	6551.8125
1289.29301	6748.1125
1292.82151	6956.2125
1296.34761	7181.2125
1299.87133	7538.4125
1303.39266	8059.9125
1306.9116	8809.4125
1310.42815	9649.6125
1313.94233	10166.5125
1317.45412	10103.1125
1320.96354	9641.0125
1324.47058	9123.4125
1327.97525	8653.4125
1331.47754	8411.8125
1334.97747	8366.9125
1338.47502	8449.9125
1341.97022	8722.2125
1345.46305	9018.0125
1348.95352	9447.7125
1352.44163	9970.4125
1355.92738	10768.4125
1359.41078	11867.7125
1362.89183	12865.4125
1366.37053	12561.3125
1369.84688	11104.1125
1373.32088	9618.8125
1376.79254	8628.8125
1380.26186	8100.9125
1383.72883	7802.9125
1387.19347	7592.4125
1390.65578	7399.6125
1394.11575	7211.6125
1397.57339	7109.8125
1401.0287	7070.3125
1404.48168	7046.9125
1407.93234	6954.8125
1411.38068	6875.9125
1414.82669	6701.4125
1418.27039	6490.5125
1421.71177	6285.9125
1425.15083	6096.3125
1428.58758	5989.4125
1432.02203	5975.8125
1435.45416	5994.6125
1438.88399	6037.9125
1442.31151	6041.6125
1445.73673	6057.5125
1449.15965	6091.8125
1452.58027	6082.8125
1455.9986	6061.4125
1459.41463	6046.5125
1462.82837	6081.4125
1466.23982	6156.7125
1469.64898	6266.1125
1473.05586	6335.0125
1476.46045	6373.6125
1479.86276	6455.7125
1483.26279	6592.9125
1486.66054	6767.2125
1490.05602	6960.1125
1493.44922	7219.2125
1496.84016	7589.3125
1500.22882	8134.9125
1503.61521	8899.1125
1506.99934	9721.4125
1510.38121	10456.9125
1513.76081	10704.7125
1517.13816	10236.7125
1520.51324	9220.1125
1523.88607	8246.7125
1527.25665	7578.2125
1530.62498	7276.2125
1533.99105	7129.3125
1537.35488	7093.4125
1540.71647	7119.9125
1544.07581	7156.4125
1547.4329	7233.0125
1550.78776	7244.8125
1554.14038	7224.5125
1557.49077	7242.1125
1560.83892	7258.7125
1564.18484	7367.9125
1567.52853	7498.8125
1570.86999	7628.2125
1574.20922	7721.1125
1577.54624	7735.3125
1580.88103	7513.9125
1584.2136	7219.1125
1587.54395	7051.0125
1590.87208	7111.8125
1594.19801	7363.5125
1597.52172	7765.2125
1600.84321	8024.2125
1604.16251	7940.2125
1607.47959	7684.5125
1610.79447	7312.2125
1614.10715	6943.0125
1617.41763	6664.0125
1620.7259	6494.8125
1624.03199	6404.7125
1627.33587	6439.2125
1630.63757	6490.9125
1633.93707	6734.3125
1637.23439	7085.1125
1640.52951	7601.9125
1643.82246	8283.2125
1647.11321	9101.5125
1650.40179	9688.1125
1653.68819	9593.9125
1656.97241	8786.9125
1660.25446	7777.0125
1663.53433	6998.7125
1666.81203	6429.1125
1670.08756	6043.3125
1673.36092	5763.7125
1676.63211	5574.6125
1679.90115	5421.1125
1683.16801	5309.0125
1686.43272	5186.8125
1689.69527	5096.8125
1692.95567	5020.0125
1696.2139	4952.9125
1699.46999	4871.1125
1702.72392	4787.3125
1705.97571	4717.6125
1709.22535	4635.7125
1712.47284	4593.6125
1715.71819	4554.1125
1718.96139	4505.8125
1722.20246	4468.6125
1725.44139	4414.8125
1728.67818	4351.8125
1731.91284	4307.5125
1735.14537	4256.2125
1738.37576	4211.9125
1741.60403	4195.6125
1744.83017	4176.6125
1748.05418	4156.3125
1751.27607	4155.7125
1754.49584	4119.2125
1757.71349	4124.9125
1760.92903	4106.4125
1764.14244	4097.3125
1767.35375	4068.6125
1770.56294	4061.1125
1773.77002	4031.9125
1776.97499	4002.6125
1780.17785	3989.0125
1783.37861	3966.1125
1786.57727	3954.1125
1789.77382	3931.8125
1792.96828	3922.5125
1796.16064	3920.2125
1799.3509	3899.7125
1802.53907	3890.5125
1805.72514	3861.0125
1808.90913	3865.1125
1812.09102	3837.9125
1815.27083	3829.6125
1818.44856	3827.9125
1821.6242	3806.6125
1824.79776	3818.1125
1827.96924	3810.5125
1831.13864	3791.3125
1834.30597	3797.5125
1837.47122	3804.7125
1840.6344	3781.4125
1843.7955	3772.1125
1846.95454	3775.0125
1850.11151	3765.2125
1853.26642	3769.4125
1856.41926	3761.6125
1859.57004	3765.6125
1862.71876	3763.4125
1865.86542	3751.3125
1869.01003	3761.3125
1872.15258	3738.6125
1875.29308	3738.1125
1878.43152	3728.4125
1881.56792	3734.2125
1884.70227	3730.3125
1887.83457	3715.5125
1890.96482	3713.8125
1894.09304	3710.4125
1897.21921	3686.1125
1900.34335	3700.5125
1903.46544	3691.0125
1906.58551	3693.4125
1909.70353	3692.7125
1912.81953	3681.8125
1915.93349	3675.0125
1919.04543	3663.6125
1922.15534	3664.5125
1925.26322	3657.0125
1928.36908	3635.3125
1931.47292	3643.7125
1934.57473	3622.5125
1937.67453	3604.3125
1940.77232	3602.5125
1943.86808	3593.4125
1946.96184	3593.0125
1950.05358	3559.9125
1953.14331	3553.3125
1956.23103	3544.5125
1959.31675	3545.8125
1962.40046	3534.5125
1965.48217	3521.2125
1968.56188	3512.4125
1971.63959	3502.6125
1974.7153	3486.7125
1977.78901	3483.6125
1980.86073	3475.5125
1983.93046	3455.9125
1986.99819	3437.7125
1990.06394	3421.8125
1993.1277	3426.7125
1996.18947	3410.7125
1999.24925	3397.5125
2002.30706	3392.1125
2005.36288	3391.1125
2008.41672	3366.8125
2011.46859	3344.7125
2014.51848	3349.7125
2017.56639	3344.5125
2020.61233	3330.5125
2023.6563	3311.2125
2026.6983	3311.4125
2029.73833	3306.3125
2032.7764	3303.9125
2035.8125	3292.8125
2038.84664	3286.4125
2041.87881	3273.2125
2044.90903	3265.1125
2047.93729	3267.0125
2050.96359	3263.9125
2053.98794	3265.4125
2057.01034	3256.1125
2060.03078	3246.0125
2063.04927	3246.9125
2066.06582	3254.8125
2069.08042	3237.6125
2072.09307	3234.0125
2075.10378	3230.5125
2078.11255	3238.1125
2081.11938	3239.6125
2084.12426	3224.5125
2087.12722	3223.2125
2090.12824	3223.3125
2093.12732	3227.1125
2096.12447	3219.0125
2099.11969	3226.4125
2102.11299	3217.7125
2105.10435	3212.6125
2108.09379	3224.7125
2111.08131	3218.4125
2114.0669	3227.4125
2117.05057	3242.5125
2120.03233	3224.1125
2123.01216	3233.6125
2125.99008	3223.5125
2128.96609	3243.4125
2131.94018	3238.0125
2134.91236	3243.3125
2137.88263	3234.2125
2140.851	3239.3125
2143.81746	3251.3125
2146.78201	3235.8125
2149.74466	3223.7125
2152.7054	3234.9125
2155.66425	3224.6125
2158.6212	3230.1125
2161.57625	3219.0125
2164.52941	3229.7125
2167.48067	3229.2125
2170.43004	3213.5125
2173.37752	3215.1125
2176.32311	3215.2125
2179.26681	3210.5125
2182.20863	3221.8125
2185.14856	3219.7125
2188.08661	3206.4125
2191.02278	3207.8125
2193.95707	3206.4125
2196.88948	3211.3125
2199.82001	3188.0125
2202.74867	3185.3125
2205.67545	3194.4125
2208.60037	3181.8125
2211.52341	3171.9125
2214.44458	3160.6125
2217.36388	3164.7125
2220.28132	3158.3125
2223.1969	3151.2125
2226.11061	3137.8125
2229.02246	3128.7125
2231.93245	3143.0125
2234.84058	3118.0125
2237.74686	3110.6125
2240.65128	3112.8125
2243.55385	3105.7125
2246.45456	3105.6125
2249.35343	3101.5125
2252.25044	3091.3125
2255.14561	3090.0125
2258.03893	3091.0125
2260.93041	3093.7125
2263.82004	3085.3125
2266.70783	3077.8125
2269.59378	3077.1125
2272.4779	3060.4125
2275.36017	3063.6125
2278.24061	3058.8125
2281.11922	3044.0125
2283.996	3041.6125
2286.87094	3043.3125
2289.74405	3032.8125
2292.61534	3002.7125
2295.4848	3001.0125
2298.35243	3003.8125
2301.21824	2988.3125
2304.08223	2996.4125
2306.94439	2999.6125
2309.80474	2996.7125
2312.66327	2990.4125
2315.51999	2990.6125
2318.37489	2982.5125
2321.22797	2978.4125
2324.07925	2969.8125
2326.92871	2958.0125
2329.77637	2955.8125
2332.62222	2953.4125
2335.46626	2951.0125
2338.3085	2948.6125
2341.14893	2943.1125
2343.98756	2948.1125
2346.8244	2928.9125
2349.65943	2940.6125
2352.49267	2947.6125
2355.32411	2914.9125
2358.15376	2934.5125
2360.98161	2940.7125
2363.80768	2934.0125
2366.63195	2948.8125
2369.45444	2935.4125
2372.27514	2936.7125
2375.09405	2938.1125
2377.91118	2932.5125
2380.72652	2925.3125
2383.54009	2919.6125
2386.35187	2909.8125
2389.16188	2894.3125
2391.97011	2892.5125
2394.77657	2888.5125
2397.58125	2872.2125
2400.38416	2881.6125
2403.18529	2863.2125
2405.98466	2860.1125
2408.78226	2836.9125
2411.57809	2845.2125
2414.37216	2826.5125
2417.16446	2834.0125
2419.955	2814.7125
2422.74378	2816.3125
2425.5308	2817.3125
2428.31606	2813.3125
2431.09956	2797.1125
2433.88131	2800.5125
2436.6613	2810.5125
2439.43954	2791.6125
2442.21603	2801.3125
2444.99077	2794.0125
2447.76377	2799.0125
2450.53501	2799.4125
2453.30451	2792.4125
2456.07226	2793.3125
2458.83827	2780.0125
2461.60254	2784.8125
2464.36507	2767.0125
2467.12586	2778.8125
2469.88492	2771.9125
2472.64224	2772.6125
2475.39782	2773.8125
2478.15167	2779.5125
2480.90379	2760.3125
2483.65417	2778.2125
2486.40283	2775.4125
2489.14976	2782.8125
2491.89497	2778.6125
2494.63845	2790.3125
2497.3802	2777.9125
2500.12024	2763.6125
2502.85855	2757.8125
2505.59514	2748.9125
2508.33002	2748.8125
2511.06318	2741.7125
2513.79462	2722.3125
2516.52435	2734.4125
2519.25237	2726.4125
2521.97867	2721.7125
2524.70327	2706.3125
2527.42616	2715.8125
2530.14734	2705.2125
2532.86681	2694.6125
2535.58458	2688.4125
2538.30065	2686.8125
2541.01501	2687.0125
2543.72768	2681.9125
2546.43864	2668.7125
2549.14791	2667.1125
2551.85548	2663.3125
2554.56136	2661.9125
2557.26554	2652.6125
2559.96803	2661.6125
2562.66883	2653.1125
2565.36794	2647.0125
2568.06536	2638.4125
2570.7611	2636.9125
2573.45514	2638.5125
2576.14751	2629.6125
2578.83819	2629.4125
2581.52719	2620.9125
2584.21451	2620.5125
2586.90015	2609.0125
2589.58411	2604.2125
2592.2664	2596.9125
2594.94701	2603.1125
2597.62594	2584.4125
2600.30321	2586.2125
2602.9788	2587.7125
2605.65273	2574.2125
2608.32498	2572.1125
2610.99557	2567.2125
2613.66449	2554.0125
2616.33175	2568.0125
2618.99734	2555.9125
2621.66128	2569.0125
2624.32355	2547.7125
2626.98416	2551.3125
2629.64311	2559.8125
2632.30041	2549.1125
2634.95605	2547.8125
2637.61004	2533.5125
2640.26238	2532.3125
2642.91306	2526.0125
2645.56209	2527.8125
2648.20948	2530.1125
2650.85521	2518.0125
2653.4993	2518.1125
2656.14175	2513.9125
2658.78255	2523.5125
2661.42171	2529.9125
2664.05923	2517.1125
2666.6951	2528.7125
2669.32934	2527.5125
2671.96194	2518.4125
2674.59291	2525.7125
2677.22224	2538.2125
2679.84993	2529.4125
2682.476	2521.0125
2685.10043	2543.2125
2687.72324	2529.9125
2690.34441	2524.5125
2692.96396	2539.5125
2695.58188	2532.9125
2698.19818	2530.9125
2700.81285	2539.8125
2703.4259	2540.7125
2706.03733	2566.6125
2708.64714	2560.9125
2711.25533	2539.9125
2713.86191	2532.4125
2716.46687	2536.7125
2719.07021	2535.9125
2721.67194	2542.9125
2724.27206	2526.6125
2726.87057	2546.6125
2729.46747	2529.5125
2732.06276	2526.9125
2734.65644	2538.6125
2737.24852	2533.9125
2739.83899	2523.8125
2742.42786	2528.5125
2745.01513	2523.2125
2747.60079	2518.7125
2750.18486	2527.4125
2752.76733	2508.0125
2755.3482	2511.3125
2757.92747	2509.7125
2760.50515	2503.5125
2763.08123	2508.1125
2765.65573	2495.0125
2768.22863	2497.8125
2770.79994	2493.3125
2773.36967	2493.2125
2775.9378	2485.9125
2778.50435	2481.6125
2781.06932	2483.0125
2783.6327	2479.7125
2786.1945	2480.0125
2788.75471	2478.5125
2791.31335	2480.7125
2793.87041	2478.8125
2796.42589	2468.2125
2798.97979	2473.6125
2801.53212	2463.8125
2804.08288	2452.5125
2806.63206	2470.7125
2809.17967	2450.4125
2811.72571	2454.1125
2814.27018	2451.3125
2816.81308	2453.6125
2819.35442	2441.1125
2821.89419	2430.3125
2824.43239	2452.2125
2826.96904	2440.5125
2829.50412	2449.1125
2832.03763	2444.1125
2834.56959	2451.6125
2837.1	2445.9125
2839.62884	2445.1125
2842.15613	2451.2125
2844.68186	2460.5125
2847.20604	2469.2125
2849.72867	2473.2125
2852.24974	2481.4125
2854.76927	2495.7125
2857.28724	2488.6125
2859.80367	2492.3125
2862.31855	2485.8125
2864.83189	2478.2125
2867.34368	2470.9125
2869.85393	2484.0125
2872.36264	2466.7125
2874.8698	2475.5125
2877.37543	2469.2125
2879.87952	2480.6125
2882.38207	2475.8125
2884.88308	2484.0125
2887.38256	2478.9125
2889.88051	2470.0125
2892.37692	2478.0125
2894.8718	2476.2125
2897.36515	2477.5125
2899.85698	2474.4125
2902.34727	2484.6125
2904.83604	2472.2125
2907.32328	2495.6125
2909.809	2489.6125
2912.29319	2472.4125
2914.77587	2483.4125
2917.25702	2489.4125
2919.73665	2480.8125
2922.21476	2483.5125
2924.69136	2475.5125
2927.16644	2468.6125
2929.64	2473.2125
2932.11205	2467.0125
2934.58258	2468.8125
2937.05161	2465.6125
2939.51912	2451.2125
2941.98513	2452.4125
2944.44962	2449.4125
2946.91261	2438.4125
2949.37409	2443.0125
2951.83407	2421.4125
2954.29254	2434.8125
2956.74951	2413.8125
2959.20498	2408.9125
2961.65895	2407.3125
2964.11142	2411.5125
2966.56239	2406.3125
2969.01186	2398.1125
2971.45984	2389.6125
2973.90632	2384.5125
2976.35131	2376.2125
2978.7948	2381.6125
2981.23681	2368.5125
2983.67732	2368.1125
2986.11635	2377.0125
2988.55388	2360.7125
2990.98993	2366.5125
2993.4245	2360.3125
2995.85758	2339.8125
2998.28917	2339.7125
3000.71928	2344.7125
3003.14791	2344.0125
3005.57506	2348.5125
3008.00073	2341.0125
3010.42493	2347.6125
3012.84764	2335.0125
3015.26888	2351.5125
3017.68865	2343.8125
3020.10694	2332.2125
3022.52376	2347.4125
3024.9391	2336.8125
3027.35298	2334.6125
3029.76539	2334.3125
3032.17632	2335.6125
3034.5858	2333.0125
3036.9938	2333.0125
3039.40034	2336.0125
3041.80542	2325.1125
3044.20903	2316.6125
3046.61118	2335.3125
3049.01187	2316.2125
3051.4111	2333.8125
3053.80888	2339.0125
3056.20519	2340.2125
3058.60005	2326.9125
3060.99345	2316.9125
3063.3854	2327.2125
3065.7759	2318.0125
3068.16494	2317.3125
3070.55254	2329.7125
3072.93868	2320.9125
3075.32338	2329.2125
3077.70662	2328.2125
3080.08842	2323.2125
3082.46878	2318.6125
3084.84769	2316.1125
3087.22515	2328.1125
3089.60118	2327.5125
3091.97576	2343.4125
3094.3489	2331.5125
3096.72061	2348.7125
3099.09087	2356.5125
3101.4597	2355.6125
3103.82709	2368.0125
3106.19305	2359.3125
3108.55757	2374.9125
3110.92066	2366.0125
3113.28232	2356.9125
3115.64255	2367.5125
3118.00134	2374.3125
3120.35871	2362.2125
3122.71466	2380.6125
3125.06917	2371.5125
3127.42226	2371.3125
3129.77393	2394.8125
3132.12417	2388.5125
3134.47299	2408.3125
3136.82039	2407.6125
3139.16636	2406.3125
3141.51092	2424.2125
3143.85406	2439.0125
3146.19579	2436.1125
3148.53609	2440.6125
3150.87499	2444.6125
3153.21246	2453.1125
3155.54853	2465.3125
3157.88318	2463.8125
3160.21642	2478.9125
3162.54826	2487.2125
3164.87868	2495.7125
3167.2077	2486.9125
3169.5353	2504.5125
3171.86151	2512.5125
3174.18631	2511.4125
3176.5097	2517.6125
3178.83169	2509.4125
3181.15228	2526.5125
3183.47147	2529.8125
3185.78926	2535.0125
3188.10565	2527.8125
3190.42065	2547.7125
3192.73424	2546.5125
3195.04645	2564.7125
3197.35725	2558.2125
3199.66667	2570.6125
3201.97469	2578.9125
3204.28132	2590.7125
3206.58656	2606.9125
3208.8904	2606.4125
3211.19287	2606.5125
3213.49394	2609.8125
3215.79363	2613.0125
3218.09193	2627.2125
3220.38884	2629.3125
3222.68438	2637.6125
3224.97853	2619.4125
3227.2713	2618.4125
3229.56269	2624.5125
3231.8527	2627.6125
3234.14133	2629.0125
3236.42858	2629.9125
3238.71446	2624.1125
3240.99896	2622.3125
3243.28209	2623.0125
3245.56384	2624.8125
3247.84423	2631.8125
3250.12324	2626.3125
3252.40088	2620.2125
3254.67715	2621.1125
3256.95205	2620.6125
3259.22558	2630.8125
3261.49775	2620.7125
3263.76855	2616.0125
3266.03799	2623.9125
3268.30606	2613.4125
3270.57277	2602.4125
3272.83812	2610.9125
3275.10211	2595.9125
3277.36474	2605.6125
3279.62601	2590.7125
3281.88593	2604.3125
3284.14448	2606.4125
3286.40168	2602.1125
3288.65753	2604.7125
3290.91202	2600.1125
3293.16516	2590.5125
3295.41695	2582.4125
3297.66738	2558.5125
3299.91647	2549.2125
3302.16421	2535.7125
3304.4106	2541.9125
3306.65564	2528.3125
3308.89933	2505.1125
3311.14169	2486.0125
3313.38269	2477.7125
3315.62236	2464.2125
3317.86068	2436.8125
3320.09766	2413.8125
3322.3333	2410.8125
3324.5676	2410.4125
3326.80056	2370.1125
3329.03219	2357.4125
3331.26248	-0.7875
3333.49143	-0.5875
3335.71905	-0.8875
