Data from AgNPs_FTO_APTES_UA_0.1mM_CRN_50uM_NaF_0.1M_Addition_RamanShift__7__12-44-47-630.txt Node

Date: Mon Dec 20 12:44:47 GMT 2021
User: TCL
Spectrometer: QEP01345
Trigger mode: 4
Integration Time (sec): 7.000000E0
Scans to average: 10
Electric dark correction enabled: true
Nonlinearity correction enabled: false
Boxcar width: 0
XAxis mode: Raman Shifts
Number of Pixels in Spectrum: 1044
>>>>>Begin Spectral Data<<<<<
46.04893	0.625
50.45542	0.425
54.85868	-1.975
59.25871	0.925
63.6555	29.825
68.04907	27.725
72.43941	33.125
76.82654	32.525
81.21044	33.325
85.59113	39.025
89.96862	34.925
94.34289	40.825
98.71396	41.525
103.08183	42.425
107.4465	43.225
111.80798	45.025
116.16626	41.925
120.52136	45.325
124.87327	48.525
129.222	48.025
133.56755	48.525
137.90993	52.925
142.24913	59.025
146.58517	59.825
150.91804	69.625
155.24774	83.625
159.57429	96.225
163.89768	120.825
168.21792	159.025
172.53501	204.325
176.84895	283.225
181.15975	385.625
185.46741	532.425
189.77193	741.025
194.07331	979.725
198.37157	1280.825
202.6667	1577.125
206.9587	1886.225
211.24758	2192.225
215.53334	2512.125
219.81599	2845.525
224.09553	3209.325
228.37195	3610.025
232.64527	4057.925
236.91549	4555.325
241.18261	5020.625
245.44663	5436.525
249.70755	5798.125
253.96539	6065.325
258.22014	6258.525
262.4718	6386.925
266.72039	6425.625
270.96589	6447.325
275.20832	6373.625
279.44768	6303.825
283.68397	6184.525
287.91719	6069.625
292.14735	5984.725
296.37445	5933.525
300.59849	5885.125
304.81948	5868.725
309.03742	5823.025
313.25231	5781.425
317.46415	5708.425
321.67296	5609.925
325.87872	5535.725
330.08145	5489.525
334.28114	5485.525
338.47781	5484.625
342.67145	5508.325
346.86207	5556.525
351.04966	5619.025
355.23424	5716.225
359.4158	5752.925
363.59435	5832.925
367.76989	5865.925
371.94243	5940.325
376.11196	5995.325
380.27849	6045.225
384.44203	6101.125
388.60257	6162.725
392.76012	6208.225
396.91468	6276.125
401.06626	6324.925
405.21485	6385.125
409.36047	6366.325
413.50311	6348.125
417.64277	6293.725
421.77947	6311.525
425.9132	6317.625
430.04396	6321.125
434.17176	6357.625
438.2966	6373.225
442.41849	6397.025
446.53742	6464.525
450.6534	6529.625
454.76644	6565.225
458.87653	6591.325
462.98368	6634.425
467.08789	6629.125
471.18916	6659.025
475.2875	6657.425
479.38291	6705.925
483.4754	6772.525
487.56496	6857.725
491.6516	6977.125
495.73531	7072.725
499.81612	7102.025
503.89401	7080.525
507.96899	7025.425
512.04106	6950.825
516.11023	6885.125
520.1765	6869.925
524.23987	6875.325
528.30034	6894.625
532.35792	6891.925
536.41261	6875.325
540.46441	6817.525
544.51333	6749.325
548.55936	6695.625
552.60252	6691.625
556.64279	6679.725
560.6802	6693.125
564.71473	6691.025
568.7464	6733.825
572.7752	6802.125
576.80114	6818.825
580.82422	6907.025
584.84444	7017.125
588.86181	7131.625
592.87633	7200.925
596.888	7163.625
600.89682	7110.625
604.9028	7124.125
608.90594	7380.625
612.90624	7777.125
616.90371	7768.625
620.89834	7415.625
624.89015	7457.325
628.87913	7839.525
632.86528	8332.225
636.84862	8717.825
640.82913	8791.425
644.80683	8510.025
648.78172	8087.325
652.75379	7692.625
656.72306	7433.625
660.68952	7270.725
664.65319	7108.725
668.61405	6976.425
672.57211	6922.825
676.52738	6925.825
680.47986	6965.925
684.42955	6946.425
688.37646	6899.825
692.32058	6852.325
696.26192	6776.625
700.20048	6752.925
704.13626	6713.025
708.06928	6687.525
711.99952	6665.025
715.927	6687.125
719.85171	6728.525
723.77365	6772.225
727.69284	6828.325
731.60928	6782.225
735.52295	6710.625
739.43388	6637.625
743.34206	6635.025
747.24749	6621.525
751.15017	6606.325
755.05012	6667.725
758.94733	6705.925
762.8418	6830.325
766.73354	7028.725
770.62254	7210.625
774.50882	7247.225
778.39237	7117.225
782.27321	6863.725
786.15132	6666.525
790.02671	6540.725
793.89938	6503.025
797.76935	6512.525
801.6366	6579.725
805.50115	6716.925
809.36299	6932.325
813.22213	7100.025
817.07857	7043.325
820.93231	6915.125
824.78336	6714.825
828.63172	6535.825
832.47738	6386.325
836.32036	6339.125
840.16066	6305.425
843.99827	6292.925
847.8332	6276.125
851.66546	6271.425
855.49504	6276.525
859.32195	6299.525
863.1462	6300.825
866.96777	6353.425
870.78668	6409.325
874.60293	6517.025
878.41652	6633.125
882.22745	6755.025
886.03573	6896.825
889.84136	6943.425
893.64433	6899.925
897.44466	6746.825
901.24235	6549.225
905.0374	6371.625
908.8298	6272.125
912.61957	6197.025
916.40671	6161.025
920.19121	6146.625
923.97308	6127.325
927.75233	6118.525
931.52895	6077.925
935.30295	6042.825
939.07433	6019.525
942.84309	5969.825
946.60924	5947.925
950.37278	5914.025
954.13371	5899.925
957.89203	5909.025
961.64774	5899.625
965.40086	5872.025
969.15137	5844.525
972.89929	5816.025
976.64461	5829.025
980.38733	5798.625
984.12747	5798.325
987.86502	5830.325
991.59999	5856.725
995.33237	5865.325
999.06217	5921.325
1002.78939	5999.925
1006.51404	6045.425
1010.23611	6133.725
1013.95561	6189.025
1017.67255	6217.425
1021.38692	6231.425
1025.09872	6193.825
1028.80796	6141.125
1032.51465	6047.825
1036.21877	6019.625
1039.92035	5958.225
1043.61937	5923.825
1047.31584	5923.925
1051.00976	5914.425
1054.70114	5949.725
1058.38998	5977.825
1062.07627	6000.525
1065.76003	6081.425
1069.44126	6124.425
1073.11995	6206.725
1076.79611	6242.525
1080.46974	6245.725
1084.14085	6210.425
1087.80943	6156.925
1091.47549	6131.425
1095.13903	6093.125
1098.80005	6046.425
1102.45857	6001.325
1106.11456	5972.425
1109.76805	6022.025
1113.41903	6123.525
1117.06751	6337.225
1120.71348	6687.325
1124.35696	7114.625
1127.99793	7609.225
1131.63641	8027.225
1135.2724	8203.525
1138.90589	8131.125
1142.5369	7889.325
1146.16542	7521.625
1149.79145	7138.125
1153.415	6777.725
1157.03607	6465.625
1160.65467	6289.525
1164.27079	6220.425
1167.88443	6235.825
1171.49561	6301.825
1175.10432	6457.825
1178.71056	6659.925
1182.31434	6858.025
1185.91565	6999.525
1189.51451	7080.125
1193.11091	7104.025
1196.70485	7123.025
1200.29634	7163.425
1203.88538	7188.025
1207.47197	7172.025
1211.05612	7065.325
1214.63782	6922.025
1218.21708	6761.325
1221.79391	6580.825
1225.36829	6426.025
1228.94024	6324.325
1232.50976	6261.625
1236.07685	6209.025
1239.6415	6198.425
1243.20374	6202.425
1246.76355	6235.725
1250.32093	6294.525
1253.8759	6361.425
1257.42845	6436.025
1260.97859	6510.725
1264.52631	6566.125
1268.07163	6610.525
1271.61453	6645.025
1275.15503	6681.425
1278.69312	6694.625
1282.22882	6703.425
1285.76211	6719.125
1289.29301	6751.725
1292.82151	6835.025
1296.34761	6968.125
1299.87133	7083.525
1303.39266	7252.225
1306.9116	7440.325
1310.42815	7650.425
1313.94233	7793.825
1317.45412	7813.325
1320.96354	7789.125
1324.47058	7741.925
1327.97525	7674.725
1331.47754	7627.025
1334.97747	7617.925
1338.47502	7675.825
1341.97022	7749.925
1345.46305	7837.925
1348.95352	7965.225
1352.44163	8088.625
1355.92738	8285.225
1359.41078	8523.225
1362.89183	8805.525
1366.37053	8828.125
1369.84688	8443.925
1373.32088	7978.425
1376.79254	7642.825
1380.26186	7450.725
1383.72883	7300.025
1387.19347	7197.125
1390.65578	7076.525
1394.11575	6963.325
1397.57339	6834.625
1401.0287	6732.425
1404.48168	6650.125
1407.93234	6536.225
1411.38068	6406.925
1414.82669	6254.825
1418.27039	6106.125
1421.71177	5979.225
1425.15083	5845.925
1428.58758	5790.425
1432.02203	5731.525
1435.45416	5747.825
1438.88399	5784.825
1442.31151	5798.625
1445.73673	5803.025
1449.15965	5818.925
1452.58027	5859.325
1455.9986	5861.725
1459.41463	5896.025
1462.82837	5924.925
1466.23982	5961.125
1469.64898	6016.025
1473.05586	6065.225
1476.46045	6070.325
1479.86276	6084.925
1483.26279	6094.225
1486.66054	6148.025
1490.05602	6193.525
1493.44922	6297.025
1496.84016	6442.925
1500.22882	6635.625
1503.61521	6898.425
1506.99934	7166.925
1510.38121	7378.425
1513.76081	7425.925
1517.13816	7304.725
1520.51324	7038.725
1523.88607	6813.025
1527.25665	6693.125
1530.62498	6649.525
1533.99105	6647.325
1537.35488	6654.825
1540.71647	6639.025
1544.07581	6659.325
1547.4329	6647.925
1550.78776	6652.825
1554.14038	6649.025
1557.49077	6641.725
1560.83892	6634.725
1564.18484	6673.625
1567.52853	6684.425
1570.86999	6714.625
1574.20922	6749.325
1577.54624	6767.025
1580.88103	6704.925
1584.2136	6605.725
1587.54395	6530.725
1590.87208	6531.625
1594.19801	6594.225
1597.52172	6671.925
1600.84321	6729.825
1604.16251	6640.025
1607.47959	6526.025
1610.79447	6404.525
1614.10715	6282.825
1617.41763	6147.825
1620.7259	6087.225
1624.03199	6058.025
1627.33587	6099.625
1630.63757	6169.925
1633.93707	6313.325
1637.23439	6508.825
1640.52951	6804.825
1643.82246	7138.825
1647.11321	7487.825
1650.40179	7657.725
1653.68819	7609.825
1656.97241	7290.525
1660.25446	6934.225
1663.53433	6627.125
1666.81203	6455.425
1670.08756	6336.725
1673.36092	6262.725
1676.63211	6220.325
1679.90115	6183.025
1683.16801	6145.425
1686.43272	6086.825
1689.69527	5989.125
1692.95567	5888.925
1696.2139	5797.125
1699.46999	5703.625
1702.72392	5619.125
1705.97571	5509.225
1709.22535	5364.925
1712.47284	5242.525
1715.71819	5088.725
1718.96139	4983.725
1722.20246	4856.225
1725.44139	4770.125
1728.67818	4710.025
1731.91284	4616.225
1735.14537	4561.125
1738.37576	4521.525
1741.60403	4476.825
1744.83017	4449.125
1748.05418	4420.125
1751.27607	4404.025
1754.49584	4383.825
1757.71349	4409.725
1760.92903	4375.225
1764.14244	4377.925
1767.35375	4363.725
1770.56294	4345.925
1773.77002	4323.125
1776.97499	4313.125
1780.17785	4288.425
1783.37861	4285.825
1786.57727	4267.125
1789.77382	4249.725
1792.96828	4240.925
1796.16064	4203.325
1799.3509	4196.625
1802.53907	4181.925
1805.72514	4172.525
1808.90913	4158.725
1812.09102	4141.125
1815.27083	4139.025
1818.44856	4133.325
1821.6242	4122.725
1824.79776	4107.525
1827.96924	4096.625
1831.13864	4081.225
1834.30597	4096.525
1837.47122	4088.225
1840.6344	4072.625
1843.7955	4061.125
1846.95454	4068.325
1850.11151	4054.925
1853.26642	4048.825
1856.41926	4036.025
1859.57004	4038.525
1862.71876	4032.125
1865.86542	4028.025
1869.01003	4007.525
1872.15258	4000.625
1875.29308	4001.525
1878.43152	3979.625
1881.56792	3983.025
1884.70227	3956.725
1887.83457	3978.325
1890.96482	3969.825
1894.09304	3947.225
1897.21921	3946.225
1900.34335	3917.925
1903.46544	3923.825
1906.58551	3920.325
1909.70353	3922.225
1912.81953	3899.725
1915.93349	3883.025
1919.04543	3883.425
1922.15534	3886.725
1925.26322	3871.825
1928.36908	3852.125
1931.47292	3854.025
1934.57473	3835.725
1937.67453	3832.025
1940.77232	3816.625
1943.86808	3807.925
1946.96184	3798.825
1950.05358	3777.925
1953.14331	3766.425
1956.23103	3757.325
1959.31675	3745.225
1962.40046	3730.325
1965.48217	3731.325
1968.56188	3708.425
1971.63959	3697.225
1974.7153	3683.225
1977.78901	3663.125
1980.86073	3658.925
1983.93046	3632.025
1986.99819	3630.425
1990.06394	3617.025
1993.1277	3611.425
1996.18947	3595.725
1999.24925	3593.725
2002.30706	3594.025
2005.36288	3553.025
2008.41672	3548.025
2011.46859	3532.925
2014.51848	3531.625
2017.56639	3505.925
2020.61233	3506.025
2023.6563	3478.425
2026.6983	3467.025
2029.73833	3475.525
2032.7764	3469.925
2035.8125	3450.525
2038.84664	3449.825
2041.87881	3433.325
2044.90903	3427.525
2047.93729	3409.425
2050.96359	3417.325
2053.98794	3404.025
2057.01034	3403.125
2060.03078	3401.225
2063.04927	3378.425
2066.06582	3382.125
2069.08042	3372.725
2072.09307	3370.525
2075.10378	3374.325
2078.11255	3377.925
2081.11938	3364.325
2084.12426	3368.925
2087.12722	3378.225
2090.12824	3366.625
2093.12732	3354.425
2096.12447	3366.025
2099.11969	3354.125
2102.11299	3359.925
2105.10435	3353.225
2108.09379	3350.825
2111.08131	3356.825
2114.0669	3348.525
2117.05057	3347.725
2120.03233	3350.125
2123.01216	3351.825
2125.99008	3357.825
2128.96609	3356.625
2131.94018	3352.725
2134.91236	3352.425
2137.88263	3347.625
2140.851	3363.525
2143.81746	3362.025
2146.78201	3338.425
2149.74466	3360.425
2152.7054	3352.325
2155.66425	3345.025
2158.6212	3336.525
2161.57625	3341.625
2164.52941	3321.325
2167.48067	3339.025
2170.43004	3332.425
2173.37752	3331.025
2176.32311	3321.525
2179.26681	3322.525
2182.20863	3320.225
2185.14856	3315.325
2188.08661	3313.625
2191.02278	3309.425
2193.95707	3309.425
2196.88948	3302.425
2199.82001	3291.825
2202.74867	3285.325
2205.67545	3282.025
2208.60037	3275.425
2211.52341	3268.325
2214.44458	3254.625
2217.36388	3242.025
2220.28132	3248.025
2223.1969	3235.925
2226.11061	3230.425
2229.02246	3215.725
2231.93245	3200.525
2234.84058	3198.925
2237.74686	3201.125
2240.65128	3186.725
2243.55385	3187.225
2246.45456	3167.025
2249.35343	3170.225
2252.25044	3166.925
2255.14561	3150.625
2258.03893	3155.925
2260.93041	3151.225
2263.82004	3144.225
2266.70783	3132.425
2269.59378	3120.225
2272.4779	3109.725
2275.36017	3104.725
2278.24061	3091.225
2281.11922	3090.825
2283.996	3077.425
2286.87094	3083.325
2289.74405	3073.525
2292.61534	3055.125
2295.4848	3055.925
2298.35243	3049.425
2301.21824	3038.525
2304.08223	3053.425
2306.94439	3034.125
2309.80474	3025.825
2312.66327	3033.125
2315.51999	3020.925
2318.37489	3014.825
2321.22797	3021.225
2324.07925	3015.425
2326.92871	3009.225
2329.77637	2988.125
2332.62222	2985.625
2335.46626	2984.125
2338.3085	2967.825
2341.14893	2960.625
2343.98756	2965.025
2346.8244	2956.225
2349.65943	2943.625
2352.49267	2970.225
2355.32411	2951.525
2358.15376	2948.925
2360.98161	2940.925
2363.80768	2930.525
2366.63195	2934.225
2369.45444	2938.125
2372.27514	2921.725
2375.09405	2926.925
2377.91118	2913.725
2380.72652	2901.825
2383.54009	2889.125
2386.35187	2908.925
2389.16188	2889.525
2391.97011	2879.725
2394.77657	2877.125
2397.58125	2864.325
2400.38416	2868.025
2403.18529	2850.025
2405.98466	2852.325
2408.78226	2843.725
2411.57809	2830.125
2414.37216	2825.625
2417.16446	2821.525
2419.955	2820.225
2422.74378	2825.725
2425.5308	2826.425
2428.31606	2801.725
2431.09956	2788.625
2433.88131	2799.425
2436.6613	2790.525
2439.43954	2810.825
2442.21603	2789.025
2444.99077	2782.825
2447.76377	2774.425
2450.53501	2764.125
2453.30451	2769.525
2456.07226	2774.725
2458.83827	2764.825
2461.60254	2757.225
2464.36507	2746.825
2467.12586	2747.025
2469.88492	2756.625
2472.64224	2752.125
2475.39782	2742.025
2478.15167	2739.525
2480.90379	2736.525
2483.65417	2732.625
2486.40283	2728.125
2489.14976	2726.225
2491.89497	2726.325
2494.63845	2713.125
2497.3802	2715.125
2500.12024	2706.725
2502.85855	2697.925
2505.59514	2709.325
2508.33002	2690.825
2511.06318	2686.325
2513.79462	2692.325
2516.52435	2676.225
2519.25237	2677.825
2521.97867	2681.925
2524.70327	2667.225
2527.42616	2657.925
2530.14734	2657.425
2532.86681	2644.725
2535.58458	2641.225
2538.30065	2630.325
2541.01501	2641.025
2543.72768	2625.125
2546.43864	2616.025
2549.14791	2613.925
2551.85548	2598.925
2554.56136	2601.325
2557.26554	2606.225
2559.96803	2600.625
2562.66883	2590.825
2565.36794	2586.525
2568.06536	2580.225
2570.7611	2578.225
2573.45514	2572.125
2576.14751	2572.825
2578.83819	2563.425
2581.52719	2560.025
2584.21451	2544.925
2586.90015	2541.125
2589.58411	2551.825
2592.2664	2542.625
2594.94701	2531.225
2597.62594	2520.525
2600.30321	2506.025
2602.9788	2505.525
2605.65273	2494.525
2608.32498	2506.525
2610.99557	2501.725
2613.66449	2481.325
2616.33175	2490.425
2618.99734	2487.125
2621.66128	2474.225
2624.32355	2471.425
2626.98416	2465.825
2629.64311	2460.825
2632.30041	2464.025
2634.95605	2476.625
2637.61004	2443.925
2640.26238	2441.125
2642.91306	2439.225
2645.56209	2441.825
2648.20948	2442.525
2650.85521	2439.925
2653.4993	2434.925
2656.14175	2438.025
2658.78255	2431.425
2661.42171	2428.825
2664.05923	2416.225
2666.6951	2433.425
2669.32934	2419.525
2671.96194	2419.825
2674.59291	2429.725
2677.22224	2428.725
2679.84993	2425.425
2682.476	2416.925
2685.10043	2426.125
2687.72324	2420.125
2690.34441	2418.125
2692.96396	2415.625
2695.58188	2411.525
2698.19818	2427.125
2700.81285	2418.725
2703.4259	2434.125
2706.03733	2458.825
2708.64714	2430.925
2711.25533	2414.125
2713.86191	2422.225
2716.46687	2423.225
2719.07021	2421.425
2721.67194	2421.025
2724.27206	2405.925
2726.87057	2413.725
2729.46747	2418.225
2732.06276	2405.025
2734.65644	2398.325
2737.24852	2408.725
2739.83899	2394.525
2742.42786	2390.625
2745.01513	2390.725
2747.60079	2397.425
2750.18486	2381.825
2752.76733	2373.625
2755.3482	2384.125
2757.92747	2373.025
2760.50515	2384.925
2763.08123	2364.625
2765.65573	2359.425
2768.22863	2369.125
2770.79994	2360.525
2773.36967	2358.225
2775.9378	2357.925
2778.50435	2347.925
2781.06932	2334.325
2783.6327	2333.025
2786.1945	2319.325
2788.75471	2320.925
2791.31335	2331.125
2793.87041	2321.925
2796.42589	2308.125
2798.97979	2302.525
2801.53212	2304.525
2804.08288	2294.625
2806.63206	2283.425
2809.17967	2285.725
2811.72571	2275.925
2814.27018	2270.225
2816.81308	2274.425
2819.35442	2264.725
2821.89419	2270.425
2824.43239	2267.825
2826.96904	2251.525
2829.50412	2253.125
2832.03763	2249.325
2834.56959	2260.025
2837.1	2254.225
2839.62884	2257.025
2842.15613	2248.725
2844.68186	2253.825
2847.20604	2253.625
2849.72867	2248.825
2852.24974	2248.125
2854.76927	2251.425
2857.28724	2253.225
2859.80367	2236.325
2862.31855	2233.425
2864.83189	2241.025
2867.34368	2234.325
2869.85393	2233.925
2872.36264	2236.225
2874.8698	2237.225
2877.37543	2239.825
2879.87952	2231.025
2882.38207	2237.625
2884.88308	2239.025
2887.38256	2239.625
2889.88051	2230.425
2892.37692	2218.925
2894.8718	2223.925
2897.36515	2233.725
2899.85698	2237.725
2902.34727	2232.225
2904.83604	2229.325
2907.32328	2243.825
2909.809	2221.925
2912.29319	2238.425
2914.77587	2232.525
2917.25702	2232.425
2919.73665	2239.325
2922.21476	2237.125
2924.69136	2226.225
2927.16644	2236.725
2929.64	2228.025
2932.11205	2229.725
2934.58258	2242.325
2937.05161	2239.325
2939.51912	2227.125
2941.98513	2228.225
2944.44962	2226.525
2946.91261	2214.725
2949.37409	2230.125
2951.83407	2205.025
2954.29254	2221.425
2956.74951	2223.025
2959.20498	2214.125
2961.65895	2216.225
2964.11142	2204.625
2966.56239	2201.625
2969.01186	2199.525
2971.45984	2197.625
2973.90632	2188.125
2976.35131	2184.125
2978.7948	2189.625
2981.23681	2176.225
2983.67732	2172.225
2986.11635	2179.125
2988.55388	2172.325
2990.98993	2168.925
2993.4245	2159.125
2995.85758	2156.525
2998.28917	2153.425
3000.71928	2146.325
3003.14791	2159.925
3005.57506	2158.725
3008.00073	2157.825
3010.42493	2157.225
3012.84764	2155.925
3015.26888	2147.825
3017.68865	2153.125
3020.10694	2142.525
3022.52376	2145.725
3024.9391	2145.225
3027.35298	2154.025
3029.76539	2150.425
3032.17632	2145.025
3034.5858	2139.425
3036.9938	2146.425
3039.40034	2150.625
3041.80542	2145.225
3044.20903	2141.525
3046.61118	2148.625
3049.01187	2134.525
3051.4111	2133.625
3053.80888	2148.825
3056.20519	2141.425
3058.60005	2138.225
3060.99345	2146.025
3063.3854	2150.625
3065.7759	2134.325
3068.16494	2132.625
3070.55254	2134.725
3072.93868	2131.125
3075.32338	2128.125
3077.70662	2140.425
3080.08842	2139.525
3082.46878	2141.025
3084.84769	2140.525
3087.22515	2147.925
3089.60118	2164.125
3091.97576	2147.925
3094.3489	2154.025
3096.72061	2170.025
3099.09087	2168.425
3101.4597	2166.625
3103.82709	2169.425
3106.19305	2163.725
3108.55757	2178.225
3110.92066	2166.725
3113.28232	2175.825
3115.64255	2170.425
3118.00134	2177.025
3120.35871	2164.325
3122.71466	2174.425
3125.06917	2177.825
3127.42226	2180.725
3129.77393	2181.925
3132.12417	2199.625
3134.47299	2206.425
3136.82039	2195.525
3139.16636	2208.125
3141.51092	2212.125
3143.85406	2225.425
3146.19579	2239.825
3148.53609	2234.325
3150.87499	2241.025
3153.21246	2255.425
3155.54853	2265.825
3157.88318	2269.425
3160.21642	2275.225
3162.54826	2284.925
3164.87868	2280.325
3167.2077	2279.325
3169.5353	2294.625
3171.86151	2292.525
3174.18631	2286.425
3176.5097	2299.925
3178.83169	2299.925
3181.15228	2306.125
3183.47147	2303.625
3185.78926	2306.925
3188.10565	2313.325
3190.42065	2310.025
3192.73424	2314.725
3195.04645	2333.825
3197.35725	2335.625
3199.66667	2328.925
3201.97469	2342.725
3204.28132	2347.025
3206.58656	2341.225
3208.8904	2346.025
3211.19287	2356.725
3213.49394	2358.225
3215.79363	2362.625
3218.09193	2372.725
3220.38884	2370.925
3222.68438	2379.825
3224.97853	2373.625
3227.2713	2369.025
3229.56269	2373.625
3231.8527	2366.125
3234.14133	2360.425
3236.42858	2351.825
3238.71446	2357.725
3240.99896	2352.925
3243.28209	2359.025
3245.56384	2352.425
3247.84423	2358.025
3250.12324	2352.225
3252.40088	2363.825
3254.67715	2343.525
3256.95205	2348.825
3259.22558	2356.725
3261.49775	2344.525
3263.76855	2340.125
3266.03799	2342.425
3268.30606	2328.925
3270.57277	2336.525
3272.83812	2324.625
3275.10211	2320.225
3277.36474	2323.325
3279.62601	2323.825
3281.88593	2330.225
3284.14448	2319.525
3286.40168	2322.225
3288.65753	2310.925
3290.91202	2308.725
3293.16516	2309.025
3295.41695	2291.625
3297.66738	2288.225
3299.91647	2273.225
3302.16421	2259.125
3304.4106	2250.025
3306.65564	2247.625
3308.89933	2237.325
3311.14169	2228.225
3313.38269	2197.325
3315.62236	2204.625
3317.86068	2169.825
3320.09766	2158.425
3322.3333	2147.025
3324.5676	2149.625
3326.80056	2107.425
3329.03219	2112.525
3331.26248	1.025
3333.49143	0.225
3335.71905	-1.175
