Data from AgNPs_FTO_APTES_UA_0.1mM_CRN_10uM_NaF_0.1M_Addition_RamanShift__26__11-48-47-567.txt Node

Date: Mon Dec 20 11:48:47 GMT 2021
User: TCL
Spectrometer: QEP01345
Trigger mode: 4
Integration Time (sec): 7.000000E0
Scans to average: 10
Electric dark correction enabled: true
Nonlinearity correction enabled: false
Boxcar width: 0
XAxis mode: Raman Shifts
Number of Pixels in Spectrum: 1044
>>>>>Begin Spectral Data<<<<<
46.04893	-0.075
50.45542	-0.175
54.85868	-1.475
59.25871	0.925
63.6555	33.425
68.04907	34.625
72.43941	37.725
76.82654	38.625
81.21044	37.425
85.59113	47.925
89.96862	46.225
94.34289	46.525
98.71396	48.825
103.08183	48.225
107.4465	47.725
111.80798	54.225
116.16626	53.125
120.52136	51.825
124.87327	57.325
129.222	54.725
133.56755	59.825
137.90993	65.725
142.24913	68.625
146.58517	72.025
150.91804	91.925
155.24774	103.125
159.57429	119.825
163.89768	156.825
168.21792	205.525
172.53501	268.625
176.84895	367.925
181.15975	509.625
185.46741	701.525
189.77193	979.025
194.07331	1297.825
198.37157	1667.625
202.6667	2073.525
206.9587	2477.925
211.24758	2881.725
215.53334	3258.125
219.81599	3666.125
224.09553	4081.525
228.37195	4544.725
232.64527	5032.325
236.91549	5555.325
241.18261	6060.625
245.44663	6547.225
249.70755	6966.225
253.96539	7342.525
258.22014	7642.525
262.4718	7912.325
266.72039	8054.025
270.96589	8119.225
275.20832	8108.725
279.44768	8009.425
283.68397	7921.025
287.91719	7834.725
292.14735	7785.725
296.37445	7735.425
300.59849	7756.025
304.81948	7797.025
309.03742	7793.225
313.25231	7733.625
317.46415	7576.325
321.67296	7386.425
325.87872	7205.025
330.08145	7102.325
334.28114	7106.425
338.47781	7133.025
342.67145	7222.425
346.86207	7320.825
351.04966	7499.525
355.23424	7676.825
359.4158	7853.525
363.59435	7982.425
367.76989	8069.325
371.94243	8118.225
376.11196	8218.225
380.27849	8260.725
384.44203	8327.425
388.60257	8376.225
392.76012	8432.725
396.91468	8508.125
401.06626	8602.525
405.21485	8680.025
409.36047	8660.625
413.50311	8556.725
417.64277	8422.025
421.77947	8342.425
425.9132	8320.225
430.04396	8336.425
434.17176	8394.125
438.2966	8461.625
442.41849	8580.025
446.53742	8716.125
450.6534	8897.125
454.76644	8986.025
458.87653	9034.325
462.98368	9007.825
467.08789	8937.725
471.18916	8934.125
475.2875	8889.425
479.38291	8915.225
483.4754	8994.125
487.56496	9113.725
491.6516	9218.425
495.73531	9235.525
499.81612	9155.825
503.89401	9056.525
507.96899	8951.825
512.04106	8889.825
516.11023	8905.425
520.1765	8930.425
524.23987	9006.025
528.30034	9029.925
532.35792	9018.425
536.41261	8926.125
540.46441	8781.125
544.51333	8635.725
548.55936	8607.225
552.60252	8620.125
556.64279	8662.025
560.6802	8729.125
564.71473	8814.825
568.7464	8931.525
572.7752	9083.525
576.80114	9053.725
580.82422	9026.925
584.84444	9147.825
588.86181	9275.725
592.87633	9446.225
596.888	9496.425
600.89682	9435.325
604.9028	9632.525
608.90594	10392.425
612.90624	11477.325
616.90371	11470.225
620.89834	10393.425
624.89015	10122.225
628.87913	10587.125
632.86528	11072.625
636.84862	11347.125
640.82913	11140.225
644.80683	10589.125
648.78172	9964.825
652.75379	9520.125
656.72306	9293.325
660.68952	9232.925
664.65319	9145.925
668.61405	8999.325
672.57211	8945.325
676.52738	8936.225
680.47986	8970.925
684.42955	8924.725
688.37646	8934.125
692.32058	8922.225
696.26192	8871.125
700.20048	8857.625
704.13626	8817.525
708.06928	8766.325
711.99952	8688.425
715.927	8620.025
719.85171	8650.625
723.77365	8701.325
727.69284	8708.225
731.60928	8638.525
735.52295	8543.025
739.43388	8460.725
743.34206	8482.725
747.24749	8491.525
751.15017	8526.125
755.05012	8575.525
758.94733	8695.125
762.8418	8963.125
766.73354	9443.625
770.62254	9958.125
774.50882	10192.825
778.39237	9973.925
782.27321	9415.825
786.15132	8909.925
790.02671	8639.325
793.89938	8580.225
797.76935	8604.125
801.6366	8730.425
805.50115	8977.525
809.36299	9306.825
813.22213	9423.725
817.07857	9259.525
820.93231	8993.625
824.78336	8639.725
828.63172	8396.225
832.47738	8280.225
836.32036	8202.525
840.16066	8172.225
843.99827	8142.225
847.8332	8107.825
851.66546	8084.825
855.49504	8085.625
859.32195	8083.025
863.1462	8112.825
866.96777	8177.425
870.78668	8291.725
874.60293	8483.425
878.41652	8652.825
882.22745	8867.925
886.03573	8977.725
889.84136	8968.725
893.64433	8749.825
897.44466	8473.225
901.24235	8214.625
905.0374	8016.225
908.8298	7888.125
912.61957	7803.825
916.40671	7768.225
920.19121	7747.025
923.97308	7777.725
927.75233	7788.225
931.52895	7758.925
935.30295	7732.725
939.07433	7644.925
942.84309	7587.925
946.60924	7543.625
950.37278	7537.425
954.13371	7528.525
957.89203	7490.125
961.64774	7461.325
965.40086	7439.525
969.15137	7390.425
972.89929	7376.525
976.64461	7329.125
980.38733	7326.625
984.12747	7313.925
987.86502	7334.725
991.59999	7399.425
995.33237	7479.125
999.06217	7588.525
1002.78939	7771.325
1006.51404	7951.225
1010.23611	8097.625
1013.95561	8195.825
1017.67255	8202.125
1021.38692	8119.625
1025.09872	8007.225
1028.80796	7854.925
1032.51465	7753.125
1036.21877	7696.725
1039.92035	7663.725
1043.61937	7609.925
1047.31584	7545.525
1051.00976	7511.425
1054.70114	7508.725
1058.38998	7565.025
1062.07627	7641.925
1065.76003	7706.525
1069.44126	7759.825
1073.11995	7826.225
1076.79611	7814.325
1080.46974	7806.225
1084.14085	7789.425
1087.80943	7739.225
1091.47549	7732.925
1095.13903	7684.425
1098.80005	7577.325
1102.45857	7514.125
1106.11456	7465.925
1109.76805	7486.425
1113.41903	7633.125
1117.06751	7838.825
1120.71348	8138.225
1124.35696	8572.325
1127.99793	9120.425
1131.63641	9640.025
1135.2724	9859.025
1138.90589	9805.125
1142.5369	9559.925
1146.16542	9150.125
1149.79145	8688.525
1153.415	8279.225
1157.03607	8013.825
1160.65467	7872.225
1164.27079	7904.625
1167.88443	8031.525
1171.49561	8280.325
1175.10432	8689.025
1178.71056	9259.825
1182.31434	9780.125
1185.91565	10057.625
1189.51451	10142.125
1193.11091	10095.325
1196.70485	10098.325
1200.29634	10106.125
1203.88538	10075.525
1207.47197	9853.725
1211.05612	9524.425
1214.63782	9164.925
1218.21708	8840.125
1221.79391	8550.525
1225.36829	8365.125
1228.94024	8177.725
1232.50976	8030.325
1236.07685	7943.825
1239.6415	7918.325
1243.20374	7926.025
1246.76355	7946.025
1250.32093	8029.525
1253.8759	8107.125
1257.42845	8222.025
1260.97859	8320.825
1264.52631	8433.925
1268.07163	8540.325
1271.61453	8628.625
1275.15503	8689.125
1278.69312	8753.125
1282.22882	8800.625
1285.76211	8934.725
1289.29301	9105.925
1292.82151	9367.625
1296.34761	9680.125
1299.87133	10073.625
1303.39266	10575.525
1306.9116	11223.925
1310.42815	11868.925
1313.94233	12334.125
1317.45412	12394.625
1320.96354	12150.725
1324.47058	11807.025
1327.97525	11517.725
1331.47754	11326.625
1334.97747	11286.025
1338.47502	11359.925
1341.97022	11444.025
1345.46305	11528.325
1348.95352	11680.825
1352.44163	11898.825
1355.92738	12349.825
1359.41078	13072.425
1362.89183	13767.025
1366.37053	13658.025
1369.84688	12583.925
1373.32088	11329.325
1376.79254	10510.025
1380.26186	10109.925
1383.72883	9952.925
1387.19347	9839.925
1390.65578	9699.425
1394.11575	9600.925
1397.57339	9623.525
1401.0287	9660.425
1404.48168	9724.125
1407.93234	9701.325
1411.38068	9563.625
1414.82669	9332.625
1418.27039	8955.725
1421.71177	8597.925
1425.15083	8297.825
1428.58758	8102.325
1432.02203	8045.825
1435.45416	8088.425
1438.88399	8129.125
1442.31151	8241.125
1445.73673	8298.625
1449.15965	8369.125
1452.58027	8419.725
1455.9986	8416.325
1459.41463	8440.825
1462.82837	8476.125
1466.23982	8596.325
1469.64898	8704.925
1473.05586	8762.225
1476.46045	8790.825
1479.86276	8831.025
1483.26279	8807.025
1486.66054	8870.025
1490.05602	8918.225
1493.44922	9013.925
1496.84016	9167.525
1500.22882	9412.725
1503.61521	9862.325
1506.99934	10360.725
1510.38121	10836.725
1513.76081	11041.225
1517.13816	10735.925
1520.51324	10127.425
1523.88607	9501.425
1527.25665	9136.725
1530.62498	8977.125
1533.99105	8927.225
1537.35488	8939.525
1540.71647	8958.625
1544.07581	8989.425
1547.4329	8973.625
1550.78776	8950.725
1554.14038	8895.325
1557.49077	8913.325
1560.83892	8939.225
1564.18484	8975.025
1567.52853	9051.525
1570.86999	9121.625
1574.20922	9201.725
1577.54624	9282.625
1580.88103	9214.425
1584.2136	9085.025
1587.54395	9107.325
1590.87208	9303.325
1594.19801	9637.925
1597.52172	10040.825
1600.84321	10283.325
1604.16251	10142.425
1607.47959	9797.825
1610.79447	9320.025
1614.10715	8847.725
1617.41763	8486.125
1620.7259	8272.725
1624.03199	8148.325
1627.33587	8161.925
1630.63757	8277.525
1633.93707	8519.125
1637.23439	8940.925
1640.52951	9547.625
1643.82246	10270.525
1647.11321	11038.125
1650.40179	11458.525
1653.68819	11216.625
1656.97241	10347.725
1660.25446	9353.125
1663.53433	8567.525
1666.81203	8021.025
1670.08756	7677.725
1673.36092	7434.125
1676.63211	7246.025
1679.90115	7136.625
1683.16801	7006.325
1686.43272	6872.325
1689.69527	6787.425
1692.95567	6677.825
1696.2139	6567.925
1699.46999	6476.625
1702.72392	6379.925
1705.97571	6238.725
1709.22535	6144.825
1712.47284	6064.825
1715.71819	6005.025
1718.96139	5941.125
1722.20246	5884.125
1725.44139	5813.225
1728.67818	5753.425
1731.91284	5673.225
1735.14537	5646.525
1738.37576	5594.425
1741.60403	5548.225
1744.83017	5545.125
1748.05418	5522.825
1751.27607	5486.125
1754.49584	5484.025
1757.71349	5481.925
1760.92903	5463.525
1764.14244	5435.925
1767.35375	5440.125
1770.56294	5393.925
1773.77002	5373.125
1776.97499	5339.025
1780.17785	5331.125
1783.37861	5298.925
1786.57727	5250.125
1789.77382	5250.225
1792.96828	5221.525
1796.16064	5201.825
1799.3509	5194.525
1802.53907	5156.325
1805.72514	5140.425
1808.90913	5149.025
1812.09102	5116.025
1815.27083	5099.025
1818.44856	5103.725
1821.6242	5061.425
1824.79776	5051.125
1827.96924	5042.025
1831.13864	5034.625
1834.30597	5044.225
1837.47122	5031.125
1840.6344	5021.225
1843.7955	5014.625
1846.95454	5001.625
1850.11151	5008.725
1853.26642	5005.125
1856.41926	4990.225
1859.57004	4990.625
1862.71876	4985.725
1865.86542	4963.325
1869.01003	4972.825
1872.15258	4960.425
1875.29308	4947.525
1878.43152	4947.025
1881.56792	4933.525
1884.70227	4920.125
1887.83457	4921.425
1890.96482	4920.525
1894.09304	4908.425
1897.21921	4894.325
1900.34335	4900.825
1903.46544	4892.225
1906.58551	4876.425
1909.70353	4892.825
1912.81953	4866.925
1915.93349	4857.125
1919.04543	4850.825
1922.15534	4830.225
1925.26322	4817.625
1928.36908	4814.325
1931.47292	4800.525
1934.57473	4772.225
1937.67453	4761.525
1940.77232	4757.525
1943.86808	4739.225
1946.96184	4721.025
1950.05358	4687.925
1953.14331	4706.025
1956.23103	4672.825
1959.31675	4670.325
1962.40046	4656.425
1965.48217	4636.925
1968.56188	4628.725
1971.63959	4619.425
1974.7153	4598.125
1977.78901	4576.525
1980.86073	4563.025
1983.93046	4567.025
1986.99819	4532.625
1990.06394	4507.525
1993.1277	4490.425
1996.18947	4469.025
1999.24925	4490.925
2002.30706	4460.925
2005.36288	4438.525
2008.41672	4437.725
2011.46859	4424.025
2014.51848	4414.825
2017.56639	4391.225
2020.61233	4379.425
2023.6563	4377.425
2026.6983	4364.425
2029.73833	4362.725
2032.7764	4347.125
2035.8125	4338.025
2038.84664	4314.025
2041.87881	4330.325
2044.90903	4303.125
2047.93729	4301.325
2050.96359	4305.025
2053.98794	4277.425
2057.01034	4274.125
2060.03078	4270.225
2063.04927	4252.325
2066.06582	4254.525
2069.08042	4234.625
2072.09307	4250.425
2075.10378	4244.025
2078.11255	4242.925
2081.11938	4232.325
2084.12426	4227.025
2087.12722	4227.325
2090.12824	4228.825
2093.12732	4230.425
2096.12447	4215.825
2099.11969	4217.725
2102.11299	4230.025
2105.10435	4225.025
2108.09379	4216.925
2111.08131	4213.325
2114.0669	4213.625
2117.05057	4242.725
2120.03233	4244.925
2123.01216	4226.925
2125.99008	4225.925
2128.96609	4230.825
2131.94018	4243.125
2134.91236	4232.325
2137.88263	4231.225
2140.851	4235.925
2143.81746	4232.425
2146.78201	4240.325
2149.74466	4217.125
2152.7054	4229.725
2155.66425	4235.425
2158.6212	4217.825
2161.57625	4215.025
2164.52941	4210.825
2167.48067	4222.525
2170.43004	4211.125
2173.37752	4215.525
2176.32311	4195.625
2179.26681	4213.425
2182.20863	4175.625
2185.14856	4194.825
2188.08661	4197.525
2191.02278	4185.725
2193.95707	4190.925
2196.88948	4188.025
2199.82001	4175.025
2202.74867	4168.625
2205.67545	4167.825
2208.60037	4159.025
2211.52341	4148.725
2214.44458	4145.625
2217.36388	4139.925
2220.28132	4119.125
2223.1969	4102.525
2226.11061	4106.425
2229.02246	4107.225
2231.93245	4100.225
2234.84058	4081.725
2237.74686	4062.925
2240.65128	4062.925
2243.55385	4061.525
2246.45456	4058.725
2249.35343	4041.525
2252.25044	4034.925
2255.14561	4019.725
2258.03893	4025.825
2260.93041	4026.625
2263.82004	4010.825
2266.70783	4003.425
2269.59378	3997.425
2272.4779	3977.425
2275.36017	3973.825
2278.24061	3964.725
2281.11922	3948.825
2283.996	3943.725
2286.87094	3940.325
2289.74405	3926.525
2292.61534	3913.325
2295.4848	3910.425
2298.35243	3897.825
2301.21824	3895.525
2304.08223	3909.425
2306.94439	3894.225
2309.80474	3896.625
2312.66327	3892.125
2315.51999	3892.525
2318.37489	3878.425
2321.22797	3879.625
2324.07925	3878.125
2326.92871	3863.725
2329.77637	3863.825
2332.62222	3858.825
2335.46626	3836.225
2338.3085	3838.025
2341.14893	3833.125
2343.98756	3825.325
2346.8244	3827.525
2349.65943	3834.325
2352.49267	3814.625
2355.32411	3816.525
2358.15376	3825.025
2360.98161	3807.825
2363.80768	3801.025
2366.63195	3797.225
2369.45444	3797.225
2372.27514	3793.225
2375.09405	3802.325
2377.91118	3788.125
2380.72652	3773.625
2383.54009	3775.725
2386.35187	3766.225
2389.16188	3762.525
2391.97011	3749.225
2394.77657	3741.925
2397.58125	3716.925
2400.38416	3723.125
2403.18529	3708.625
2405.98466	3710.125
2408.78226	3702.425
2411.57809	3697.225
2414.37216	3683.825
2417.16446	3667.425
2419.955	3664.225
2422.74378	3658.825
2425.5308	3660.525
2428.31606	3657.425
2431.09956	3644.225
2433.88131	3638.725
2436.6613	3639.825
2439.43954	3631.125
2442.21603	3645.225
2444.99077	3624.925
2447.76377	3627.225
2450.53501	3610.325
2453.30451	3617.125
2456.07226	3612.525
2458.83827	3600.925
2461.60254	3607.625
2464.36507	3592.925
2467.12586	3581.825
2469.88492	3595.825
2472.64224	3587.625
2475.39782	3590.225
2478.15167	3591.125
2480.90379	3587.325
2483.65417	3579.025
2486.40283	3571.525
2489.14976	3578.925
2491.89497	3583.725
2494.63845	3572.625
2497.3802	3566.425
2500.12024	3568.325
2502.85855	3559.125
2505.59514	3569.925
2508.33002	3538.125
2511.06318	3549.525
2513.79462	3537.025
2516.52435	3517.425
2519.25237	3525.425
2521.97867	3520.125
2524.70327	3536.525
2527.42616	3511.325
2530.14734	3510.625
2532.86681	3495.925
2535.58458	3488.425
2538.30065	3487.325
2541.01501	3468.725
2543.72768	3470.725
2546.43864	3470.525
2549.14791	3468.725
2551.85548	3455.925
2554.56136	3454.325
2557.26554	3443.225
2559.96803	3443.525
2562.66883	3428.425
2565.36794	3434.025
2568.06536	3424.125
2570.7611	3420.925
2573.45514	3415.625
2576.14751	3401.925
2578.83819	3394.325
2581.52719	3410.225
2584.21451	3392.025
2586.90015	3390.625
2589.58411	3381.225
2592.2664	3375.525
2594.94701	3369.325
2597.62594	3357.425
2600.30321	3344.225
2602.9788	3347.425
2605.65273	3351.425
2608.32498	3338.825
2610.99557	3351.625
2613.66449	3333.825
2616.33175	3332.125
2618.99734	3337.525
2621.66128	3320.225
2624.32355	3322.925
2626.98416	3328.825
2629.64311	3326.225
2632.30041	3324.925
2634.95605	3311.925
2637.61004	3311.425
2640.26238	3312.125
2642.91306	3297.025
2645.56209	3293.325
2648.20948	3302.925
2650.85521	3286.225
2653.4993	3281.025
2656.14175	3280.625
2658.78255	3271.925
2661.42171	3281.625
2664.05923	3277.625
2666.6951	3285.325
2669.32934	3283.325
2671.96194	3280.725
2674.59291	3284.825
2677.22224	3285.725
2679.84993	3285.125
2682.476	3280.125
2685.10043	3285.925
2687.72324	3284.825
2690.34441	3280.225
2692.96396	3271.625
2695.58188	3275.025
2698.19818	3290.625
2700.81285	3286.825
2703.4259	3289.125
2706.03733	3298.225
2708.64714	3311.425
2711.25533	3280.325
2713.86191	3288.225
2716.46687	3279.825
2719.07021	3284.425
2721.67194	3279.325
2724.27206	3276.425
2726.87057	3286.625
2729.46747	3277.125
2732.06276	3280.125
2734.65644	3279.025
2737.24852	3263.425
2739.83899	3272.325
2742.42786	3272.025
2745.01513	3249.425
2747.60079	3259.625
2750.18486	3269.325
2752.76733	3256.125
2755.3482	3255.125
2757.92747	3262.625
2760.50515	3253.625
2763.08123	3251.325
2765.65573	3235.425
2768.22863	3241.725
2770.79994	3230.525
2773.36967	3234.025
2775.9378	3227.725
2778.50435	3221.625
2781.06932	3217.125
2783.6327	3208.225
2786.1945	3209.825
2788.75471	3211.925
2791.31335	3200.425
2793.87041	3201.725
2796.42589	3190.125
2798.97979	3187.625
2801.53212	3185.125
2804.08288	3179.125
2806.63206	3171.425
2809.17967	3159.425
2811.72571	3154.725
2814.27018	3147.825
2816.81308	3164.425
2819.35442	3141.025
2821.89419	3142.325
2824.43239	3145.525
2826.96904	3140.425
2829.50412	3143.225
2832.03763	3123.925
2834.56959	3130.025
2837.1	3127.225
2839.62884	3120.525
2842.15613	3118.525
2844.68186	3133.225
2847.20604	3124.525
2849.72867	3127.125
2852.24974	3137.025
2854.76927	3126.225
2857.28724	3140.925
2859.80367	3131.625
2862.31855	3121.425
2864.83189	3108.625
2867.34368	3126.025
2869.85393	3115.025
2872.36264	3108.125
2874.8698	3128.325
2877.37543	3122.725
2879.87952	3122.025
2882.38207	3117.525
2884.88308	3123.325
2887.38256	3120.225
2889.88051	3127.725
2892.37692	3122.025
2894.8718	3122.625
2897.36515	3137.325
2899.85698	3130.025
2902.34727	3134.425
2904.83604	3127.325
2907.32328	3140.125
2909.809	3147.125
2912.29319	3140.325
2914.77587	3121.625
2917.25702	3151.925
2919.73665	3142.225
2922.21476	3141.425
2924.69136	3141.125
2927.16644	3139.025
2929.64	3129.925
2932.11205	3136.825
2934.58258	3128.925
2937.05161	3130.625
2939.51912	3114.225
2941.98513	3115.725
2944.44962	3115.825
2946.91261	3118.125
2949.37409	3112.025
2951.83407	3103.625
2954.29254	3098.525
2956.74951	3094.325
2959.20498	3098.325
2961.65895	3088.925
2964.11142	3096.125
2966.56239	3072.825
2969.01186	3086.125
2971.45984	3058.825
2973.90632	3056.325
2976.35131	3065.925
2978.7948	3053.625
2981.23681	3049.425
2983.67732	3046.625
2986.11635	3029.425
2988.55388	3034.125
2990.98993	3022.125
2993.4245	3012.525
2995.85758	3011.525
2998.28917	3000.025
3000.71928	2994.025
3003.14791	3007.125
3005.57506	3005.725
3008.00073	3003.125
3010.42493	2996.925
3012.84764	3004.625
3015.26888	2991.125
3017.68865	2991.625
3020.10694	2987.325
3022.52376	2977.125
3024.9391	2981.625
3027.35298	2984.525
3029.76539	2973.625
3032.17632	2976.625
3034.5858	2970.825
3036.9938	2971.325
3039.40034	2970.025
3041.80542	2978.225
3044.20903	2961.025
3046.61118	2967.425
3049.01187	2973.725
3051.4111	2967.125
3053.80888	2964.825
3056.20519	2973.825
3058.60005	2956.025
3060.99345	2948.925
3063.3854	2950.125
3065.7759	2947.725
3068.16494	2949.425
3070.55254	2928.125
3072.93868	2934.725
3075.32338	2931.125
3077.70662	2938.025
3080.08842	2933.925
3082.46878	2935.425
3084.84769	2938.225
3087.22515	2945.325
3089.60118	2953.925
3091.97576	2953.125
3094.3489	2943.225
3096.72061	2955.325
3099.09087	2965.725
3101.4597	2967.125
3103.82709	2965.925
3106.19305	2956.925
3108.55757	2962.625
3110.92066	2960.425
3113.28232	2960.225
3115.64255	2972.125
3118.00134	2972.425
3120.35871	2963.125
3122.71466	2953.425
3125.06917	2971.325
3127.42226	2967.725
3129.77393	2984.025
3132.12417	2986.825
3134.47299	2976.225
3136.82039	2995.825
3139.16636	3010.625
3141.51092	3000.025
3143.85406	3001.825
3146.19579	3021.825
3148.53609	3025.325
3150.87499	3031.125
3153.21246	3026.825
3155.54853	3050.725
3157.88318	3039.925
3160.21642	3050.925
3162.54826	3050.625
3164.87868	3065.125
3167.2077	3060.125
3169.5353	3084.725
3171.86151	3072.425
3174.18631	3082.825
3176.5097	3062.625
3178.83169	3075.825
3181.15228	3067.125
3183.47147	3080.025
3185.78926	3095.125
3188.10565	3097.025
3190.42065	3091.625
3192.73424	3095.725
3195.04645	3106.825
3197.35725	3118.025
3199.66667	3124.325
3201.97469	3152.325
3204.28132	3137.325
3206.58656	3153.925
3208.8904	3148.625
3211.19287	3153.725
3213.49394	3168.325
3215.79363	3153.425
3218.09193	3178.125
3220.38884	3173.325
3222.68438	3170.725
3224.97853	3173.525
3227.2713	3170.325
3229.56269	3162.225
3231.8527	3167.025
3234.14133	3161.525
3236.42858	3160.525
3238.71446	3158.025
3240.99896	3155.125
3243.28209	3159.925
3245.56384	3142.625
3247.84423	3150.125
3250.12324	3139.425
3252.40088	3153.225
3254.67715	3149.725
3256.95205	3155.625
3259.22558	3151.125
3261.49775	3136.025
3263.76855	3145.125
3266.03799	3130.525
3268.30606	3126.325
3270.57277	3126.125
3272.83812	3120.125
3275.10211	3113.725
3277.36474	3115.025
3279.62601	3117.325
3281.88593	3110.925
3284.14448	3111.225
3286.40168	3121.425
3288.65753	3106.925
3290.91202	3113.625
3293.16516	3087.825
3295.41695	3096.925
3297.66738	3060.825
3299.91647	3046.025
3302.16421	3037.725
3304.4106	3034.225
3306.65564	3016.525
3308.89933	2993.125
3311.14169	2980.925
3313.38269	2947.925
3315.62236	2942.125
3317.86068	2917.225
3320.09766	2887.225
3322.3333	2860.625
3324.5676	2870.825
3326.80056	2829.025
3329.03219	2807.825
3331.26248	0.225
3333.49143	0.825
3335.71905	0.725
