Data from AgNPs_FTO_APTES_UA_0.1mM_CRN_200uM_NaF_0.1M_Addition_RamanShift__32__14-32-07-751.txt Node

Date: Mon Dec 20 14:32:07 GMT 2021
User: TCL
Spectrometer: QEP01345
Trigger mode: 4
Integration Time (sec): 7.000000E0
Scans to average: 10
Electric dark correction enabled: true
Nonlinearity correction enabled: false
Boxcar width: 0
XAxis mode: Raman Shifts
Number of Pixels in Spectrum: 1044
>>>>>Begin Spectral Data<<<<<
46.04893	0.2625
50.45542	0.2625
54.85868	-1.2375
59.25871	1.8625
63.6555	26.9625
68.04907	25.5625
72.43941	32.4625
76.82654	30.5625
81.21044	34.8625
85.59113	38.0625
89.96862	33.8625
94.34289	39.3625
98.71396	38.8625
103.08183	32.0625
107.4465	39.5625
111.80798	43.3625
116.16626	41.3625
120.52136	44.7625
124.87327	44.4625
129.222	42.8625
133.56755	44.2625
137.90993	48.6625
142.24913	51.2625
146.58517	56.1625
150.91804	64.6625
155.24774	76.2625
159.57429	87.7625
163.89768	106.1625
168.21792	140.2625
172.53501	176.8625
176.84895	241.0625
181.15975	330.7625
185.46741	457.6625
189.77193	634.8625
194.07331	841.8625
198.37157	1080.0625
202.6667	1340.0625
206.9587	1602.0625
211.24758	1852.0625
215.53334	2129.0625
219.81599	2400.0625
224.09553	2683.9625
228.37195	3028.2625
232.64527	3394.4625
236.91549	3741.2625
241.18261	4068.9625
245.44663	4346.0625
249.70755	4571.3625
253.96539	4734.9625
258.22014	4869.1625
262.4718	4955.0625
266.72039	4989.3625
270.96589	4963.2625
275.20832	4876.6625
279.44768	4787.7625
283.68397	4651.4625
287.91719	4586.3625
292.14735	4569.0625
296.37445	4685.0625
300.59849	4861.6625
304.81948	5092.0625
309.03742	5248.9625
313.25231	5249.3625
317.46415	4971.3625
321.67296	4553.9625
325.87872	4189.1625
330.08145	4011.9625
334.28114	3960.2625
338.47781	4008.9625
342.67145	4091.1625
346.86207	4278.5625
351.04966	4539.8625
355.23424	4868.3625
359.4158	5122.6625
363.59435	5289.7625
367.76989	5370.5625
371.94243	5395.9625
376.11196	5420.4625
380.27849	5411.3625
384.44203	5371.5625
388.60257	5305.0625
392.76012	5233.1625
396.91468	5248.1625
401.06626	5335.8625
405.21485	5392.4625
409.36047	5229.2625
413.50311	4901.6625
417.64277	4573.0625
421.77947	4355.0625
425.9132	4220.1625
430.04396	4182.9625
434.17176	4196.2625
438.2966	4255.5625
442.41849	4352.0625
446.53742	4444.4625
450.6534	4551.6625
454.76644	4599.6625
458.87653	4604.7625
462.98368	4565.2625
467.08789	4495.4625
471.18916	4428.9625
475.2875	4376.7625
479.38291	4365.2625
483.4754	4416.2625
487.56496	4528.3625
491.6516	4664.8625
495.73531	4734.6625
499.81612	4683.2625
503.89401	4614.2625
507.96899	4556.3625
512.04106	4627.0625
516.11023	4760.4625
520.1765	4919.5625
524.23987	5013.2625
528.30034	5017.7625
532.35792	4911.5625
536.41261	4756.7625
540.46441	4527.3625
544.51333	4326.4625
548.55936	4240.9625
552.60252	4248.2625
556.64279	4296.7625
560.6802	4314.9625
564.71473	4392.0625
568.7464	4585.5625
572.7752	4731.2625
576.80114	4560.2625
580.82422	4364.6625
584.84444	4384.5625
588.86181	4444.6625
592.87633	4510.3625
596.888	4556.0625
600.89682	4649.3625
604.9028	5204.2625
608.90594	6773.6625
612.90624	8989.5625
616.90371	9156.5625
620.89834	6967.1625
624.89015	6149.7625
628.87913	6478.4625
632.86528	7062.5625
636.84862	7377.5625
640.82913	7166.5625
644.80683	6470.2625
648.78172	5727.6625
652.75379	5233.5625
656.72306	5037.1625
660.68952	5039.9625
664.65319	4854.8625
668.61405	4514.9625
672.57211	4349.7625
676.52738	4328.3625
680.47986	4338.9625
684.42955	4320.8625
688.37646	4288.1625
692.32058	4271.6625
696.26192	4249.9625
700.20048	4227.9625
704.13626	4234.5625
708.06928	4188.3625
711.99952	4140.8625
715.927	4153.4625
719.85171	4209.4625
723.77365	4303.1625
727.69284	4327.5625
731.60928	4236.5625
735.52295	4118.4625
739.43388	4072.1625
743.34206	4087.2625
747.24749	4079.6625
751.15017	4119.3625
755.05012	4149.3625
758.94733	4338.4625
762.8418	4816.3625
766.73354	5628.1625
770.62254	6507.9625
774.50882	7052.3625
778.39237	6890.4625
782.27321	5972.7625
786.15132	5005.6625
790.02671	4471.5625
793.89938	4275.4625
797.76935	4265.5625
801.6366	4403.9625
805.50115	4742.9625
809.36299	5139.0625
813.22213	5287.1625
817.07857	5132.4625
820.93231	4797.4625
824.78336	4392.7625
828.63172	4123.3625
832.47738	3989.1625
836.32036	3894.8625
840.16066	3850.8625
843.99827	3808.6625
847.8332	3793.1625
851.66546	3790.0625
855.49504	3780.0625
859.32195	3804.1625
863.1462	3847.6625
866.96777	3939.2625
870.78668	4077.6625
874.60293	4306.6625
878.41652	4553.6625
882.22745	4857.2625
886.03573	5037.8625
889.84136	5032.2625
893.64433	4807.4625
897.44466	4495.3625
901.24235	4195.5625
905.0374	3937.2625
908.8298	3775.7625
912.61957	3673.2625
916.40671	3627.2625
920.19121	3605.3625
923.97308	3600.2625
927.75233	3624.1625
931.52895	3680.6625
935.30295	3665.0625
939.07433	3552.0625
942.84309	3446.5625
946.60924	3391.6625
950.37278	3356.6625
954.13371	3334.7625
957.89203	3337.1625
961.64774	3321.5625
965.40086	3297.8625
969.15137	3310.0625
972.89929	3283.8625
976.64461	3278.8625
980.38733	3287.0625
984.12747	3291.7625
987.86502	3313.7625
991.59999	3368.9625
995.33237	3421.6625
999.06217	3541.4625
1002.78939	3699.1625
1006.51404	3876.5625
1010.23611	4072.2625
1013.95561	4198.5625
1017.67255	4228.5625
1021.38692	4159.9625
1025.09872	4015.5625
1028.80796	3834.8625
1032.51465	3685.3625
1036.21877	3593.9625
1039.92035	3552.6625
1043.61937	3531.8625
1047.31584	3545.9625
1051.00976	3574.3625
1054.70114	3603.0625
1058.38998	3645.7625
1062.07627	3723.3625
1065.76003	3789.3625
1069.44126	3861.0625
1073.11995	3878.7625
1076.79611	3910.0625
1080.46974	3915.2625
1084.14085	3951.0625
1087.80943	3983.5625
1091.47549	3940.5625
1095.13903	3842.2625
1098.80005	3696.0625
1102.45857	3600.8625
1106.11456	3608.3625
1109.76805	3692.6625
1113.41903	3897.4625
1117.06751	4202.5625
1120.71348	4638.5625
1124.35696	5232.8625
1127.99793	5874.4625
1131.63641	6307.7625
1135.2724	6387.3625
1138.90589	6229.5625
1142.5369	5890.1625
1146.16542	5413.8625
1149.79145	4898.2625
1153.415	4431.8625
1157.03607	4139.2625
1160.65467	3967.3625
1164.27079	3945.8625
1167.88443	4063.5625
1171.49561	4327.2625
1175.10432	4846.4625
1178.71056	5594.4625
1182.31434	6310.5625
1185.91565	6598.1625
1189.51451	6544.4625
1193.11091	6382.3625
1196.70485	6276.9625
1200.29634	6327.1625
1203.88538	6308.4625
1207.47197	6002.8625
1211.05612	5563.8625
1214.63782	5084.4625
1218.21708	4692.7625
1221.79391	4362.8625
1225.36829	4112.2625
1228.94024	3965.6625
1232.50976	3853.0625
1236.07685	3807.5625
1239.6415	3813.7625
1243.20374	3865.2625
1246.76355	3908.0625
1250.32093	3950.9625
1253.8759	3991.3625
1257.42845	4082.7625
1260.97859	4183.3625
1264.52631	4296.6625
1268.07163	4391.2625
1271.61453	4458.5625
1275.15503	4473.0625
1278.69312	4452.6625
1282.22882	4416.9625
1285.76211	4461.6625
1289.29301	4615.3625
1292.82151	4796.1625
1296.34761	5023.4625
1299.87133	5371.7625
1303.39266	5940.9625
1306.9116	6824.2625
1310.42815	7698.2625
1313.94233	8023.0625
1317.45412	7623.1625
1320.96354	6942.2625
1324.47058	6293.5625
1327.97525	5806.9625
1331.47754	5563.9625
1334.97747	5516.5625
1338.47502	5617.3625
1341.97022	5911.9625
1345.46305	6357.6625
1348.95352	6997.3625
1352.44163	7748.6625
1355.92738	8808.9625
1359.41078	10233.6625
1362.89183	11347.6625
1366.37053	10916.8625
1369.84688	9269.4625
1373.32088	7680.0625
1376.79254	6601.1625
1380.26186	5978.8625
1383.72883	5595.5625
1387.19347	5301.8625
1390.65578	5023.7625
1394.11575	4809.2625
1397.57339	4683.9625
1401.0287	4581.7625
1404.48168	4516.2625
1407.93234	4427.4625
1411.38068	4322.7625
1414.82669	4222.3625
1418.27039	4116.5625
1421.71177	4023.3625
1425.15083	3884.9625
1428.58758	3830.3625
1432.02203	3795.5625
1435.45416	3810.6625
1438.88399	3796.8625
1442.31151	3780.3625
1445.73673	3800.9625
1449.15965	3790.4625
1452.58027	3801.3625
1455.9986	3753.3625
1459.41463	3759.8625
1462.82837	3779.0625
1466.23982	3869.2625
1469.64898	3946.4625
1473.05586	3998.0625
1476.46045	4034.3625
1479.86276	4110.0625
1483.26279	4237.6625
1486.66054	4421.5625
1490.05602	4666.4625
1493.44922	5001.4625
1496.84016	5522.3625
1500.22882	6350.8625
1503.61521	7531.2625
1506.99934	8771.0625
1510.38121	9688.4625
1513.76081	9706.5625
1517.13816	8786.9625
1520.51324	7362.3625
1523.88607	6148.2625
1527.25665	5413.3625
1530.62498	5042.2625
1533.99105	4905.2625
1537.35488	4833.5625
1540.71647	4870.0625
1544.07581	4948.4625
1547.4329	5062.6625
1550.78776	5138.3625
1554.14038	5185.0625
1557.49077	5209.0625
1560.83892	5253.9625
1564.18484	5358.0625
1567.52853	5587.1625
1570.86999	5800.3625
1574.20922	5943.7625
1577.54624	5914.5625
1580.88103	5587.0625
1584.2136	5147.8625
1587.54395	4862.3625
1590.87208	4818.1625
1594.19801	4957.8625
1597.52172	5237.7625
1600.84321	5375.7625
1604.16251	5266.2625
1607.47959	5089.6625
1610.79447	4899.9625
1614.10715	4705.4625
1617.41763	4536.1625
1620.7259	4432.1625
1624.03199	4413.5625
1627.33587	4407.2625
1630.63757	4474.6625
1633.93707	4642.9625
1637.23439	4912.3625
1640.52951	5387.0625
1643.82246	6077.7625
1647.11321	6949.8625
1650.40179	7688.2625
1653.68819	7639.4625
1656.97241	6820.9625
1660.25446	5862.3625
1663.53433	5153.2625
1666.81203	4653.7625
1670.08756	4330.9625
1673.36092	4080.0625
1676.63211	3910.3625
1679.90115	3786.8625
1683.16801	3677.9625
1686.43272	3555.5625
1689.69527	3477.0625
1692.95567	3390.2625
1696.2139	3311.6625
1699.46999	3231.9625
1702.72392	3130.9625
1705.97571	3049.0625
1709.22535	2971.3625
1712.47284	2907.2625
1715.71819	2872.1625
1718.96139	2819.5625
1722.20246	2790.3625
1725.44139	2741.6625
1728.67818	2710.6625
1731.91284	2652.3625
1735.14537	2617.4625
1738.37576	2584.4625
1741.60403	2567.0625
1744.83017	2546.6625
1748.05418	2534.9625
1751.27607	2517.1625
1754.49584	2498.7625
1757.71349	2492.3625
1760.92903	2467.7625
1764.14244	2444.8625
1767.35375	2417.9625
1770.56294	2419.0625
1773.77002	2375.9625
1776.97499	2349.6625
1780.17785	2340.8625
1783.37861	2329.0625
1786.57727	2306.8625
1789.77382	2293.7625
1792.96828	2292.1625
1796.16064	2276.8625
1799.3509	2262.8625
1802.53907	2245.5625
1805.72514	2238.4625
1808.90913	2220.7625
1812.09102	2222.9625
1815.27083	2213.8625
1818.44856	2200.9625
1821.6242	2199.1625
1824.79776	2196.6625
1827.96924	2195.0625
1831.13864	2168.2625
1834.30597	2179.5625
1837.47122	2168.6625
1840.6344	2169.9625
1843.7955	2160.4625
1846.95454	2154.5625
1850.11151	2150.6625
1853.26642	2136.2625
1856.41926	2147.8625
1859.57004	2134.0625
1862.71876	2133.7625
1865.86542	2122.6625
1869.01003	2120.7625
1872.15258	2120.2625
1875.29308	2117.9625
1878.43152	2098.5625
1881.56792	2100.2625
1884.70227	2097.1625
1887.83457	2093.7625
1890.96482	2094.0625
1894.09304	2088.0625
1897.21921	2073.0625
1900.34335	2073.6625
1903.46544	2074.1625
1906.58551	2062.0625
1909.70353	2061.7625
1912.81953	2061.9625
1915.93349	2063.2625
1919.04543	2058.6625
1922.15534	2045.6625
1925.26322	2036.2625
1928.36908	2038.7625
1931.47292	2028.8625
1934.57473	2016.1625
1937.67453	2004.9625
1940.77232	2005.3625
1943.86808	1994.8625
1946.96184	1984.5625
1950.05358	1978.8625
1953.14331	1973.8625
1956.23103	1960.4625
1959.31675	1968.5625
1962.40046	1953.2625
1965.48217	1955.6625
1968.56188	1958.0625
1971.63959	1951.1625
1974.7153	1934.1625
1977.78901	1927.8625
1980.86073	1918.3625
1983.93046	1905.7625
1986.99819	1902.0625
1990.06394	1893.5625
1993.1277	1893.8625
1996.18947	1876.2625
1999.24925	1875.3625
2002.30706	1868.8625
2005.36288	1865.6625
2008.41672	1850.3625
2011.46859	1852.4625
2014.51848	1838.5625
2017.56639	1830.4625
2020.61233	1825.8625
2023.6563	1825.0625
2026.6983	1813.5625
2029.73833	1815.6625
2032.7764	1816.5625
2035.8125	1805.6625
2038.84664	1795.1625
2041.87881	1788.7625
2044.90903	1794.4625
2047.93729	1786.8625
2050.96359	1780.6625
2053.98794	1787.4625
2057.01034	1789.7625
2060.03078	1778.3625
2063.04927	1770.0625
2066.06582	1763.8625
2069.08042	1767.7625
2072.09307	1765.0625
2075.10378	1762.0625
2078.11255	1768.2625
2081.11938	1760.9625
2084.12426	1759.2625
2087.12722	1762.2625
2090.12824	1758.0625
2093.12732	1753.9625
2096.12447	1756.8625
2099.11969	1747.0625
2102.11299	1745.4625
2105.10435	1744.6625
2108.09379	1747.1625
2111.08131	1741.3625
2114.0669	1738.6625
2117.05057	1752.7625
2120.03233	1752.8625
2123.01216	1755.3625
2125.99008	1757.1625
2128.96609	1759.5625
2131.94018	1750.7625
2134.91236	1760.4625
2137.88263	1752.4625
2140.851	1756.0625
2143.81746	1755.2625
2146.78201	1752.4625
2149.74466	1745.2625
2152.7054	1746.5625
2155.66425	1751.8625
2158.6212	1738.6625
2161.57625	1737.0625
2164.52941	1734.7625
2167.48067	1729.5625
2170.43004	1730.8625
2173.37752	1720.0625
2176.32311	1733.7625
2179.26681	1727.3625
2182.20863	1720.6625
2185.14856	1725.6625
2188.08661	1719.5625
2191.02278	1720.9625
2193.95707	1714.2625
2196.88948	1707.9625
2199.82001	1707.9625
2202.74867	1701.2625
2205.67545	1702.9625
2208.60037	1693.8625
2211.52341	1683.6625
2214.44458	1685.2625
2217.36388	1685.8625
2220.28132	1686.8625
2223.1969	1673.9625
2226.11061	1675.5625
2229.02246	1669.1625
2231.93245	1666.6625
2234.84058	1662.5625
2237.74686	1653.6625
2240.65128	1656.1625
2243.55385	1656.5625
2246.45456	1649.4625
2249.35343	1650.0625
2252.25044	1639.0625
2255.14561	1634.9625
2258.03893	1656.0625
2260.93041	1654.8625
2263.82004	1641.6625
2266.70783	1637.5625
2269.59378	1634.3625
2272.4779	1633.7625
2275.36017	1620.6625
2278.24061	1626.2625
2281.11922	1624.0625
2283.996	1611.8625
2286.87094	1616.7625
2289.74405	1600.9625
2292.61534	1597.7625
2295.4848	1599.7625
2298.35243	1596.3625
2301.21824	1582.8625
2304.08223	1582.5625
2306.94439	1574.7625
2309.80474	1577.1625
2312.66327	1579.0625
2315.51999	1574.7625
2318.37489	1569.8625
2321.22797	1569.0625
2324.07925	1563.5625
2326.92871	1561.1625
2329.77637	1554.0625
2332.62222	1556.5625
2335.46626	1552.8625
2338.3085	1550.4625
2341.14893	1542.0625
2343.98756	1546.3625
2346.8244	1546.5625
2349.65943	1541.1625
2352.49267	1539.6625
2355.32411	1544.6625
2358.15376	1551.8625
2360.98161	1552.7625
2363.80768	1551.7625
2366.63195	1551.1625
2369.45444	1558.6625
2372.27514	1554.1625
2375.09405	1564.3625
2377.91118	1562.4625
2380.72652	1549.1625
2383.54009	1542.0625
2386.35187	1540.3625
2389.16188	1534.5625
2391.97011	1523.5625
2394.77657	1530.8625
2397.58125	1518.7625
2400.38416	1511.8625
2403.18529	1501.5625
2405.98466	1505.8625
2408.78226	1486.8625
2411.57809	1488.6625
2414.37216	1478.2625
2417.16446	1487.8625
2419.955	1473.9625
2422.74378	1469.4625
2425.5308	1472.3625
2428.31606	1479.1625
2431.09956	1462.7625
2433.88131	1462.9625
2436.6613	1473.6625
2439.43954	1470.3625
2442.21603	1450.8625
2444.99077	1458.5625
2447.76377	1466.4625
2450.53501	1465.7625
2453.30451	1467.2625
2456.07226	1467.2625
2458.83827	1459.7625
2461.60254	1468.2625
2464.36507	1452.2625
2467.12586	1450.3625
2469.88492	1446.9625
2472.64224	1451.4625
2475.39782	1455.1625
2478.15167	1463.3625
2480.90379	1447.0625
2483.65417	1457.5625
2486.40283	1460.2625
2489.14976	1462.3625
2491.89497	1462.3625
2494.63845	1464.7625
2497.3802	1465.7625
2500.12024	1462.1625
2502.85855	1452.4625
2505.59514	1452.5625
2508.33002	1442.6625
2511.06318	1431.4625
2513.79462	1430.6625
2516.52435	1417.4625
2519.25237	1409.2625
2521.97867	1397.6625
2524.70327	1401.1625
2527.42616	1394.7625
2530.14734	1389.5625
2532.86681	1390.7625
2535.58458	1396.9625
2538.30065	1384.2625
2541.01501	1381.8625
2543.72768	1380.4625
2546.43864	1374.1625
2549.14791	1380.3625
2551.85548	1379.2625
2554.56136	1376.3625
2557.26554	1374.9625
2559.96803	1368.0625
2562.66883	1370.2625
2565.36794	1355.5625
2568.06536	1361.7625
2570.7611	1359.1625
2573.45514	1347.9625
2576.14751	1353.6625
2578.83819	1347.9625
2581.52719	1341.2625
2584.21451	1341.4625
2586.90015	1335.8625
2589.58411	1332.9625
2592.2664	1337.9625
2594.94701	1329.3625
2597.62594	1328.3625
2600.30321	1318.2625
2602.9788	1324.7625
2605.65273	1318.9625
2608.32498	1319.8625
2610.99557	1320.8625
2613.66449	1306.9625
2616.33175	1317.5625
2618.99734	1311.7625
2621.66128	1310.4625
2624.32355	1293.3625
2626.98416	1312.5625
2629.64311	1300.0625
2632.30041	1311.1625
2634.95605	1296.3625
2637.61004	1293.6625
2640.26238	1295.3625
2642.91306	1277.7625
2645.56209	1287.2625
2648.20948	1285.1625
2650.85521	1285.3625
2653.4993	1286.7625
2656.14175	1281.1625
2658.78255	1292.1625
2661.42171	1283.6625
2664.05923	1280.3625
2666.6951	1282.9625
2669.32934	1286.0625
2671.96194	1287.2625
2674.59291	1289.9625
2677.22224	1287.5625
2679.84993	1285.1625
2682.476	1290.5625
2685.10043	1287.9625
2687.72324	1288.3625
2690.34441	1289.6625
2692.96396	1284.5625
2695.58188	1289.9625
2698.19818	1290.4625
2700.81285	1296.3625
2703.4259	1310.6625
2706.03733	1335.2625
2708.64714	1322.9625
2711.25533	1315.5625
2713.86191	1309.7625
2716.46687	1310.6625
2719.07021	1307.3625
2721.67194	1304.7625
2724.27206	1296.7625
2726.87057	1300.1625
2729.46747	1299.0625
2732.06276	1303.0625
2734.65644	1288.4625
2737.24852	1292.9625
2739.83899	1295.5625
2742.42786	1286.8625
2745.01513	1284.7625
2747.60079	1281.3625
2750.18486	1284.2625
2752.76733	1272.0625
2755.3482	1268.7625
2757.92747	1264.4625
2760.50515	1266.1625
2763.08123	1268.8625
2765.65573	1269.0625
2768.22863	1261.8625
2770.79994	1264.5625
2773.36967	1259.2625
2775.9378	1260.8625
2778.50435	1257.2625
2781.06932	1257.6625
2783.6327	1258.5625
2786.1945	1246.6625
2788.75471	1254.2625
2791.31335	1258.1625
2793.87041	1256.5625
2796.42589	1258.3625
2798.97979	1254.5625
2801.53212	1249.2625
2804.08288	1259.5625
2806.63206	1252.0625
2809.17967	1250.6625
2811.72571	1259.5625
2814.27018	1254.0625
2816.81308	1258.0625
2819.35442	1255.3625
2821.89419	1269.2625
2824.43239	1264.8625
2826.96904	1262.4625
2829.50412	1269.3625
2832.03763	1269.8625
2834.56959	1271.0625
2837.1	1264.2625
2839.62884	1272.4625
2842.15613	1270.7625
2844.68186	1282.9625
2847.20604	1273.4625
2849.72867	1289.6625
2852.24974	1300.4625
2854.76927	1303.8625
2857.28724	1300.6625
2859.80367	1301.0625
2862.31855	1298.6625
2864.83189	1299.4625
2867.34368	1305.3625
2869.85393	1292.9625
2872.36264	1303.3625
2874.8698	1302.1625
2877.37543	1309.5625
2879.87952	1306.4625
2882.38207	1310.1625
2884.88308	1302.6625
2887.38256	1305.1625
2889.88051	1304.2625
2892.37692	1307.9625
2894.8718	1304.0625
2897.36515	1307.9625
2899.85698	1315.9625
2902.34727	1318.3625
2904.83604	1319.5625
2907.32328	1326.3625
2909.809	1331.4625
2912.29319	1326.3625
2914.77587	1322.3625
2917.25702	1317.3625
2919.73665	1325.6625
2922.21476	1327.2625
2924.69136	1314.8625
2927.16644	1331.4625
2929.64	1322.4625
2932.11205	1316.6625
2934.58258	1319.4625
2937.05161	1321.3625
2939.51912	1306.8625
2941.98513	1303.0625
2944.44962	1297.7625
2946.91261	1297.2625
2949.37409	1299.9625
2951.83407	1293.6625
2954.29254	1294.5625
2956.74951	1291.0625
2959.20498	1286.5625
2961.65895	1281.5625
2964.11142	1272.8625
2966.56239	1262.8625
2969.01186	1270.1625
2971.45984	1256.3625
2973.90632	1257.9625
2976.35131	1246.8625
2978.7948	1246.5625
2981.23681	1237.9625
2983.67732	1243.4625
2986.11635	1242.4625
2988.55388	1242.5625
2990.98993	1245.3625
2993.4245	1238.5625
2995.85758	1239.7625
2998.28917	1233.9625
3000.71928	1239.7625
3003.14791	1239.7625
3005.57506	1241.7625
3008.00073	1250.1625
3010.42493	1251.9625
3012.84764	1252.2625
3015.26888	1249.2625
3017.68865	1243.3625
3020.10694	1249.0625
3022.52376	1243.7625
3024.9391	1251.6625
3027.35298	1250.3625
3029.76539	1252.3625
3032.17632	1247.4625
3034.5858	1243.6625
3036.9938	1257.5625
3039.40034	1263.1625
3041.80542	1255.9625
3044.20903	1252.1625
3046.61118	1257.3625
3049.01187	1252.9625
3051.4111	1261.4625
3053.80888	1262.6625
3056.20519	1265.9625
3058.60005	1265.5625
3060.99345	1269.6625
3063.3854	1266.5625
3065.7759	1278.4625
3068.16494	1273.5625
3070.55254	1273.6625
3072.93868	1281.3625
3075.32338	1277.9625
3077.70662	1284.2625
3080.08842	1281.1625
3082.46878	1288.2625
3084.84769	1288.8625
3087.22515	1293.4625
3089.60118	1303.9625
3091.97576	1307.2625
3094.3489	1302.4625
3096.72061	1309.8625
3099.09087	1309.2625
3101.4597	1318.1625
3103.82709	1326.5625
3106.19305	1326.3625
3108.55757	1332.7625
3110.92066	1333.7625
3113.28232	1331.4625
3115.64255	1341.2625
3118.00134	1343.1625
3120.35871	1348.8625
3122.71466	1363.5625
3125.06917	1363.3625
3127.42226	1365.5625
3129.77393	1383.7625
3132.12417	1381.5625
3134.47299	1387.4625
3136.82039	1396.2625
3139.16636	1406.9625
3141.51092	1416.9625
3143.85406	1425.6625
3146.19579	1428.3625
3148.53609	1446.9625
3150.87499	1445.7625
3153.21246	1457.8625
3155.54853	1465.5625
3157.88318	1470.7625
3160.21642	1479.8625
3162.54826	1481.1625
3164.87868	1494.0625
3167.2077	1498.2625
3169.5353	1506.4625
3171.86151	1511.9625
3174.18631	1521.6625
3176.5097	1523.9625
3178.83169	1535.5625
3181.15228	1542.3625
3183.47147	1550.9625
3185.78926	1547.1625
3188.10565	1560.0625
3190.42065	1569.6625
3192.73424	1570.1625
3195.04645	1575.1625
3197.35725	1587.4625
3199.66667	1595.5625
3201.97469	1612.0625
3204.28132	1617.3625
3206.58656	1613.8625
3208.8904	1626.4625
3211.19287	1623.7625
3213.49394	1633.6625
3215.79363	1633.9625
3218.09193	1639.1625
3220.38884	1663.1625
3222.68438	1656.9625
3224.97853	1658.0625
3227.2713	1659.5625
3229.56269	1658.2625
3231.8527	1656.4625
3234.14133	1657.3625
3236.42858	1661.0625
3238.71446	1660.1625
3240.99896	1658.2625
3243.28209	1668.1625
3245.56384	1658.0625
3247.84423	1667.5625
3250.12324	1661.7625
3252.40088	1666.5625
3254.67715	1662.5625
3256.95205	1665.8625
3259.22558	1663.9625
3261.49775	1673.7625
3263.76855	1666.5625
3266.03799	1668.7625
3268.30606	1661.4625
3270.57277	1662.3625
3272.83812	1653.8625
3275.10211	1660.1625
3277.36474	1657.2625
3279.62601	1668.4625
3281.88593	1659.7625
3284.14448	1667.2625
3286.40168	1669.7625
3288.65753	1659.5625
3290.91202	1654.9625
3293.16516	1654.5625
3295.41695	1647.6625
3297.66738	1633.4625
3299.91647	1636.7625
3302.16421	1616.4625
3304.4106	1628.6625
3306.65564	1616.9625
3308.89933	1609.6625
3311.14169	1607.8625
3313.38269	1588.4625
3315.62236	1592.9625
3317.86068	1575.4625
3320.09766	1547.4625
3322.3333	1542.9625
3324.5676	1549.2625
3326.80056	1526.1625
3329.03219	1514.1625
3331.26248	-0.4375
3333.49143	-0.3375
3335.71905	-1.3375
