Data from AgNPs_FTO_APTES_UA_0.1mM_CRN_1000uM_NaF_0.1M_Addition_RamanShift__21__15-38-37-828.txt Node

Date: Mon Dec 20 15:38:37 GMT 2021
User: TCL
Spectrometer: QEP01345
Trigger mode: 4
Integration Time (sec): 7.000000E0
Scans to average: 10
Electric dark correction enabled: true
Nonlinearity correction enabled: false
Boxcar width: 0
XAxis mode: Raman Shifts
Number of Pixels in Spectrum: 1044
>>>>>Begin Spectral Data<<<<<
46.04893	0.425
50.45542	-0.075
54.85868	-1.475
59.25871	2.725
63.6555	24.225
68.04907	22.425
72.43941	24.125
76.82654	28.525
81.21044	28.825
85.59113	31.725
89.96862	30.025
94.34289	34.525
98.71396	33.625
103.08183	34.125
107.4465	33.725
111.80798	35.325
116.16626	37.825
120.52136	35.225
124.87327	37.825
129.222	35.625
133.56755	38.125
137.90993	40.525
142.24913	40.625
146.58517	41.925
150.91804	47.325
155.24774	54.625
159.57429	61.625
163.89768	76.825
168.21792	98.825
172.53501	118.925
176.84895	162.425
181.15975	225.525
185.46741	307.825
189.77193	430.225
194.07331	572.825
198.37157	742.525
202.6667	924.925
206.9587	1116.725
211.24758	1298.225
215.53334	1494.325
219.81599	1684.125
224.09553	1879.625
228.37195	2093.525
232.64527	2304.325
236.91549	2514.125
241.18261	2721.825
245.44663	2921.425
249.70755	3078.225
253.96539	3192.425
258.22014	3309.825
262.4718	3370.625
266.72039	3406.425
270.96589	3395.325
275.20832	3365.825
279.44768	3309.525
283.68397	3256.725
287.91719	3215.225
292.14735	3156.125
296.37445	3118.325
300.59849	3096.425
304.81948	3069.325
309.03742	3063.225
313.25231	3024.325
317.46415	3002.125
321.67296	2947.225
325.87872	2929.325
330.08145	2915.325
334.28114	2901.025
338.47781	2932.325
342.67145	2945.025
346.86207	2966.025
351.04966	3000.825
355.23424	3047.525
359.4158	3081.725
363.59435	3112.125
367.76989	3151.025
371.94243	3185.525
376.11196	3224.725
380.27849	3250.725
384.44203	3284.925
388.60257	3325.725
392.76012	3345.725
396.91468	3378.525
401.06626	3417.025
405.21485	3428.325
409.36047	3433.825
413.50311	3434.725
417.64277	3418.425
421.77947	3413.625
425.9132	3430.025
430.04396	3438.225
434.17176	3439.125
438.2966	3460.025
442.41849	3478.025
446.53742	3512.725
450.6534	3531.925
454.76644	3563.225
458.87653	3597.725
462.98368	3592.825
467.08789	3595.525
471.18916	3608.525
475.2875	3610.925
479.38291	3637.025
483.4754	3687.725
487.56496	3748.125
491.6516	3824.525
495.73531	3872.125
499.81612	3868.525
503.89401	3818.125
507.96899	3775.125
512.04106	3747.025
516.11023	3744.025
520.1765	3743.625
524.23987	3776.025
528.30034	3789.325
532.35792	3813.425
536.41261	3787.225
540.46441	3738.325
544.51333	3672.525
548.55936	3618.425
552.60252	3584.725
556.64279	3607.125
560.6802	3607.325
564.71473	3613.025
568.7464	3638.725
572.7752	3651.525
576.80114	3676.325
580.82422	3689.425
584.84444	3732.925
588.86181	3787.825
592.87633	3829.225
596.888	3826.425
600.89682	3820.425
604.9028	3856.125
608.90594	3989.325
612.90624	4172.825
616.90371	4251.825
620.89834	4195.525
624.89015	4326.825
628.87913	4600.225
632.86528	4888.225
636.84862	5088.725
640.82913	5023.625
644.80683	4808.925
648.78172	4516.425
652.75379	4270.525
656.72306	4113.125
660.68952	4060.825
664.65319	4034.725
668.61405	4046.125
672.57211	4093.125
676.52738	4142.525
680.47986	4185.425
684.42955	4180.925
688.37646	4128.425
692.32058	4074.525
696.26192	4016.825
700.20048	3985.525
704.13626	3946.625
708.06928	3885.025
711.99952	3831.525
715.927	3801.925
719.85171	3767.825
723.77365	3773.025
727.69284	3799.125
731.60928	3767.825
735.52295	3738.425
739.43388	3684.525
743.34206	3665.425
747.24749	3675.325
751.15017	3665.325
755.05012	3681.925
758.94733	3698.125
762.8418	3743.325
766.73354	3802.025
770.62254	3858.225
774.50882	3883.125
778.39237	3844.425
782.27321	3754.925
786.15132	3668.225
790.02671	3649.425
793.89938	3643.425
797.76935	3668.525
801.6366	3730.925
805.50115	3832.425
809.36299	3962.525
813.22213	4020.025
817.07857	3960.525
820.93231	3854.725
824.78336	3688.825
828.63172	3572.425
832.47738	3493.925
836.32036	3452.525
840.16066	3448.325
843.99827	3433.125
847.8332	3430.225
851.66546	3405.625
855.49504	3404.525
859.32195	3435.825
863.1462	3452.725
866.96777	3496.425
870.78668	3537.125
874.60293	3599.925
878.41652	3686.825
882.22745	3762.225
886.03573	3825.625
889.84136	3843.125
893.64433	3782.325
897.44466	3653.425
901.24235	3530.325
905.0374	3420.925
908.8298	3386.125
912.61957	3315.625
916.40671	3287.925
920.19121	3272.225
923.97308	3277.725
927.75233	3295.525
931.52895	3287.025
935.30295	3281.325
939.07433	3266.425
942.84309	3260.825
946.60924	3240.425
950.37278	3221.125
954.13371	3212.625
957.89203	3201.625
961.64774	3183.825
965.40086	3168.125
969.15137	3149.325
972.89929	3129.425
976.64461	3137.025
980.38733	3120.825
984.12747	3111.025
987.86502	3135.225
991.59999	3132.325
995.33237	3153.025
999.06217	3188.125
1002.78939	3231.725
1006.51404	3267.225
1010.23611	3324.625
1013.95561	3370.825
1017.67255	3374.125
1021.38692	3354.825
1025.09872	3320.425
1028.80796	3264.025
1032.51465	3230.425
1036.21877	3193.325
1039.92035	3162.825
1043.61937	3144.925
1047.31584	3141.925
1051.00976	3149.125
1054.70114	3178.325
1058.38998	3192.325
1062.07627	3223.025
1065.76003	3249.625
1069.44126	3275.525
1073.11995	3301.125
1076.79611	3311.125
1080.46974	3280.125
1084.14085	3238.625
1087.80943	3185.825
1091.47549	3149.625
1095.13903	3109.225
1098.80005	3096.225
1102.45857	3071.125
1106.11456	3072.325
1109.76805	3103.625
1113.41903	3140.925
1117.06751	3224.125
1120.71348	3361.425
1124.35696	3561.825
1127.99793	3809.025
1131.63641	4058.925
1135.2724	4225.525
1138.90589	4251.725
1142.5369	4151.825
1146.16542	3933.725
1149.79145	3711.825
1153.415	3483.925
1157.03607	3328.125
1160.65467	3224.925
1164.27079	3167.725
1167.88443	3148.425
1171.49561	3178.825
1175.10432	3238.025
1178.71056	3312.225
1182.31434	3378.625
1185.91565	3438.125
1189.51451	3479.725
1193.11091	3516.725
1196.70485	3579.425
1200.29634	3653.225
1203.88538	3685.625
1207.47197	3669.425
1211.05612	3581.725
1214.63782	3481.525
1218.21708	3354.925
1221.79391	3256.025
1225.36829	3172.725
1228.94024	3131.925
1232.50976	3096.825
1236.07685	3077.125
1239.6415	3079.225
1243.20374	3097.025
1246.76355	3119.425
1250.32093	3114.225
1253.8759	3144.225
1257.42845	3145.725
1260.97859	3150.625
1264.52631	3162.625
1268.07163	3160.325
1271.61453	3172.425
1275.15503	3145.525
1278.69312	3126.825
1282.22882	3123.025
1285.76211	3128.725
1289.29301	3159.425
1292.82151	3160.125
1296.34761	3210.325
1299.87133	3270.225
1303.39266	3334.625
1306.9116	3438.025
1310.42815	3534.325
1313.94233	3599.825
1317.45412	3626.425
1320.96354	3606.525
1324.47058	3602.125
1327.97525	3590.025
1331.47754	3576.525
1334.97747	3592.125
1338.47502	3628.825
1341.97022	3679.725
1345.46305	3739.525
1348.95352	3815.325
1352.44163	3916.925
1355.92738	4026.725
1359.41078	4139.325
1362.89183	4240.725
1366.37053	4230.625
1369.84688	4082.525
1373.32088	3902.525
1376.79254	3748.425
1380.26186	3632.925
1383.72883	3560.925
1387.19347	3494.125
1390.65578	3438.325
1394.11575	3387.725
1397.57339	3335.525
1401.0287	3307.825
1404.48168	3287.125
1407.93234	3239.725
1411.38068	3204.225
1414.82669	3157.325
1418.27039	3100.825
1421.71177	3042.425
1425.15083	2965.125
1428.58758	2919.525
1432.02203	2863.125
1435.45416	2830.125
1438.88399	2802.725
1442.31151	2748.725
1445.73673	2739.225
1449.15965	2747.525
1452.58027	2727.525
1455.9986	2728.125
1459.41463	2733.825
1462.82837	2736.925
1466.23982	2751.425
1469.64898	2778.925
1473.05586	2789.125
1476.46045	2788.825
1479.86276	2804.525
1483.26279	2819.125
1486.66054	2809.825
1490.05602	2833.125
1493.44922	2857.825
1496.84016	2904.025
1500.22882	2976.225
1503.61521	3050.625
1506.99934	3176.725
1510.38121	3255.925
1513.76081	3279.925
1517.13816	3219.225
1520.51324	3111.925
1523.88607	3017.825
1527.25665	2959.825
1530.62498	2932.925
1533.99105	2953.425
1537.35488	2960.825
1540.71647	2973.825
1544.07581	2993.025
1547.4329	3031.125
1550.78776	3028.625
1554.14038	3064.825
1557.49077	3079.625
1560.83892	3099.925
1564.18484	3103.025
1567.52853	3108.225
1570.86999	3133.425
1574.20922	3149.425
1577.54624	3188.025
1580.88103	3183.125
1584.2136	3150.225
1587.54395	3117.925
1590.87208	3090.825
1594.19801	3095.225
1597.52172	3136.125
1600.84321	3160.725
1604.16251	3163.925
1607.47959	3141.625
1610.79447	3126.625
1614.10715	3092.825
1617.41763	3068.725
1620.7259	3056.825
1624.03199	3039.525
1627.33587	3035.025
1630.63757	3027.325
1633.93707	3049.825
1637.23439	3085.025
1640.52951	3150.925
1643.82246	3239.825
1647.11321	3331.225
1650.40179	3418.525
1653.68819	3436.725
1656.97241	3376.625
1660.25446	3280.725
1663.53433	3212.825
1666.81203	3166.025
1670.08756	3153.525
1673.36092	3123.225
1676.63211	3109.225
1679.90115	3093.725
1683.16801	3084.225
1686.43272	3037.925
1689.69527	2996.825
1692.95567	2942.525
1696.2139	2879.325
1699.46999	2797.325
1702.72392	2707.825
1705.97571	2621.825
1709.22535	2541.825
1712.47284	2483.625
1715.71819	2433.725
1718.96139	2396.225
1722.20246	2369.325
1725.44139	2352.025
1728.67818	2339.025
1731.91284	2297.325
1735.14537	2280.925
1738.37576	2277.325
1741.60403	2256.525
1744.83017	2240.525
1748.05418	2247.325
1751.27607	2262.225
1754.49584	2259.225
1757.71349	2274.125
1760.92903	2262.925
1764.14244	2231.825
1767.35375	2210.725
1770.56294	2188.625
1773.77002	2153.525
1776.97499	2117.625
1780.17785	2083.225
1783.37861	2055.325
1786.57727	2028.425
1789.77382	2004.325
1792.96828	1981.025
1796.16064	1971.525
1799.3509	1965.625
1802.53907	1943.025
1805.72514	1936.325
1808.90913	1933.125
1812.09102	1918.525
1815.27083	1905.425
1818.44856	1899.225
1821.6242	1899.125
1824.79776	1889.725
1827.96924	1888.825
1831.13864	1871.825
1834.30597	1879.225
1837.47122	1869.525
1840.6344	1871.225
1843.7955	1863.325
1846.95454	1861.025
1850.11151	1852.825
1853.26642	1845.925
1856.41926	1837.925
1859.57004	1836.725
1862.71876	1830.825
1865.86542	1827.525
1869.01003	1822.425
1872.15258	1818.425
1875.29308	1817.525
1878.43152	1816.925
1881.56792	1813.825
1884.70227	1804.725
1887.83457	1793.725
1890.96482	1796.225
1894.09304	1790.725
1897.21921	1784.725
1900.34335	1785.125
1903.46544	1779.325
1906.58551	1774.525
1909.70353	1770.025
1912.81953	1768.525
1915.93349	1772.025
1919.04543	1755.125
1922.15534	1761.325
1925.26322	1753.425
1928.36908	1741.825
1931.47292	1743.025
1934.57473	1743.525
1937.67453	1726.725
1940.77232	1718.025
1943.86808	1720.525
1946.96184	1701.325
1950.05358	1706.525
1953.14331	1696.925
1956.23103	1693.525
1959.31675	1687.725
1962.40046	1673.325
1965.48217	1674.325
1968.56188	1675.525
1971.63959	1660.225
1974.7153	1647.325
1977.78901	1649.225
1980.86073	1643.525
1983.93046	1638.125
1986.99819	1630.025
1990.06394	1618.725
1993.1277	1614.525
1996.18947	1609.525
1999.24925	1610.425
2002.30706	1600.725
2005.36288	1592.425
2008.41672	1586.425
2011.46859	1585.825
2014.51848	1567.325
2017.56639	1571.125
2020.61233	1563.225
2023.6563	1561.225
2026.6983	1554.425
2029.73833	1548.725
2032.7764	1533.625
2035.8125	1530.825
2038.84664	1543.225
2041.87881	1530.325
2044.90903	1522.725
2047.93729	1513.325
2050.96359	1517.525
2053.98794	1518.625
2057.01034	1519.725
2060.03078	1509.125
2063.04927	1513.825
2066.06582	1507.825
2069.08042	1505.525
2072.09307	1508.425
2075.10378	1505.525
2078.11255	1496.625
2081.11938	1494.525
2084.12426	1486.725
2087.12722	1493.325
2090.12824	1486.925
2093.12732	1491.425
2096.12447	1491.525
2099.11969	1489.925
2102.11299	1475.925
2105.10435	1474.325
2108.09379	1476.125
2111.08131	1480.125
2114.0669	1485.725
2117.05057	1483.925
2120.03233	1479.725
2123.01216	1490.925
2125.99008	1478.525
2128.96609	1485.925
2131.94018	1486.525
2134.91236	1487.925
2137.88263	1483.025
2140.851	1477.825
2143.81746	1474.425
2146.78201	1482.925
2149.74466	1478.825
2152.7054	1477.025
2155.66425	1471.925
2158.6212	1474.725
2161.57625	1473.325
2164.52941	1472.925
2167.48067	1470.425
2170.43004	1467.325
2173.37752	1465.125
2176.32311	1464.325
2179.26681	1456.325
2182.20863	1449.925
2185.14856	1465.825
2188.08661	1450.425
2191.02278	1448.825
2193.95707	1450.125
2196.88948	1450.825
2199.82001	1436.725
2202.74867	1434.925
2205.67545	1434.925
2208.60037	1442.425
2211.52341	1437.725
2214.44458	1416.425
2217.36388	1420.725
2220.28132	1422.225
2223.1969	1413.725
2226.11061	1404.625
2229.02246	1398.425
2231.93245	1400.625
2234.84058	1402.525
2237.74686	1391.725
2240.65128	1391.025
2243.55385	1393.325
2246.45456	1384.525
2249.35343	1387.125
2252.25044	1376.125
2255.14561	1364.025
2258.03893	1380.825
2260.93041	1385.925
2263.82004	1365.725
2266.70783	1364.925
2269.59378	1352.025
2272.4779	1358.525
2275.36017	1344.825
2278.24061	1339.325
2281.11922	1339.025
2283.996	1336.925
2286.87094	1346.425
2289.74405	1332.025
2292.61534	1326.325
2295.4848	1324.225
2298.35243	1325.825
2301.21824	1314.925
2304.08223	1326.025
2306.94439	1322.325
2309.80474	1311.725
2312.66327	1306.125
2315.51999	1306.025
2318.37489	1307.725
2321.22797	1295.525
2324.07925	1302.125
2326.92871	1303.025
2329.77637	1296.725
2332.62222	1291.825
2335.46626	1288.425
2338.3085	1282.525
2341.14893	1282.825
2343.98756	1279.725
2346.8244	1274.525
2349.65943	1262.125
2352.49267	1277.425
2355.32411	1269.325
2358.15376	1265.225
2360.98161	1267.625
2363.80768	1261.025
2366.63195	1269.525
2369.45444	1261.925
2372.27514	1250.825
2375.09405	1259.225
2377.91118	1245.225
2380.72652	1249.625
2383.54009	1249.125
2386.35187	1254.325
2389.16188	1241.925
2391.97011	1239.725
2394.77657	1237.725
2397.58125	1230.125
2400.38416	1229.525
2403.18529	1227.125
2405.98466	1220.425
2408.78226	1222.925
2411.57809	1219.225
2414.37216	1216.425
2417.16446	1207.825
2419.955	1213.225
2422.74378	1207.525
2425.5308	1202.125
2428.31606	1193.825
2431.09956	1198.225
2433.88131	1198.225
2436.6613	1191.725
2439.43954	1195.625
2442.21603	1184.225
2444.99077	1192.525
2447.76377	1183.325
2450.53501	1179.725
2453.30451	1184.025
2456.07226	1179.225
2458.83827	1175.325
2461.60254	1181.625
2464.36507	1163.225
2467.12586	1165.825
2469.88492	1164.325
2472.64224	1164.325
2475.39782	1167.925
2478.15167	1169.625
2480.90379	1163.325
2483.65417	1154.025
2486.40283	1154.525
2489.14976	1159.625
2491.89497	1148.225
2494.63845	1162.825
2497.3802	1150.125
2500.12024	1144.325
2502.85855	1143.625
2505.59514	1143.725
2508.33002	1138.525
2511.06318	1145.525
2513.79462	1139.225
2516.52435	1135.925
2519.25237	1127.725
2521.97867	1131.125
2524.70327	1130.425
2527.42616	1114.525
2530.14734	1122.325
2532.86681	1113.925
2535.58458	1116.825
2538.30065	1118.725
2541.01501	1111.025
2543.72768	1105.325
2546.43864	1106.325
2549.14791	1108.625
2551.85548	1097.925
2554.56136	1098.625
2557.26554	1088.925
2559.96803	1092.125
2562.66883	1090.725
2565.36794	1091.625
2568.06536	1089.025
2570.7611	1078.725
2573.45514	1070.425
2576.14751	1082.925
2578.83819	1073.825
2581.52719	1065.625
2584.21451	1065.025
2586.90015	1065.925
2589.58411	1064.725
2592.2664	1064.125
2594.94701	1057.425
2597.62594	1052.725
2600.30321	1046.125
2602.9788	1054.925
2605.65273	1044.925
2608.32498	1041.625
2610.99557	1050.125
2613.66449	1035.925
2616.33175	1039.125
2618.99734	1036.925
2621.66128	1034.225
2624.32355	1032.325
2626.98416	1038.125
2629.64311	1035.325
2632.30041	1031.425
2634.95605	1024.825
2637.61004	1033.025
2640.26238	1020.925
2642.91306	1021.325
2645.56209	1018.625
2648.20948	1024.225
2650.85521	1024.125
2653.4993	1018.025
2656.14175	1015.625
2658.78255	1021.125
2661.42171	1011.025
2664.05923	1007.925
2666.6951	1005.625
2669.32934	1008.925
2671.96194	1006.725
2674.59291	1016.725
2677.22224	1008.625
2679.84993	1003.825
2682.476	1000.925
2685.10043	1007.325
2687.72324	1015.125
2690.34441	1002.925
2692.96396	998.625
2695.58188	1009.625
2698.19818	1008.625
2700.81285	1015.525
2703.4259	1026.625
2706.03733	1055.125
2708.64714	1032.925
2711.25533	1012.025
2713.86191	1021.025
2716.46687	1018.025
2719.07021	1011.925
2721.67194	1037.825
2724.27206	994.025
2726.87057	1009.725
2729.46747	999.925
2732.06276	1002.225
2734.65644	997.125
2737.24852	993.625
2739.83899	1000.525
2742.42786	993.125
2745.01513	998.625
2747.60079	996.325
2750.18486	986.025
2752.76733	989.925
2755.3482	989.725
2757.92747	983.025
2760.50515	975.325
2763.08123	980.925
2765.65573	974.025
2768.22863	979.925
2770.79994	972.225
2773.36967	973.625
2775.9378	978.125
2778.50435	965.325
2781.06932	968.725
2783.6327	968.625
2786.1945	963.225
2788.75471	964.325
2791.31335	960.425
2793.87041	959.125
2796.42589	959.625
2798.97979	947.925
2801.53212	951.425
2804.08288	951.725
2806.63206	956.125
2809.17967	955.125
2811.72571	947.125
2814.27018	958.025
2816.81308	947.125
2819.35442	954.225
2821.89419	947.125
2824.43239	950.425
2826.96904	951.925
2829.50412	943.625
2832.03763	939.925
2834.56959	951.625
2837.1	940.925
2839.62884	933.325
2842.15613	946.025
2844.68186	947.625
2847.20604	953.125
2849.72867	945.425
2852.24974	944.025
2854.76927	944.125
2857.28724	949.825
2859.80367	946.025
2862.31855	939.125
2864.83189	939.425
2867.34368	937.925
2869.85393	929.725
2872.36264	936.725
2874.8698	940.525
2877.37543	941.425
2879.87952	950.225
2882.38207	947.225
2884.88308	944.825
2887.38256	951.125
2889.88051	951.925
2892.37692	949.325
2894.8718	958.325
2897.36515	957.425
2899.85698	969.425
2902.34727	972.025
2904.83604	966.725
2907.32328	976.725
2909.809	983.225
2912.29319	983.125
2914.77587	988.725
2917.25702	993.725
2919.73665	991.825
2922.21476	994.025
2924.69136	999.125
2927.16644	1000.725
2929.64	999.025
2932.11205	1009.525
2934.58258	1007.825
2937.05161	1012.425
2939.51912	1008.925
2941.98513	1012.025
2944.44962	1008.525
2946.91261	1000.025
2949.37409	1004.425
2951.83407	1004.025
2954.29254	1000.825
2956.74951	1001.225
2959.20498	989.925
2961.65895	994.825
2964.11142	986.225
2966.56239	976.125
2969.01186	976.425
2971.45984	967.925
2973.90632	964.625
2976.35131	957.725
2978.7948	964.225
2981.23681	946.525
2983.67732	955.925
2986.11635	953.125
2988.55388	947.525
2990.98993	953.825
2993.4245	946.325
2995.85758	943.225
2998.28917	949.825
3000.71928	940.825
3003.14791	939.325
3005.57506	943.325
3008.00073	945.625
3010.42493	947.525
3012.84764	952.825
3015.26888	950.925
3017.68865	954.025
3020.10694	953.025
3022.52376	941.525
3024.9391	946.125
3027.35298	946.925
3029.76539	943.525
3032.17632	947.725
3034.5858	937.025
3036.9938	944.225
3039.40034	946.725
3041.80542	943.825
3044.20903	952.525
3046.61118	948.125
3049.01187	939.725
3051.4111	943.025
3053.80888	948.425
3056.20519	946.925
3058.60005	941.925
3060.99345	954.325
3063.3854	948.825
3065.7759	949.725
3068.16494	949.325
3070.55254	949.625
3072.93868	958.425
3075.32338	957.525
3077.70662	963.925
3080.08842	951.525
3082.46878	966.125
3084.84769	973.025
3087.22515	968.125
3089.60118	974.525
3091.97576	981.725
3094.3489	977.425
3096.72061	980.325
3099.09087	982.225
3101.4597	993.725
3103.82709	997.325
3106.19305	1003.225
3108.55757	1012.725
3110.92066	1008.425
3113.28232	1002.425
3115.64255	1013.525
3118.00134	1018.625
3120.35871	1015.525
3122.71466	1024.325
3125.06917	1029.025
3127.42226	1028.225
3129.77393	1037.225
3132.12417	1039.125
3134.47299	1046.825
3136.82039	1045.025
3139.16636	1059.825
3141.51092	1057.225
3143.85406	1073.925
3146.19579	1083.125
3148.53609	1084.025
3150.87499	1086.625
3153.21246	1105.525
3155.54853	1106.125
3157.88318	1115.025
3160.21642	1120.325
3162.54826	1116.125
3164.87868	1135.525
3167.2077	1129.525
3169.5353	1136.325
3171.86151	1140.925
3174.18631	1143.025
3176.5097	1149.325
3178.83169	1154.425
3181.15228	1160.625
3183.47147	1158.925
3185.78926	1167.125
3188.10565	1171.125
3190.42065	1179.225
3192.73424	1182.425
3195.04645	1188.925
3197.35725	1187.725
3199.66667	1198.625
3201.97469	1211.125
3204.28132	1207.125
3206.58656	1212.925
3208.8904	1213.925
3211.19287	1219.325
3213.49394	1225.325
3215.79363	1226.325
3218.09193	1228.825
3220.38884	1236.625
3222.68438	1249.525
3224.97853	1245.525
3227.2713	1249.825
3229.56269	1236.025
3231.8527	1240.525
3234.14133	1238.825
3236.42858	1236.425
3238.71446	1239.725
3240.99896	1241.025
3243.28209	1238.425
3245.56384	1241.125
3247.84423	1240.825
3250.12324	1246.025
3252.40088	1253.325
3254.67715	1236.425
3256.95205	1231.825
3259.22558	1240.125
3261.49775	1246.825
3263.76855	1237.325
3266.03799	1244.225
3268.30606	1238.125
3270.57277	1245.425
3272.83812	1234.425
3275.10211	1241.725
3277.36474	1239.825
3279.62601	1239.425
3281.88593	1239.525
3284.14448	1239.925
3286.40168	1243.625
3288.65753	1238.325
3290.91202	1242.325
3293.16516	1236.125
3295.41695	1226.525
3297.66738	1221.725
3299.91647	1223.325
3302.16421	1216.325
3304.4106	1205.325
3306.65564	1202.025
3308.89933	1208.825
3311.14169	1204.325
3313.38269	1190.725
3315.62236	1193.225
3317.86068	1177.625
3320.09766	1162.525
3322.3333	1165.025
3324.5676	1170.225
3326.80056	1154.125
3329.03219	1146.425
3331.26248	0.625
3333.49143	-0.575
3335.71905	-0.575
