Data from AgNPs_FTO_APTES_UA_0.1mM_CRN_100uM_NaF_0.1M_Addition_RamanShift__7__13-24-27-675.txt Node

Date: Mon Dec 20 13:24:27 GMT 2021
User: TCL
Spectrometer: QEP01345
Trigger mode: 4
Integration Time (sec): 7.000000E0
Scans to average: 10
Electric dark correction enabled: true
Nonlinearity correction enabled: false
Boxcar width: 0
XAxis mode: Raman Shifts
Number of Pixels in Spectrum: 1044
>>>>>Begin Spectral Data<<<<<
46.04893	0.5125
50.45542	0.0125
54.85868	-1.6875
59.25871	1.0125
63.6555	28.4125
68.04907	28.7125
72.43941	32.1125
76.82654	34.4125
81.21044	35.4125
85.59113	39.8125
89.96862	38.5125
94.34289	39.9125
98.71396	41.7125
103.08183	41.3125
107.4465	42.1125
111.80798	46.4125
116.16626	47.5125
120.52136	47.6125
124.87327	47.3125
129.222	46.0125
133.56755	50.6125
137.90993	53.5125
142.24913	56.1125
146.58517	60.0125
150.91804	72.5125
155.24774	83.7125
159.57429	98.9125
163.89768	126.8125
168.21792	160.6125
172.53501	209.7125
176.84895	286.3125
181.15975	392.5125
185.46741	546.3125
189.77193	755.1125
194.07331	998.8125
198.37157	1302.5125
202.6667	1623.8125
206.9587	1938.4125
211.24758	2259.7125
215.53334	2582.9125
219.81599	2924.8125
224.09553	3305.7125
228.37195	3745.7125
232.64527	4215.5125
236.91549	4715.5125
241.18261	5192.1125
245.44663	5621.9125
249.70755	5999.7125
253.96539	6244.2125
258.22014	6429.0125
262.4718	6547.9125
266.72039	6573.2125
270.96589	6543.1125
275.20832	6481.1125
279.44768	6382.4125
283.68397	6256.4125
287.91719	6178.0125
292.14735	6049.9125
296.37445	5987.9125
300.59849	5943.5125
304.81948	5925.6125
309.03742	5884.0125
313.25231	5799.3125
317.46415	5724.4125
321.67296	5645.7125
325.87872	5570.3125
330.08145	5524.2125
334.28114	5507.9125
338.47781	5542.8125
342.67145	5549.9125
346.86207	5588.0125
351.04966	5642.9125
355.23424	5714.8125
359.4158	5783.2125
363.59435	5820.4125
367.76989	5885.2125
371.94243	5953.4125
376.11196	6031.1125
380.27849	6087.0125
384.44203	6143.0125
388.60257	6199.5125
392.76012	6244.1125
396.91468	6313.8125
401.06626	6369.0125
405.21485	6402.9125
409.36047	6417.6125
413.50311	6405.1125
417.64277	6362.3125
421.77947	6365.9125
425.9132	6371.0125
430.04396	6366.9125
434.17176	6426.3125
438.2966	6431.0125
442.41849	6470.5125
446.53742	6518.6125
450.6534	6586.9125
454.76644	6624.4125
458.87653	6663.6125
462.98368	6685.0125
467.08789	6687.0125
471.18916	6714.5125
475.2875	6755.3125
479.38291	6779.4125
483.4754	6842.9125
487.56496	6952.8125
491.6516	7074.8125
495.73531	7183.5125
499.81612	7223.8125
503.89401	7205.2125
507.96899	7137.6125
512.04106	7066.2125
516.11023	7006.8125
520.1765	6983.4125
524.23987	6988.7125
528.30034	7008.0125
532.35792	7025.7125
536.41261	7019.3125
540.46441	6950.9125
544.51333	6862.4125
548.55936	6833.0125
552.60252	6803.0125
556.64279	6785.8125
560.6802	6768.0125
564.71473	6789.4125
568.7464	6826.4125
572.7752	6867.2125
576.80114	6926.1125
580.82422	7003.4125
584.84444	7105.9125
588.86181	7245.9125
592.87633	7344.3125
596.888	7306.6125
600.89682	7243.3125
604.9028	7252.0125
608.90594	7490.8125
612.90624	7803.2125
616.90371	7814.8125
620.89834	7558.2125
624.89015	7658.7125
628.87913	8086.1125
632.86528	8638.2125
636.84862	9054.7125
640.82913	9112.0125
644.80683	8834.2125
648.78172	8390.0125
652.75379	7957.9125
656.72306	7643.8125
660.68952	7464.7125
664.65319	7293.1125
668.61405	7161.3125
672.57211	7139.4125
676.52738	7184.0125
680.47986	7240.6125
684.42955	7228.0125
688.37646	7174.5125
692.32058	7100.1125
696.26192	7033.3125
700.20048	6980.2125
704.13626	6945.5125
708.06928	6920.3125
711.99952	6900.5125
715.927	6905.2125
719.85171	6954.2125
723.77365	7031.1125
727.69284	7089.4125
731.60928	7065.0125
735.52295	6985.8125
739.43388	6885.8125
743.34206	6856.8125
747.24749	6858.0125
751.15017	6864.1125
755.05012	6877.4125
758.94733	6934.4125
762.8418	7046.1125
766.73354	7209.8125
770.62254	7355.2125
774.50882	7395.7125
778.39237	7285.6125
782.27321	7063.8125
786.15132	6884.9125
790.02671	6775.9125
793.89938	6734.6125
797.76935	6747.7125
801.6366	6824.2125
805.50115	6983.7125
809.36299	7220.9125
813.22213	7393.0125
817.07857	7395.6125
820.93231	7243.6125
824.78336	7007.8125
828.63172	6776.5125
832.47738	6638.8125
836.32036	6566.7125
840.16066	6538.7125
843.99827	6512.0125
847.8332	6496.0125
851.66546	6508.3125
855.49504	6512.6125
859.32195	6518.7125
863.1462	6554.3125
866.96777	6611.6125
870.78668	6682.8125
874.60293	6784.6125
878.41652	6939.2125
882.22745	7094.6125
886.03573	7217.3125
889.84136	7290.3125
893.64433	7241.7125
897.44466	7101.4125
901.24235	6881.3125
905.0374	6692.4125
908.8298	6552.7125
912.61957	6466.4125
916.40671	6416.8125
920.19121	6413.8125
923.97308	6414.2125
927.75233	6389.6125
931.52895	6374.9125
935.30295	6324.9125
939.07433	6310.4125
942.84309	6270.6125
946.60924	6221.5125
950.37278	6200.1125
954.13371	6203.3125
957.89203	6231.9125
961.64774	6237.0125
965.40086	6166.2125
969.15137	6145.7125
972.89929	6122.8125
976.64461	6116.6125
980.38733	6123.0125
984.12747	6101.8125
987.86502	6112.1125
991.59999	6152.1125
995.33237	6190.5125
999.06217	6244.0125
1002.78939	6315.9125
1006.51404	6395.6125
1010.23611	6467.9125
1013.95561	6550.4125
1017.67255	6577.4125
1021.38692	6583.6125
1025.09872	6571.4125
1028.80796	6493.7125
1032.51465	6441.0125
1036.21877	6372.9125
1039.92035	6306.6125
1043.61937	6289.5125
1047.31584	6253.2125
1051.00976	6268.3125
1054.70114	6287.5125
1058.38998	6297.3125
1062.07627	6351.9125
1065.76003	6441.6125
1069.44126	6502.0125
1073.11995	6558.1125
1076.79611	6621.4125
1080.46974	6633.9125
1084.14085	6588.6125
1087.80943	6534.3125
1091.47549	6482.6125
1095.13903	6429.5125
1098.80005	6388.9125
1102.45857	6369.4125
1106.11456	6367.3125
1109.76805	6383.1125
1113.41903	6523.8125
1117.06751	6763.5125
1120.71348	7112.2125
1124.35696	7572.7125
1127.99793	8141.2125
1131.63641	8594.3125
1135.2724	8790.5125
1138.90589	8754.9125
1142.5369	8476.3125
1146.16542	8080.2125
1149.79145	7631.7125
1153.415	7222.3125
1157.03607	6883.6125
1160.65467	6678.2125
1164.27079	6591.7125
1167.88443	6588.0125
1171.49561	6638.0125
1175.10432	6783.7125
1178.71056	6969.4125
1182.31434	7175.1125
1185.91565	7267.0125
1189.51451	7324.7125
1193.11091	7413.5125
1196.70485	7467.2125
1200.29634	7541.0125
1203.88538	7582.0125
1207.47197	7604.3125
1211.05612	7520.8125
1214.63782	7399.4125
1218.21708	7189.3125
1221.79391	7015.5125
1225.36829	6838.9125
1228.94024	6737.5125
1232.50976	6636.7125
1236.07685	6596.8125
1239.6415	6591.6125
1243.20374	6609.7125
1246.76355	6651.7125
1250.32093	6711.8125
1253.8759	6765.0125
1257.42845	6854.8125
1260.97859	6923.8125
1264.52631	6985.1125
1268.07163	7030.6125
1271.61453	7046.8125
1275.15503	7070.1125
1278.69312	7070.0125
1282.22882	7053.0125
1285.76211	7082.6125
1289.29301	7105.5125
1292.82151	7197.5125
1296.34761	7316.0125
1299.87133	7432.0125
1303.39266	7604.1125
1306.9116	7783.9125
1310.42815	7942.9125
1313.94233	8076.4125
1317.45412	8088.0125
1320.96354	8076.1125
1324.47058	8049.0125
1327.97525	8000.6125
1331.47754	7993.3125
1334.97747	7988.6125
1338.47502	8059.3125
1341.97022	8120.4125
1345.46305	8240.8125
1348.95352	8380.8125
1352.44163	8498.3125
1355.92738	8688.4125
1359.41078	8911.5125
1362.89183	9156.4125
1366.37053	9129.6125
1369.84688	8830.6125
1373.32088	8430.3125
1376.79254	8123.9125
1380.26186	7925.4125
1383.72883	7789.4125
1387.19347	7660.3125
1390.65578	7545.6125
1394.11575	7404.3125
1397.57339	7291.5125
1401.0287	7209.2125
1404.48168	7096.4125
1407.93234	6982.3125
1411.38068	6858.4125
1414.82669	6699.2125
1418.27039	6549.5125
1421.71177	6408.3125
1425.15083	6272.3125
1428.58758	6211.1125
1432.02203	6192.0125
1435.45416	6158.7125
1438.88399	6181.8125
1442.31151	6190.0125
1445.73673	6221.1125
1449.15965	6231.3125
1452.58027	6241.3125
1455.9986	6252.0125
1459.41463	6275.6125
1462.82837	6322.8125
1466.23982	6359.7125
1469.64898	6415.2125
1473.05586	6457.8125
1476.46045	6463.8125
1479.86276	6460.5125
1483.26279	6513.5125
1486.66054	6522.5125
1490.05602	6566.5125
1493.44922	6643.2125
1496.84016	6761.9125
1500.22882	6919.9125
1503.61521	7155.8125
1506.99934	7380.4125
1510.38121	7567.9125
1513.76081	7639.7125
1517.13816	7507.6125
1520.51324	7310.9125
1523.88607	7130.5125
1527.25665	7052.2125
1530.62498	7024.9125
1533.99105	7025.7125
1537.35488	7043.1125
1540.71647	7040.8125
1544.07581	7055.5125
1547.4329	7057.5125
1550.78776	7066.2125
1554.14038	7060.8125
1557.49077	7042.4125
1560.83892	7048.8125
1564.18484	7065.5125
1567.52853	7071.4125
1570.86999	7094.2125
1574.20922	7155.0125
1577.54624	7147.9125
1580.88103	7128.2125
1584.2136	7034.6125
1587.54395	6991.0125
1590.87208	6968.3125
1594.19801	6997.9125
1597.52172	7089.8125
1600.84321	7139.3125
1604.16251	7048.1125
1607.47959	6947.9125
1610.79447	6849.0125
1614.10715	6701.6125
1617.41763	6613.1125
1620.7259	6538.4125
1624.03199	6501.9125
1627.33587	6512.6125
1630.63757	6573.9125
1633.93707	6681.5125
1637.23439	6871.8125
1640.52951	7140.6125
1643.82246	7451.7125
1647.11321	7778.1125
1650.40179	7936.5125
1653.68819	7881.0125
1656.97241	7639.0125
1660.25446	7319.3125
1663.53433	7073.6125
1666.81203	6961.2125
1670.08756	6876.5125
1673.36092	6814.2125
1676.63211	6808.3125
1679.90115	6816.1125
1683.16801	6805.9125
1686.43272	6761.1125
1689.69527	6681.5125
1692.95567	6599.5125
1696.2139	6502.4125
1699.46999	6418.7125
1702.72392	6304.8125
1705.97571	6146.4125
1709.22535	6005.2125
1712.47284	5821.4125
1715.71819	5655.7125
1718.96139	5499.1125
1722.20246	5377.0125
1725.44139	5283.3125
1728.67818	5196.5125
1731.91284	5120.2125
1735.14537	5060.7125
1738.37576	5014.4125
1741.60403	4972.1125
1744.83017	4931.6125
1748.05418	4915.2125
1751.27607	4917.3125
1754.49584	4886.3125
1757.71349	4902.9125
1760.92903	4865.4125
1764.14244	4857.8125
1767.35375	4832.0125
1770.56294	4824.8125
1773.77002	4801.4125
1776.97499	4779.7125
1780.17785	4775.9125
1783.37861	4742.1125
1786.57727	4725.6125
1789.77382	4725.7125
1792.96828	4696.4125
1796.16064	4683.2125
1799.3509	4670.0125
1802.53907	4673.7125
1805.72514	4635.8125
1808.90913	4619.9125
1812.09102	4613.1125
1815.27083	4605.9125
1818.44856	4579.7125
1821.6242	4575.4125
1824.79776	4553.1125
1827.96924	4558.9125
1831.13864	4556.7125
1834.30597	4548.6125
1837.47122	4550.9125
1840.6344	4532.7125
1843.7955	4546.5125
1846.95454	4520.5125
1850.11151	4524.6125
1853.26642	4509.1125
1856.41926	4513.7125
1859.57004	4505.3125
1862.71876	4497.3125
1865.86542	4486.8125
1869.01003	4480.1125
1872.15258	4466.8125
1875.29308	4468.6125
1878.43152	4450.2125
1881.56792	4446.1125
1884.70227	4434.8125
1887.83457	4433.2125
1890.96482	4427.0125
1894.09304	4417.2125
1897.21921	4403.8125
1900.34335	4388.0125
1903.46544	4393.5125
1906.58551	4404.1125
1909.70353	4395.2125
1912.81953	4390.5125
1915.93349	4388.3125
1919.04543	4363.7125
1922.15534	4338.9125
1925.26322	4344.0125
1928.36908	4317.1125
1931.47292	4318.8125
1934.57473	4306.2125
1937.67453	4291.0125
1940.77232	4290.8125
1943.86808	4282.0125
1946.96184	4252.4125
1950.05358	4246.9125
1953.14331	4244.9125
1956.23103	4220.6125
1959.31675	4214.5125
1962.40046	4203.8125
1965.48217	4186.3125
1968.56188	4163.1125
1971.63959	4162.3125
1974.7153	4131.6125
1977.78901	4121.8125
1980.86073	4123.3125
1983.93046	4112.1125
1986.99819	4099.3125
1990.06394	4079.0125
1993.1277	4063.4125
1996.18947	4061.2125
1999.24925	4044.7125
2002.30706	4031.4125
2005.36288	4014.1125
2008.41672	3997.4125
2011.46859	4004.2125
2014.51848	3977.8125
2017.56639	3945.6125
2020.61233	3954.3125
2023.6563	3943.1125
2026.6983	3919.2125
2029.73833	3920.3125
2032.7764	3914.7125
2035.8125	3898.2125
2038.84664	3894.4125
2041.87881	3886.2125
2044.90903	3874.3125
2047.93729	3862.6125
2050.96359	3862.7125
2053.98794	3851.6125
2057.01034	3839.4125
2060.03078	3832.5125
2063.04927	3842.7125
2066.06582	3836.4125
2069.08042	3835.9125
2072.09307	3829.2125
2075.10378	3826.4125
2078.11255	3824.4125
2081.11938	3816.5125
2084.12426	3812.6125
2087.12722	3826.9125
2090.12824	3820.4125
2093.12732	3811.9125
2096.12447	3810.3125
2099.11969	3822.9125
2102.11299	3809.4125
2105.10435	3829.6125
2108.09379	3818.1125
2111.08131	3810.7125
2114.0669	3818.8125
2117.05057	3816.8125
2120.03233	3814.5125
2123.01216	3818.2125
2125.99008	3824.0125
2128.96609	3816.9125
2131.94018	3818.4125
2134.91236	3829.0125
2137.88263	3824.5125
2140.851	3826.7125
2143.81746	3831.6125
2146.78201	3841.5125
2149.74466	3823.4125
2152.7054	3831.1125
2155.66425	3820.8125
2158.6212	3812.2125
2161.57625	3822.4125
2164.52941	3829.0125
2167.48067	3807.5125
2170.43004	3811.4125
2173.37752	3804.1125
2176.32311	3803.3125
2179.26681	3805.0125
2182.20863	3787.5125
2185.14856	3796.1125
2188.08661	3784.6125
2191.02278	3795.4125
2193.95707	3791.3125
2196.88948	3782.2125
2199.82001	3771.8125
2202.74867	3768.2125
2205.67545	3755.6125
2208.60037	3764.4125
2211.52341	3752.8125
2214.44458	3729.0125
2217.36388	3737.0125
2220.28132	3724.2125
2223.1969	3706.9125
2226.11061	3698.6125
2229.02246	3698.4125
2231.93245	3685.1125
2234.84058	3677.5125
2237.74686	3679.7125
2240.65128	3665.1125
2243.55385	3659.1125
2246.45456	3652.5125
2249.35343	3658.9125
2252.25044	3635.4125
2255.14561	3625.2125
2258.03893	3627.8125
2260.93041	3630.5125
2263.82004	3613.2125
2266.70783	3610.0125
2269.59378	3588.9125
2272.4779	3594.1125
2275.36017	3575.2125
2278.24061	3572.1125
2281.11922	3555.3125
2283.996	3549.1125
2286.87094	3551.0125
2289.74405	3540.7125
2292.61534	3524.3125
2295.4848	3528.6125
2298.35243	3535.9125
2301.21824	3503.6125
2304.08223	3515.3125
2306.94439	3507.9125
2309.80474	3504.1125
2312.66327	3493.6125
2315.51999	3500.0125
2318.37489	3496.8125
2321.22797	3492.9125
2324.07925	3474.7125
2326.92871	3470.7125
2329.77637	3477.0125
2332.62222	3439.6125
2335.46626	3455.9125
2338.3085	3447.0125
2341.14893	3447.2125
2343.98756	3433.2125
2346.8244	3433.7125
2349.65943	3426.9125
2352.49267	3422.0125
2355.32411	3415.9125
2358.15376	3419.9125
2360.98161	3403.4125
2363.80768	3404.3125
2366.63195	3393.7125
2369.45444	3404.6125
2372.27514	3406.5125
2375.09405	3394.4125
2377.91118	3373.4125
2380.72652	3372.9125
2383.54009	3357.7125
2386.35187	3372.9125
2389.16188	3344.6125
2391.97011	3344.7125
2394.77657	3333.7125
2397.58125	3328.1125
2400.38416	3315.6125
2403.18529	3324.9125
2405.98466	3318.3125
2408.78226	3324.6125
2411.57809	3300.6125
2414.37216	3290.4125
2417.16446	3298.7125
2419.955	3286.0125
2422.74378	3295.0125
2425.5308	3281.2125
2428.31606	3278.8125
2431.09956	3263.8125
2433.88131	3268.1125
2436.6613	3259.8125
2439.43954	3246.4125
2442.21603	3247.2125
2444.99077	3240.1125
2447.76377	3239.1125
2450.53501	3236.3125
2453.30451	3230.6125
2456.07226	3226.0125
2458.83827	3220.4125
2461.60254	3217.9125
2464.36507	3211.4125
2467.12586	3208.3125
2469.88492	3199.6125
2472.64224	3181.6125
2475.39782	3184.6125
2478.15167	3195.4125
2480.90379	3191.9125
2483.65417	3182.5125
2486.40283	3188.1125
2489.14976	3177.2125
2491.89497	3176.0125
2494.63845	3182.6125
2497.3802	3165.1125
2500.12024	3159.7125
2502.85855	3171.7125
2505.59514	3166.5125
2508.33002	3143.2125
2511.06318	3151.1125
2513.79462	3145.0125
2516.52435	3147.8125
2519.25237	3129.2125
2521.97867	3130.0125
2524.70327	3140.7125
2527.42616	3119.7125
2530.14734	3112.1125
2532.86681	3099.2125
2535.58458	3114.2125
2538.30065	3093.0125
2541.01501	3088.9125
2543.72768	3088.4125
2546.43864	3072.2125
2549.14791	3071.1125
2551.85548	3068.8125
2554.56136	3061.4125
2557.26554	3058.4125
2559.96803	3038.4125
2562.66883	3042.9125
2565.36794	3034.8125
2568.06536	3033.4125
2570.7611	3034.3125
2573.45514	3012.8125
2576.14751	3016.5125
2578.83819	3006.4125
2581.52719	3009.6125
2584.21451	2989.0125
2586.90015	2984.0125
2589.58411	2994.1125
2592.2664	2976.1125
2594.94701	2981.5125
2597.62594	2960.2125
2600.30321	2948.0125
2602.9788	2961.1125
2605.65273	2949.5125
2608.32498	2933.9125
2610.99557	2926.9125
2613.66449	2924.6125
2616.33175	2920.1125
2618.99734	2920.1125
2621.66128	2925.7125
2624.32355	2909.1125
2626.98416	2908.2125
2629.64311	2902.0125
2632.30041	2900.1125
2634.95605	2893.4125
2637.61004	2897.0125
2640.26238	2892.7125
2642.91306	2880.1125
2645.56209	2874.2125
2648.20948	2875.3125
2650.85521	2875.0125
2653.4993	2879.5125
2656.14175	2875.0125
2658.78255	2871.6125
2661.42171	2868.7125
2664.05923	2866.7125
2666.6951	2873.6125
2669.32934	2864.8125
2671.96194	2857.2125
2674.59291	2856.2125
2677.22224	2855.1125
2679.84993	2865.8125
2682.476	2864.0125
2685.10043	2865.4125
2687.72324	2842.7125
2690.34441	2854.1125
2692.96396	2848.9125
2695.58188	2872.1125
2698.19818	2853.7125
2700.81285	2858.7125
2703.4259	2873.5125
2706.03733	2876.3125
2708.64714	2882.9125
2711.25533	2866.6125
2713.86191	2855.4125
2716.46687	2861.1125
2719.07021	2854.4125
2721.67194	2842.3125
2724.27206	2848.9125
2726.87057	2847.3125
2729.46747	2846.0125
2732.06276	2843.6125
2734.65644	2858.9125
2737.24852	2848.4125
2739.83899	2838.6125
2742.42786	2849.1125
2745.01513	2826.9125
2747.60079	2826.7125
2750.18486	2827.2125
2752.76733	2814.5125
2755.3482	2814.4125
2757.92747	2823.1125
2760.50515	2813.7125
2763.08123	2797.3125
2765.65573	2797.6125
2768.22863	2805.0125
2770.79994	2798.4125
2773.36967	2800.7125
2775.9378	2797.7125
2778.50435	2783.0125
2781.06932	2771.5125
2783.6327	2766.2125
2786.1945	2766.0125
2788.75471	2770.2125
2791.31335	2761.7125
2793.87041	2759.1125
2796.42589	2737.6125
2798.97979	2735.7125
2801.53212	2726.4125
2804.08288	2734.1125
2806.63206	2711.8125
2809.17967	2714.8125
2811.72571	2701.5125
2814.27018	2700.4125
2816.81308	2693.5125
2819.35442	2690.6125
2821.89419	2685.4125
2824.43239	2691.6125
2826.96904	2677.7125
2829.50412	2677.1125
2832.03763	2677.5125
2834.56959	2686.9125
2837.1	2673.0125
2839.62884	2672.9125
2842.15613	2667.0125
2844.68186	2671.7125
2847.20604	2664.4125
2849.72867	2679.8125
2852.24974	2671.4125
2854.76927	2670.4125
2857.28724	2662.4125
2859.80367	2658.6125
2862.31855	2651.8125
2864.83189	2655.2125
2867.34368	2648.1125
2869.85393	2655.4125
2872.36264	2647.2125
2874.8698	2657.7125
2877.37543	2666.4125
2879.87952	2650.1125
2882.38207	2650.1125
2884.88308	2649.0125
2887.38256	2662.5125
2889.88051	2655.2125
2892.37692	2646.5125
2894.8718	2639.2125
2897.36515	2662.0125
2899.85698	2642.0125
2902.34727	2653.4125
2904.83604	2652.6125
2907.32328	2649.9125
2909.809	2651.1125
2912.29319	2658.5125
2914.77587	2652.2125
2917.25702	2656.2125
2919.73665	2660.5125
2922.21476	2654.2125
2924.69136	2651.4125
2927.16644	2664.2125
2929.64	2652.5125
2932.11205	2653.2125
2934.58258	2662.4125
2937.05161	2646.7125
2939.51912	2659.7125
2941.98513	2646.1125
2944.44962	2647.1125
2946.91261	2639.6125
2949.37409	2647.6125
2951.83407	2650.6125
2954.29254	2647.8125
2956.74951	2655.2125
2959.20498	2625.8125
2961.65895	2630.4125
2964.11142	2630.6125
2966.56239	2623.9125
2969.01186	2619.4125
2971.45984	2602.1125
2973.90632	2603.4125
2976.35131	2602.0125
2978.7948	2599.1125
2981.23681	2595.0125
2983.67732	2596.9125
2986.11635	2598.4125
2988.55388	2585.7125
2990.98993	2580.7125
2993.4245	2583.4125
2995.85758	2581.5125
2998.28917	2561.9125
3000.71928	2563.9125
3003.14791	2570.8125
3005.57506	2567.7125
3008.00073	2555.8125
3010.42493	2563.6125
3012.84764	2558.7125
3015.26888	2562.3125
3017.68865	2559.8125
3020.10694	2562.8125
3022.52376	2560.2125
3024.9391	2552.3125
3027.35298	2549.5125
3029.76539	2560.7125
3032.17632	2558.6125
3034.5858	2558.2125
3036.9938	2556.6125
3039.40034	2554.2125
3041.80542	2553.7125
3044.20903	2553.2125
3046.61118	2552.0125
3049.01187	2546.4125
3051.4111	2547.8125
3053.80888	2536.8125
3056.20519	2556.8125
3058.60005	2542.5125
3060.99345	2548.0125
3063.3854	2541.6125
3065.7759	2547.5125
3068.16494	2532.9125
3070.55254	2533.3125
3072.93868	2537.4125
3075.32338	2534.4125
3077.70662	2539.8125
3080.08842	2541.3125
3082.46878	2551.2125
3084.84769	2537.5125
3087.22515	2550.7125
3089.60118	2548.9125
3091.97576	2544.7125
3094.3489	2565.0125
3096.72061	2568.2125
3099.09087	2579.5125
3101.4597	2583.1125
3103.82709	2576.0125
3106.19305	2569.4125
3108.55757	2572.1125
3110.92066	2571.8125
3113.28232	2587.1125
3115.64255	2580.3125
3118.00134	2568.7125
3120.35871	2569.4125
3122.71466	2572.9125
3125.06917	2582.7125
3127.42226	2563.3125
3129.77393	2595.8125
3132.12417	2588.5125
3134.47299	2607.1125
3136.82039	2605.7125
3139.16636	2616.1125
3141.51092	2611.0125
3143.85406	2627.8125
3146.19579	2632.4125
3148.53609	2639.5125
3150.87499	2635.6125
3153.21246	2656.7125
3155.54853	2654.4125
3157.88318	2672.6125
3160.21642	2668.7125
3162.54826	2678.0125
3164.87868	2676.4125
3167.2077	2689.9125
3169.5353	2685.8125
3171.86151	2693.9125
3174.18631	2699.7125
3176.5097	2696.9125
3178.83169	2692.6125
3181.15228	2695.7125
3183.47147	2712.1125
3185.78926	2703.1125
3188.10565	2717.4125
3190.42065	2715.8125
3192.73424	2722.4125
3195.04645	2724.9125
3197.35725	2730.1125
3199.66667	2724.4125
3201.97469	2735.9125
3204.28132	2745.0125
3206.58656	2744.3125
3208.8904	2740.1125
3211.19287	2762.1125
3213.49394	2751.0125
3215.79363	2762.7125
3218.09193	2758.3125
3220.38884	2770.1125
3222.68438	2768.7125
3224.97853	2763.3125
3227.2713	2766.2125
3229.56269	2760.5125
3231.8527	2761.5125
3234.14133	2741.3125
3236.42858	2746.0125
3238.71446	2731.8125
3240.99896	2744.5125
3243.28209	2753.1125
3245.56384	2744.0125
3247.84423	2738.1125
3250.12324	2737.2125
3252.40088	2743.6125
3254.67715	2746.7125
3256.95205	2739.6125
3259.22558	2738.8125
3261.49775	2729.1125
3263.76855	2731.7125
3266.03799	2734.1125
3268.30606	2726.8125
3270.57277	2715.9125
3272.83812	2714.3125
3275.10211	2709.9125
3277.36474	2704.9125
3279.62601	2713.9125
3281.88593	2706.5125
3284.14448	2709.7125
3286.40168	2704.8125
3288.65753	2700.7125
3290.91202	2701.5125
3293.16516	2668.7125
3295.41695	2674.6125
3297.66738	2670.7125
3299.91647	2656.8125
3302.16421	2654.0125
3304.4106	2622.3125
3306.65564	2619.3125
3308.89933	2608.7125
3311.14169	2592.5125
3313.38269	2582.1125
3315.62236	2559.3125
3317.86068	2544.4125
3320.09766	2517.8125
3322.3333	2498.1125
3324.5676	2498.9125
3326.80056	2468.7125
3329.03219	2444.0125
3331.26248	0.7125
3333.49143	0.0125
3335.71905	-0.0875
