Data from AgNPs_FTO_APTES_UA_0.1mM_CRN_200uM_NaF_0.1M_Addition_RamanShift__31__14-30-57-749.txt Node

Date: Mon Dec 20 14:30:57 GMT 2021
User: TCL
Spectrometer: QEP01345
Trigger mode: 4
Integration Time (sec): 7.000000E0
Scans to average: 10
Electric dark correction enabled: true
Nonlinearity correction enabled: false
Boxcar width: 0
XAxis mode: Raman Shifts
Number of Pixels in Spectrum: 1044
>>>>>Begin Spectral Data<<<<<
46.04893	0.4
50.45542	1.1
54.85868	-0.4
59.25871	-0.4
63.6555	27.2
68.04907	27.1
72.43941	28
76.82654	30.9
81.21044	31
85.59113	35.4
89.96862	32.4
94.34289	33.8
98.71396	34.3
103.08183	35.6
107.4465	39.1
111.80798	40.1
116.16626	40.1
120.52136	43.5
124.87327	43.3
129.222	41.7
133.56755	42.4
137.90993	47.5
142.24913	48
146.58517	52.3
150.91804	63
155.24774	71.1
159.57429	80.4
163.89768	101
168.21792	133.3
172.53501	165.3
176.84895	228.1
181.15975	308.3
185.46741	425.4
189.77193	585.2
194.07331	779.6
198.37157	1007
202.6667	1252.4
206.9587	1479.5
211.24758	1710.3
215.53334	1951.1
219.81599	2202.4
224.09553	2463.4
228.37195	2775.9
232.64527	3090.2
236.91549	3428
241.18261	3716.9
245.44663	3963.9
249.70755	4171.1
253.96539	4315.9
258.22014	4425.8
262.4718	4474.9
266.72039	4482.5
270.96589	4463.9
275.20832	4401
279.44768	4307.4
283.68397	4204.5
287.91719	4156.8
292.14735	4146.9
296.37445	4222.3
300.59849	4415
304.81948	4606.4
309.03742	4763.1
313.25231	4755.7
317.46415	4513.8
321.67296	4128.9
325.87872	3772.9
330.08145	3599.9
334.28114	3555.6
338.47781	3605.8
342.67145	3687.9
346.86207	3837.2
351.04966	4101.8
355.23424	4403
359.4158	4652.9
363.59435	4789.1
367.76989	4854.6
371.94243	4891.7
376.11196	4900.3
380.27849	4915.8
384.44203	4891.7
388.60257	4825.8
392.76012	4771.5
396.91468	4772.4
401.06626	4842
405.21485	4904.8
409.36047	4782.6
413.50311	4478.6
417.64277	4148.8
421.77947	3940.2
425.9132	3824.7
430.04396	3792.7
434.17176	3799.6
438.2966	3840.7
442.41849	3911
446.53742	4015.2
450.6534	4110.4
454.76644	4151.6
458.87653	4146
462.98368	4124.6
467.08789	4079.1
471.18916	4010.7
475.2875	3967
479.38291	3945.6
483.4754	3998
487.56496	4125.2
491.6516	4267.1
495.73531	4314.3
499.81612	4269.6
503.89401	4177.3
507.96899	4146.5
512.04106	4190
516.11023	4334.1
520.1765	4502.6
524.23987	4617.2
528.30034	4611.1
532.35792	4521
536.41261	4330.7
540.46441	4105.4
544.51333	3903.2
548.55936	3814.5
552.60252	3821.9
556.64279	3867.8
560.6802	3904.4
564.71473	3971.5
568.7464	4165.3
572.7752	4287.9
576.80114	4147.3
580.82422	3987.4
584.84444	3975.9
588.86181	4043.4
592.87633	4115.4
596.888	4138.3
600.89682	4231.2
604.9028	4737.1
608.90594	6171.4
612.90624	8238.5
616.90371	8411.8
620.89834	6479.2
624.89015	5804.5
628.87913	6170.8
632.86528	6692.8
636.84862	6964.8
640.82913	6732.5
644.80683	6024.9
648.78172	5294.6
652.75379	4814.8
656.72306	4640
660.68952	4644
664.65319	4436.4
668.61405	4143.4
672.57211	3996
676.52738	3979.4
680.47986	3984.7
684.42955	3963.1
688.37646	3915.3
692.32058	3900
696.26192	3886
700.20048	3886.2
704.13626	3885.8
708.06928	3832.2
711.99952	3784.1
715.927	3808.7
719.85171	3877.6
723.77365	3941.9
727.69284	3958.1
731.60928	3864.4
735.52295	3748.9
739.43388	3704.8
743.34206	3702.2
747.24749	3732.3
751.15017	3758.4
755.05012	3806.4
758.94733	3973.2
762.8418	4410.2
766.73354	5158.1
770.62254	5969.3
774.50882	6459.6
778.39237	6305.1
782.27321	5486.4
786.15132	4591.6
790.02671	4093
793.89938	3940.9
797.76935	3945.3
801.6366	4127.1
805.50115	4498.7
809.36299	4897.7
813.22213	5063.3
817.07857	4876.9
820.93231	4494.8
824.78336	4098.7
828.63172	3821.3
832.47738	3659.9
836.32036	3566.4
840.16066	3525.4
843.99827	3490.1
847.8332	3475.6
851.66546	3466.2
855.49504	3473.6
859.32195	3489.1
863.1462	3529
866.96777	3624.6
870.78668	3781.8
874.60293	4029.2
878.41652	4304.5
882.22745	4612.1
886.03573	4773
889.84136	4756.3
893.64433	4527
897.44466	4203.1
901.24235	3873.4
905.0374	3624.5
908.8298	3453.2
912.61957	3353.8
916.40671	3311.6
920.19121	3281.5
923.97308	3291.2
927.75233	3304.1
931.52895	3341.5
935.30295	3330.9
939.07433	3236.5
942.84309	3133.5
946.60924	3105.4
950.37278	3067
954.13371	3068.6
957.89203	3051.6
961.64774	3028.2
965.40086	3032.3
969.15137	3019.1
972.89929	3011.5
976.64461	2996
980.38733	3011
984.12747	3010.3
987.86502	3039.8
991.59999	3091.5
995.33237	3159.5
999.06217	3281.2
1002.78939	3459.1
1006.51404	3651.8
1010.23611	3849.3
1013.95561	3972.3
1017.67255	4003.6
1021.38692	3941
1025.09872	3753
1028.80796	3583.4
1032.51465	3425.3
1036.21877	3306.1
1039.92035	3274.5
1043.61937	3276.5
1047.31584	3283.5
1051.00976	3307.3
1054.70114	3335.1
1058.38998	3389.2
1062.07627	3473.3
1065.76003	3541.9
1069.44126	3603.4
1073.11995	3615.1
1076.79611	3642.1
1080.46974	3633.7
1084.14085	3646.7
1087.80943	3653.9
1091.47549	3647
1095.13903	3528.3
1098.80005	3408.1
1102.45857	3325.2
1106.11456	3329.4
1109.76805	3405.1
1113.41903	3581.3
1117.06751	3875.7
1120.71348	4286.5
1124.35696	4834.9
1127.99793	5470.2
1131.63641	5900.6
1135.2724	6003.1
1138.90589	5886.3
1142.5369	5581.3
1146.16542	5117.2
1149.79145	4589.3
1153.415	4157.9
1157.03607	3860.2
1160.65467	3692.1
1164.27079	3671.7
1167.88443	3765.9
1171.49561	4014.8
1175.10432	4492
1178.71056	5187.6
1182.31434	5837.8
1185.91565	6132
1189.51451	6144.7
1193.11091	6040.2
1196.70485	6034.5
1200.29634	6136
1203.88538	6131.2
1207.47197	5833.1
1211.05612	5399.8
1214.63782	4900.9
1218.21708	4465.6
1221.79391	4117.4
1225.36829	3878.1
1228.94024	3702.7
1232.50976	3610.1
1236.07685	3566.6
1239.6415	3561.9
1243.20374	3597.4
1246.76355	3638.6
1250.32093	3669
1253.8759	3727.1
1257.42845	3793.1
1260.97859	3869.5
1264.52631	3947.1
1268.07163	4060
1271.61453	4109.5
1275.15503	4123.9
1278.69312	4079.7
1282.22882	4064.6
1285.76211	4128.8
1289.29301	4272
1292.82151	4443.7
1296.34761	4639.4
1299.87133	4970.2
1303.39266	5502.2
1306.9116	6314.8
1310.42815	7131.7
1313.94233	7421.6
1317.45412	7081.5
1320.96354	6459.1
1324.47058	5909
1327.97525	5487.4
1331.47754	5265.1
1334.97747	5242.7
1338.47502	5376
1341.97022	5642.4
1345.46305	6078.6
1348.95352	6642.4
1352.44163	7347.3
1355.92738	8278.9
1359.41078	9593.1
1362.89183	10560.6
1366.37053	10086.8
1369.84688	8582.6
1373.32088	7158.3
1376.79254	6193.5
1380.26186	5623.1
1383.72883	5281.2
1387.19347	5019.8
1390.65578	4765.9
1394.11575	4582.6
1397.57339	4476.6
1401.0287	4396.1
1404.48168	4310.7
1407.93234	4227.9
1411.38068	4112.8
1414.82669	3996
1418.27039	3882.8
1421.71177	3776
1425.15083	3652
1428.58758	3586.5
1432.02203	3554.8
1435.45416	3545.8
1438.88399	3535.8
1442.31151	3523.9
1445.73673	3532.4
1449.15965	3537.2
1452.58027	3532.2
1455.9986	3511.2
1459.41463	3498.3
1462.82837	3540.6
1466.23982	3601
1469.64898	3687
1473.05586	3736.2
1476.46045	3761.2
1479.86276	3816.2
1483.26279	3945.2
1486.66054	4126.4
1490.05602	4332.3
1493.44922	4664.1
1496.84016	5160
1500.22882	5951.4
1503.61521	6995.7
1506.99934	8143.5
1510.38121	8918.3
1513.76081	8949.3
1517.13816	8084.6
1520.51324	6785.5
1523.88607	5701
1527.25665	5039.9
1530.62498	4714.7
1533.99105	4586.4
1537.35488	4556.7
1540.71647	4602.5
1544.07581	4673.2
1547.4329	4769.9
1550.78776	4845.6
1554.14038	4886.3
1557.49077	4909.5
1560.83892	4939
1564.18484	5048.5
1567.52853	5238.8
1570.86999	5453.2
1574.20922	5575.5
1577.54624	5554.8
1580.88103	5282.4
1584.2136	4868.6
1587.54395	4605.6
1590.87208	4566.9
1594.19801	4711.9
1597.52172	4964.8
1600.84321	5090
1604.16251	5004.2
1607.47959	4861.1
1610.79447	4693.9
1614.10715	4498.1
1617.41763	4340.2
1620.7259	4245.1
1624.03199	4209.7
1627.33587	4218.4
1630.63757	4267.4
1633.93707	4415.7
1637.23439	4666.4
1640.52951	5079.7
1643.82246	5716.4
1647.11321	6542.4
1650.40179	7166.2
1653.68819	7143.5
1656.97241	6416.9
1660.25446	5565.4
1663.53433	4877
1666.81203	4447.7
1670.08756	4105
1673.36092	3874.4
1676.63211	3695.9
1679.90115	3567.3
1683.16801	3450.3
1686.43272	3357.1
1689.69527	3260.5
1692.95567	3179.7
1696.2139	3099.8
1699.46999	3040.2
1702.72392	2951
1705.97571	2881.7
1709.22535	2813.4
1712.47284	2760.6
1715.71819	2719.9
1718.96139	2694.3
1722.20246	2649.5
1725.44139	2611.5
1728.67818	2575.8
1731.91284	2542.2
1735.14537	2492.1
1738.37576	2468.7
1741.60403	2438.4
1744.83017	2423
1748.05418	2416.1
1751.27607	2398.6
1754.49584	2373.3
1757.71349	2365.1
1760.92903	2336.4
1764.14244	2315.4
1767.35375	2310.4
1770.56294	2278.8
1773.77002	2270
1776.97499	2240.2
1780.17785	2209.4
1783.37861	2201.1
1786.57727	2178.9
1789.77382	2169
1792.96828	2157.7
1796.16064	2157.1
1799.3509	2151.8
1802.53907	2129.3
1805.72514	2133.8
1808.90913	2109
1812.09102	2106.9
1815.27083	2102.9
1818.44856	2089.3
1821.6242	2080.9
1824.79776	2071.2
1827.96924	2070.7
1831.13864	2066.6
1834.30597	2067.2
1837.47122	2065.9
1840.6344	2039.7
1843.7955	2048.4
1846.95454	2042.6
1850.11151	2050.2
1853.26642	2027.5
1856.41926	2038.7
1859.57004	2031.5
1862.71876	2032.4
1865.86542	2014.9
1869.01003	2007.1
1872.15258	2020.5
1875.29308	2014
1878.43152	1993.5
1881.56792	1994.6
1884.70227	1993.2
1887.83457	2002.1
1890.96482	1990.5
1894.09304	1982.2
1897.21921	1975.5
1900.34335	1980.6
1903.46544	1962.4
1906.58551	1973.5
1909.70353	1963.9
1912.81953	1965.9
1915.93349	1951.4
1919.04543	1950.6
1922.15534	1940.3
1925.26322	1944
1928.36908	1934.8
1931.47292	1931.9
1934.57473	1912.7
1937.67453	1913.9
1940.77232	1897.3
1943.86808	1902.8
1946.96184	1899.8
1950.05358	1879.8
1953.14331	1877.6
1956.23103	1877.2
1959.31675	1867.3
1962.40046	1860.5
1965.48217	1858.5
1968.56188	1852.3
1971.63959	1843.9
1974.7153	1834.7
1977.78901	1836.1
1980.86073	1829.7
1983.93046	1815.7
1986.99819	1814.7
1990.06394	1803.4
1993.1277	1797.4
1996.18947	1801.2
1999.24925	1789.8
2002.30706	1775.2
2005.36288	1770.2
2008.41672	1772.9
2011.46859	1765.4
2014.51848	1755.8
2017.56639	1751.8
2020.61233	1750.4
2023.6563	1739.1
2026.6983	1730.6
2029.73833	1729.3
2032.7764	1731.6
2035.8125	1726.7
2038.84664	1712.9
2041.87881	1723
2044.90903	1711.3
2047.93729	1711
2050.96359	1708.1
2053.98794	1697.3
2057.01034	1710.2
2060.03078	1706.1
2063.04927	1702.6
2066.06582	1690.8
2069.08042	1692.2
2072.09307	1679.9
2075.10378	1693.1
2078.11255	1690.1
2081.11938	1688.3
2084.12426	1679.1
2087.12722	1672.2
2090.12824	1686.3
2093.12732	1681.9
2096.12447	1677.3
2099.11969	1676.7
2102.11299	1680
2105.10435	1667.3
2108.09379	1671.4
2111.08131	1674.6
2114.0669	1670.4
2117.05057	1678.9
2120.03233	1684.4
2123.01216	1680.8
2125.99008	1678.2
2128.96609	1691.3
2131.94018	1687.2
2134.91236	1684.6
2137.88263	1674.3
2140.851	1687.9
2143.81746	1681.2
2146.78201	1676.5
2149.74466	1679.4
2152.7054	1671.9
2155.66425	1671.4
2158.6212	1675.3
2161.57625	1674.6
2164.52941	1674.6
2167.48067	1662.5
2170.43004	1670.9
2173.37752	1667
2176.32311	1655.3
2179.26681	1665.7
2182.20863	1658
2185.14856	1657.8
2188.08661	1652.3
2191.02278	1656.2
2193.95707	1648.4
2196.88948	1644.7
2199.82001	1633.7
2202.74867	1634.2
2205.67545	1633.2
2208.60037	1629.8
2211.52341	1632.6
2214.44458	1619.7
2217.36388	1632
2220.28132	1620.4
2223.1969	1603.6
2226.11061	1608.1
2229.02246	1598.9
2231.93245	1607.9
2234.84058	1605.3
2237.74686	1598.6
2240.65128	1595.1
2243.55385	1588
2246.45456	1591.3
2249.35343	1592.2
2252.25044	1578.1
2255.14561	1586.1
2258.03893	1598.6
2260.93041	1597.7
2263.82004	1588.7
2266.70783	1579.5
2269.59378	1577.4
2272.4779	1572.7
2275.36017	1579.3
2278.24061	1561
2281.11922	1561.8
2283.996	1556
2286.87094	1550.8
2289.74405	1547.4
2292.61534	1541.9
2295.4848	1534.6
2298.35243	1533.8
2301.21824	1525.7
2304.08223	1532.9
2306.94439	1522.7
2309.80474	1524.8
2312.66327	1516.9
2315.51999	1517.9
2318.37489	1513.3
2321.22797	1513.7
2324.07925	1511.2
2326.92871	1515.2
2329.77637	1504.5
2332.62222	1498.4
2335.46626	1498.1
2338.3085	1504.5
2341.14893	1499.5
2343.98756	1494.1
2346.8244	1490.2
2349.65943	1496.9
2352.49267	1494
2355.32411	1493.7
2358.15376	1502.4
2360.98161	1498.4
2363.80768	1500.4
2366.63195	1501
2369.45444	1506.4
2372.27514	1508.9
2375.09405	1506.1
2377.91118	1491.7
2380.72652	1505.2
2383.54009	1498.3
2386.35187	1493.5
2389.16188	1474.4
2391.97011	1478.3
2394.77657	1474.9
2397.58125	1460.1
2400.38416	1459.1
2403.18529	1460.7
2405.98466	1455.8
2408.78226	1461.6
2411.57809	1446.8
2414.37216	1442.3
2417.16446	1442.7
2419.955	1433
2422.74378	1429.2
2425.5308	1425.6
2428.31606	1428.7
2431.09956	1427.5
2433.88131	1418.6
2436.6613	1423.1
2439.43954	1416.6
2442.21603	1414.7
2444.99077	1420.7
2447.76377	1414.8
2450.53501	1416
2453.30451	1425.5
2456.07226	1414.1
2458.83827	1410.6
2461.60254	1412.1
2464.36507	1409.4
2467.12586	1404.5
2469.88492	1409.8
2472.64224	1404.2
2475.39782	1402.4
2478.15167	1410.9
2480.90379	1418
2483.65417	1416.2
2486.40283	1411.8
2489.14976	1411.2
2491.89497	1417
2494.63845	1425.7
2497.3802	1419.6
2500.12024	1406.2
2502.85855	1403
2505.59514	1406.6
2508.33002	1395.5
2511.06318	1385
2513.79462	1376.1
2516.52435	1373.3
2519.25237	1377.6
2521.97867	1374.8
2524.70327	1353.8
2527.42616	1350.6
2530.14734	1352.5
2532.86681	1340.3
2535.58458	1354
2538.30065	1352.6
2541.01501	1348.9
2543.72768	1345.1
2546.43864	1333.9
2549.14791	1342.5
2551.85548	1344.6
2554.56136	1341.9
2557.26554	1328.7
2559.96803	1327.7
2562.66883	1330.4
2565.36794	1317.4
2568.06536	1333.7
2570.7611	1325
2573.45514	1318.3
2576.14751	1309.1
2578.83819	1309.7
2581.52719	1313.3
2584.21451	1299.3
2586.90015	1299
2589.58411	1295.7
2592.2664	1293
2594.94701	1285.2
2597.62594	1288.7
2600.30321	1290.3
2602.9788	1288.5
2605.65273	1284.3
2608.32498	1278.7
2610.99557	1280.2
2613.66449	1272.8
2616.33175	1274.7
2618.99734	1279.4
2621.66128	1273.3
2624.32355	1268.5
2626.98416	1266
2629.64311	1264.3
2632.30041	1259.3
2634.95605	1264.4
2637.61004	1265.1
2640.26238	1248.6
2642.91306	1257.6
2645.56209	1248.7
2648.20948	1251
2650.85521	1239.2
2653.4993	1251
2656.14175	1247.3
2658.78255	1243.9
2661.42171	1246.8
2664.05923	1254.2
2666.6951	1249.8
2669.32934	1255.7
2671.96194	1247.9
2674.59291	1245.9
2677.22224	1255.1
2679.84993	1254.2
2682.476	1253.5
2685.10043	1251.4
2687.72324	1262.2
2690.34441	1250.7
2692.96396	1263.7
2695.58188	1264.6
2698.19818	1253.7
2700.81285	1258.4
2703.4259	1268.2
2706.03733	1302.8
2708.64714	1283.1
2711.25533	1264.1
2713.86191	1269
2716.46687	1269.1
2719.07021	1271.7
2721.67194	1273.6
2724.27206	1264.4
2726.87057	1273.1
2729.46747	1258.8
2732.06276	1257.8
2734.65644	1259.1
2737.24852	1252.7
2739.83899	1262.9
2742.42786	1252.3
2745.01513	1244.6
2747.60079	1253.9
2750.18486	1243.5
2752.76733	1240.2
2755.3482	1246.9
2757.92747	1241.7
2760.50515	1233.1
2763.08123	1229.2
2765.65573	1232.6
2768.22863	1233.7
2770.79994	1241.3
2773.36967	1229
2775.9378	1234.3
2778.50435	1230.5
2781.06932	1235.6
2783.6327	1228.2
2786.1945	1231.4
2788.75471	1227.5
2791.31335	1228.4
2793.87041	1234.4
2796.42589	1229.2
2798.97979	1234.2
2801.53212	1220.8
2804.08288	1233
2806.63206	1226.9
2809.17967	1225.4
2811.72571	1228.7
2814.27018	1224.4
2816.81308	1222.2
2819.35442	1226.2
2821.89419	1230.1
2824.43239	1235.5
2826.96904	1229.8
2829.50412	1234.8
2832.03763	1237
2834.56959	1237.6
2837.1	1237
2839.62884	1241.6
2842.15613	1243.3
2844.68186	1250.5
2847.20604	1253.8
2849.72867	1264.8
2852.24974	1262.9
2854.76927	1270.5
2857.28724	1283.8
2859.80367	1273.6
2862.31855	1274.3
2864.83189	1276.6
2867.34368	1270.8
2869.85393	1267.8
2872.36264	1277.2
2874.8698	1277.1
2877.37543	1278.5
2879.87952	1278.4
2882.38207	1277.8
2884.88308	1278
2887.38256	1274.7
2889.88051	1272.6
2892.37692	1285.7
2894.8718	1280.6
2897.36515	1279.8
2899.85698	1282
2902.34727	1289.3
2904.83604	1281.8
2907.32328	1295.3
2909.809	1295.1
2912.29319	1296.7
2914.77587	1301.6
2917.25702	1298.2
2919.73665	1300
2922.21476	1304
2924.69136	1294.4
2927.16644	1298.8
2929.64	1294.8
2932.11205	1291.9
2934.58258	1284.6
2937.05161	1290.7
2939.51912	1278.6
2941.98513	1275.3
2944.44962	1271.8
2946.91261	1269.4
2949.37409	1278.1
2951.83407	1266.9
2954.29254	1258.9
2956.74951	1260.1
2959.20498	1255.8
2961.65895	1248.5
2964.11142	1253
2966.56239	1243.9
2969.01186	1242.7
2971.45984	1239.2
2973.90632	1230.8
2976.35131	1221.8
2978.7948	1230.5
2981.23681	1225.8
2983.67732	1216.4
2986.11635	1219.8
2988.55388	1214.9
2990.98993	1217
2993.4245	1219.7
2995.85758	1209.7
2998.28917	1215.9
3000.71928	1219.3
3003.14791	1213.8
3005.57506	1214.7
3008.00073	1220.6
3010.42493	1225.6
3012.84764	1231.4
3015.26888	1228.7
3017.68865	1218.7
3020.10694	1230.8
3022.52376	1230.1
3024.9391	1235
3027.35298	1226.9
3029.76539	1234.8
3032.17632	1234.1
3034.5858	1229
3036.9938	1228.7
3039.40034	1239
3041.80542	1237.1
3044.20903	1230.3
3046.61118	1245
3049.01187	1233.7
3051.4111	1243.2
3053.80888	1241
3056.20519	1256.3
3058.60005	1241.8
3060.99345	1257.4
3063.3854	1248.8
3065.7759	1251
3068.16494	1260.1
3070.55254	1251.3
3072.93868	1263
3075.32338	1258.9
3077.70662	1264.4
3080.08842	1264.8
3082.46878	1273.3
3084.84769	1268.4
3087.22515	1269.8
3089.60118	1281.9
3091.97576	1286.3
3094.3489	1290.9
3096.72061	1289.2
3099.09087	1299.8
3101.4597	1307.8
3103.82709	1306.3
3106.19305	1318
3108.55757	1320.7
3110.92066	1313.9
3113.28232	1321.3
3115.64255	1331
3118.00134	1335.5
3120.35871	1338.7
3122.71466	1341.5
3125.06917	1352.7
3127.42226	1346.6
3129.77393	1361.3
3132.12417	1381.8
3134.47299	1375.9
3136.82039	1379.1
3139.16636	1391.5
3141.51092	1395.9
3143.85406	1415
3146.19579	1416.9
3148.53609	1424.5
3150.87499	1435
3153.21246	1449.9
3155.54853	1465.3
3157.88318	1462.3
3160.21642	1466.5
3162.54826	1485.7
3164.87868	1478.9
3167.2077	1498.8
3169.5353	1507.1
3171.86151	1506.4
3174.18631	1520.4
3176.5097	1513.9
3178.83169	1522.8
3181.15228	1528.4
3183.47147	1537.1
3185.78926	1549.6
3188.10565	1552.4
3190.42065	1560.1
3192.73424	1567.2
3195.04645	1579.9
3197.35725	1582.2
3199.66667	1591.4
3201.97469	1587.3
3204.28132	1603.6
3206.58656	1603
3208.8904	1614.9
3211.19287	1629.4
3213.49394	1624.9
3215.79363	1636.1
3218.09193	1637.6
3220.38884	1651
3222.68438	1647.8
3224.97853	1646.6
3227.2713	1657.3
3229.56269	1652.2
3231.8527	1665.9
3234.14133	1656.7
3236.42858	1656.3
3238.71446	1653.2
3240.99896	1655.1
3243.28209	1657.7
3245.56384	1660.8
3247.84423	1663.8
3250.12324	1657.8
3252.40088	1659.6
3254.67715	1670
3256.95205	1658.3
3259.22558	1674.2
3261.49775	1671
3263.76855	1665.7
3266.03799	1664.7
3268.30606	1661.9
3270.57277	1661.9
3272.83812	1660.9
3275.10211	1657.3
3277.36474	1664.9
3279.62601	1669.6
3281.88593	1655.7
3284.14448	1665.1
3286.40168	1662.8
3288.65753	1668.4
3290.91202	1665.3
3293.16516	1658
3295.41695	1645.9
3297.66738	1638.4
3299.91647	1637.6
3302.16421	1626.7
3304.4106	1622.8
3306.65564	1620.3
3308.89933	1613.3
3311.14169	1601.8
3313.38269	1596.3
3315.62236	1586.3
3317.86068	1565.6
3320.09766	1556.3
3322.3333	1548.7
3324.5676	1540.7
3326.80056	1529.5
3329.03219	1514.6
3331.26248	0.6
3333.49143	1.2
3335.71905	-1.4
