Data from AgNPs_FTO_APTES_UA_0.1mM_CRN_100uM_NaF_0.1M_Addition_RamanShift__12__13-30-17-681.txt Node

Date: Mon Dec 20 13:30:17 GMT 2021
User: TCL
Spectrometer: QEP01345
Trigger mode: 4
Integration Time (sec): 7.000000E0
Scans to average: 10
Electric dark correction enabled: true
Nonlinearity correction enabled: false
Boxcar width: 0
XAxis mode: Raman Shifts
Number of Pixels in Spectrum: 1044
>>>>>Begin Spectral Data<<<<<
46.04893	-0.4125
50.45542	-0.0125
54.85868	-0.8125
59.25871	-0.0125
63.6555	30.4875
68.04907	28.8875
72.43941	35.5875
76.82654	33.5875
81.21044	33.3875
85.59113	41.4875
89.96862	36.3875
94.34289	36.6875
98.71396	36.5875
103.08183	37.3875
107.4465	40.8875
111.80798	43.6875
116.16626	42.0875
120.52136	44.3875
124.87327	47.9875
129.222	46.7875
133.56755	51.1875
137.90993	53.6875
142.24913	59.1875
146.58517	62.6875
150.91804	72.8875
155.24774	86.3875
159.57429	100.5875
163.89768	134.9875
168.21792	175.7875
172.53501	228.6875
176.84895	319.4875
181.15975	454.4875
185.46741	646.2875
189.77193	883.3875
194.07331	1182.7875
198.37157	1545.3875
202.6667	1919.5875
206.9587	2292.9875
211.24758	2663.6875
215.53334	3043.5875
219.81599	3427.6875
224.09553	3838.5875
228.37195	4318.2875
232.64527	4878.2875
236.91549	5436.0875
241.18261	6024.2875
245.44663	6534.5875
249.70755	7029.4875
253.96539	7393.0875
258.22014	7616.0875
262.4718	7739.1875
266.72039	7679.3875
270.96589	7541.6875
275.20832	7300.4875
279.44768	7038.3875
283.68397	6753.8875
287.91719	6485.8875
292.14735	6265.6875
296.37445	6074.3875
300.59849	5957.7875
304.81948	5873.3875
309.03742	5797.8875
313.25231	5728.1875
317.46415	5661.9875
321.67296	5593.6875
325.87872	5544.2875
330.08145	5502.1875
334.28114	5497.8875
338.47781	5494.0875
342.67145	5504.7875
346.86207	5557.5875
351.04966	5592.5875
355.23424	5642.5875
359.4158	5672.4875
363.59435	5729.4875
367.76989	5793.3875
371.94243	5829.4875
376.11196	5876.6875
380.27849	5910.7875
384.44203	5935.4875
388.60257	6044.3875
392.76012	6114.7875
396.91468	6243.7875
401.06626	6410.5875
405.21485	6552.9875
409.36047	6623.2875
413.50311	6621.5875
417.64277	6565.5875
421.77947	6517.7875
425.9132	6468.7875
430.04396	6434.1875
434.17176	6434.6875
438.2966	6440.2875
442.41849	6433.7875
446.53742	6442.3875
450.6534	6471.4875
454.76644	6521.5875
458.87653	6535.7875
462.98368	6554.3875
467.08789	6572.3875
471.18916	6583.2875
475.2875	6617.1875
479.38291	6645.4875
483.4754	6728.6875
487.56496	6792.5875
491.6516	6884.9875
495.73531	6933.1875
499.81612	6999.4875
503.89401	7064.4875
507.96899	7081.0875
512.04106	7073.8875
516.11023	7008.5875
520.1765	6906.0875
524.23987	6815.1875
528.30034	6731.5875
532.35792	6667.1875
536.41261	6624.9875
540.46441	6604.5875
544.51333	6573.3875
548.55936	6576.0875
552.60252	6628.4875
556.64279	6633.9875
560.6802	6676.7875
564.71473	6694.2875
568.7464	6715.0875
572.7752	6736.3875
576.80114	6761.9875
580.82422	6773.9875
584.84444	6811.5875
588.86181	6842.8875
592.87633	6886.2875
596.888	6913.3875
600.89682	6993.0875
604.9028	7119.0875
608.90594	7363.2875
612.90624	7653.4875
616.90371	7620.9875
620.89834	7309.6875
624.89015	7151.0875
628.87913	7143.6875
632.86528	7222.7875
636.84862	7302.6875
640.82913	7374.4875
644.80683	7384.7875
648.78172	7336.2875
652.75379	7332.2875
656.72306	7301.6875
660.68952	7373.6875
664.65319	7386.6875
668.61405	7488.6875
672.57211	7578.9875
676.52738	7633.2875
680.47986	7692.4875
684.42955	7697.7875
688.37646	7692.7875
692.32058	7699.7875
696.26192	7671.3875
700.20048	7607.9875
704.13626	7494.1875
708.06928	7367.5875
711.99952	7189.0875
715.927	7083.2875
719.85171	6980.0875
723.77365	6914.2875
727.69284	6891.2875
731.60928	6880.3875
735.52295	6864.4875
739.43388	6895.5875
743.34206	6915.0875
747.24749	6992.3875
751.15017	7082.2875
755.05012	7141.5875
758.94733	7211.0875
762.8418	7289.3875
766.73354	7385.1875
770.62254	7451.5875
774.50882	7489.6875
778.39237	7390.1875
782.27321	7238.5875
786.15132	7073.2875
790.02671	6952.7875
793.89938	6911.2875
797.76935	6895.0875
801.6366	6967.9875
805.50115	7039.5875
809.36299	7085.1875
813.22213	7101.9875
817.07857	7051.8875
820.93231	6940.9875
824.78336	6833.8875
828.63172	6740.8875
832.47738	6662.8875
836.32036	6643.2875
840.16066	6596.8875
843.99827	6623.7875
847.8332	6632.7875
851.66546	6603.7875
855.49504	6615.7875
859.32195	6612.3875
863.1462	6638.4875
866.96777	6632.4875
870.78668	6642.6875
874.60293	6656.0875
878.41652	6692.6875
882.22745	6735.6875
886.03573	6784.8875
889.84136	6806.9875
893.64433	6821.0875
897.44466	6815.5875
901.24235	6789.7875
905.0374	6756.6875
908.8298	6751.9875
912.61957	6698.1875
916.40671	6689.6875
920.19121	6672.5875
923.97308	6652.1875
927.75233	6611.5875
931.52895	6600.9875
935.30295	6582.2875
939.07433	6522.8875
942.84309	6508.7875
946.60924	6502.5875
950.37278	6505.2875
954.13371	6474.3875
957.89203	6487.8875
961.64774	6472.1875
965.40086	6484.6875
969.15137	6477.1875
972.89929	6452.5875
976.64461	6443.3875
980.38733	6446.2875
984.12747	6436.0875
987.86502	6437.6875
991.59999	6462.9875
995.33237	6467.4875
999.06217	6498.5875
1002.78939	6531.2875
1006.51404	6531.2875
1010.23611	6574.4875
1013.95561	6606.3875
1017.67255	6605.8875
1021.38692	6637.1875
1025.09872	6647.5875
1028.80796	6624.9875
1032.51465	6604.3875
1036.21877	6611.8875
1039.92035	6610.8875
1043.61937	6628.9875
1047.31584	6632.5875
1051.00976	6640.4875
1054.70114	6658.5875
1058.38998	6675.1875
1062.07627	6687.4875
1065.76003	6717.6875
1069.44126	6705.7875
1073.11995	6715.5875
1076.79611	6726.0875
1080.46974	6719.9875
1084.14085	6700.4875
1087.80943	6680.5875
1091.47549	6669.6875
1095.13903	6635.3875
1098.80005	6625.6875
1102.45857	6635.6875
1106.11456	6637.7875
1109.76805	6650.1875
1113.41903	6694.6875
1117.06751	6761.2875
1120.71348	6855.0875
1124.35696	6989.3875
1127.99793	7117.1875
1131.63641	7252.4875
1135.2724	7313.7875
1138.90589	7342.3875
1142.5369	7318.5875
1146.16542	7245.6875
1149.79145	7169.7875
1153.415	7058.9875
1157.03607	6920.5875
1160.65467	6866.6875
1164.27079	6814.7875
1167.88443	6786.6875
1171.49561	6835.8875
1175.10432	6908.9875
1178.71056	7046.6875
1182.31434	7156.8875
1185.91565	7219.9875
1189.51451	7259.1875
1193.11091	7275.1875
1196.70485	7260.1875
1200.29634	7243.6875
1203.88538	7231.9875
1207.47197	7244.9875
1211.05612	7245.5875
1214.63782	7284.3875
1218.21708	7286.5875
1221.79391	7293.2875
1225.36829	7275.8875
1228.94024	7227.4875
1232.50976	7185.6875
1236.07685	7132.2875
1239.6415	7094.4875
1243.20374	7088.3875
1246.76355	7089.6875
1250.32093	7123.7875
1253.8759	7153.7875
1257.42845	7228.8875
1260.97859	7271.9875
1264.52631	7279.1875
1268.07163	7305.8875
1271.61453	7298.9875
1275.15503	7290.4875
1278.69312	7240.4875
1282.22882	7247.9875
1285.76211	7240.5875
1289.29301	7253.4875
1292.82151	7286.3875
1296.34761	7388.7875
1299.87133	7462.8875
1303.39266	7585.2875
1306.9116	7735.6875
1310.42815	7874.6875
1313.94233	7972.7875
1317.45412	8038.2875
1320.96354	8042.2875
1324.47058	8037.4875
1327.97525	8000.7875
1331.47754	8016.3875
1334.97747	8018.0875
1338.47502	8057.3875
1341.97022	8150.0875
1345.46305	8251.5875
1348.95352	8358.3875
1352.44163	8466.8875
1355.92738	8544.1875
1359.41078	8669.3875
1362.89183	8774.2875
1366.37053	8713.8875
1369.84688	8483.9875
1373.32088	8204.3875
1376.79254	7989.7875
1380.26186	7859.1875
1383.72883	7769.1875
1387.19347	7706.3875
1390.65578	7621.7875
1394.11575	7547.9875
1397.57339	7485.1875
1401.0287	7415.3875
1404.48168	7367.7875
1407.93234	7306.9875
1411.38068	7263.4875
1414.82669	7173.3875
1418.27039	7096.9875
1421.71177	7026.5875
1425.15083	6938.8875
1428.58758	6868.1875
1432.02203	6787.6875
1435.45416	6757.3875
1438.88399	6750.1875
1442.31151	6705.5875
1445.73673	6695.8875
1449.15965	6670.3875
1452.58027	6687.1875
1455.9986	6687.8875
1459.41463	6708.6875
1462.82837	6741.6875
1466.23982	6783.1875
1469.64898	6844.4875
1473.05586	6889.6875
1476.46045	6928.7875
1479.86276	6942.7875
1483.26279	6967.5875
1486.66054	6975.0875
1490.05602	7006.6875
1493.44922	7063.4875
1496.84016	7135.9875
1500.22882	7251.1875
1503.61521	7390.2875
1506.99934	7589.9875
1510.38121	7693.6875
1513.76081	7751.4875
1517.13816	7675.9875
1520.51324	7560.0875
1523.88607	7415.0875
1527.25665	7380.1875
1530.62498	7359.2875
1533.99105	7383.1875
1537.35488	7400.5875
1540.71647	7439.9875
1544.07581	7503.6875
1547.4329	7556.8875
1550.78776	7657.1875
1554.14038	7701.0875
1557.49077	7757.4875
1560.83892	7812.2875
1564.18484	7873.1875
1567.52853	7934.6875
1570.86999	7989.2875
1574.20922	8022.5875
1577.54624	8047.2875
1580.88103	8000.1875
1584.2136	7999.7875
1587.54395	7977.9875
1590.87208	7940.1875
1594.19801	7948.1875
1597.52172	7980.5875
1600.84321	7965.9875
1604.16251	7896.5875
1607.47959	7810.0875
1610.79447	7687.9875
1614.10715	7587.4875
1617.41763	7485.7875
1620.7259	7377.0875
1624.03199	7317.7875
1627.33587	7279.1875
1630.63757	7250.0875
1633.93707	7276.5875
1637.23439	7308.7875
1640.52951	7402.5875
1643.82246	7501.7875
1647.11321	7650.1875
1650.40179	7734.4875
1653.68819	7725.9875
1656.97241	7557.5875
1660.25446	7347.2875
1663.53433	7180.3875
1666.81203	7051.9875
1670.08756	6901.7875
1673.36092	6824.6875
1676.63211	6750.1875
1679.90115	6675.1875
1683.16801	6602.4875
1686.43272	6511.0875
1689.69527	6406.8875
1692.95567	6318.5875
1696.2139	6251.3875
1699.46999	6178.0875
1702.72392	6122.9875
1705.97571	6060.6875
1709.22535	6030.0875
1712.47284	5981.1875
1715.71819	5965.4875
1718.96139	5912.1875
1722.20246	5880.2875
1725.44139	5816.9875
1728.67818	5753.4875
1731.91284	5706.0875
1735.14537	5643.0875
1738.37576	5604.0875
1741.60403	5559.2875
1744.83017	5539.4875
1748.05418	5505.0875
1751.27607	5489.6875
1754.49584	5474.9875
1757.71349	5463.4875
1760.92903	5454.2875
1764.14244	5439.0875
1767.35375	5411.0875
1770.56294	5376.0875
1773.77002	5327.8875
1776.97499	5300.1875
1780.17785	5256.1875
1783.37861	5223.7875
1786.57727	5215.1875
1789.77382	5172.0875
1792.96828	5138.8875
1796.16064	5112.6875
1799.3509	5095.2875
1802.53907	5073.7875
1805.72514	5039.0875
1808.90913	5009.5875
1812.09102	5009.6875
1815.27083	4990.8875
1818.44856	4972.7875
1821.6242	4953.6875
1824.79776	4939.9875
1827.96924	4944.2875
1831.13864	4915.5875
1834.30597	4914.0875
1837.47122	4898.8875
1840.6344	4908.2875
1843.7955	4880.8875
1846.95454	4873.4875
1850.11151	4883.0875
1853.26642	4848.7875
1856.41926	4848.0875
1859.57004	4854.7875
1862.71876	4845.8875
1865.86542	4835.2875
1869.01003	4811.3875
1872.15258	4807.7875
1875.29308	4811.5875
1878.43152	4788.3875
1881.56792	4777.1875
1884.70227	4757.7875
1887.83457	4763.6875
1890.96482	4748.6875
1894.09304	4728.8875
1897.21921	4717.8875
1900.34335	4718.0875
1903.46544	4708.1875
1906.58551	4713.7875
1909.70353	4711.2875
1912.81953	4695.3875
1915.93349	4685.9875
1919.04543	4658.6875
1922.15534	4661.7875
1925.26322	4637.8875
1928.36908	4626.9875
1931.47292	4634.2875
1934.57473	4615.4875
1937.67453	4598.5875
1940.77232	4590.1875
1943.86808	4571.2875
1946.96184	4557.7875
1950.05358	4525.3875
1953.14331	4526.6875
1956.23103	4500.5875
1959.31675	4504.0875
1962.40046	4487.5875
1965.48217	4459.4875
1968.56188	4454.2875
1971.63959	4434.1875
1974.7153	4416.4875
1977.78901	4410.9875
1980.86073	4390.8875
1983.93046	4385.8875
1986.99819	4360.8875
1990.06394	4341.5875
1993.1277	4343.1875
1996.18947	4335.8875
1999.24925	4324.9875
2002.30706	4307.8875
2005.36288	4294.0875
2008.41672	4269.1875
2011.46859	4262.8875
2014.51848	4243.9875
2017.56639	4217.3875
2020.61233	4223.2875
2023.6563	4204.8875
2026.6983	4187.4875
2029.73833	4173.1875
2032.7764	4164.0875
2035.8125	4153.3875
2038.84664	4139.7875
2041.87881	4127.7875
2044.90903	4128.7875
2047.93729	4105.4875
2050.96359	4114.3875
2053.98794	4094.5875
2057.01034	4089.8875
2060.03078	4080.0875
2063.04927	4065.8875
2066.06582	4082.6875
2069.08042	4055.4875
2072.09307	4075.9875
2075.10378	4073.4875
2078.11255	4042.9875
2081.11938	4058.6875
2084.12426	4072.1875
2087.12722	4047.0875
2090.12824	4041.8875
2093.12732	4045.9875
2096.12447	4047.7875
2099.11969	4045.4875
2102.11299	4055.8875
2105.10435	4048.6875
2108.09379	4030.5875
2111.08131	4045.5875
2114.0669	4041.6875
2117.05057	4067.0875
2120.03233	4051.7875
2123.01216	4065.3875
2125.99008	4051.3875
2128.96609	4049.4875
2131.94018	4050.4875
2134.91236	4059.1875
2137.88263	4054.1875
2140.851	4057.7875
2143.81746	4053.9875
2146.78201	4040.8875
2149.74466	4063.8875
2152.7054	4043.8875
2155.66425	4060.7875
2158.6212	4058.8875
2161.57625	4052.7875
2164.52941	4039.7875
2167.48067	4045.8875
2170.43004	4033.7875
2173.37752	4037.1875
2176.32311	4028.9875
2179.26681	4018.3875
2182.20863	4027.4875
2185.14856	4024.1875
2188.08661	4010.0875
2191.02278	4035.5875
2193.95707	4006.4875
2196.88948	4002.9875
2199.82001	3998.6875
2202.74867	3983.6875
2205.67545	3982.7875
2208.60037	3976.7875
2211.52341	3963.9875
2214.44458	3973.4875
2217.36388	3954.0875
2220.28132	3948.3875
2223.1969	3925.9875
2226.11061	3902.7875
2229.02246	3918.8875
2231.93245	3876.5875
2234.84058	3880.7875
2237.74686	3874.9875
2240.65128	3866.3875
2243.55385	3855.0875
2246.45456	3861.9875
2249.35343	3861.9875
2252.25044	3827.2875
2255.14561	3837.0875
2258.03893	3841.2875
2260.93041	3817.9875
2263.82004	3803.3875
2266.70783	3799.2875
2269.59378	3796.8875
2272.4779	3782.9875
2275.36017	3767.0875
2278.24061	3765.6875
2281.11922	3761.4875
2283.996	3740.1875
2286.87094	3732.6875
2289.74405	3731.7875
2292.61534	3723.2875
2295.4848	3717.8875
2298.35243	3712.1875
2301.21824	3697.9875
2304.08223	3700.0875
2306.94439	3680.1875
2309.80474	3690.8875
2312.66327	3682.0875
2315.51999	3677.0875
2318.37489	3671.4875
2321.22797	3669.0875
2324.07925	3660.9875
2326.92871	3659.7875
2329.77637	3632.0875
2332.62222	3635.9875
2335.46626	3627.9875
2338.3085	3618.9875
2341.14893	3605.0875
2343.98756	3591.5875
2346.8244	3587.6875
2349.65943	3597.3875
2352.49267	3597.9875
2355.32411	3590.5875
2358.15376	3577.6875
2360.98161	3568.3875
2363.80768	3562.2875
2366.63195	3571.3875
2369.45444	3576.2875
2372.27514	3560.2875
2375.09405	3551.3875
2377.91118	3547.2875
2380.72652	3530.4875
2383.54009	3530.1875
2386.35187	3516.2875
2389.16188	3513.0875
2391.97011	3491.0875
2394.77657	3474.7875
2397.58125	3472.2875
2400.38416	3473.6875
2403.18529	3472.9875
2405.98466	3461.3875
2408.78226	3460.1875
2411.57809	3454.4875
2414.37216	3443.2875
2417.16446	3441.4875
2419.955	3430.7875
2422.74378	3434.6875
2425.5308	3418.5875
2428.31606	3430.2875
2431.09956	3413.6875
2433.88131	3397.5875
2436.6613	3410.0875
2439.43954	3401.5875
2442.21603	3399.6875
2444.99077	3387.5875
2447.76377	3395.1875
2450.53501	3383.6875
2453.30451	3383.9875
2456.07226	3378.3875
2458.83827	3356.9875
2461.60254	3355.1875
2464.36507	3345.4875
2467.12586	3340.6875
2469.88492	3350.6875
2472.64224	3329.9875
2475.39782	3338.0875
2478.15167	3354.0875
2480.90379	3339.3875
2483.65417	3323.1875
2486.40283	3319.1875
2489.14976	3308.1875
2491.89497	3319.4875
2494.63845	3312.5875
2497.3802	3304.0875
2500.12024	3309.1875
2502.85855	3297.4875
2505.59514	3287.3875
2508.33002	3270.3875
2511.06318	3282.5875
2513.79462	3277.1875
2516.52435	3259.9875
2519.25237	3272.8875
2521.97867	3252.0875
2524.70327	3245.9875
2527.42616	3247.3875
2530.14734	3230.5875
2532.86681	3228.0875
2535.58458	3229.6875
2538.30065	3214.5875
2541.01501	3221.5875
2543.72768	3211.9875
2546.43864	3197.5875
2549.14791	3192.2875
2551.85548	3183.0875
2554.56136	3178.9875
2557.26554	3171.0875
2559.96803	3149.3875
2562.66883	3152.0875
2565.36794	3143.7875
2568.06536	3139.3875
2570.7611	3144.2875
2573.45514	3133.7875
2576.14751	3124.3875
2578.83819	3113.1875
2581.52719	3122.6875
2584.21451	3103.8875
2586.90015	3089.8875
2589.58411	3094.2875
2592.2664	3081.7875
2594.94701	3087.3875
2597.62594	3075.5875
2600.30321	3056.9875
2602.9788	3059.3875
2605.65273	3047.9875
2608.32498	3043.7875
2610.99557	3039.0875
2613.66449	3030.0875
2616.33175	3031.8875
2618.99734	3018.3875
2621.66128	3006.0875
2624.32355	3005.8875
2626.98416	3007.6875
2629.64311	3005.5875
2632.30041	2994.1875
2634.95605	3003.7875
2637.61004	3003.1875
2640.26238	2992.0875
2642.91306	2975.0875
2645.56209	2965.0875
2648.20948	2962.3875
2650.85521	2969.6875
2653.4993	2967.6875
2656.14175	2969.7875
2658.78255	2965.0875
2661.42171	2958.5875
2664.05923	2945.5875
2666.6951	2953.0875
2669.32934	2958.2875
2671.96194	2944.2875
2674.59291	2947.2875
2677.22224	2939.7875
2679.84993	2949.2875
2682.476	2948.1875
2685.10043	2957.2875
2687.72324	2931.2875
2690.34441	2941.0875
2692.96396	2930.4875
2695.58188	2936.4875
2698.19818	2941.7875
2700.81285	2937.9875
2703.4259	2950.7875
2706.03733	2958.7875
2708.64714	2952.5875
2711.25533	2932.4875
2713.86191	2937.6875
2716.46687	2933.2875
2719.07021	2930.8875
2721.67194	2932.4875
2724.27206	2918.0875
2726.87057	2931.4875
2729.46747	2924.3875
2732.06276	2913.9875
2734.65644	2913.7875
2737.24852	2905.3875
2739.83899	2903.3875
2742.42786	2906.6875
2745.01513	2887.2875
2747.60079	2884.1875
2750.18486	2886.5875
2752.76733	2875.2875
2755.3482	2876.9875
2757.92747	2886.5875
2760.50515	2864.7875
2763.08123	2858.1875
2765.65573	2858.2875
2768.22863	2855.8875
2770.79994	2845.2875
2773.36967	2849.4875
2775.9378	2847.0875
2778.50435	2824.6875
2781.06932	2836.1875
2783.6327	2825.3875
2786.1945	2825.2875
2788.75471	2812.6875
2791.31335	2816.1875
2793.87041	2794.4875
2796.42589	2790.1875
2798.97979	2777.5875
2801.53212	2774.6875
2804.08288	2775.2875
2806.63206	2769.3875
2809.17967	2756.3875
2811.72571	2743.8875
2814.27018	2741.5875
2816.81308	2738.5875
2819.35442	2735.6875
2821.89419	2725.5875
2824.43239	2729.6875
2826.96904	2725.7875
2829.50412	2722.3875
2832.03763	2715.4875
2834.56959	2721.6875
2837.1	2714.6875
2839.62884	2708.9875
2842.15613	2703.9875
2844.68186	2700.9875
2847.20604	2699.7875
2849.72867	2704.2875
2852.24974	2706.1875
2854.76927	2699.4875
2857.28724	2686.6875
2859.80367	2690.6875
2862.31855	2685.8875
2864.83189	2679.1875
2867.34368	2660.1875
2869.85393	2661.1875
2872.36264	2667.0875
2874.8698	2670.1875
2877.37543	2665.0875
2879.87952	2662.0875
2882.38207	2667.4875
2884.88308	2656.9875
2887.38256	2663.2875
2889.88051	2666.8875
2892.37692	2668.3875
2894.8718	2652.9875
2897.36515	2672.0875
2899.85698	2664.3875
2902.34727	2659.4875
2904.83604	2662.7875
2907.32328	2664.4875
2909.809	2659.0875
2912.29319	2665.4875
2914.77587	2665.0875
2917.25702	2666.1875
2919.73665	2654.8875
2922.21476	2667.0875
2924.69136	2665.1875
2927.16644	2672.0875
2929.64	2653.6875
2932.11205	2660.9875
2934.58258	2663.0875
2937.05161	2669.9875
2939.51912	2665.2875
2941.98513	2656.3875
2944.44962	2670.4875
2946.91261	2661.4875
2949.37409	2667.0875
2951.83407	2674.4875
2954.29254	2664.0875
2956.74951	2652.8875
2959.20498	2653.6875
2961.65895	2659.4875
2964.11142	2646.2875
2966.56239	2636.0875
2969.01186	2630.5875
2971.45984	2618.2875
2973.90632	2608.7875
2976.35131	2597.3875
2978.7948	2613.3875
2981.23681	2588.5875
2983.67732	2590.2875
2986.11635	2584.8875
2988.55388	2572.4875
2990.98993	2568.5875
2993.4245	2577.8875
2995.85758	2563.2875
2998.28917	2555.4875
3000.71928	2550.4875
3003.14791	2553.2875
3005.57506	2550.1875
3008.00073	2553.4875
3010.42493	2539.7875
3012.84764	2546.4875
3015.26888	2543.0875
3017.68865	2541.6875
3020.10694	2539.1875
3022.52376	2520.4875
3024.9391	2534.9875
3027.35298	2523.7875
3029.76539	2530.2875
3032.17632	2515.2875
3034.5858	2511.7875
3036.9938	2520.6875
3039.40034	2510.6875
3041.80542	2520.7875
3044.20903	2506.2875
3046.61118	2499.9875
3049.01187	2500.4875
3051.4111	2494.1875
3053.80888	2494.0875
3056.20519	2492.9875
3058.60005	2486.6875
3060.99345	2497.5875
3063.3854	2482.6875
3065.7759	2487.9875
3068.16494	2483.7875
3070.55254	2491.1875
3072.93868	2473.9875
3075.32338	2483.7875
3077.70662	2475.7875
3080.08842	2466.8875
3082.46878	2478.4875
3084.84769	2475.2875
3087.22515	2472.0875
3089.60118	2472.9875
3091.97576	2482.4875
3094.3489	2479.6875
3096.72061	2488.8875
3099.09087	2477.2875
3101.4597	2480.3875
3103.82709	2497.6875
3106.19305	2495.2875
3108.55757	2501.2875
3110.92066	2484.3875
3113.28232	2475.3875
3115.64255	2481.5875
3118.00134	2475.0875
3120.35871	2492.9875
3122.71466	2477.6875
3125.06917	2490.7875
3127.42226	2483.0875
3129.77393	2490.5875
3132.12417	2493.2875
3134.47299	2489.1875
3136.82039	2494.2875
3139.16636	2501.2875
3141.51092	2516.7875
3143.85406	2517.4875
3146.19579	2521.9875
3148.53609	2524.7875
3150.87499	2518.8875
3153.21246	2522.5875
3155.54853	2542.8875
3157.88318	2540.5875
3160.21642	2545.5875
3162.54826	2565.3875
3164.87868	2558.9875
3167.2077	2567.3875
3169.5353	2565.0875
3171.86151	2562.7875
3174.18631	2563.9875
3176.5097	2571.9875
3178.83169	2567.9875
3181.15228	2565.0875
3183.47147	2573.8875
3185.78926	2578.1875
3188.10565	2553.8875
3190.42065	2575.1875
3192.73424	2578.3875
3195.04645	2589.4875
3197.35725	2579.1875
3199.66667	2589.8875
3201.97469	2597.9875
3204.28132	2596.1875
3206.58656	2592.3875
3208.8904	2599.4875
3211.19287	2603.9875
3213.49394	2613.3875
3215.79363	2607.2875
3218.09193	2608.4875
3220.38884	2605.8875
3222.68438	2605.7875
3224.97853	2608.3875
3227.2713	2610.0875
3229.56269	2603.1875
3231.8527	2604.5875
3234.14133	2591.2875
3236.42858	2603.7875
3238.71446	2587.7875
3240.99896	2588.3875
3243.28209	2589.4875
3245.56384	2578.3875
3247.84423	2590.1875
3250.12324	2580.6875
3252.40088	2577.5875
3254.67715	2587.6875
3256.95205	2582.1875
3259.22558	2589.5875
3261.49775	2575.1875
3263.76855	2585.8875
3266.03799	2572.7875
3268.30606	2561.1875
3270.57277	2555.4875
3272.83812	2559.6875
3275.10211	2558.4875
3277.36474	2551.8875
3279.62601	2561.9875
3281.88593	2545.8875
3284.14448	2561.4875
3286.40168	2556.4875
3288.65753	2547.3875
3290.91202	2537.6875
3293.16516	2525.0875
3295.41695	2527.8875
3297.66738	2509.7875
3299.91647	2501.5875
3302.16421	2491.0875
3304.4106	2493.0875
3306.65564	2468.3875
3308.89933	2451.5875
3311.14169	2435.6875
3313.38269	2437.8875
3315.62236	2416.4875
3317.86068	2404.1875
3320.09766	2362.0875
3322.3333	2354.7875
3324.5676	2357.8875
3326.80056	2315.0875
3329.03219	2304.1875
3331.26248	0.8875
3333.49143	0.3875
3335.71905	0.1875
