Data from AgNPs_FTO_APTES_UA_0.1mM_CRN_50uM_NaF_0.1M_Addition_RamanShift__18__12-57-37-645.txt Node

Date: Mon Dec 20 12:57:37 GMT 2021
User: TCL
Spectrometer: QEP01345
Trigger mode: 4
Integration Time (sec): 7.000000E0
Scans to average: 10
Electric dark correction enabled: true
Nonlinearity correction enabled: false
Boxcar width: 0
XAxis mode: Raman Shifts
Number of Pixels in Spectrum: 1044
>>>>>Begin Spectral Data<<<<<
46.04893	0.925
50.45542	-0.775
54.85868	-1.575
59.25871	2.125
63.6555	31.225
68.04907	32.325
72.43941	33.525
76.82654	37.125
81.21044	37.525
85.59113	41.325
89.96862	40.825
94.34289	41.025
98.71396	44.625
103.08183	42.325
107.4465	45.325
111.80798	48.225
116.16626	47.025
120.52136	46.725
124.87327	51.025
129.222	52.225
133.56755	53.225
137.90993	58.425
142.24913	62.425
146.58517	66.325
150.91804	77.525
155.24774	90.925
159.57429	107.725
163.89768	133.425
168.21792	181.125
172.53501	233.825
176.84895	319.525
181.15975	446.625
185.46741	618.025
189.77193	855.325
194.07331	1145.625
198.37157	1491.625
202.6667	1862.325
206.9587	2234.725
211.24758	2605.525
215.53334	2962.325
219.81599	3364.425
224.09553	3778.725
228.37195	4215.525
232.64527	4686.425
236.91549	5200.825
241.18261	5683.825
245.44663	6113.425
249.70755	6475.825
253.96539	6804.225
258.22014	7064.925
262.4718	7249.325
266.72039	7340.525
270.96589	7373.125
275.20832	7303.025
279.44768	7196.725
283.68397	7047.525
287.91719	6914.325
292.14735	6822.425
296.37445	6748.225
300.59849	6725.825
304.81948	6719.425
309.03742	6682.225
313.25231	6652.125
317.46415	6533.725
321.67296	6412.925
325.87872	6318.725
330.08145	6277.425
334.28114	6274.825
338.47781	6297.525
342.67145	6341.725
346.86207	6428.625
351.04966	6509.025
355.23424	6633.025
359.4158	6729.225
363.59435	6821.825
367.76989	6909.025
371.94243	6976.825
376.11196	7022.325
380.27849	7075.025
384.44203	7152.325
388.60257	7177.525
392.76012	7260.625
396.91468	7302.925
401.06626	7407.725
405.21485	7436.725
409.36047	7422.625
413.50311	7374.025
417.64277	7306.325
421.77947	7278.325
425.9132	7248.125
430.04396	7271.925
434.17176	7313.225
438.2966	7352.825
442.41849	7416.025
446.53742	7480.125
450.6534	7592.925
454.76644	7650.825
458.87653	7706.425
462.98368	7705.525
467.08789	7705.625
471.18916	7697.225
475.2875	7716.525
479.38291	7751.025
483.4754	7821.025
487.56496	7835.725
491.6516	7956.125
495.73531	8005.925
499.81612	7988.725
503.89401	7989.725
507.96899	7945.425
512.04106	7878.625
516.11023	7881.525
520.1765	7848.825
524.23987	7872.525
528.30034	7861.125
532.35792	7860.225
536.41261	7820.625
540.46441	7746.425
544.51333	7691.825
548.55936	7635.725
552.60252	7646.425
556.64279	7690.825
560.6802	7717.025
564.71473	7735.125
568.7464	7797.125
572.7752	7875.125
576.80114	7877.325
580.82422	7888.925
584.84444	7956.425
588.86181	8038.325
592.87633	8111.425
596.888	8117.725
600.89682	8124.125
604.9028	8236.625
608.90594	8706.025
612.90624	9329.525
616.90371	9329.325
620.89834	8653.825
624.89015	8457.425
628.87913	8723.025
632.86528	9110.525
636.84862	9386.825
640.82913	9378.525
644.80683	9129.625
648.78172	8786.925
652.75379	8516.425
656.72306	8375.925
660.68952	8319.325
664.65319	8264.125
668.61405	8212.525
672.57211	8241.925
676.52738	8289.125
680.47986	8359.225
684.42955	8370.725
688.37646	8341.125
692.32058	8264.125
696.26192	8202.725
700.20048	8072.825
704.13626	8018.025
708.06928	7985.425
711.99952	7903.725
715.927	7808.625
719.85171	7798.325
723.77365	7799.125
727.69284	7814.225
731.60928	7754.225
735.52295	7704.625
739.43388	7665.525
743.34206	7658.625
747.24749	7665.825
751.15017	7690.025
755.05012	7707.025
758.94733	7775.225
762.8418	7932.125
766.73354	8230.525
770.62254	8527.625
774.50882	8706.025
778.39237	8549.425
782.27321	8193.825
786.15132	7885.925
790.02671	7708.425
793.89938	7634.025
797.76935	7617.525
801.6366	7671.025
805.50115	7758.625
809.36299	7887.725
813.22213	7975.125
817.07857	7905.125
820.93231	7753.625
824.78336	7571.725
828.63172	7450.025
832.47738	7370.125
836.32036	7299.825
840.16066	7269.825
843.99827	7276.425
847.8332	7252.125
851.66546	7264.625
855.49504	7259.425
859.32195	7277.425
863.1462	7298.525
866.96777	7327.725
870.78668	7380.525
874.60293	7454.425
878.41652	7537.625
882.22745	7653.225
886.03573	7708.125
889.84136	7717.725
893.64433	7647.025
897.44466	7483.625
901.24235	7346.525
905.0374	7232.525
908.8298	7179.325
912.61957	7113.125
916.40671	7082.025
920.19121	7061.725
923.97308	7078.125
927.75233	7067.825
931.52895	7054.525
935.30295	7016.725
939.07433	6996.125
942.84309	6931.125
946.60924	6904.625
950.37278	6878.825
954.13371	6841.325
957.89203	6840.925
961.64774	6823.625
965.40086	6808.825
969.15137	6777.125
972.89929	6750.425
976.64461	6734.525
980.38733	6714.525
984.12747	6708.625
987.86502	6744.125
991.59999	6764.925
995.33237	6790.025
999.06217	6853.025
1002.78939	6912.625
1006.51404	6993.725
1010.23611	7066.325
1013.95561	7104.525
1017.67255	7120.525
1021.38692	7103.925
1025.09872	7040.125
1028.80796	6977.025
1032.51465	6902.425
1036.21877	6895.125
1039.92035	6859.625
1043.61937	6860.725
1047.31584	6842.225
1051.00976	6841.125
1054.70114	6858.225
1058.38998	6896.525
1062.07627	6943.625
1065.76003	6995.025
1069.44126	7036.925
1073.11995	7078.225
1076.79611	7123.625
1080.46974	7104.925
1084.14085	7099.025
1087.80943	7058.125
1091.47549	7037.825
1095.13903	6984.125
1098.80005	6933.425
1102.45857	6879.125
1106.11456	6843.625
1109.76805	6879.325
1113.41903	6962.925
1117.06751	7115.425
1120.71348	7349.825
1124.35696	7668.225
1127.99793	8056.925
1131.63641	8404.925
1135.2724	8551.525
1138.90589	8522.925
1142.5369	8360.625
1146.16542	8054.525
1149.79145	7752.425
1153.415	7452.625
1157.03607	7273.725
1160.65467	7158.425
1164.27079	7122.125
1167.88443	7201.025
1171.49561	7328.825
1175.10432	7539.925
1178.71056	7839.925
1182.31434	8168.225
1185.91565	8300.325
1189.51451	8320.325
1193.11091	8259.425
1196.70485	8176.525
1200.29634	8169.325
1203.88538	8096.725
1207.47197	7995.325
1211.05612	7827.325
1214.63782	7671.325
1218.21708	7505.925
1221.79391	7387.225
1225.36829	7280.625
1228.94024	7183.925
1232.50976	7149.525
1236.07685	7104.725
1239.6415	7091.425
1243.20374	7101.925
1246.76355	7147.425
1250.32093	7180.125
1253.8759	7222.025
1257.42845	7291.725
1260.97859	7365.825
1264.52631	7435.525
1268.07163	7493.425
1271.61453	7545.925
1275.15503	7591.225
1278.69312	7651.625
1282.22882	7664.725
1285.76211	7727.825
1289.29301	7799.325
1292.82151	7959.825
1296.34761	8125.225
1299.87133	8344.425
1303.39266	8584.425
1306.9116	8913.525
1310.42815	9271.225
1313.94233	9490.225
1317.45412	9494.725
1320.96354	9354.925
1324.47058	9206.725
1327.97525	9058.925
1331.47754	8904.025
1334.97747	8891.125
1338.47502	8887.925
1341.97022	8967.825
1345.46305	9093.025
1348.95352	9261.625
1352.44163	9449.325
1355.92738	9765.225
1359.41078	10185.625
1362.89183	10598.925
1366.37053	10572.725
1369.84688	9962.825
1373.32088	9227.125
1376.79254	8737.925
1380.26186	8482.325
1383.72883	8334.925
1387.19347	8205.625
1390.65578	8090.725
1394.11575	7962.025
1397.57339	7880.725
1401.0287	7816.625
1404.48168	7764.925
1407.93234	7701.325
1411.38068	7581.925
1414.82669	7435.225
1418.27039	7283.425
1421.71177	7143.125
1425.15083	6995.125
1428.58758	6895.525
1432.02203	6825.425
1435.45416	6832.525
1438.88399	6847.525
1442.31151	6882.325
1445.73673	6894.125
1449.15965	6939.325
1452.58027	6958.325
1455.9986	6969.225
1459.41463	7015.925
1462.82837	7021.825
1466.23982	7120.025
1469.64898	7157.625
1473.05586	7237.525
1476.46045	7236.125
1479.86276	7259.225
1483.26279	7253.825
1486.66054	7264.425
1490.05602	7315.525
1493.44922	7385.125
1496.84016	7521.825
1500.22882	7751.425
1503.61521	8066.025
1506.99934	8446.325
1510.38121	8797.625
1513.76081	8910.425
1517.13816	8709.225
1520.51324	8284.925
1523.88607	7908.725
1527.25665	7652.625
1530.62498	7532.425
1533.99105	7487.825
1537.35488	7468.825
1540.71647	7476.825
1544.07581	7466.225
1547.4329	7472.625
1550.78776	7475.925
1554.14038	7482.425
1557.49077	7526.725
1560.83892	7576.025
1564.18484	7653.825
1567.52853	7686.425
1570.86999	7759.525
1574.20922	7832.825
1577.54624	7850.625
1580.88103	7795.525
1584.2136	7687.325
1587.54395	7614.125
1590.87208	7599.725
1594.19801	7717.525
1597.52172	7880.625
1600.84321	7949.325
1604.16251	7876.325
1607.47959	7690.325
1610.79447	7519.925
1614.10715	7343.425
1617.41763	7180.625
1620.7259	7066.925
1624.03199	7030.425
1627.33587	7030.325
1630.63757	7099.625
1633.93707	7227.325
1637.23439	7450.525
1640.52951	7781.825
1643.82246	8214.425
1647.11321	8605.125
1650.40179	8894.325
1653.68819	8777.625
1656.97241	8330.425
1660.25446	7840.425
1663.53433	7452.425
1666.81203	7197.125
1670.08756	7048.125
1673.36092	6946.125
1676.63211	6876.225
1679.90115	6794.325
1683.16801	6712.725
1686.43272	6595.825
1689.69527	6505.325
1692.95567	6351.525
1696.2139	6236.925
1699.46999	6095.225
1702.72392	5995.325
1705.97571	5900.125
1709.22535	5802.125
1712.47284	5752.425
1715.71819	5701.825
1718.96139	5647.525
1722.20246	5604.825
1725.44139	5550.925
1728.67818	5494.325
1731.91284	5435.025
1735.14537	5374.325
1738.37576	5348.125
1741.60403	5305.125
1744.83017	5289.925
1748.05418	5264.625
1751.27607	5265.425
1754.49584	5239.925
1757.71349	5238.625
1760.92903	5227.425
1764.14244	5205.625
1767.35375	5174.525
1770.56294	5158.025
1773.77002	5106.325
1776.97499	5101.925
1780.17785	5049.825
1783.37861	5036.525
1786.57727	5021.325
1789.77382	4975.225
1792.96828	4974.325
1796.16064	4927.125
1799.3509	4926.225
1802.53907	4897.925
1805.72514	4870.525
1808.90913	4873.525
1812.09102	4850.925
1815.27083	4841.625
1818.44856	4819.525
1821.6242	4815.825
1824.79776	4797.725
1827.96924	4791.025
1831.13864	4783.425
1834.30597	4774.625
1837.47122	4778.625
1840.6344	4750.525
1843.7955	4765.425
1846.95454	4749.125
1850.11151	4769.425
1853.26642	4730.325
1856.41926	4731.925
1859.57004	4731.725
1862.71876	4728.225
1865.86542	4720.425
1869.01003	4699.725
1872.15258	4702.725
1875.29308	4698.025
1878.43152	4683.725
1881.56792	4670.125
1884.70227	4660.925
1887.83457	4662.725
1890.96482	4653.225
1894.09304	4639.225
1897.21921	4629.225
1900.34335	4614.325
1903.46544	4615.125
1906.58551	4623.225
1909.70353	4606.725
1912.81953	4612.925
1915.93349	4576.525
1919.04543	4579.325
1922.15534	4573.725
1925.26322	4560.825
1928.36908	4556.625
1931.47292	4545.025
1934.57473	4519.425
1937.67453	4509.125
1940.77232	4512.125
1943.86808	4494.125
1946.96184	4488.625
1950.05358	4466.725
1953.14331	4460.225
1956.23103	4447.625
1959.31675	4435.125
1962.40046	4417.925
1965.48217	4406.125
1968.56188	4409.125
1971.63959	4374.425
1974.7153	4349.225
1977.78901	4342.525
1980.86073	4342.025
1983.93046	4329.225
1986.99819	4298.025
1990.06394	4286.825
1993.1277	4290.525
1996.18947	4265.425
1999.24925	4257.025
2002.30706	4267.025
2005.36288	4234.025
2008.41672	4210.625
2011.46859	4207.825
2014.51848	4179.925
2017.56639	4173.825
2020.61233	4173.225
2023.6563	4165.325
2026.6983	4137.025
2029.73833	4132.925
2032.7764	4130.025
2035.8125	4121.525
2038.84664	4107.425
2041.87881	4110.325
2044.90903	4076.025
2047.93729	4082.325
2050.96359	4072.925
2053.98794	4076.625
2057.01034	4062.125
2060.03078	4047.825
2063.04927	4048.725
2066.06582	4037.325
2069.08042	4050.825
2072.09307	4034.025
2075.10378	4049.325
2078.11255	4052.025
2081.11938	4022.025
2084.12426	4019.125
2087.12722	4033.225
2090.12824	4041.625
2093.12732	4022.025
2096.12447	4035.725
2099.11969	4029.625
2102.11299	4026.725
2105.10435	4031.225
2108.09379	4026.825
2111.08131	4033.825
2114.0669	4034.325
2117.05057	4038.825
2120.03233	4046.825
2123.01216	4036.725
2125.99008	4037.025
2128.96609	4035.725
2131.94018	4036.025
2134.91236	4044.625
2137.88263	4048.825
2140.851	4036.725
2143.81746	4059.225
2146.78201	4050.125
2149.74466	4055.125
2152.7054	4048.925
2155.66425	4040.625
2158.6212	4059.725
2161.57625	4050.625
2164.52941	4032.525
2167.48067	4033.625
2170.43004	4020.625
2173.37752	4045.025
2176.32311	4028.425
2179.26681	4016.825
2182.20863	4029.925
2185.14856	4028.525
2188.08661	4024.625
2191.02278	4015.225
2193.95707	4025.225
2196.88948	4012.325
2199.82001	4002.725
2202.74867	3990.425
2205.67545	3997.325
2208.60037	3987.825
2211.52341	3984.425
2214.44458	3973.525
2217.36388	3969.725
2220.28132	3958.225
2223.1969	3949.125
2226.11061	3941.325
2229.02246	3940.325
2231.93245	3915.625
2234.84058	3929.625
2237.74686	3897.825
2240.65128	3906.225
2243.55385	3905.925
2246.45456	3889.225
2249.35343	3872.725
2252.25044	3896.525
2255.14561	3867.125
2258.03893	3874.825
2260.93041	3880.125
2263.82004	3836.525
2266.70783	3842.225
2269.59378	3833.125
2272.4779	3829.125
2275.36017	3818.125
2278.24061	3823.225
2281.11922	3793.425
2283.996	3802.125
2286.87094	3781.425
2289.74405	3781.425
2292.61534	3754.625
2295.4848	3755.225
2298.35243	3759.325
2301.21824	3753.725
2304.08223	3754.025
2306.94439	3734.525
2309.80474	3752.425
2312.66327	3736.125
2315.51999	3733.125
2318.37489	3729.625
2321.22797	3725.325
2324.07925	3710.625
2326.92871	3744.225
2329.77637	3708.925
2332.62222	3697.925
2335.46626	3700.825
2338.3085	3700.725
2341.14893	3688.025
2343.98756	3680.425
2346.8244	3682.225
2349.65943	3678.025
2352.49267	3678.025
2355.32411	3684.625
2358.15376	3668.825
2360.98161	3662.025
2363.80768	3653.525
2366.63195	3674.525
2369.45444	3671.325
2372.27514	3654.625
2375.09405	3654.425
2377.91118	3635.825
2380.72652	3638.225
2383.54009	3617.825
2386.35187	3627.225
2389.16188	3611.525
2391.97011	3603.025
2394.77657	3602.625
2397.58125	3584.825
2400.38416	3589.025
2403.18529	3570.925
2405.98466	3570.325
2408.78226	3568.525
2411.57809	3569.825
2414.37216	3553.225
2417.16446	3564.725
2419.955	3548.725
2422.74378	3525.525
2425.5308	3536.725
2428.31606	3547.025
2431.09956	3524.025
2433.88131	3513.225
2436.6613	3535.825
2439.43954	3521.725
2442.21603	3511.325
2444.99077	3506.725
2447.76377	3501.825
2450.53501	3506.025
2453.30451	3509.925
2456.07226	3495.925
2458.83827	3493.825
2461.60254	3485.625
2464.36507	3481.125
2467.12586	3479.925
2469.88492	3483.225
2472.64224	3479.925
2475.39782	3473.925
2478.15167	3479.925
2480.90379	3461.925
2483.65417	3474.625
2486.40283	3457.625
2489.14976	3455.925
2491.89497	3458.325
2494.63845	3460.625
2497.3802	3446.425
2500.12024	3457.425
2502.85855	3447.225
2505.59514	3431.025
2508.33002	3430.725
2511.06318	3430.525
2513.79462	3437.725
2516.52435	3420.225
2519.25237	3421.325
2521.97867	3418.225
2524.70327	3394.625
2527.42616	3407.425
2530.14734	3399.225
2532.86681	3387.925
2535.58458	3367.025
2538.30065	3389.225
2541.01501	3381.025
2543.72768	3378.225
2546.43864	3359.625
2549.14791	3355.725
2551.85548	3334.325
2554.56136	3346.925
2557.26554	3345.725
2559.96803	3345.225
2562.66883	3322.825
2565.36794	3339.625
2568.06536	3313.025
2570.7611	3317.225
2573.45514	3310.725
2576.14751	3310.625
2578.83819	3294.125
2581.52719	3302.425
2584.21451	3286.425
2586.90015	3290.425
2589.58411	3286.625
2592.2664	3284.525
2594.94701	3274.925
2597.62594	3268.025
2600.30321	3251.425
2602.9788	3254.325
2605.65273	3231.025
2608.32498	3228.725
2610.99557	3230.225
2613.66449	3220.225
2616.33175	3222.225
2618.99734	3224.925
2621.66128	3218.925
2624.32355	3209.225
2626.98416	3206.325
2629.64311	3196.025
2632.30041	3204.125
2634.95605	3215.725
2637.61004	3201.525
2640.26238	3191.125
2642.91306	3177.325
2645.56209	3183.325
2648.20948	3187.125
2650.85521	3180.825
2653.4993	3179.225
2656.14175	3171.525
2658.78255	3170.525
2661.42171	3169.425
2664.05923	3171.025
2666.6951	3170.925
2669.32934	3170.825
2671.96194	3174.425
2674.59291	3173.125
2677.22224	3168.825
2679.84993	3167.125
2682.476	3175.925
2685.10043	3169.825
2687.72324	3172.525
2690.34441	3161.825
2692.96396	3168.925
2695.58188	3170.525
2698.19818	3172.925
2700.81285	3171.525
2703.4259	3185.125
2706.03733	3201.425
2708.64714	3203.125
2711.25533	3170.925
2713.86191	3186.825
2716.46687	3174.725
2719.07021	3171.825
2721.67194	3187.825
2724.27206	3159.725
2726.87057	3175.025
2729.46747	3175.325
2732.06276	3172.125
2734.65644	3167.925
2737.24852	3166.125
2739.83899	3155.325
2742.42786	3156.925
2745.01513	3144.025
2747.60079	3153.425
2750.18486	3147.825
2752.76733	3135.625
2755.3482	3138.725
2757.92747	3139.025
2760.50515	3135.225
2763.08123	3132.425
2765.65573	3129.125
2768.22863	3137.425
2770.79994	3122.925
2773.36967	3118.925
2775.9378	3124.025
2778.50435	3095.425
2781.06932	3119.425
2783.6327	3102.525
2786.1945	3095.625
2788.75471	3091.425
2791.31335	3089.125
2793.87041	3086.225
2796.42589	3072.225
2798.97979	3061.925
2801.53212	3052.625
2804.08288	3064.425
2806.63206	3062.025
2809.17967	3051.025
2811.72571	3034.525
2814.27018	3038.225
2816.81308	3031.325
2819.35442	3023.525
2821.89419	3023.325
2824.43239	3026.425
2826.96904	3021.825
2829.50412	3007.725
2832.03763	3023.825
2834.56959	3006.325
2837.1	3007.925
2839.62884	3010.625
2842.15613	3007.325
2844.68186	3011.425
2847.20604	3019.725
2849.72867	3010.325
2852.24974	3023.125
2854.76927	3017.925
2857.28724	3008.525
2859.80367	3006.325
2862.31855	3008.825
2864.83189	3005.225
2867.34368	2994.625
2869.85393	2997.625
2872.36264	2994.125
2874.8698	2998.925
2877.37543	2990.625
2879.87952	2998.225
2882.38207	2994.925
2884.88308	2996.225
2887.38256	3013.225
2889.88051	3014.125
2892.37692	3020.225
2894.8718	3003.425
2897.36515	3009.125
2899.85698	3016.425
2902.34727	3019.225
2904.83604	3013.125
2907.32328	3022.325
2909.809	3034.525
2912.29319	3031.725
2914.77587	3030.525
2917.25702	3029.425
2919.73665	3033.425
2922.21476	3036.425
2924.69136	3035.525
2927.16644	3036.825
2929.64	3030.525
2932.11205	3043.825
2934.58258	3040.125
2937.05161	3027.625
2939.51912	3032.025
2941.98513	3028.325
2944.44962	3027.325
2946.91261	3031.325
2949.37409	3033.225
2951.83407	3032.625
2954.29254	3034.825
2956.74951	3028.525
2959.20498	3028.125
2961.65895	3013.425
2964.11142	3014.425
2966.56239	3003.225
2969.01186	2996.225
2971.45984	2997.125
2973.90632	2979.325
2976.35131	2968.325
2978.7948	2959.625
2981.23681	2957.325
2983.67732	2960.725
2986.11635	2960.125
2988.55388	2939.525
2990.98993	2943.625
2993.4245	2933.925
2995.85758	2919.025
2998.28917	2931.925
3000.71928	2923.725
3003.14791	2915.525
3005.57506	2933.025
3008.00073	2918.725
3010.42493	2911.625
3012.84764	2914.325
3015.26888	2909.725
3017.68865	2908.925
3020.10694	2902.125
3022.52376	2895.425
3024.9391	2910.125
3027.35298	2911.125
3029.76539	2897.525
3032.17632	2909.225
3034.5858	2887.925
3036.9938	2893.025
3039.40034	2900.925
3041.80542	2899.025
3044.20903	2897.725
3046.61118	2887.525
3049.01187	2875.725
3051.4111	2882.525
3053.80888	2872.025
3056.20519	2889.225
3058.60005	2875.025
3060.99345	2872.625
3063.3854	2864.825
3065.7759	2867.025
3068.16494	2872.725
3070.55254	2865.225
3072.93868	2868.425
3075.32338	2870.425
3077.70662	2857.625
3080.08842	2857.725
3082.46878	2865.925
3084.84769	2855.725
3087.22515	2864.525
3089.60118	2871.125
3091.97576	2877.825
3094.3489	2877.525
3096.72061	2887.125
3099.09087	2890.725
3101.4597	2895.625
3103.82709	2888.725
3106.19305	2890.025
3108.55757	2904.625
3110.92066	2893.225
3113.28232	2896.725
3115.64255	2890.925
3118.00134	2885.625
3120.35871	2883.425
3122.71466	2896.425
3125.06917	2885.925
3127.42226	2880.225
3129.77393	2910.225
3132.12417	2894.125
3134.47299	2912.825
3136.82039	2920.325
3139.16636	2925.825
3141.51092	2941.125
3143.85406	2931.125
3146.19579	2937.925
3148.53609	2938.725
3150.87499	2954.425
3153.21246	2968.625
3155.54853	2978.125
3157.88318	2966.325
3160.21642	2996.925
3162.54826	2980.925
3164.87868	2993.425
3167.2077	2997.025
3169.5353	3002.325
3171.86151	2996.625
3174.18631	3007.325
3176.5097	2999.925
3178.83169	3011.225
3181.15228	3011.025
3183.47147	3017.525
3185.78926	3017.625
3188.10565	3017.625
3190.42065	3023.225
3192.73424	3026.725
3195.04645	3031.725
3197.35725	3035.625
3199.66667	3044.625
3201.97469	3038.625
3204.28132	3049.225
3206.58656	3048.625
3208.8904	3071.525
3211.19287	3077.025
3213.49394	3071.925
3215.79363	3085.925
3218.09193	3075.225
3220.38884	3099.025
3222.68438	3100.625
3224.97853	3078.425
3227.2713	3081.925
3229.56269	3072.625
3231.8527	3084.225
3234.14133	3074.125
3236.42858	3075.925
3238.71446	3066.425
3240.99896	3067.225
3243.28209	3070.825
3245.56384	3080.125
3247.84423	3070.225
3250.12324	3056.625
3252.40088	3068.925
3254.67715	3069.325
3256.95205	3069.325
3259.22558	3069.225
3261.49775	3053.225
3263.76855	3058.425
3266.03799	3052.825
3268.30606	3054.025
3270.57277	3041.225
3272.83812	3044.825
3275.10211	3028.225
3277.36474	3020.425
3279.62601	3030.925
3281.88593	3035.525
3284.14448	3038.225
3286.40168	3038.425
3288.65753	3029.025
3290.91202	3027.925
3293.16516	3021.925
3295.41695	3006.525
3297.66738	2993.325
3299.91647	2983.325
3302.16421	2974.025
3304.4106	2963.825
3306.65564	2944.625
3308.89933	2946.225
3311.14169	2916.425
3313.38269	2907.025
3315.62236	2889.525
3317.86068	2860.925
3320.09766	2837.425
3322.3333	2828.225
3324.5676	2811.325
3326.80056	2785.325
3329.03219	2766.325
3331.26248	0.825
3333.49143	-0.375
3335.71905	-0.775
