Data from AgNPs_FTO_APTES_UA_0.1mM_CRN_100uM_NaF_0.1M_Addition_RamanShift__16__13-34-57-672.txt Node

Date: Mon Dec 20 13:34:57 GMT 2021
User: TCL
Spectrometer: QEP01345
Trigger mode: 4
Integration Time (sec): 7.000000E0
Scans to average: 10
Electric dark correction enabled: true
Nonlinearity correction enabled: false
Boxcar width: 0
XAxis mode: Raman Shifts
Number of Pixels in Spectrum: 1044
>>>>>Begin Spectral Data<<<<<
46.04893	-0.0125
50.45542	-0.4125
54.85868	-1.5125
59.25871	0.6875
63.6555	26.2875
68.04907	30.2875
72.43941	30.7875
76.82654	35.4875
81.21044	33.8875
85.59113	42.2875
89.96862	40.4875
94.34289	43.2875
98.71396	41.2875
103.08183	41.9875
107.4465	43.6875
111.80798	43.5875
116.16626	47.6875
120.52136	50.2875
124.87327	49.2875
129.222	49.0875
133.56755	50.2875
137.90993	55.4875
142.24913	64.0875
146.58517	63.0875
150.91804	71.6875
155.24774	84.3875
159.57429	102.2875
163.89768	130.8875
168.21792	167.1875
172.53501	218.3875
176.84895	297.5875
181.15975	420.4875
185.46741	581.5875
189.77193	806.7875
194.07331	1070.9875
198.37157	1404.9875
202.6667	1754.1875
206.9587	2102.9875
211.24758	2475.9875
215.53334	2822.3875
219.81599	3193.0875
224.09553	3583.5875
228.37195	4015.5875
232.64527	4446.9875
236.91549	4907.2875
241.18261	5322.1875
245.44663	5743.0875
249.70755	6090.5875
253.96539	6361.3875
258.22014	6587.1875
262.4718	6719.8875
266.72039	6767.6875
270.96589	6766.8875
275.20832	6705.2875
279.44768	6589.2875
283.68397	6436.9875
287.91719	6292.1875
292.14735	6198.9875
296.37445	6102.1875
300.59849	6073.8875
304.81948	6056.8875
309.03742	6033.5875
313.25231	5981.0875
317.46415	5900.5875
321.67296	5790.8875
325.87872	5711.3875
330.08145	5652.2875
334.28114	5647.1875
338.47781	5662.4875
342.67145	5717.7875
346.86207	5782.8875
351.04966	5857.0875
355.23424	5973.1875
359.4158	6041.8875
363.59435	6141.2875
367.76989	6190.7875
371.94243	6248.8875
376.11196	6314.5875
380.27849	6372.5875
384.44203	6407.0875
388.60257	6461.3875
392.76012	6506.2875
396.91468	6567.6875
401.06626	6625.0875
405.21485	6677.9875
409.36047	6686.8875
413.50311	6627.0875
417.64277	6571.4875
421.77947	6541.7875
425.9132	6549.7875
430.04396	6561.7875
434.17176	6587.6875
438.2966	6626.0875
442.41849	6690.3875
446.53742	6741.1875
450.6534	6821.3875
454.76644	6892.8875
458.87653	6947.3875
462.98368	6941.8875
467.08789	6943.5875
471.18916	6983.0875
475.2875	6987.7875
479.38291	7016.3875
483.4754	7059.2875
487.56496	7128.4875
491.6516	7188.6875
495.73531	7246.4875
499.81612	7266.0875
503.89401	7228.5875
507.96899	7178.4875
512.04106	7142.8875
516.11023	7128.4875
520.1765	7112.5875
524.23987	7106.9875
528.30034	7102.8875
532.35792	7093.9875
536.41261	7073.1875
540.46441	7015.4875
544.51333	6935.3875
548.55936	6914.5875
552.60252	6930.7875
556.64279	6946.2875
560.6802	6974.8875
564.71473	6999.8875
568.7464	7055.2875
572.7752	7110.0875
576.80114	7128.7875
580.82422	7128.9875
584.84444	7173.0875
588.86181	7281.5875
592.87633	7326.0875
596.888	7341.8875
600.89682	7328.6875
604.9028	7446.3875
608.90594	7826.2875
612.90624	8343.6875
616.90371	8375.1875
620.89834	7833.3875
624.89015	7727.3875
628.87913	7960.0875
632.86528	8315.8875
636.84862	8567.1875
640.82913	8564.8875
644.80683	8338.1875
648.78172	8050.3875
652.75379	7805.2875
656.72306	7658.0875
660.68952	7656.6875
664.65319	7614.5875
668.61405	7606.6875
672.57211	7683.0875
676.52738	7753.9875
680.47986	7832.8875
684.42955	7843.3875
688.37646	7816.6875
692.32058	7727.0875
696.26192	7650.6875
700.20048	7559.7875
704.13626	7467.9875
708.06928	7389.5875
711.99952	7282.2875
715.927	7201.4875
719.85171	7166.6875
723.77365	7168.1875
727.69284	7185.0875
731.60928	7132.0875
735.52295	7088.0875
739.43388	7041.4875
743.34206	7010.8875
747.24749	7013.8875
751.15017	7041.0875
755.05012	7077.6875
758.94733	7134.2875
762.8418	7276.3875
766.73354	7498.5875
770.62254	7756.7875
774.50882	7879.1875
778.39237	7759.5875
782.27321	7477.8875
786.15132	7199.5875
790.02671	7071.9875
793.89938	7036.7875
797.76935	7009.5875
801.6366	7057.3875
805.50115	7146.7875
809.36299	7265.0875
813.22213	7351.9875
817.07857	7285.8875
820.93231	7148.0875
824.78336	6971.4875
828.63172	6831.9875
832.47738	6763.3875
836.32036	6702.2875
840.16066	6688.6875
843.99827	6666.4875
847.8332	6655.4875
851.66546	6632.2875
855.49504	6645.8875
859.32195	6650.9875
863.1462	6694.5875
866.96777	6736.4875
870.78668	6782.4875
874.60293	6866.0875
878.41652	6924.0875
882.22745	7037.8875
886.03573	7094.0875
889.84136	7127.4875
893.64433	7030.2875
897.44466	6922.6875
901.24235	6797.1875
905.0374	6694.9875
908.8298	6615.4875
912.61957	6562.7875
916.40671	6538.2875
920.19121	6523.5875
923.97308	6515.2875
927.75233	6511.5875
931.52895	6508.1875
935.30295	6487.6875
939.07433	6466.4875
942.84309	6422.6875
946.60924	6392.0875
950.37278	6357.7875
954.13371	6357.2875
957.89203	6339.3875
961.64774	6320.5875
965.40086	6303.6875
969.15137	6271.0875
972.89929	6246.5875
976.64461	6257.7875
980.38733	6224.9875
984.12747	6218.7875
987.86502	6225.7875
991.59999	6254.3875
995.33237	6278.7875
999.06217	6339.0875
1002.78939	6419.3875
1006.51404	6467.0875
1010.23611	6530.2875
1013.95561	6581.4875
1017.67255	6579.9875
1021.38692	6567.4875
1025.09872	6517.9875
1028.80796	6476.0875
1032.51465	6413.7875
1036.21877	6407.5875
1039.92035	6364.4875
1043.61937	6382.8875
1047.31584	6381.5875
1051.00976	6384.7875
1054.70114	6415.7875
1058.38998	6418.0875
1062.07627	6459.9875
1065.76003	6509.5875
1069.44126	6555.6875
1073.11995	6591.5875
1076.79611	6646.2875
1080.46974	6615.3875
1084.14085	6587.8875
1087.80943	6550.3875
1091.47549	6537.5875
1095.13903	6475.2875
1098.80005	6439.2875
1102.45857	6414.8875
1106.11456	6406.8875
1109.76805	6421.6875
1113.41903	6495.0875
1117.06751	6619.1875
1120.71348	6847.1875
1124.35696	7104.0875
1127.99793	7475.3875
1131.63641	7811.2875
1135.2724	7955.4875
1138.90589	7905.5875
1142.5369	7766.2875
1146.16542	7515.1875
1149.79145	7250.6875
1153.415	6987.1875
1157.03607	6785.7875
1160.65467	6686.3875
1164.27079	6652.4875
1167.88443	6720.4875
1171.49561	6786.3875
1175.10432	6982.5875
1178.71056	7252.0875
1182.31434	7484.4875
1185.91565	7616.2875
1189.51451	7637.9875
1193.11091	7597.7875
1196.70485	7549.8875
1200.29634	7508.9875
1203.88538	7475.9875
1207.47197	7396.2875
1211.05612	7255.0875
1214.63782	7114.9875
1218.21708	6973.0875
1221.79391	6857.1875
1225.36829	6788.7875
1228.94024	6717.4875
1232.50976	6645.8875
1236.07685	6624.0875
1239.6415	6627.7875
1243.20374	6635.3875
1246.76355	6691.6875
1250.32093	6720.3875
1253.8759	6749.1875
1257.42845	6828.2875
1260.97859	6863.5875
1264.52631	6920.4875
1268.07163	6971.1875
1271.61453	7023.9875
1275.15503	7058.6875
1278.69312	7068.3875
1282.22882	7080.8875
1285.76211	7103.5875
1289.29301	7214.1875
1292.82151	7310.2875
1296.34761	7453.9875
1299.87133	7638.7875
1303.39266	7853.0875
1306.9116	8137.0875
1310.42815	8416.7875
1313.94233	8606.2875
1317.45412	8659.2875
1320.96354	8550.4875
1324.47058	8397.2875
1327.97525	8298.6875
1331.47754	8211.8875
1334.97747	8197.7875
1338.47502	8225.2875
1341.97022	8321.5875
1345.46305	8417.3875
1348.95352	8596.9875
1352.44163	8757.2875
1355.92738	9015.3875
1359.41078	9333.3875
1362.89183	9682.9875
1366.37053	9652.0875
1369.84688	9148.7875
1373.32088	8568.0875
1376.79254	8147.8875
1380.26186	7917.0875
1383.72883	7805.0875
1387.19347	7690.8875
1390.65578	7559.1875
1394.11575	7465.3875
1397.57339	7397.4875
1401.0287	7336.0875
1404.48168	7282.4875
1407.93234	7210.7875
1411.38068	7118.0875
1414.82669	6967.8875
1418.27039	6854.2875
1421.71177	6732.2875
1425.15083	6601.3875
1428.58758	6510.5875
1432.02203	6450.0875
1435.45416	6438.2875
1438.88399	6412.7875
1442.31151	6412.6875
1445.73673	6428.1875
1449.15965	6445.0875
1452.58027	6455.7875
1455.9986	6481.1875
1459.41463	6501.6875
1462.82837	6531.6875
1466.23982	6567.1875
1469.64898	6644.8875
1473.05586	6687.4875
1476.46045	6695.7875
1479.86276	6709.0875
1483.26279	6712.6875
1486.66054	6751.7875
1490.05602	6768.7875
1493.44922	6827.7875
1496.84016	6976.6875
1500.22882	7151.1875
1503.61521	7425.1875
1506.99934	7737.5875
1510.38121	8028.6875
1513.76081	8118.9875
1517.13816	7948.8875
1520.51324	7638.4875
1523.88607	7303.9875
1527.25665	7105.8875
1530.62498	7021.1875
1533.99105	6981.1875
1537.35488	6957.4875
1540.71647	6970.1875
1544.07581	6975.5875
1547.4329	6969.2875
1550.78776	6990.4875
1554.14038	6999.0875
1557.49077	7032.0875
1560.83892	7049.0875
1564.18484	7116.7875
1567.52853	7169.5875
1570.86999	7231.6875
1574.20922	7287.3875
1577.54624	7329.9875
1580.88103	7295.5875
1584.2136	7220.6875
1587.54395	7133.8875
1590.87208	7138.3875
1594.19801	7186.2875
1597.52172	7325.6875
1600.84321	7366.1875
1604.16251	7299.3875
1607.47959	7173.9875
1610.79447	7030.8875
1614.10715	6885.6875
1617.41763	6769.2875
1620.7259	6653.9875
1624.03199	6613.8875
1627.33587	6582.6875
1630.63757	6630.1875
1633.93707	6719.6875
1637.23439	6878.0875
1640.52951	7151.6875
1643.82246	7461.5875
1647.11321	7796.4875
1650.40179	8019.4875
1653.68819	7973.8875
1656.97241	7646.0875
1660.25446	7264.7875
1663.53433	6983.7875
1666.81203	6807.9875
1670.08756	6710.6875
1673.36092	6643.1875
1676.63211	6611.4875
1679.90115	6555.3875
1683.16801	6487.8875
1686.43272	6383.5875
1689.69527	6275.5875
1692.95567	6138.9875
1696.2139	6034.4875
1699.46999	5902.0875
1702.72392	5811.4875
1705.97571	5714.2875
1709.22535	5621.2875
1712.47284	5565.2875
1715.71819	5502.1875
1718.96139	5445.9875
1722.20246	5420.0875
1725.44139	5365.5875
1728.67818	5310.9875
1731.91284	5245.6875
1735.14537	5206.1875
1738.37576	5158.3875
1741.60403	5132.4875
1744.83017	5097.5875
1748.05418	5087.5875
1751.27607	5076.1875
1754.49584	5067.6875
1757.71349	5092.8875
1760.92903	5067.4875
1764.14244	5051.7875
1767.35375	5014.0875
1770.56294	4988.6875
1773.77002	4930.5875
1776.97499	4905.2875
1780.17785	4859.6875
1783.37861	4833.2875
1786.57727	4794.1875
1789.77382	4768.5875
1792.96828	4732.1875
1796.16064	4702.7875
1799.3509	4686.6875
1802.53907	4674.8875
1805.72514	4634.1875
1808.90913	4624.9875
1812.09102	4596.5875
1815.27083	4597.8875
1818.44856	4584.7875
1821.6242	4569.6875
1824.79776	4553.4875
1827.96924	4548.9875
1831.13864	4544.0875
1834.30597	4545.7875
1837.47122	4549.4875
1840.6344	4522.7875
1843.7955	4529.5875
1846.95454	4510.4875
1850.11151	4522.3875
1853.26642	4489.6875
1856.41926	4495.7875
1859.57004	4501.6875
1862.71876	4494.6875
1865.86542	4487.5875
1869.01003	4476.3875
1872.15258	4458.4875
1875.29308	4469.8875
1878.43152	4444.1875
1881.56792	4423.2875
1884.70227	4427.9875
1887.83457	4416.0875
1890.96482	4426.9875
1894.09304	4405.1875
1897.21921	4387.4875
1900.34335	4391.3875
1903.46544	4395.4875
1906.58551	4393.8875
1909.70353	4372.9875
1912.81953	4383.3875
1915.93349	4380.1875
1919.04543	4354.1875
1922.15534	4339.4875
1925.26322	4327.2875
1928.36908	4317.4875
1931.47292	4313.8875
1934.57473	4316.5875
1937.67453	4282.5875
1940.77232	4289.6875
1943.86808	4270.1875
1946.96184	4271.8875
1950.05358	4245.0875
1953.14331	4229.5875
1956.23103	4210.8875
1959.31675	4189.1875
1962.40046	4199.2875
1965.48217	4160.7875
1968.56188	4170.1875
1971.63959	4146.1875
1974.7153	4147.1875
1977.78901	4129.6875
1980.86073	4100.3875
1983.93046	4109.9875
1986.99819	4093.3875
1990.06394	4078.9875
1993.1277	4072.1875
1996.18947	4061.6875
1999.24925	4046.4875
2002.30706	4044.4875
2005.36288	4019.8875
2008.41672	4011.8875
2011.46859	3980.9875
2014.51848	3989.3875
2017.56639	3978.8875
2020.61233	3957.9875
2023.6563	3956.7875
2026.6983	3942.9875
2029.73833	3924.0875
2032.7764	3916.4875
2035.8125	3915.9875
2038.84664	3900.2875
2041.87881	3902.9875
2044.90903	3891.0875
2047.93729	3874.5875
2050.96359	3868.0875
2053.98794	3870.7875
2057.01034	3852.7875
2060.03078	3859.1875
2063.04927	3855.9875
2066.06582	3845.9875
2069.08042	3843.5875
2072.09307	3837.1875
2075.10378	3845.5875
2078.11255	3835.6875
2081.11938	3844.4875
2084.12426	3842.8875
2087.12722	3834.6875
2090.12824	3839.8875
2093.12732	3826.8875
2096.12447	3833.9875
2099.11969	3823.4875
2102.11299	3827.6875
2105.10435	3838.8875
2108.09379	3824.2875
2111.08131	3828.3875
2114.0669	3834.9875
2117.05057	3839.1875
2120.03233	3842.2875
2123.01216	3856.2875
2125.99008	3830.8875
2128.96609	3852.9875
2131.94018	3844.1875
2134.91236	3856.1875
2137.88263	3862.0875
2140.851	3865.7875
2143.81746	3872.3875
2146.78201	3865.7875
2149.74466	3859.5875
2152.7054	3866.7875
2155.66425	3859.4875
2158.6212	3864.3875
2161.57625	3849.7875
2164.52941	3847.7875
2167.48067	3847.6875
2170.43004	3856.7875
2173.37752	3835.0875
2176.32311	3838.2875
2179.26681	3847.6875
2182.20863	3837.1875
2185.14856	3834.7875
2188.08661	3835.9875
2191.02278	3851.2875
2193.95707	3837.5875
2196.88948	3822.1875
2199.82001	3809.9875
2202.74867	3809.0875
2205.67545	3806.8875
2208.60037	3801.9875
2211.52341	3805.7875
2214.44458	3791.0875
2217.36388	3777.7875
2220.28132	3760.8875
2223.1969	3750.9875
2226.11061	3743.7875
2229.02246	3742.1875
2231.93245	3730.5875
2234.84058	3725.8875
2237.74686	3705.1875
2240.65128	3716.1875
2243.55385	3701.2875
2246.45456	3717.6875
2249.35343	3686.0875
2252.25044	3688.5875
2255.14561	3679.5875
2258.03893	3685.6875
2260.93041	3684.4875
2263.82004	3668.7875
2266.70783	3663.4875
2269.59378	3638.5875
2272.4779	3632.3875
2275.36017	3629.9875
2278.24061	3622.6875
2281.11922	3616.9875
2283.996	3613.6875
2286.87094	3606.8875
2289.74405	3602.8875
2292.61534	3589.4875
2295.4848	3581.2875
2298.35243	3583.5875
2301.21824	3573.4875
2304.08223	3567.9875
2306.94439	3559.4875
2309.80474	3560.7875
2312.66327	3556.1875
2315.51999	3564.8875
2318.37489	3565.7875
2321.22797	3547.2875
2324.07925	3555.1875
2326.92871	3548.5875
2329.77637	3531.3875
2332.62222	3524.3875
2335.46626	3500.5875
2338.3085	3523.9875
2341.14893	3516.8875
2343.98756	3511.9875
2346.8244	3490.9875
2349.65943	3489.8875
2352.49267	3508.9875
2355.32411	3507.1875
2358.15376	3494.6875
2360.98161	3476.4875
2363.80768	3478.2875
2366.63195	3481.6875
2369.45444	3484.3875
2372.27514	3486.8875
2375.09405	3476.4875
2377.91118	3463.0875
2380.72652	3454.1875
2383.54009	3458.4875
2386.35187	3453.4875
2389.16188	3434.1875
2391.97011	3429.6875
2394.77657	3425.4875
2397.58125	3405.2875
2400.38416	3425.2875
2403.18529	3407.3875
2405.98466	3397.9875
2408.78226	3394.8875
2411.57809	3391.3875
2414.37216	3377.5875
2417.16446	3378.1875
2419.955	3370.0875
2422.74378	3382.3875
2425.5308	3364.3875
2428.31606	3358.9875
2431.09956	3344.7875
2433.88131	3345.4875
2436.6613	3352.1875
2439.43954	3345.1875
2442.21603	3346.7875
2444.99077	3328.4875
2447.76377	3329.4875
2450.53501	3331.0875
2453.30451	3319.2875
2456.07226	3317.8875
2458.83827	3310.4875
2461.60254	3310.6875
2464.36507	3314.2875
2467.12586	3292.6875
2469.88492	3294.7875
2472.64224	3291.8875
2475.39782	3305.7875
2478.15167	3298.9875
2480.90379	3299.4875
2483.65417	3286.4875
2486.40283	3276.2875
2489.14976	3286.5875
2491.89497	3285.2875
2494.63845	3285.7875
2497.3802	3280.1875
2500.12024	3277.4875
2502.85855	3260.2875
2505.59514	3257.3875
2508.33002	3262.9875
2511.06318	3250.8875
2513.79462	3258.5875
2516.52435	3238.6875
2519.25237	3236.9875
2521.97867	3231.4875
2524.70327	3231.9875
2527.42616	3221.8875
2530.14734	3220.3875
2532.86681	3215.5875
2535.58458	3215.3875
2538.30065	3195.0875
2541.01501	3204.2875
2543.72768	3196.8875
2546.43864	3196.6875
2549.14791	3187.2875
2551.85548	3170.8875
2554.56136	3169.5875
2557.26554	3164.4875
2559.96803	3168.2875
2562.66883	3142.5875
2565.36794	3144.3875
2568.06536	3140.1875
2570.7611	3140.6875
2573.45514	3130.8875
2576.14751	3135.1875
2578.83819	3125.9875
2581.52719	3123.5875
2584.21451	3101.5875
2586.90015	3119.8875
2589.58411	3120.0875
2592.2664	3101.9875
2594.94701	3091.4875
2597.62594	3094.6875
2600.30321	3076.0875
2602.9788	3081.2875
2605.65273	3074.7875
2608.32498	3063.9875
2610.99557	3052.3875
2613.66449	3050.9875
2616.33175	3057.9875
2618.99734	3051.9875
2621.66128	3049.3875
2624.32355	3040.4875
2626.98416	3033.0875
2629.64311	3029.2875
2632.30041	3040.1875
2634.95605	3026.7875
2637.61004	3017.9875
2640.26238	3016.0875
2642.91306	3013.9875
2645.56209	3005.8875
2648.20948	3009.6875
2650.85521	3002.1875
2653.4993	3006.0875
2656.14175	2998.3875
2658.78255	3010.2875
2661.42171	2998.7875
2664.05923	2990.5875
2666.6951	3000.0875
2669.32934	2994.7875
2671.96194	2990.9875
2674.59291	2996.7875
2677.22224	2994.8875
2679.84993	2993.0875
2682.476	2998.5875
2685.10043	2994.5875
2687.72324	2995.9875
2690.34441	2991.3875
2692.96396	2983.1875
2695.58188	3007.6875
2698.19818	2991.4875
2700.81285	2983.9875
2703.4259	3005.9875
2706.03733	3005.7875
2708.64714	3020.2875
2711.25533	3016.3875
2713.86191	3001.1875
2716.46687	2999.2875
2719.07021	2996.7875
2721.67194	2998.1875
2724.27206	2997.0875
2726.87057	2996.3875
2729.46747	2988.5875
2732.06276	3002.7875
2734.65644	2984.6875
2737.24852	2991.1875
2739.83899	2983.2875
2742.42786	2983.8875
2745.01513	2965.7875
2747.60079	2972.5875
2750.18486	2960.8875
2752.76733	2957.0875
2755.3482	2969.1875
2757.92747	2970.5875
2760.50515	2962.5875
2763.08123	2947.3875
2765.65573	2945.5875
2768.22863	2954.1875
2770.79994	2947.2875
2773.36967	2941.8875
2775.9378	2937.1875
2778.50435	2916.8875
2781.06932	2932.0875
2783.6327	2922.7875
2786.1945	2913.3875
2788.75471	2927.2875
2791.31335	2916.1875
2793.87041	2910.8875
2796.42589	2895.8875
2798.97979	2878.2875
2801.53212	2881.4875
2804.08288	2888.9875
2806.63206	2871.9875
2809.17967	2878.1875
2811.72571	2856.6875
2814.27018	2858.3875
2816.81308	2848.4875
2819.35442	2867.1875
2821.89419	2847.2875
2824.43239	2858.4875
2826.96904	2851.0875
2829.50412	2850.2875
2832.03763	2848.8875
2834.56959	2838.7875
2837.1	2839.8875
2839.62884	2844.8875
2842.15613	2843.3875
2844.68186	2837.6875
2847.20604	2839.6875
2849.72867	2848.6875
2852.24974	2850.4875
2854.76927	2836.8875
2857.28724	2825.5875
2859.80367	2838.0875
2862.31855	2832.4875
2864.83189	2824.9875
2867.34368	2821.8875
2869.85393	2826.1875
2872.36264	2815.0875
2874.8698	2816.2875
2877.37543	2815.2875
2879.87952	2824.8875
2882.38207	2819.4875
2884.88308	2827.8875
2887.38256	2832.4875
2889.88051	2829.1875
2892.37692	2826.6875
2894.8718	2834.2875
2897.36515	2832.7875
2899.85698	2847.2875
2902.34727	2844.9875
2904.83604	2857.3875
2907.32328	2866.5875
2909.809	2857.1875
2912.29319	2852.5875
2914.77587	2877.1875
2917.25702	2863.1875
2919.73665	2864.6875
2922.21476	2868.3875
2924.69136	2870.0875
2927.16644	2866.0875
2929.64	2871.8875
2932.11205	2887.5875
2934.58258	2877.8875
2937.05161	2887.5875
2939.51912	2886.6875
2941.98513	2879.6875
2944.44962	2870.5875
2946.91261	2855.9875
2949.37409	2887.3875
2951.83407	2885.8875
2954.29254	2876.7875
2956.74951	2869.0875
2959.20498	2866.4875
2961.65895	2848.0875
2964.11142	2864.0875
2966.56239	2851.1875
2969.01186	2850.2875
2971.45984	2835.7875
2973.90632	2821.7875
2976.35131	2803.9875
2978.7948	2813.9875
2981.23681	2799.7875
2983.67732	2790.0875
2986.11635	2786.7875
2988.55388	2775.0875
2990.98993	2784.2875
2993.4245	2765.7875
2995.85758	2761.1875
2998.28917	2769.8875
3000.71928	2760.7875
3003.14791	2765.1875
3005.57506	2777.2875
3008.00073	2759.5875
3010.42493	2761.9875
3012.84764	2759.7875
3015.26888	2755.5875
3017.68865	2757.7875
3020.10694	2753.4875
3022.52376	2750.0875
3024.9391	2752.0875
3027.35298	2761.1875
3029.76539	2750.8875
3032.17632	2739.1875
3034.5858	2734.7875
3036.9938	2732.8875
3039.40034	2742.8875
3041.80542	2725.9875
3044.20903	2720.4875
3046.61118	2728.0875
3049.01187	2721.0875
3051.4111	2728.1875
3053.80888	2723.8875
3056.20519	2734.0875
3058.60005	2704.6875
3060.99345	2718.6875
3063.3854	2704.6875
3065.7759	2698.7875
3068.16494	2707.1875
3070.55254	2705.1875
3072.93868	2703.4875
3075.32338	2699.5875
3077.70662	2699.0875
3080.08842	2712.2875
3082.46878	2703.3875
3084.84769	2699.7875
3087.22515	2710.0875
3089.60118	2708.3875
3091.97576	2724.9875
3094.3489	2725.6875
3096.72061	2732.5875
3099.09087	2731.1875
3101.4597	2729.8875
3103.82709	2739.9875
3106.19305	2735.8875
3108.55757	2735.6875
3110.92066	2733.6875
3113.28232	2733.1875
3115.64255	2729.9875
3118.00134	2735.4875
3120.35871	2739.0875
3122.71466	2740.3875
3125.06917	2739.9875
3127.42226	2727.2875
3129.77393	2754.6875
3132.12417	2762.7875
3134.47299	2745.0875
3136.82039	2764.2875
3139.16636	2768.5875
3141.51092	2773.0875
3143.85406	2789.0875
3146.19579	2791.2875
3148.53609	2794.4875
3150.87499	2796.9875
3153.21246	2811.4875
3155.54853	2823.9875
3157.88318	2825.4875
3160.21642	2838.4875
3162.54826	2848.9875
3164.87868	2848.0875
3167.2077	2845.5875
3169.5353	2851.6875
3171.86151	2861.4875
3174.18631	2866.4875
3176.5097	2867.1875
3178.83169	2861.1875
3181.15228	2860.1875
3183.47147	2866.3875
3185.78926	2887.4875
3188.10565	2880.6875
3190.42065	2872.5875
3192.73424	2885.4875
3195.04645	2890.3875
3197.35725	2903.9875
3199.66667	2901.9875
3201.97469	2911.3875
3204.28132	2911.4875
3206.58656	2918.7875
3208.8904	2926.1875
3211.19287	2922.3875
3213.49394	2934.8875
3215.79363	2940.6875
3218.09193	2941.6875
3220.38884	2932.2875
3222.68438	2942.4875
3224.97853	2949.1875
3227.2713	2941.7875
3229.56269	2932.3875
3231.8527	2937.0875
3234.14133	2932.5875
3236.42858	2928.4875
3238.71446	2928.8875
3240.99896	2926.9875
3243.28209	2930.0875
3245.56384	2921.4875
3247.84423	2930.1875
3250.12324	2916.7875
3252.40088	2932.6875
3254.67715	2943.9875
3256.95205	2924.5875
3259.22558	2925.7875
3261.49775	2920.8875
3263.76855	2923.0875
3266.03799	2912.1875
3268.30606	2913.5875
3270.57277	2903.3875
3272.83812	2892.0875
3275.10211	2893.9875
3277.36474	2902.8875
3279.62601	2905.2875
3281.88593	2898.6875
3284.14448	2904.3875
3286.40168	2900.3875
3288.65753	2897.2875
3290.91202	2890.4875
3293.16516	2863.3875
3295.41695	2884.1875
3297.66738	2861.6875
3299.91647	2851.3875
3302.16421	2826.2875
3304.4106	2823.8875
3306.65564	2818.7875
3308.89933	2796.2875
3311.14169	2787.8875
3313.38269	2770.5875
3315.62236	2750.8875
3317.86068	2721.8875
3320.09766	2717.3875
3322.3333	2702.7875
3324.5676	2695.0875
3326.80056	2658.4875
3329.03219	2646.8875
3331.26248	0.5875
3333.49143	1.2875
3335.71905	-1.2125
