Data from AgNPs_FTO_APTES_UA_0.1mM_CRN_100uM_NaF_0.1M_Addition_RamanShift__21__13-40-47-693.txt Node

Date: Mon Dec 20 13:40:47 GMT 2021
User: TCL
Spectrometer: QEP01345
Trigger mode: 4
Integration Time (sec): 7.000000E0
Scans to average: 10
Electric dark correction enabled: true
Nonlinearity correction enabled: false
Boxcar width: 0
XAxis mode: Raman Shifts
Number of Pixels in Spectrum: 1044
>>>>>Begin Spectral Data<<<<<
46.04893	2.075
50.45542	-1.225
54.85868	-0.225
59.25871	-0.425
63.6555	28.275
68.04907	31.075
72.43941	35.175
76.82654	36.075
81.21044	33.475
85.59113	42.275
89.96862	38.875
94.34289	44.675
98.71396	41.275
103.08183	39.975
107.4465	45.175
111.80798	49.475
116.16626	48.275
120.52136	51.775
124.87327	47.275
129.222	49.275
133.56755	55.075
137.90993	55.575
142.24913	62.175
146.58517	66.175
150.91804	78.375
155.24774	92.475
159.57429	108.075
163.89768	135.575
168.21792	180.375
172.53501	231.375
176.84895	315.075
181.15975	437.875
185.46741	608.775
189.77193	846.875
194.07331	1134.475
198.37157	1470.775
202.6667	1828.675
206.9587	2196.575
211.24758	2565.775
215.53334	2931.575
219.81599	3318.175
224.09553	3699.275
228.37195	4126.775
232.64527	4561.475
236.91549	5020.875
241.18261	5471.475
245.44663	5898.375
249.70755	6249.675
253.96539	6556.175
258.22014	6818.675
262.4718	6994.575
266.72039	7099.075
270.96589	7123.575
275.20832	7081.775
279.44768	7000.075
283.68397	6867.875
287.91719	6760.275
292.14735	6678.075
296.37445	6628.975
300.59849	6633.475
304.81948	6625.975
309.03742	6612.375
313.25231	6568.375
317.46415	6456.175
321.67296	6300.375
325.87872	6205.075
330.08145	6146.175
334.28114	6129.275
338.47781	6175.775
342.67145	6224.875
346.86207	6326.875
351.04966	6420.775
355.23424	6550.775
359.4158	6658.775
363.59435	6744.275
367.76989	6813.575
371.94243	6894.275
376.11196	6922.775
380.27849	6994.175
384.44203	7040.575
388.60257	7081.475
392.76012	7128.775
396.91468	7195.975
401.06626	7269.375
405.21485	7327.075
409.36047	7328.275
413.50311	7249.075
417.64277	7168.275
421.77947	7134.775
425.9132	7138.075
430.04396	7142.575
434.17176	7155.775
438.2966	7209.275
442.41849	7272.875
446.53742	7334.875
450.6534	7458.675
454.76644	7529.375
458.87653	7574.275
462.98368	7583.075
467.08789	7584.575
471.18916	7582.575
475.2875	7572.475
479.38291	7626.875
483.4754	7667.575
487.56496	7773.875
491.6516	7858.375
495.73531	7919.475
499.81612	7897.575
503.89401	7826.075
507.96899	7749.675
512.04106	7694.975
516.11023	7691.075
520.1765	7727.875
524.23987	7759.575
528.30034	7782.575
532.35792	7782.175
536.41261	7739.975
540.46441	7638.775
544.51333	7549.875
548.55936	7470.575
552.60252	7476.375
556.64279	7491.175
560.6802	7514.275
564.71473	7592.675
568.7464	7648.875
572.7752	7723.875
576.80114	7722.875
580.82422	7733.975
584.84444	7779.675
588.86181	7875.775
592.87633	7927.375
596.888	7945.675
600.89682	7959.575
604.9028	8105.775
608.90594	8607.275
612.90624	9294.175
616.90371	9346.875
620.89834	8711.375
624.89015	8611.375
628.87913	8970.075
632.86528	9443.975
636.84862	9738.575
640.82913	9675.075
644.80683	9266.575
648.78172	8784.175
652.75379	8449.275
656.72306	8211.375
660.68952	8185.875
664.65319	8125.975
668.61405	8107.775
672.57211	8109.775
676.52738	8186.975
680.47986	8245.975
684.42955	8220.975
688.37646	8180.275
692.32058	8101.475
696.26192	8018.275
700.20048	7958.175
704.13626	7914.475
708.06928	7780.975
711.99952	7718.475
715.927	7651.575
719.85171	7633.875
723.77365	7648.575
727.69284	7690.275
731.60928	7636.575
735.52295	7556.775
739.43388	7503.775
743.34206	7476.075
747.24749	7489.075
751.15017	7514.375
755.05012	7535.475
758.94733	7601.175
762.8418	7780.675
766.73354	8084.075
770.62254	8379.375
774.50882	8533.075
778.39237	8367.475
782.27321	8039.075
786.15132	7724.275
790.02671	7545.275
793.89938	7491.975
797.76935	7511.075
801.6366	7590.675
805.50115	7746.375
809.36299	7963.375
813.22213	8047.975
817.07857	7959.675
820.93231	7748.675
824.78336	7499.275
828.63172	7312.975
832.47738	7204.075
836.32036	7141.175
840.16066	7119.275
843.99827	7100.575
847.8332	7080.075
851.66546	7054.075
855.49504	7072.675
859.32195	7079.075
863.1462	7108.475
866.96777	7190.475
870.78668	7246.975
874.60293	7362.775
878.41652	7496.775
882.22745	7655.175
886.03573	7737.875
889.84136	7744.175
893.64433	7629.575
897.44466	7437.775
901.24235	7229.075
905.0374	7066.875
908.8298	6939.475
912.61957	6878.875
916.40671	6860.475
920.19121	6849.375
923.97308	6847.275
927.75233	6840.375
931.52895	6837.675
935.30295	6817.375
939.07433	6780.275
942.84309	6729.475
946.60924	6722.075
950.37278	6692.975
954.13371	6668.775
957.89203	6647.975
961.64774	6619.075
965.40086	6598.075
969.15137	6575.675
972.89929	6546.775
976.64461	6527.875
980.38733	6505.775
984.12747	6497.775
987.86502	6516.675
991.59999	6547.475
995.33237	6586.975
999.06217	6638.375
1002.78939	6763.675
1006.51404	6852.175
1010.23611	6946.675
1013.95561	7021.875
1017.67255	7027.475
1021.38692	6989.075
1025.09872	6921.575
1028.80796	6839.075
1032.51465	6751.075
1036.21877	6707.775
1039.92035	6673.375
1043.61937	6642.875
1047.31584	6644.075
1051.00976	6629.275
1054.70114	6652.375
1058.38998	6671.975
1062.07627	6726.975
1065.76003	6781.975
1069.44126	6839.875
1073.11995	6887.375
1076.79611	6908.175
1080.46974	6895.475
1084.14085	6856.575
1087.80943	6799.075
1091.47549	6761.475
1095.13903	6709.775
1098.80005	6652.475
1102.45857	6594.975
1106.11456	6598.575
1109.76805	6622.375
1113.41903	6704.375
1117.06751	6868.875
1120.71348	7130.375
1124.35696	7486.875
1127.99793	7946.875
1131.63641	8372.475
1135.2724	8569.975
1138.90589	8548.575
1142.5369	8332.275
1146.16542	7998.375
1149.79145	7602.375
1153.415	7246.875
1157.03607	7021.475
1160.65467	6878.775
1164.27079	6887.875
1167.88443	6898.375
1171.49561	7070.975
1175.10432	7291.975
1178.71056	7610.375
1182.31434	7940.575
1185.91565	8085.875
1189.51451	8108.675
1193.11091	8066.275
1196.70485	8075.675
1200.29634	8069.775
1203.88538	8068.875
1207.47197	7994.475
1211.05612	7791.675
1214.63782	7576.375
1218.21708	7328.975
1221.79391	7169.875
1225.36829	7025.175
1228.94024	6908.375
1232.50976	6831.075
1236.07685	6786.575
1239.6415	6789.075
1243.20374	6818.475
1246.76355	6849.575
1250.32093	6896.475
1253.8759	6940.175
1257.42845	7017.875
1260.97859	7066.575
1264.52631	7119.075
1268.07163	7188.175
1271.61453	7219.375
1275.15503	7252.775
1278.69312	7285.475
1282.22882	7291.175
1285.76211	7348.775
1289.29301	7424.075
1292.82151	7549.975
1296.34761	7743.175
1299.87133	7940.875
1303.39266	8217.775
1306.9116	8581.975
1310.42815	8958.175
1313.94233	9198.675
1317.45412	9210.675
1320.96354	9055.675
1324.47058	8876.075
1327.97525	8740.075
1331.47754	8662.175
1334.97747	8660.075
1338.47502	8727.075
1341.97022	8827.575
1345.46305	8955.075
1348.95352	9131.375
1352.44163	9349.875
1355.92738	9631.275
1359.41078	10082.175
1362.89183	10540.975
1366.37053	10452.175
1369.84688	9773.175
1373.32088	9043.175
1376.79254	8536.775
1380.26186	8268.475
1383.72883	8097.575
1387.19347	7973.175
1390.65578	7824.875
1394.11575	7731.675
1397.57339	7668.175
1401.0287	7657.275
1404.48168	7639.275
1407.93234	7566.775
1411.38068	7465.875
1414.82669	7325.375
1418.27039	7153.575
1421.71177	6963.675
1425.15083	6787.575
1428.58758	6687.475
1432.02203	6615.475
1435.45416	6580.275
1438.88399	6593.675
1442.31151	6592.575
1445.73673	6595.575
1449.15965	6611.875
1452.58027	6637.375
1455.9986	6659.675
1459.41463	6680.975
1462.82837	6718.175
1466.23982	6769.075
1469.64898	6833.975
1473.05586	6864.775
1476.46045	6884.175
1479.86276	6905.075
1483.26279	6907.875
1486.66054	6939.275
1490.05602	6983.375
1493.44922	7081.875
1496.84016	7210.975
1500.22882	7441.275
1503.61521	7771.975
1506.99934	8138.175
1510.38121	8511.275
1513.76081	8625.375
1517.13816	8374.475
1520.51324	7950.475
1523.88607	7527.275
1527.25665	7292.775
1530.62498	7179.575
1533.99105	7164.675
1537.35488	7153.275
1540.71647	7173.975
1544.07581	7181.375
1547.4329	7213.575
1550.78776	7216.775
1554.14038	7223.775
1557.49077	7260.575
1560.83892	7321.375
1564.18484	7354.675
1567.52853	7420.475
1570.86999	7500.275
1574.20922	7552.875
1577.54624	7601.975
1580.88103	7560.275
1584.2136	7464.975
1587.54395	7391.375
1590.87208	7410.675
1594.19801	7525.575
1597.52172	7678.575
1600.84321	7763.675
1604.16251	7706.775
1607.47959	7528.375
1610.79447	7356.275
1614.10715	7177.875
1617.41763	7016.575
1620.7259	6903.575
1624.03199	6854.575
1627.33587	6831.875
1630.63757	6856.975
1633.93707	6982.875
1637.23439	7178.475
1640.52951	7474.975
1643.82246	7878.875
1647.11321	8266.475
1650.40179	8554.075
1653.68819	8492.975
1656.97241	8050.675
1660.25446	7569.975
1663.53433	7186.675
1666.81203	6934.775
1670.08756	6773.675
1673.36092	6664.575
1676.63211	6612.575
1679.90115	6547.575
1683.16801	6476.975
1686.43272	6390.675
1689.69527	6265.675
1692.95567	6160.275
1696.2139	6061.075
1699.46999	5930.475
1702.72392	5796.075
1705.97571	5666.875
1709.22535	5560.875
1712.47284	5469.975
1715.71819	5416.775
1718.96139	5343.475
1722.20246	5307.575
1725.44139	5250.875
1728.67818	5193.675
1731.91284	5154.475
1735.14537	5095.575
1738.37576	5072.875
1741.60403	5035.975
1744.83017	5024.275
1748.05418	5017.575
1751.27607	5014.575
1754.49584	5011.675
1757.71349	5018.675
1760.92903	4971.575
1764.14244	4962.075
1767.35375	4933.575
1770.56294	4898.275
1773.77002	4864.275
1776.97499	4824.975
1780.17785	4800.075
1783.37861	4766.375
1786.57727	4731.275
1789.77382	4699.875
1792.96828	4661.875
1796.16064	4646.575
1799.3509	4625.475
1802.53907	4612.375
1805.72514	4590.975
1808.90913	4579.175
1812.09102	4552.175
1815.27083	4545.375
1818.44856	4519.375
1821.6242	4505.175
1824.79776	4494.575
1827.96924	4493.175
1831.13864	4487.975
1834.30597	4490.775
1837.47122	4456.775
1840.6344	4456.875
1843.7955	4469.475
1846.95454	4458.575
1850.11151	4446.575
1853.26642	4442.775
1856.41926	4437.775
1859.57004	4433.475
1862.71876	4424.075
1865.86542	4419.375
1869.01003	4411.775
1872.15258	4397.075
1875.29308	4391.575
1878.43152	4395.375
1881.56792	4365.375
1884.70227	4376.175
1887.83457	4358.975
1890.96482	4352.875
1894.09304	4333.475
1897.21921	4329.875
1900.34335	4313.375
1903.46544	4315.075
1906.58551	4332.975
1909.70353	4318.675
1912.81953	4312.675
1915.93349	4301.375
1919.04543	4279.075
1922.15534	4269.575
1925.26322	4263.275
1928.36908	4251.875
1931.47292	4247.675
1934.57473	4237.375
1937.67453	4229.675
1940.77232	4209.175
1943.86808	4207.175
1946.96184	4180.875
1950.05358	4167.575
1953.14331	4165.575
1956.23103	4149.975
1959.31675	4132.475
1962.40046	4122.775
1965.48217	4112.375
1968.56188	4089.775
1971.63959	4082.675
1974.7153	4056.675
1977.78901	4056.075
1980.86073	4031.975
1983.93046	4030.075
1986.99819	4026.775
1990.06394	4001.075
1993.1277	4000.375
1996.18947	3974.475
1999.24925	3972.475
2002.30706	3953.375
2005.36288	3947.175
2008.41672	3940.375
2011.46859	3917.275
2014.51848	3902.975
2017.56639	3894.375
2020.61233	3893.975
2023.6563	3871.475
2026.6983	3874.175
2029.73833	3842.875
2032.7764	3846.275
2035.8125	3838.175
2038.84664	3822.575
2041.87881	3814.875
2044.90903	3806.975
2047.93729	3806.375
2050.96359	3795.875
2053.98794	3778.575
2057.01034	3787.275
2060.03078	3777.375
2063.04927	3773.375
2066.06582	3781.875
2069.08042	3766.875
2072.09307	3769.475
2075.10378	3761.475
2078.11255	3771.675
2081.11938	3750.675
2084.12426	3755.775
2087.12722	3761.875
2090.12824	3758.875
2093.12732	3750.775
2096.12447	3752.775
2099.11969	3739.575
2102.11299	3749.975
2105.10435	3754.775
2108.09379	3738.275
2111.08131	3755.975
2114.0669	3764.375
2117.05057	3776.275
2120.03233	3766.275
2123.01216	3764.275
2125.99008	3768.975
2128.96609	3749.175
2131.94018	3755.175
2134.91236	3771.675
2137.88263	3758.375
2140.851	3769.075
2143.81746	3770.475
2146.78201	3774.275
2149.74466	3770.875
2152.7054	3761.675
2155.66425	3776.675
2158.6212	3763.775
2161.57625	3768.975
2164.52941	3761.775
2167.48067	3754.975
2170.43004	3746.675
2173.37752	3744.375
2176.32311	3758.675
2179.26681	3739.675
2182.20863	3747.075
2185.14856	3749.775
2188.08661	3729.875
2191.02278	3747.575
2193.95707	3739.075
2196.88948	3752.075
2199.82001	3731.975
2202.74867	3709.375
2205.67545	3708.475
2208.60037	3708.375
2211.52341	3698.075
2214.44458	3693.875
2217.36388	3701.275
2220.28132	3673.775
2223.1969	3658.575
2226.11061	3652.975
2229.02246	3632.975
2231.93245	3638.375
2234.84058	3632.975
2237.74686	3630.375
2240.65128	3632.975
2243.55385	3619.575
2246.45456	3618.175
2249.35343	3616.375
2252.25044	3595.375
2255.14561	3570.875
2258.03893	3599.375
2260.93041	3598.375
2263.82004	3578.075
2266.70783	3553.875
2269.59378	3550.475
2272.4779	3559.275
2275.36017	3536.275
2278.24061	3532.775
2281.11922	3516.275
2283.996	3506.075
2286.87094	3523.075
2289.74405	3513.575
2292.61534	3498.175
2295.4848	3487.575
2298.35243	3482.775
2301.21824	3494.575
2304.08223	3483.475
2306.94439	3467.675
2309.80474	3474.475
2312.66327	3472.475
2315.51999	3459.375
2318.37489	3466.975
2321.22797	3455.275
2324.07925	3441.575
2326.92871	3445.775
2329.77637	3452.875
2332.62222	3418.475
2335.46626	3419.675
2338.3085	3408.275
2341.14893	3422.075
2343.98756	3414.775
2346.8244	3409.175
2349.65943	3402.575
2352.49267	3420.475
2355.32411	3401.175
2358.15376	3395.875
2360.98161	3395.675
2363.80768	3394.875
2366.63195	3392.975
2369.45444	3376.375
2372.27514	3376.175
2375.09405	3378.075
2377.91118	3368.275
2380.72652	3346.775
2383.54009	3362.375
2386.35187	3346.875
2389.16188	3337.075
2391.97011	3333.975
2394.77657	3323.475
2397.58125	3323.275
2400.38416	3319.175
2403.18529	3306.075
2405.98466	3305.375
2408.78226	3293.775
2411.57809	3280.775
2414.37216	3288.075
2417.16446	3290.375
2419.955	3276.675
2422.74378	3273.375
2425.5308	3271.275
2428.31606	3256.475
2431.09956	3252.775
2433.88131	3247.775
2436.6613	3256.875
2439.43954	3240.875
2442.21603	3238.975
2444.99077	3217.875
2447.76377	3219.675
2450.53501	3227.375
2453.30451	3227.675
2456.07226	3209.675
2458.83827	3214.275
2461.60254	3208.975
2464.36507	3191.375
2467.12586	3188.175
2469.88492	3210.575
2472.64224	3198.375
2475.39782	3193.975
2478.15167	3203.075
2480.90379	3195.375
2483.65417	3194.775
2486.40283	3192.975
2489.14976	3183.575
2491.89497	3188.775
2494.63845	3186.075
2497.3802	3167.675
2500.12024	3177.275
2502.85855	3172.675
2505.59514	3158.675
2508.33002	3165.175
2511.06318	3172.275
2513.79462	3148.475
2516.52435	3140.175
2519.25237	3141.475
2521.97867	3133.075
2524.70327	3137.475
2527.42616	3140.775
2530.14734	3127.975
2532.86681	3111.675
2535.58458	3116.475
2538.30065	3094.075
2541.01501	3107.175
2543.72768	3104.075
2546.43864	3080.375
2549.14791	3084.175
2551.85548	3080.175
2554.56136	3065.075
2557.26554	3056.075
2559.96803	3059.875
2562.66883	3055.275
2565.36794	3053.075
2568.06536	3045.075
2570.7611	3039.175
2573.45514	3035.575
2576.14751	3037.575
2578.83819	3018.475
2581.52719	3024.275
2584.21451	3022.575
2586.90015	3017.975
2589.58411	3009.075
2592.2664	2988.875
2594.94701	2992.075
2597.62594	2983.875
2600.30321	2981.875
2602.9788	2971.775
2605.65273	2953.875
2608.32498	2965.275
2610.99557	2959.575
2613.66449	2961.675
2616.33175	2960.475
2618.99734	2947.875
2621.66128	2949.875
2624.32355	2932.375
2626.98416	2938.075
2629.64311	2939.175
2632.30041	2920.175
2634.95605	2938.775
2637.61004	2928.675
2640.26238	2919.075
2642.91306	2915.075
2645.56209	2915.175
2648.20948	2910.175
2650.85521	2904.675
2653.4993	2912.075
2656.14175	2903.375
2658.78255	2907.875
2661.42171	2904.775
2664.05923	2906.275
2666.6951	2889.175
2669.32934	2898.975
2671.96194	2893.775
2674.59291	2901.075
2677.22224	2890.775
2679.84993	2895.875
2682.476	2897.775
2685.10043	2894.275
2687.72324	2902.575
2690.34441	2896.775
2692.96396	2886.975
2695.58188	2886.875
2698.19818	2896.675
2700.81285	2896.975
2703.4259	2899.275
2706.03733	2921.075
2708.64714	2913.475
2711.25533	2910.175
2713.86191	2911.675
2716.46687	2918.975
2719.07021	2891.675
2721.67194	2909.675
2724.27206	2898.275
2726.87057	2911.175
2729.46747	2908.375
2732.06276	2892.075
2734.65644	2901.175
2737.24852	2888.975
2739.83899	2890.675
2742.42786	2886.975
2745.01513	2875.575
2747.60079	2875.875
2750.18486	2860.875
2752.76733	2867.575
2755.3482	2857.375
2757.92747	2858.675
2760.50515	2847.875
2763.08123	2848.275
2765.65573	2843.375
2768.22863	2848.675
2770.79994	2847.975
2773.36967	2850.675
2775.9378	2840.375
2778.50435	2824.575
2781.06932	2824.775
2783.6327	2826.775
2786.1945	2821.575
2788.75471	2812.875
2791.31335	2817.175
2793.87041	2806.075
2796.42589	2806.175
2798.97979	2797.575
2801.53212	2789.075
2804.08288	2782.375
2806.63206	2787.175
2809.17967	2772.575
2811.72571	2779.475
2814.27018	2777.675
2816.81308	2758.575
2819.35442	2769.175
2821.89419	2764.875
2824.43239	2762.275
2826.96904	2754.375
2829.50412	2759.475
2832.03763	2753.275
2834.56959	2753.075
2837.1	2740.075
2839.62884	2743.175
2842.15613	2750.075
2844.68186	2747.975
2847.20604	2752.875
2849.72867	2750.875
2852.24974	2753.975
2854.76927	2750.975
2857.28724	2749.375
2859.80367	2729.875
2862.31855	2744.675
2864.83189	2730.575
2867.34368	2746.175
2869.85393	2732.475
2872.36264	2736.975
2874.8698	2736.875
2877.37543	2737.675
2879.87952	2733.975
2882.38207	2749.075
2884.88308	2751.175
2887.38256	2758.875
2889.88051	2762.875
2892.37692	2754.475
2894.8718	2754.775
2897.36515	2755.875
2899.85698	2761.675
2902.34727	2764.675
2904.83604	2758.675
2907.32328	2774.975
2909.809	2783.875
2912.29319	2793.275
2914.77587	2794.975
2917.25702	2784.575
2919.73665	2778.975
2922.21476	2782.475
2924.69136	2787.375
2927.16644	2808.675
2929.64	2793.175
2932.11205	2798.175
2934.58258	2795.975
2937.05161	2798.175
2939.51912	2795.375
2941.98513	2789.075
2944.44962	2798.375
2946.91261	2796.175
2949.37409	2799.575
2951.83407	2798.275
2954.29254	2780.975
2956.74951	2774.175
2959.20498	2770.775
2961.65895	2766.875
2964.11142	2758.975
2966.56239	2751.575
2969.01186	2747.775
2971.45984	2726.175
2973.90632	2723.575
2976.35131	2730.875
2978.7948	2727.475
2981.23681	2710.775
2983.67732	2708.875
2986.11635	2703.375
2988.55388	2685.075
2990.98993	2691.875
2993.4245	2687.775
2995.85758	2672.275
2998.28917	2671.375
3000.71928	2686.575
3003.14791	2670.075
3005.57506	2673.875
3008.00073	2685.075
3010.42493	2656.875
3012.84764	2673.475
3015.26888	2670.375
3017.68865	2661.475
3020.10694	2669.375
3022.52376	2657.775
3024.9391	2667.975
3027.35298	2654.075
3029.76539	2665.975
3032.17632	2664.475
3034.5858	2648.875
3036.9938	2652.875
3039.40034	2654.875
3041.80542	2640.675
3044.20903	2650.075
3046.61118	2643.975
3049.01187	2641.775
3051.4111	2638.375
3053.80888	2647.675
3056.20519	2648.375
3058.60005	2633.675
3060.99345	2641.375
3063.3854	2625.175
3065.7759	2630.775
3068.16494	2630.275
3070.55254	2620.775
3072.93868	2624.875
3075.32338	2620.375
3077.70662	2619.375
3080.08842	2633.075
3082.46878	2630.475
3084.84769	2627.375
3087.22515	2631.875
3089.60118	2637.175
3091.97576	2645.575
3094.3489	2641.775
3096.72061	2649.375
3099.09087	2657.675
3101.4597	2658.775
3103.82709	2660.875
3106.19305	2657.575
3108.55757	2671.075
3110.92066	2669.575
3113.28232	2665.575
3115.64255	2649.475
3118.00134	2668.575
3120.35871	2657.375
3122.71466	2659.975
3125.06917	2677.775
3127.42226	2673.675
3129.77393	2679.575
3132.12417	2683.175
3134.47299	2685.675
3136.82039	2690.475
3139.16636	2694.075
3141.51092	2716.975
3143.85406	2720.275
3146.19579	2727.575
3148.53609	2733.975
3150.87499	2736.475
3153.21246	2749.875
3155.54853	2760.975
3157.88318	2762.175
3160.21642	2785.975
3162.54826	2784.775
3164.87868	2783.575
3167.2077	2777.375
3169.5353	2789.275
3171.86151	2794.975
3174.18631	2805.175
3176.5097	2799.675
3178.83169	2796.675
3181.15228	2805.975
3183.47147	2812.575
3185.78926	2812.375
3188.10565	2809.175
3190.42065	2831.075
3192.73424	2832.175
3195.04645	2833.775
3197.35725	2826.275
3199.66667	2837.275
3201.97469	2854.075
3204.28132	2848.375
3206.58656	2857.475
3208.8904	2871.575
3211.19287	2880.475
3213.49394	2877.575
3215.79363	2879.175
3218.09193	2881.275
3220.38884	2886.775
3222.68438	2892.475
3224.97853	2881.975
3227.2713	2870.675
3229.56269	2880.375
3231.8527	2884.175
3234.14133	2888.475
3236.42858	2878.175
3238.71446	2877.575
3240.99896	2864.875
3243.28209	2882.575
3245.56384	2874.775
3247.84423	2883.775
3250.12324	2875.075
3252.40088	2880.375
3254.67715	2880.975
3256.95205	2869.175
3259.22558	2881.475
3261.49775	2875.275
3263.76855	2884.175
3266.03799	2866.775
3268.30606	2863.175
3270.57277	2860.475
3272.83812	2862.675
3275.10211	2867.575
3277.36474	2864.975
3279.62601	2855.775
3281.88593	2868.275
3284.14448	2856.575
3286.40168	2866.375
3288.65753	2856.975
3290.91202	2853.275
3293.16516	2834.075
3295.41695	2824.975
3297.66738	2809.975
3299.91647	2804.375
3302.16421	2787.575
3304.4106	2773.675
3306.65564	2768.975
3308.89933	2751.275
3311.14169	2734.775
3313.38269	2723.275
3315.62236	2713.575
3317.86068	2688.575
3320.09766	2657.575
3322.3333	2640.675
3324.5676	2652.075
3326.80056	2607.275
3329.03219	2596.675
3331.26248	-0.025
3333.49143	-0.325
3335.71905	0.075
