Data from AgNPs_FTO_APTES_UA_0.1mM_CRN_100uM_NaF_0.1M_Addition_RamanShift__27__13-47-47-701.txt Node

Date: Mon Dec 20 13:47:47 GMT 2021
User: TCL
Spectrometer: QEP01345
Trigger mode: 4
Integration Time (sec): 7.000000E0
Scans to average: 10
Electric dark correction enabled: true
Nonlinearity correction enabled: false
Boxcar width: 0
XAxis mode: Raman Shifts
Number of Pixels in Spectrum: 1044
>>>>>Begin Spectral Data<<<<<
46.04893	1.6375
50.45542	0.3375
54.85868	-2.3625
59.25871	1.1375
63.6555	27.7375
68.04907	32.7375
72.43941	34.1375
76.82654	34.6375
81.21044	34.6375
85.59113	42.0375
89.96862	38.8375
94.34289	40.5375
98.71396	41.9375
103.08183	41.5375
107.4465	42.5375
111.80798	46.2375
116.16626	48.6375
120.52136	49.0375
124.87327	50.8375
129.222	49.2375
133.56755	52.9375
137.90993	56.2375
142.24913	61.1375
146.58517	63.1375
150.91804	75.3375
155.24774	90.0375
159.57429	102.7375
163.89768	135.2375
168.21792	172.5375
172.53501	225.2375
176.84895	304.3375
181.15975	427.3375
185.46741	593.3375
189.77193	821.7375
194.07331	1086.6375
198.37157	1414.3375
202.6667	1765.5375
206.9587	2114.3375
211.24758	2455.0375
215.53334	2814.4375
219.81599	3152.9375
224.09553	3523.9375
228.37195	3924.6375
232.64527	4371.0375
236.91549	4788.8375
241.18261	5188.9375
245.44663	5566.6375
249.70755	5884.7375
253.96539	6175.1375
258.22014	6419.1375
262.4718	6573.0375
266.72039	6656.2375
270.96589	6679.5375
275.20832	6654.9375
279.44768	6553.7375
283.68397	6440.2375
287.91719	6359.7375
292.14735	6299.0375
296.37445	6283.2375
300.59849	6338.1375
304.81948	6395.4375
309.03742	6428.3375
313.25231	6383.8375
317.46415	6254.5375
321.67296	6046.9375
325.87872	5846.7375
330.08145	5752.4375
334.28114	5720.6375
338.47781	5786.2375
342.67145	5843.7375
346.86207	5938.0375
351.04966	6103.8375
355.23424	6270.5375
359.4158	6404.5375
363.59435	6520.1375
367.76989	6574.0375
371.94243	6630.4375
376.11196	6663.1375
380.27849	6713.1375
384.44203	6732.6375
388.60257	6775.8375
392.76012	6825.6375
396.91468	6874.7375
401.06626	6984.7375
405.21485	7037.2375
409.36047	6980.9375
413.50311	6870.3375
417.64277	6744.0375
421.77947	6640.1375
425.9132	6607.2375
430.04396	6610.8375
434.17176	6645.2375
438.2966	6678.9375
442.41849	6772.9375
446.53742	6856.8375
450.6534	6951.9375
454.76644	7022.5375
458.87653	7058.6375
462.98368	7050.6375
467.08789	7027.2375
471.18916	7010.7375
475.2875	7009.0375
479.38291	7050.1375
483.4754	7130.5375
487.56496	7231.7375
491.6516	7368.9375
495.73531	7421.2375
499.81612	7384.2375
503.89401	7272.4375
507.96899	7165.7375
512.04106	7132.8375
516.11023	7148.8375
520.1765	7223.7375
524.23987	7307.2375
528.30034	7374.8375
532.35792	7345.1375
536.41261	7294.2375
540.46441	7135.5375
544.51333	6974.7375
548.55936	6896.1375
552.60252	6875.2375
556.64279	6903.1375
560.6802	6960.8375
564.71473	7009.0375
568.7464	7125.0375
572.7752	7233.4375
576.80114	7195.1375
580.82422	7139.9375
584.84444	7176.2375
588.86181	7306.8375
592.87633	7393.8375
596.888	7425.7375
600.89682	7429.8375
604.9028	7657.4375
608.90594	8394.5375
612.90624	9457.2375
616.90371	9575.4375
620.89834	8693.7375
624.89015	8542.6375
628.87913	9048.9375
632.86528	9651.8375
636.84862	9954.2375
640.82913	9767.1375
644.80683	9154.7375
648.78172	8471.9375
652.75379	7986.5375
656.72306	7696.5375
660.68952	7611.6375
664.65319	7538.9375
668.61405	7400.3375
672.57211	7331.7375
676.52738	7366.3375
680.47986	7395.4375
684.42955	7379.2375
688.37646	7344.6375
692.32058	7299.9375
696.26192	7246.0375
700.20048	7225.4375
704.13626	7173.9375
708.06928	7082.5375
711.99952	7017.2375
715.927	6988.4375
719.85171	7028.6375
723.77365	7103.0375
727.69284	7101.4375
731.60928	7028.3375
735.52295	6934.8375
739.43388	6859.3375
743.34206	6842.8375
747.24749	6876.7375
751.15017	6859.6375
755.05012	6932.0375
758.94733	7018.5375
762.8418	7286.5375
766.73354	7696.6375
770.62254	8102.3375
774.50882	8330.0375
778.39237	8142.4375
782.27321	7694.0375
786.15132	7242.0375
790.02671	7042.7375
793.89938	6986.7375
797.76935	7015.0375
801.6366	7154.4375
805.50115	7449.9375
809.36299	7796.9375
813.22213	7958.8375
817.07857	7853.4375
820.93231	7533.1375
824.78336	7147.4375
828.63172	6846.2375
832.47738	6717.9375
836.32036	6611.2375
840.16066	6574.2375
843.99827	6541.1375
847.8332	6514.6375
851.66546	6475.2375
855.49504	6486.9375
859.32195	6486.2375
863.1462	6505.9375
866.96777	6598.6375
870.78668	6705.3375
874.60293	6923.1375
878.41652	7167.0375
882.22745	7406.4375
886.03573	7569.2375
889.84136	7558.4375
893.64433	7381.0375
897.44466	7049.1375
901.24235	6775.2375
905.0374	6520.2375
908.8298	6369.6375
912.61957	6258.7375
916.40671	6227.2375
920.19121	6215.1375
923.97308	6194.2375
927.75233	6197.1375
931.52895	6203.4375
935.30295	6189.6375
939.07433	6135.1375
942.84309	6078.9375
946.60924	6059.6375
950.37278	6037.8375
954.13371	6036.6375
957.89203	6017.0375
961.64774	5993.0375
965.40086	5952.9375
969.15137	5926.3375
972.89929	5898.0375
976.64461	5888.3375
980.38733	5863.3375
984.12747	5869.2375
987.86502	5876.4375
991.59999	5921.3375
995.33237	5991.4375
999.06217	6100.7375
1002.78939	6241.1375
1006.51404	6397.5375
1010.23611	6569.4375
1013.95561	6677.6375
1017.67255	6714.5375
1021.38692	6660.3375
1025.09872	6547.2375
1028.80796	6378.6375
1032.51465	6245.7375
1036.21877	6160.4375
1039.92035	6102.0375
1043.61937	6066.7375
1047.31584	6043.9375
1051.00976	6047.4375
1054.70114	6044.6375
1058.38998	6103.5375
1062.07627	6176.9375
1065.76003	6259.5375
1069.44126	6327.6375
1073.11995	6358.6375
1076.79611	6384.4375
1080.46974	6354.4375
1084.14085	6292.8375
1087.80943	6239.7375
1091.47549	6209.2375
1095.13903	6135.6375
1098.80005	6049.6375
1102.45857	6006.4375
1106.11456	5991.6375
1109.76805	6032.8375
1113.41903	6188.3375
1117.06751	6400.1375
1120.71348	6723.7375
1124.35696	7186.7375
1127.99793	7770.8375
1131.63641	8308.5375
1135.2724	8576.4375
1138.90589	8593.2375
1142.5369	8301.3375
1146.16542	7860.0375
1149.79145	7344.3375
1153.415	6902.7375
1157.03607	6560.3375
1160.65467	6366.3375
1164.27079	6313.0375
1167.88443	6378.5375
1171.49561	6548.1375
1175.10432	6863.2375
1178.71056	7301.9375
1182.31434	7737.0375
1185.91565	7946.5375
1189.51451	7986.9375
1193.11091	8000.8375
1196.70485	8076.1375
1200.29634	8217.7375
1203.88538	8283.3375
1207.47197	8137.4375
1211.05612	7829.9375
1214.63782	7452.8375
1218.21708	7108.8375
1221.79391	6808.3375
1225.36829	6569.5375
1228.94024	6420.9375
1232.50976	6314.7375
1236.07685	6258.4375
1239.6415	6280.2375
1243.20374	6297.8375
1246.76355	6350.7375
1250.32093	6372.8375
1253.8759	6439.2375
1257.42845	6522.8375
1260.97859	6568.1375
1264.52631	6640.0375
1268.07163	6697.7375
1271.61453	6719.0375
1275.15503	6760.9375
1278.69312	6745.5375
1282.22882	6744.1375
1285.76211	6827.2375
1289.29301	6933.7375
1292.82151	7088.0375
1296.34761	7296.7375
1299.87133	7583.9375
1303.39266	7962.8375
1306.9116	8470.4375
1310.42815	9026.8375
1313.94233	9346.3375
1317.45412	9309.9375
1320.96354	9034.0375
1324.47058	8764.5375
1327.97525	8540.0375
1331.47754	8454.2375
1334.97747	8458.1375
1338.47502	8550.3375
1341.97022	8707.0375
1345.46305	8908.6375
1348.95352	9180.7375
1352.44163	9501.9375
1355.92738	9944.7375
1359.41078	10630.0375
1362.89183	11259.5375
1366.37053	11109.2375
1369.84688	10131.0375
1373.32088	9180.8375
1376.79254	8490.8375
1380.26186	8143.2375
1383.72883	7935.6375
1387.19347	7787.2375
1390.65578	7629.4375
1394.11575	7512.3375
1397.57339	7478.5375
1401.0287	7446.7375
1404.48168	7417.8375
1407.93234	7331.2375
1411.38068	7218.7375
1414.82669	7031.5375
1418.27039	6831.7375
1421.71177	6574.2375
1425.15083	6363.2375
1428.58758	6236.2375
1432.02203	6179.4375
1435.45416	6181.6375
1438.88399	6188.7375
1442.31151	6168.5375
1445.73673	6205.1375
1449.15965	6219.7375
1452.58027	6223.8375
1455.9986	6229.6375
1459.41463	6230.0375
1462.82837	6260.8375
1466.23982	6302.0375
1469.64898	6392.0375
1473.05586	6452.2375
1476.46045	6454.9375
1479.86276	6488.1375
1483.26279	6504.3375
1486.66054	6544.4375
1490.05602	6662.3375
1493.44922	6805.4375
1496.84016	7002.7375
1500.22882	7346.7375
1503.61521	7832.0375
1506.99934	8416.2375
1510.38121	8909.0375
1513.76081	9049.9375
1517.13816	8647.3375
1520.51324	8004.6375
1523.88607	7398.0375
1527.25665	7049.0375
1530.62498	6884.3375
1533.99105	6855.8375
1537.35488	6853.9375
1540.71647	6886.6375
1544.07581	6946.4375
1547.4329	6977.1375
1550.78776	7003.5375
1554.14038	6998.0375
1557.49077	7018.1375
1560.83892	7058.9375
1564.18484	7122.1375
1567.52853	7200.5375
1570.86999	7288.7375
1574.20922	7373.9375
1577.54624	7408.9375
1580.88103	7342.0375
1584.2136	7199.9375
1587.54395	7100.7375
1590.87208	7160.2375
1594.19801	7320.2375
1597.52172	7561.1375
1600.84321	7729.2375
1604.16251	7655.6375
1607.47959	7465.1375
1610.79447	7260.0375
1614.10715	7047.5375
1617.41763	6858.7375
1620.7259	6725.0375
1624.03199	6659.4375
1627.33587	6658.6375
1630.63757	6676.2375
1633.93707	6831.0375
1637.23439	7056.6375
1640.52951	7381.2375
1643.82246	7916.2375
1647.11321	8452.9375
1650.40179	8843.6375
1653.68819	8739.6375
1656.97241	8176.7375
1660.25446	7496.6375
1663.53433	6978.8375
1666.81203	6643.4375
1670.08756	6425.4375
1673.36092	6263.9375
1676.63211	6152.8375
1679.90115	6076.0375
1683.16801	5996.4375
1686.43272	5881.9375
1689.69527	5822.1375
1692.95567	5713.0375
1696.2139	5631.8375
1699.46999	5521.2375
1702.72392	5370.8375
1705.97571	5256.8375
1709.22535	5154.7375
1712.47284	5021.5375
1715.71819	4935.3375
1718.96139	4872.0375
1722.20246	4815.4375
1725.44139	4759.6375
1728.67818	4719.4375
1731.91284	4681.2375
1735.14537	4609.0375
1738.37576	4563.4375
1741.60403	4546.6375
1744.83017	4547.7375
1748.05418	4515.0375
1751.27607	4501.1375
1754.49584	4516.9375
1757.71349	4504.3375
1760.92903	4469.0375
1764.14244	4431.8375
1767.35375	4420.7375
1770.56294	4382.7375
1773.77002	4332.9375
1776.97499	4308.1375
1780.17785	4290.2375
1783.37861	4246.5375
1786.57727	4230.0375
1789.77382	4199.5375
1792.96828	4170.6375
1796.16064	4169.9375
1799.3509	4142.6375
1802.53907	4128.8375
1805.72514	4102.1375
1808.90913	4087.2375
1812.09102	4060.4375
1815.27083	4051.9375
1818.44856	4036.4375
1821.6242	4033.7375
1824.79776	4023.8375
1827.96924	4017.1375
1831.13864	4000.0375
1834.30597	3999.4375
1837.47122	4006.2375
1840.6344	3985.4375
1843.7955	3987.5375
1846.95454	3975.1375
1850.11151	3982.8375
1853.26642	3964.9375
1856.41926	3965.3375
1859.57004	3954.4375
1862.71876	3957.0375
1865.86542	3956.7375
1869.01003	3942.9375
1872.15258	3927.3375
1875.29308	3941.7375
1878.43152	3915.3375
1881.56792	3901.6375
1884.70227	3905.2375
1887.83457	3898.7375
1890.96482	3904.6375
1894.09304	3883.1375
1897.21921	3871.7375
1900.34335	3875.2375
1903.46544	3846.3375
1906.58551	3860.3375
1909.70353	3856.5375
1912.81953	3840.6375
1915.93349	3824.3375
1919.04543	3821.7375
1922.15534	3820.9375
1925.26322	3813.9375
1928.36908	3798.2375
1931.47292	3790.9375
1934.57473	3773.4375
1937.67453	3763.4375
1940.77232	3752.8375
1943.86808	3742.2375
1946.96184	3727.3375
1950.05358	3720.4375
1953.14331	3717.3375
1956.23103	3687.5375
1959.31675	3669.4375
1962.40046	3683.2375
1965.48217	3660.0375
1968.56188	3661.3375
1971.63959	3627.9375
1974.7153	3620.5375
1977.78901	3605.0375
1980.86073	3597.2375
1983.93046	3585.4375
1986.99819	3574.3375
1990.06394	3567.7375
1993.1277	3571.4375
1996.18947	3536.5375
1999.24925	3538.5375
2002.30706	3525.9375
2005.36288	3520.4375
2008.41672	3491.8375
2011.46859	3479.1375
2014.51848	3478.3375
2017.56639	3457.1375
2020.61233	3455.6375
2023.6563	3444.1375
2026.6983	3424.9375
2029.73833	3438.0375
2032.7764	3415.8375
2035.8125	3421.0375
2038.84664	3403.9375
2041.87881	3411.1375
2044.90903	3397.9375
2047.93729	3388.8375
2050.96359	3368.8375
2053.98794	3373.5375
2057.01034	3369.3375
2060.03078	3357.3375
2063.04927	3366.9375
2066.06582	3352.9375
2069.08042	3345.8375
2072.09307	3357.7375
2075.10378	3344.0375
2078.11255	3338.1375
2081.11938	3347.9375
2084.12426	3348.6375
2087.12722	3334.6375
2090.12824	3331.1375
2093.12732	3318.2375
2096.12447	3340.7375
2099.11969	3322.5375
2102.11299	3316.7375
2105.10435	3337.4375
2108.09379	3323.0375
2111.08131	3331.8375
2114.0669	3324.4375
2117.05057	3331.1375
2120.03233	3323.5375
2123.01216	3340.7375
2125.99008	3340.4375
2128.96609	3339.3375
2131.94018	3352.8375
2134.91236	3336.1375
2137.88263	3328.5375
2140.851	3320.5375
2143.81746	3339.7375
2146.78201	3336.5375
2149.74466	3329.7375
2152.7054	3335.5375
2155.66425	3333.9375
2158.6212	3339.5375
2161.57625	3334.7375
2164.52941	3336.5375
2167.48067	3326.3375
2170.43004	3321.7375
2173.37752	3313.7375
2176.32311	3309.1375
2179.26681	3315.5375
2182.20863	3295.4375
2185.14856	3297.1375
2188.08661	3303.6375
2191.02278	3309.5375
2193.95707	3299.7375
2196.88948	3291.7375
2199.82001	3297.6375
2202.74867	3280.1375
2205.67545	3261.8375
2208.60037	3266.1375
2211.52341	3267.3375
2214.44458	3268.5375
2217.36388	3246.1375
2220.28132	3249.0375
2223.1969	3232.7375
2226.11061	3229.1375
2229.02246	3213.3375
2231.93245	3209.3375
2234.84058	3199.8375
2237.74686	3187.6375
2240.65128	3193.3375
2243.55385	3190.3375
2246.45456	3180.6375
2249.35343	3167.8375
2252.25044	3164.5375
2255.14561	3159.8375
2258.03893	3177.9375
2260.93041	3168.3375
2263.82004	3140.5375
2266.70783	3155.5375
2269.59378	3129.7375
2272.4779	3124.3375
2275.36017	3118.1375
2278.24061	3119.6375
2281.11922	3107.6375
2283.996	3103.1375
2286.87094	3103.2375
2289.74405	3096.2375
2292.61534	3074.0375
2295.4848	3079.4375
2298.35243	3068.8375
2301.21824	3062.5375
2304.08223	3063.8375
2306.94439	3067.4375
2309.80474	3050.7375
2312.66327	3046.7375
2315.51999	3034.9375
2318.37489	3050.3375
2321.22797	3037.4375
2324.07925	3035.6375
2326.92871	3027.0375
2329.77637	3027.7375
2332.62222	3027.9375
2335.46626	3006.6375
2338.3085	2995.6375
2341.14893	3007.7375
2343.98756	2994.6375
2346.8244	3007.0375
2349.65943	2988.5375
2352.49267	3006.8375
2355.32411	3006.9375
2358.15376	2983.5375
2360.98161	2997.3375
2363.80768	2988.4375
2366.63195	2986.1375
2369.45444	2986.5375
2372.27514	2987.9375
2375.09405	2982.0375
2377.91118	2981.6375
2380.72652	2959.3375
2383.54009	2952.7375
2386.35187	2950.2375
2389.16188	2940.5375
2391.97011	2933.7375
2394.77657	2931.3375
2397.58125	2927.3375
2400.38416	2910.0375
2403.18529	2907.6375
2405.98466	2915.6375
2408.78226	2895.2375
2411.57809	2906.5375
2414.37216	2880.3375
2417.16446	2879.8375
2419.955	2871.5375
2422.74378	2882.1375
2425.5308	2862.3375
2428.31606	2866.3375
2431.09956	2845.7375
2433.88131	2847.6375
2436.6613	2849.5375
2439.43954	2851.5375
2442.21603	2827.7375
2444.99077	2832.6375
2447.76377	2831.3375
2450.53501	2839.6375
2453.30451	2819.9375
2456.07226	2822.4375
2458.83827	2818.6375
2461.60254	2815.0375
2464.36507	2808.5375
2467.12586	2804.2375
2469.88492	2803.3375
2472.64224	2814.0375
2475.39782	2797.8375
2478.15167	2811.3375
2480.90379	2795.6375
2483.65417	2796.8375
2486.40283	2794.3375
2489.14976	2795.6375
2491.89497	2796.1375
2494.63845	2809.3375
2497.3802	2786.3375
2500.12024	2790.3375
2502.85855	2782.5375
2505.59514	2777.8375
2508.33002	2782.0375
2511.06318	2770.9375
2513.79462	2767.4375
2516.52435	2765.6375
2519.25237	2754.0375
2521.97867	2752.1375
2524.70327	2744.3375
2527.42616	2734.1375
2530.14734	2736.2375
2532.86681	2720.3375
2535.58458	2706.2375
2538.30065	2721.7375
2541.01501	2716.4375
2543.72768	2703.8375
2546.43864	2710.6375
2549.14791	2693.1375
2551.85548	2689.9375
2554.56136	2672.5375
2557.26554	2669.5375
2559.96803	2666.8375
2562.66883	2666.0375
2565.36794	2667.3375
2568.06536	2658.1375
2570.7611	2656.7375
2573.45514	2661.4375
2576.14751	2648.7375
2578.83819	2640.9375
2581.52719	2631.5375
2584.21451	2625.3375
2586.90015	2627.4375
2589.58411	2620.0375
2592.2664	2616.2375
2594.94701	2622.1375
2597.62594	2616.3375
2600.30321	2601.9375
2602.9788	2592.5375
2605.65273	2591.4375
2608.32498	2577.0375
2610.99557	2582.1375
2613.66449	2581.4375
2616.33175	2580.2375
2618.99734	2574.2375
2621.66128	2574.3375
2624.32355	2563.9375
2626.98416	2563.5375
2629.64311	2560.3375
2632.30041	2565.7375
2634.95605	2563.8375
2637.61004	2560.4375
2640.26238	2557.8375
2642.91306	2546.1375
2645.56209	2537.4375
2648.20948	2545.0375
2650.85521	2528.4375
2653.4993	2534.0375
2656.14175	2536.3375
2658.78255	2542.2375
2661.42171	2540.1375
2664.05923	2531.9375
2666.6951	2540.9375
2669.32934	2534.4375
2671.96194	2534.4375
2674.59291	2537.5375
2677.22224	2528.8375
2679.84993	2543.4375
2682.476	2526.8375
2685.10043	2534.3375
2687.72324	2533.8375
2690.34441	2526.4375
2692.96396	2524.2375
2695.58188	2536.6375
2698.19818	2531.7375
2700.81285	2536.7375
2703.4259	2540.2375
2706.03733	2567.5375
2708.64714	2555.4375
2711.25533	2548.9375
2713.86191	2530.6375
2716.46687	2537.2375
2719.07021	2541.1375
2721.67194	2528.8375
2724.27206	2528.3375
2726.87057	2542.0375
2729.46747	2542.8375
2732.06276	2525.0375
2734.65644	2527.8375
2737.24852	2527.7375
2739.83899	2518.9375
2742.42786	2490.4375
2745.01513	2513.0375
2747.60079	2514.0375
2750.18486	2504.0375
2752.76733	2494.3375
2755.3482	2505.6375
2757.92747	2496.7375
2760.50515	2489.1375
2763.08123	2494.6375
2765.65573	2490.3375
2768.22863	2483.7375
2770.79994	2481.2375
2773.36967	2485.1375
2775.9378	2477.1375
2778.50435	2458.3375
2781.06932	2463.5375
2783.6327	2474.2375
2786.1945	2466.7375
2788.75471	2456.2375
2791.31335	2457.4375
2793.87041	2456.1375
2796.42589	2448.5375
2798.97979	2441.7375
2801.53212	2436.0375
2804.08288	2436.1375
2806.63206	2422.4375
2809.17967	2434.3375
2811.72571	2429.8375
2814.27018	2421.2375
2816.81308	2410.4375
2819.35442	2407.9375
2821.89419	2416.0375
2824.43239	2411.6375
2826.96904	2411.6375
2829.50412	2406.4375
2832.03763	2408.9375
2834.56959	2412.7375
2837.1	2404.6375
2839.62884	2408.1375
2842.15613	2410.5375
2844.68186	2402.9375
2847.20604	2408.6375
2849.72867	2406.8375
2852.24974	2402.9375
2854.76927	2408.2375
2857.28724	2412.9375
2859.80367	2415.2375
2862.31855	2397.0375
2864.83189	2408.7375
2867.34368	2393.2375
2869.85393	2407.6375
2872.36264	2402.8375
2874.8698	2408.5375
2877.37543	2396.4375
2879.87952	2417.8375
2882.38207	2406.1375
2884.88308	2401.7375
2887.38256	2410.0375
2889.88051	2413.9375
2892.37692	2397.6375
2894.8718	2419.8375
2897.36515	2415.5375
2899.85698	2407.6375
2902.34727	2420.4375
2904.83604	2426.5375
2907.32328	2439.2375
2909.809	2432.5375
2912.29319	2441.6375
2914.77587	2434.0375
2917.25702	2437.5375
2919.73665	2444.8375
2922.21476	2438.1375
2924.69136	2435.1375
2927.16644	2448.1375
2929.64	2437.1375
2932.11205	2452.6375
2934.58258	2434.2375
2937.05161	2427.7375
2939.51912	2438.1375
2941.98513	2436.4375
2944.44962	2434.6375
2946.91261	2431.1375
2949.37409	2438.8375
2951.83407	2424.5375
2954.29254	2426.2375
2956.74951	2425.9375
2959.20498	2424.2375
2961.65895	2418.0375
2964.11142	2399.1375
2966.56239	2404.5375
2969.01186	2398.5375
2971.45984	2382.9375
2973.90632	2385.6375
2976.35131	2382.9375
2978.7948	2374.7375
2981.23681	2360.4375
2983.67732	2346.0375
2986.11635	2354.6375
2988.55388	2363.5375
2990.98993	2359.6375
2993.4245	2350.4375
2995.85758	2345.6375
2998.28917	2342.3375
3000.71928	2350.4375
3003.14791	2348.9375
3005.57506	2349.1375
3008.00073	2343.8375
3010.42493	2359.5375
3012.84764	2351.1375
3015.26888	2346.6375
3017.68865	2334.2375
3020.10694	2345.1375
3022.52376	2341.6375
3024.9391	2338.8375
3027.35298	2330.0375
3029.76539	2344.9375
3032.17632	2339.6375
3034.5858	2335.2375
3036.9938	2344.2375
3039.40034	2334.6375
3041.80542	2341.0375
3044.20903	2330.5375
3046.61118	2346.7375
3049.01187	2331.7375
3051.4111	2338.6375
3053.80888	2327.7375
3056.20519	2342.2375
3058.60005	2335.3375
3060.99345	2344.9375
3063.3854	2330.8375
3065.7759	2326.5375
3068.16494	2328.9375
3070.55254	2337.6375
3072.93868	2326.6375
3075.32338	2331.0375
3077.70662	2323.1375
3080.08842	2326.6375
3082.46878	2346.1375
3084.84769	2330.4375
3087.22515	2340.2375
3089.60118	2353.0375
3091.97576	2353.0375
3094.3489	2357.2375
3096.72061	2359.9375
3099.09087	2371.2375
3101.4597	2368.2375
3103.82709	2370.6375
3106.19305	2377.0375
3108.55757	2387.0375
3110.92066	2379.8375
3113.28232	2382.6375
3115.64255	2379.0375
3118.00134	2375.3375
3120.35871	2390.9375
3122.71466	2388.8375
3125.06917	2393.0375
3127.42226	2383.5375
3129.77393	2395.2375
3132.12417	2414.6375
3134.47299	2422.8375
3136.82039	2423.6375
3139.16636	2422.0375
3141.51092	2431.5375
3143.85406	2445.0375
3146.19579	2471.2375
3148.53609	2453.2375
3150.87499	2469.5375
3153.21246	2481.4375
3155.54853	2492.1375
3157.88318	2497.9375
3160.21642	2517.3375
3162.54826	2505.4375
3164.87868	2522.8375
3167.2077	2521.8375
3169.5353	2535.2375
3171.86151	2537.0375
3174.18631	2533.3375
3176.5097	2535.7375
3178.83169	2543.1375
3181.15228	2552.0375
3183.47147	2565.7375
3185.78926	2561.5375
3188.10565	2559.8375
3190.42065	2571.8375
3192.73424	2585.9375
3195.04645	2583.4375
3197.35725	2578.1375
3199.66667	2599.3375
3201.97469	2607.0375
3204.28132	2612.8375
3206.58656	2615.0375
3208.8904	2618.4375
3211.19287	2631.0375
3213.49394	2639.0375
3215.79363	2643.8375
3218.09193	2634.2375
3220.38884	2650.1375
3222.68438	2659.2375
3224.97853	2652.8375
3227.2713	2650.2375
3229.56269	2649.3375
3231.8527	2645.6375
3234.14133	2646.3375
3236.42858	2653.2375
3238.71446	2650.2375
3240.99896	2654.3375
3243.28209	2648.6375
3245.56384	2644.8375
3247.84423	2650.4375
3250.12324	2644.6375
3252.40088	2654.2375
3254.67715	2653.5375
3256.95205	2644.3375
3259.22558	2644.4375
3261.49775	2636.6375
3263.76855	2640.7375
3266.03799	2640.4375
3268.30606	2639.8375
3270.57277	2638.4375
3272.83812	2631.8375
3275.10211	2632.4375
3277.36474	2629.1375
3279.62601	2632.2375
3281.88593	2627.4375
3284.14448	2629.6375
3286.40168	2627.9375
3288.65753	2622.3375
3290.91202	2620.7375
3293.16516	2608.3375
3295.41695	2604.4375
3297.66738	2587.0375
3299.91647	2587.0375
3302.16421	2561.5375
3304.4106	2562.0375
3306.65564	2556.1375
3308.89933	2530.9375
3311.14169	2517.8375
3313.38269	2507.5375
3315.62236	2497.8375
3317.86068	2474.9375
3320.09766	2447.6375
3322.3333	2426.6375
3324.5676	2438.8375
3326.80056	2412.1375
3329.03219	2376.4375
3331.26248	0.5375
3333.49143	1.3375
3335.71905	-2.0625
