Data from AgNPs_FTO_APTES_UA_0.1mM_CRN_0uM_NaF_0.1M_Addition_RamanShift__11__10-15-27-460.txt Node

Date: Mon Dec 20 10:15:27 GMT 2021
User: TCL
Spectrometer: QEP01345
Trigger mode: 4
Integration Time (sec): 7.000000E0
Scans to average: 10
Electric dark correction enabled: true
Nonlinearity correction enabled: false
Boxcar width: 0
XAxis mode: Raman Shifts
Number of Pixels in Spectrum: 1044
>>>>>Begin Spectral Data<<<<<
46.04893	0.1
50.45542	-0.8
54.85868	-0.6
59.25871	1.8
63.6555	23.1
68.04907	21
72.43941	27.9
76.82654	27.2
81.21044	29
85.59113	32.4
89.96862	28.7
94.34289	31.7
98.71396	32.9
103.08183	33.6
107.4465	35.7
111.80798	37
116.16626	35.3
120.52136	36.4
124.87327	38.3
129.222	37.3
133.56755	34.6
137.90993	38.6
142.24913	41.6
146.58517	41.1
150.91804	44.8
155.24774	57.8
159.57429	61.1
163.89768	72.9
168.21792	94.5
172.53501	115.6
176.84895	155.6
181.15975	210.3
185.46741	289.4
189.77193	399.8
194.07331	534
198.37157	693.4
202.6667	876.6
206.9587	1055.4
211.24758	1240.2
215.53334	1446.9
219.81599	1655.8
224.09553	1885.4
228.37195	2138.3
232.64527	2435
236.91549	2757.4
241.18261	3054
245.44663	3342.5
249.70755	3578.8
253.96539	3749.3
258.22014	3867.7
262.4718	3864.2
266.72039	3809.1
270.96589	3701.4
275.20832	3562.1
279.44768	3387
283.68397	3213.2
287.91719	3043.7
292.14735	2893.8
296.37445	2747.6
300.59849	2641.9
304.81948	2558.1
309.03742	2492.1
313.25231	2418.9
317.46415	2368.4
321.67296	2316.7
325.87872	2262.3
330.08145	2248.2
334.28114	2209
338.47781	2211.1
342.67145	2202.7
346.86207	2196.2
351.04966	2210.8
355.23424	2226.8
359.4158	2225.3
363.59435	2228.5
367.76989	2226.4
371.94243	2237
376.11196	2237
380.27849	2237.8
384.44203	2241.7
388.60257	2245.4
392.76012	2267.5
396.91468	2298.7
401.06626	2329.8
405.21485	2369.3
409.36047	2365.2
413.50311	2346.8
417.64277	2311.8
421.77947	2319.4
425.9132	2309.4
430.04396	2299.1
434.17176	2313.8
438.2966	2321.1
442.41849	2326.3
446.53742	2338.5
450.6534	2365
454.76644	2384.4
458.87653	2394.9
462.98368	2391.2
467.08789	2387.7
471.18916	2386.4
475.2875	2400
479.38291	2409.1
483.4754	2423
487.56496	2450.1
491.6516	2473.1
495.73531	2490.8
499.81612	2507.8
503.89401	2525.6
507.96899	2532.8
512.04106	2518.6
516.11023	2494.1
520.1765	2466
524.23987	2433.9
528.30034	2405
532.35792	2394.3
536.41261	2373.7
540.46441	2360.6
544.51333	2361.6
548.55936	2353.2
552.60252	2356.6
556.64279	2382.5
560.6802	2382.9
564.71473	2378
568.7464	2372.1
572.7752	2384.1
576.80114	2366.6
580.82422	2355.4
584.84444	2366.8
588.86181	2370.3
592.87633	2386.8
596.888	2399.4
600.89682	2427.6
604.9028	2477.8
608.90594	2608.1
612.90624	2766.4
616.90371	2802.1
620.89834	2626.2
624.89015	2565.4
628.87913	2548.5
632.86528	2568.9
636.84862	2596
640.82913	2609.2
644.80683	2596.4
648.78172	2574.3
652.75379	2565.1
656.72306	2568.7
660.68952	2598.6
664.65319	2643.5
668.61405	2693.8
672.57211	2772.6
676.52738	2825.7
680.47986	2865.9
684.42955	2888.4
688.37646	2917.4
692.32058	2913
696.26192	2862.5
700.20048	2823
704.13626	2779
708.06928	2736.8
711.99952	2672.1
715.927	2606.8
719.85171	2552.6
723.77365	2510.1
727.69284	2474.1
731.60928	2445.2
735.52295	2443.4
739.43388	2448.4
743.34206	2436.4
747.24749	2452.8
751.15017	2464
755.05012	2484.8
758.94733	2507.1
762.8418	2550.2
766.73354	2594
770.62254	2663.9
774.50882	2710
778.39237	2694.3
782.27321	2613
786.15132	2548.8
790.02671	2499.9
793.89938	2483.2
797.76935	2490.3
801.6366	2519.8
805.50115	2546.8
809.36299	2572.2
813.22213	2586.1
817.07857	2566.7
820.93231	2523.8
824.78336	2470.1
828.63172	2415.2
832.47738	2392.3
836.32036	2362.4
840.16066	2367.5
843.99827	2359.2
847.8332	2361.1
851.66546	2345
855.49504	2327
859.32195	2338.1
863.1462	2334.8
866.96777	2336.2
870.78668	2325.5
874.60293	2322.2
878.41652	2339.1
882.22745	2353.1
886.03573	2371.7
889.84136	2394.8
893.64433	2423.1
897.44466	2458.5
901.24235	2481.9
905.0374	2489.8
908.8298	2517.5
912.61957	2545.3
916.40671	2593.2
920.19121	2652.7
923.97308	2707.8
927.75233	2711.8
931.52895	2734.8
935.30295	2721.3
939.07433	2668.6
942.84309	2631.1
946.60924	2580.6
950.37278	2568.3
954.13371	2568.1
957.89203	2537.4
961.64774	2508.6
965.40086	2478.4
969.15137	2474.6
972.89929	2437.9
976.64461	2430.1
980.38733	2417.2
984.12747	2409.6
987.86502	2397.6
991.59999	2402.5
995.33237	2395.8
999.06217	2407.9
1002.78939	2424
1006.51404	2426.4
1010.23611	2445.3
1013.95561	2458.4
1017.67255	2481
1021.38692	2486.9
1025.09872	2486.4
1028.80796	2496.1
1032.51465	2489.4
1036.21877	2486.8
1039.92035	2490
1043.61937	2476.6
1047.31584	2473
1051.00976	2465.1
1054.70114	2474.3
1058.38998	2445.1
1062.07627	2428
1065.76003	2408.6
1069.44126	2372.4
1073.11995	2356.4
1076.79611	2333.9
1080.46974	2324.7
1084.14085	2318.2
1087.80943	2297.8
1091.47549	2285.5
1095.13903	2276.8
1098.80005	2271.2
1102.45857	2257.1
1106.11456	2254.7
1109.76805	2268.5
1113.41903	2283.5
1117.06751	2324.3
1120.71348	2362.1
1124.35696	2404.4
1127.99793	2480.9
1131.63641	2542
1135.2724	2561.6
1138.90589	2571.9
1142.5369	2542.7
1146.16542	2497.8
1149.79145	2455.7
1153.415	2416
1157.03607	2367.9
1160.65467	2330.6
1164.27079	2320.3
1167.88443	2313.7
1171.49561	2326
1175.10432	2357.1
1178.71056	2397.4
1182.31434	2455.5
1185.91565	2462.4
1189.51451	2459
1193.11091	2425.5
1196.70485	2414.5
1200.29634	2412.3
1203.88538	2413.7
1207.47197	2404.3
1211.05612	2408.5
1214.63782	2414
1218.21708	2444.6
1221.79391	2457.4
1225.36829	2469.8
1228.94024	2462
1232.50976	2449
1236.07685	2442.7
1239.6415	2439.4
1243.20374	2435.5
1246.76355	2437.9
1250.32093	2454.1
1253.8759	2485.4
1257.42845	2487.4
1260.97859	2507.5
1264.52631	2526.7
1268.07163	2534.7
1271.61453	2550.2
1275.15503	2556.3
1278.69312	2546.8
1282.22882	2545.3
1285.76211	2566.5
1289.29301	2600.1
1292.82151	2639.3
1296.34761	2675.8
1299.87133	2736.5
1303.39266	2807.8
1306.9116	2879
1310.42815	2969.4
1313.94233	3022.2
1317.45412	3006.9
1320.96354	2989.1
1324.47058	2951
1327.97525	2928.9
1331.47754	2933.2
1334.97747	2950
1338.47502	2984.8
1341.97022	3029.7
1345.46305	3103
1348.95352	3206.5
1352.44163	3335.3
1355.92738	3454.7
1359.41078	3616.8
1362.89183	3789.2
1366.37053	3821.7
1369.84688	3688.5
1373.32088	3520.3
1376.79254	3396.8
1380.26186	3314.7
1383.72883	3271.3
1387.19347	3235.6
1390.65578	3209.1
1394.11575	3174.3
1397.57339	3153.4
1401.0287	3123
1404.48168	3090.2
1407.93234	3051.7
1411.38068	3016
1414.82669	2987.5
1418.27039	2946.7
1421.71177	2912.3
1425.15083	2866.8
1428.58758	2811.3
1432.02203	2766.2
1435.45416	2715.8
1438.88399	2669.3
1442.31151	2656.6
1445.73673	2619.9
1449.15965	2596.1
1452.58027	2564.2
1455.9986	2558
1459.41463	2542.8
1462.82837	2550.4
1466.23982	2555.9
1469.64898	2573.9
1473.05586	2596.3
1476.46045	2618.7
1479.86276	2611.3
1483.26279	2646.3
1486.66054	2648.3
1490.05602	2663.8
1493.44922	2681.5
1496.84016	2704.7
1500.22882	2760.2
1503.61521	2847
1506.99934	2944.4
1510.38121	3003.7
1513.76081	3030.1
1517.13816	2947
1520.51324	2859.4
1523.88607	2774
1527.25665	2727.5
1530.62498	2687.4
1533.99105	2702.3
1537.35488	2707.3
1540.71647	2725.4
1544.07581	2735.1
1547.4329	2775.3
1550.78776	2813.2
1554.14038	2839
1557.49077	2860.7
1560.83892	2871.5
1564.18484	2886.8
1567.52853	2893
1570.86999	2888.1
1574.20922	2874.7
1577.54624	2864.2
1580.88103	2832.3
1584.2136	2785.4
1587.54395	2750.9
1590.87208	2718.9
1594.19801	2697.2
1597.52172	2707.7
1600.84321	2695.4
1604.16251	2673.1
1607.47959	2658.5
1610.79447	2643.1
1614.10715	2615.8
1617.41763	2595.5
1620.7259	2583.3
1624.03199	2579.3
1627.33587	2567.2
1630.63757	2571.9
1633.93707	2557.2
1637.23439	2557.1
1640.52951	2569.9
1643.82246	2581.7
1647.11321	2628
1650.40179	2659.6
1653.68819	2641.5
1656.97241	2596.1
1660.25446	2521.1
1663.53433	2447.5
1666.81203	2406.1
1670.08756	2373.8
1673.36092	2339.7
1676.63211	2308.3
1679.90115	2278.9
1683.16801	2237.2
1686.43272	2200.1
1689.69527	2155.9
1692.95567	2115.2
1696.2139	2075
1699.46999	2028.3
1702.72392	2011.3
1705.97571	1981.6
1709.22535	1969.3
1712.47284	1956.8
1715.71819	1929.8
1718.96139	1909.1
1722.20246	1881.1
1725.44139	1856.2
1728.67818	1835.5
1731.91284	1786.3
1735.14537	1750.2
1738.37576	1735.3
1741.60403	1702.3
1744.83017	1674.2
1748.05418	1670.3
1751.27607	1644.7
1754.49584	1626.1
1757.71349	1613.1
1760.92903	1602.1
1764.14244	1605
1767.35375	1584.4
1770.56294	1576.2
1773.77002	1571.2
1776.97499	1571.2
1780.17785	1566.6
1783.37861	1550.7
1786.57727	1554.8
1789.77382	1539.8
1792.96828	1538.8
1796.16064	1527.3
1799.3509	1525.3
1802.53907	1516.2
1805.72514	1509.3
1808.90913	1496
1812.09102	1489.5
1815.27083	1484.5
1818.44856	1478.5
1821.6242	1475.8
1824.79776	1478.9
1827.96924	1468.7
1831.13864	1471.7
1834.30597	1466.4
1837.47122	1465.4
1840.6344	1459.7
1843.7955	1456.3
1846.95454	1450.2
1850.11151	1448.1
1853.26642	1437.6
1856.41926	1447.7
1859.57004	1428
1862.71876	1438.7
1865.86542	1433.9
1869.01003	1427.1
1872.15258	1426.6
1875.29308	1423.8
1878.43152	1427.8
1881.56792	1419.4
1884.70227	1415.4
1887.83457	1416.5
1890.96482	1415.9
1894.09304	1409.1
1897.21921	1410.9
1900.34335	1407.7
1903.46544	1397.1
1906.58551	1393.6
1909.70353	1394.3
1912.81953	1396.6
1915.93349	1388.5
1919.04543	1387.2
1922.15534	1383
1925.26322	1381.6
1928.36908	1379.1
1931.47292	1371.7
1934.57473	1371
1937.67453	1364.6
1940.77232	1359.1
1943.86808	1357
1946.96184	1350.3
1950.05358	1345.3
1953.14331	1354.1
1956.23103	1344.2
1959.31675	1342.2
1962.40046	1328
1965.48217	1332.3
1968.56188	1327.1
1971.63959	1318.8
1974.7153	1311.6
1977.78901	1313.1
1980.86073	1308.3
1983.93046	1302.2
1986.99819	1302.6
1990.06394	1296
1993.1277	1291.5
1996.18947	1286.6
1999.24925	1283.3
2002.30706	1283.4
2005.36288	1274
2008.41672	1270.5
2011.46859	1263.3
2014.51848	1247.5
2017.56639	1257.4
2020.61233	1245
2023.6563	1245.7
2026.6983	1242.4
2029.73833	1241.4
2032.7764	1236.9
2035.8125	1234.5
2038.84664	1224.7
2041.87881	1233.2
2044.90903	1227.4
2047.93729	1232.5
2050.96359	1225.5
2053.98794	1234.4
2057.01034	1224.8
2060.03078	1232.4
2063.04927	1241.2
2066.06582	1233.3
2069.08042	1241.3
2072.09307	1236.3
2075.10378	1248.1
2078.11255	1242.8
2081.11938	1249.1
2084.12426	1251.5
2087.12722	1252.9
2090.12824	1254.6
2093.12732	1255
2096.12447	1262.9
2099.11969	1261.4
2102.11299	1256.6
2105.10435	1250.3
2108.09379	1263
2111.08131	1254.3
2114.0669	1249
2117.05057	1261.1
2120.03233	1253.3
2123.01216	1259.7
2125.99008	1243.8
2128.96609	1253.2
2131.94018	1247
2134.91236	1254.4
2137.88263	1237.1
2140.851	1242.3
2143.81746	1239.8
2146.78201	1231
2149.74466	1228.9
2152.7054	1232.2
2155.66425	1227.5
2158.6212	1218
2161.57625	1219.4
2164.52941	1215
2167.48067	1217.1
2170.43004	1212.2
2173.37752	1201.4
2176.32311	1196
2179.26681	1191.3
2182.20863	1192.4
2185.14856	1196
2188.08661	1189.1
2191.02278	1195.5
2193.95707	1191.1
2196.88948	1185.1
2199.82001	1180.9
2202.74867	1189.4
2205.67545	1184.3
2208.60037	1180.9
2211.52341	1170.9
2214.44458	1172.1
2217.36388	1166
2220.28132	1161.8
2223.1969	1157.2
2226.11061	1163.2
2229.02246	1153.7
2231.93245	1151.4
2234.84058	1149
2237.74686	1136.6
2240.65128	1143.1
2243.55385	1142.2
2246.45456	1137.6
2249.35343	1134
2252.25044	1137.8
2255.14561	1133.2
2258.03893	1128.1
2260.93041	1129.1
2263.82004	1115.3
2266.70783	1115.9
2269.59378	1114.8
2272.4779	1115.8
2275.36017	1112
2278.24061	1108.9
2281.11922	1108.2
2283.996	1106.6
2286.87094	1097.1
2289.74405	1101.6
2292.61534	1091.8
2295.4848	1095.2
2298.35243	1087.5
2301.21824	1096.6
2304.08223	1092.1
2306.94439	1091.6
2309.80474	1088.7
2312.66327	1085.5
2315.51999	1082.8
2318.37489	1080.9
2321.22797	1077
2324.07925	1082.6
2326.92871	1074.1
2329.77637	1077.1
2332.62222	1072.9
2335.46626	1064.5
2338.3085	1068.9
2341.14893	1059.3
2343.98756	1057.6
2346.8244	1055.6
2349.65943	1053.6
2352.49267	1057.4
2355.32411	1054.3
2358.15376	1056.6
2360.98161	1055.6
2363.80768	1047.1
2366.63195	1047.9
2369.45444	1050.6
2372.27514	1050.3
2375.09405	1049.2
2377.91118	1044.4
2380.72652	1039.1
2383.54009	1033.7
2386.35187	1045.6
2389.16188	1033
2391.97011	1035.1
2394.77657	1034
2397.58125	1024.3
2400.38416	1025.7
2403.18529	1012.8
2405.98466	1019.1
2408.78226	1019.2
2411.57809	1016.8
2414.37216	1008.7
2417.16446	1021.1
2419.955	1009.2
2422.74378	1014.6
2425.5308	1002.2
2428.31606	1005.8
2431.09956	997.1
2433.88131	1005.1
2436.6613	1003.8
2439.43954	999.6
2442.21603	1003.3
2444.99077	996.7
2447.76377	1002.8
2450.53501	997.6
2453.30451	999.6
2456.07226	994.7
2458.83827	993.9
2461.60254	989
2464.36507	980.7
2467.12586	982.1
2469.88492	989
2472.64224	986.6
2475.39782	980.9
2478.15167	981
2480.90379	981.8
2483.65417	975.9
2486.40283	972
2489.14976	973.6
2491.89497	974
2494.63845	977.3
2497.3802	971.7
2500.12024	973.4
2502.85855	968.7
2505.59514	965.2
2508.33002	964.6
2511.06318	962.3
2513.79462	958.5
2516.52435	961.5
2519.25237	956
2521.97867	952.6
2524.70327	953.2
2527.42616	953.9
2530.14734	950.6
2532.86681	940.7
2535.58458	942.7
2538.30065	942.9
2541.01501	944.3
2543.72768	943.4
2546.43864	933.1
2549.14791	939.7
2551.85548	939.5
2554.56136	934.1
2557.26554	927.3
2559.96803	921.5
2562.66883	929.1
2565.36794	918.2
2568.06536	924
2570.7611	933.7
2573.45514	918.2
2576.14751	928.7
2578.83819	918.3
2581.52719	916.5
2584.21451	913.8
2586.90015	916.1
2589.58411	912.1
2592.2664	914.3
2594.94701	910.4
2597.62594	908.4
2600.30321	905.5
2602.9788	897.4
2605.65273	897.8
2608.32498	895.9
2610.99557	898.6
2613.66449	893.1
2616.33175	897.2
2618.99734	895.2
2621.66128	892.8
2624.32355	893.1
2626.98416	891.8
2629.64311	886.8
2632.30041	889.8
2634.95605	890.1
2637.61004	886.8
2640.26238	888.8
2642.91306	883.3
2645.56209	882.5
2648.20948	884.6
2650.85521	882.2
2653.4993	882.7
2656.14175	887.9
2658.78255	886.7
2661.42171	880
2664.05923	871.4
2666.6951	874.6
2669.32934	883.1
2671.96194	875.4
2674.59291	883.7
2677.22224	884.2
2679.84993	884.7
2682.476	881.5
2685.10043	880.1
2687.72324	885.5
2690.34441	882.9
2692.96396	884.5
2695.58188	884
2698.19818	885.8
2700.81285	884.1
2703.4259	881.9
2706.03733	871.8
2708.64714	882.4
2711.25533	883.8
2713.86191	882.8
2716.46687	886.3
2719.07021	889.1
2721.67194	890.9
2724.27206	882.4
2726.87057	880
2729.46747	882.9
2732.06276	879.4
2734.65644	884.5
2737.24852	879.5
2739.83899	882.5
2742.42786	878.2
2745.01513	869.5
2747.60079	875.8
2750.18486	878.4
2752.76733	871.2
2755.3482	868.2
2757.92747	876.8
2760.50515	866.4
2763.08123	862
2765.65573	865.3
2768.22863	856.6
2770.79994	856.7
2773.36967	856.5
2775.9378	861.7
2778.50435	853.1
2781.06932	853.8
2783.6327	849
2786.1945	856.9
2788.75471	850.4
2791.31335	852.4
2793.87041	848.8
2796.42589	838.6
2798.97979	841.2
2801.53212	836.5
2804.08288	836.9
2806.63206	841.2
2809.17967	829
2811.72571	831.8
2814.27018	835
2816.81308	828.2
2819.35442	823.3
2821.89419	823.7
2824.43239	825.9
2826.96904	823.7
2829.50412	825
2832.03763	822.4
2834.56959	827.8
2837.1	823.4
2839.62884	821.2
2842.15613	814.2
2844.68186	818.8
2847.20604	823.6
2849.72867	821.1
2852.24974	825.5
2854.76927	824.3
2857.28724	821.6
2859.80367	814.4
2862.31855	821.9
2864.83189	817.7
2867.34368	818.9
2869.85393	816.3
2872.36264	814.9
2874.8698	823.9
2877.37543	825
2879.87952	829.6
2882.38207	834.7
2884.88308	831.4
2887.38256	838.1
2889.88051	838.2
2892.37692	842.1
2894.8718	846.8
2897.36515	847.9
2899.85698	849.1
2902.34727	863.7
2904.83604	869.8
2907.32328	869
2909.809	870
2912.29319	880.3
2914.77587	878.8
2917.25702	877.4
2919.73665	885.7
2922.21476	884.6
2924.69136	899.9
2927.16644	897.7
2929.64	898.9
2932.11205	901.5
2934.58258	905.8
2937.05161	899
2939.51912	901.1
2941.98513	892.7
2944.44962	897.3
2946.91261	885.3
2949.37409	887.8
2951.83407	872
2954.29254	872.2
2956.74951	870.1
2959.20498	859.6
2961.65895	847.4
2964.11142	851.9
2966.56239	845.8
2969.01186	841.4
2971.45984	837
2973.90632	829
2976.35131	835.6
2978.7948	831.7
2981.23681	827.5
2983.67732	826.9
2986.11635	821.1
2988.55388	827.3
2990.98993	821.8
2993.4245	817.2
2995.85758	818.2
2998.28917	825
3000.71928	811.3
3003.14791	823
3005.57506	820.8
3008.00073	821.5
3010.42493	815.4
3012.84764	817.5
3015.26888	818.7
3017.68865	814.1
3020.10694	819.7
3022.52376	822.1
3024.9391	816.1
3027.35298	815.5
3029.76539	810.7
3032.17632	823
3034.5858	820.4
3036.9938	825.3
3039.40034	821.2
3041.80542	813
3044.20903	815.5
3046.61118	824
3049.01187	817.6
3051.4111	823.4
3053.80888	830.8
3056.20519	827.7
3058.60005	826.4
3060.99345	832.5
3063.3854	827.2
3065.7759	831.5
3068.16494	828.1
3070.55254	839.5
3072.93868	837.6
3075.32338	839.4
3077.70662	838.4
3080.08842	842
3082.46878	841.3
3084.84769	839.8
3087.22515	852.7
3089.60118	854.6
3091.97576	866.7
3094.3489	860.3
3096.72061	864.9
3099.09087	865.3
3101.4597	867.9
3103.82709	873.8
3106.19305	872.9
3108.55757	878.8
3110.92066	877.7
3113.28232	886.9
3115.64255	888.8
3118.00134	892.9
3120.35871	895.3
3122.71466	894.1
3125.06917	898.7
3127.42226	899.5
3129.77393	906.1
3132.12417	914.9
3134.47299	919.7
3136.82039	918
3139.16636	926.9
3141.51092	936.1
3143.85406	940.1
3146.19579	942.2
3148.53609	953
3150.87499	963.3
3153.21246	967.9
3155.54853	965.2
3157.88318	977.4
3160.21642	982.7
3162.54826	985.8
3164.87868	991.3
3167.2077	994.1
3169.5353	1004.1
3171.86151	1001.1
3174.18631	1007.5
3176.5097	1008.7
3178.83169	1017.3
3181.15228	1019.7
3183.47147	1022.6
3185.78926	1030.7
3188.10565	1034.1
3190.42065	1032.8
3192.73424	1047.3
3195.04645	1041.2
3197.35725	1049.3
3199.66667	1058.5
3201.97469	1057.4
3204.28132	1062.8
3206.58656	1065
3208.8904	1068.5
3211.19287	1069.9
3213.49394	1077
3215.79363	1081.8
3218.09193	1083.3
3220.38884	1079.6
3222.68438	1084.5
3224.97853	1082.5
3227.2713	1087.1
3229.56269	1086.6
3231.8527	1088
3234.14133	1081.5
3236.42858	1075.6
3238.71446	1084.1
3240.99896	1086.4
3243.28209	1095.9
3245.56384	1084.1
3247.84423	1088
3250.12324	1086.5
3252.40088	1090
3254.67715	1099.7
3256.95205	1089.8
3259.22558	1094.5
3261.49775	1094.4
3263.76855	1089.2
3266.03799	1088.7
3268.30606	1093.4
3270.57277	1089.1
3272.83812	1087.8
3275.10211	1090.7
3277.36474	1088.9
3279.62601	1090.5
3281.88593	1086.6
3284.14448	1087.9
3286.40168	1085.1
3288.65753	1087.4
3290.91202	1091.9
3293.16516	1081.1
3295.41695	1076.1
3297.66738	1073
3299.91647	1067.8
3302.16421	1063.9
3304.4106	1059.8
3306.65564	1053.3
3308.89933	1052.2
3311.14169	1039.5
3313.38269	1040.2
3315.62236	1034.1
3317.86068	1024.8
3320.09766	1020.3
3322.3333	1014.9
3324.5676	1011
3326.80056	999.5
3329.03219	991.4
3331.26248	-1.1
3333.49143	0.9
3335.71905	-1.6
