Data from AgNPs_FTO_APTES_UA_0.1mM_CRN_0uM_NaF_0.1M_Addition_RamanShift__60__11-12-37-525.txt Node

Date: Mon Dec 20 11:12:37 GMT 2021
User: TCL
Spectrometer: QEP01345
Trigger mode: 4
Integration Time (sec): 7.000000E0
Scans to average: 10
Electric dark correction enabled: true
Nonlinearity correction enabled: false
Boxcar width: 0
XAxis mode: Raman Shifts
Number of Pixels in Spectrum: 1044
>>>>>Begin Spectral Data<<<<<
46.04893	0.1375
50.45542	0.7375
54.85868	-0.8625
59.25871	0.1375
63.6555	27.8375
68.04907	29.7375
72.43941	33.5375
76.82654	33.6375
81.21044	35.2375
85.59113	39.8375
89.96862	39.2375
94.34289	39.5375
98.71396	41.8375
103.08183	42.3375
107.4465	42.3375
111.80798	45.9375
116.16626	45.5375
120.52136	46.5375
124.87327	47.1375
129.222	48.3375
133.56755	50.1375
137.90993	55.6375
142.24913	57.0375
146.58517	59.6375
150.91804	69.3375
155.24774	78.8375
159.57429	94.5375
163.89768	119.3375
168.21792	158.1375
172.53501	195.0375
176.84895	269.5375
181.15975	371.2375
185.46741	508.0375
189.77193	700.5375
194.07331	924.6375
198.37157	1188.0375
202.6667	1461.6375
206.9587	1732.8375
211.24758	2013.3375
215.53334	2282.3375
219.81599	2561.7375
224.09553	2855.3375
228.37195	3208.2375
232.64527	3563.4375
236.91549	3914.9375
241.18261	4254.7375
245.44663	4544.8375
249.70755	4781.5375
253.96539	4961.8375
258.22014	5122.3375
262.4718	5242.6375
266.72039	5303.1375
270.96589	5324.1375
275.20832	5292.8375
279.44768	5229.5375
283.68397	5160.9375
287.91719	5107.0375
292.14735	5093.6375
296.37445	5155.2375
300.59849	5290.2375
304.81948	5449.3375
309.03742	5617.9375
313.25231	5595.0375
317.46415	5389.8375
321.67296	5027.0375
325.87872	4706.2375
330.08145	4533.1375
334.28114	4486.6375
338.47781	4548.5375
342.67145	4640.6375
346.86207	4782.0375
351.04966	5039.2375
355.23424	5335.1375
359.4158	5575.1375
363.59435	5694.8375
367.76989	5772.5375
371.94243	5785.6375
376.11196	5791.3375
380.27849	5810.5375
384.44203	5820.1375
388.60257	5786.3375
392.76012	5774.2375
396.91468	5820.2375
401.06626	5941.8375
405.21485	6020.7375
409.36047	5911.5375
413.50311	5632.5375
417.64277	5373.3375
421.77947	5209.7375
425.9132	5136.0375
430.04396	5120.6375
434.17176	5141.2375
438.2966	5216.3375
442.41849	5332.8375
446.53742	5487.8375
450.6534	5639.3375
454.76644	5731.5375
458.87653	5731.3375
462.98368	5655.9375
467.08789	5570.9375
471.18916	5490.7375
475.2875	5419.3375
479.38291	5377.3375
483.4754	5410.7375
487.56496	5519.7375
491.6516	5662.3375
495.73531	5714.6375
499.81612	5642.6375
503.89401	5566.1375
507.96899	5496.8375
512.04106	5528.1375
516.11023	5643.1375
520.1765	5768.5375
524.23987	5879.1375
528.30034	5873.3375
532.35792	5772.9375
536.41261	5597.9375
540.46441	5387.7375
544.51333	5220.2375
548.55936	5148.1375
552.60252	5161.9375
556.64279	5228.2375
560.6802	5291.8375
564.71473	5344.9375
568.7464	5533.1375
572.7752	5692.6375
576.80114	5594.5375
580.82422	5486.6375
584.84444	5532.2375
588.86181	5649.4375
592.87633	5784.5375
596.888	5827.4375
600.89682	5881.6375
604.9028	6303.0375
608.90594	7654.5375
612.90624	9617.9375
616.90371	9764.0375
620.89834	7847.2375
624.89015	7202.0375
628.87913	7592.8375
632.86528	8098.0375
636.84862	8287.7375
640.82913	7971.7375
644.80683	7299.1375
648.78172	6599.9375
652.75379	6163.8375
656.72306	5951.6375
660.68952	5970.5375
664.65319	5821.6375
668.61405	5547.6375
672.57211	5401.5375
676.52738	5347.8375
680.47986	5334.9375
684.42955	5295.6375
688.37646	5278.5375
692.32058	5314.3375
696.26192	5321.7375
700.20048	5348.9375
704.13626	5321.6375
708.06928	5261.9375
711.99952	5197.4375
715.927	5196.1375
719.85171	5285.2375
723.77365	5347.8375
727.69284	5313.1375
731.60928	5216.9375
735.52295	5129.6375
739.43388	5105.5375
743.34206	5121.9375
747.24749	5164.6375
751.15017	5182.7375
755.05012	5283.4375
758.94733	5424.0375
762.8418	5875.0375
766.73354	6637.9375
770.62254	7422.5375
774.50882	7887.5375
778.39237	7657.0375
782.27321	6831.3375
786.15132	5980.5375
790.02671	5524.4375
793.89938	5368.2375
797.76935	5387.8375
801.6366	5570.4375
805.50115	5957.3375
809.36299	6363.5375
813.22213	6470.2375
817.07857	6245.4375
820.93231	5864.4375
824.78336	5498.7375
828.63172	5269.8375
832.47738	5117.8375
836.32036	5030.9375
840.16066	4989.0375
843.99827	4939.9375
847.8332	4935.4375
851.66546	4906.5375
855.49504	4907.2375
859.32195	4925.1375
863.1462	4964.3375
866.96777	5058.1375
870.78668	5243.6375
874.60293	5482.1375
878.41652	5754.2375
882.22745	6029.8375
886.03573	6157.3375
889.84136	6095.8375
893.64433	5850.9375
897.44466	5514.0375
901.24235	5198.0375
905.0374	4976.8375
908.8298	4835.6375
912.61957	4765.3375
916.40671	4719.5375
920.19121	4686.7375
923.97308	4734.8375
927.75233	4751.7375
931.52895	4782.0375
935.30295	4761.8375
939.07433	4657.1375
942.84309	4559.4375
946.60924	4516.0375
950.37278	4464.8375
954.13371	4463.0375
957.89203	4440.3375
961.64774	4419.8375
965.40086	4412.9375
969.15137	4390.2375
972.89929	4403.1375
976.64461	4389.1375
980.38733	4384.1375
984.12747	4397.3375
987.86502	4439.0375
991.59999	4496.0375
995.33237	4579.4375
999.06217	4763.5375
1002.78939	4975.4375
1006.51404	5200.0375
1010.23611	5395.1375
1013.95561	5522.6375
1017.67255	5507.6375
1021.38692	5393.8375
1025.09872	5215.0375
1028.80796	5031.1375
1032.51465	4897.5375
1036.21877	4825.0375
1039.92035	4793.1375
1043.61937	4756.9375
1047.31584	4721.3375
1051.00976	4729.5375
1054.70114	4735.1375
1058.38998	4789.3375
1062.07627	4880.7375
1065.76003	4983.8375
1069.44126	5045.9375
1073.11995	5079.2375
1076.79611	5078.0375
1080.46974	5078.9375
1084.14085	5099.9375
1087.80943	5139.1375
1091.47549	5115.4375
1095.13903	5014.8375
1098.80005	4869.1375
1102.45857	4738.2375
1106.11456	4744.0375
1109.76805	4825.2375
1113.41903	4987.3375
1117.06751	5254.5375
1120.71348	5661.4375
1124.35696	6228.1375
1127.99793	6865.8375
1131.63641	7354.5375
1135.2724	7465.6375
1138.90589	7362.1375
1142.5369	7039.4375
1146.16542	6544.5375
1149.79145	6036.5375
1153.415	5605.8375
1157.03607	5296.3375
1160.65467	5163.9375
1164.27079	5141.5375
1167.88443	5312.1375
1171.49561	5637.2375
1175.10432	6240.1375
1178.71056	7051.1375
1182.31434	7709.4375
1185.91565	8016.1375
1189.51451	8090.7375
1193.11091	8095.6375
1196.70485	8082.0375
1200.29634	8099.9375
1203.88538	7970.5375
1207.47197	7583.7375
1211.05612	7062.2375
1214.63782	6570.3375
1218.21708	6163.3375
1221.79391	5869.3375
1225.36829	5636.0375
1228.94024	5459.4375
1232.50976	5334.0375
1236.07685	5247.2375
1239.6415	5271.9375
1243.20374	5290.5375
1246.76355	5346.0375
1250.32093	5377.8375
1253.8759	5463.3375
1257.42845	5605.0375
1260.97859	5718.3375
1264.52631	5856.8375
1268.07163	5966.0375
1271.61453	6038.7375
1275.15503	6082.9375
1278.69312	6086.4375
1282.22882	6090.7375
1285.76211	6196.7375
1289.29301	6386.4375
1292.82151	6612.5375
1296.34761	6867.5375
1299.87133	7240.6375
1303.39266	7811.2375
1306.9116	8641.9375
1310.42815	9559.9375
1313.94233	10171.2375
1317.45412	10123.1375
1320.96354	9574.6375
1324.47058	8941.3375
1327.97525	8378.1375
1331.47754	8045.2375
1334.97747	7970.5375
1338.47502	8087.9375
1341.97022	8342.7375
1345.46305	8664.2375
1348.95352	9117.8375
1352.44163	9730.7375
1355.92738	10613.2375
1359.41078	11824.7375
1362.89183	12975.3375
1366.37053	12668.2375
1369.84688	11138.0375
1373.32088	9495.4375
1376.79254	8382.1375
1380.26186	7783.6375
1383.72883	7484.5375
1387.19347	7249.4375
1390.65578	7012.3375
1394.11575	6817.7375
1397.57339	6702.0375
1401.0287	6670.0375
1404.48168	6641.2375
1407.93234	6558.7375
1411.38068	6460.6375
1414.82669	6318.3375
1418.27039	6107.7375
1421.71177	5898.0375
1425.15083	5717.5375
1428.58758	5628.5375
1432.02203	5643.7375
1435.45416	5683.4375
1438.88399	5704.3375
1442.31151	5738.9375
1445.73673	5749.6375
1449.15965	5798.9375
1452.58027	5770.5375
1455.9986	5716.8375
1459.41463	5682.0375
1462.82837	5718.5375
1466.23982	5818.0375
1469.64898	5943.1375
1473.05586	6016.9375
1476.46045	6093.1375
1479.86276	6203.9375
1483.26279	6340.6375
1486.66054	6515.7375
1490.05602	6724.5375
1493.44922	7017.9375
1496.84016	7364.2375
1500.22882	7922.8375
1503.61521	8703.3375
1506.99934	9558.5375
1510.38121	10363.5375
1513.76081	10695.6375
1517.13816	10248.2375
1520.51324	9181.0375
1523.88607	8045.8375
1527.25665	7318.4375
1530.62498	6932.6375
1533.99105	6820.9375
1537.35488	6765.8375
1540.71647	6783.5375
1544.07581	6828.1375
1547.4329	6861.4375
1550.78776	6884.0375
1554.14038	6844.1375
1557.49077	6839.9375
1560.83892	6869.5375
1564.18484	6980.1375
1567.52853	7116.8375
1570.86999	7278.4375
1574.20922	7388.9375
1577.54624	7413.8375
1580.88103	7199.8375
1584.2136	6835.2375
1587.54395	6643.2375
1590.87208	6736.4375
1594.19801	7037.8375
1597.52172	7487.7375
1600.84321	7820.4375
1604.16251	7746.8375
1607.47959	7430.0375
1610.79447	6971.8375
1614.10715	6524.6375
1617.41763	6217.8375
1620.7259	6031.1375
1624.03199	5967.2375
1627.33587	5991.6375
1630.63757	6084.1375
1633.93707	6334.5375
1637.23439	6716.6375
1640.52951	7327.2375
1643.82246	8115.9375
1647.11321	9042.8375
1650.40179	9717.9375
1653.68819	9632.5375
1656.97241	8749.0375
1660.25446	7606.8375
1663.53433	6724.1375
1666.81203	6097.5375
1670.08756	5657.8375
1673.36092	5354.6375
1676.63211	5137.6375
1679.90115	4958.8375
1683.16801	4832.1375
1686.43272	4717.2375
1689.69527	4624.0375
1692.95567	4532.5375
1696.2139	4461.8375
1699.46999	4399.8375
1702.72392	4305.5375
1705.97571	4252.4375
1709.22535	4166.6375
1712.47284	4116.5375
1715.71819	4076.2375
1718.96139	4026.9375
1722.20246	3985.9375
1725.44139	3944.9375
1728.67818	3888.6375
1731.91284	3832.5375
1735.14537	3795.4375
1738.37576	3743.3375
1741.60403	3723.5375
1744.83017	3700.3375
1748.05418	3685.4375
1751.27607	3660.6375
1754.49584	3653.2375
1757.71349	3648.8375
1760.92903	3638.7375
1764.14244	3614.2375
1767.35375	3595.3375
1770.56294	3582.3375
1773.77002	3560.2375
1776.97499	3526.4375
1780.17785	3513.6375
1783.37861	3506.3375
1786.57727	3503.7375
1789.77382	3473.2375
1792.96828	3476.7375
1796.16064	3453.5375
1799.3509	3440.0375
1802.53907	3428.7375
1805.72514	3410.7375
1808.90913	3395.9375
1812.09102	3384.4375
1815.27083	3371.5375
1818.44856	3370.6375
1821.6242	3363.1375
1824.79776	3363.6375
1827.96924	3358.3375
1831.13864	3339.8375
1834.30597	3343.8375
1837.47122	3348.1375
1840.6344	3325.9375
1843.7955	3329.1375
1846.95454	3311.4375
1850.11151	3303.6375
1853.26642	3306.4375
1856.41926	3300.1375
1859.57004	3310.0375
1862.71876	3304.9375
1865.86542	3296.2375
1869.01003	3288.0375
1872.15258	3284.6375
1875.29308	3281.4375
1878.43152	3274.8375
1881.56792	3272.6375
1884.70227	3269.2375
1887.83457	3267.9375
1890.96482	3254.7375
1894.09304	3258.2375
1897.21921	3260.3375
1900.34335	3255.3375
1903.46544	3251.4375
1906.58551	3247.3375
1909.70353	3240.3375
1912.81953	3241.1375
1915.93349	3220.8375
1919.04543	3222.4375
1922.15534	3217.6375
1925.26322	3212.4375
1928.36908	3212.6375
1931.47292	3200.0375
1934.57473	3183.1375
1937.67453	3167.2375
1940.77232	3164.8375
1943.86808	3148.5375
1946.96184	3149.4375
1950.05358	3133.2375
1953.14331	3128.9375
1956.23103	3107.7375
1959.31675	3115.6375
1962.40046	3090.9375
1965.48217	3089.2375
1968.56188	3085.2375
1971.63959	3067.1375
1974.7153	3061.1375
1977.78901	3049.5375
1980.86073	3045.9375
1983.93046	3038.9375
1986.99819	3016.4375
1990.06394	3000.4375
1993.1277	3008.6375
1996.18947	2994.1375
1999.24925	2987.2375
2002.30706	2964.3375
2005.36288	2965.1375
2008.41672	2957.9375
2011.46859	2938.8375
2014.51848	2948.0375
2017.56639	2925.4375
2020.61233	2916.8375
2023.6563	2913.8375
2026.6983	2906.2375
2029.73833	2889.5375
2032.7764	2887.5375
2035.8125	2887.9375
2038.84664	2881.8375
2041.87881	2881.8375
2044.90903	2871.0375
2047.93729	2868.2375
2050.96359	2870.9375
2053.98794	2855.8375
2057.01034	2868.4375
2060.03078	2851.9375
2063.04927	2833.1375
2066.06582	2836.4375
2069.08042	2854.8375
2072.09307	2849.3375
2075.10378	2838.2375
2078.11255	2836.7375
2081.11938	2824.0375
2084.12426	2817.1375
2087.12722	2837.0375
2090.12824	2827.8375
2093.12732	2829.9375
2096.12447	2825.6375
2099.11969	2822.2375
2102.11299	2822.6375
2105.10435	2827.3375
2108.09379	2805.4375
2111.08131	2828.2375
2114.0669	2825.4375
2117.05057	2835.6375
2120.03233	2831.8375
2123.01216	2819.8375
2125.99008	2821.7375
2128.96609	2835.3375
2131.94018	2836.5375
2134.91236	2834.4375
2137.88263	2838.4375
2140.851	2836.7375
2143.81746	2838.0375
2146.78201	2837.8375
2149.74466	2823.0375
2152.7054	2818.2375
2155.66425	2830.8375
2158.6212	2831.2375
2161.57625	2818.4375
2164.52941	2816.2375
2167.48067	2810.8375
2170.43004	2805.1375
2173.37752	2807.1375
2176.32311	2814.3375
2179.26681	2802.7375
2182.20863	2808.9375
2185.14856	2811.8375
2188.08661	2821.0375
2191.02278	2804.2375
2193.95707	2814.6375
2196.88948	2798.9375
2199.82001	2789.3375
2202.74867	2778.9375
2205.67545	2785.8375
2208.60037	2784.0375
2211.52341	2777.7375
2214.44458	2765.3375
2217.36388	2763.6375
2220.28132	2768.3375
2223.1969	2751.8375
2226.11061	2749.2375
2229.02246	2737.2375
2231.93245	2730.6375
2234.84058	2745.6375
2237.74686	2723.5375
2240.65128	2727.0375
2243.55385	2712.0375
2246.45456	2716.9375
2249.35343	2716.8375
2252.25044	2713.5375
2255.14561	2696.9375
2258.03893	2699.5375
2260.93041	2712.4375
2263.82004	2696.2375
2266.70783	2674.2375
2269.59378	2689.8375
2272.4779	2678.0375
2275.36017	2679.6375
2278.24061	2657.6375
2281.11922	2656.5375
2283.996	2650.6375
2286.87094	2646.8375
2289.74405	2647.6375
2292.61534	2642.2375
2295.4848	2631.3375
2298.35243	2627.3375
2301.21824	2617.7375
2304.08223	2619.0375
2306.94439	2617.0375
2309.80474	2610.3375
2312.66327	2614.2375
2315.51999	2611.0375
2318.37489	2602.7375
2321.22797	2592.0375
2324.07925	2596.4375
2326.92871	2593.2375
2329.77637	2587.5375
2332.62222	2585.9375
2335.46626	2576.6375
2338.3085	2573.7375
2341.14893	2574.5375
2343.98756	2567.8375
2346.8244	2586.4375
2349.65943	2571.5375
2352.49267	2573.2375
2355.32411	2573.9375
2358.15376	2574.2375
2360.98161	2576.3375
2363.80768	2568.0375
2366.63195	2576.9375
2369.45444	2588.3375
2372.27514	2579.6375
2375.09405	2574.1375
2377.91118	2565.1375
2380.72652	2567.9375
2383.54009	2555.1375
2386.35187	2562.5375
2389.16188	2539.7375
2391.97011	2535.9375
2394.77657	2525.8375
2397.58125	2520.3375
2400.38416	2517.9375
2403.18529	2510.6375
2405.98466	2512.8375
2408.78226	2499.7375
2411.57809	2488.9375
2414.37216	2487.2375
2417.16446	2483.8375
2419.955	2469.6375
2422.74378	2468.8375
2425.5308	2463.7375
2428.31606	2464.9375
2431.09956	2468.2375
2433.88131	2450.7375
2436.6613	2460.2375
2439.43954	2456.8375
2442.21603	2455.7375
2444.99077	2430.3375
2447.76377	2450.3375
2450.53501	2458.6375
2453.30451	2451.5375
2456.07226	2443.9375
2458.83827	2445.0375
2461.60254	2432.0375
2464.36507	2426.4375
2467.12586	2439.5375
2469.88492	2427.7375
2472.64224	2428.9375
2475.39782	2433.6375
2478.15167	2432.9375
2480.90379	2430.9375
2483.65417	2425.8375
2486.40283	2437.3375
2489.14976	2434.8375
2491.89497	2437.6375
2494.63845	2441.7375
2497.3802	2430.8375
2500.12024	2422.6375
2502.85855	2426.8375
2505.59514	2424.8375
2508.33002	2398.9375
2511.06318	2410.2375
2513.79462	2395.6375
2516.52435	2392.1375
2519.25237	2382.9375
2521.97867	2378.7375
2524.70327	2381.1375
2527.42616	2361.1375
2530.14734	2365.8375
2532.86681	2356.5375
2535.58458	2362.6375
2538.30065	2354.0375
2541.01501	2350.4375
2543.72768	2349.1375
2546.43864	2338.1375
2549.14791	2340.3375
2551.85548	2347.4375
2554.56136	2330.7375
2557.26554	2331.1375
2559.96803	2323.6375
2562.66883	2328.9375
2565.36794	2314.8375
2568.06536	2319.5375
2570.7611	2313.3375
2573.45514	2302.5375
2576.14751	2309.8375
2578.83819	2293.8375
2581.52719	2294.8375
2584.21451	2287.0375
2586.90015	2293.9375
2589.58411	2280.4375
2592.2664	2271.3375
2594.94701	2277.4375
2597.62594	2264.7375
2600.30321	2254.0375
2602.9788	2253.4375
2605.65273	2263.0375
2608.32498	2261.5375
2610.99557	2256.2375
2613.66449	2245.9375
2616.33175	2256.1375
2618.99734	2249.6375
2621.66128	2257.7375
2624.32355	2246.5375
2626.98416	2244.7375
2629.64311	2243.8375
2632.30041	2240.2375
2634.95605	2236.3375
2637.61004	2223.8375
2640.26238	2231.7375
2642.91306	2218.7375
2645.56209	2214.3375
2648.20948	2217.2375
2650.85521	2214.7375
2653.4993	2206.9375
2656.14175	2211.1375
2658.78255	2208.8375
2661.42171	2207.6375
2664.05923	2224.0375
2666.6951	2215.6375
2669.32934	2215.6375
2671.96194	2225.7375
2674.59291	2230.3375
2677.22224	2223.1375
2679.84993	2228.2375
2682.476	2225.8375
2685.10043	2219.8375
2687.72324	2220.9375
2690.34441	2229.6375
2692.96396	2222.0375
2695.58188	2229.7375
2698.19818	2226.5375
2700.81285	2224.6375
2703.4259	2241.1375
2706.03733	2257.5375
2708.64714	2246.9375
2711.25533	2243.6375
2713.86191	2237.2375
2716.46687	2248.2375
2719.07021	2244.6375
2721.67194	2235.3375
2724.27206	2239.6375
2726.87057	2241.8375
2729.46747	2242.9375
2732.06276	2239.6375
2734.65644	2224.0375
2737.24852	2238.0375
2739.83899	2235.8375
2742.42786	2219.2375
2745.01513	2227.0375
2747.60079	2219.4375
2750.18486	2211.3375
2752.76733	2216.2375
2755.3482	2213.6375
2757.92747	2208.4375
2760.50515	2205.0375
2763.08123	2212.4375
2765.65573	2211.3375
2768.22863	2197.2375
2770.79994	2210.5375
2773.36967	2202.0375
2775.9378	2205.7375
2778.50435	2193.0375
2781.06932	2205.6375
2783.6327	2199.1375
2786.1945	2203.3375
2788.75471	2196.0375
2791.31335	2196.6375
2793.87041	2180.9375
2796.42589	2182.0375
2798.97979	2183.3375
2801.53212	2195.5375
2804.08288	2178.0375
2806.63206	2181.8375
2809.17967	2177.4375
2811.72571	2177.9375
2814.27018	2174.7375
2816.81308	2184.3375
2819.35442	2181.4375
2821.89419	2180.9375
2824.43239	2189.7375
2826.96904	2185.7375
2829.50412	2182.2375
2832.03763	2175.6375
2834.56959	2195.1375
2837.1	2188.6375
2839.62884	2194.2375
2842.15613	2190.1375
2844.68186	2203.1375
2847.20604	2207.5375
2849.72867	2207.7375
2852.24974	2229.6375
2854.76927	2236.9375
2857.28724	2226.8375
2859.80367	2224.3375
2862.31855	2219.0375
2864.83189	2220.9375
2867.34368	2214.1375
2869.85393	2217.9375
2872.36264	2214.5375
2874.8698	2216.2375
2877.37543	2213.9375
2879.87952	2211.2375
2882.38207	2218.9375
2884.88308	2216.0375
2887.38256	2209.2375
2889.88051	2204.7375
2892.37692	2213.7375
2894.8718	2216.4375
2897.36515	2222.3375
2899.85698	2218.5375
2902.34727	2212.3375
2904.83604	2215.9375
2907.32328	2226.6375
2909.809	2226.1375
2912.29319	2220.6375
2914.77587	2214.0375
2917.25702	2215.0375
2919.73665	2227.2375
2922.21476	2220.2375
2924.69136	2198.9375
2927.16644	2207.2375
2929.64	2195.9375
2932.11205	2197.9375
2934.58258	2196.4375
2937.05161	2191.6375
2939.51912	2180.2375
2941.98513	2185.5375
2944.44962	2171.2375
2946.91261	2167.9375
2949.37409	2169.8375
2951.83407	2147.7375
2954.29254	2160.6375
2956.74951	2151.9375
2959.20498	2141.1375
2961.65895	2129.7375
2964.11142	2143.4375
2966.56239	2126.4375
2969.01186	2129.9375
2971.45984	2113.2375
2973.90632	2109.5375
2976.35131	2110.3375
2978.7948	2132.2375
2981.23681	2105.6375
2983.67732	2099.6375
2986.11635	2094.5375
2988.55388	2093.1375
2990.98993	2096.7375
2993.4245	2080.7375
2995.85758	2079.8375
2998.28917	2084.1375
3000.71928	2080.2375
3003.14791	2074.9375
3005.57506	2095.0375
3008.00073	2075.4375
3010.42493	2068.7375
3012.84764	2080.8375
3015.26888	2069.5375
3017.68865	2076.1375
3020.10694	2075.6375
3022.52376	2076.6375
3024.9391	2082.8375
3027.35298	2074.5375
3029.76539	2083.4375
3032.17632	2083.1375
3034.5858	2076.9375
3036.9938	2080.0375
3039.40034	2081.2375
3041.80542	2068.8375
3044.20903	2074.4375
3046.61118	2078.7375
3049.01187	2079.6375
3051.4111	2068.6375
3053.80888	2068.2375
3056.20519	2075.2375
3058.60005	2075.9375
3060.99345	2085.1375
3063.3854	2074.5375
3065.7759	2074.8375
3068.16494	2078.3375
3070.55254	2062.6375
3072.93868	2066.9375
3075.32338	2063.7375
3077.70662	2075.1375
3080.08842	2072.9375
3082.46878	2069.3375
3084.84769	2069.1375
3087.22515	2079.9375
3089.60118	2078.6375
3091.97576	2085.3375
3094.3489	2089.0375
3096.72061	2105.7375
3099.09087	2100.1375
3101.4597	2105.1375
3103.82709	2109.5375
3106.19305	2108.8375
3108.55757	2114.1375
3110.92066	2105.7375
3113.28232	2117.2375
3115.64255	2120.1375
3118.00134	2119.8375
3120.35871	2111.2375
3122.71466	2125.7375
3125.06917	2124.4375
3127.42226	2130.5375
3129.77393	2137.4375
3132.12417	2150.8375
3134.47299	2156.4375
3136.82039	2164.4375
3139.16636	2166.1375
3141.51092	2178.1375
3143.85406	2177.0375
3146.19579	2185.8375
3148.53609	2188.5375
3150.87499	2196.9375
3153.21246	2204.0375
3155.54853	2221.8375
3157.88318	2221.4375
3160.21642	2231.0375
3162.54826	2235.9375
3164.87868	2236.2375
3167.2077	2248.7375
3169.5353	2238.2375
3171.86151	2263.4375
3174.18631	2265.1375
3176.5097	2261.1375
3178.83169	2267.3375
3181.15228	2274.5375
3183.47147	2283.6375
3185.78926	2289.0375
3188.10565	2276.6375
3190.42065	2296.1375
3192.73424	2298.2375
3195.04645	2307.5375
3197.35725	2312.2375
3199.66667	2321.0375
3201.97469	2340.6375
3204.28132	2335.2375
3206.58656	2348.2375
3208.8904	2350.0375
3211.19287	2354.9375
3213.49394	2357.4375
3215.79363	2370.7375
3218.09193	2359.7375
3220.38884	2379.3375
3222.68438	2377.6375
3224.97853	2382.9375
3227.2713	2377.8375
3229.56269	2381.0375
3231.8527	2377.0375
3234.14133	2366.2375
3236.42858	2368.6375
3238.71446	2380.4375
3240.99896	2371.8375
3243.28209	2389.5375
3245.56384	2378.5375
3247.84423	2388.3375
3250.12324	2386.0375
3252.40088	2375.2375
3254.67715	2375.8375
3256.95205	2370.2375
3259.22558	2377.9375
3261.49775	2376.8375
3263.76855	2379.4375
3266.03799	2366.4375
3268.30606	2372.6375
3270.57277	2363.2375
3272.83812	2358.9375
3275.10211	2352.0375
3277.36474	2356.6375
3279.62601	2363.0375
3281.88593	2363.5375
3284.14448	2351.8375
3286.40168	2358.5375
3288.65753	2353.8375
3290.91202	2364.3375
3293.16516	2342.6375
3295.41695	2335.3375
3297.66738	2324.2375
3299.91647	2322.9375
3302.16421	2312.7375
3304.4106	2302.9375
3306.65564	2284.7375
3308.89933	2282.7375
3311.14169	2268.5375
3313.38269	2262.4375
3315.62236	2241.2375
3317.86068	2215.3375
3320.09766	2189.5375
3322.3333	2163.7375
3324.5676	2188.1375
3326.80056	2149.0375
3329.03219	2142.1375
3331.26248	-0.8625
3333.49143	1.8375
3335.71905	-1.7625
