Data from AgNPs_FTO_APTES_UA_0.1mM_CRN_500uM_NaF_0.1M_Addition_RamanShift__11__14-47-17-768.txt Node

Date: Mon Dec 20 14:47:17 GMT 2021
User: TCL
Spectrometer: QEP01345
Trigger mode: 4
Integration Time (sec): 7.000000E0
Scans to average: 10
Electric dark correction enabled: true
Nonlinearity correction enabled: false
Boxcar width: 0
XAxis mode: Raman Shifts
Number of Pixels in Spectrum: 1044
>>>>>Begin Spectral Data<<<<<
46.04893	0.8375
50.45542	0.8375
54.85868	-1.7625
59.25871	2.1375
63.6555	20.0375
68.04907	23.2375
72.43941	28.0375
76.82654	28.7375
81.21044	27.5375
85.59113	31.9375
89.96862	29.7375
94.34289	32.1375
98.71396	33.1375
103.08183	30.7375
107.4465	35.3375
111.80798	36.1375
116.16626	38.9375
120.52136	39.1375
124.87327	42.0375
129.222	38.5375
133.56755	41.3375
137.90993	41.0375
142.24913	41.8375
146.58517	43.4375
150.91804	50.2375
155.24774	57.4375
159.57429	65.4375
163.89768	82.8375
168.21792	103.9375
172.53501	132.8375
176.84895	185.8375
181.15975	257.0375
185.46741	351.6375
189.77193	497.1375
194.07331	654.1375
198.37157	839.1375
202.6667	1042.6375
206.9587	1257.2375
211.24758	1455.4375
215.53334	1661.8375
219.81599	1866.9375
224.09553	2111.4375
228.37195	2374.1375
232.64527	2663.5375
236.91549	2974.0375
241.18261	3293.8375
245.44663	3573.5375
249.70755	3839.0375
253.96539	4015.3375
258.22014	4106.0375
262.4718	4115.1375
266.72039	4059.7375
270.96589	3941.4375
275.20832	3783.8375
279.44768	3612.0375
283.68397	3454.5375
287.91719	3280.1375
292.14735	3150.8375
296.37445	3045.8375
300.59849	2974.6375
304.81948	2900.6375
309.03742	2871.1375
313.25231	2845.1375
317.46415	2794.8375
321.67296	2767.1375
325.87872	2739.6375
330.08145	2703.8375
334.28114	2696.1375
338.47781	2687.7375
342.67145	2684.9375
346.86207	2687.2375
351.04966	2689.2375
355.23424	2717.3375
359.4158	2730.8375
363.59435	2737.0375
367.76989	2749.3375
371.94243	2769.3375
376.11196	2800.5375
380.27849	2828.9375
384.44203	2855.0375
388.60257	2910.7375
392.76012	2952.5375
396.91468	3030.5375
401.06626	3100.8375
405.21485	3201.1375
409.36047	3253.2375
413.50311	3255.4375
417.64277	3217.6375
421.77947	3186.0375
425.9132	3158.0375
430.04396	3140.4375
434.17176	3118.8375
438.2966	3097.9375
442.41849	3075.3375
446.53742	3080.0375
450.6534	3073.9375
454.76644	3083.1375
458.87653	3097.5375
462.98368	3097.0375
467.08789	3092.5375
471.18916	3112.8375
475.2875	3137.8375
479.38291	3179.8375
483.4754	3225.6375
487.56496	3297.0375
491.6516	3360.4375
495.73531	3411.8375
499.81612	3449.4375
503.89401	3474.6375
507.96899	3473.2375
512.04106	3436.5375
516.11023	3382.3375
520.1765	3297.6375
524.23987	3247.0375
528.30034	3194.0375
532.35792	3170.4375
536.41261	3136.5375
540.46441	3112.0375
544.51333	3094.9375
548.55936	3084.0375
552.60252	3087.3375
556.64279	3084.1375
560.6802	3105.0375
564.71473	3100.0375
568.7464	3117.4375
572.7752	3119.6375
576.80114	3132.4375
580.82422	3169.5375
584.84444	3212.8375
588.86181	3252.9375
592.87633	3281.0375
596.888	3289.4375
600.89682	3319.6375
604.9028	3375.4375
608.90594	3461.5375
612.90624	3572.4375
616.90371	3579.5375
620.89834	3489.8375
624.89015	3432.9375
628.87913	3477.2375
632.86528	3565.8375
636.84862	3650.3375
640.82913	3685.1375
644.80683	3681.5375
648.78172	3636.4375
652.75379	3611.4375
656.72306	3571.3375
660.68952	3550.2375
664.65319	3558.1375
668.61405	3591.0375
672.57211	3645.2375
676.52738	3685.3375
680.47986	3718.3375
684.42955	3732.0375
688.37646	3740.2375
692.32058	3721.2375
696.26192	3659.8375
700.20048	3579.4375
704.13626	3499.9375
708.06928	3403.6375
711.99952	3310.4375
715.927	3236.8375
719.85171	3192.7375
723.77365	3178.4375
727.69284	3151.8375
731.60928	3149.4375
735.52295	3148.4375
739.43388	3175.8375
743.34206	3199.3375
747.24749	3245.4375
751.15017	3289.4375
755.05012	3334.8375
758.94733	3372.1375
762.8418	3383.3375
766.73354	3403.6375
770.62254	3402.9375
774.50882	3388.8375
778.39237	3337.1375
782.27321	3270.6375
786.15132	3182.4375
790.02671	3136.5375
793.89938	3126.6375
797.76935	3147.3375
801.6366	3186.5375
805.50115	3250.2375
809.36299	3304.0375
813.22213	3331.9375
817.07857	3269.7375
820.93231	3200.0375
824.78336	3127.2375
828.63172	3036.6375
832.47738	2984.4375
836.32036	2960.3375
840.16066	2944.9375
843.99827	2947.7375
847.8332	2943.8375
851.66546	2951.2375
855.49504	2953.4375
859.32195	2962.6375
863.1462	2949.0375
866.96777	2967.0375
870.78668	2953.4375
874.60293	2988.7375
878.41652	3012.8375
882.22745	3035.6375
886.03573	3054.3375
889.84136	3072.6375
893.64433	3075.8375
897.44466	3065.9375
901.24235	3042.6375
905.0374	3007.3375
908.8298	2972.2375
912.61957	2966.8375
916.40671	2951.3375
920.19121	2940.0375
923.97308	2910.6375
927.75233	2901.4375
931.52895	2880.5375
935.30295	2880.3375
939.07433	2861.3375
942.84309	2854.6375
946.60924	2833.2375
950.37278	2832.5375
954.13371	2814.6375
957.89203	2823.4375
961.64774	2817.0375
965.40086	2818.2375
969.15137	2804.1375
972.89929	2804.9375
976.64461	2800.8375
980.38733	2798.8375
984.12747	2791.4375
987.86502	2801.5375
991.59999	2803.9375
995.33237	2806.5375
999.06217	2812.4375
1002.78939	2823.5375
1006.51404	2824.0375
1010.23611	2851.7375
1013.95561	2862.3375
1017.67255	2870.5375
1021.38692	2881.5375
1025.09872	2872.1375
1028.80796	2874.9375
1032.51465	2871.7375
1036.21877	2865.2375
1039.92035	2853.2375
1043.61937	2869.6375
1047.31584	2861.3375
1051.00976	2864.1375
1054.70114	2882.0375
1058.38998	2872.2375
1062.07627	2887.6375
1065.76003	2901.8375
1069.44126	2891.5375
1073.11995	2891.5375
1076.79611	2884.3375
1080.46974	2870.9375
1084.14085	2848.3375
1087.80943	2848.4375
1091.47549	2821.7375
1095.13903	2811.1375
1098.80005	2803.0375
1102.45857	2791.6375
1106.11456	2809.6375
1109.76805	2823.2375
1113.41903	2859.5375
1117.06751	2919.7375
1120.71348	3005.1375
1124.35696	3089.3375
1127.99793	3206.4375
1131.63641	3321.2375
1135.2724	3374.1375
1138.90589	3381.7375
1142.5369	3357.8375
1146.16542	3329.1375
1149.79145	3249.3375
1153.415	3132.2375
1157.03607	3035.8375
1160.65467	2966.5375
1164.27079	2920.3375
1167.88443	2893.8375
1171.49561	2897.9375
1175.10432	2912.2375
1178.71056	2949.8375
1182.31434	2990.1375
1185.91565	3032.1375
1189.51451	3053.6375
1193.11091	3062.2375
1196.70485	3073.1375
1200.29634	3077.0375
1203.88538	3096.0375
1207.47197	3110.1375
1211.05612	3115.1375
1214.63782	3136.3375
1218.21708	3143.4375
1221.79391	3148.5375
1225.36829	3137.8375
1228.94024	3118.8375
1232.50976	3086.7375
1236.07685	3052.0375
1239.6415	3042.4375
1243.20374	3027.9375
1246.76355	3036.9375
1250.32093	3057.3375
1253.8759	3076.2375
1257.42845	3110.1375
1260.97859	3121.3375
1264.52631	3148.3375
1268.07163	3133.7375
1271.61453	3115.0375
1275.15503	3087.5375
1278.69312	3071.2375
1282.22882	3046.9375
1285.76211	3048.9375
1289.29301	3045.4375
1292.82151	3052.2375
1296.34761	3075.1375
1299.87133	3124.7375
1303.39266	3171.6375
1306.9116	3218.8375
1310.42815	3294.9375
1313.94233	3351.1375
1317.45412	3379.0375
1320.96354	3395.6375
1324.47058	3393.2375
1327.97525	3400.8375
1331.47754	3402.8375
1334.97747	3438.3375
1338.47502	3446.2375
1341.97022	3478.9375
1345.46305	3506.5375
1348.95352	3559.8375
1352.44163	3605.0375
1355.92738	3651.6375
1359.41078	3712.2375
1362.89183	3771.4375
1366.37053	3764.6375
1369.84688	3683.6375
1373.32088	3584.1375
1376.79254	3510.6375
1380.26186	3439.1375
1383.72883	3388.4375
1387.19347	3336.4375
1390.65578	3285.5375
1394.11575	3258.8375
1397.57339	3221.2375
1401.0287	3179.4375
1404.48168	3149.4375
1407.93234	3118.3375
1411.38068	3087.7375
1414.82669	3060.4375
1418.27039	3033.9375
1421.71177	2981.4375
1425.15083	2946.7375
1428.58758	2904.8375
1432.02203	2867.2375
1435.45416	2846.2375
1438.88399	2826.5375
1442.31151	2806.3375
1445.73673	2793.2375
1449.15965	2790.2375
1452.58027	2775.0375
1455.9986	2784.3375
1459.41463	2790.6375
1462.82837	2794.5375
1466.23982	2817.0375
1469.64898	2848.2375
1473.05586	2860.7375
1476.46045	2881.4375
1479.86276	2896.7375
1483.26279	2897.0375
1486.66054	2907.1375
1490.05602	2911.1375
1493.44922	2931.3375
1496.84016	2955.5375
1500.22882	3001.7375
1503.61521	3049.9375
1506.99934	3120.6375
1510.38121	3160.4375
1513.76081	3173.7375
1517.13816	3140.5375
1520.51324	3098.5375
1523.88607	3061.7375
1527.25665	3048.6375
1530.62498	3040.1375
1533.99105	3047.7375
1537.35488	3078.6375
1540.71647	3124.1375
1544.07581	3158.8375
1547.4329	3204.8375
1550.78776	3233.1375
1554.14038	3275.2375
1557.49077	3309.3375
1560.83892	3343.8375
1564.18484	3362.1375
1567.52853	3384.2375
1570.86999	3405.7375
1574.20922	3422.0375
1577.54624	3427.0375
1580.88103	3417.2375
1584.2136	3402.3375
1587.54395	3405.6375
1590.87208	3392.7375
1594.19801	3381.3375
1597.52172	3413.6375
1600.84321	3399.8375
1604.16251	3372.5375
1607.47959	3355.1375
1610.79447	3323.3375
1614.10715	3283.5375
1617.41763	3252.8375
1620.7259	3220.4375
1624.03199	3183.1375
1627.33587	3170.4375
1630.63757	3178.3375
1633.93707	3188.6375
1637.23439	3221.3375
1640.52951	3244.6375
1643.82246	3304.9375
1647.11321	3360.7375
1650.40179	3398.1375
1653.68819	3405.4375
1656.97241	3368.9375
1660.25446	3300.7375
1663.53433	3232.2375
1666.81203	3201.6375
1670.08756	3167.0375
1673.36092	3110.0375
1676.63211	3071.0375
1679.90115	3028.8375
1683.16801	2978.4375
1686.43272	2929.3375
1689.69527	2864.5375
1692.95567	2800.2375
1696.2139	2736.5375
1699.46999	2685.2375
1702.72392	2626.2375
1705.97571	2564.1375
1709.22535	2523.0375
1712.47284	2474.5375
1715.71819	2437.7375
1718.96139	2401.1375
1722.20246	2382.8375
1725.44139	2329.3375
1728.67818	2307.5375
1731.91284	2277.3375
1735.14537	2252.0375
1738.37576	2229.0375
1741.60403	2213.4375
1744.83017	2190.9375
1748.05418	2190.0375
1751.27607	2178.1375
1754.49584	2191.7375
1757.71349	2183.8375
1760.92903	2174.0375
1764.14244	2183.6375
1767.35375	2153.3375
1770.56294	2132.1375
1773.77002	2105.0375
1776.97499	2081.8375
1780.17785	2046.9375
1783.37861	2017.0375
1786.57727	1998.7375
1789.77382	1973.5375
1792.96828	1953.3375
1796.16064	1935.0375
1799.3509	1915.7375
1802.53907	1893.5375
1805.72514	1896.8375
1808.90913	1880.1375
1812.09102	1866.9375
1815.27083	1860.3375
1818.44856	1857.9375
1821.6242	1845.9375
1824.79776	1838.0375
1827.96924	1841.4375
1831.13864	1821.2375
1834.30597	1820.0375
1837.47122	1805.6375
1840.6344	1810.4375
1843.7955	1795.5375
1846.95454	1806.9375
1850.11151	1782.8375
1853.26642	1776.4375
1856.41926	1787.8375
1859.57004	1782.2375
1862.71876	1776.4375
1865.86542	1771.4375
1869.01003	1764.0375
1872.15258	1755.7375
1875.29308	1754.5375
1878.43152	1735.9375
1881.56792	1733.4375
1884.70227	1736.7375
1887.83457	1733.4375
1890.96482	1727.0375
1894.09304	1721.3375
1897.21921	1715.5375
1900.34335	1707.2375
1903.46544	1718.7375
1906.58551	1710.6375
1909.70353	1693.6375
1912.81953	1701.3375
1915.93349	1694.1375
1919.04543	1687.8375
1922.15534	1679.0375
1925.26322	1676.5375
1928.36908	1673.1375
1931.47292	1670.7375
1934.57473	1658.0375
1937.67453	1655.1375
1940.77232	1642.4375
1943.86808	1650.6375
1946.96184	1636.1375
1950.05358	1623.3375
1953.14331	1620.4375
1956.23103	1615.9375
1959.31675	1610.9375
1962.40046	1607.9375
1965.48217	1596.8375
1968.56188	1592.8375
1971.63959	1592.5375
1974.7153	1572.8375
1977.78901	1579.0375
1980.86073	1570.3375
1983.93046	1564.3375
1986.99819	1561.4375
1990.06394	1544.5375
1993.1277	1539.0375
1996.18947	1548.5375
1999.24925	1538.0375
2002.30706	1527.2375
2005.36288	1521.0375
2008.41672	1524.3375
2011.46859	1510.3375
2014.51848	1510.1375
2017.56639	1497.6375
2020.61233	1496.3375
2023.6563	1482.9375
2026.6983	1482.2375
2029.73833	1472.6375
2032.7764	1481.7375
2035.8125	1472.0375
2038.84664	1463.6375
2041.87881	1460.8375
2044.90903	1451.5375
2047.93729	1450.3375
2050.96359	1445.1375
2053.98794	1441.6375
2057.01034	1435.9375
2060.03078	1437.5375
2063.04927	1438.8375
2066.06582	1441.1375
2069.08042	1441.1375
2072.09307	1431.8375
2075.10378	1424.8375
2078.11255	1428.6375
2081.11938	1431.8375
2084.12426	1421.9375
2087.12722	1425.4375
2090.12824	1416.1375
2093.12732	1417.8375
2096.12447	1430.2375
2099.11969	1414.3375
2102.11299	1424.0375
2105.10435	1420.5375
2108.09379	1408.6375
2111.08131	1416.1375
2114.0669	1407.6375
2117.05057	1414.1375
2120.03233	1417.1375
2123.01216	1410.2375
2125.99008	1411.0375
2128.96609	1415.2375
2131.94018	1416.6375
2134.91236	1417.9375
2137.88263	1408.8375
2140.851	1412.4375
2143.81746	1420.9375
2146.78201	1403.5375
2149.74466	1398.2375
2152.7054	1403.3375
2155.66425	1410.9375
2158.6212	1407.9375
2161.57625	1405.9375
2164.52941	1396.6375
2167.48067	1392.4375
2170.43004	1392.7375
2173.37752	1391.7375
2176.32311	1399.0375
2179.26681	1393.2375
2182.20863	1385.4375
2185.14856	1387.2375
2188.08661	1379.5375
2191.02278	1376.5375
2193.95707	1376.1375
2196.88948	1375.6375
2199.82001	1379.1375
2202.74867	1367.4375
2205.67545	1374.7375
2208.60037	1359.3375
2211.52341	1357.2375
2214.44458	1357.2375
2217.36388	1358.4375
2220.28132	1350.0375
2223.1969	1348.1375
2226.11061	1348.3375
2229.02246	1337.3375
2231.93245	1326.4375
2234.84058	1319.8375
2237.74686	1319.7375
2240.65128	1328.7375
2243.55385	1314.8375
2246.45456	1314.3375
2249.35343	1319.7375
2252.25044	1304.9375
2255.14561	1304.7375
2258.03893	1303.0375
2260.93041	1310.8375
2263.82004	1295.8375
2266.70783	1302.4375
2269.59378	1292.1375
2272.4779	1289.8375
2275.36017	1276.9375
2278.24061	1269.5375
2281.11922	1270.2375
2283.996	1267.1375
2286.87094	1268.6375
2289.74405	1271.0375
2292.61534	1262.9375
2295.4848	1260.6375
2298.35243	1258.6375
2301.21824	1247.5375
2304.08223	1249.1375
2306.94439	1245.3375
2309.80474	1241.2375
2312.66327	1237.2375
2315.51999	1238.5375
2318.37489	1238.2375
2321.22797	1235.6375
2324.07925	1231.2375
2326.92871	1232.4375
2329.77637	1231.2375
2332.62222	1233.3375
2335.46626	1218.7375
2338.3085	1220.9375
2341.14893	1225.5375
2343.98756	1205.3375
2346.8244	1212.9375
2349.65943	1203.2375
2352.49267	1211.2375
2355.32411	1204.0375
2358.15376	1201.8375
2360.98161	1196.4375
2363.80768	1195.9375
2366.63195	1202.0375
2369.45444	1197.5375
2372.27514	1192.1375
2375.09405	1187.6375
2377.91118	1193.0375
2380.72652	1184.2375
2383.54009	1176.0375
2386.35187	1174.0375
2389.16188	1171.9375
2391.97011	1168.1375
2394.77657	1158.1375
2397.58125	1166.5375
2400.38416	1150.8375
2403.18529	1158.2375
2405.98466	1152.0375
2408.78226	1150.9375
2411.57809	1149.6375
2414.37216	1145.0375
2417.16446	1148.5375
2419.955	1142.4375
2422.74378	1138.2375
2425.5308	1135.1375
2428.31606	1143.6375
2431.09956	1127.7375
2433.88131	1131.2375
2436.6613	1134.5375
2439.43954	1125.9375
2442.21603	1125.6375
2444.99077	1119.6375
2447.76377	1124.1375
2450.53501	1119.1375
2453.30451	1126.4375
2456.07226	1122.1375
2458.83827	1112.5375
2461.60254	1104.1375
2464.36507	1103.4375
2467.12586	1103.8375
2469.88492	1106.3375
2472.64224	1101.1375
2475.39782	1101.9375
2478.15167	1112.6375
2480.90379	1096.7375
2483.65417	1098.3375
2486.40283	1089.3375
2489.14976	1089.7375
2491.89497	1092.1375
2494.63845	1093.3375
2497.3802	1093.2375
2500.12024	1080.1375
2502.85855	1086.9375
2505.59514	1088.0375
2508.33002	1075.9375
2511.06318	1077.0375
2513.79462	1072.1375
2516.52435	1065.6375
2519.25237	1075.8375
2521.97867	1062.9375
2524.70327	1062.1375
2527.42616	1058.1375
2530.14734	1061.8375
2532.86681	1057.2375
2535.58458	1060.3375
2538.30065	1057.1375
2541.01501	1052.9375
2543.72768	1050.6375
2546.43864	1036.3375
2549.14791	1038.6375
2551.85548	1045.4375
2554.56136	1032.2375
2557.26554	1033.7375
2559.96803	1021.9375
2562.66883	1035.0375
2565.36794	1022.1375
2568.06536	1025.2375
2570.7611	1033.3375
2573.45514	1024.3375
2576.14751	1024.3375
2578.83819	1010.9375
2581.52719	1018.9375
2584.21451	1001.3375
2586.90015	1016.2375
2589.58411	1011.5375
2592.2664	1005.5375
2594.94701	1010.6375
2597.62594	1002.0375
2600.30321	993.4375
2602.9788	993.6375
2605.65273	986.8375
2608.32498	992.1375
2610.99557	981.6375
2613.66449	982.3375
2616.33175	977.8375
2618.99734	982.4375
2621.66128	983.1375
2624.32355	980.1375
2626.98416	982.2375
2629.64311	974.0375
2632.30041	971.5375
2634.95605	977.5375
2637.61004	970.2375
2640.26238	975.5375
2642.91306	962.4375
2645.56209	967.1375
2648.20948	969.0375
2650.85521	959.4375
2653.4993	961.9375
2656.14175	956.2375
2658.78255	959.3375
2661.42171	961.1375
2664.05923	947.4375
2666.6951	948.4375
2669.32934	958.3375
2671.96194	954.7375
2674.59291	956.7375
2677.22224	958.1375
2679.84993	950.3375
2682.476	954.6375
2685.10043	955.4375
2687.72324	957.3375
2690.34441	949.0375
2692.96396	951.8375
2695.58188	954.8375
2698.19818	945.9375
2700.81285	948.2375
2703.4259	958.5375
2706.03733	975.3375
2708.64714	970.3375
2711.25533	958.9375
2713.86191	953.0375
2716.46687	948.9375
2719.07021	947.5375
2721.67194	947.8375
2724.27206	939.2375
2726.87057	946.4375
2729.46747	940.7375
2732.06276	939.6375
2734.65644	942.9375
2737.24852	933.0375
2739.83899	936.0375
2742.42786	936.3375
2745.01513	929.1375
2747.60079	932.6375
2750.18486	932.0375
2752.76733	922.8375
2755.3482	926.2375
2757.92747	920.7375
2760.50515	918.3375
2763.08123	915.9375
2765.65573	914.2375
2768.22863	920.1375
2770.79994	909.4375
2773.36967	917.9375
2775.9378	918.9375
2778.50435	913.8375
2781.06932	904.3375
2783.6327	911.2375
2786.1945	906.6375
2788.75471	896.8375
2791.31335	902.5375
2793.87041	901.3375
2796.42589	892.3375
2798.97979	891.4375
2801.53212	892.8375
2804.08288	888.6375
2806.63206	890.6375
2809.17967	890.3375
2811.72571	886.5375
2814.27018	886.9375
2816.81308	880.8375
2819.35442	883.7375
2821.89419	881.1375
2824.43239	891.3375
2826.96904	886.8375
2829.50412	880.5375
2832.03763	882.9375
2834.56959	882.4375
2837.1	872.8375
2839.62884	880.9375
2842.15613	881.8375
2844.68186	883.2375
2847.20604	878.0375
2849.72867	880.4375
2852.24974	884.6375
2854.76927	887.9375
2857.28724	881.1375
2859.80367	876.0375
2862.31855	866.3375
2864.83189	874.3375
2867.34368	870.7375
2869.85393	870.8375
2872.36264	874.2375
2874.8698	868.9375
2877.37543	876.1375
2879.87952	868.9375
2882.38207	872.8375
2884.88308	868.4375
2887.38256	876.0375
2889.88051	880.7375
2892.37692	871.8375
2894.8718	877.9375
2897.36515	882.5375
2899.85698	875.2375
2902.34727	878.9375
2904.83604	883.0375
2907.32328	893.7375
2909.809	894.3375
2912.29319	896.2375
2914.77587	896.9375
2917.25702	897.8375
2919.73665	897.2375
2922.21476	898.8375
2924.69136	903.3375
2927.16644	910.5375
2929.64	911.7375
2932.11205	922.4375
2934.58258	908.5375
2937.05161	921.0375
2939.51912	918.1375
2941.98513	914.4375
2944.44962	919.5375
2946.91261	917.0375
2949.37409	924.5375
2951.83407	921.6375
2954.29254	923.3375
2956.74951	921.8375
2959.20498	914.8375
2961.65895	911.1375
2964.11142	909.4375
2966.56239	896.3375
2969.01186	898.0375
2971.45984	891.8375
2973.90632	885.5375
2976.35131	873.5375
2978.7948	883.2375
2981.23681	877.7375
2983.67732	873.4375
2986.11635	873.1375
2988.55388	868.9375
2990.98993	871.5375
2993.4245	868.0375
2995.85758	868.6375
2998.28917	861.7375
3000.71928	860.6375
3003.14791	861.1375
3005.57506	868.1375
3008.00073	868.5375
3010.42493	860.5375
3012.84764	869.4375
3015.26888	869.8375
3017.68865	866.8375
3020.10694	863.6375
3022.52376	864.6375
3024.9391	866.0375
3027.35298	863.0375
3029.76539	852.6375
3032.17632	869.2375
3034.5858	857.3375
3036.9938	865.3375
3039.40034	868.7375
3041.80542	866.9375
3044.20903	860.4375
3046.61118	865.7375
3049.01187	867.8375
3051.4111	868.7375
3053.80888	872.5375
3056.20519	872.7375
3058.60005	872.9375
3060.99345	878.7375
3063.3854	874.8375
3065.7759	877.8375
3068.16494	876.8375
3070.55254	877.8375
3072.93868	877.6375
3075.32338	882.8375
3077.70662	874.5375
3080.08842	884.7375
3082.46878	888.0375
3084.84769	896.4375
3087.22515	896.2375
3089.60118	902.1375
3091.97576	904.7375
3094.3489	903.1375
3096.72061	911.0375
3099.09087	917.6375
3101.4597	919.9375
3103.82709	922.2375
3106.19305	922.4375
3108.55757	934.0375
3110.92066	925.9375
3113.28232	935.5375
3115.64255	937.9375
3118.00134	943.5375
3120.35871	941.6375
3122.71466	942.5375
3125.06917	951.1375
3127.42226	954.3375
3129.77393	962.3375
3132.12417	963.1375
3134.47299	965.5375
3136.82039	968.5375
3139.16636	977.7375
3141.51092	984.3375
3143.85406	997.3375
3146.19579	996.7375
3148.53609	1003.5375
3150.87499	1007.6375
3153.21246	1015.9375
3155.54853	1021.1375
3157.88318	1030.5375
3160.21642	1035.8375
3162.54826	1042.8375
3164.87868	1041.1375
3167.2077	1050.6375
3169.5353	1053.3375
3171.86151	1054.7375
3174.18631	1065.1375
3176.5097	1070.7375
3178.83169	1069.2375
3181.15228	1072.9375
3183.47147	1077.6375
3185.78926	1083.2375
3188.10565	1088.8375
3190.42065	1097.5375
3192.73424	1091.7375
3195.04645	1104.6375
3197.35725	1101.1375
3199.66667	1109.6375
3201.97469	1118.6375
3204.28132	1123.9375
3206.58656	1120.0375
3208.8904	1124.3375
3211.19287	1127.9375
3213.49394	1122.3375
3215.79363	1139.9375
3218.09193	1136.7375
3220.38884	1135.8375
3222.68438	1149.0375
3224.97853	1148.1375
3227.2713	1145.2375
3229.56269	1151.9375
3231.8527	1144.5375
3234.14133	1143.4375
3236.42858	1146.2375
3238.71446	1147.8375
3240.99896	1139.4375
3243.28209	1150.3375
3245.56384	1150.0375
3247.84423	1144.4375
3250.12324	1144.9375
3252.40088	1147.5375
3254.67715	1155.7375
3256.95205	1149.4375
3259.22558	1155.2375
3261.49775	1145.6375
3263.76855	1148.2375
3266.03799	1145.9375
3268.30606	1141.6375
3270.57277	1141.4375
3272.83812	1145.4375
3275.10211	1137.8375
3277.36474	1144.8375
3279.62601	1141.7375
3281.88593	1140.4375
3284.14448	1144.0375
3286.40168	1133.7375
3288.65753	1138.4375
3290.91202	1141.7375
3293.16516	1132.7375
3295.41695	1128.5375
3297.66738	1120.4375
3299.91647	1123.3375
3302.16421	1117.7375
3304.4106	1112.3375
3306.65564	1113.8375
3308.89933	1112.3375
3311.14169	1105.8375
3313.38269	1098.9375
3315.62236	1100.2375
3317.86068	1086.6375
3320.09766	1073.8375
3322.3333	1065.1375
3324.5676	1074.4375
3326.80056	1055.6375
3329.03219	1054.1375
3331.26248	0.1375
3333.49143	0.4375
3335.71905	-1.6625
