Data from AgNPs_FTO_APTES_UA_0.1mM_CRN_50uM_NaF_0.1M_Addition_RamanShift__23__13-03-27-651.txt Node

Date: Mon Dec 20 13:03:27 GMT 2021
User: TCL
Spectrometer: QEP01345
Trigger mode: 4
Integration Time (sec): 7.000000E0
Scans to average: 10
Electric dark correction enabled: true
Nonlinearity correction enabled: false
Boxcar width: 0
XAxis mode: Raman Shifts
Number of Pixels in Spectrum: 1044
>>>>>Begin Spectral Data<<<<<
46.04893	0.7125
50.45542	-0.8875
54.85868	-1.2875
59.25871	1.5125
63.6555	32.6125
68.04907	30.4125
72.43941	37.1125
76.82654	36.6125
81.21044	38.0125
85.59113	40.6125
89.96862	38.9125
94.34289	38.9125
98.71396	43.1125
103.08183	43.0125
107.4465	42.5125
111.80798	46.7125
116.16626	47.2125
120.52136	48.6125
124.87327	54.4125
129.222	51.9125
133.56755	55.4125
137.90993	58.3125
142.24913	64.7125
146.58517	67.2125
150.91804	82.4125
155.24774	93.7125
159.57429	111.7125
163.89768	140.4125
168.21792	187.4125
172.53501	243.4125
176.84895	334.4125
181.15975	470.6125
185.46741	652.1125
189.77193	909.5125
194.07331	1212.4125
198.37157	1576.4125
202.6667	1961.1125
206.9587	2350.6125
211.24758	2721.5125
215.53334	3112.6125
219.81599	3494.9125
224.09553	3913.6125
228.37195	4375.9125
232.64527	4858.9125
236.91549	5369.3125
241.18261	5843.7125
245.44663	6320.1125
249.70755	6724.7125
253.96539	7081.3125
258.22014	7374.0125
262.4718	7590.4125
266.72039	7720.5125
270.96589	7758.9125
275.20832	7733.0125
279.44768	7657.2125
283.68397	7545.9125
287.91719	7445.1125
292.14735	7335.4125
296.37445	7301.0125
300.59849	7277.5125
304.81948	7303.9125
309.03742	7284.5125
313.25231	7236.6125
317.46415	7112.1125
321.67296	6953.3125
325.87872	6853.3125
330.08145	6777.2125
334.28114	6780.3125
338.47781	6808.9125
342.67145	6883.7125
346.86207	6966.9125
351.04966	7081.8125
355.23424	7231.7125
359.4158	7366.7125
363.59435	7436.6125
367.76989	7535.7125
371.94243	7608.2125
376.11196	7668.0125
380.27849	7731.5125
384.44203	7790.2125
388.60257	7830.9125
392.76012	7905.0125
396.91468	7966.9125
401.06626	8031.0125
405.21485	8117.8125
409.36047	8076.0125
413.50311	8027.5125
417.64277	7930.8125
421.77947	7873.9125
425.9132	7875.2125
430.04396	7891.6125
434.17176	7922.5125
438.2966	7966.8125
442.41849	8051.8125
446.53742	8144.9125
450.6534	8236.8125
454.76644	8306.9125
458.87653	8385.2125
462.98368	8369.9125
467.08789	8367.6125
471.18916	8363.2125
475.2875	8355.7125
479.38291	8410.1125
483.4754	8478.5125
487.56496	8584.4125
491.6516	8686.8125
495.73531	8726.9125
499.81612	8727.7125
503.89401	8637.6125
507.96899	8550.9125
512.04106	8500.3125
516.11023	8519.6125
520.1765	8533.1125
524.23987	8573.6125
528.30034	8614.4125
532.35792	8604.0125
536.41261	8530.3125
540.46441	8408.4125
544.51333	8352.2125
548.55936	8261.1125
552.60252	8269.0125
556.64279	8301.6125
560.6802	8315.4125
564.71473	8367.6125
568.7464	8449.8125
572.7752	8490.9125
576.80114	8506.9125
580.82422	8537.4125
584.84444	8589.0125
588.86181	8694.9125
592.87633	8792.5125
596.888	8806.3125
600.89682	8792.3125
604.9028	8946.5125
608.90594	9501.3125
612.90624	10283.5125
616.90371	10310.2125
620.89834	9568.1125
624.89015	9422.7125
628.87913	9782.9125
632.86528	10311.1125
636.84862	10618.7125
640.82913	10524.5125
644.80683	10098.8125
648.78172	9584.6125
652.75379	9216.4125
656.72306	8992.8125
660.68952	8938.6125
664.65319	8853.4125
668.61405	8762.3125
672.57211	8786.4125
676.52738	8824.7125
680.47986	8843.1125
684.42955	8839.2125
688.37646	8797.1125
692.32058	8745.7125
696.26192	8651.1125
700.20048	8601.9125
704.13626	8568.0125
708.06928	8476.1125
711.99952	8405.9125
715.927	8356.4125
719.85171	8376.0125
723.77365	8392.8125
727.69284	8402.0125
731.60928	8353.0125
735.52295	8257.1125
739.43388	8189.1125
743.34206	8217.4125
747.24749	8229.6125
751.15017	8218.3125
755.05012	8267.1125
758.94733	8356.0125
762.8418	8552.7125
766.73354	8894.4125
770.62254	9213.4125
774.50882	9406.5125
778.39237	9239.6125
782.27321	8829.5125
786.15132	8470.7125
790.02671	8280.0125
793.89938	8198.6125
797.76935	8177.9125
801.6366	8262.3125
805.50115	8448.5125
809.36299	8667.5125
813.22213	8769.9125
817.07857	8668.4125
820.93231	8460.3125
824.78336	8183.5125
828.63172	8012.0125
832.47738	7897.2125
836.32036	7848.4125
840.16066	7818.7125
843.99827	7786.8125
847.8332	7764.3125
851.66546	7760.7125
855.49504	7770.6125
859.32195	7785.0125
863.1462	7781.3125
866.96777	7852.5125
870.78668	7936.8125
874.60293	8073.3125
878.41652	8197.8125
882.22745	8361.6125
886.03573	8453.3125
889.84136	8434.8125
893.64433	8317.5125
897.44466	8095.5125
901.24235	7895.8125
905.0374	7732.2125
908.8298	7612.9125
912.61957	7542.1125
916.40671	7478.5125
920.19121	7486.7125
923.97308	7480.5125
927.75233	7488.8125
931.52895	7466.6125
935.30295	7455.5125
939.07433	7390.0125
942.84309	7331.5125
946.60924	7327.0125
950.37278	7302.5125
954.13371	7246.6125
957.89203	7254.2125
961.64774	7213.7125
965.40086	7208.6125
969.15137	7157.1125
972.89929	7125.0125
976.64461	7116.6125
980.38733	7100.9125
984.12747	7090.2125
987.86502	7106.0125
991.59999	7137.9125
995.33237	7175.0125
999.06217	7266.2125
1002.78939	7369.3125
1006.51404	7443.9125
1010.23611	7548.6125
1013.95561	7619.2125
1017.67255	7633.7125
1021.38692	7601.9125
1025.09872	7509.0125
1028.80796	7430.9125
1032.51465	7358.3125
1036.21877	7290.0125
1039.92035	7262.6125
1043.61937	7210.7125
1047.31584	7213.6125
1051.00976	7193.3125
1054.70114	7211.6125
1058.38998	7256.0125
1062.07627	7301.3125
1065.76003	7374.5125
1069.44126	7424.1125
1073.11995	7472.4125
1076.79611	7480.5125
1080.46974	7480.5125
1084.14085	7440.1125
1087.80943	7383.5125
1091.47549	7347.4125
1095.13903	7308.6125
1098.80005	7244.0125
1102.45857	7164.6125
1106.11456	7167.7125
1109.76805	7188.3125
1113.41903	7289.0125
1117.06751	7480.6125
1120.71348	7731.5125
1124.35696	8119.4125
1127.99793	8590.9125
1131.63641	9014.2125
1135.2724	9248.9125
1138.90589	9220.5125
1142.5369	8982.9125
1146.16542	8608.5125
1149.79145	8196.1125
1153.415	7833.1125
1157.03607	7583.5125
1160.65467	7441.1125
1164.27079	7411.6125
1167.88443	7491.3125
1171.49561	7616.0125
1175.10432	7911.9125
1178.71056	8294.0125
1182.31434	8626.1125
1185.91565	8804.3125
1189.51451	8838.4125
1193.11091	8782.6125
1196.70485	8774.5125
1200.29634	8786.8125
1203.88538	8797.9125
1207.47197	8641.6125
1211.05612	8440.9125
1214.63782	8185.8125
1218.21708	7952.1125
1221.79391	7739.3125
1225.36829	7609.7125
1228.94024	7492.5125
1232.50976	7414.6125
1236.07685	7345.4125
1239.6415	7343.1125
1243.20374	7351.9125
1246.76355	7384.6125
1250.32093	7439.4125
1253.8759	7497.6125
1257.42845	7551.4125
1260.97859	7654.9125
1264.52631	7725.9125
1268.07163	7781.2125
1271.61453	7808.3125
1275.15503	7854.7125
1278.69312	7911.8125
1282.22882	7916.1125
1285.76211	7978.0125
1289.29301	8068.2125
1292.82151	8221.8125
1296.34761	8433.0125
1299.87133	8666.0125
1303.39266	8969.8125
1306.9116	9397.9125
1310.42815	9823.0125
1313.94233	10090.4125
1317.45412	10057.1125
1320.96354	9890.7125
1324.47058	9685.6125
1327.97525	9486.5125
1331.47754	9376.1125
1334.97747	9366.0125
1338.47502	9401.6125
1341.97022	9510.9125
1345.46305	9647.5125
1348.95352	9797.4125
1352.44163	10052.0125
1355.92738	10408.0125
1359.41078	10944.9125
1362.89183	11422.7125
1366.37053	11364.8125
1369.84688	10552.7125
1373.32088	9732.8125
1376.79254	9154.2125
1380.26186	8847.3125
1383.72883	8674.0125
1387.19347	8518.3125
1390.65578	8407.9125
1394.11575	8292.5125
1397.57339	8235.7125
1401.0287	8212.9125
1404.48168	8173.4125
1407.93234	8091.6125
1411.38068	7976.4125
1414.82669	7822.4125
1418.27039	7624.8125
1421.71177	7428.7125
1425.15083	7246.0125
1428.58758	7115.0125
1432.02203	7054.4125
1435.45416	7049.4125
1438.88399	7075.8125
1442.31151	7077.7125
1445.73673	7114.1125
1449.15965	7158.9125
1452.58027	7167.4125
1455.9986	7196.8125
1459.41463	7217.5125
1462.82837	7271.0125
1466.23982	7331.5125
1469.64898	7401.3125
1473.05586	7455.4125
1476.46045	7481.1125
1479.86276	7478.3125
1483.26279	7492.2125
1486.66054	7538.6125
1490.05602	7570.0125
1493.44922	7669.8125
1496.84016	7850.9125
1500.22882	8095.5125
1503.61521	8471.0125
1506.99934	8904.9125
1510.38121	9294.9125
1513.76081	9396.6125
1517.13816	9142.6125
1520.51324	8632.1125
1523.88607	8188.5125
1527.25665	7896.5125
1530.62498	7756.7125
1533.99105	7727.1125
1537.35488	7729.3125
1540.71647	7749.5125
1544.07581	7761.0125
1547.4329	7755.6125
1550.78776	7781.5125
1554.14038	7789.6125
1557.49077	7841.8125
1560.83892	7880.0125
1564.18484	7941.5125
1567.52853	7993.8125
1570.86999	8063.5125
1574.20922	8140.6125
1577.54624	8164.0125
1580.88103	8100.4125
1584.2136	7965.4125
1587.54395	7903.9125
1590.87208	7935.5125
1594.19801	8076.8125
1597.52172	8287.6125
1600.84321	8393.3125
1604.16251	8315.0125
1607.47959	8098.5125
1610.79447	7901.6125
1614.10715	7708.1125
1617.41763	7513.0125
1620.7259	7379.9125
1624.03199	7336.9125
1627.33587	7344.9125
1630.63757	7427.8125
1633.93707	7573.2125
1637.23439	7819.5125
1640.52951	8172.5125
1643.82246	8638.8125
1647.11321	9136.8125
1650.40179	9450.8125
1653.68819	9316.4125
1656.97241	8791.1125
1660.25446	8175.9125
1663.53433	7713.2125
1666.81203	7403.4125
1670.08756	7187.6125
1673.36092	7040.1125
1676.63211	6953.1125
1679.90115	6855.0125
1683.16801	6769.5125
1686.43272	6670.5125
1689.69527	6567.3125
1692.95567	6446.0125
1696.2139	6341.5125
1699.46999	6201.2125
1702.72392	6103.8125
1705.97571	5972.2125
1709.22535	5862.1125
1712.47284	5770.1125
1715.71819	5722.7125
1718.96139	5643.1125
1722.20246	5606.7125
1725.44139	5546.7125
1728.67818	5505.4125
1731.91284	5452.8125
1735.14537	5399.6125
1738.37576	5351.3125
1741.60403	5339.1125
1744.83017	5302.5125
1748.05418	5285.1125
1751.27607	5275.1125
1754.49584	5277.2125
1757.71349	5282.2125
1760.92903	5251.0125
1764.14244	5228.2125
1767.35375	5204.3125
1770.56294	5180.5125
1773.77002	5132.3125
1776.97499	5121.3125
1780.17785	5086.8125
1783.37861	5063.7125
1786.57727	5039.0125
1789.77382	5019.8125
1792.96828	4995.8125
1796.16064	4958.7125
1799.3509	4938.8125
1802.53907	4916.6125
1805.72514	4893.9125
1808.90913	4880.1125
1812.09102	4878.9125
1815.27083	4858.8125
1818.44856	4852.3125
1821.6242	4846.3125
1824.79776	4820.1125
1827.96924	4804.7125
1831.13864	4783.8125
1834.30597	4795.8125
1837.47122	4803.9125
1840.6344	4765.8125
1843.7955	4773.6125
1846.95454	4780.4125
1850.11151	4747.2125
1853.26642	4759.6125
1856.41926	4742.9125
1859.57004	4749.0125
1862.71876	4737.6125
1865.86542	4740.6125
1869.01003	4708.5125
1872.15258	4717.9125
1875.29308	4709.8125
1878.43152	4695.0125
1881.56792	4678.0125
1884.70227	4678.3125
1887.83457	4671.7125
1890.96482	4660.7125
1894.09304	4645.3125
1897.21921	4629.5125
1900.34335	4628.9125
1903.46544	4620.7125
1906.58551	4633.9125
1909.70353	4617.2125
1912.81953	4609.9125
1915.93349	4599.1125
1919.04543	4589.9125
1922.15534	4581.1125
1925.26322	4574.4125
1928.36908	4558.5125
1931.47292	4544.8125
1934.57473	4547.0125
1937.67453	4519.1125
1940.77232	4503.6125
1943.86808	4509.8125
1946.96184	4481.3125
1950.05358	4459.9125
1953.14331	4451.7125
1956.23103	4444.0125
1959.31675	4444.5125
1962.40046	4404.4125
1965.48217	4398.7125
1968.56188	4383.0125
1971.63959	4362.8125
1974.7153	4354.1125
1977.78901	4338.4125
1980.86073	4329.1125
1983.93046	4304.2125
1986.99819	4294.3125
1990.06394	4281.7125
1993.1277	4278.2125
1996.18947	4254.7125
1999.24925	4262.7125
2002.30706	4228.9125
2005.36288	4217.7125
2008.41672	4201.9125
2011.46859	4206.0125
2014.51848	4171.2125
2017.56639	4166.8125
2020.61233	4142.7125
2023.6563	4129.9125
2026.6983	4132.2125
2029.73833	4117.9125
2032.7764	4109.3125
2035.8125	4084.9125
2038.84664	4095.1125
2041.87881	4097.8125
2044.90903	4076.3125
2047.93729	4061.6125
2050.96359	4048.5125
2053.98794	4039.9125
2057.01034	4032.9125
2060.03078	4031.4125
2063.04927	4031.6125
2066.06582	4030.7125
2069.08042	4023.6125
2072.09307	4026.4125
2075.10378	4026.0125
2078.11255	4008.7125
2081.11938	4023.6125
2084.12426	4011.2125
2087.12722	4007.6125
2090.12824	4016.5125
2093.12732	4011.1125
2096.12447	4002.7125
2099.11969	4000.2125
2102.11299	3992.5125
2105.10435	4001.9125
2108.09379	3989.4125
2111.08131	3995.0125
2114.0669	3989.4125
2117.05057	3989.2125
2120.03233	4012.2125
2123.01216	3994.0125
2125.99008	4011.4125
2128.96609	4005.5125
2131.94018	4004.6125
2134.91236	4001.4125
2137.88263	4020.4125
2140.851	4004.0125
2143.81746	4005.8125
2146.78201	4023.7125
2149.74466	4025.0125
2152.7054	4017.9125
2155.66425	4008.6125
2158.6212	4005.8125
2161.57625	4016.2125
2164.52941	3994.1125
2167.48067	4000.5125
2170.43004	3999.5125
2173.37752	3987.0125
2176.32311	3993.8125
2179.26681	3990.4125
2182.20863	3983.1125
2185.14856	3986.3125
2188.08661	3992.0125
2191.02278	3983.1125
2193.95707	3977.3125
2196.88948	3966.8125
2199.82001	3978.3125
2202.74867	3959.3125
2205.67545	3951.6125
2208.60037	3931.6125
2211.52341	3932.5125
2214.44458	3929.6125
2217.36388	3911.4125
2220.28132	3909.0125
2223.1969	3893.1125
2226.11061	3896.5125
2229.02246	3870.1125
2231.93245	3882.9125
2234.84058	3871.7125
2237.74686	3853.4125
2240.65128	3851.4125
2243.55385	3845.8125
2246.45456	3842.7125
2249.35343	3833.2125
2252.25044	3834.5125
2255.14561	3814.3125
2258.03893	3823.6125
2260.93041	3834.7125
2263.82004	3795.3125
2266.70783	3782.0125
2269.59378	3784.8125
2272.4779	3771.7125
2275.36017	3759.4125
2278.24061	3754.7125
2281.11922	3741.2125
2283.996	3746.1125
2286.87094	3740.2125
2289.74405	3725.8125
2292.61534	3721.5125
2295.4848	3707.2125
2298.35243	3713.5125
2301.21824	3700.3125
2304.08223	3702.6125
2306.94439	3680.5125
2309.80474	3679.0125
2312.66327	3692.7125
2315.51999	3683.6125
2318.37489	3660.4125
2321.22797	3672.0125
2324.07925	3666.4125
2326.92871	3668.2125
2329.77637	3664.7125
2332.62222	3653.9125
2335.46626	3637.0125
2338.3085	3634.1125
2341.14893	3640.1125
2343.98756	3630.7125
2346.8244	3615.1125
2349.65943	3611.7125
2352.49267	3623.2125
2355.32411	3603.3125
2358.15376	3606.4125
2360.98161	3602.8125
2363.80768	3602.2125
2366.63195	3590.8125
2369.45444	3591.8125
2372.27514	3587.4125
2375.09405	3586.4125
2377.91118	3566.7125
2380.72652	3560.7125
2383.54009	3559.8125
2386.35187	3569.0125
2389.16188	3545.8125
2391.97011	3549.9125
2394.77657	3527.9125
2397.58125	3514.7125
2400.38416	3532.4125
2403.18529	3504.7125
2405.98466	3518.4125
2408.78226	3502.4125
2411.57809	3487.9125
2414.37216	3485.1125
2417.16446	3484.0125
2419.955	3479.8125
2422.74378	3490.5125
2425.5308	3451.9125
2428.31606	3453.9125
2431.09956	3450.6125
2433.88131	3444.7125
2436.6613	3458.9125
2439.43954	3436.1125
2442.21603	3444.3125
2444.99077	3437.1125
2447.76377	3434.2125
2450.53501	3422.0125
2453.30451	3438.4125
2456.07226	3426.5125
2458.83827	3404.6125
2461.60254	3417.1125
2464.36507	3406.3125
2467.12586	3407.5125
2469.88492	3394.6125
2472.64224	3400.0125
2475.39782	3405.0125
2478.15167	3395.3125
2480.90379	3400.1125
2483.65417	3390.9125
2486.40283	3380.6125
2489.14976	3380.2125
2491.89497	3379.1125
2494.63845	3383.0125
2497.3802	3381.3125
2500.12024	3373.3125
2502.85855	3363.6125
2505.59514	3367.8125
2508.33002	3356.7125
2511.06318	3353.0125
2513.79462	3350.3125
2516.52435	3340.6125
2519.25237	3334.2125
2521.97867	3332.2125
2524.70327	3321.5125
2527.42616	3311.6125
2530.14734	3310.8125
2532.86681	3307.2125
2535.58458	3307.5125
2538.30065	3293.7125
2541.01501	3291.1125
2543.72768	3287.8125
2546.43864	3265.7125
2549.14791	3279.1125
2551.85548	3277.8125
2554.56136	3251.9125
2557.26554	3261.1125
2559.96803	3246.6125
2562.66883	3250.0125
2565.36794	3234.7125
2568.06536	3226.8125
2570.7611	3219.3125
2573.45514	3228.0125
2576.14751	3213.2125
2578.83819	3214.9125
2581.52719	3224.0125
2584.21451	3201.1125
2586.90015	3201.5125
2589.58411	3187.3125
2592.2664	3168.7125
2594.94701	3181.7125
2597.62594	3182.1125
2600.30321	3143.8125
2602.9788	3149.0125
2605.65273	3163.5125
2608.32498	3147.2125
2610.99557	3138.7125
2613.66449	3135.4125
2616.33175	3128.9125
2618.99734	3138.0125
2621.66128	3132.7125
2624.32355	3124.2125
2626.98416	3125.0125
2629.64311	3109.6125
2632.30041	3109.0125
2634.95605	3117.7125
2637.61004	3099.6125
2640.26238	3102.5125
2642.91306	3098.2125
2645.56209	3088.8125
2648.20948	3084.4125
2650.85521	3089.3125
2653.4993	3091.9125
2656.14175	3079.2125
2658.78255	3094.3125
2661.42171	3078.7125
2664.05923	3079.6125
2666.6951	3085.6125
2669.32934	3079.5125
2671.96194	3083.9125
2674.59291	3071.4125
2677.22224	3069.2125
2679.84993	3074.3125
2682.476	3076.1125
2685.10043	3078.5125
2687.72324	3080.4125
2690.34441	3069.5125
2692.96396	3067.1125
2695.58188	3080.3125
2698.19818	3079.0125
2700.81285	3080.5125
2703.4259	3085.6125
2706.03733	3104.8125
2708.64714	3099.1125
2711.25533	3087.1125
2713.86191	3085.9125
2716.46687	3074.5125
2719.07021	3090.3125
2721.67194	3089.7125
2724.27206	3065.0125
2726.87057	3095.4125
2729.46747	3089.9125
2732.06276	3082.9125
2734.65644	3066.9125
2737.24852	3053.5125
2739.83899	3071.2125
2742.42786	3064.5125
2745.01513	3056.6125
2747.60079	3054.6125
2750.18486	3050.7125
2752.76733	3029.6125
2755.3482	3033.3125
2757.92747	3043.3125
2760.50515	3040.7125
2763.08123	3045.6125
2765.65573	3027.0125
2768.22863	3026.2125
2770.79994	3018.8125
2773.36967	3019.7125
2775.9378	3023.3125
2778.50435	3005.6125
2781.06932	2992.5125
2783.6327	3002.6125
2786.1945	2992.4125
2788.75471	2985.2125
2791.31335	2993.9125
2793.87041	2973.4125
2796.42589	2970.9125
2798.97979	2952.0125
2801.53212	2955.9125
2804.08288	2952.2125
2806.63206	2957.6125
2809.17967	2934.2125
2811.72571	2937.4125
2814.27018	2925.5125
2816.81308	2936.8125
2819.35442	2922.9125
2821.89419	2926.9125
2824.43239	2931.3125
2826.96904	2917.6125
2829.50412	2915.5125
2832.03763	2924.9125
2834.56959	2905.9125
2837.1	2910.6125
2839.62884	2913.6125
2842.15613	2899.1125
2844.68186	2909.9125
2847.20604	2913.8125
2849.72867	2910.5125
2852.24974	2922.9125
2854.76927	2912.9125
2857.28724	2916.7125
2859.80367	2903.7125
2862.31855	2889.6125
2864.83189	2895.6125
2867.34368	2895.5125
2869.85393	2892.2125
2872.36264	2891.0125
2874.8698	2906.1125
2877.37543	2905.8125
2879.87952	2896.4125
2882.38207	2900.7125
2884.88308	2902.9125
2887.38256	2889.7125
2889.88051	2904.0125
2892.37692	2895.1125
2894.8718	2891.9125
2897.36515	2903.4125
2899.85698	2895.0125
2902.34727	2907.4125
2904.83604	2912.6125
2907.32328	2923.8125
2909.809	2918.6125
2912.29319	2922.3125
2914.77587	2923.8125
2917.25702	2926.0125
2919.73665	2924.7125
2922.21476	2928.6125
2924.69136	2919.4125
2927.16644	2933.5125
2929.64	2920.4125
2932.11205	2936.9125
2934.58258	2939.0125
2937.05161	2931.8125
2939.51912	2931.5125
2941.98513	2916.4125
2944.44962	2912.7125
2946.91261	2900.2125
2949.37409	2911.8125
2951.83407	2912.6125
2954.29254	2915.1125
2956.74951	2907.9125
2959.20498	2907.9125
2961.65895	2894.5125
2964.11142	2895.5125
2966.56239	2883.2125
2969.01186	2886.0125
2971.45984	2871.8125
2973.90632	2859.5125
2976.35131	2841.7125
2978.7948	2856.0125
2981.23681	2838.0125
2983.67732	2843.7125
2986.11635	2835.2125
2988.55388	2832.3125
2990.98993	2819.2125
2993.4245	2820.0125
2995.85758	2827.0125
2998.28917	2816.2125
3000.71928	2800.6125
3003.14791	2808.8125
3005.57506	2813.5125
3008.00073	2816.6125
3010.42493	2805.9125
3012.84764	2804.4125
3015.26888	2805.6125
3017.68865	2813.9125
3020.10694	2807.0125
3022.52376	2789.8125
3024.9391	2797.8125
3027.35298	2794.5125
3029.76539	2785.8125
3032.17632	2782.2125
3034.5858	2775.8125
3036.9938	2783.0125
3039.40034	2786.6125
3041.80542	2780.7125
3044.20903	2772.6125
3046.61118	2774.3125
3049.01187	2771.9125
3051.4111	2778.9125
3053.80888	2775.5125
3056.20519	2772.9125
3058.60005	2764.5125
3060.99345	2765.2125
3063.3854	2771.3125
3065.7759	2755.2125
3068.16494	2756.7125
3070.55254	2749.3125
3072.93868	2761.3125
3075.32338	2759.9125
3077.70662	2761.8125
3080.08842	2754.6125
3082.46878	2762.7125
3084.84769	2771.9125
3087.22515	2764.1125
3089.60118	2770.7125
3091.97576	2777.2125
3094.3489	2762.9125
3096.72061	2780.1125
3099.09087	2786.3125
3101.4597	2781.8125
3103.82709	2779.0125
3106.19305	2781.2125
3108.55757	2790.5125
3110.92066	2785.7125
3113.28232	2781.6125
3115.64255	2777.6125
3118.00134	2794.0125
3120.35871	2793.2125
3122.71466	2792.1125
3125.06917	2786.5125
3127.42226	2782.1125
3129.77393	2803.0125
3132.12417	2803.0125
3134.47299	2792.8125
3136.82039	2806.2125
3139.16636	2811.7125
3141.51092	2828.3125
3143.85406	2829.5125
3146.19579	2829.2125
3148.53609	2857.8125
3150.87499	2853.3125
3153.21246	2868.6125
3155.54853	2873.6125
3157.88318	2881.9125
3160.21642	2889.9125
3162.54826	2885.3125
3164.87868	2892.4125
3167.2077	2892.5125
3169.5353	2897.5125
3171.86151	2910.4125
3174.18631	2906.6125
3176.5097	2907.4125
3178.83169	2918.8125
3181.15228	2904.1125
3183.47147	2931.5125
3185.78926	2922.1125
3188.10565	2925.7125
3190.42065	2922.5125
3192.73424	2926.8125
3195.04645	2932.1125
3197.35725	2937.5125
3199.66667	2948.8125
3201.97469	2953.1125
3204.28132	2957.2125
3206.58656	2965.5125
3208.8904	2993.9125
3211.19287	2982.9125
3213.49394	2984.0125
3215.79363	2982.2125
3218.09193	2992.0125
3220.38884	2996.0125
3222.68438	3012.3125
3224.97853	2993.3125
3227.2713	2999.0125
3229.56269	2984.9125
3231.8527	2987.5125
3234.14133	2991.9125
3236.42858	2995.8125
3238.71446	2977.7125
3240.99896	2983.7125
3243.28209	2986.5125
3245.56384	2982.7125
3247.84423	2983.0125
3250.12324	2984.8125
3252.40088	2986.2125
3254.67715	2981.5125
3256.95205	2975.4125
3259.22558	2983.4125
3261.49775	2974.0125
3263.76855	2977.9125
3266.03799	2963.5125
3268.30606	2965.9125
3270.57277	2968.4125
3272.83812	2953.5125
3275.10211	2946.9125
3277.36474	2945.6125
3279.62601	2947.7125
3281.88593	2954.5125
3284.14448	2948.8125
3286.40168	2950.1125
3288.65753	2939.4125
3290.91202	2930.9125
3293.16516	2929.2125
3295.41695	2919.2125
3297.66738	2894.4125
3299.91647	2899.4125
3302.16421	2872.1125
3304.4106	2872.0125
3306.65564	2865.7125
3308.89933	2837.4125
3311.14169	2834.2125
3313.38269	2810.0125
3315.62236	2802.3125
3317.86068	2773.2125
3320.09766	2749.4125
3322.3333	2725.4125
3324.5676	2735.7125
3326.80056	2690.1125
3329.03219	2670.9125
3331.26248	0.0125
3333.49143	0.4125
3335.71905	-0.0875
