Data from AgNPs_FTO_APTES_UA_0.1mM_CRN_0uM_NaF_0.1M_Addition_RamanShift__16__10-21-17-467.txt Node

Date: Mon Dec 20 10:21:17 GMT 2021
User: TCL
Spectrometer: QEP01345
Trigger mode: 4
Integration Time (sec): 7.000000E0
Scans to average: 10
Electric dark correction enabled: true
Nonlinearity correction enabled: false
Boxcar width: 0
XAxis mode: Raman Shifts
Number of Pixels in Spectrum: 1044
>>>>>Begin Spectral Data<<<<<
46.04893	0.1375
50.45542	-0.6625
54.85868	0.4375
59.25871	1.0375
63.6555	21.8375
68.04907	22.6375
72.43941	26.2375
76.82654	26.4375
81.21044	26.7375
85.59113	31.5375
89.96862	28.8375
94.34289	34.9375
98.71396	32.8375
103.08183	31.1375
107.4465	31.5375
111.80798	37.2375
116.16626	32.2375
120.52136	36.6375
124.87327	36.3375
129.222	33.9375
133.56755	37.0375
137.90993	35.5375
142.24913	38.0375
146.58517	38.0375
150.91804	44.8375
155.24774	51.2375
159.57429	53.2375
163.89768	73.0375
168.21792	88.8375
172.53501	104.7375
176.84895	145.5375
181.15975	196.5375
185.46741	270.0375
189.77193	371.1375
194.07331	492.8375
198.37157	636.6375
202.6667	789.7375
206.9587	943.3375
211.24758	1102.4375
215.53334	1257.6375
219.81599	1412.6375
224.09553	1581.3375
228.37195	1761.7375
232.64527	1949.9375
236.91549	2142.1375
241.18261	2309.1375
245.44663	2472.8375
249.70755	2624.1375
253.96539	2750.1375
258.22014	2837.7375
262.4718	2901.1375
266.72039	2937.5375
270.96589	2932.3375
275.20832	2902.3375
279.44768	2861.2375
283.68397	2795.8375
287.91719	2723.0375
292.14735	2650.5375
296.37445	2614.5375
300.59849	2603.5375
304.81948	2581.1375
309.03742	2561.7375
313.25231	2534.5375
317.46415	2497.6375
321.67296	2437.1375
325.87872	2393.6375
330.08145	2368.3375
334.28114	2356.6375
338.47781	2354.9375
342.67145	2378.6375
346.86207	2403.5375
351.04966	2437.8375
355.23424	2480.3375
359.4158	2528.8375
363.59435	2564.1375
367.76989	2606.4375
371.94243	2631.8375
376.11196	2660.6375
380.27849	2691.7375
384.44203	2705.7375
388.60257	2724.7375
392.76012	2739.7375
396.91468	2759.8375
401.06626	2786.4375
405.21485	2785.8375
409.36047	2772.3375
413.50311	2740.1375
417.64277	2706.7375
421.77947	2693.0375
425.9132	2682.4375
430.04396	2675.6375
434.17176	2688.7375
438.2966	2703.8375
442.41849	2739.6375
446.53742	2744.9375
450.6534	2773.1375
454.76644	2781.7375
458.87653	2807.7375
462.98368	2816.4375
467.08789	2813.4375
471.18916	2822.8375
475.2875	2835.8375
479.38291	2838.9375
483.4754	2864.3375
487.56496	2912.8375
491.6516	2954.7375
495.73531	2987.5375
499.81612	2991.9375
503.89401	2989.1375
507.96899	2973.6375
512.04106	2943.6375
516.11023	2934.6375
520.1765	2944.4375
524.23987	2949.6375
528.30034	2956.7375
532.35792	2952.3375
536.41261	2926.0375
540.46441	2887.7375
544.51333	2878.6375
548.55936	2862.2375
552.60252	2843.6375
556.64279	2850.6375
560.6802	2864.3375
564.71473	2867.0375
568.7464	2869.0375
572.7752	2889.3375
576.80114	2894.2375
580.82422	2876.0375
584.84444	2900.0375
588.86181	2938.3375
592.87633	2970.4375
596.888	2966.8375
600.89682	2962.6375
604.9028	3011.4375
608.90594	3217.4375
612.90624	3528.7375
616.90371	3591.2375
620.89834	3329.9375
624.89015	3248.7375
628.87913	3374.4375
632.86528	3546.0375
636.84862	3678.3375
640.82913	3668.9375
644.80683	3531.5375
648.78172	3377.4375
652.75379	3257.7375
656.72306	3184.2375
660.68952	3183.6375
664.65319	3174.0375
668.61405	3176.3375
672.57211	3197.4375
676.52738	3241.6375
680.47986	3325.5375
684.42955	3407.5375
688.37646	3479.5375
692.32058	3462.2375
696.26192	3339.3375
700.20048	3240.6375
704.13626	3190.2375
708.06928	3150.4375
711.99952	3101.8375
715.927	3073.9375
719.85171	3053.4375
723.77365	3039.2375
727.69284	3012.5375
731.60928	2990.5375
735.52295	2965.6375
739.43388	2939.9375
743.34206	2923.3375
747.24749	2918.7375
751.15017	2927.6375
755.05012	2911.2375
758.94733	2927.0375
762.8418	3004.6375
766.73354	3126.4375
770.62254	3264.6375
774.50882	3364.5375
778.39237	3324.6375
782.27321	3194.5375
786.15132	3065.6375
790.02671	3015.0375
793.89938	3019.6375
797.76935	3027.8375
801.6366	3057.1375
805.50115	3124.3375
809.36299	3197.3375
813.22213	3219.9375
817.07857	3170.6375
820.93231	3050.8375
824.78336	2976.0375
828.63172	2895.3375
832.47738	2873.8375
836.32036	2845.4375
840.16066	2856.3375
843.99827	2841.5375
847.8332	2833.7375
851.66546	2817.1375
855.49504	2810.7375
859.32195	2798.7375
863.1462	2797.0375
866.96777	2817.3375
870.78668	2832.4375
874.60293	2850.9375
878.41652	2899.5375
882.22745	2946.2375
886.03573	2988.0375
889.84136	3025.6375
893.64433	2987.0375
897.44466	2931.7375
901.24235	2879.2375
905.0374	2824.8375
908.8298	2801.2375
912.61957	2812.0375
916.40671	2838.9375
920.19121	2877.6375
923.97308	2912.3375
927.75233	2914.6375
931.52895	2936.4375
935.30295	2906.1375
939.07433	2870.5375
942.84309	2846.4375
946.60924	2825.4375
950.37278	2806.3375
954.13371	2799.4375
957.89203	2767.2375
961.64774	2728.4375
965.40086	2706.4375
969.15137	2672.7375
972.89929	2659.5375
976.64461	2636.8375
980.38733	2618.2375
984.12747	2626.7375
987.86502	2615.1375
991.59999	2624.5375
995.33237	2644.5375
999.06217	2658.9375
1002.78939	2706.1375
1006.51404	2740.8375
1010.23611	2785.4375
1013.95561	2816.7375
1017.67255	2828.4375
1021.38692	2830.0375
1025.09872	2841.0375
1028.80796	2766.4375
1032.51465	2730.7375
1036.21877	2700.7375
1039.92035	2674.3375
1043.61937	2653.9375
1047.31584	2628.7375
1051.00976	2621.7375
1054.70114	2622.7375
1058.38998	2636.9375
1062.07627	2638.7375
1065.76003	2647.6375
1069.44126	2647.7375
1073.11995	2656.7375
1076.79611	2672.9375
1080.46974	2656.0375
1084.14085	2643.7375
1087.80943	2638.5375
1091.47549	2620.0375
1095.13903	2601.2375
1098.80005	2575.7375
1102.45857	2563.9375
1106.11456	2577.2375
1109.76805	2582.8375
1113.41903	2644.3375
1117.06751	2718.7375
1120.71348	2836.8375
1124.35696	3000.1375
1127.99793	3200.8375
1131.63641	3353.7375
1135.2724	3436.2375
1138.90589	3406.5375
1142.5369	3274.1375
1146.16542	3105.3375
1149.79145	2959.7375
1153.415	2825.0375
1157.03607	2729.4375
1160.65467	2673.2375
1164.27079	2647.6375
1167.88443	2655.8375
1171.49561	2689.4375
1175.10432	2765.2375
1178.71056	2872.5375
1182.31434	2993.0375
1185.91565	3016.4375
1189.51451	3016.8375
1193.11091	2995.7375
1196.70485	2994.5375
1200.29634	2994.4375
1203.88538	3006.7375
1207.47197	2957.1375
1211.05612	2886.7375
1214.63782	2807.6375
1218.21708	2738.2375
1221.79391	2695.3375
1225.36829	2657.2375
1228.94024	2648.8375
1232.50976	2636.7375
1236.07685	2641.0375
1239.6415	2658.9375
1243.20374	2658.2375
1246.76355	2665.8375
1250.32093	2694.9375
1253.8759	2708.0375
1257.42845	2748.1375
1260.97859	2780.7375
1264.52631	2795.2375
1268.07163	2836.8375
1271.61453	2854.3375
1275.15503	2866.4375
1278.69312	2874.1375
1282.22882	2879.2375
1285.76211	2902.0375
1289.29301	2935.9375
1292.82151	2995.2375
1296.34761	3056.7375
1299.87133	3124.5375
1303.39266	3224.7375
1306.9116	3354.4375
1310.42815	3479.4375
1313.94233	3576.4375
1317.45412	3531.3375
1320.96354	3452.0375
1324.47058	3368.1375
1327.97525	3286.6375
1331.47754	3255.2375
1334.97747	3266.1375
1338.47502	3324.0375
1341.97022	3411.7375
1345.46305	3515.5375
1348.95352	3662.1375
1352.44163	3840.7375
1355.92738	4063.8375
1359.41078	4348.8375
1362.89183	4621.3375
1366.37053	4664.3375
1369.84688	4400.9375
1373.32088	4067.0375
1376.79254	3825.0375
1380.26186	3687.2375
1383.72883	3579.1375
1387.19347	3501.6375
1390.65578	3407.6375
1394.11575	3333.2375
1397.57339	3277.1375
1401.0287	3205.4375
1404.48168	3126.7375
1407.93234	3073.3375
1411.38068	3009.9375
1414.82669	2959.3375
1418.27039	2915.0375
1421.71177	2866.6375
1425.15083	2827.9375
1428.58758	2760.9375
1432.02203	2735.9375
1435.45416	2717.4375
1438.88399	2690.0375
1442.31151	2663.1375
1445.73673	2660.6375
1449.15965	2657.5375
1452.58027	2644.5375
1455.9986	2632.5375
1459.41463	2628.9375
1462.82837	2628.2375
1466.23982	2642.6375
1469.64898	2669.2375
1473.05586	2697.5375
1476.46045	2716.2375
1479.86276	2737.4375
1483.26279	2767.8375
1486.66054	2785.0375
1490.05602	2810.7375
1493.44922	2854.8375
1496.84016	2906.7375
1500.22882	3020.8375
1503.61521	3185.9375
1506.99934	3369.6375
1510.38121	3526.8375
1513.76081	3591.7375
1517.13816	3485.5375
1520.51324	3284.4375
1523.88607	3073.3375
1527.25665	2937.6375
1530.62498	2867.0375
1533.99105	2849.1375
1537.35488	2829.6375
1540.71647	2822.7375
1544.07581	2842.7375
1547.4329	2862.8375
1550.78776	2883.3375
1554.14038	2901.7375
1557.49077	2946.7375
1560.83892	2958.8375
1564.18484	2965.1375
1567.52853	2984.4375
1570.86999	3009.6375
1574.20922	3000.5375
1577.54624	2976.1375
1580.88103	2927.1375
1584.2136	2836.1375
1587.54395	2761.4375
1590.87208	2730.7375
1594.19801	2735.0375
1597.52172	2763.6375
1600.84321	2786.3375
1604.16251	2763.6375
1607.47959	2745.1375
1610.79447	2733.5375
1614.10715	2701.6375
1617.41763	2681.5375
1620.7259	2657.5375
1624.03199	2649.6375
1627.33587	2653.8375
1630.63757	2654.0375
1633.93707	2675.6375
1637.23439	2700.6375
1640.52951	2754.8375
1643.82246	2854.1375
1647.11321	2963.6375
1650.40179	3088.6375
1653.68819	3094.2375
1656.97241	2989.7375
1660.25446	2827.7375
1663.53433	2713.8375
1666.81203	2666.4375
1670.08756	2634.3375
1673.36092	2623.5375
1676.63211	2605.0375
1679.90115	2590.6375
1683.16801	2592.1375
1686.43272	2543.6375
1689.69527	2517.1375
1692.95567	2466.0375
1696.2139	2413.3375
1699.46999	2348.4375
1702.72392	2293.2375
1705.97571	2226.9375
1709.22535	2188.0375
1712.47284	2138.6375
1715.71819	2090.5375
1718.96139	2036.8375
1722.20246	1995.9375
1725.44139	1939.6375
1728.67818	1902.0375
1731.91284	1854.9375
1735.14537	1810.5375
1738.37576	1789.0375
1741.60403	1754.6375
1744.83017	1724.2375
1748.05418	1712.2375
1751.27607	1693.2375
1754.49584	1673.5375
1757.71349	1661.1375
1760.92903	1650.9375
1764.14244	1645.2375
1767.35375	1632.6375
1770.56294	1624.4375
1773.77002	1612.4375
1776.97499	1612.9375
1780.17785	1603.2375
1783.37861	1598.6375
1786.57727	1581.6375
1789.77382	1576.4375
1792.96828	1569.5375
1796.16064	1556.4375
1799.3509	1543.6375
1802.53907	1532.5375
1805.72514	1528.1375
1808.90913	1522.6375
1812.09102	1524.3375
1815.27083	1505.6375
1818.44856	1504.8375
1821.6242	1496.1375
1824.79776	1499.2375
1827.96924	1490.5375
1831.13864	1485.4375
1834.30597	1479.9375
1837.47122	1479.6375
1840.6344	1469.7375
1843.7955	1474.1375
1846.95454	1463.8375
1850.11151	1481.0375
1853.26642	1460.3375
1856.41926	1457.1375
1859.57004	1445.9375
1862.71876	1448.7375
1865.86542	1448.3375
1869.01003	1446.0375
1872.15258	1442.2375
1875.29308	1439.9375
1878.43152	1434.0375
1881.56792	1428.5375
1884.70227	1426.2375
1887.83457	1427.0375
1890.96482	1425.1375
1894.09304	1417.1375
1897.21921	1404.2375
1900.34335	1413.7375
1903.46544	1415.5375
1906.58551	1412.5375
1909.70353	1404.5375
1912.81953	1395.5375
1915.93349	1399.8375
1919.04543	1390.8375
1922.15534	1397.6375
1925.26322	1387.7375
1928.36908	1373.7375
1931.47292	1377.1375
1934.57473	1365.0375
1937.67453	1361.5375
1940.77232	1363.1375
1943.86808	1361.3375
1946.96184	1360.9375
1950.05358	1354.6375
1953.14331	1354.0375
1956.23103	1336.7375
1959.31675	1334.2375
1962.40046	1325.3375
1965.48217	1321.0375
1968.56188	1322.2375
1971.63959	1314.4375
1974.7153	1310.2375
1977.78901	1317.8375
1980.86073	1304.5375
1983.93046	1303.9375
1986.99819	1293.4375
1990.06394	1290.1375
1993.1277	1285.7375
1996.18947	1276.3375
1999.24925	1270.9375
2002.30706	1265.0375
2005.36288	1261.9375
2008.41672	1259.4375
2011.46859	1254.6375
2014.51848	1254.0375
2017.56639	1251.0375
2020.61233	1240.9375
2023.6563	1235.3375
2026.6983	1233.1375
2029.73833	1229.4375
2032.7764	1230.8375
2035.8125	1227.0375
2038.84664	1224.3375
2041.87881	1227.4375
2044.90903	1218.9375
2047.93729	1220.4375
2050.96359	1215.8375
2053.98794	1212.9375
2057.01034	1218.7375
2060.03078	1215.4375
2063.04927	1211.0375
2066.06582	1218.2375
2069.08042	1212.4375
2072.09307	1210.4375
2075.10378	1205.8375
2078.11255	1203.9375
2081.11938	1212.6375
2084.12426	1204.8375
2087.12722	1210.2375
2090.12824	1206.8375
2093.12732	1211.9375
2096.12447	1201.9375
2099.11969	1198.8375
2102.11299	1205.2375
2105.10435	1205.0375
2108.09379	1208.1375
2111.08131	1204.9375
2114.0669	1197.9375
2117.05057	1200.3375
2120.03233	1189.9375
2123.01216	1196.4375
2125.99008	1184.1375
2128.96609	1196.9375
2131.94018	1189.3375
2134.91236	1194.7375
2137.88263	1188.6375
2140.851	1184.4375
2143.81746	1185.8375
2146.78201	1175.3375
2149.74466	1179.7375
2152.7054	1182.0375
2155.66425	1179.7375
2158.6212	1176.6375
2161.57625	1166.3375
2164.52941	1170.1375
2167.48067	1171.0375
2170.43004	1174.0375
2173.37752	1160.8375
2176.32311	1167.5375
2179.26681	1153.9375
2182.20863	1164.4375
2185.14856	1162.9375
2188.08661	1163.5375
2191.02278	1172.3375
2193.95707	1158.6375
2196.88948	1156.7375
2199.82001	1150.4375
2202.74867	1148.8375
2205.67545	1143.0375
2208.60037	1150.0375
2211.52341	1139.1375
2214.44458	1133.7375
2217.36388	1142.9375
2220.28132	1129.7375
2223.1969	1122.6375
2226.11061	1122.9375
2229.02246	1123.7375
2231.93245	1122.9375
2234.84058	1116.3375
2237.74686	1113.0375
2240.65128	1115.2375
2243.55385	1101.3375
2246.45456	1102.9375
2249.35343	1109.1375
2252.25044	1094.3375
2255.14561	1091.7375
2258.03893	1097.4375
2260.93041	1092.6375
2263.82004	1091.0375
2266.70783	1080.0375
2269.59378	1088.9375
2272.4779	1084.4375
2275.36017	1070.0375
2278.24061	1073.3375
2281.11922	1070.8375
2283.996	1074.6375
2286.87094	1068.5375
2289.74405	1065.3375
2292.61534	1060.8375
2295.4848	1054.2375
2298.35243	1056.5375
2301.21824	1054.0375
2304.08223	1042.6375
2306.94439	1046.4375
2309.80474	1039.0375
2312.66327	1040.6375
2315.51999	1036.7375
2318.37489	1039.4375
2321.22797	1032.0375
2324.07925	1033.9375
2326.92871	1040.3375
2329.77637	1029.5375
2332.62222	1025.1375
2335.46626	1022.8375
2338.3085	1019.3375
2341.14893	1019.4375
2343.98756	1014.2375
2346.8244	1012.5375
2349.65943	1001.6375
2352.49267	1020.5375
2355.32411	1012.5375
2358.15376	1018.7375
2360.98161	1010.2375
2363.80768	999.7375
2366.63195	1012.9375
2369.45444	1012.8375
2372.27514	999.2375
2375.09405	1009.9375
2377.91118	1007.7375
2380.72652	1011.7375
2383.54009	994.3375
2386.35187	997.1375
2389.16188	989.3375
2391.97011	990.6375
2394.77657	982.5375
2397.58125	973.8375
2400.38416	983.0375
2403.18529	980.0375
2405.98466	977.1375
2408.78226	973.4375
2411.57809	970.9375
2414.37216	957.7375
2417.16446	969.3375
2419.955	956.9375
2422.74378	955.1375
2425.5308	954.3375
2428.31606	960.0375
2431.09956	953.4375
2433.88131	949.6375
2436.6613	955.3375
2439.43954	949.0375
2442.21603	944.1375
2444.99077	944.0375
2447.76377	943.0375
2450.53501	940.1375
2453.30451	940.8375
2456.07226	940.8375
2458.83827	944.8375
2461.60254	934.9375
2464.36507	932.5375
2467.12586	932.8375
2469.88492	939.6375
2472.64224	926.4375
2475.39782	926.9375
2478.15167	922.8375
2480.90379	924.5375
2483.65417	924.3375
2486.40283	918.6375
2489.14976	927.1375
2491.89497	920.0375
2494.63845	918.3375
2497.3802	912.9375
2500.12024	911.3375
2502.85855	912.5375
2505.59514	909.8375
2508.33002	906.5375
2511.06318	906.9375
2513.79462	909.6375
2516.52435	894.8375
2519.25237	895.7375
2521.97867	899.1375
2524.70327	894.2375
2527.42616	890.2375
2530.14734	888.2375
2532.86681	891.8375
2535.58458	882.7375
2538.30065	883.2375
2541.01501	878.2375
2543.72768	878.4375
2546.43864	879.7375
2549.14791	878.9375
2551.85548	875.5375
2554.56136	876.1375
2557.26554	865.1375
2559.96803	866.6375
2562.66883	870.7375
2565.36794	859.3375
2568.06536	859.8375
2570.7611	866.2375
2573.45514	860.8375
2576.14751	859.9375
2578.83819	853.3375
2581.52719	856.0375
2584.21451	848.1375
2586.90015	852.8375
2589.58411	844.0375
2592.2664	846.8375
2594.94701	841.9375
2597.62594	851.2375
2600.30321	843.7375
2602.9788	836.6375
2605.65273	828.1375
2608.32498	831.0375
2610.99557	832.1375
2613.66449	832.8375
2616.33175	838.8375
2618.99734	829.0375
2621.66128	829.5375
2624.32355	822.9375
2626.98416	824.6375
2629.64311	824.5375
2632.30041	821.3375
2634.95605	820.8375
2637.61004	822.8375
2640.26238	815.4375
2642.91306	818.2375
2645.56209	814.2375
2648.20948	814.3375
2650.85521	812.9375
2653.4993	811.1375
2656.14175	810.9375
2658.78255	807.8375
2661.42171	811.6375
2664.05923	807.4375
2666.6951	804.1375
2669.32934	815.5375
2671.96194	810.2375
2674.59291	810.9375
2677.22224	808.6375
2679.84993	810.9375
2682.476	804.8375
2685.10043	808.8375
2687.72324	813.6375
2690.34441	811.5375
2692.96396	811.4375
2695.58188	815.6375
2698.19818	809.6375
2700.81285	808.8375
2703.4259	811.7375
2706.03733	798.2375
2708.64714	811.4375
2711.25533	809.3375
2713.86191	815.3375
2716.46687	811.9375
2719.07021	806.4375
2721.67194	816.2375
2724.27206	811.1375
2726.87057	818.1375
2729.46747	813.3375
2732.06276	813.4375
2734.65644	801.8375
2737.24852	805.5375
2739.83899	807.9375
2742.42786	809.1375
2745.01513	802.3375
2747.60079	806.1375
2750.18486	800.4375
2752.76733	798.8375
2755.3482	793.9375
2757.92747	803.7375
2760.50515	794.0375
2763.08123	792.6375
2765.65573	796.0375
2768.22863	795.6375
2770.79994	798.1375
2773.36967	791.4375
2775.9378	788.6375
2778.50435	783.0375
2781.06932	780.2375
2783.6327	784.4375
2786.1945	780.3375
2788.75471	773.9375
2791.31335	775.6375
2793.87041	781.9375
2796.42589	775.7375
2798.97979	773.2375
2801.53212	768.4375
2804.08288	767.8375
2806.63206	767.6375
2809.17967	757.9375
2811.72571	765.6375
2814.27018	765.9375
2816.81308	761.2375
2819.35442	754.9375
2821.89419	754.5375
2824.43239	757.0375
2826.96904	760.0375
2829.50412	760.5375
2832.03763	756.9375
2834.56959	758.3375
2837.1	752.8375
2839.62884	754.6375
2842.15613	762.4375
2844.68186	757.0375
2847.20604	752.9375
2849.72867	759.3375
2852.24974	762.8375
2854.76927	757.7375
2857.28724	760.2375
2859.80367	761.4375
2862.31855	767.2375
2864.83189	770.1375
2867.34368	772.5375
2869.85393	776.7375
2872.36264	778.6375
2874.8698	781.3375
2877.37543	786.9375
2879.87952	784.3375
2882.38207	791.1375
2884.88308	791.1375
2887.38256	795.9375
2889.88051	794.6375
2892.37692	792.9375
2894.8718	799.6375
2897.36515	803.5375
2899.85698	805.9375
2902.34727	815.6375
2904.83604	824.0375
2907.32328	831.6375
2909.809	826.6375
2912.29319	816.5375
2914.77587	821.5375
2917.25702	827.5375
2919.73665	837.1375
2922.21476	838.6375
2924.69136	845.0375
2927.16644	839.5375
2929.64	847.3375
2932.11205	847.2375
2934.58258	842.6375
2937.05161	850.0375
2939.51912	850.7375
2941.98513	851.8375
2944.44962	844.1375
2946.91261	836.8375
2949.37409	837.2375
2951.83407	828.3375
2954.29254	821.8375
2956.74951	813.3375
2959.20498	813.6375
2961.65895	799.9375
2964.11142	799.6375
2966.56239	791.9375
2969.01186	791.3375
2971.45984	782.3375
2973.90632	780.7375
2976.35131	777.6375
2978.7948	776.0375
2981.23681	766.4375
2983.67732	770.5375
2986.11635	770.9375
2988.55388	761.9375
2990.98993	765.2375
2993.4245	764.4375
2995.85758	753.1375
2998.28917	754.9375
3000.71928	756.5375
3003.14791	756.0375
3005.57506	756.4375
3008.00073	760.6375
3010.42493	761.5375
3012.84764	764.0375
3015.26888	760.7375
3017.68865	753.7375
3020.10694	756.0375
3022.52376	753.1375
3024.9391	761.1375
3027.35298	757.7375
3029.76539	757.1375
3032.17632	766.1375
3034.5858	755.3375
3036.9938	763.0375
3039.40034	773.0375
3041.80542	770.4375
3044.20903	760.0375
3046.61118	772.8375
3049.01187	771.0375
3051.4111	769.0375
3053.80888	769.6375
3056.20519	776.6375
3058.60005	770.1375
3060.99345	778.9375
3063.3854	773.7375
3065.7759	772.9375
3068.16494	779.2375
3070.55254	776.7375
3072.93868	780.9375
3075.32338	787.6375
3077.70662	787.4375
3080.08842	791.4375
3082.46878	792.4375
3084.84769	793.0375
3087.22515	802.6375
3089.60118	803.1375
3091.97576	809.7375
3094.3489	810.2375
3096.72061	816.9375
3099.09087	820.4375
3101.4597	822.4375
3103.82709	822.4375
3106.19305	831.1375
3108.55757	842.3375
3110.92066	836.2375
3113.28232	839.0375
3115.64255	841.9375
3118.00134	842.8375
3120.35871	846.5375
3122.71466	854.2375
3125.06917	862.3375
3127.42226	855.2375
3129.77393	869.5375
3132.12417	866.7375
3134.47299	881.2375
3136.82039	877.4375
3139.16636	883.9375
3141.51092	893.0375
3143.85406	901.1375
3146.19579	900.5375
3148.53609	911.3375
3150.87499	922.6375
3153.21246	924.7375
3155.54853	928.9375
3157.88318	939.3375
3160.21642	941.6375
3162.54826	951.3375
3164.87868	947.1375
3167.2077	958.1375
3169.5353	967.4375
3171.86151	971.3375
3174.18631	972.1375
3176.5097	972.9375
3178.83169	976.4375
3181.15228	985.5375
3183.47147	985.3375
3185.78926	993.4375
3188.10565	994.3375
3190.42065	1004.9375
3192.73424	1008.3375
3195.04645	1013.4375
3197.35725	1016.1375
3199.66667	1022.1375
3201.97469	1026.0375
3204.28132	1030.4375
3206.58656	1039.5375
3208.8904	1035.9375
3211.19287	1046.5375
3213.49394	1048.7375
3215.79363	1054.0375
3218.09193	1048.2375
3220.38884	1047.1375
3222.68438	1043.6375
3224.97853	1060.0375
3227.2713	1053.7375
3229.56269	1071.0375
3231.8527	1063.9375
3234.14133	1065.3375
3236.42858	1067.7375
3238.71446	1060.0375
3240.99896	1063.4375
3243.28209	1071.5375
3245.56384	1061.8375
3247.84423	1065.1375
3250.12324	1073.2375
3252.40088	1069.4375
3254.67715	1076.6375
3256.95205	1062.3375
3259.22558	1067.0375
3261.49775	1069.8375
3263.76855	1067.4375
3266.03799	1064.3375
3268.30606	1070.3375
3270.57277	1056.5375
3272.83812	1069.4375
3275.10211	1067.4375
3277.36474	1060.8375
3279.62601	1066.6375
3281.88593	1067.2375
3284.14448	1065.9375
3286.40168	1064.0375
3288.65753	1058.5375
3290.91202	1062.3375
3293.16516	1056.7375
3295.41695	1051.1375
3297.66738	1045.5375
3299.91647	1047.3375
3302.16421	1036.4375
3304.4106	1038.9375
3306.65564	1041.2375
3308.89933	1028.4375
3311.14169	1025.3375
3313.38269	1011.2375
3315.62236	1014.5375
3317.86068	1004.4375
3320.09766	993.6375
3322.3333	999.4375
3324.5676	996.1375
3326.80056	974.5375
3329.03219	965.8375
3331.26248	-0.2625
3333.49143	0.5375
3335.71905	-0.7625
