Data from AgNPs_FTO_APTES_UA_0.1mM_CRN_0uM_NaF_0.1M_Addition_RamanShift__41__10-50-27-500.txt Node

Date: Mon Dec 20 10:50:27 GMT 2021
User: TCL
Spectrometer: QEP01345
Trigger mode: 4
Integration Time (sec): 7.000000E0
Scans to average: 10
Electric dark correction enabled: true
Nonlinearity correction enabled: false
Boxcar width: 0
XAxis mode: Raman Shifts
Number of Pixels in Spectrum: 1044
>>>>>Begin Spectral Data<<<<<
46.04893	0.4
50.45542	0.6
54.85868	-1.6
59.25871	0.7
63.6555	28.4
68.04907	25.9
72.43941	30.4
76.82654	33.2
81.21044	32
85.59113	38.5
89.96862	34.4
94.34289	38.6
98.71396	38.3
103.08183	36.1
107.4465	39.2
111.80798	43.3
116.16626	39
120.52136	42.8
124.87327	45.5
129.222	45.2
133.56755	46.7
137.90993	50.2
142.24913	49.9
146.58517	56.5
150.91804	65.3
155.24774	71.4
159.57429	87.7
163.89768	111.1
168.21792	142.4
172.53501	177.7
176.84895	251.6
181.15975	348.7
185.46741	481.3
189.77193	660.4
194.07331	879.4
198.37157	1132.6
202.6667	1410.3
206.9587	1673.4
211.24758	1929.6
215.53334	2207.6
219.81599	2494.2
224.09553	2798.5
228.37195	3144.5
232.64527	3543.8
236.91549	3967.3
241.18261	4377.9
245.44663	4773
249.70755	5103.3
253.96539	5379.7
258.22014	5573.4
262.4718	5636.8
266.72039	5629.8
270.96589	5544.6
275.20832	5402.7
279.44768	5245.2
283.68397	5059.6
287.91719	4900.2
292.14735	4783.7
296.37445	4660.1
300.59849	4610.3
304.81948	4567.7
309.03742	4549
313.25231	4518.5
317.46415	4468.6
321.67296	4389.7
325.87872	4348.8
330.08145	4308.1
334.28114	4284.1
338.47781	4288.2
342.67145	4303.5
346.86207	4326.3
351.04966	4369.8
355.23424	4405.3
359.4158	4434.8
363.59435	4465.1
367.76989	4488.4
371.94243	4526
376.11196	4558.8
380.27849	4583.3
384.44203	4607.5
388.60257	4663.8
392.76012	4735.5
396.91468	4823.7
401.06626	4910.9
405.21485	5007.6
409.36047	5052.6
413.50311	5039.1
417.64277	5053.2
421.77947	5063.4
425.9132	4993.3
430.04396	4971.5
434.17176	4960.6
438.2966	4985.4
442.41849	4981.8
446.53742	5009.5
450.6534	5034.4
454.76644	5061.6
458.87653	5094.8
462.98368	5088.9
467.08789	5076.5
471.18916	5058.6
475.2875	5083.9
479.38291	5100.4
483.4754	5153.6
487.56496	5220.7
491.6516	5313.4
495.73531	5404.3
499.81612	5461.7
503.89401	5516.7
507.96899	5540
512.04106	5490.7
516.11023	5411.3
520.1765	5325.9
524.23987	5226.8
528.30034	5170.7
532.35792	5107.1
536.41261	5051.1
540.46441	5001.2
544.51333	4979
548.55936	4980.5
552.60252	5023.4
556.64279	5055
560.6802	5068.7
564.71473	5088.2
568.7464	5109.2
572.7752	5132.7
576.80114	5195
580.82422	5283.5
584.84444	5397.4
588.86181	5568.1
592.87633	5673.1
596.888	5706.2
600.89682	5655.7
604.9028	5638.1
608.90594	5834.6
612.90624	6085.9
616.90371	5991.9
620.89834	5606.3
624.89015	5440.1
628.87913	5518.1
632.86528	5653.2
636.84862	5776.8
640.82913	5836.5
644.80683	5818.9
648.78172	5758.1
652.75379	5696.4
656.72306	5630.1
660.68952	5576.7
664.65319	5535.9
668.61405	5504.7
672.57211	5503.9
676.52738	5525.4
680.47986	5490.7
684.42955	5465.8
688.37646	5399.8
692.32058	5390.4
696.26192	5350.8
700.20048	5317.2
704.13626	5302.5
708.06928	5255.8
711.99952	5211.1
715.927	5158.1
719.85171	5138.3
723.77365	5122.6
727.69284	5094.7
731.60928	5056.4
735.52295	5053.9
739.43388	5085.1
743.34206	5130.6
747.24749	5193.3
751.15017	5239.6
755.05012	5294
758.94733	5392.8
762.8418	5483.3
766.73354	5630
770.62254	5765.7
774.50882	5790.5
778.39237	5657.6
782.27321	5448.4
786.15132	5282.4
790.02671	5150.6
793.89938	5100.6
797.76935	5112.6
801.6366	5178.2
805.50115	5259.1
809.36299	5316.8
813.22213	5364.2
817.07857	5303.5
820.93231	5173.7
824.78336	5067.7
828.63172	4975
832.47738	4920.8
836.32036	4892.9
840.16066	4868.7
843.99827	4877.5
847.8332	4864.5
851.66546	4876.6
855.49504	4878.2
859.32195	4866.4
863.1462	4876.7
866.96777	4876.7
870.78668	4907.4
874.60293	4934.2
878.41652	4955.6
882.22745	5009.4
886.03573	5043
889.84136	5090.7
893.64433	5073
897.44466	5056.9
901.24235	5030.7
905.0374	4971.3
908.8298	4931.5
912.61957	4911.4
916.40671	4913.8
920.19121	4890.3
923.97308	4895.9
927.75233	4878.3
931.52895	4855.4
935.30295	4835.9
939.07433	4778.2
942.84309	4751.4
946.60924	4732.8
950.37278	4705.6
954.13371	4710.5
957.89203	4712.9
961.64774	4717.3
965.40086	4718.8
969.15137	4709.9
972.89929	4692.5
976.64461	4692.1
980.38733	4689.8
984.12747	4675.6
987.86502	4705.7
991.59999	4715.5
995.33237	4710.7
999.06217	4734
1002.78939	4776
1006.51404	4800.5
1010.23611	4854.1
1013.95561	4898.8
1017.67255	4918
1021.38692	4931.4
1025.09872	4905.3
1028.80796	4891.2
1032.51465	4867.2
1036.21877	4854.5
1039.92035	4840.3
1043.61937	4836.4
1047.31584	4848.8
1051.00976	4857.2
1054.70114	4867.8
1058.38998	4865.7
1062.07627	4887.1
1065.76003	4911.6
1069.44126	4938.2
1073.11995	4989.8
1076.79611	5037.2
1080.46974	5049
1084.14085	5050
1087.80943	5061.1
1091.47549	5040.8
1095.13903	5043.9
1098.80005	5018.1
1102.45857	4976
1106.11456	4939.6
1109.76805	4937.6
1113.41903	4979.1
1117.06751	5060.4
1120.71348	5195.4
1124.35696	5320.3
1127.99793	5513.8
1131.63641	5671.4
1135.2724	5779.6
1138.90589	5815.3
1142.5369	5786.9
1146.16542	5710.3
1149.79145	5589.7
1153.415	5461
1157.03607	5321.9
1160.65467	5240.3
1164.27079	5219.4
1167.88443	5256.8
1171.49561	5312.6
1175.10432	5432.4
1178.71056	5595.2
1182.31434	5768.2
1185.91565	5871.6
1189.51451	5889.5
1193.11091	5870.3
1196.70485	5850.5
1200.29634	5833.2
1203.88538	5810.5
1207.47197	5814.8
1211.05612	5814.7
1214.63782	5802.3
1218.21708	5758.5
1221.79391	5702.8
1225.36829	5622.7
1228.94024	5584.4
1232.50976	5527
1236.07685	5445.8
1239.6415	5409.5
1243.20374	5404.2
1246.76355	5424.1
1250.32093	5441.1
1253.8759	5502.6
1257.42845	5565.5
1260.97859	5628.6
1264.52631	5662.6
1268.07163	5712.3
1271.61453	5709.9
1275.15503	5741.7
1278.69312	5755
1282.22882	5810.5
1285.76211	5875.4
1289.29301	5954.2
1292.82151	6059.4
1296.34761	6220.9
1299.87133	6374.5
1303.39266	6560.1
1306.9116	6744.2
1310.42815	6915.8
1313.94233	7037.2
1317.45412	7046.1
1320.96354	6979.3
1324.47058	6930.8
1327.97525	6873.3
1331.47754	6837.5
1334.97747	6815.5
1338.47502	6791.5
1341.97022	6800
1345.46305	6841.8
1348.95352	6913.8
1352.44163	7038.3
1355.92738	7223.9
1359.41078	7438.5
1362.89183	7666
1366.37053	7649.6
1369.84688	7341.9
1373.32088	6909.6
1376.79254	6548.2
1380.26186	6392.2
1383.72883	6304.1
1387.19347	6233.7
1390.65578	6144.1
1394.11575	6059.3
1397.57339	6029.5
1401.0287	6031.2
1404.48168	6001.9
1407.93234	5952.6
1411.38068	5856.5
1414.82669	5746.1
1418.27039	5615.7
1421.71177	5508.7
1425.15083	5399.9
1428.58758	5333.8
1432.02203	5292.1
1435.45416	5293.8
1438.88399	5309.7
1442.31151	5333.8
1445.73673	5348.1
1449.15965	5366.3
1452.58027	5373.4
1455.9986	5362.1
1459.41463	5401
1462.82837	5437.4
1466.23982	5491.7
1469.64898	5599.9
1473.05586	5652.7
1476.46045	5713.1
1479.86276	5723.5
1483.26279	5727
1486.66054	5760.7
1490.05602	5792
1493.44922	5869.7
1496.84016	5961.8
1500.22882	6086.6
1503.61521	6257.4
1506.99934	6397
1510.38121	6524.4
1513.76081	6563.8
1517.13816	6467.7
1520.51324	6325.7
1523.88607	6177.3
1527.25665	6133.7
1530.62498	6110.2
1533.99105	6106.6
1537.35488	6090.1
1540.71647	6094.8
1544.07581	6099.6
1547.4329	6101.4
1550.78776	6083.1
1554.14038	6107.8
1557.49077	6121.1
1560.83892	6145.7
1564.18484	6190
1567.52853	6227.2
1570.86999	6265.6
1574.20922	6286.4
1577.54624	6316.8
1580.88103	6266.8
1584.2136	6234.7
1587.54395	6236.6
1590.87208	6300.8
1594.19801	6398
1597.52172	6509.9
1600.84321	6555.1
1604.16251	6449.5
1607.47959	6282.2
1610.79447	6073.2
1614.10715	5912.3
1617.41763	5747.5
1620.7259	5623.4
1624.03199	5569.5
1627.33587	5542.2
1630.63757	5574.5
1633.93707	5646.1
1637.23439	5809
1640.52951	6032.8
1643.82246	6375.2
1647.11321	6712.8
1650.40179	6897.4
1653.68819	6790.1
1656.97241	6470.3
1660.25446	6084.2
1663.53433	5774.5
1666.81203	5556.5
1670.08756	5394.1
1673.36092	5268.8
1676.63211	5160
1679.90115	5119.4
1683.16801	5017.4
1686.43272	4916.5
1689.69527	4834.5
1692.95567	4732
1696.2139	4652.1
1699.46999	4563.5
1702.72392	4492.9
1705.97571	4429
1709.22535	4376.1
1712.47284	4327.2
1715.71819	4293.5
1718.96139	4248.4
1722.20246	4200.6
1725.44139	4165.4
1728.67818	4106.1
1731.91284	4051.1
1735.14537	4017.4
1738.37576	3964.7
1741.60403	3957.5
1744.83017	3937.1
1748.05418	3912.6
1751.27607	3875.9
1754.49584	3854.7
1757.71349	3863.1
1760.92903	3832.1
1764.14244	3839.6
1767.35375	3809.1
1770.56294	3810
1773.77002	3799
1776.97499	3792.2
1780.17785	3776.8
1783.37861	3769.8
1786.57727	3757.6
1789.77382	3734.6
1792.96828	3723.4
1796.16064	3713.3
1799.3509	3695.5
1802.53907	3683.2
1805.72514	3666.5
1808.90913	3661.4
1812.09102	3651.2
1815.27083	3625.4
1818.44856	3608.3
1821.6242	3611.4
1824.79776	3595.2
1827.96924	3607.2
1831.13864	3581.2
1834.30597	3590.2
1837.47122	3575.3
1840.6344	3565.3
1843.7955	3565
1846.95454	3547.8
1850.11151	3553.3
1853.26642	3553.8
1856.41926	3530.3
1859.57004	3550
1862.71876	3540.4
1865.86542	3535.2
1869.01003	3523.5
1872.15258	3517
1875.29308	3513.9
1878.43152	3503
1881.56792	3496.1
1884.70227	3490.5
1887.83457	3481.2
1890.96482	3474
1894.09304	3481.7
1897.21921	3473.7
1900.34335	3463.3
1903.46544	3461.7
1906.58551	3455.9
1909.70353	3453.2
1912.81953	3440.5
1915.93349	3432
1919.04543	3409.1
1922.15534	3427.6
1925.26322	3406.3
1928.36908	3396.2
1931.47292	3389.7
1934.57473	3375
1937.67453	3366
1940.77232	3357.4
1943.86808	3352.6
1946.96184	3351.1
1950.05358	3322.9
1953.14331	3316.4
1956.23103	3322.6
1959.31675	3316.8
1962.40046	3296.4
1965.48217	3280.1
1968.56188	3280.5
1971.63959	3260.2
1974.7153	3255.4
1977.78901	3248
1980.86073	3226
1983.93046	3224.5
1986.99819	3212.3
1990.06394	3201.5
1993.1277	3195.7
1996.18947	3183.8
1999.24925	3185.5
2002.30706	3168.8
2005.36288	3148.6
2008.41672	3128.3
2011.46859	3126.2
2014.51848	3110.1
2017.56639	3106.6
2020.61233	3111.6
2023.6563	3083.5
2026.6983	3078.7
2029.73833	3081
2032.7764	3069.9
2035.8125	3062.8
2038.84664	3040.1
2041.87881	3039.3
2044.90903	3023.4
2047.93729	3026.6
2050.96359	3016
2053.98794	3022.7
2057.01034	3021.7
2060.03078	3022.2
2063.04927	3009.7
2066.06582	3017.3
2069.08042	3002.2
2072.09307	3007.6
2075.10378	3002.4
2078.11255	2995.6
2081.11938	2995.9
2084.12426	2996.3
2087.12722	2995.3
2090.12824	2999.5
2093.12732	2996.2
2096.12447	2995.9
2099.11969	2995.1
2102.11299	2991.9
2105.10435	2993.1
2108.09379	2996.7
2111.08131	2998.1
2114.0669	3006.8
2117.05057	3001.9
2120.03233	3009.5
2123.01216	2993.5
2125.99008	2993.4
2128.96609	3010
2131.94018	2995.4
2134.91236	3006
2137.88263	3007.3
2140.851	2994.8
2143.81746	3008.6
2146.78201	2985.2
2149.74466	2984.6
2152.7054	2988.1
2155.66425	2998.4
2158.6212	2989.1
2161.57625	2990.2
2164.52941	2979.5
2167.48067	2982.6
2170.43004	2982.1
2173.37752	2963.6
2176.32311	2974.5
2179.26681	2982.9
2182.20863	2975.6
2185.14856	2970.6
2188.08661	2976.3
2191.02278	2968.4
2193.95707	2972.8
2196.88948	2960.2
2199.82001	2967.8
2202.74867	2955.9
2205.67545	2944.7
2208.60037	2940.7
2211.52341	2939.5
2214.44458	2925.3
2217.36388	2903.2
2220.28132	2917.4
2223.1969	2910.5
2226.11061	2904.1
2229.02246	2881.1
2231.93245	2897.6
2234.84058	2877.7
2237.74686	2869.7
2240.65128	2874.7
2243.55385	2866.9
2246.45456	2863
2249.35343	2855.2
2252.25044	2846.4
2255.14561	2838.1
2258.03893	2844.2
2260.93041	2842.1
2263.82004	2824.6
2266.70783	2817
2269.59378	2835.2
2272.4779	2800
2275.36017	2794
2278.24061	2798
2281.11922	2783.6
2283.996	2763.6
2286.87094	2780.1
2289.74405	2770.5
2292.61534	2758.7
2295.4848	2758.9
2298.35243	2750.9
2301.21824	2746.8
2304.08223	2735
2306.94439	2742.4
2309.80474	2739.3
2312.66327	2730.9
2315.51999	2733.8
2318.37489	2722.6
2321.22797	2719.8
2324.07925	2709.8
2326.92871	2706.4
2329.77637	2711.1
2332.62222	2695.7
2335.46626	2691.5
2338.3085	2692.3
2341.14893	2675.1
2343.98756	2684.2
2346.8244	2677.7
2349.65943	2669.6
2352.49267	2668.3
2355.32411	2686.2
2358.15376	2675.4
2360.98161	2664
2363.80768	2642.8
2366.63195	2654.7
2369.45444	2651.1
2372.27514	2639.9
2375.09405	2651.4
2377.91118	2640.4
2380.72652	2636.9
2383.54009	2633.4
2386.35187	2629.9
2389.16188	2607
2391.97011	2617.3
2394.77657	2597.7
2397.58125	2599
2400.38416	2584.5
2403.18529	2590.8
2405.98466	2593.7
2408.78226	2577.6
2411.57809	2572.8
2414.37216	2571.6
2417.16446	2584.7
2419.955	2568.3
2422.74378	2555.2
2425.5308	2544.6
2428.31606	2554.9
2431.09956	2555.8
2433.88131	2554.1
2436.6613	2542.6
2439.43954	2531.6
2442.21603	2537.8
2444.99077	2520
2447.76377	2520
2450.53501	2526.1
2453.30451	2532.6
2456.07226	2521.6
2458.83827	2516.7
2461.60254	2515
2464.36507	2501
2467.12586	2498.3
2469.88492	2503.4
2472.64224	2511.2
2475.39782	2505.7
2478.15167	2495.7
2480.90379	2484.9
2483.65417	2499
2486.40283	2476.3
2489.14976	2490
2491.89497	2492.4
2494.63845	2491
2497.3802	2475.9
2500.12024	2471.8
2502.85855	2467.8
2505.59514	2458.5
2508.33002	2459.1
2511.06318	2457.1
2513.79462	2458.8
2516.52435	2442.6
2519.25237	2451.2
2521.97867	2440.5
2524.70327	2438
2527.42616	2433.5
2530.14734	2427.8
2532.86681	2421.8
2535.58458	2422.2
2538.30065	2406
2541.01501	2415.7
2543.72768	2404
2546.43864	2408.7
2549.14791	2393.6
2551.85548	2388.1
2554.56136	2378.8
2557.26554	2386.6
2559.96803	2375.2
2562.66883	2375.4
2565.36794	2368.1
2568.06536	2372.4
2570.7611	2372.3
2573.45514	2351.5
2576.14751	2361.5
2578.83819	2344.9
2581.52719	2341.1
2584.21451	2340.8
2586.90015	2341.4
2589.58411	2334.1
2592.2664	2332
2594.94701	2314.8
2597.62594	2319.6
2600.30321	2314.1
2602.9788	2310.7
2605.65273	2309.8
2608.32498	2299.1
2610.99557	2292.4
2613.66449	2292
2616.33175	2281.1
2618.99734	2284.1
2621.66128	2280.7
2624.32355	2268.5
2626.98416	2272.7
2629.64311	2274.7
2632.30041	2264.7
2634.95605	2264.2
2637.61004	2254.1
2640.26238	2254.6
2642.91306	2258.2
2645.56209	2259.2
2648.20948	2252.6
2650.85521	2248.3
2653.4993	2250.8
2656.14175	2245.4
2658.78255	2248.5
2661.42171	2241.8
2664.05923	2236.7
2666.6951	2240.2
2669.32934	2236.3
2671.96194	2235.4
2674.59291	2235.5
2677.22224	2250.7
2679.84993	2241.2
2682.476	2231.5
2685.10043	2237
2687.72324	2237.6
2690.34441	2237.7
2692.96396	2227.5
2695.58188	2230.2
2698.19818	2244.7
2700.81285	2242
2703.4259	2243.6
2706.03733	2250.1
2708.64714	2246.2
2711.25533	2223.3
2713.86191	2236.4
2716.46687	2236.4
2719.07021	2234.8
2721.67194	2235.6
2724.27206	2215
2726.87057	2238.2
2729.46747	2226.8
2732.06276	2220.6
2734.65644	2224
2737.24852	2207
2739.83899	2212.9
2742.42786	2212.6
2745.01513	2213.5
2747.60079	2209.9
2750.18486	2210.1
2752.76733	2206.9
2755.3482	2201.3
2757.92747	2192.6
2760.50515	2191
2763.08123	2186.2
2765.65573	2176.5
2768.22863	2181.9
2770.79994	2171.9
2773.36967	2176.4
2775.9378	2173.2
2778.50435	2168.9
2781.06932	2166.6
2783.6327	2163.8
2786.1945	2156.6
2788.75471	2145.6
2791.31335	2153.3
2793.87041	2131.9
2796.42589	2136.5
2798.97979	2141.4
2801.53212	2132.4
2804.08288	2121.3
2806.63206	2102.6
2809.17967	2121.2
2811.72571	2110.2
2814.27018	2106.9
2816.81308	2100.6
2819.35442	2111.3
2821.89419	2098.3
2824.43239	2101.3
2826.96904	2089.5
2829.50412	2087.1
2832.03763	2088.1
2834.56959	2079.5
2837.1	2088
2839.62884	2074.9
2842.15613	2080
2844.68186	2083.2
2847.20604	2077.1
2849.72867	2076.6
2852.24974	2086.3
2854.76927	2084.6
2857.28724	2078.8
2859.80367	2074.5
2862.31855	2078.5
2864.83189	2078.5
2867.34368	2065.4
2869.85393	2068.3
2872.36264	2070.6
2874.8698	2071.7
2877.37543	2075.2
2879.87952	2064.8
2882.38207	2072
2884.88308	2070.3
2887.38256	2064.6
2889.88051	2070.5
2892.37692	2072.9
2894.8718	2080.4
2897.36515	2074.7
2899.85698	2082.8
2902.34727	2076.7
2904.83604	2085.3
2907.32328	2083.7
2909.809	2070.5
2912.29319	2075.8
2914.77587	2071
2917.25702	2066.1
2919.73665	2075.1
2922.21476	2064.2
2924.69136	2056.1
2927.16644	2063.5
2929.64	2063.9
2932.11205	2064
2934.58258	2059.5
2937.05161	2069
2939.51912	2060.9
2941.98513	2061.3
2944.44962	2053.4
2946.91261	2052.1
2949.37409	2055.1
2951.83407	2050.5
2954.29254	2045.1
2956.74951	2048.3
2959.20498	2044.1
2961.65895	2030.1
2964.11142	2035.6
2966.56239	2046.9
2969.01186	2039.2
2971.45984	2024.2
2973.90632	2014
2976.35131	2005.8
2978.7948	2027.5
2981.23681	2012.8
2983.67732	2009.1
2986.11635	2006.9
2988.55388	1997.9
2990.98993	1992.7
2993.4245	1996.1
2995.85758	1988.8
2998.28917	1985.4
3000.71928	1992.2
3003.14791	1978.9
3005.57506	1976
3008.00073	1975.1
3010.42493	1973.2
3012.84764	1986.1
3015.26888	1975.3
3017.68865	1972.2
3020.10694	1963.8
3022.52376	1969.4
3024.9391	1970.1
3027.35298	1963.7
3029.76539	1969.6
3032.17632	1970.8
3034.5858	1962.6
3036.9938	1960.2
3039.40034	1966
3041.80542	1965.5
3044.20903	1955.6
3046.61118	1957.8
3049.01187	1958.6
3051.4111	1955.6
3053.80888	1951.5
3056.20519	1957.4
3058.60005	1942.7
3060.99345	1963
3063.3854	1948.8
3065.7759	1942.8
3068.16494	1952.8
3070.55254	1938.7
3072.93868	1952.7
3075.32338	1950
3077.70662	1950.3
3080.08842	1947
3082.46878	1955.6
3084.84769	1943.3
3087.22515	1949.7
3089.60118	1955.9
3091.97576	1956.3
3094.3489	1957.7
3096.72061	1963
3099.09087	1971.5
3101.4597	1969.1
3103.82709	1974.8
3106.19305	1970.9
3108.55757	1971.8
3110.92066	1973.5
3113.28232	1977.5
3115.64255	1975.3
3118.00134	1967.5
3120.35871	1964.1
3122.71466	1966.4
3125.06917	1967.5
3127.42226	1972.8
3129.77393	1977.8
3132.12417	1979.1
3134.47299	1990.7
3136.82039	1993.3
3139.16636	1991
3141.51092	2003.9
3143.85406	2001.6
3146.19579	2017.4
3148.53609	2006.8
3150.87499	2015.2
3153.21246	2021.7
3155.54853	2035.2
3157.88318	2041.6
3160.21642	2036
3162.54826	2044.8
3164.87868	2041.7
3167.2077	2053.7
3169.5353	2057.8
3171.86151	2059.8
3174.18631	2068.3
3176.5097	2061.7
3178.83169	2067.5
3181.15228	2068.5
3183.47147	2073.8
3185.78926	2066.3
3188.10565	2080.4
3190.42065	2079.2
3192.73424	2069.8
3195.04645	2080
3197.35725	2074.5
3199.66667	2080
3201.97469	2086
3204.28132	2095.8
3206.58656	2101.2
3208.8904	2101.4
3211.19287	2100.1
3213.49394	2105.7
3215.79363	2115.2
3218.09193	2116.5
3220.38884	2116.2
3222.68438	2117.3
3224.97853	2114.2
3227.2713	2108.3
3229.56269	2110.4
3231.8527	2107.4
3234.14133	2103.3
3236.42858	2100.9
3238.71446	2104.6
3240.99896	2093.5
3243.28209	2105.9
3245.56384	2096.7
3247.84423	2098.1
3250.12324	2095.6
3252.40088	2091.7
3254.67715	2091
3256.95205	2090.4
3259.22558	2086.5
3261.49775	2089.5
3263.76855	2089.4
3266.03799	2085.8
3268.30606	2075.4
3270.57277	2072.7
3272.83812	2069.9
3275.10211	2066.7
3277.36474	2068.3
3279.62601	2063.7
3281.88593	2067.7
3284.14448	2073.5
3286.40168	2058.4
3288.65753	2063.4
3290.91202	2060
3293.16516	2045.7
3295.41695	2047
3297.66738	2027.5
3299.91647	2026.6
3302.16421	2021.7
3304.4106	2003.8
3306.65564	1996.9
3308.89933	1992.5
3311.14169	1981.8
3313.38269	1955.3
3315.62236	1942.8
3317.86068	1934.3
3320.09766	1927.9
3322.3333	1917.1
3324.5676	1910.9
3326.80056	1880.2
3329.03219	1869.2
3331.26248	0.3
3333.49143	0.5
3335.71905	-0.7
