Data from AgNPs_FTO_APTES_UA_0.1mM_CRN_10uM_NaF_0.1M_Addition_RamanShift__11__11-31-17-546.txt Node

Date: Mon Dec 20 11:31:17 GMT 2021
User: TCL
Spectrometer: QEP01345
Trigger mode: 4
Integration Time (sec): 7.000000E0
Scans to average: 10
Electric dark correction enabled: true
Nonlinearity correction enabled: false
Boxcar width: 0
XAxis mode: Raman Shifts
Number of Pixels in Spectrum: 1044
>>>>>Begin Spectral Data<<<<<
46.04893	0.6875
50.45542	-0.1125
54.85868	-1.3125
59.25871	1.3875
63.6555	29.4875
68.04907	32.3875
72.43941	34.3875
76.82654	34.7875
81.21044	37.6875
85.59113	43.5875
89.96862	41.3875
94.34289	39.7875
98.71396	40.3875
103.08183	42.6875
107.4465	46.8875
111.80798	48.4875
116.16626	47.4875
120.52136	50.2875
124.87327	50.7875
129.222	50.5875
133.56755	54.0875
137.90993	56.8875
142.24913	58.9875
146.58517	61.6875
150.91804	76.4875
155.24774	87.0875
159.57429	103.3875
163.89768	129.5875
168.21792	171.5875
172.53501	223.4875
176.84895	310.5875
181.15975	436.7875
185.46741	598.5875
189.77193	827.6875
194.07331	1112.0875
198.37157	1439.8875
202.6667	1791.9875
206.9587	2125.1875
211.24758	2475.4875
215.53334	2822.3875
219.81599	3180.0875
224.09553	3574.3875
228.37195	4027.4875
232.64527	4511.7875
236.91549	5048.9875
241.18261	5610.6875
245.44663	6123.0875
249.70755	6574.9875
253.96539	6937.1875
258.22014	7173.7875
262.4718	7291.0875
266.72039	7286.5875
270.96589	7213.5875
275.20832	7028.8875
279.44768	6820.0875
283.68397	6586.4875
287.91719	6392.2875
292.14735	6219.7875
296.37445	6094.7875
300.59849	6007.9875
304.81948	5948.4875
309.03742	5896.3875
313.25231	5829.3875
317.46415	5761.7875
321.67296	5683.9875
325.87872	5607.5875
330.08145	5573.0875
334.28114	5559.8875
338.47781	5560.4875
342.67145	5600.8875
346.86207	5624.9875
351.04966	5675.1875
355.23424	5744.6875
359.4158	5806.3875
363.59435	5851.1875
367.76989	5903.6875
371.94243	5944.1875
376.11196	6000.3875
380.27849	6023.9875
384.44203	6065.1875
388.60257	6126.6875
392.76012	6213.5875
396.91468	6313.8875
401.06626	6447.6875
405.21485	6547.2875
409.36047	6564.8875
413.50311	6551.9875
417.64277	6498.0875
421.77947	6479.4875
425.9132	6452.6875
430.04396	6443.1875
434.17176	6451.2875
438.2966	6450.3875
442.41849	6477.8875
446.53742	6527.5875
450.6534	6567.3875
454.76644	6609.3875
458.87653	6637.5875
462.98368	6648.5875
467.08789	6657.6875
471.18916	6672.6875
475.2875	6685.8875
479.38291	6700.9875
483.4754	6786.2875
487.56496	6837.5875
491.6516	6895.0875
495.73531	6957.2875
499.81612	7015.7875
503.89401	7077.5875
507.96899	7086.8875
512.04106	7047.3875
516.11023	6994.3875
520.1765	6880.8875
524.23987	6828.5875
528.30034	6734.2875
532.35792	6686.0875
536.41261	6636.7875
540.46441	6627.1875
544.51333	6571.1875
548.55936	6588.8875
552.60252	6614.0875
556.64279	6692.7875
560.6802	6715.8875
564.71473	6736.1875
568.7464	6778.0875
572.7752	6812.1875
576.80114	6835.6875
580.82422	6881.6875
584.84444	6972.8875
588.86181	7032.4875
592.87633	7091.7875
596.888	7094.2875
600.89682	7134.9875
604.9028	7258.3875
608.90594	7542.7875
612.90624	7917.3875
616.90371	7825.3875
620.89834	7329.7875
624.89015	7081.8875
628.87913	7112.3875
632.86528	7244.7875
636.84862	7368.2875
640.82913	7402.6875
644.80683	7376.2875
648.78172	7314.9875
652.75379	7261.5875
656.72306	7235.7875
660.68952	7233.6875
664.65319	7221.4875
668.61405	7228.3875
672.57211	7246.4875
676.52738	7262.7875
680.47986	7252.4875
684.42955	7242.0875
688.37646	7208.7875
692.32058	7181.7875
696.26192	7155.0875
700.20048	7138.7875
704.13626	7104.3875
708.06928	7036.9875
711.99952	6956.9875
715.927	6859.9875
719.85171	6816.2875
723.77365	6761.8875
727.69284	6732.0875
731.60928	6720.0875
735.52295	6702.6875
739.43388	6706.0875
743.34206	6751.5875
747.24749	6806.8875
751.15017	6861.1875
755.05012	6947.0875
758.94733	7010.7875
762.8418	7149.0875
766.73354	7327.8875
770.62254	7501.9875
774.50882	7574.4875
778.39237	7425.5875
782.27321	7211.3875
786.15132	6963.9875
790.02671	6820.7875
793.89938	6750.7875
797.76935	6750.7875
801.6366	6790.7875
805.50115	6849.4875
809.36299	6945.0875
813.22213	6941.5875
817.07857	6889.5875
820.93231	6786.1875
824.78336	6684.7875
828.63172	6583.8875
832.47738	6506.6875
836.32036	6478.3875
840.16066	6468.6875
843.99827	6454.3875
847.8332	6479.6875
851.66546	6472.5875
855.49504	6478.1875
859.32195	6470.8875
863.1462	6474.8875
866.96777	6458.7875
870.78668	6480.1875
874.60293	6526.3875
878.41652	6542.5875
882.22745	6568.0875
886.03573	6642.2875
889.84136	6649.5875
893.64433	6635.6875
897.44466	6623.5875
901.24235	6604.4875
905.0374	6545.0875
908.8298	6535.4875
912.61957	6498.2875
916.40671	6491.4875
920.19121	6491.2875
923.97308	6491.3875
927.75233	6476.5875
931.52895	6429.2875
935.30295	6394.7875
939.07433	6337.1875
942.84309	6316.3875
946.60924	6280.4875
950.37278	6269.2875
954.13371	6261.1875
957.89203	6255.2875
961.64774	6240.7875
965.40086	6263.1875
969.15137	6242.6875
972.89929	6242.8875
976.64461	6225.0875
980.38733	6200.3875
984.12747	6212.4875
987.86502	6220.5875
991.59999	6203.4875
995.33237	6229.6875
999.06217	6259.1875
1002.78939	6296.6875
1006.51404	6322.7875
1010.23611	6370.7875
1013.95561	6385.4875
1017.67255	6414.0875
1021.38692	6429.3875
1025.09872	6410.2875
1028.80796	6362.9875
1032.51465	6356.1875
1036.21877	6337.4875
1039.92035	6330.8875
1043.61937	6354.7875
1047.31584	6368.8875
1051.00976	6371.4875
1054.70114	6397.3875
1058.38998	6379.8875
1062.07627	6403.7875
1065.76003	6450.5875
1069.44126	6457.0875
1073.11995	6484.5875
1076.79611	6524.4875
1080.46974	6544.7875
1084.14085	6544.4875
1087.80943	6526.8875
1091.47549	6538.6875
1095.13903	6518.4875
1098.80005	6492.7875
1102.45857	6459.2875
1106.11456	6405.7875
1109.76805	6419.9875
1113.41903	6469.9875
1117.06751	6568.6875
1120.71348	6684.4875
1124.35696	6821.5875
1127.99793	6991.8875
1131.63641	7115.7875
1135.2724	7199.8875
1138.90589	7221.9875
1142.5369	7183.3875
1146.16542	7138.7875
1149.79145	7018.5875
1153.415	6867.7875
1157.03607	6748.1875
1160.65467	6682.7875
1164.27079	6666.6875
1167.88443	6678.2875
1171.49561	6771.5875
1175.10432	6912.6875
1178.71056	7106.1875
1182.31434	7318.2875
1185.91565	7408.7875
1189.51451	7457.6875
1193.11091	7426.6875
1196.70485	7394.2875
1200.29634	7331.0875
1203.88538	7302.2875
1207.47197	7279.2875
1211.05612	7250.0875
1214.63782	7210.2875
1218.21708	7192.7875
1221.79391	7126.0875
1225.36829	7094.9875
1228.94024	6999.5875
1232.50976	6958.7875
1236.07685	6898.4875
1239.6415	6870.1875
1243.20374	6841.6875
1246.76355	6871.9875
1250.32093	6888.0875
1253.8759	6931.2875
1257.42845	6992.5875
1260.97859	7075.7875
1264.52631	7131.6875
1268.07163	7169.2875
1271.61453	7196.1875
1275.15503	7206.6875
1278.69312	7248.7875
1282.22882	7241.4875
1285.76211	7282.3875
1289.29301	7351.0875
1292.82151	7449.5875
1296.34761	7603.8875
1299.87133	7768.2875
1303.39266	7925.6875
1306.9116	8139.1875
1310.42815	8302.6875
1313.94233	8480.3875
1317.45412	8487.2875
1320.96354	8454.0875
1324.47058	8401.9875
1327.97525	8320.5875
1331.47754	8275.4875
1334.97747	8286.5875
1338.47502	8296.8875
1341.97022	8372.9875
1345.46305	8447.1875
1348.95352	8548.9875
1352.44163	8684.1875
1355.92738	8824.2875
1359.41078	9013.1875
1362.89183	9191.4875
1366.37053	9169.3875
1369.84688	8784.2875
1373.32088	8315.1875
1376.79254	7979.9875
1380.26186	7785.3875
1383.72883	7693.2875
1387.19347	7628.5875
1390.65578	7539.7875
1394.11575	7447.1875
1397.57339	7383.5875
1401.0287	7329.8875
1404.48168	7292.6875
1407.93234	7226.9875
1411.38068	7138.2875
1414.82669	7052.8875
1418.27039	6935.8875
1421.71177	6783.0875
1425.15083	6696.1875
1428.58758	6590.3875
1432.02203	6567.8875
1435.45416	6565.6875
1438.88399	6563.5875
1442.31151	6549.5875
1445.73673	6576.3875
1449.15965	6578.3875
1452.58027	6601.8875
1455.9986	6604.1875
1459.41463	6643.1875
1462.82837	6684.1875
1466.23982	6757.4875
1469.64898	6820.7875
1473.05586	6886.7875
1476.46045	6930.8875
1479.86276	6947.8875
1483.26279	6969.9875
1486.66054	7004.6875
1490.05602	7043.5875
1493.44922	7128.6875
1496.84016	7262.5875
1500.22882	7434.4875
1503.61521	7645.7875
1506.99934	7893.7875
1510.38121	8067.3875
1513.76081	8105.6875
1517.13816	7961.4875
1520.51324	7763.2875
1523.88607	7573.8875
1527.25665	7455.1875
1530.62498	7400.8875
1533.99105	7416.4875
1537.35488	7408.4875
1540.71647	7421.5875
1544.07581	7434.2875
1547.4329	7425.6875
1550.78776	7462.4875
1554.14038	7469.6875
1557.49077	7510.9875
1560.83892	7568.5875
1564.18484	7592.6875
1567.52853	7665.5875
1570.86999	7712.4875
1574.20922	7749.6875
1577.54624	7763.8875
1580.88103	7737.7875
1584.2136	7658.2875
1587.54395	7623.7875
1590.87208	7610.0875
1594.19801	7684.8875
1597.52172	7743.4875
1600.84321	7793.7875
1604.16251	7699.4875
1607.47959	7567.1875
1610.79447	7415.9875
1614.10715	7225.9875
1617.41763	7056.5875
1620.7259	6934.0875
1624.03199	6856.3875
1627.33587	6827.5875
1630.63757	6833.4875
1633.93707	6917.6875
1637.23439	7047.2875
1640.52951	7267.9875
1643.82246	7550.5875
1647.11321	7834.0875
1650.40179	8035.0875
1653.68819	7949.5875
1656.97241	7667.7875
1660.25446	7289.8875
1663.53433	6985.7875
1666.81203	6758.3875
1670.08756	6570.9875
1673.36092	6447.4875
1676.63211	6342.3875
1679.90115	6245.4875
1683.16801	6148.4875
1686.43272	6061.5875
1689.69527	5961.5875
1692.95567	5860.7875
1696.2139	5780.7875
1699.46999	5691.9875
1702.72392	5633.0875
1705.97571	5568.2875
1709.22535	5509.7875
1712.47284	5484.5875
1715.71819	5449.1875
1718.96139	5407.1875
1722.20246	5384.2875
1725.44139	5316.3875
1728.67818	5259.3875
1731.91284	5204.3875
1735.14537	5126.6875
1738.37576	5096.2875
1741.60403	5057.0875
1744.83017	5022.3875
1748.05418	4998.5875
1751.27607	5000.5875
1754.49584	4964.3875
1757.71349	4951.7875
1760.92903	4916.8875
1764.14244	4919.1875
1767.35375	4929.7875
1770.56294	4898.6875
1773.77002	4886.9875
1776.97499	4840.6875
1780.17785	4833.1875
1783.37861	4821.9875
1786.57727	4803.0875
1789.77382	4786.2875
1792.96828	4765.3875
1796.16064	4757.4875
1799.3509	4734.0875
1802.53907	4715.9875
1805.72514	4693.1875
1808.90913	4670.1875
1812.09102	4663.3875
1815.27083	4644.4875
1818.44856	4638.7875
1821.6242	4619.3875
1824.79776	4625.7875
1827.96924	4605.4875
1831.13864	4592.4875
1834.30597	4597.2875
1837.47122	4573.9875
1840.6344	4556.3875
1843.7955	4566.5875
1846.95454	4550.6875
1850.11151	4556.6875
1853.26642	4554.2875
1856.41926	4541.0875
1859.57004	4533.5875
1862.71876	4533.9875
1865.86542	4500.2875
1869.01003	4504.4875
1872.15258	4510.8875
1875.29308	4493.4875
1878.43152	4465.7875
1881.56792	4465.9875
1884.70227	4453.5875
1887.83457	4446.6875
1890.96482	4432.6875
1894.09304	4448.6875
1897.21921	4421.3875
1900.34335	4418.0875
1903.46544	4408.7875
1906.58551	4403.0875
1909.70353	4401.1875
1912.81953	4381.2875
1915.93349	4382.6875
1919.04543	4362.2875
1922.15534	4355.4875
1925.26322	4348.0875
1928.36908	4325.9875
1931.47292	4335.1875
1934.57473	4315.3875
1937.67453	4299.1875
1940.77232	4298.2875
1943.86808	4284.1875
1946.96184	4259.3875
1950.05358	4229.3875
1953.14331	4222.7875
1956.23103	4220.8875
1959.31675	4196.9875
1962.40046	4186.2875
1965.48217	4183.6875
1968.56188	4163.8875
1971.63959	4148.8875
1974.7153	4123.3875
1977.78901	4120.0875
1980.86073	4108.5875
1983.93046	4094.5875
1986.99819	4087.5875
1990.06394	4069.2875
1993.1277	4044.2875
1996.18947	4031.5875
1999.24925	4032.8875
2002.30706	4013.0875
2005.36288	4000.9875
2008.41672	3994.1875
2011.46859	3973.6875
2014.51848	3948.1875
2017.56639	3947.5875
2020.61233	3934.5875
2023.6563	3920.5875
2026.6983	3911.0875
2029.73833	3898.1875
2032.7764	3890.5875
2035.8125	3877.0875
2038.84664	3862.2875
2041.87881	3879.3875
2044.90903	3852.0875
2047.93729	3836.5875
2050.96359	3838.9875
2053.98794	3824.7875
2057.01034	3822.3875
2060.03078	3818.5875
2063.04927	3804.3875
2066.06582	3795.1875
2069.08042	3793.7875
2072.09307	3779.5875
2075.10378	3786.6875
2078.11255	3773.4875
2081.11938	3785.9875
2084.12426	3782.3875
2087.12722	3771.6875
2090.12824	3779.9875
2093.12732	3787.8875
2096.12447	3779.2875
2099.11969	3773.5875
2102.11299	3773.4875
2105.10435	3755.2875
2108.09379	3785.8875
2111.08131	3768.9875
2114.0669	3767.5875
2117.05057	3778.8875
2120.03233	3776.0875
2123.01216	3778.8875
2125.99008	3770.7875
2128.96609	3760.9875
2131.94018	3781.0875
2134.91236	3791.5875
2137.88263	3785.1875
2140.851	3781.3875
2143.81746	3771.7875
2146.78201	3771.4875
2149.74466	3768.6875
2152.7054	3775.8875
2155.66425	3771.1875
2158.6212	3769.6875
2161.57625	3758.7875
2164.52941	3772.6875
2167.48067	3753.2875
2170.43004	3752.0875
2173.37752	3746.5875
2176.32311	3733.2875
2179.26681	3746.2875
2182.20863	3729.7875
2185.14856	3731.7875
2188.08661	3736.8875
2191.02278	3730.4875
2193.95707	3736.8875
2196.88948	3724.8875
2199.82001	3711.1875
2202.74867	3709.4875
2205.67545	3701.2875
2208.60037	3692.3875
2211.52341	3677.2875
2214.44458	3671.0875
2217.36388	3649.9875
2220.28132	3649.7875
2223.1969	3648.2875
2226.11061	3634.7875
2229.02246	3625.6875
2231.93245	3620.3875
2234.84058	3618.2875
2237.74686	3600.0875
2240.65128	3599.4875
2243.55385	3586.2875
2246.45456	3576.3875
2249.35343	3555.2875
2252.25044	3569.3875
2255.14561	3563.0875
2258.03893	3556.2875
2260.93041	3553.7875
2263.82004	3545.5875
2266.70783	3534.9875
2269.59378	3526.2875
2272.4779	3516.0875
2275.36017	3504.9875
2278.24061	3492.1875
2281.11922	3476.8875
2283.996	3473.6875
2286.87094	3483.8875
2289.74405	3446.8875
2292.61534	3449.2875
2295.4848	3432.1875
2298.35243	3434.5875
2301.21824	3427.7875
2304.08223	3421.7875
2306.94439	3417.3875
2309.80474	3420.0875
2312.66327	3416.0875
2315.51999	3412.0875
2318.37489	3411.4875
2321.22797	3385.1875
2324.07925	3379.8875
2326.92871	3375.8875
2329.77637	3367.0875
2332.62222	3375.0875
2335.46626	3367.6875
2338.3085	3351.1875
2341.14893	3357.4875
2343.98756	3335.9875
2346.8244	3331.9875
2349.65943	3336.2875
2352.49267	3328.3875
2355.32411	3334.7875
2358.15376	3316.8875
2360.98161	3303.2875
2363.80768	3307.4875
2366.63195	3304.3875
2369.45444	3305.7875
2372.27514	3293.6875
2375.09405	3290.3875
2377.91118	3291.6875
2380.72652	3279.6875
2383.54009	3261.4875
2386.35187	3275.1875
2389.16188	3248.8875
2391.97011	3234.9875
2394.77657	3227.5875
2397.58125	3218.3875
2400.38416	3211.5875
2403.18529	3203.7875
2405.98466	3212.0875
2408.78226	3202.5875
2411.57809	3189.8875
2414.37216	3176.7875
2417.16446	3179.0875
2419.955	3175.0875
2422.74378	3166.9875
2425.5308	3164.8875
2428.31606	3154.8875
2431.09956	3153.5875
2433.88131	3143.0875
2436.6613	3141.9875
2439.43954	3150.7875
2442.21603	3134.5875
2444.99077	3139.0875
2447.76377	3132.3875
2450.53501	3135.2875
2453.30451	3129.1875
2456.07226	3118.2875
2458.83827	3108.8875
2461.60254	3106.1875
2464.36507	3092.6875
2467.12586	3106.1875
2469.88492	3095.2875
2472.64224	3089.2875
2475.39782	3077.8875
2478.15167	3085.2875
2480.90379	3089.5875
2483.65417	3075.7875
2486.40283	3051.4875
2489.14976	3081.4875
2491.89497	3071.0875
2494.63845	3070.2875
2497.3802	3054.3875
2500.12024	3052.7875
2502.85855	3050.5875
2505.59514	3041.6875
2508.33002	3035.5875
2511.06318	3021.9875
2513.79462	3023.2875
2516.52435	3014.0875
2519.25237	3011.7875
2521.97867	3016.6875
2524.70327	2988.7875
2527.42616	3000.9875
2530.14734	3004.6875
2532.86681	2984.4875
2535.58458	2981.1875
2538.30065	2961.7875
2541.01501	2958.3875
2543.72768	2958.6875
2546.43864	2940.1875
2549.14791	2942.7875
2551.85548	2946.3875
2554.56136	2938.9875
2557.26554	2921.2875
2559.96803	2915.1875
2562.66883	2916.8875
2565.36794	2913.1875
2568.06536	2908.8875
2570.7611	2894.9875
2573.45514	2901.6875
2576.14751	2892.8875
2578.83819	2884.7875
2581.52719	2871.1875
2584.21451	2867.2875
2586.90015	2858.4875
2589.58411	2862.8875
2592.2664	2849.7875
2594.94701	2845.2875
2597.62594	2828.4875
2600.30321	2818.9875
2602.9788	2818.0875
2605.65273	2820.7875
2608.32498	2806.2875
2610.99557	2809.2875
2613.66449	2802.3875
2616.33175	2805.8875
2618.99734	2794.3875
2621.66128	2788.2875
2624.32355	2780.4875
2626.98416	2774.7875
2629.64311	2771.2875
2632.30041	2763.1875
2634.95605	2778.6875
2637.61004	2758.0875
2640.26238	2765.9875
2642.91306	2745.9875
2645.56209	2748.8875
2648.20948	2750.3875
2650.85521	2762.8875
2653.4993	2747.2875
2656.14175	2728.7875
2658.78255	2739.3875
2661.42171	2732.4875
2664.05923	2733.2875
2666.6951	2721.1875
2669.32934	2732.5875
2671.96194	2728.6875
2674.59291	2720.3875
2677.22224	2729.7875
2679.84993	2733.1875
2682.476	2723.1875
2685.10043	2725.9875
2687.72324	2723.4875
2690.34441	2706.8875
2692.96396	2712.4875
2695.58188	2718.1875
2698.19818	2715.4875
2700.81285	2726.0875
2703.4259	2734.0875
2706.03733	2740.8875
2708.64714	2722.5875
2711.25533	2699.1875
2713.86191	2710.2875
2716.46687	2703.9875
2719.07021	2718.1875
2721.67194	2703.2875
2724.27206	2690.1875
2726.87057	2701.0875
2729.46747	2695.7875
2732.06276	2683.0875
2734.65644	2698.8875
2737.24852	2683.1875
2739.83899	2692.6875
2742.42786	2691.7875
2745.01513	2686.3875
2747.60079	2673.6875
2750.18486	2667.4875
2752.76733	2668.8875
2755.3482	2662.4875
2757.92747	2655.8875
2760.50515	2648.1875
2763.08123	2640.2875
2765.65573	2641.9875
2768.22863	2642.2875
2770.79994	2616.5875
2773.36967	2629.7875
2775.9378	2607.7875
2778.50435	2624.0875
2781.06932	2609.6875
2783.6327	2621.1875
2786.1945	2606.8875
2788.75471	2602.9875
2791.31335	2597.3875
2793.87041	2588.4875
2796.42589	2580.0875
2798.97979	2566.6875
2801.53212	2564.1875
2804.08288	2564.3875
2806.63206	2560.3875
2809.17967	2554.0875
2811.72571	2548.9875
2814.27018	2534.6875
2816.81308	2540.0875
2819.35442	2524.8875
2821.89419	2519.4875
2824.43239	2520.4875
2826.96904	2512.4875
2829.50412	2510.6875
2832.03763	2502.1875
2834.56959	2508.0875
2837.1	2500.2875
2839.62884	2503.7875
2842.15613	2502.4875
2844.68186	2502.4875
2847.20604	2501.4875
2849.72867	2502.1875
2852.24974	2502.7875
2854.76927	2494.6875
2857.28724	2503.1875
2859.80367	2485.7875
2862.31855	2486.0875
2864.83189	2480.5875
2867.34368	2486.5875
2869.85393	2474.4875
2872.36264	2468.3875
2874.8698	2478.2875
2877.37543	2473.4875
2879.87952	2476.7875
2882.38207	2465.1875
2884.88308	2477.0875
2887.38256	2476.2875
2889.88051	2474.7875
2892.37692	2458.0875
2894.8718	2472.7875
2897.36515	2471.5875
2899.85698	2474.9875
2902.34727	2474.7875
2904.83604	2458.8875
2907.32328	2467.3875
2909.809	2468.5875
2912.29319	2466.5875
2914.77587	2466.4875
2917.25702	2462.5875
2919.73665	2460.1875
2922.21476	2464.7875
2924.69136	2470.9875
2927.16644	2459.7875
2929.64	2457.3875
2932.11205	2461.1875
2934.58258	2456.1875
2937.05161	2455.6875
2939.51912	2451.1875
2941.98513	2459.8875
2944.44962	2453.4875
2946.91261	2441.5875
2949.37409	2437.1875
2951.83407	2438.3875
2954.29254	2443.7875
2956.74951	2439.4875
2959.20498	2433.3875
2961.65895	2425.0875
2964.11142	2431.4875
2966.56239	2416.5875
2969.01186	2430.8875
2971.45984	2406.7875
2973.90632	2408.7875
2976.35131	2404.2875
2978.7948	2399.3875
2981.23681	2403.3875
2983.67732	2396.9875
2986.11635	2386.6875
2988.55388	2382.3875
2990.98993	2369.5875
2993.4245	2363.6875
2995.85758	2367.2875
2998.28917	2372.0875
3000.71928	2356.0875
3003.14791	2349.8875
3005.57506	2358.9875
3008.00073	2360.1875
3010.42493	2369.3875
3012.84764	2349.8875
3015.26888	2344.6875
3017.68865	2347.8875
3020.10694	2346.2875
3022.52376	2338.8875
3024.9391	2340.9875
3027.35298	2333.0875
3029.76539	2323.3875
3032.17632	2332.7875
3034.5858	2327.0875
3036.9938	2322.9875
3039.40034	2322.4875
3041.80542	2331.4875
3044.20903	2318.4875
3046.61118	2317.5875
3049.01187	2318.3875
3051.4111	2311.8875
3053.80888	2318.0875
3056.20519	2321.6875
3058.60005	2301.1875
3060.99345	2309.8875
3063.3854	2302.7875
3065.7759	2307.6875
3068.16494	2302.2875
3070.55254	2288.1875
3072.93868	2292.1875
3075.32338	2290.9875
3077.70662	2296.3875
3080.08842	2299.4875
3082.46878	2302.2875
3084.84769	2296.2875
3087.22515	2298.9875
3089.60118	2294.1875
3091.97576	2302.4875
3094.3489	2303.4875
3096.72061	2309.5875
3099.09087	2320.9875
3101.4597	2317.8875
3103.82709	2321.4875
3106.19305	2322.9875
3108.55757	2326.0875
3110.92066	2310.0875
3113.28232	2304.9875
3115.64255	2311.1875
3118.00134	2312.7875
3120.35871	2304.8875
3122.71466	2311.0875
3125.06917	2317.5875
3127.42226	2322.7875
3129.77393	2328.1875
3132.12417	2326.4875
3134.47299	2325.5875
3136.82039	2319.5875
3139.16636	2337.0875
3141.51092	2340.6875
3143.85406	2342.2875
3146.19579	2347.5875
3148.53609	2360.7875
3150.87499	2354.2875
3153.21246	2358.9875
3155.54853	2365.8875
3157.88318	2366.1875
3160.21642	2372.6875
3162.54826	2380.7875
3164.87868	2393.9875
3167.2077	2388.4875
3169.5353	2404.0875
3171.86151	2405.2875
3174.18631	2397.8875
3176.5097	2402.5875
3178.83169	2399.0875
3181.15228	2393.3875
3183.47147	2399.2875
3185.78926	2413.1875
3188.10565	2403.1875
3190.42065	2407.1875
3192.73424	2412.0875
3195.04645	2418.6875
3197.35725	2414.3875
3199.66667	2411.4875
3201.97469	2436.7875
3204.28132	2442.8875
3206.58656	2435.8875
3208.8904	2441.9875
3211.19287	2446.5875
3213.49394	2447.1875
3215.79363	2446.0875
3218.09193	2442.5875
3220.38884	2451.1875
3222.68438	2452.2875
3224.97853	2444.7875
3227.2713	2446.5875
3229.56269	2454.3875
3231.8527	2449.5875
3234.14133	2431.7875
3236.42858	2434.9875
3238.71446	2433.2875
3240.99896	2419.0875
3243.28209	2423.4875
3245.56384	2429.2875
3247.84423	2426.0875
3250.12324	2432.3875
3252.40088	2418.9875
3254.67715	2420.2875
3256.95205	2425.0875
3259.22558	2415.4875
3261.49775	2413.2875
3263.76855	2415.2875
3266.03799	2402.8875
3268.30606	2391.8875
3270.57277	2399.0875
3272.83812	2393.9875
3275.10211	2393.1875
3277.36474	2389.0875
3279.62601	2379.6875
3281.88593	2397.9875
3284.14448	2392.8875
3286.40168	2392.3875
3288.65753	2384.4875
3290.91202	2382.5875
3293.16516	2374.2875
3295.41695	2366.2875
3297.66738	2345.9875
3299.91647	2333.4875
3302.16421	2325.3875
3304.4106	2320.7875
3306.65564	2314.5875
3308.89933	2294.8875
3311.14169	2279.4875
3313.38269	2273.0875
3315.62236	2249.5875
3317.86068	2233.1875
3320.09766	2220.8875
3322.3333	2195.0875
3324.5676	2211.0875
3326.80056	2172.4875
3329.03219	2165.3875
3331.26248	-0.4125
3333.49143	0.9875
3335.71905	-1.5125
