Data from AgNPs_FTO_APTES_UA_0.1mM_CRN_100uM_NaF_0.1M_Addition_RamanShift__20__13-39-37-692.txt Node

Date: Mon Dec 20 13:39:37 GMT 2021
User: TCL
Spectrometer: QEP01345
Trigger mode: 4
Integration Time (sec): 7.000000E0
Scans to average: 10
Electric dark correction enabled: true
Nonlinearity correction enabled: false
Boxcar width: 0
XAxis mode: Raman Shifts
Number of Pixels in Spectrum: 1044
>>>>>Begin Spectral Data<<<<<
46.04893	0.525
50.45542	-0.875
54.85868	-0.675
59.25871	1.925
63.6555	29.425
68.04907	30.125
72.43941	34.725
76.82654	34.725
81.21044	32.625
85.59113	38.825
89.96862	35.325
94.34289	39.925
98.71396	42.625
103.08183	43.425
107.4465	41.825
111.80798	46.825
116.16626	44.525
120.52136	46.425
124.87327	52.725
129.222	48.125
133.56755	56.125
137.90993	56.225
142.24913	61.125
146.58517	63.225
150.91804	76.425
155.24774	91.225
159.57429	108.825
163.89768	132.225
168.21792	179.525
172.53501	227.825
176.84895	315.625
181.15975	440.725
185.46741	603.425
189.77193	840.425
194.07331	1121.425
198.37157	1473.225
202.6667	1819.625
206.9587	2196.325
211.24758	2536.425
215.53334	2919.525
219.81599	3277.125
224.09553	3677.425
228.37195	4083.625
232.64527	4534.725
236.91549	4998.125
241.18261	5439.725
245.44663	5836.025
249.70755	6203.425
253.96539	6535.125
258.22014	6775.325
262.4718	6954.825
266.72039	7040.425
270.96589	7065.125
275.20832	7017.025
279.44768	6920.125
283.68397	6822.025
287.91719	6709.725
292.14735	6628.325
296.37445	6572.725
300.59849	6553.225
304.81948	6564.225
309.03742	6562.525
313.25231	6502.125
317.46415	6389.025
321.67296	6263.025
325.87872	6135.125
330.08145	6089.925
334.28114	6102.525
338.47781	6118.225
342.67145	6166.825
346.86207	6248.125
351.04966	6369.825
355.23424	6505.025
359.4158	6608.225
363.59435	6700.025
367.76989	6778.325
371.94243	6844.725
376.11196	6868.225
380.27849	6932.225
384.44203	7004.825
388.60257	7031.225
392.76012	7088.325
396.91468	7139.125
401.06626	7210.725
405.21485	7289.425
409.36047	7260.325
413.50311	7202.125
417.64277	7132.225
421.77947	7077.225
425.9132	7069.125
430.04396	7102.225
434.17176	7117.225
438.2966	7157.125
442.41849	7220.925
446.53742	7308.925
450.6534	7405.925
454.76644	7462.525
458.87653	7504.725
462.98368	7534.425
467.08789	7524.325
471.18916	7531.125
475.2875	7525.025
479.38291	7551.025
483.4754	7625.025
487.56496	7700.125
491.6516	7785.325
495.73531	7825.425
499.81612	7801.725
503.89401	7770.425
507.96899	7704.125
512.04106	7648.325
516.11023	7657.825
520.1765	7685.225
524.23987	7699.225
528.30034	7696.425
532.35792	7708.425
536.41261	7643.025
540.46441	7562.925
544.51333	7489.525
548.55936	7433.725
552.60252	7442.825
556.64279	7463.425
560.6802	7481.425
564.71473	7515.225
568.7464	7590.425
572.7752	7661.625
576.80114	7675.725
580.82422	7668.525
584.84444	7717.425
588.86181	7814.325
592.87633	7874.025
596.888	7889.525
600.89682	7877.625
604.9028	8047.225
608.90594	8546.525
612.90624	9240.925
616.90371	9273.825
620.89834	8621.125
624.89015	8528.825
628.87913	8866.025
632.86528	9267.525
636.84862	9565.825
640.82913	9495.225
644.80683	9155.525
648.78172	8696.825
652.75379	8350.525
656.72306	8169.825
660.68952	8131.225
664.65319	8091.925
668.61405	8063.025
672.57211	8103.525
676.52738	8172.725
680.47986	8206.025
684.42955	8204.225
688.37646	8156.825
692.32058	8084.725
696.26192	7993.525
700.20048	7935.025
704.13626	7883.125
708.06928	7792.425
711.99952	7695.425
715.927	7630.425
719.85171	7623.525
723.77365	7622.025
727.69284	7636.125
731.60928	7587.125
735.52295	7530.625
739.43388	7451.525
743.34206	7434.925
747.24749	7454.625
751.15017	7489.925
755.05012	7503.625
758.94733	7571.825
762.8418	7740.325
766.73354	8035.725
770.62254	8359.825
774.50882	8474.525
778.39237	8355.525
782.27321	7994.425
786.15132	7675.025
790.02671	7511.525
793.89938	7472.125
797.76935	7468.425
801.6366	7526.025
805.50115	7688.725
809.36299	7880.125
813.22213	7968.325
817.07857	7897.825
820.93231	7685.725
824.78336	7463.225
828.63172	7292.325
832.47738	7195.525
836.32036	7139.725
840.16066	7094.225
843.99827	7043.825
847.8332	7050.125
851.66546	7055.825
855.49504	7039.925
859.32195	7067.925
863.1462	7119.125
866.96777	7164.425
870.78668	7219.325
874.60293	7352.025
878.41652	7445.625
882.22745	7585.525
886.03573	7672.625
889.84136	7683.125
893.64433	7576.825
897.44466	7367.625
901.24235	7203.525
905.0374	7040.525
908.8298	6950.525
912.61957	6866.425
916.40671	6843.325
920.19121	6843.425
923.97308	6836.225
927.75233	6820.925
931.52895	6840.325
935.30295	6826.125
939.07433	6765.525
942.84309	6719.025
946.60924	6694.825
950.37278	6684.225
954.13371	6672.825
957.89203	6643.125
961.64774	6633.225
965.40086	6584.525
969.15137	6565.025
972.89929	6523.225
976.64461	6511.825
980.38733	6498.325
984.12747	6481.625
987.86502	6506.225
991.59999	6545.725
995.33237	6581.025
999.06217	6654.825
1002.78939	6759.725
1006.51404	6826.625
1010.23611	6894.525
1013.95561	6980.725
1017.67255	6981.025
1021.38692	6958.225
1025.09872	6893.425
1028.80796	6822.425
1032.51465	6720.425
1036.21877	6695.325
1039.92035	6685.925
1043.61937	6641.825
1047.31584	6644.725
1051.00976	6627.325
1054.70114	6640.225
1058.38998	6670.825
1062.07627	6711.625
1065.76003	6788.025
1069.44126	6822.925
1073.11995	6868.625
1076.79611	6906.825
1080.46974	6894.625
1084.14085	6846.625
1087.80943	6811.925
1091.47549	6740.725
1095.13903	6697.125
1098.80005	6656.825
1102.45857	6606.925
1106.11456	6574.125
1109.76805	6628.325
1113.41903	6721.225
1117.06751	6875.925
1120.71348	7109.425
1124.35696	7448.025
1127.99793	7873.225
1131.63641	8275.725
1135.2724	8459.125
1138.90589	8452.625
1142.5369	8258.125
1146.16542	7927.225
1149.79145	7558.125
1153.415	7234.925
1157.03607	7013.225
1160.65467	6890.625
1164.27079	6841.325
1167.88443	6917.925
1171.49561	7039.825
1175.10432	7289.225
1178.71056	7594.725
1182.31434	7885.925
1185.91565	8068.425
1189.51451	8077.725
1193.11091	8037.425
1196.70485	8021.125
1200.29634	8022.625
1203.88538	8033.225
1207.47197	7917.625
1211.05612	7708.025
1214.63782	7488.625
1218.21708	7316.725
1221.79391	7139.425
1225.36829	6994.225
1228.94024	6914.125
1232.50976	6842.625
1236.07685	6806.425
1239.6415	6814.025
1243.20374	6817.825
1246.76355	6857.625
1250.32093	6889.725
1253.8759	6940.125
1257.42845	7006.225
1260.97859	7049.425
1264.52631	7121.225
1268.07163	7157.825
1271.61453	7214.325
1275.15503	7255.425
1278.69312	7245.425
1282.22882	7272.425
1285.76211	7325.125
1289.29301	7416.925
1292.82151	7559.425
1296.34761	7709.025
1299.87133	7919.625
1303.39266	8202.225
1306.9116	8562.725
1310.42815	8912.725
1313.94233	9170.325
1317.45412	9173.325
1320.96354	9021.525
1324.47058	8865.125
1327.97525	8691.525
1331.47754	8613.725
1334.97747	8598.725
1338.47502	8665.525
1341.97022	8754.025
1345.46305	8922.725
1348.95352	9069.225
1352.44163	9311.625
1355.92738	9576.625
1359.41078	10005.325
1362.89183	10451.725
1366.37053	10412.325
1369.84688	9727.125
1373.32088	8994.725
1376.79254	8496.725
1380.26186	8212.025
1383.72883	8048.325
1387.19347	7953.625
1390.65578	7789.625
1394.11575	7712.525
1397.57339	7649.525
1401.0287	7604.525
1404.48168	7572.725
1407.93234	7507.625
1411.38068	7412.525
1414.82669	7277.025
1418.27039	7128.325
1421.71177	6945.525
1425.15083	6779.325
1428.58758	6665.225
1432.02203	6600.025
1435.45416	6565.725
1438.88399	6581.425
1442.31151	6602.425
1445.73673	6612.025
1449.15965	6608.225
1452.58027	6646.725
1455.9986	6634.725
1459.41463	6672.325
1462.82837	6695.425
1466.23982	6758.725
1469.64898	6810.825
1473.05586	6879.425
1476.46045	6884.225
1479.86276	6910.125
1483.26279	6902.825
1486.66054	6929.625
1490.05602	6967.825
1493.44922	7072.925
1496.84016	7224.925
1500.22882	7411.325
1503.61521	7756.425
1506.99934	8165.725
1510.38121	8491.225
1513.76081	8603.025
1517.13816	8411.925
1520.51324	7934.925
1523.88607	7553.025
1527.25665	7301.725
1530.62498	7173.225
1533.99105	7145.125
1537.35488	7146.725
1540.71647	7143.825
1544.07581	7175.725
1547.4329	7183.925
1550.78776	7206.225
1554.14038	7207.225
1557.49077	7250.425
1560.83892	7277.025
1564.18484	7338.625
1567.52853	7406.225
1570.86999	7497.825
1574.20922	7527.725
1577.54624	7572.425
1580.88103	7542.025
1584.2136	7446.425
1587.54395	7379.225
1590.87208	7385.525
1594.19801	7496.525
1597.52172	7657.725
1600.84321	7759.025
1604.16251	7664.125
1607.47959	7513.625
1610.79447	7340.325
1614.10715	7188.125
1617.41763	6995.225
1620.7259	6880.325
1624.03199	6899.625
1627.33587	6833.625
1630.63757	6854.325
1633.93707	6974.225
1637.23439	7179.425
1640.52951	7422.825
1643.82246	7820.125
1647.11321	8243.125
1650.40179	8498.225
1653.68819	8432.125
1656.97241	8020.925
1660.25446	7541.425
1663.53433	7183.625
1666.81203	6924.925
1670.08756	6774.025
1673.36092	6666.725
1676.63211	6595.525
1679.90115	6561.925
1683.16801	6481.225
1686.43272	6387.025
1689.69527	6273.825
1692.95567	6163.125
1696.2139	6047.525
1699.46999	5928.025
1702.72392	5776.025
1705.97571	5681.325
1709.22535	5566.325
1712.47284	5506.025
1715.71819	5429.225
1718.96139	5381.125
1722.20246	5335.825
1725.44139	5287.625
1728.67818	5230.825
1731.91284	5196.625
1735.14537	5144.925
1738.37576	5105.325
1741.60403	5082.625
1744.83017	5056.825
1748.05418	5045.225
1751.27607	5044.925
1754.49584	5056.425
1757.71349	5033.925
1760.92903	5021.325
1764.14244	4997.425
1767.35375	4973.325
1770.56294	4950.225
1773.77002	4899.525
1776.97499	4867.725
1780.17785	4807.725
1783.37861	4793.625
1786.57727	4757.225
1789.77382	4736.725
1792.96828	4709.025
1796.16064	4664.225
1799.3509	4664.625
1802.53907	4652.425
1805.72514	4615.325
1808.90913	4597.725
1812.09102	4588.525
1815.27083	4572.925
1818.44856	4547.825
1821.6242	4542.025
1824.79776	4530.225
1827.96924	4521.025
1831.13864	4511.725
1834.30597	4517.625
1837.47122	4501.325
1840.6344	4497.125
1843.7955	4501.625
1846.95454	4488.325
1850.11151	4496.325
1853.26642	4478.725
1856.41926	4468.925
1859.57004	4478.725
1862.71876	4455.925
1865.86542	4465.025
1869.01003	4448.225
1872.15258	4430.625
1875.29308	4439.025
1878.43152	4404.225
1881.56792	4411.225
1884.70227	4386.625
1887.83457	4406.525
1890.96482	4379.725
1894.09304	4389.325
1897.21921	4372.025
1900.34335	4365.025
1903.46544	4362.425
1906.58551	4355.525
1909.70353	4346.025
1912.81953	4346.425
1915.93349	4344.225
1919.04543	4324.525
1922.15534	4315.625
1925.26322	4311.925
1928.36908	4307.825
1931.47292	4284.425
1934.57473	4259.625
1937.67453	4246.525
1940.77232	4254.725
1943.86808	4234.325
1946.96184	4221.925
1950.05358	4207.125
1953.14331	4216.825
1956.23103	4193.825
1959.31675	4182.025
1962.40046	4152.425
1965.48217	4151.525
1968.56188	4133.625
1971.63959	4109.625
1974.7153	4096.225
1977.78901	4094.825
1980.86073	4073.925
1983.93046	4070.725
1986.99819	4051.425
1990.06394	4039.025
1993.1277	4034.725
1996.18947	4023.825
1999.24925	4006.825
2002.30706	3999.925
2005.36288	3986.725
2008.41672	3964.425
2011.46859	3960.425
2014.51848	3945.525
2017.56639	3921.825
2020.61233	3918.525
2023.6563	3899.225
2026.6983	3903.125
2029.73833	3880.925
2032.7764	3883.525
2035.8125	3875.625
2038.84664	3857.125
2041.87881	3874.625
2044.90903	3844.025
2047.93729	3841.125
2050.96359	3829.525
2053.98794	3832.025
2057.01034	3814.325
2060.03078	3804.225
2063.04927	3801.725
2066.06582	3822.525
2069.08042	3798.125
2072.09307	3803.425
2075.10378	3791.925
2078.11255	3802.025
2081.11938	3801.225
2084.12426	3790.325
2087.12722	3798.925
2090.12824	3792.425
2093.12732	3796.425
2096.12447	3796.125
2099.11969	3789.525
2102.11299	3772.425
2105.10435	3793.325
2108.09379	3797.125
2111.08131	3784.225
2114.0669	3803.725
2117.05057	3793.225
2120.03233	3794.025
2123.01216	3802.225
2125.99008	3813.525
2128.96609	3798.125
2131.94018	3806.625
2134.91236	3806.125
2137.88263	3806.025
2140.851	3807.125
2143.81746	3814.525
2146.78201	3801.725
2149.74466	3803.225
2152.7054	3808.025
2155.66425	3813.325
2158.6212	3809.725
2161.57625	3807.125
2164.52941	3799.125
2167.48067	3809.925
2170.43004	3790.825
2173.37752	3797.125
2176.32311	3782.825
2179.26681	3782.925
2182.20863	3775.025
2185.14856	3792.725
2188.08661	3786.125
2191.02278	3793.225
2193.95707	3783.725
2196.88948	3755.425
2199.82001	3757.625
2202.74867	3763.325
2205.67545	3758.425
2208.60037	3744.925
2211.52341	3734.925
2214.44458	3741.425
2217.36388	3719.125
2220.28132	3712.425
2223.1969	3708.425
2226.11061	3694.725
2229.02246	3687.325
2231.93245	3701.825
2234.84058	3668.625
2237.74686	3660.125
2240.65128	3659.425
2243.55385	3670.925
2246.45456	3651.625
2249.35343	3654.625
2252.25044	3644.825
2255.14561	3632.025
2258.03893	3629.925
2260.93041	3638.125
2263.82004	3615.125
2266.70783	3614.225
2269.59378	3595.025
2272.4779	3595.025
2275.36017	3580.625
2278.24061	3570.425
2281.11922	3557.425
2283.996	3575.125
2286.87094	3558.325
2289.74405	3550.225
2292.61534	3530.825
2295.4848	3537.825
2298.35243	3533.025
2301.21824	3526.225
2304.08223	3537.325
2306.94439	3519.925
2309.80474	3514.125
2312.66327	3512.125
2315.51999	3518.625
2318.37489	3513.325
2321.22797	3504.325
2324.07925	3502.625
2326.92871	3491.125
2329.77637	3487.725
2332.62222	3479.325
2335.46626	3458.125
2338.3085	3464.325
2341.14893	3452.225
2343.98756	3464.325
2346.8244	3445.925
2349.65943	3443.825
2352.49267	3445.125
2355.32411	3447.225
2358.15376	3447.125
2360.98161	3435.725
2363.80768	3424.225
2366.63195	3437.725
2369.45444	3432.525
2372.27514	3434.825
2375.09405	3428.125
2377.91118	3418.125
2380.72652	3405.725
2383.54009	3385.525
2386.35187	3398.825
2389.16188	3376.625
2391.97011	3366.925
2394.77657	3376.625
2397.58125	3350.725
2400.38416	3359.325
2403.18529	3350.825
2405.98466	3365.925
2408.78226	3347.925
2411.57809	3334.025
2414.37216	3323.825
2417.16446	3319.325
2419.955	3323.725
2422.74378	3324.825
2425.5308	3304.025
2428.31606	3306.525
2431.09956	3300.025
2433.88131	3296.925
2436.6613	3290.125
2439.43954	3284.025
2442.21603	3277.225
2444.99077	3273.825
2447.76377	3284.325
2450.53501	3265.825
2453.30451	3274.425
2456.07226	3276.825
2458.83827	3249.225
2461.60254	3254.925
2464.36507	3249.225
2467.12586	3256.725
2469.88492	3230.625
2472.64224	3242.225
2475.39782	3233.225
2478.15167	3248.725
2480.90379	3243.225
2483.65417	3237.025
2486.40283	3223.525
2489.14976	3222.725
2491.89497	3227.325
2494.63845	3218.425
2497.3802	3236.225
2500.12024	3218.925
2502.85855	3212.325
2505.59514	3210.625
2508.33002	3206.925
2511.06318	3204.125
2513.79462	3200.225
2516.52435	3197.325
2519.25237	3189.025
2521.97867	3175.525
2524.70327	3178.425
2527.42616	3174.725
2530.14734	3181.225
2532.86681	3155.125
2535.58458	3162.125
2538.30065	3147.025
2541.01501	3161.325
2543.72768	3136.925
2546.43864	3129.925
2549.14791	3107.925
2551.85548	3131.925
2554.56136	3109.625
2557.26554	3118.925
2559.96803	3103.925
2562.66883	3105.525
2565.36794	3094.625
2568.06536	3095.325
2570.7611	3084.825
2573.45514	3076.425
2576.14751	3084.425
2578.83819	3062.925
2581.52719	3076.725
2584.21451	3063.525
2586.90015	3061.525
2589.58411	3051.425
2592.2664	3047.225
2594.94701	3031.325
2597.62594	3039.325
2600.30321	3022.525
2602.9788	3018.225
2605.65273	3018.225
2608.32498	3017.425
2610.99557	3006.725
2613.66449	3006.325
2616.33175	2998.925
2618.99734	2994.025
2621.66128	2980.825
2624.32355	2983.225
2626.98416	2982.225
2629.64311	2978.725
2632.30041	2980.225
2634.95605	2969.925
2637.61004	2961.125
2640.26238	2966.925
2642.91306	2954.025
2645.56209	2954.925
2648.20948	2948.425
2650.85521	2950.625
2653.4993	2962.525
2656.14175	2945.525
2658.78255	2940.125
2661.42171	2954.325
2664.05923	2949.225
2666.6951	2947.525
2669.32934	2949.425
2671.96194	2942.225
2674.59291	2954.825
2677.22224	2945.525
2679.84993	2950.625
2682.476	2943.625
2685.10043	2943.625
2687.72324	2938.825
2690.34441	2947.725
2692.96396	2938.525
2695.58188	2937.325
2698.19818	2943.525
2700.81285	2947.225
2703.4259	2948.825
2706.03733	2971.925
2708.64714	2957.625
2711.25533	2946.025
2713.86191	2958.425
2716.46687	2935.025
2719.07021	2949.125
2721.67194	2939.925
2724.27206	2940.725
2726.87057	2945.125
2729.46747	2950.625
2732.06276	2952.625
2734.65644	2932.825
2737.24852	2935.725
2739.83899	2944.625
2742.42786	2935.925
2745.01513	2929.225
2747.60079	2925.525
2750.18486	2918.125
2752.76733	2912.225
2755.3482	2919.225
2757.92747	2906.225
2760.50515	2909.225
2763.08123	2906.025
2765.65573	2892.225
2768.22863	2910.025
2770.79994	2889.225
2773.36967	2885.525
2775.9378	2883.125
2778.50435	2887.625
2781.06932	2882.625
2783.6327	2870.225
2786.1945	2863.525
2788.75471	2873.225
2791.31335	2859.125
2793.87041	2856.425
2796.42589	2846.825
2798.97979	2847.025
2801.53212	2837.025
2804.08288	2842.125
2806.63206	2839.425
2809.17967	2825.325
2811.72571	2818.225
2814.27018	2827.125
2816.81308	2819.025
2819.35442	2816.425
2821.89419	2808.525
2824.43239	2809.225
2826.96904	2799.825
2829.50412	2815.725
2832.03763	2802.125
2834.56959	2806.225
2837.1	2796.625
2839.62884	2791.125
2842.15613	2789.025
2844.68186	2794.225
2847.20604	2790.725
2849.72867	2795.525
2852.24974	2801.325
2854.76927	2788.725
2857.28724	2802.925
2859.80367	2798.125
2862.31855	2787.225
2864.83189	2784.925
2867.34368	2786.825
2869.85393	2785.225
2872.36264	2779.625
2874.8698	2785.825
2877.37543	2781.425
2879.87952	2785.325
2882.38207	2790.325
2884.88308	2792.625
2887.38256	2791.725
2889.88051	2804.825
2892.37692	2803.925
2894.8718	2782.325
2897.36515	2808.625
2899.85698	2805.825
2902.34727	2813.825
2904.83604	2807.025
2907.32328	2823.225
2909.809	2819.425
2912.29319	2816.425
2914.77587	2827.325
2917.25702	2837.125
2919.73665	2827.425
2922.21476	2833.525
2924.69136	2837.225
2927.16644	2844.625
2929.64	2835.825
2932.11205	2843.925
2934.58258	2839.925
2937.05161	2840.025
2939.51912	2842.425
2941.98513	2830.425
2944.44962	2828.825
2946.91261	2831.725
2949.37409	2846.325
2951.83407	2832.225
2954.29254	2834.425
2956.74951	2829.725
2959.20498	2823.225
2961.65895	2808.925
2964.11142	2809.425
2966.56239	2800.225
2969.01186	2808.125
2971.45984	2783.825
2973.90632	2773.625
2976.35131	2755.425
2978.7948	2757.725
2981.23681	2743.825
2983.67732	2747.525
2986.11635	2734.925
2988.55388	2738.825
2990.98993	2737.325
2993.4245	2734.725
2995.85758	2723.325
2998.28917	2724.125
3000.71928	2722.425
3003.14791	2729.225
3005.57506	2712.825
3008.00073	2723.325
3010.42493	2712.425
3012.84764	2713.325
3015.26888	2720.025
3017.68865	2708.425
3020.10694	2717.525
3022.52376	2701.625
3024.9391	2715.225
3027.35298	2706.925
3029.76539	2698.425
3032.17632	2701.425
3034.5858	2692.525
3036.9938	2692.525
3039.40034	2688.525
3041.80542	2691.125
3044.20903	2687.825
3046.61118	2685.425
3049.01187	2682.125
3051.4111	2687.525
3053.80888	2681.425
3056.20519	2677.025
3058.60005	2677.025
3060.99345	2671.925
3063.3854	2671.825
3065.7759	2658.925
3068.16494	2672.025
3070.55254	2671.125
3072.93868	2672.225
3075.32338	2662.425
3077.70662	2670.925
3080.08842	2676.925
3082.46878	2667.925
3084.84769	2673.625
3087.22515	2669.425
3089.60118	2676.625
3091.97576	2696.225
3094.3489	2687.625
3096.72061	2678.125
3099.09087	2690.025
3101.4597	2689.325
3103.82709	2700.725
3106.19305	2706.625
3108.55757	2697.325
3110.92066	2702.825
3113.28232	2689.125
3115.64255	2689.025
3118.00134	2692.925
3120.35871	2700.025
3122.71466	2705.525
3125.06917	2699.225
3127.42226	2691.125
3129.77393	2706.325
3132.12417	2723.025
3134.47299	2724.725
3136.82039	2726.425
3139.16636	2728.025
3141.51092	2741.325
3143.85406	2755.925
3146.19579	2756.625
3148.53609	2763.425
3150.87499	2770.025
3153.21246	2789.925
3155.54853	2795.625
3157.88318	2798.225
3160.21642	2811.325
3162.54826	2818.825
3164.87868	2811.825
3167.2077	2810.325
3169.5353	2830.825
3171.86151	2829.625
3174.18631	2833.925
3176.5097	2834.425
3178.83169	2837.725
3181.15228	2857.025
3183.47147	2843.025
3185.78926	2850.625
3188.10565	2845.125
3190.42065	2862.425
3192.73424	2853.025
3195.04645	2874.825
3197.35725	2854.925
3199.66667	2884.625
3201.97469	2884.925
3204.28132	2901.325
3206.58656	2893.625
3208.8904	2896.025
3211.19287	2899.825
3213.49394	2919.425
3215.79363	2911.225
3218.09193	2918.325
3220.38884	2917.925
3222.68438	2935.025
3224.97853	2917.225
3227.2713	2925.725
3229.56269	2918.025
3231.8527	2911.525
3234.14133	2898.725
3236.42858	2904.125
3238.71446	2912.725
3240.99896	2904.125
3243.28209	2912.525
3245.56384	2903.225
3247.84423	2901.225
3250.12324	2910.925
3252.40088	2910.725
3254.67715	2899.625
3256.95205	2902.625
3259.22558	2905.425
3261.49775	2907.325
3263.76855	2906.225
3266.03799	2901.225
3268.30606	2896.325
3270.57277	2885.725
3272.83812	2868.725
3275.10211	2876.225
3277.36474	2891.125
3279.62601	2876.825
3281.88593	2888.825
3284.14448	2887.325
3286.40168	2890.325
3288.65753	2885.825
3290.91202	2883.525
3293.16516	2861.225
3295.41695	2853.625
3297.66738	2841.125
3299.91647	2835.625
3302.16421	2804.125
3304.4106	2810.125
3306.65564	2784.425
3308.89933	2783.425
3311.14169	2768.225
3313.38269	2749.925
3315.62236	2726.925
3317.86068	2704.925
3320.09766	2690.725
3322.3333	2677.225
3324.5676	2666.825
3326.80056	2635.825
3329.03219	2615.825
3331.26248	-0.775
3333.49143	0.125
3335.71905	-1.575
