Data from AgNPs_FTO_APTES_UA_0.1mM_CRN_100uM_NaF_0.1M_Addition_RamanShift__31__13-52-27-706.txt Node

Date: Mon Dec 20 13:52:27 GMT 2021
User: TCL
Spectrometer: QEP01345
Trigger mode: 4
Integration Time (sec): 7.000000E0
Scans to average: 10
Electric dark correction enabled: true
Nonlinearity correction enabled: false
Boxcar width: 0
XAxis mode: Raman Shifts
Number of Pixels in Spectrum: 1044
>>>>>Begin Spectral Data<<<<<
46.04893	0.5
50.45542	0.2
54.85868	-1.4
59.25871	1.2
63.6555	26.6
68.04907	29.1
72.43941	31.3
76.82654	33.4
81.21044	32.6
85.59113	39.1
89.96862	35.3
94.34289	40.1
98.71396	37.9
103.08183	38.1
107.4465	40.8
111.80798	41.1
116.16626	44.9
120.52136	46.5
124.87327	48.3
129.222	49.7
133.56755	62.3
137.90993	54.8
142.24913	59.4
146.58517	60.1
150.91804	71.3
155.24774	81.5
159.57429	97.6
163.89768	128.8
168.21792	167.5
172.53501	212.7
176.84895	303.2
181.15975	408.7
185.46741	560.9
189.77193	773.5
194.07331	1041.9
198.37157	1349
202.6667	1669.9
206.9587	2005
211.24758	2338.5
215.53334	2655.5
219.81599	3010.9
224.09553	3394.4
228.37195	3852.1
232.64527	4329.6
236.91549	4799.2
241.18261	5199.5
245.44663	5538.2
249.70755	5796.9
253.96539	5991.9
258.22014	6126
262.4718	6230.6
266.72039	6241.7
270.96589	6219.5
275.20832	6104.1
279.44768	5979.1
283.68397	5802.7
287.91719	5718.3
292.14735	5738.7
296.37445	5906
300.59849	6214.1
304.81948	6596.8
309.03742	6876.1
313.25231	6883
317.46415	6516
321.67296	5873.8
325.87872	5320.2
330.08145	5038.1
334.28114	4981.1
338.47781	5034.4
342.67145	5206.3
346.86207	5479.5
351.04966	5891.3
355.23424	6395.1
359.4158	6804.6
363.59435	7000.4
367.76989	7072.2
371.94243	7069.3
376.11196	7056.6
380.27849	6994.6
384.44203	6924
388.60257	6791.6
392.76012	6697.5
396.91468	6711.2
401.06626	6843.4
405.21485	6913.4
409.36047	6722.1
413.50311	6218.3
417.64277	5691.5
421.77947	5377.7
425.9132	5210.6
430.04396	5151.6
434.17176	5145.3
438.2966	5221.7
442.41849	5351.9
446.53742	5514.9
450.6534	5634.4
454.76644	5684.7
458.87653	5682
462.98368	5643.3
467.08789	5555.9
471.18916	5449.8
475.2875	5343
479.38291	5280.5
483.4754	5289.1
487.56496	5408
491.6516	5549.1
495.73531	5616.3
499.81612	5560.7
503.89401	5507
507.96899	5497.3
512.04106	5625.2
516.11023	5843.1
520.1765	6063.8
524.23987	6200.1
528.30034	6171.8
532.35792	6026.6
536.41261	5794.2
540.46441	5484.5
544.51333	5227.8
548.55936	5118.3
552.60252	5160.3
556.64279	5251.9
560.6802	5309.2
564.71473	5436.8
568.7464	5749.4
572.7752	5931.4
576.80114	5635.9
580.82422	5328.4
584.84444	5241.7
588.86181	5307.3
592.87633	5377.6
596.888	5427.4
600.89682	5619.9
604.9028	6430
608.90594	8774
612.90624	12137.2
616.90371	12411.1
620.89834	8947
624.89015	7492.2
628.87913	7760.8
632.86528	8402.8
636.84862	8808.3
640.82913	8490
644.80683	7600.9
648.78172	6715.6
652.75379	6138.8
656.72306	6028.1
660.68952	6114.8
664.65319	5870.9
668.61405	5410.4
672.57211	5139.7
676.52738	5130.5
680.47986	5120.2
684.42955	5088.8
688.37646	5032.2
692.32058	5023.6
696.26192	5030.3
700.20048	5059.7
704.13626	5047.3
708.06928	5013.3
711.99952	4947
715.927	4975.4
719.85171	5064.9
723.77365	5181.3
727.69284	5177.3
731.60928	5068
735.52295	4942.1
739.43388	4911.3
743.34206	4903
747.24749	4926.6
751.15017	4931.1
755.05012	5014.4
758.94733	5281.9
762.8418	5985.7
766.73354	7230.6
770.62254	8531.2
774.50882	9336.3
778.39237	9117.7
782.27321	7804.8
786.15132	6345.5
790.02671	5521.3
793.89938	5204.7
797.76935	5163.9
801.6366	5345.8
805.50115	5746.1
809.36299	6222.8
813.22213	6412.1
817.07857	6198.4
820.93231	5780.8
824.78336	5348.5
828.63172	5021.7
832.47738	4852.7
836.32036	4735.4
840.16066	4676.6
843.99827	4610.4
847.8332	4587.2
851.66546	4584.5
855.49504	4587.1
859.32195	4627.3
863.1462	4629.9
866.96777	4765.4
870.78668	4943.4
874.60293	5218.8
878.41652	5563.2
882.22745	5923.8
886.03573	6139.4
889.84136	6127.6
893.64433	5850.3
897.44466	5492.4
901.24235	5106
905.0374	4816.4
908.8298	4603.8
912.61957	4475.4
916.40671	4413.6
920.19121	4381.8
923.97308	4391.6
927.75233	4435.7
931.52895	4516.6
935.30295	4474
939.07433	4337.9
942.84309	4192.9
946.60924	4112.2
950.37278	4069.6
954.13371	4059.6
957.89203	4049.7
961.64774	4031.6
965.40086	4027.2
969.15137	3997.1
972.89929	3986.6
976.64461	3989.5
980.38733	3993.9
984.12747	4005.4
987.86502	4041.7
991.59999	4081.3
995.33237	4192
999.06217	4322.5
1002.78939	4532.4
1006.51404	4775.3
1010.23611	5035.8
1013.95561	5176.8
1017.67255	5209.8
1021.38692	5126.5
1025.09872	4949.3
1028.80796	4708
1032.51465	4502.9
1036.21877	4413.7
1039.92035	4352.3
1043.61937	4356.1
1047.31584	4378.7
1051.00976	4388.7
1054.70114	4409.5
1058.38998	4468.8
1062.07627	4565.3
1065.76003	4644.3
1069.44126	4711.5
1073.11995	4749.9
1076.79611	4775.7
1080.46974	4840.1
1084.14085	4919.7
1087.80943	4994.6
1091.47549	4991.3
1095.13903	4841.3
1098.80005	4625.7
1102.45857	4493.1
1106.11456	4475.6
1109.76805	4593.8
1113.41903	4861.5
1117.06751	5284.4
1120.71348	5861.5
1124.35696	6618.5
1127.99793	7393.7
1131.63641	7835.6
1135.2724	7828.9
1138.90589	7562.5
1142.5369	7124
1146.16542	6578.7
1149.79145	5979.1
1153.415	5458.2
1157.03607	5121.2
1160.65467	4960.5
1164.27079	4966.2
1167.88443	5148.6
1171.49561	5555
1175.10432	6316.5
1178.71056	7400.5
1182.31434	8375.7
1185.91565	8752.1
1189.51451	8623.5
1193.11091	8336.7
1196.70485	8111
1200.29634	8122
1203.88538	8012.2
1207.47197	7600.7
1211.05612	6967.3
1214.63782	6385.5
1218.21708	5847.3
1221.79391	5433
1225.36829	5143.5
1228.94024	4937.6
1232.50976	4839.2
1236.07685	4804.7
1239.6415	4798.4
1243.20374	4876
1246.76355	4908.9
1250.32093	4957.2
1253.8759	5037.2
1257.42845	5153.2
1260.97859	5292.5
1264.52631	5475
1268.07163	5621.1
1271.61453	5737.5
1275.15503	5730.4
1278.69312	5725
1282.22882	5693.3
1285.76211	5797.7
1289.29301	6050.9
1292.82151	6293.8
1296.34761	6592.8
1299.87133	7076.2
1303.39266	7942.7
1306.9116	9237.3
1310.42815	10548.1
1313.94233	10995.4
1317.45412	10333.1
1320.96354	9270.3
1324.47058	8263.9
1327.97525	7505.7
1331.47754	7129.6
1334.97747	7037.2
1338.47502	7240
1341.97022	7649.3
1345.46305	8341.9
1348.95352	9250.6
1352.44163	10358.4
1355.92738	11866
1359.41078	13983.1
1362.89183	15629.9
1366.37053	14801.6
1369.84688	12270.1
1373.32088	9989
1376.79254	8498.3
1380.26186	7632.1
1383.72883	7121.2
1387.19347	6716.8
1390.65578	6336.8
1394.11575	6077.5
1397.57339	5908.8
1401.0287	5780.3
1404.48168	5689.3
1407.93234	5597
1411.38068	5510.8
1414.82669	5406.4
1418.27039	5287.1
1421.71177	5176.6
1425.15083	4998
1428.58758	4931.4
1432.02203	4918.2
1435.45416	4943.5
1438.88399	4936.7
1442.31151	4918.7
1445.73673	4914.5
1449.15965	4947.8
1452.58027	4924.6
1455.9986	4881.6
1459.41463	4859.2
1462.82837	4908.6
1466.23982	5040.1
1469.64898	5168.5
1473.05586	5230.7
1476.46045	5273.3
1479.86276	5365.6
1483.26279	5535.9
1486.66054	5803.8
1490.05602	6159.6
1493.44922	6643.9
1496.84016	7443
1500.22882	8676.4
1503.61521	10417.6
1506.99934	12261.7
1510.38121	13639.9
1513.76081	13705.6
1517.13816	12261.2
1520.51324	10132.2
1523.88607	8292.1
1527.25665	7198.6
1530.62498	6639.8
1533.99105	6375
1537.35488	6251.7
1540.71647	6273.1
1544.07581	6378.2
1547.4329	6520.3
1550.78776	6641.1
1554.14038	6691.1
1557.49077	6715.4
1560.83892	6784.1
1564.18484	6993.1
1567.52853	7321.2
1570.86999	7608.1
1574.20922	7793.8
1577.54624	7759.3
1580.88103	7273.2
1584.2136	6628.1
1587.54395	6189.3
1590.87208	6139
1594.19801	6347.6
1597.52172	6761.7
1600.84321	6979.7
1604.16251	6853.2
1607.47959	6590.6
1610.79447	6311
1614.10715	5984.5
1617.41763	5738.5
1620.7259	5597.6
1624.03199	5516.8
1627.33587	5542.1
1630.63757	5616.1
1633.93707	5811.5
1637.23439	6170.6
1640.52951	6816.1
1643.82246	7799.3
1647.11321	9054.6
1650.40179	10040.4
1653.68819	9895.9
1656.97241	8728.1
1660.25446	7338.5
1663.53433	6349.7
1666.81203	5716.9
1670.08756	5297.6
1673.36092	4993.8
1676.63211	4777.4
1679.90115	4623.6
1683.16801	4497
1686.43272	4371
1689.69527	4272.1
1692.95567	4181.7
1696.2139	4099.1
1699.46999	4006.9
1702.72392	3915.4
1705.97571	3836.6
1709.22535	3742.1
1712.47284	3705.4
1715.71819	3654.5
1718.96139	3614.5
1722.20246	3574
1725.44139	3530.9
1728.67818	3473
1731.91284	3428.1
1735.14537	3361.5
1738.37576	3324.4
1741.60403	3315
1744.83017	3290.2
1748.05418	3267.8
1751.27607	3249.2
1754.49584	3237.5
1757.71349	3219.1
1760.92903	3192.5
1764.14244	3171.9
1767.35375	3161
1770.56294	3138.5
1773.77002	3108.7
1776.97499	3086.9
1780.17785	3063.7
1783.37861	3042.5
1786.57727	3029.3
1789.77382	3013.3
1792.96828	3003
1796.16064	2983.3
1799.3509	2970.7
1802.53907	2961.1
1805.72514	2949.9
1808.90913	2932.9
1812.09102	2929
1815.27083	2908.5
1818.44856	2911.8
1821.6242	2881.8
1824.79776	2888.4
1827.96924	2892.7
1831.13864	2857.3
1834.30597	2869.9
1837.47122	2856.9
1840.6344	2856.2
1843.7955	2855.5
1846.95454	2843.1
1850.11151	2836.3
1853.26642	2823.2
1856.41926	2827.2
1859.57004	2826
1862.71876	2822.7
1865.86542	2824.3
1869.01003	2820.1
1872.15258	2811.4
1875.29308	2799.5
1878.43152	2802.7
1881.56792	2796.2
1884.70227	2789.1
1887.83457	2783.3
1890.96482	2782.6
1894.09304	2770.2
1897.21921	2778
1900.34335	2772.4
1903.46544	2766.5
1906.58551	2764.2
1909.70353	2757.9
1912.81953	2756.5
1915.93349	2746.8
1919.04543	2733
1922.15534	2733.7
1925.26322	2713.8
1928.36908	2712.8
1931.47292	2709
1934.57473	2690.4
1937.67453	2672.4
1940.77232	2670.4
1943.86808	2652.1
1946.96184	2660.1
1950.05358	2637.1
1953.14331	2649
1956.23103	2636.2
1959.31675	2629.7
1962.40046	2617.3
1965.48217	2613.7
1968.56188	2613.7
1971.63959	2602.4
1974.7153	2579.7
1977.78901	2581.8
1980.86073	2576.5
1983.93046	2548.9
1986.99819	2542.1
1990.06394	2542
1993.1277	2532.7
1996.18947	2512.5
1999.24925	2508.8
2002.30706	2505.8
2005.36288	2491.5
2008.41672	2500.5
2011.46859	2471.6
2014.51848	2482.1
2017.56639	2456
2020.61233	2452.8
2023.6563	2448
2026.6983	2440.5
2029.73833	2430.1
2032.7764	2436.9
2035.8125	2439.6
2038.84664	2413
2041.87881	2416.2
2044.90903	2408.2
2047.93729	2406.7
2050.96359	2398.9
2053.98794	2400.2
2057.01034	2392.6
2060.03078	2396.8
2063.04927	2391.1
2066.06582	2385.6
2069.08042	2384.9
2072.09307	2380.6
2075.10378	2372.3
2078.11255	2381.6
2081.11938	2363.3
2084.12426	2380
2087.12722	2371.2
2090.12824	2362.5
2093.12732	2361.6
2096.12447	2369
2099.11969	2356.8
2102.11299	2358.1
2105.10435	2363.2
2108.09379	2361.2
2111.08131	2360.5
2114.0669	2362.7
2117.05057	2360.3
2120.03233	2369.7
2123.01216	2383.5
2125.99008	2374.4
2128.96609	2378.8
2131.94018	2370.6
2134.91236	2381.5
2137.88263	2379.9
2140.851	2374.2
2143.81746	2372.9
2146.78201	2366.7
2149.74466	2370
2152.7054	2373.3
2155.66425	2359.7
2158.6212	2365.8
2161.57625	2353.5
2164.52941	2359.5
2167.48067	2362.1
2170.43004	2356.2
2173.37752	2336.2
2176.32311	2341
2179.26681	2343.9
2182.20863	2352.7
2185.14856	2336.8
2188.08661	2339.8
2191.02278	2344.2
2193.95707	2336.2
2196.88948	2330.4
2199.82001	2319.7
2202.74867	2313.9
2205.67545	2310.2
2208.60037	2313.6
2211.52341	2298.8
2214.44458	2305.6
2217.36388	2300.2
2220.28132	2291.3
2223.1969	2275.1
2226.11061	2290.3
2229.02246	2266.2
2231.93245	2277.8
2234.84058	2252.6
2237.74686	2255.5
2240.65128	2261.3
2243.55385	2258
2246.45456	2251
2249.35343	2250.5
2252.25044	2256.4
2255.14561	2241.3
2258.03893	2255.4
2260.93041	2259
2263.82004	2243.6
2266.70783	2245.1
2269.59378	2238.4
2272.4779	2238.6
2275.36017	2225.3
2278.24061	2226.9
2281.11922	2198.2
2283.996	2203.9
2286.87094	2188.2
2289.74405	2198.6
2292.61534	2179.2
2295.4848	2175.7
2298.35243	2173.1
2301.21824	2155.8
2304.08223	2162.5
2306.94439	2172.4
2309.80474	2163.3
2312.66327	2153.8
2315.51999	2154.1
2318.37489	2160.9
2321.22797	2156.7
2324.07925	2146.6
2326.92871	2157.6
2329.77637	2130.4
2332.62222	2132
2335.46626	2130.3
2338.3085	2127.7
2341.14893	2124.6
2343.98756	2131.8
2346.8244	2123.6
2349.65943	2122.9
2352.49267	2125.1
2355.32411	2134.1
2358.15376	2130.8
2360.98161	2133.2
2363.80768	2132.3
2366.63195	2143.2
2369.45444	2146.3
2372.27514	2146.7
2375.09405	2151
2377.91118	2134.3
2380.72652	2141.3
2383.54009	2120
2386.35187	2132.7
2389.16188	2107.3
2391.97011	2100.5
2394.77657	2090
2397.58125	2080.2
2400.38416	2076.7
2403.18529	2068.4
2405.98466	2077.6
2408.78226	2063.5
2411.57809	2047.2
2414.37216	2047.6
2417.16446	2050.9
2419.955	2041.5
2422.74378	2040.3
2425.5308	2035.3
2428.31606	2034.4
2431.09956	2030.8
2433.88131	2026.3
2436.6613	2027.7
2439.43954	2027.2
2442.21603	2017.6
2444.99077	2024.3
2447.76377	2022.7
2450.53501	2021.1
2453.30451	2034.6
2456.07226	2020.4
2458.83827	2017.4
2461.60254	2025.2
2464.36507	1999.7
2467.12586	2004.2
2469.88492	2010.2
2472.64224	2012.1
2475.39782	2013.5
2478.15167	2019.6
2480.90379	2017.3
2483.65417	2024.6
2486.40283	2019
2489.14976	2041.9
2491.89497	2034.7
2494.63845	2032.6
2497.3802	2014.1
2500.12024	2026.2
2502.85855	2011.2
2505.59514	2006.3
2508.33002	1995.4
2511.06318	1988.8
2513.79462	1970.9
2516.52435	1966.7
2519.25237	1958.7
2521.97867	1949.6
2524.70327	1944.4
2527.42616	1940.2
2530.14734	1933.2
2532.86681	1924.8
2535.58458	1922.7
2538.30065	1927
2541.01501	1920
2543.72768	1913.8
2546.43864	1917.4
2549.14791	1921.2
2551.85548	1914.8
2554.56136	1911.5
2557.26554	1913.5
2559.96803	1899.6
2562.66883	1906.2
2565.36794	1897.8
2568.06536	1895.7
2570.7611	1888.4
2573.45514	1891.4
2576.14751	1882.2
2578.83819	1870.8
2581.52719	1875.4
2584.21451	1857.9
2586.90015	1864.3
2589.58411	1856.2
2592.2664	1848.5
2594.94701	1855.4
2597.62594	1848.5
2600.30321	1838.8
2602.9788	1845.9
2605.65273	1840.2
2608.32498	1835.5
2610.99557	1834.6
2613.66449	1831.4
2616.33175	1835.9
2618.99734	1826.8
2621.66128	1828.4
2624.32355	1819.6
2626.98416	1822.2
2629.64311	1816.7
2632.30041	1801.4
2634.95605	1804.2
2637.61004	1798.8
2640.26238	1799.2
2642.91306	1791.1
2645.56209	1781.8
2648.20948	1789.2
2650.85521	1786.1
2653.4993	1798.3
2656.14175	1788.5
2658.78255	1797.2
2661.42171	1794.6
2664.05923	1790.8
2666.6951	1788.7
2669.32934	1795.2
2671.96194	1793.1
2674.59291	1793.3
2677.22224	1803.3
2679.84993	1791.5
2682.476	1806.9
2685.10043	1805
2687.72324	1797.5
2690.34441	1803.9
2692.96396	1801.5
2695.58188	1805.5
2698.19818	1795.5
2700.81285	1807.3
2703.4259	1814.5
2706.03733	1839.5
2708.64714	1821.7
2711.25533	1820.4
2713.86191	1819.4
2716.46687	1814
2719.07021	1815.6
2721.67194	1818.1
2724.27206	1808.8
2726.87057	1820.7
2729.46747	1804.5
2732.06276	1816.9
2734.65644	1805.7
2737.24852	1802.2
2739.83899	1799.9
2742.42786	1791.9
2745.01513	1791.2
2747.60079	1790.8
2750.18486	1787.2
2752.76733	1779.5
2755.3482	1769
2757.92747	1767.1
2760.50515	1770.7
2763.08123	1767.1
2765.65573	1755.5
2768.22863	1765.8
2770.79994	1765.5
2773.36967	1767.8
2775.9378	1752.9
2778.50435	1749.3
2781.06932	1750.4
2783.6327	1753.3
2786.1945	1763.4
2788.75471	1761.5
2791.31335	1759.3
2793.87041	1751.7
2796.42589	1745.5
2798.97979	1742.5
2801.53212	1742.9
2804.08288	1752
2806.63206	1747.9
2809.17967	1739.7
2811.72571	1745.2
2814.27018	1754.5
2816.81308	1753.2
2819.35442	1749.5
2821.89419	1749.9
2824.43239	1760.7
2826.96904	1760.8
2829.50412	1756.9
2832.03763	1760.9
2834.56959	1763
2837.1	1759.6
2839.62884	1771.6
2842.15613	1763.6
2844.68186	1781.7
2847.20604	1791.1
2849.72867	1798.7
2852.24974	1800.7
2854.76927	1807.2
2857.28724	1814.3
2859.80367	1813.1
2862.31855	1800.1
2864.83189	1814.9
2867.34368	1807.2
2869.85393	1820.1
2872.36264	1809
2874.8698	1811.5
2877.37543	1810.9
2879.87952	1810.7
2882.38207	1816
2884.88308	1811.8
2887.38256	1809.9
2889.88051	1815.3
2892.37692	1812.7
2894.8718	1814
2897.36515	1812.9
2899.85698	1813
2902.34727	1819.1
2904.83604	1806
2907.32328	1824.6
2909.809	1821.9
2912.29319	1824.1
2914.77587	1828.6
2917.25702	1823.9
2919.73665	1811.3
2922.21476	1817.7
2924.69136	1814.3
2927.16644	1823.4
2929.64	1812.9
2932.11205	1807.6
2934.58258	1807.6
2937.05161	1805.4
2939.51912	1805.6
2941.98513	1793.9
2944.44962	1800.2
2946.91261	1765.2
2949.37409	1781.3
2951.83407	1774.2
2954.29254	1760.2
2956.74951	1759.7
2959.20498	1758.7
2961.65895	1756
2964.11142	1759.3
2966.56239	1745.4
2969.01186	1746.8
2971.45984	1729
2973.90632	1722.9
2976.35131	1732
2978.7948	1723.9
2981.23681	1720.2
2983.67732	1709.7
2986.11635	1712
2988.55388	1716.9
2990.98993	1710
2993.4245	1720.5
2995.85758	1707
2998.28917	1707.1
3000.71928	1711.5
3003.14791	1698.6
3005.57506	1711.5
3008.00073	1707.8
3010.42493	1706.3
3012.84764	1708.5
3015.26888	1717.9
3017.68865	1709.5
3020.10694	1714.3
3022.52376	1714.1
3024.9391	1716.1
3027.35298	1724.1
3029.76539	1709.8
3032.17632	1716.8
3034.5858	1721
3036.9938	1711.3
3039.40034	1716.8
3041.80542	1711
3044.20903	1712.4
3046.61118	1715.2
3049.01187	1705
3051.4111	1716.2
3053.80888	1707.8
3056.20519	1719.8
3058.60005	1720.8
3060.99345	1718.8
3063.3854	1727.6
3065.7759	1720
3068.16494	1724.6
3070.55254	1725.9
3072.93868	1724.2
3075.32338	1719.9
3077.70662	1715
3080.08842	1727.8
3082.46878	1729.7
3084.84769	1730
3087.22515	1734.7
3089.60118	1737
3091.97576	1744.6
3094.3489	1738
3096.72061	1750.9
3099.09087	1759
3101.4597	1770
3103.82709	1771.9
3106.19305	1763
3108.55757	1764.9
3110.92066	1775.8
3113.28232	1776.3
3115.64255	1781.5
3118.00134	1784.4
3120.35871	1775.4
3122.71466	1797.3
3125.06917	1790.9
3127.42226	1785.7
3129.77393	1816.1
3132.12417	1819.8
3134.47299	1821.4
3136.82039	1829.7
3139.16636	1844.6
3141.51092	1854.6
3143.85406	1866.3
3146.19579	1867.4
3148.53609	1869.7
3150.87499	1895.4
3153.21246	1909.7
3155.54853	1912
3157.88318	1927.1
3160.21642	1923
3162.54826	1927.1
3164.87868	1942.9
3167.2077	1947.8
3169.5353	1941.6
3171.86151	1957.4
3174.18631	1963.4
3176.5097	1972.7
3178.83169	1968.2
3181.15228	1985.5
3183.47147	1986.9
3185.78926	1990.3
3188.10565	1995.2
3190.42065	2009.5
3192.73424	2014.9
3195.04645	2015
3197.35725	2014.3
3199.66667	2038.5
3201.97469	2046.8
3204.28132	2063.6
3206.58656	2048.9
3208.8904	2065
3211.19287	2068.2
3213.49394	2072.1
3215.79363	2096.8
3218.09193	2092.4
3220.38884	2091.9
3222.68438	2104.9
3224.97853	2101.3
3227.2713	2102.1
3229.56269	2111.2
3231.8527	2114.9
3234.14133	2096.8
3236.42858	2101.6
3238.71446	2117.7
3240.99896	2101.2
3243.28209	2106.6
3245.56384	2104.5
3247.84423	2111.3
3250.12324	2103.4
3252.40088	2101.7
3254.67715	2111.6
3256.95205	2109.2
3259.22558	2108.9
3261.49775	2104.4
3263.76855	2106
3266.03799	2104.1
3268.30606	2104.5
3270.57277	2100
3272.83812	2102.1
3275.10211	2098.7
3277.36474	2099.2
3279.62601	2103.5
3281.88593	2100.1
3284.14448	2113.5
3286.40168	2102.8
3288.65753	2092.9
3290.91202	2096.6
3293.16516	2082.9
3295.41695	2088.8
3297.66738	2072.1
3299.91647	2065.6
3302.16421	2056.5
3304.4106	2045.3
3306.65564	2042.3
3308.89933	2035.6
3311.14169	2021.5
3313.38269	1995
3315.62236	1992.3
3317.86068	1979.4
3320.09766	1948.5
3322.3333	1945.2
3324.5676	1939.8
3326.80056	1916.9
3329.03219	1903.4
3331.26248	0.6
3333.49143	0.3
3335.71905	-1.9
