Data from AgNPs_FTO_APTES_UA_0.1mM_CRN_0uM_NaF_0.1M_Addition_RamanShift__44__10-53-57-504.txt Node

Date: Mon Dec 20 10:53:57 GMT 2021
User: TCL
Spectrometer: QEP01345
Trigger mode: 4
Integration Time (sec): 7.000000E0
Scans to average: 10
Electric dark correction enabled: true
Nonlinearity correction enabled: false
Boxcar width: 0
XAxis mode: Raman Shifts
Number of Pixels in Spectrum: 1044
>>>>>Begin Spectral Data<<<<<
46.04893	-0.1125
50.45542	0.7875
54.85868	-0.2125
59.25871	0.8875
63.6555	31.2875
68.04907	32.9875
72.43941	34.3875
76.82654	35.2875
81.21044	36.5875
85.59113	41.6875
89.96862	36.1875
94.34289	39.7875
98.71396	43.9875
103.08183	42.5875
107.4465	43.9875
111.80798	49.0875
116.16626	46.8875
120.52136	50.7875
124.87327	50.0875
129.222	49.2875
133.56755	56.3875
137.90993	54.4875
142.24913	61.8875
146.58517	63.2875
150.91804	77.4875
155.24774	92.4875
159.57429	106.2875
163.89768	134.2875
168.21792	176.4875
172.53501	232.1875
176.84895	317.4875
181.15975	464.0875
185.46741	664.5875
189.77193	888.9875
194.07331	1152.1875
198.37157	1487.8875
202.6667	1846.1875
206.9587	2199.1875
211.24758	2555.1875
215.53334	2905.5875
219.81599	3299.2875
224.09553	3700.9875
228.37195	4137.8875
232.64527	4664.3875
236.91549	5231.1875
241.18261	5783.6875
245.44663	6335.5875
249.70755	6826.5875
253.96539	7201.3875
258.22014	7475.7875
262.4718	7628.9875
266.72039	7655.2875
270.96589	7562.4875
275.20832	7390.3875
279.44768	7155.9875
283.68397	6943.5875
287.91719	6721.5875
292.14735	6529.9875
296.37445	6378.4875
300.59849	6287.8875
304.81948	6217.1875
309.03742	6200.6875
313.25231	6129.3875
317.46415	6066.1875
321.67296	5988.0875
325.87872	5926.5875
330.08145	5906.6875
334.28114	5893.1875
338.47781	5903.7875
342.67145	5946.7875
346.86207	5971.2875
351.04966	6018.4875
355.23424	6085.0875
359.4158	6159.4875
363.59435	6208.0875
367.76989	6273.5875
371.94243	6319.9875
376.11196	6370.9875
380.27849	6388.5875
384.44203	6433.0875
388.60257	6520.2875
392.76012	6585.9875
396.91468	6686.6875
401.06626	6814.6875
405.21485	6906.0875
409.36047	6957.3875
413.50311	6974.3875
417.64277	6911.4875
421.77947	6909.1875
425.9132	6893.0875
430.04396	6896.1875
434.17176	6918.6875
438.2966	6922.3875
442.41849	6922.2875
446.53742	6981.6875
450.6534	7029.3875
454.76644	7076.4875
458.87653	7105.8875
462.98368	7106.1875
467.08789	7118.9875
471.18916	7127.8875
475.2875	7156.6875
479.38291	7172.8875
483.4754	7232.1875
487.56496	7278.5875
491.6516	7377.8875
495.73531	7470.2875
499.81612	7521.9875
503.89401	7621.9875
507.96899	7641.4875
512.04106	7636.4875
516.11023	7568.2875
520.1765	7461.5875
524.23987	7392.5875
528.30034	7306.7875
532.35792	7243.5875
536.41261	7179.0875
540.46441	7138.7875
544.51333	7111.8875
548.55936	7125.6875
552.60252	7157.9875
556.64279	7226.5875
560.6802	7262.1875
564.71473	7273.5875
568.7464	7282.3875
572.7752	7352.5875
576.80114	7373.3875
580.82422	7429.5875
584.84444	7495.6875
588.86181	7613.6875
592.87633	7689.4875
596.888	7717.9875
600.89682	7733.3875
604.9028	7852.8875
608.90594	8127.5875
612.90624	8509.9875
616.90371	8425.7875
620.89834	7947.0875
624.89015	7683.2875
628.87913	7674.3875
632.86528	7801.4875
636.84862	7920.7875
640.82913	7975.2875
644.80683	7971.5875
648.78172	7937.2875
652.75379	7917.1875
656.72306	7865.2875
660.68952	7890.7875
664.65319	7916.9875
668.61405	7941.8875
672.57211	7976.2875
676.52738	8000.8875
680.47986	7997.3875
684.42955	7984.2875
688.37646	7949.2875
692.32058	7957.0875
696.26192	7942.7875
700.20048	7947.9875
704.13626	7904.6875
708.06928	7853.1875
711.99952	7733.2875
715.927	7635.1875
719.85171	7563.8875
723.77365	7522.9875
727.69284	7470.5875
731.60928	7444.5875
735.52295	7434.8875
739.43388	7462.2875
743.34206	7511.4875
747.24749	7573.5875
751.15017	7633.7875
755.05012	7693.3875
758.94733	7769.0875
762.8418	7913.3875
766.73354	8076.0875
770.62254	8251.1875
774.50882	8330.5875
778.39237	8221.1875
782.27321	8004.1875
786.15132	7775.0875
790.02671	7628.7875
793.89938	7581.3875
797.76935	7580.9875
801.6366	7603.7875
805.50115	7663.9875
809.36299	7732.5875
813.22213	7735.6875
817.07857	7675.9875
820.93231	7588.0875
824.78336	7491.2875
828.63172	7417.8875
832.47738	7330.4875
836.32036	7337.8875
840.16066	7334.3875
843.99827	7320.2875
847.8332	7319.2875
851.66546	7321.0875
855.49504	7323.3875
859.32195	7325.7875
863.1462	7314.3875
866.96777	7333.5875
870.78668	7341.9875
874.60293	7359.4875
878.41652	7390.7875
882.22745	7431.4875
886.03573	7446.3875
889.84136	7474.2875
893.64433	7501.4875
897.44466	7482.4875
901.24235	7463.0875
905.0374	7440.8875
908.8298	7414.1875
912.61957	7398.8875
916.40671	7371.7875
920.19121	7391.4875
923.97308	7383.6875
927.75233	7359.5875
931.52895	7363.9875
935.30295	7321.7875
939.07433	7258.5875
942.84309	7216.9875
946.60924	7214.2875
950.37278	7187.3875
954.13371	7194.1875
957.89203	7171.3875
961.64774	7166.4875
965.40086	7185.0875
969.15137	7184.4875
972.89929	7157.0875
976.64461	7164.9875
980.38733	7159.4875
984.12747	7155.8875
987.86502	7138.0875
991.59999	7164.3875
995.33237	7186.6875
999.06217	7206.9875
1002.78939	7227.1875
1006.51404	7256.2875
1010.23611	7312.0875
1013.95561	7346.0875
1017.67255	7364.1875
1021.38692	7372.3875
1025.09872	7380.0875
1028.80796	7359.4875
1032.51465	7332.7875
1036.21877	7316.9875
1039.92035	7320.4875
1043.61937	7351.0875
1047.31584	7339.4875
1051.00976	7379.7875
1054.70114	7376.8875
1058.38998	7406.3875
1062.07627	7426.1875
1065.76003	7442.7875
1069.44126	7461.4875
1073.11995	7492.3875
1076.79611	7530.6875
1080.46974	7551.2875
1084.14085	7574.0875
1087.80943	7568.3875
1091.47549	7582.5875
1095.13903	7590.1875
1098.80005	7551.9875
1102.45857	7526.2875
1106.11456	7484.8875
1109.76805	7465.8875
1113.41903	7502.6875
1117.06751	7561.5875
1120.71348	7675.1875
1124.35696	7790.7875
1127.99793	7939.0875
1131.63641	8055.9875
1135.2724	8158.9875
1138.90589	8156.1875
1142.5369	8128.6875
1146.16542	8111.5875
1149.79145	8006.8875
1153.415	7901.6875
1157.03607	7773.2875
1160.65467	7693.0875
1164.27079	7666.5875
1167.88443	7718.6875
1171.49561	7781.1875
1175.10432	7916.8875
1178.71056	8106.2875
1182.31434	8297.3875
1185.91565	8401.0875
1189.51451	8429.4875
1193.11091	8409.4875
1196.70485	8363.1875
1200.29634	8329.1875
1203.88538	8284.9875
1207.47197	8283.6875
1211.05612	8259.7875
1214.63782	8284.0875
1218.21708	8250.7875
1221.79391	8194.8875
1225.36829	8152.2875
1228.94024	8107.9875
1232.50976	8046.9875
1236.07685	7988.1875
1239.6415	7961.6875
1243.20374	7934.0875
1246.76355	7935.5875
1250.32093	7965.1875
1253.8759	8012.0875
1257.42845	8072.0875
1260.97859	8126.5875
1264.52631	8182.6875
1268.07163	8211.5875
1271.61453	8248.1875
1275.15503	8262.9875
1278.69312	8275.8875
1282.22882	8322.2875
1285.76211	8346.3875
1289.29301	8426.7875
1292.82151	8529.2875
1296.34761	8652.5875
1299.87133	8835.4875
1303.39266	9017.9875
1306.9116	9219.2875
1310.42815	9445.1875
1313.94233	9560.5875
1317.45412	9592.9875
1320.96354	9525.6875
1324.47058	9508.4875
1327.97525	9380.6875
1331.47754	9363.2875
1334.97747	9335.7875
1338.47502	9349.8875
1341.97022	9410.3875
1345.46305	9524.4875
1348.95352	9616.0875
1352.44163	9755.6875
1355.92738	9878.5875
1359.41078	10105.7875
1362.89183	10306.7875
1366.37053	10285.1875
1369.84688	9868.9875
1373.32088	9425.2875
1376.79254	9044.2875
1380.26186	8847.5875
1383.72883	8746.1875
1387.19347	8672.1875
1390.65578	8577.3875
1394.11575	8492.2875
1397.57339	8438.1875
1401.0287	8381.4875
1404.48168	8358.7875
1407.93234	8288.0875
1411.38068	8207.7875
1414.82669	8094.3875
1418.27039	7984.5875
1421.71177	7869.9875
1425.15083	7794.2875
1428.58758	7679.1875
1432.02203	7645.6875
1435.45416	7654.6875
1438.88399	7656.3875
1442.31151	7637.5875
1445.73673	7633.1875
1449.15965	7653.2875
1452.58027	7658.6875
1455.9986	7682.6875
1459.41463	7697.2875
1462.82837	7764.1875
1466.23982	7827.9875
1469.64898	7906.7875
1473.05586	7990.6875
1476.46045	8028.0875
1479.86276	8043.0875
1483.26279	8073.9875
1486.66054	8138.8875
1490.05602	8172.0875
1493.44922	8279.4875
1496.84016	8383.4875
1500.22882	8555.6875
1503.61521	8806.9875
1506.99934	9022.7875
1510.38121	9181.8875
1513.76081	9183.4875
1517.13816	9047.5875
1520.51324	8828.3875
1523.88607	8633.0875
1527.25665	8559.6875
1530.62498	8525.8875
1533.99105	8527.0875
1537.35488	8530.1875
1540.71647	8528.3875
1544.07581	8532.3875
1547.4329	8557.2875
1550.78776	8605.8875
1554.14038	8630.4875
1557.49077	8700.0875
1560.83892	8731.2875
1564.18484	8785.4875
1567.52853	8834.3875
1570.86999	8890.1875
1574.20922	8939.5875
1577.54624	8955.4875
1580.88103	8892.2875
1584.2136	8828.8875
1587.54395	8796.6875
1590.87208	8839.0875
1594.19801	8887.3875
1597.52172	8972.5875
1600.84321	9015.4875
1604.16251	8915.8875
1607.47959	8747.6875
1610.79447	8576.8875
1614.10715	8396.5875
1617.41763	8217.6875
1620.7259	8074.4875
1624.03199	7999.7875
1627.33587	7953.0875
1630.63757	7951.2875
1633.93707	8033.2875
1637.23439	8142.7875
1640.52951	8348.1875
1643.82246	8618.1875
1647.11321	8931.0875
1650.40179	9114.9875
1653.68819	8990.1875
1656.97241	8685.8875
1660.25446	8294.0875
1663.53433	7947.6875
1666.81203	7742.7875
1670.08756	7546.5875
1673.36092	7419.1875
1676.63211	7301.0875
1679.90115	7214.3875
1683.16801	7120.2875
1686.43272	7026.8875
1689.69527	6911.7875
1692.95567	6827.2875
1696.2139	6752.6875
1699.46999	6716.5875
1702.72392	6658.3875
1705.97571	6631.4875
1709.22535	6586.9875
1712.47284	6586.2875
1715.71819	6546.5875
1718.96139	6496.8875
1722.20246	6494.0875
1725.44139	6440.5875
1728.67818	6383.4875
1731.91284	6337.5875
1735.14537	6274.1875
1738.37576	6220.9875
1741.60403	6179.3875
1744.83017	6122.0875
1748.05418	6104.4875
1751.27607	6048.0875
1754.49584	6039.2875
1757.71349	6016.3875
1760.92903	5995.0875
1764.14244	5980.3875
1767.35375	5976.4875
1770.56294	5966.2875
1773.77002	5947.3875
1776.97499	5934.0875
1780.17785	5922.5875
1783.37861	5936.2875
1786.57727	5901.6875
1789.77382	5894.1875
1792.96828	5861.3875
1796.16064	5836.5875
1799.3509	5823.5875
1802.53907	5818.9875
1805.72514	5784.5875
1808.90913	5774.1875
1812.09102	5767.7875
1815.27083	5744.8875
1818.44856	5730.6875
1821.6242	5714.4875
1824.79776	5701.9875
1827.96924	5687.8875
1831.13864	5700.6875
1834.30597	5688.3875
1837.47122	5684.5875
1840.6344	5663.9875
1843.7955	5660.9875
1846.95454	5647.0875
1850.11151	5660.2875
1853.26642	5624.4875
1856.41926	5616.1875
1859.57004	5645.4875
1862.71876	5618.6875
1865.86542	5600.1875
1869.01003	5592.8875
1872.15258	5590.9875
1875.29308	5591.4875
1878.43152	5554.2875
1881.56792	5570.5875
1884.70227	5545.3875
1887.83457	5543.7875
1890.96482	5533.5875
1894.09304	5536.4875
1897.21921	5511.3875
1900.34335	5510.9875
1903.46544	5494.2875
1906.58551	5500.7875
1909.70353	5492.8875
1912.81953	5471.9875
1915.93349	5478.4875
1919.04543	5456.4875
1922.15534	5440.5875
1925.26322	5427.1875
1928.36908	5414.9875
1931.47292	5398.8875
1934.57473	5383.1875
1937.67453	5373.8875
1940.77232	5356.4875
1943.86808	5347.9875
1946.96184	5325.2875
1950.05358	5320.6875
1953.14331	5317.5875
1956.23103	5294.2875
1959.31675	5281.7875
1962.40046	5257.2875
1965.48217	5245.4875
1968.56188	5239.6875
1971.63959	5204.1875
1974.7153	5182.0875
1977.78901	5178.5875
1980.86073	5160.0875
1983.93046	5151.7875
1986.99819	5113.7875
1990.06394	5100.8875
1993.1277	5080.8875
1996.18947	5062.0875
1999.24925	5062.4875
2002.30706	5055.8875
2005.36288	5031.7875
2008.41672	5020.8875
2011.46859	4996.0875
2014.51848	4983.6875
2017.56639	4963.6875
2020.61233	4953.0875
2023.6563	4939.8875
2026.6983	4916.8875
2029.73833	4906.1875
2032.7764	4890.4875
2035.8125	4868.8875
2038.84664	4873.3875
2041.87881	4855.5875
2044.90903	4834.5875
2047.93729	4826.9875
2050.96359	4830.9875
2053.98794	4820.7875
2057.01034	4811.0875
2060.03078	4813.2875
2063.04927	4812.3875
2066.06582	4806.3875
2069.08042	4795.8875
2072.09307	4792.7875
2075.10378	4786.3875
2078.11255	4783.2875
2081.11938	4787.6875
2084.12426	4778.7875
2087.12722	4779.1875
2090.12824	4773.6875
2093.12732	4780.1875
2096.12447	4773.5875
2099.11969	4766.8875
2102.11299	4768.7875
2105.10435	4769.9875
2108.09379	4769.1875
2111.08131	4766.4875
2114.0669	4771.1875
2117.05057	4794.2875
2120.03233	4783.5875
2123.01216	4788.0875
2125.99008	4786.8875
2128.96609	4776.9875
2131.94018	4792.7875
2134.91236	4801.1875
2137.88263	4794.2875
2140.851	4789.7875
2143.81746	4810.1875
2146.78201	4772.3875
2149.74466	4788.8875
2152.7054	4791.3875
2155.66425	4802.0875
2158.6212	4781.3875
2161.57625	4787.9875
2164.52941	4787.5875
2167.48067	4773.7875
2170.43004	4778.0875
2173.37752	4765.2875
2176.32311	4760.0875
2179.26681	4748.2875
2182.20863	4763.8875
2185.14856	4749.9875
2188.08661	4769.4875
2191.02278	4740.2875
2193.95707	4749.7875
2196.88948	4736.6875
2199.82001	4733.3875
2202.74867	4719.0875
2205.67545	4717.5875
2208.60037	4712.4875
2211.52341	4694.1875
2214.44458	4691.1875
2217.36388	4675.2875
2220.28132	4673.8875
2223.1969	4641.0875
2226.11061	4645.7875
2229.02246	4636.4875
2231.93245	4619.9875
2234.84058	4635.1875
2237.74686	4605.5875
2240.65128	4595.1875
2243.55385	4588.6875
2246.45456	4590.8875
2249.35343	4593.9875
2252.25044	4566.2875
2255.14561	4563.5875
2258.03893	4557.8875
2260.93041	4552.3875
2263.82004	4527.3875
2266.70783	4504.2875
2269.59378	4508.6875
2272.4779	4503.2875
2275.36017	4482.3875
2278.24061	4480.2875
2281.11922	4460.6875
2283.996	4471.3875
2286.87094	4453.6875
2289.74405	4448.5875
2292.61534	4436.7875
2295.4848	4413.8875
2298.35243	4412.0875
2301.21824	4406.5875
2304.08223	4405.0875
2306.94439	4395.2875
2309.80474	4381.1875
2312.66327	4391.1875
2315.51999	4373.5875
2318.37489	4375.6875
2321.22797	4360.7875
2324.07925	4346.0875
2326.92871	4351.0875
2329.77637	4331.3875
2332.62222	4345.8875
2335.46626	4321.9875
2338.3085	4303.6875
2341.14893	4319.5875
2343.98756	4299.9875
2346.8244	4285.2875
2349.65943	4271.5875
2352.49267	4297.0875
2355.32411	4275.4875
2358.15376	4260.4875
2360.98161	4275.3875
2363.80768	4261.9875
2366.63195	4252.6875
2369.45444	4239.1875
2372.27514	4238.0875
2375.09405	4235.0875
2377.91118	4230.4875
2380.72652	4226.7875
2383.54009	4206.7875
2386.35187	4206.5875
2389.16188	4201.1875
2391.97011	4180.9875
2394.77657	4169.3875
2397.58125	4148.0875
2400.38416	4146.0875
2403.18529	4140.8875
2405.98466	4147.3875
2408.78226	4140.6875
2411.57809	4136.6875
2414.37216	4111.6875
2417.16446	4122.4875
2419.955	4101.9875
2422.74378	4117.7875
2425.5308	4075.0875
2428.31606	4093.8875
2431.09956	4081.5875
2433.88131	4074.9875
2436.6613	4068.4875
2439.43954	4067.2875
2442.21603	4062.4875
2444.99077	4054.8875
2447.76377	4061.4875
2450.53501	4052.6875
2453.30451	4050.3875
2456.07226	4041.7875
2458.83827	4022.9875
2461.60254	4030.8875
2464.36507	4018.5875
2467.12586	4008.7875
2469.88492	4003.7875
2472.64224	4008.7875
2475.39782	3995.6875
2478.15167	3995.5875
2480.90379	3976.7875
2483.65417	3988.2875
2486.40283	3966.8875
2489.14976	3989.8875
2491.89497	3962.7875
2494.63845	3974.6875
2497.3802	3962.1875
2500.12024	3960.5875
2502.85855	3951.4875
2505.59514	3933.0875
2508.33002	3942.4875
2511.06318	3934.5875
2513.79462	3930.3875
2516.52435	3922.4875
2519.25237	3905.2875
2521.97867	3909.7875
2524.70327	3898.4875
2527.42616	3888.5875
2530.14734	3896.1875
2532.86681	3880.9875
2535.58458	3867.9875
2538.30065	3859.9875
2541.01501	3858.6875
2543.72768	3850.1875
2546.43864	3837.2875
2549.14791	3826.6875
2551.85548	3811.0875
2554.56136	3808.1875
2557.26554	3797.8875
2559.96803	3810.1875
2562.66883	3793.5875
2565.36794	3785.9875
2568.06536	3774.9875
2570.7611	3772.7875
2573.45514	3770.8875
2576.14751	3756.5875
2578.83819	3735.7875
2581.52719	3757.7875
2584.21451	3726.6875
2586.90015	3729.9875
2589.58411	3720.4875
2592.2664	3706.5875
2594.94701	3700.1875
2597.62594	3689.6875
2600.30321	3675.5875
2602.9788	3671.8875
2605.65273	3668.6875
2608.32498	3661.6875
2610.99557	3654.0875
2613.66449	3648.6875
2616.33175	3645.8875
2618.99734	3646.1875
2621.66128	3635.9875
2624.32355	3613.6875
2626.98416	3616.4875
2629.64311	3618.1875
2632.30041	3623.2875
2634.95605	3605.6875
2637.61004	3595.6875
2640.26238	3586.1875
2642.91306	3582.8875
2645.56209	3579.0875
2648.20948	3580.5875
2650.85521	3567.8875
2653.4993	3571.1875
2656.14175	3574.0875
2658.78255	3565.5875
2661.42171	3562.2875
2664.05923	3564.3875
2666.6951	3543.1875
2669.32934	3553.9875
2671.96194	3552.2875
2674.59291	3549.1875
2677.22224	3557.1875
2679.84993	3542.3875
2682.476	3554.5875
2685.10043	3531.4875
2687.72324	3541.1875
2690.34441	3537.3875
2692.96396	3535.4875
2695.58188	3550.0875
2698.19818	3530.9875
2700.81285	3551.8875
2703.4259	3531.2875
2706.03733	3540.6875
2708.64714	3540.6875
2711.25533	3530.2875
2713.86191	3535.8875
2716.46687	3530.3875
2719.07021	3518.7875
2721.67194	3524.8875
2724.27206	3520.1875
2726.87057	3514.7875
2729.46747	3518.6875
2732.06276	3520.1875
2734.65644	3500.4875
2737.24852	3510.4875
2739.83899	3507.2875
2742.42786	3495.4875
2745.01513	3483.6875
2747.60079	3499.0875
2750.18486	3472.2875
2752.76733	3479.2875
2755.3482	3463.5875
2757.92747	3471.1875
2760.50515	3454.3875
2763.08123	3454.6875
2765.65573	3447.0875
2768.22863	3442.9875
2770.79994	3443.3875
2773.36967	3435.2875
2775.9378	3417.3875
2778.50435	3415.8875
2781.06932	3413.7875
2783.6327	3402.9875
2786.1945	3404.3875
2788.75471	3391.2875
2791.31335	3394.4875
2793.87041	3364.3875
2796.42589	3368.2875
2798.97979	3363.2875
2801.53212	3350.0875
2804.08288	3346.7875
2806.63206	3333.7875
2809.17967	3328.1875
2811.72571	3311.9875
2814.27018	3313.9875
2816.81308	3296.2875
2819.35442	3293.9875
2821.89419	3289.8875
2824.43239	3280.5875
2826.96904	3286.6875
2829.50412	3277.3875
2832.03763	3276.6875
2834.56959	3286.7875
2837.1	3264.8875
2839.62884	3260.6875
2842.15613	3265.9875
2844.68186	3252.8875
2847.20604	3263.5875
2849.72867	3245.0875
2852.24974	3260.2875
2854.76927	3253.3875
2857.28724	3234.4875
2859.80367	3246.1875
2862.31855	3233.5875
2864.83189	3234.2875
2867.34368	3215.0875
2869.85393	3224.8875
2872.36264	3227.4875
2874.8698	3224.7875
2877.37543	3204.4875
2879.87952	3217.6875
2882.38207	3222.0875
2884.88308	3196.3875
2887.38256	3217.7875
2889.88051	3215.5875
2892.37692	3208.0875
2894.8718	3213.8875
2897.36515	3215.4875
2899.85698	3222.1875
2902.34727	3199.2875
2904.83604	3204.9875
2907.32328	3223.4875
2909.809	3203.1875
2912.29319	3207.3875
2914.77587	3209.2875
2917.25702	3198.8875
2919.73665	3193.8875
2922.21476	3196.2875
2924.69136	3189.3875
2927.16644	3181.2875
2929.64	3170.7875
2932.11205	3194.3875
2934.58258	3178.3875
2937.05161	3186.2875
2939.51912	3189.3875
2941.98513	3186.7875
2944.44962	3181.6875
2946.91261	3166.8875
2949.37409	3174.5875
2951.83407	3162.6875
2954.29254	3165.4875
2956.74951	3156.3875
2959.20498	3155.2875
2961.65895	3156.4875
2964.11142	3152.7875
2966.56239	3138.3875
2969.01186	3133.0875
2971.45984	3131.7875
2973.90632	3137.4875
2976.35131	3113.3875
2978.7948	3122.4875
2981.23681	3098.5875
2983.67732	3104.1875
2986.11635	3097.5875
2988.55388	3101.9875
2990.98993	3083.6875
2993.4245	3087.6875
2995.85758	3072.4875
2998.28917	3069.7875
3000.71928	3070.6875
3003.14791	3060.2875
3005.57506	3066.0875
3008.00073	3076.7875
3010.42493	3059.1875
3012.84764	3047.4875
3015.26888	3062.3875
3017.68865	3044.1875
3020.10694	3041.9875
3022.52376	3032.8875
3024.9391	3044.9875
3027.35298	3021.2875
3029.76539	3028.3875
3032.17632	3029.7875
3034.5858	3016.3875
3036.9938	3029.1875
3039.40034	3016.5875
3041.80542	3009.1875
3044.20903	2997.5875
3046.61118	3012.6875
3049.01187	3003.6875
3051.4111	2999.7875
3053.80888	3003.4875
3056.20519	3011.7875
3058.60005	2996.4875
3060.99345	2992.2875
3063.3854	2979.7875
3065.7759	2978.0875
3068.16494	2969.8875
3070.55254	2976.7875
3072.93868	2974.4875
3075.32338	2960.6875
3077.70662	2968.7875
3080.08842	2968.7875
3082.46878	2978.2875
3084.84769	2965.5875
3087.22515	2965.2875
3089.60118	2971.5875
3091.97576	2973.5875
3094.3489	2967.2875
3096.72061	2976.1875
3099.09087	2978.9875
3101.4597	2973.3875
3103.82709	2979.4875
3106.19305	2979.7875
3108.55757	2986.2875
3110.92066	2972.5875
3113.28232	2965.8875
3115.64255	2960.9875
3118.00134	2963.1875
3120.35871	2955.7875
3122.71466	2951.4875
3125.06917	2953.0875
3127.42226	2947.3875
3129.77393	2957.1875
3132.12417	2960.5875
3134.47299	2971.9875
3136.82039	2958.4875
3139.16636	2988.3875
3141.51092	2980.8875
3143.85406	2981.5875
3146.19579	2998.3875
3148.53609	2994.3875
3150.87499	2994.0875
3153.21246	3003.3875
3155.54853	3011.9875
3157.88318	3014.6875
3160.21642	3009.0875
3162.54826	3018.9875
3164.87868	3012.7875
3167.2077	3024.7875
3169.5353	3021.4875
3171.86151	3018.7875
3174.18631	3037.5875
3176.5097	3019.9875
3178.83169	3017.1875
3181.15228	3022.3875
3183.47147	3021.8875
3185.78926	3017.0875
3188.10565	3017.4875
3190.42065	3020.6875
3192.73424	3034.6875
3195.04645	3036.1875
3197.35725	3024.3875
3199.66667	3036.4875
3201.97469	3048.1875
3204.28132	3045.5875
3206.58656	3049.0875
3208.8904	3055.3875
3211.19287	3054.5875
3213.49394	3043.6875
3215.79363	3061.1875
3218.09193	3072.5875
3220.38884	3051.0875
3222.68438	3068.6875
3224.97853	3047.5875
3227.2713	3049.0875
3229.56269	3035.6875
3231.8527	3049.9875
3234.14133	3050.0875
3236.42858	3031.7875
3238.71446	3026.5875
3240.99896	3034.0875
3243.28209	3037.0875
3245.56384	3020.3875
3247.84423	3037.3875
3250.12324	3008.7875
3252.40088	3030.1875
3254.67715	3021.9875
3256.95205	3003.6875
3259.22558	3017.0875
3261.49775	3003.6875
3263.76855	3000.2875
3266.03799	3004.8875
3268.30606	2990.1875
3270.57277	2994.6875
3272.83812	2982.4875
3275.10211	2972.7875
3277.36474	2969.1875
3279.62601	2975.1875
3281.88593	2973.9875
3284.14448	2972.7875
3286.40168	2968.4875
3288.65753	2958.4875
3290.91202	2962.8875
3293.16516	2946.4875
3295.41695	2939.3875
3297.66738	2917.3875
3299.91647	2912.2875
3302.16421	2897.1875
3304.4106	2884.9875
3306.65564	2876.4875
3308.89933	2864.6875
3311.14169	2853.5875
3313.38269	2821.9875
3315.62236	2810.9875
3317.86068	2786.7875
3320.09766	2759.6875
3322.3333	2738.3875
3324.5676	2733.4875
3326.80056	2693.1875
3329.03219	2698.6875
3331.26248	-1.1125
3333.49143	0.4875
3335.71905	-0.7125
