Data from AgNPs_FTO_APTES_UA_0.1mM_CRN_0uM_NaF_0.1M_Addition_RamanShift__51__11-02-07-513.txt Node

Date: Mon Dec 20 11:02:07 GMT 2021
User: TCL
Spectrometer: QEP01345
Trigger mode: 4
Integration Time (sec): 7.000000E0
Scans to average: 10
Electric dark correction enabled: true
Nonlinearity correction enabled: false
Boxcar width: 0
XAxis mode: Raman Shifts
Number of Pixels in Spectrum: 1044
>>>>>Begin Spectral Data<<<<<
46.04893	-0.1125
50.45542	-0.4125
54.85868	-2.5125
59.25871	1.0875
63.6555	31.6875
68.04907	32.4875
72.43941	34.4875
76.82654	35.7875
81.21044	34.8875
85.59113	39.4875
89.96862	35.5875
94.34289	42.1875
98.71396	39.0875
103.08183	42.8875
107.4465	42.2875
111.80798	46.8875
116.16626	45.4875
120.52136	45.8875
124.87327	51.9875
129.222	53.6875
133.56755	52.1875
137.90993	56.4875
142.24913	61.8875
146.58517	64.4875
150.91804	78.0875
155.24774	88.9875
159.57429	103.3875
163.89768	134.8875
168.21792	171.3875
172.53501	223.6875
176.84895	311.9875
181.15975	425.4875
185.46741	592.8875
189.77193	825.4875
194.07331	1086.5875
198.37157	1412.7875
202.6667	1746.9875
206.9587	2083.1875
211.24758	2407.9875
215.53334	2730.7875
219.81599	3072.1875
224.09553	3429.6875
228.37195	3844.5875
232.64527	4256.0875
236.91549	4714.3875
241.18261	5160.6875
245.44663	5580.8875
249.70755	5958.2875
253.96539	6264.3875
258.22014	6505.8875
262.4718	6702.0875
266.72039	6809.0875
270.96589	6826.7875
275.20832	6818.8875
279.44768	6731.1875
283.68397	6657.5875
287.91719	6539.1875
292.14735	6497.1875
296.37445	6472.2875
300.59849	6466.9875
304.81948	6474.8875
309.03742	6469.7875
313.25231	6413.1875
317.46415	6278.6875
321.67296	6142.6875
325.87872	6026.5875
330.08145	5950.1875
334.28114	5929.2875
338.47781	5981.5875
342.67145	6023.3875
346.86207	6104.1875
351.04966	6202.4875
355.23424	6317.3875
359.4158	6429.5875
363.59435	6530.2875
367.76989	6584.2875
371.94243	6633.9875
376.11196	6704.2875
380.27849	6789.4875
384.44203	6862.3875
388.60257	6902.1875
392.76012	6965.7875
396.91468	7039.3875
401.06626	7139.1875
405.21485	7179.1875
409.36047	7165.7875
413.50311	7112.6875
417.64277	7025.3875
421.77947	7020.7875
425.9132	7018.3875
430.04396	7023.9875
434.17176	7067.2875
438.2966	7097.5875
442.41849	7158.8875
446.53742	7271.8875
450.6534	7392.1875
454.76644	7492.6875
458.87653	7531.7875
462.98368	7532.1875
467.08789	7503.1875
471.18916	7474.8875
475.2875	7463.8875
479.38291	7505.9875
483.4754	7579.5875
487.56496	7691.5875
491.6516	7815.8875
495.73531	7916.6875
499.81612	7903.7875
503.89401	7833.2875
507.96899	7766.5875
512.04106	7694.3875
516.11023	7623.7875
520.1765	7625.1875
524.23987	7644.3875
528.30034	7676.6875
532.35792	7695.4875
536.41261	7637.3875
540.46441	7532.3875
544.51333	7444.8875
548.55936	7375.2875
552.60252	7387.4875
556.64279	7417.1875
560.6802	7439.0875
564.71473	7447.7875
568.7464	7482.6875
572.7752	7587.4875
576.80114	7624.2875
580.82422	7708.3875
584.84444	7831.1875
588.86181	7975.1875
592.87633	8109.0875
596.888	8143.2875
600.89682	8098.0875
604.9028	8191.0875
608.90594	8694.6875
612.90624	9418.7875
616.90371	9320.6875
620.89834	8542.1875
624.89015	8362.1875
628.87913	8732.8875
632.86528	9232.5875
636.84862	9526.5875
640.82913	9473.9875
644.80683	9139.4875
648.78172	8661.5875
652.75379	8315.8875
656.72306	8086.9875
660.68952	8002.0875
664.65319	7940.4875
668.61405	7874.6875
672.57211	7902.8875
676.52738	7945.5875
680.47986	7937.3875
684.42955	7886.2875
688.37646	7846.6875
692.32058	7801.2875
696.26192	7701.8875
700.20048	7639.9875
704.13626	7602.3875
708.06928	7538.0875
711.99952	7450.8875
715.927	7422.1875
719.85171	7393.5875
723.77365	7424.5875
727.69284	7435.7875
731.60928	7401.1875
735.52295	7327.8875
739.43388	7307.2875
743.34206	7335.5875
747.24749	7350.1875
751.15017	7340.9875
755.05012	7342.3875
758.94733	7461.5875
762.8418	7641.1875
766.73354	8033.7875
770.62254	8451.6875
774.50882	8680.0875
778.39237	8513.0875
782.27321	8066.9875
786.15132	7641.9875
790.02671	7382.8875
793.89938	7316.7875
797.76935	7302.9875
801.6366	7368.7875
805.50115	7555.6875
809.36299	7729.9875
813.22213	7781.9875
817.07857	7674.4875
820.93231	7440.0875
824.78336	7233.9875
828.63172	7076.1875
832.47738	7006.9875
836.32036	6952.4875
840.16066	6922.9875
843.99827	6932.7875
847.8332	6899.3875
851.66546	6897.9875
855.49504	6873.0875
859.32195	6904.7875
863.1462	6911.5875
866.96777	6986.3875
870.78668	7050.8875
874.60293	7177.3875
878.41652	7293.4875
882.22745	7436.4875
886.03573	7520.1875
889.84136	7524.5875
893.64433	7380.5875
897.44466	7207.9875
901.24235	7015.0875
905.0374	6862.5875
908.8298	6747.6875
912.61957	6694.7875
916.40671	6669.0875
920.19121	6685.6875
923.97308	6719.4875
927.75233	6713.1875
931.52895	6686.9875
935.30295	6642.8875
939.07433	6579.4875
942.84309	6532.2875
946.60924	6521.3875
950.37278	6505.4875
954.13371	6501.6875
957.89203	6492.1875
961.64774	6462.3875
965.40086	6423.7875
969.15137	6397.5875
972.89929	6339.3875
976.64461	6324.9875
980.38733	6319.7875
984.12747	6313.7875
987.86502	6343.1875
991.59999	6386.8875
995.33237	6452.8875
999.06217	6526.4875
1002.78939	6677.8875
1006.51404	6792.6875
1010.23611	6901.4875
1013.95561	6984.7875
1017.67255	7013.0875
1021.38692	6949.4875
1025.09872	6874.5875
1028.80796	6751.8875
1032.51465	6726.7875
1036.21877	6731.6875
1039.92035	6696.9875
1043.61937	6666.4875
1047.31584	6619.7875
1051.00976	6585.8875
1054.70114	6581.7875
1058.38998	6591.3875
1062.07627	6636.5875
1065.76003	6718.3875
1069.44126	6769.7875
1073.11995	6822.8875
1076.79611	6857.4875
1080.46974	6845.9875
1084.14085	6806.4875
1087.80943	6812.8875
1091.47549	6791.4875
1095.13903	6748.1875
1098.80005	6681.5875
1102.45857	6591.0875
1106.11456	6556.4875
1109.76805	6603.6875
1113.41903	6696.2875
1117.06751	6881.8875
1120.71348	7134.8875
1124.35696	7514.0875
1127.99793	7967.9875
1131.63641	8406.7875
1135.2724	8642.5875
1138.90589	8668.2875
1142.5369	8474.8875
1146.16542	8099.3875
1149.79145	7728.8875
1153.415	7353.9875
1157.03607	7078.9875
1160.65467	6956.2875
1164.27079	6977.9875
1167.88443	7115.4875
1171.49561	7317.0875
1175.10432	7605.3875
1178.71056	8017.2875
1182.31434	8415.5875
1185.91565	8660.2875
1189.51451	8738.6875
1193.11091	8700.7875
1196.70485	8691.4875
1200.29634	8660.9875
1203.88538	8566.2875
1207.47197	8445.4875
1211.05612	8237.8875
1214.63782	7974.9875
1218.21708	7751.4875
1221.79391	7550.9875
1225.36829	7400.1875
1228.94024	7283.6875
1232.50976	7136.6875
1236.07685	7050.8875
1239.6415	7029.1875
1243.20374	7029.2875
1246.76355	7073.6875
1250.32093	7144.0875
1253.8759	7190.4875
1257.42845	7323.8875
1260.97859	7440.2875
1264.52631	7567.0875
1268.07163	7633.3875
1271.61453	7756.0875
1275.15503	7869.4875
1278.69312	7954.7875
1282.22882	8054.9875
1285.76211	8167.6875
1289.29301	8315.2875
1292.82151	8497.6875
1296.34761	8775.0875
1299.87133	9138.2875
1303.39266	9515.2875
1306.9116	9990.6875
1310.42815	10390.5875
1313.94233	10709.6875
1317.45412	10712.0875
1320.96354	10527.6875
1324.47058	10326.4875
1327.97525	10111.3875
1331.47754	9979.8875
1334.97747	9913.4875
1338.47502	9939.2875
1341.97022	10024.9875
1345.46305	10080.2875
1348.95352	10253.0875
1352.44163	10483.9875
1355.92738	10885.1875
1359.41078	11399.5875
1362.89183	11860.5875
1366.37053	11730.2875
1369.84688	10901.9875
1373.32088	9956.8875
1376.79254	9290.4875
1380.26186	8959.7875
1383.72883	8795.8875
1387.19347	8676.2875
1390.65578	8544.4875
1394.11575	8429.3875
1397.57339	8407.9875
1401.0287	8414.9875
1404.48168	8423.6875
1407.93234	8352.7875
1411.38068	8228.0875
1414.82669	7985.1875
1418.27039	7757.9875
1421.71177	7501.4875
1425.15083	7285.4875
1428.58758	7120.6875
1432.02203	7068.5875
1435.45416	7114.4875
1438.88399	7193.9875
1442.31151	7278.5875
1445.73673	7360.2875
1449.15965	7410.8875
1452.58027	7480.4875
1455.9986	7508.0875
1459.41463	7554.7875
1462.82837	7643.9875
1466.23982	7767.2875
1469.64898	7847.3875
1473.05586	7933.5875
1476.46045	7975.7875
1479.86276	7959.9875
1483.26279	7979.6875
1486.66054	7969.7875
1490.05602	8026.9875
1493.44922	8122.2875
1496.84016	8231.4875
1500.22882	8413.2875
1503.61521	8700.3875
1506.99934	9040.5875
1510.38121	9365.0875
1513.76081	9459.6875
1517.13816	9241.0875
1520.51324	8824.3875
1523.88607	8425.6875
1527.25665	8189.4875
1530.62498	8074.4875
1533.99105	8051.4875
1537.35488	8049.2875
1540.71647	8040.5875
1544.07581	8026.7875
1547.4329	8046.0875
1550.78776	8035.4875
1554.14038	8037.0875
1557.49077	8084.6875
1560.83892	8141.5875
1564.18484	8176.5875
1567.52853	8197.9875
1570.86999	8233.6875
1574.20922	8278.9875
1577.54624	8307.2875
1580.88103	8222.5875
1584.2136	8149.3875
1587.54395	8137.8875
1590.87208	8304.0875
1594.19801	8563.7875
1597.52172	8889.3875
1600.84321	9077.3875
1604.16251	8948.4875
1607.47959	8643.3875
1610.79447	8294.6875
1614.10715	7940.2875
1617.41763	7674.5875
1620.7259	7500.6875
1624.03199	7402.7875
1627.33587	7436.3875
1630.63757	7540.9875
1633.93707	7757.9875
1637.23439	8115.0875
1640.52951	8631.3875
1643.82246	9283.0875
1647.11321	9891.4875
1650.40179	10192.0875
1653.68819	9916.2875
1656.97241	9237.2875
1660.25446	8439.3875
1663.53433	7816.0875
1666.81203	7375.0875
1670.08756	7075.3875
1673.36092	6856.2875
1676.63211	6714.4875
1679.90115	6605.0875
1683.16801	6459.1875
1686.43272	6332.4875
1689.69527	6196.8875
1692.95567	6059.9875
1696.2139	5948.4875
1699.46999	5837.5875
1702.72392	5723.2875
1705.97571	5612.9875
1709.22535	5523.0875
1712.47284	5466.8875
1715.71819	5411.3875
1718.96139	5304.4875
1722.20246	5286.8875
1725.44139	5244.6875
1728.67818	5148.2875
1731.91284	5093.3875
1735.14537	5041.9875
1738.37576	4997.5875
1741.60403	4973.7875
1744.83017	4920.5875
1748.05418	4902.4875
1751.27607	4882.4875
1754.49584	4891.0875
1757.71349	4879.6875
1760.92903	4858.5875
1764.14244	4839.2875
1767.35375	4824.5875
1770.56294	4829.2875
1773.77002	4783.1875
1776.97499	4775.6875
1780.17785	4746.8875
1783.37861	4721.7875
1786.57727	4696.2875
1789.77382	4685.9875
1792.96828	4678.6875
1796.16064	4654.5875
1799.3509	4628.8875
1802.53907	4610.1875
1805.72514	4592.1875
1808.90913	4586.8875
1812.09102	4571.9875
1815.27083	4545.9875
1818.44856	4554.0875
1821.6242	4521.6875
1824.79776	4531.9875
1827.96924	4534.0875
1831.13864	4527.3875
1834.30597	4509.2875
1837.47122	4510.7875
1840.6344	4468.2875
1843.7955	4510.8875
1846.95454	4472.7875
1850.11151	4482.2875
1853.26642	4466.9875
1856.41926	4460.7875
1859.57004	4457.2875
1862.71876	4451.8875
1865.86542	4438.2875
1869.01003	4436.7875
1872.15258	4446.2875
1875.29308	4446.8875
1878.43152	4438.4875
1881.56792	4411.0875
1884.70227	4417.4875
1887.83457	4391.6875
1890.96482	4402.4875
1894.09304	4410.9875
1897.21921	4389.5875
1900.34335	4379.4875
1903.46544	4379.5875
1906.58551	4366.3875
1909.70353	4379.9875
1912.81953	4362.2875
1915.93349	4348.4875
1919.04543	4336.4875
1922.15534	4328.0875
1925.26322	4334.1875
1928.36908	4305.0875
1931.47292	4294.9875
1934.57473	4284.4875
1937.67453	4270.4875
1940.77232	4266.4875
1943.86808	4248.9875
1946.96184	4227.7875
1950.05358	4210.0875
1953.14331	4208.7875
1956.23103	4190.8875
1959.31675	4183.5875
1962.40046	4169.5875
1965.48217	4164.5875
1968.56188	4153.7875
1971.63959	4139.1875
1974.7153	4132.7875
1977.78901	4107.2875
1980.86073	4093.3875
1983.93046	4084.5875
1986.99819	4069.7875
1990.06394	4056.3875
1993.1277	4046.5875
1996.18947	4026.9875
1999.24925	4016.7875
2002.30706	4012.1875
2005.36288	3991.6875
2008.41672	3984.2875
2011.46859	3984.5875
2014.51848	3955.4875
2017.56639	3961.0875
2020.61233	3944.8875
2023.6563	3946.9875
2026.6983	3921.0875
2029.73833	3903.1875
2032.7764	3901.5875
2035.8125	3889.7875
2038.84664	3873.7875
2041.87881	3881.1875
2044.90903	3864.2875
2047.93729	3853.7875
2050.96359	3859.7875
2053.98794	3859.2875
2057.01034	3851.9875
2060.03078	3849.9875
2063.04927	3842.6875
2066.06582	3844.9875
2069.08042	3839.4875
2072.09307	3842.1875
2075.10378	3836.4875
2078.11255	3828.5875
2081.11938	3824.0875
2084.12426	3806.9875
2087.12722	3830.3875
2090.12824	3826.7875
2093.12732	3824.0875
2096.12447	3828.2875
2099.11969	3808.8875
2102.11299	3816.8875
2105.10435	3826.7875
2108.09379	3818.5875
2111.08131	3815.8875
2114.0669	3815.6875
2117.05057	3823.0875
2120.03233	3812.5875
2123.01216	3828.0875
2125.99008	3824.0875
2128.96609	3837.2875
2131.94018	3821.9875
2134.91236	3842.9875
2137.88263	3835.5875
2140.851	3834.6875
2143.81746	3843.6875
2146.78201	3838.2875
2149.74466	3831.7875
2152.7054	3841.2875
2155.66425	3817.7875
2158.6212	3818.7875
2161.57625	3820.7875
2164.52941	3821.4875
2167.48067	3819.2875
2170.43004	3820.6875
2173.37752	3799.3875
2176.32311	3803.9875
2179.26681	3808.6875
2182.20863	3819.6875
2185.14856	3813.7875
2188.08661	3795.6875
2191.02278	3820.7875
2193.95707	3790.5875
2196.88948	3787.3875
2199.82001	3788.0875
2202.74867	3788.2875
2205.67545	3777.8875
2208.60037	3769.5875
2211.52341	3767.6875
2214.44458	3759.1875
2217.36388	3746.3875
2220.28132	3750.4875
2223.1969	3744.7875
2226.11061	3722.4875
2229.02246	3725.7875
2231.93245	3721.0875
2234.84058	3714.6875
2237.74686	3714.2875
2240.65128	3705.3875
2243.55385	3692.5875
2246.45456	3692.6875
2249.35343	3677.9875
2252.25044	3684.9875
2255.14561	3659.2875
2258.03893	3674.1875
2260.93041	3666.1875
2263.82004	3652.4875
2266.70783	3647.7875
2269.59378	3636.0875
2272.4779	3624.3875
2275.36017	3620.0875
2278.24061	3603.4875
2281.11922	3609.0875
2283.996	3595.6875
2286.87094	3608.6875
2289.74405	3577.7875
2292.61534	3580.2875
2295.4848	3567.9875
2298.35243	3553.1875
2301.21824	3563.7875
2304.08223	3557.7875
2306.94439	3536.3875
2309.80474	3541.2875
2312.66327	3561.8875
2315.51999	3535.3875
2318.37489	3548.9875
2321.22797	3532.4875
2324.07925	3527.2875
2326.92871	3525.7875
2329.77637	3519.6875
2332.62222	3516.4875
2335.46626	3505.1875
2338.3085	3512.3875
2341.14893	3497.5875
2343.98756	3501.6875
2346.8244	3499.4875
2349.65943	3493.0875
2352.49267	3489.9875
2355.32411	3498.0875
2358.15376	3486.3875
2360.98161	3476.5875
2363.80768	3469.1875
2366.63195	3471.8875
2369.45444	3482.2875
2372.27514	3466.2875
2375.09405	3470.8875
2377.91118	3456.2875
2380.72652	3453.6875
2383.54009	3448.5875
2386.35187	3440.9875
2389.16188	3423.1875
2391.97011	3408.7875
2394.77657	3423.0875
2397.58125	3412.8875
2400.38416	3412.3875
2403.18529	3395.2875
2405.98466	3405.8875
2408.78226	3385.7875
2411.57809	3381.6875
2414.37216	3369.1875
2417.16446	3371.6875
2419.955	3365.1875
2422.74378	3353.1875
2425.5308	3353.3875
2428.31606	3349.1875
2431.09956	3345.4875
2433.88131	3346.1875
2436.6613	3344.4875
2439.43954	3326.1875
2442.21603	3331.8875
2444.99077	3327.8875
2447.76377	3319.7875
2450.53501	3323.7875
2453.30451	3330.7875
2456.07226	3305.4875
2458.83827	3320.5875
2461.60254	3306.2875
2464.36507	3305.5875
2467.12586	3300.1875
2469.88492	3306.4875
2472.64224	3291.8875
2475.39782	3300.2875
2478.15167	3298.6875
2480.90379	3282.7875
2483.65417	3292.5875
2486.40283	3282.4875
2489.14976	3282.6875
2491.89497	3287.0875
2494.63845	3291.0875
2497.3802	3276.3875
2500.12024	3301.0875
2502.85855	3283.6875
2505.59514	3278.1875
2508.33002	3274.3875
2511.06318	3274.7875
2513.79462	3254.8875
2516.52435	3261.0875
2519.25237	3261.2875
2521.97867	3245.4875
2524.70327	3234.5875
2527.42616	3229.0875
2530.14734	3240.8875
2532.86681	3221.4875
2535.58458	3214.8875
2538.30065	3216.0875
2541.01501	3212.6875
2543.72768	3207.8875
2546.43864	3211.9875
2549.14791	3196.2875
2551.85548	3192.0875
2554.56136	3182.3875
2557.26554	3189.9875
2559.96803	3183.0875
2562.66883	3174.2875
2565.36794	3162.7875
2568.06536	3171.1875
2570.7611	3162.5875
2573.45514	3156.7875
2576.14751	3163.1875
2578.83819	3152.6875
2581.52719	3151.7875
2584.21451	3149.1875
2586.90015	3134.9875
2589.58411	3135.9875
2592.2664	3112.3875
2594.94701	3120.0875
2597.62594	3116.6875
2600.30321	3099.7875
2602.9788	3122.8875
2605.65273	3101.4875
2608.32498	3097.5875
2610.99557	3099.2875
2613.66449	3097.5875
2616.33175	3094.4875
2618.99734	3092.3875
2621.66128	3075.1875
2624.32355	3065.3875
2626.98416	3086.1875
2629.64311	3077.2875
2632.30041	3076.7875
2634.95605	3081.7875
2637.61004	3065.4875
2640.26238	3066.7875
2642.91306	3055.7875
2645.56209	3051.0875
2648.20948	3065.4875
2650.85521	3058.5875
2653.4993	3044.4875
2656.14175	3050.9875
2658.78255	3060.9875
2661.42171	3062.6875
2664.05923	3044.6875
2666.6951	3057.5875
2669.32934	3046.4875
2671.96194	3058.8875
2674.59291	3052.2875
2677.22224	3058.4875
2679.84993	3054.0875
2682.476	3044.3875
2685.10043	3047.4875
2687.72324	3045.5875
2690.34441	3055.7875
2692.96396	3052.8875
2695.58188	3060.4875
2698.19818	3048.8875
2700.81285	3057.4875
2703.4259	3050.5875
2706.03733	3067.5875
2708.64714	3066.7875
2711.25533	3063.4875
2713.86191	3067.0875
2716.46687	3071.3875
2719.07021	3052.1875
2721.67194	3055.0875
2724.27206	3067.7875
2726.87057	3067.4875
2729.46747	3059.8875
2732.06276	3056.8875
2734.65644	3057.6875
2737.24852	3041.0875
2739.83899	3051.0875
2742.42786	3044.6875
2745.01513	3036.5875
2747.60079	3038.0875
2750.18486	3045.1875
2752.76733	3036.5875
2755.3482	3047.5875
2757.92747	3035.2875
2760.50515	3034.0875
2763.08123	3037.9875
2765.65573	3033.2875
2768.22863	3028.8875
2770.79994	3027.5875
2773.36967	3020.6875
2775.9378	3031.8875
2778.50435	3007.9875
2781.06932	3004.8875
2783.6327	3011.2875
2786.1945	3008.9875
2788.75471	2995.6875
2791.31335	2989.8875
2793.87041	2985.4875
2796.42589	2986.3875
2798.97979	2976.8875
2801.53212	2968.7875
2804.08288	2962.8875
2806.63206	2958.8875
2809.17967	2939.7875
2811.72571	2936.3875
2814.27018	2941.4875
2816.81308	2942.3875
2819.35442	2942.2875
2821.89419	2930.1875
2824.43239	2934.7875
2826.96904	2947.4875
2829.50412	2928.3875
2832.03763	2930.8875
2834.56959	2928.1875
2837.1	2915.0875
2839.62884	2917.1875
2842.15613	2919.4875
2844.68186	2926.0875
2847.20604	2923.4875
2849.72867	2925.2875
2852.24974	2925.9875
2854.76927	2935.2875
2857.28724	2924.0875
2859.80367	2910.5875
2862.31855	2904.8875
2864.83189	2918.4875
2867.34368	2903.9875
2869.85393	2920.1875
2872.36264	2921.2875
2874.8698	2926.6875
2877.37543	2928.8875
2879.87952	2932.3875
2882.38207	2930.4875
2884.88308	2933.2875
2887.38256	2930.3875
2889.88051	2928.2875
2892.37692	2938.4875
2894.8718	2938.1875
2897.36515	2930.9875
2899.85698	2930.4875
2902.34727	2945.3875
2904.83604	2942.0875
2907.32328	2948.7875
2909.809	2945.2875
2912.29319	2943.8875
2914.77587	2927.8875
2917.25702	2952.6875
2919.73665	2952.7875
2922.21476	2948.0875
2924.69136	2936.4875
2927.16644	2951.0875
2929.64	2942.0875
2932.11205	2936.1875
2934.58258	2947.7875
2937.05161	2934.9875
2939.51912	2932.8875
2941.98513	2935.2875
2944.44962	2934.3875
2946.91261	2915.5875
2949.37409	2923.3875
2951.83407	2921.9875
2954.29254	2914.2875
2956.74951	2911.7875
2959.20498	2909.0875
2961.65895	2892.5875
2964.11142	2917.4875
2966.56239	2897.2875
2969.01186	2898.8875
2971.45984	2885.5875
2973.90632	2873.2875
2976.35131	2872.7875
2978.7948	2882.0875
2981.23681	2867.5875
2983.67732	2869.2875
2986.11635	2869.8875
2988.55388	2845.7875
2990.98993	2855.6875
2993.4245	2853.4875
2995.85758	2844.4875
2998.28917	2840.4875
3000.71928	2836.3875
3003.14791	2834.2875
3005.57506	2842.0875
3008.00073	2834.7875
3010.42493	2834.0875
3012.84764	2832.7875
3015.26888	2841.7875
3017.68865	2822.3875
3020.10694	2826.0875
3022.52376	2825.6875
3024.9391	2827.5875
3027.35298	2821.6875
3029.76539	2820.5875
3032.17632	2835.4875
3034.5858	2826.3875
3036.9938	2811.6875
3039.40034	2818.1875
3041.80542	2823.6875
3044.20903	2819.4875
3046.61118	2821.8875
3049.01187	2817.1875
3051.4111	2802.1875
3053.80888	2810.2875
3056.20519	2805.9875
3058.60005	2796.6875
3060.99345	2805.9875
3063.3854	2806.0875
3065.7759	2804.4875
3068.16494	2811.1875
3070.55254	2791.7875
3072.93868	2795.7875
3075.32338	2796.0875
3077.70662	2798.9875
3080.08842	2780.7875
3082.46878	2805.0875
3084.84769	2783.8875
3087.22515	2806.6875
3089.60118	2802.5875
3091.97576	2819.7875
3094.3489	2806.7875
3096.72061	2809.5875
3099.09087	2808.0875
3101.4597	2832.3875
3103.82709	2832.9875
3106.19305	2827.5875
3108.55757	2831.3875
3110.92066	2830.0875
3113.28232	2832.8875
3115.64255	2825.2875
3118.00134	2834.5875
3120.35871	2823.4875
3122.71466	2822.6875
3125.06917	2828.3875
3127.42226	2820.2875
3129.77393	2831.5875
3132.12417	2842.9875
3134.47299	2844.0875
3136.82039	2834.6875
3139.16636	2862.6875
3141.51092	2860.4875
3143.85406	2871.4875
3146.19579	2876.7875
3148.53609	2881.6875
3150.87499	2888.9875
3153.21246	2893.5875
3155.54853	2904.4875
3157.88318	2918.2875
3160.21642	2916.7875
3162.54826	2914.8875
3164.87868	2927.1875
3167.2077	2917.6875
3169.5353	2934.3875
3171.86151	2937.8875
3174.18631	2935.4875
3176.5097	2944.7875
3178.83169	2945.5875
3181.15228	2942.9875
3183.47147	2946.2875
3185.78926	2954.2875
3188.10565	2940.6875
3190.42065	2951.0875
3192.73424	2965.4875
3195.04645	2970.6875
3197.35725	2976.7875
3199.66667	2973.9875
3201.97469	2983.7875
3204.28132	2985.9875
3206.58656	2991.8875
3208.8904	3000.4875
3211.19287	3003.3875
3213.49394	3008.7875
3215.79363	3014.7875
3218.09193	3021.8875
3220.38884	3034.6875
3222.68438	3020.1875
3224.97853	3012.9875
3227.2713	3011.2875
3229.56269	3008.7875
3231.8527	3011.3875
3234.14133	3014.4875
3236.42858	3014.1875
3238.71446	3018.2875
3240.99896	3015.4875
3243.28209	3017.1875
3245.56384	3005.5875
3247.84423	3013.7875
3250.12324	3014.1875
3252.40088	3007.2875
3254.67715	3005.6875
3256.95205	2989.9875
3259.22558	2993.3875
3261.49775	3005.6875
3263.76855	2994.3875
3266.03799	2994.7875
3268.30606	2997.8875
3270.57277	2979.9875
3272.83812	2976.9875
3275.10211	2977.3875
3277.36474	2980.3875
3279.62601	2979.9875
3281.88593	2979.7875
3284.14448	2971.3875
3286.40168	2981.2875
3288.65753	2968.5875
3290.91202	2965.6875
3293.16516	2959.9875
3295.41695	2951.5875
3297.66738	2937.4875
3299.91647	2913.5875
3302.16421	2911.0875
3304.4106	2899.8875
3306.65564	2873.7875
3308.89933	2874.4875
3311.14169	2850.6875
3313.38269	2833.6875
3315.62236	2820.3875
3317.86068	2798.0875
3320.09766	2775.0875
3322.3333	2748.3875
3324.5676	2762.6875
3326.80056	2709.9875
3329.03219	2707.8875
3331.26248	0.4875
3333.49143	1.2875
3335.71905	-0.0125
