Data from AgNPs_FTO_APTES_UA_0.1mM_CRN_50uM_NaF_0.1M_Addition_RamanShift__19__12-58-47-646.txt Node

Date: Mon Dec 20 12:58:47 GMT 2021
User: TCL
Spectrometer: QEP01345
Trigger mode: 4
Integration Time (sec): 7.000000E0
Scans to average: 10
Electric dark correction enabled: true
Nonlinearity correction enabled: false
Boxcar width: 0
XAxis mode: Raman Shifts
Number of Pixels in Spectrum: 1044
>>>>>Begin Spectral Data<<<<<
46.04893	0.2125
50.45542	-1.1875
54.85868	-2.5875
59.25871	1.7125
63.6555	27.8125
68.04907	33.2125
72.43941	34.5125
76.82654	35.8125
81.21044	36.7125
85.59113	42.1125
89.96862	38.3125
94.34289	43.9125
98.71396	46.3125
103.08183	45.6125
107.4465	45.0125
111.80798	48.9125
116.16626	49.6125
120.52136	49.5125
124.87327	50.9125
129.222	51.6125
133.56755	53.1125
137.90993	59.9125
142.24913	64.0125
146.58517	65.0125
150.91804	80.8125
155.24774	94.0125
159.57429	109.5125
163.89768	138.4125
168.21792	176.6125
172.53501	239.5125
176.84895	322.2125
181.15975	449.3125
185.46741	623.8125
189.77193	868.9125
194.07331	1159.7125
198.37157	1504.2125
202.6667	1881.9125
206.9587	2271.8125
211.24758	2626.3125
215.53334	3009.4125
219.81599	3388.3125
224.09553	3815.2125
228.37195	4260.7125
232.64527	4744.7125
236.91549	5229.0125
241.18261	5719.5125
245.44663	6162.4125
249.70755	6557.0125
253.96539	6872.0125
258.22014	7137.2125
262.4718	7323.1125
266.72039	7422.6125
270.96589	7428.9125
275.20832	7382.2125
279.44768	7277.4125
283.68397	7118.0125
287.91719	7008.3125
292.14735	6923.5125
296.37445	6835.5125
300.59849	6824.2125
304.81948	6799.6125
309.03742	6789.8125
313.25231	6724.7125
317.46415	6612.0125
321.67296	6493.7125
325.87872	6396.7125
330.08145	6325.9125
334.28114	6330.3125
338.47781	6372.4125
342.67145	6432.5125
346.86207	6499.4125
351.04966	6596.4125
355.23424	6724.8125
359.4158	6829.6125
363.59435	6910.5125
367.76989	6991.4125
371.94243	7075.1125
376.11196	7114.9125
380.27849	7178.9125
384.44203	7234.8125
388.60257	7300.6125
392.76012	7325.1125
396.91468	7403.0125
401.06626	7467.2125
405.21485	7540.1125
409.36047	7520.5125
413.50311	7454.8125
417.64277	7399.9125
421.77947	7368.8125
425.9132	7352.1125
430.04396	7365.0125
434.17176	7389.3125
438.2966	7454.0125
442.41849	7507.4125
446.53742	7592.3125
450.6534	7666.2125
454.76644	7744.9125
458.87653	7796.3125
462.98368	7824.1125
467.08789	7817.4125
471.18916	7804.0125
475.2875	7807.6125
479.38291	7858.0125
483.4754	7905.2125
487.56496	7980.8125
491.6516	8062.7125
495.73531	8100.0125
499.81612	8120.0125
503.89401	8091.2125
507.96899	8025.6125
512.04106	7984.5125
516.11023	7965.8125
520.1765	7954.6125
524.23987	7962.5125
528.30034	7972.8125
532.35792	7948.6125
536.41261	7907.6125
540.46441	7839.9125
544.51333	7776.6125
548.55936	7730.9125
552.60252	7753.0125
556.64279	7768.9125
560.6802	7783.3125
564.71473	7814.7125
568.7464	7881.2125
572.7752	7948.0125
576.80114	7966.8125
580.82422	7984.4125
584.84444	8061.5125
588.86181	8150.5125
592.87633	8182.9125
596.888	8191.3125
600.89682	8196.4125
604.9028	8327.4125
608.90594	8760.5125
612.90624	9460.4125
616.90371	9446.2125
620.89834	8773.8125
624.89015	8582.0125
628.87913	8860.2125
632.86528	9246.5125
636.84862	9537.0125
640.82913	9527.3125
644.80683	9252.5125
648.78172	8890.4125
652.75379	8602.8125
656.72306	8443.9125
660.68952	8387.5125
664.65319	8333.2125
668.61405	8281.5125
672.57211	8298.6125
676.52738	8380.6125
680.47986	8421.5125
684.42955	8454.2125
688.37646	8398.4125
692.32058	8344.0125
696.26192	8246.3125
700.20048	8182.0125
704.13626	8089.6125
708.06928	8023.6125
711.99952	7918.0125
715.927	7905.5125
719.85171	7876.6125
723.77365	7868.4125
727.69284	7860.7125
731.60928	7832.2125
735.52295	7765.9125
739.43388	7718.9125
743.34206	7736.3125
747.24749	7742.9125
751.15017	7746.6125
755.05012	7752.2125
758.94733	7836.6125
762.8418	8013.2125
766.73354	8297.4125
770.62254	8592.9125
774.50882	8756.7125
778.39237	8614.5125
782.27321	8242.8125
786.15132	7939.8125
790.02671	7762.4125
793.89938	7677.1125
797.76935	7676.3125
801.6366	7736.5125
805.50115	7834.4125
809.36299	7982.6125
813.22213	8045.5125
817.07857	7981.9125
820.93231	7814.3125
824.78336	7639.8125
828.63172	7497.3125
832.47738	7419.5125
836.32036	7349.0125
840.16066	7326.9125
843.99827	7315.7125
847.8332	7300.2125
851.66546	7287.4125
855.49504	7283.4125
859.32195	7292.9125
863.1462	7327.4125
866.96777	7350.5125
870.78668	7427.1125
874.60293	7504.8125
878.41652	7586.5125
882.22745	7703.4125
886.03573	7768.6125
889.84136	7765.8125
893.64433	7683.4125
897.44466	7552.8125
901.24235	7383.5125
905.0374	7259.1125
908.8298	7188.9125
912.61957	7132.1125
916.40671	7099.9125
920.19121	7111.1125
923.97308	7113.5125
927.75233	7097.2125
931.52895	7066.5125
935.30295	7072.3125
939.07433	7007.5125
942.84309	6926.9125
946.60924	6921.1125
950.37278	6914.5125
954.13371	6880.9125
957.89203	6858.4125
961.64774	6855.8125
965.40086	6828.5125
969.15137	6780.8125
972.89929	6753.9125
976.64461	6735.2125
980.38733	6724.3125
984.12747	6734.5125
987.86502	6748.4125
991.59999	6782.0125
995.33237	6793.1125
999.06217	6855.9125
1002.78939	6945.6125
1006.51404	6992.8125
1010.23611	7067.4125
1013.95561	7131.7125
1017.67255	7126.7125
1021.38692	7103.5125
1025.09872	7055.1125
1028.80796	6977.7125
1032.51465	6952.7125
1036.21877	6888.9125
1039.92035	6854.6125
1043.61937	6859.6125
1047.31584	6851.0125
1051.00976	6847.4125
1054.70114	6851.4125
1058.38998	6899.7125
1062.07627	6941.4125
1065.76003	6994.5125
1069.44126	7036.8125
1073.11995	7084.3125
1076.79611	7131.1125
1080.46974	7115.7125
1084.14085	7081.1125
1087.80943	7060.0125
1091.47549	7028.0125
1095.13903	6959.4125
1098.80005	6927.6125
1102.45857	6872.9125
1106.11456	6851.8125
1109.76805	6869.1125
1113.41903	6952.4125
1117.06751	7096.3125
1120.71348	7344.8125
1124.35696	7686.2125
1127.99793	8065.8125
1131.63641	8432.4125
1135.2724	8607.5125
1138.90589	8562.8125
1142.5369	8374.6125
1146.16542	8105.3125
1149.79145	7777.8125
1153.415	7467.2125
1157.03607	7264.7125
1160.65467	7158.4125
1164.27079	7137.1125
1167.88443	7193.4125
1171.49561	7312.2125
1175.10432	7528.4125
1178.71056	7864.7125
1182.31434	8162.7125
1185.91565	8315.0125
1189.51451	8316.9125
1193.11091	8241.0125
1196.70485	8203.2125
1200.29634	8159.3125
1203.88538	8116.9125
1207.47197	8019.1125
1211.05612	7837.8125
1214.63782	7679.8125
1218.21708	7504.6125
1221.79391	7369.7125
1225.36829	7236.5125
1228.94024	7169.7125
1232.50976	7127.4125
1236.07685	7062.7125
1239.6415	7058.6125
1243.20374	7079.2125
1246.76355	7112.2125
1250.32093	7175.4125
1253.8759	7197.7125
1257.42845	7256.2125
1260.97859	7337.1125
1264.52631	7385.4125
1268.07163	7475.4125
1271.61453	7518.3125
1275.15503	7579.7125
1278.69312	7613.5125
1282.22882	7647.5125
1285.76211	7702.7125
1289.29301	7795.8125
1292.82151	7947.2125
1296.34761	8118.0125
1299.87133	8305.8125
1303.39266	8598.0125
1306.9116	8915.0125
1310.42815	9291.0125
1313.94233	9484.0125
1317.45412	9493.3125
1320.96354	9382.2125
1324.47058	9221.6125
1327.97525	9037.7125
1331.47754	8938.2125
1334.97747	8869.2125
1338.47502	8927.4125
1341.97022	9011.2125
1345.46305	9108.5125
1348.95352	9278.1125
1352.44163	9483.3125
1355.92738	9775.7125
1359.41078	10201.9125
1362.89183	10629.9125
1366.37053	10603.2125
1369.84688	9968.3125
1373.32088	9237.9125
1376.79254	8715.9125
1380.26186	8430.3125
1383.72883	8299.4125
1387.19347	8217.1125
1390.65578	8102.9125
1394.11575	7985.9125
1397.57339	7898.6125
1401.0287	7833.7125
1404.48168	7778.5125
1407.93234	7701.4125
1411.38068	7593.7125
1414.82669	7426.0125
1418.27039	7268.6125
1421.71177	7134.2125
1425.15083	6970.8125
1428.58758	6871.4125
1432.02203	6809.7125
1435.45416	6803.2125
1438.88399	6826.4125
1442.31151	6840.3125
1445.73673	6849.5125
1449.15965	6880.2125
1452.58027	6915.1125
1455.9986	6929.3125
1459.41463	6963.5125
1462.82837	7017.1125
1466.23982	7066.6125
1469.64898	7164.8125
1473.05586	7187.4125
1476.46045	7210.8125
1479.86276	7213.6125
1483.26279	7219.8125
1486.66054	7216.8125
1490.05602	7271.3125
1493.44922	7355.1125
1496.84016	7488.5125
1500.22882	7727.0125
1503.61521	8045.3125
1506.99934	8429.2125
1510.38121	8776.8125
1513.76081	8880.3125
1517.13816	8657.2125
1520.51324	8266.4125
1523.88607	7853.5125
1527.25665	7622.5125
1530.62498	7517.4125
1533.99105	7449.5125
1537.35488	7445.2125
1540.71647	7440.5125
1544.07581	7441.8125
1547.4329	7425.7125
1550.78776	7443.2125
1554.14038	7447.2125
1557.49077	7496.1125
1560.83892	7525.9125
1564.18484	7579.8125
1567.52853	7652.7125
1570.86999	7734.1125
1574.20922	7795.9125
1577.54624	7836.7125
1580.88103	7772.2125
1584.2136	7649.4125
1587.54395	7565.5125
1590.87208	7573.3125
1594.19801	7697.7125
1597.52172	7849.1125
1600.84321	7938.0125
1604.16251	7867.6125
1607.47959	7651.6125
1610.79447	7486.6125
1614.10715	7324.5125
1617.41763	7162.7125
1620.7259	7043.5125
1624.03199	6980.7125
1627.33587	6998.8125
1630.63757	7063.6125
1633.93707	7192.0125
1637.23439	7441.2125
1640.52951	7773.1125
1643.82246	8191.7125
1647.11321	8598.6125
1650.40179	8866.9125
1653.68819	8778.5125
1656.97241	8329.3125
1660.25446	7786.5125
1663.53433	7390.1125
1666.81203	7151.8125
1670.08756	6992.3125
1673.36092	6882.7125
1676.63211	6811.3125
1679.90115	6746.9125
1683.16801	6658.5125
1686.43272	6553.7125
1689.69527	6428.6125
1692.95567	6289.4125
1696.2139	6171.9125
1699.46999	6041.0125
1702.72392	5951.7125
1705.97571	5840.8125
1709.22535	5743.2125
1712.47284	5691.9125
1715.71819	5621.3125
1718.96139	5575.1125
1722.20246	5520.7125
1725.44139	5499.9125
1728.67818	5424.2125
1731.91284	5362.3125
1735.14537	5321.3125
1738.37576	5283.0125
1741.60403	5243.7125
1744.83017	5196.2125
1748.05418	5179.5125
1751.27607	5178.0125
1754.49584	5185.0125
1757.71349	5182.6125
1760.92903	5154.2125
1764.14244	5131.1125
1767.35375	5092.1125
1770.56294	5078.2125
1773.77002	5049.0125
1776.97499	5022.7125
1780.17785	4985.6125
1783.37861	4950.0125
1786.57727	4936.6125
1789.77382	4919.3125
1792.96828	4882.2125
1796.16064	4859.8125
1799.3509	4838.6125
1802.53907	4811.2125
1805.72514	4802.5125
1808.90913	4785.8125
1812.09102	4773.8125
1815.27083	4770.9125
1818.44856	4743.4125
1821.6242	4732.8125
1824.79776	4717.8125
1827.96924	4709.6125
1831.13864	4698.2125
1834.30597	4695.3125
1837.47122	4682.8125
1840.6344	4677.7125
1843.7955	4670.8125
1846.95454	4667.7125
1850.11151	4666.0125
1853.26642	4667.8125
1856.41926	4651.4125
1859.57004	4640.7125
1862.71876	4636.5125
1865.86542	4642.2125
1869.01003	4632.5125
1872.15258	4607.9125
1875.29308	4617.8125
1878.43152	4596.4125
1881.56792	4592.8125
1884.70227	4583.2125
1887.83457	4555.0125
1890.96482	4574.9125
1894.09304	4555.0125
1897.21921	4549.7125
1900.34335	4543.7125
1903.46544	4531.8125
1906.58551	4543.2125
1909.70353	4530.8125
1912.81953	4533.1125
1915.93349	4509.1125
1919.04543	4488.6125
1922.15534	4493.6125
1925.26322	4489.3125
1928.36908	4478.9125
1931.47292	4464.2125
1934.57473	4457.9125
1937.67453	4432.7125
1940.77232	4423.1125
1943.86808	4421.0125
1946.96184	4406.6125
1950.05358	4389.2125
1953.14331	4381.9125
1956.23103	4347.7125
1959.31675	4343.1125
1962.40046	4329.3125
1965.48217	4326.5125
1968.56188	4311.0125
1971.63959	4279.1125
1974.7153	4256.3125
1977.78901	4261.8125
1980.86073	4246.9125
1983.93046	4256.6125
1986.99819	4221.8125
1990.06394	4202.5125
1993.1277	4209.4125
1996.18947	4172.6125
1999.24925	4181.9125
2002.30706	4168.4125
2005.36288	4155.4125
2008.41672	4126.4125
2011.46859	4121.7125
2014.51848	4104.4125
2017.56639	4100.5125
2020.61233	4088.9125
2023.6563	4079.6125
2026.6983	4047.6125
2029.73833	4052.2125
2032.7764	4039.6125
2035.8125	4033.9125
2038.84664	4025.8125
2041.87881	4020.9125
2044.90903	4012.2125
2047.93729	3990.7125
2050.96359	4007.2125
2053.98794	3980.4125
2057.01034	3969.8125
2060.03078	3983.0125
2063.04927	3961.3125
2066.06582	3971.1125
2069.08042	3959.9125
2072.09307	3949.2125
2075.10378	3955.4125
2078.11255	3953.5125
2081.11938	3951.8125
2084.12426	3948.6125
2087.12722	3951.1125
2090.12824	3950.7125
2093.12732	3953.8125
2096.12447	3949.1125
2099.11969	3954.2125
2102.11299	3947.2125
2105.10435	3934.0125
2108.09379	3937.2125
2111.08131	3943.3125
2114.0669	3945.2125
2117.05057	3949.0125
2120.03233	3956.0125
2123.01216	3954.7125
2125.99008	3959.2125
2128.96609	3954.5125
2131.94018	3961.5125
2134.91236	3965.3125
2137.88263	3965.8125
2140.851	3974.1125
2143.81746	3969.7125
2146.78201	3973.5125
2149.74466	3977.4125
2152.7054	3970.2125
2155.66425	3964.4125
2158.6212	3967.2125
2161.57625	3948.6125
2164.52941	3968.0125
2167.48067	3952.3125
2170.43004	3958.8125
2173.37752	3953.8125
2176.32311	3948.0125
2179.26681	3947.2125
2182.20863	3936.7125
2185.14856	3934.7125
2188.08661	3942.3125
2191.02278	3933.0125
2193.95707	3934.3125
2196.88948	3929.7125
2199.82001	3931.1125
2202.74867	3915.3125
2205.67545	3901.9125
2208.60037	3898.2125
2211.52341	3887.8125
2214.44458	3884.1125
2217.36388	3890.0125
2220.28132	3873.3125
2223.1969	3854.9125
2226.11061	3846.0125
2229.02246	3841.0125
2231.93245	3841.7125
2234.84058	3821.7125
2237.74686	3813.9125
2240.65128	3825.5125
2243.55385	3807.7125
2246.45456	3801.0125
2249.35343	3797.0125
2252.25044	3801.2125
2255.14561	3778.9125
2258.03893	3785.2125
2260.93041	3784.2125
2263.82004	3760.8125
2266.70783	3765.3125
2269.59378	3754.9125
2272.4779	3746.9125
2275.36017	3725.4125
2278.24061	3735.4125
2281.11922	3716.3125
2283.996	3709.5125
2286.87094	3693.6125
2289.74405	3691.0125
2292.61534	3679.5125
2295.4848	3674.4125
2298.35243	3666.9125
2301.21824	3661.0125
2304.08223	3676.7125
2306.94439	3661.3125
2309.80474	3653.1125
2312.66327	3655.2125
2315.51999	3651.2125
2318.37489	3644.8125
2321.22797	3627.0125
2324.07925	3636.2125
2326.92871	3642.4125
2329.77637	3623.7125
2332.62222	3628.9125
2335.46626	3599.3125
2338.3085	3607.9125
2341.14893	3601.0125
2343.98756	3600.3125
2346.8244	3600.1125
2349.65943	3584.4125
2352.49267	3591.4125
2355.32411	3587.3125
2358.15376	3582.8125
2360.98161	3589.3125
2363.80768	3567.5125
2366.63195	3576.3125
2369.45444	3576.7125
2372.27514	3570.8125
2375.09405	3562.2125
2377.91118	3546.2125
2380.72652	3546.2125
2383.54009	3546.0125
2386.35187	3542.6125
2389.16188	3519.2125
2391.97011	3519.6125
2394.77657	3510.1125
2397.58125	3509.7125
2400.38416	3494.3125
2403.18529	3497.1125
2405.98466	3484.5125
2408.78226	3468.4125
2411.57809	3482.5125
2414.37216	3469.2125
2417.16446	3474.0125
2419.955	3454.7125
2422.74378	3455.7125
2425.5308	3444.2125
2428.31606	3439.7125
2431.09956	3425.3125
2433.88131	3439.1125
2436.6613	3424.3125
2439.43954	3430.5125
2442.21603	3426.8125
2444.99077	3410.2125
2447.76377	3429.1125
2450.53501	3420.2125
2453.30451	3431.1125
2456.07226	3412.7125
2458.83827	3401.0125
2461.60254	3414.9125
2464.36507	3398.8125
2467.12586	3393.4125
2469.88492	3387.4125
2472.64224	3389.4125
2475.39782	3397.6125
2478.15167	3391.4125
2480.90379	3385.2125
2483.65417	3373.8125
2486.40283	3383.3125
2489.14976	3379.9125
2491.89497	3365.1125
2494.63845	3374.6125
2497.3802	3362.8125
2500.12024	3350.2125
2502.85855	3354.4125
2505.59514	3349.9125
2508.33002	3341.2125
2511.06318	3342.9125
2513.79462	3350.4125
2516.52435	3325.3125
2519.25237	3330.5125
2521.97867	3321.2125
2524.70327	3318.2125
2527.42616	3319.6125
2530.14734	3316.5125
2532.86681	3308.0125
2535.58458	3292.6125
2538.30065	3286.8125
2541.01501	3299.7125
2543.72768	3281.4125
2546.43864	3271.0125
2549.14791	3263.0125
2551.85548	3261.2125
2554.56136	3251.3125
2557.26554	3252.0125
2559.96803	3254.8125
2562.66883	3245.0125
2565.36794	3236.4125
2568.06536	3239.8125
2570.7611	3234.4125
2573.45514	3233.3125
2576.14751	3225.0125
2578.83819	3198.3125
2581.52719	3199.1125
2584.21451	3206.2125
2586.90015	3204.4125
2589.58411	3192.8125
2592.2664	3178.2125
2594.94701	3182.8125
2597.62594	3168.4125
2600.30321	3155.6125
2602.9788	3149.4125
2605.65273	3152.3125
2608.32498	3141.7125
2610.99557	3146.1125
2613.66449	3137.3125
2616.33175	3148.2125
2618.99734	3133.5125
2621.66128	3123.2125
2624.32355	3123.9125
2626.98416	3126.3125
2629.64311	3120.8125
2632.30041	3119.9125
2634.95605	3120.1125
2637.61004	3097.0125
2640.26238	3096.4125
2642.91306	3091.6125
2645.56209	3104.4125
2648.20948	3102.9125
2650.85521	3094.5125
2653.4993	3092.9125
2656.14175	3085.7125
2658.78255	3081.6125
2661.42171	3083.0125
2664.05923	3092.6125
2666.6951	3081.6125
2669.32934	3093.5125
2671.96194	3090.9125
2674.59291	3073.6125
2677.22224	3076.6125
2679.84993	3085.5125
2682.476	3080.0125
2685.10043	3088.6125
2687.72324	3080.9125
2690.34441	3076.4125
2692.96396	3079.8125
2695.58188	3084.4125
2698.19818	3071.6125
2700.81285	3086.0125
2703.4259	3090.8125
2706.03733	3115.2125
2708.64714	3098.6125
2711.25533	3092.8125
2713.86191	3101.1125
2716.46687	3090.1125
2719.07021	3086.9125
2721.67194	3096.2125
2724.27206	3087.4125
2726.87057	3088.2125
2729.46747	3088.1125
2732.06276	3086.9125
2734.65644	3077.0125
2737.24852	3077.0125
2739.83899	3086.7125
2742.42786	3067.7125
2745.01513	3057.4125
2747.60079	3070.4125
2750.18486	3056.0125
2752.76733	3048.8125
2755.3482	3040.9125
2757.92747	3045.8125
2760.50515	3045.8125
2763.08123	3047.7125
2765.65573	3040.6125
2768.22863	3044.0125
2770.79994	3038.4125
2773.36967	3040.7125
2775.9378	3024.9125
2778.50435	3013.1125
2781.06932	3012.2125
2783.6327	3011.4125
2786.1945	3012.7125
2788.75471	3002.7125
2791.31335	2998.6125
2793.87041	2985.5125
2796.42589	2988.7125
2798.97979	2980.1125
2801.53212	2974.5125
2804.08288	2973.9125
2806.63206	2966.7125
2809.17967	2954.4125
2811.72571	2941.9125
2814.27018	2966.2125
2816.81308	2946.6125
2819.35442	2936.2125
2821.89419	2941.0125
2824.43239	2945.7125
2826.96904	2935.3125
2829.50412	2933.7125
2832.03763	2922.9125
2834.56959	2924.9125
2837.1	2922.4125
2839.62884	2915.6125
2842.15613	2926.1125
2844.68186	2934.5125
2847.20604	2924.1125
2849.72867	2937.9125
2852.24974	2931.0125
2854.76927	2925.6125
2857.28724	2918.6125
2859.80367	2913.2125
2862.31855	2929.4125
2864.83189	2911.1125
2867.34368	2912.8125
2869.85393	2910.1125
2872.36264	2913.4125
2874.8698	2921.5125
2877.37543	2915.5125
2879.87952	2913.0125
2882.38207	2916.7125
2884.88308	2924.2125
2887.38256	2920.1125
2889.88051	2927.8125
2892.37692	2925.9125
2894.8718	2923.1125
2897.36515	2915.3125
2899.85698	2925.6125
2902.34727	2939.1125
2904.83604	2928.2125
2907.32328	2942.1125
2909.809	2948.9125
2912.29319	2936.2125
2914.77587	2945.1125
2917.25702	2952.5125
2919.73665	2942.6125
2922.21476	2944.5125
2924.69136	2949.7125
2927.16644	2949.6125
2929.64	2954.1125
2932.11205	2959.6125
2934.58258	2950.1125
2937.05161	2956.0125
2939.51912	2950.5125
2941.98513	2943.3125
2944.44962	2939.1125
2946.91261	2940.6125
2949.37409	2942.6125
2951.83407	2940.4125
2954.29254	2943.4125
2956.74951	2946.8125
2959.20498	2927.9125
2961.65895	2934.7125
2964.11142	2926.3125
2966.56239	2922.7125
2969.01186	2912.4125
2971.45984	2895.1125
2973.90632	2902.9125
2976.35131	2878.0125
2978.7948	2885.1125
2981.23681	2874.5125
2983.67732	2871.0125
2986.11635	2869.1125
2988.55388	2865.6125
2990.98993	2858.7125
2993.4245	2840.2125
2995.85758	2840.5125
2998.28917	2859.1125
3000.71928	2839.7125
3003.14791	2844.7125
3005.57506	2838.4125
3008.00073	2836.9125
3010.42493	2835.3125
3012.84764	2837.4125
3015.26888	2836.8125
3017.68865	2828.7125
3020.10694	2828.3125
3022.52376	2807.1125
3024.9391	2824.1125
3027.35298	2817.7125
3029.76539	2826.9125
3032.17632	2815.7125
3034.5858	2810.2125
3036.9938	2816.9125
3039.40034	2808.6125
3041.80542	2802.5125
3044.20903	2806.9125
3046.61118	2805.7125
3049.01187	2794.4125
3051.4111	2807.7125
3053.80888	2791.7125
3056.20519	2801.1125
3058.60005	2784.1125
3060.99345	2790.9125
3063.3854	2795.6125
3065.7759	2785.6125
3068.16494	2782.3125
3070.55254	2775.7125
3072.93868	2782.0125
3075.32338	2781.3125
3077.70662	2773.3125
3080.08842	2780.3125
3082.46878	2777.0125
3084.84769	2784.5125
3087.22515	2787.0125
3089.60118	2800.1125
3091.97576	2798.7125
3094.3489	2793.5125
3096.72061	2803.8125
3099.09087	2807.6125
3101.4597	2809.2125
3103.82709	2801.8125
3106.19305	2816.0125
3108.55757	2814.2125
3110.92066	2811.6125
3113.28232	2822.8125
3115.64255	2809.0125
3118.00134	2808.9125
3120.35871	2807.8125
3122.71466	2810.0125
3125.06917	2800.7125
3127.42226	2806.1125
3129.77393	2828.3125
3132.12417	2823.2125
3134.47299	2838.3125
3136.82039	2826.4125
3139.16636	2823.4125
3141.51092	2843.7125
3143.85406	2852.2125
3146.19579	2857.1125
3148.53609	2860.2125
3150.87499	2873.8125
3153.21246	2894.8125
3155.54853	2894.7125
3157.88318	2893.0125
3160.21642	2900.2125
3162.54826	2910.3125
3164.87868	2915.8125
3167.2077	2917.7125
3169.5353	2931.2125
3171.86151	2920.2125
3174.18631	2930.3125
3176.5097	2920.2125
3178.83169	2924.1125
3181.15228	2929.5125
3183.47147	2937.6125
3185.78926	2940.5125
3188.10565	2947.7125
3190.42065	2944.5125
3192.73424	2942.7125
3195.04645	2959.2125
3197.35725	2960.6125
3199.66667	2967.7125
3201.97469	2977.6125
3204.28132	2975.3125
3206.58656	2981.3125
3208.8904	2990.5125
3211.19287	2998.1125
3213.49394	3004.9125
3215.79363	2997.7125
3218.09193	3009.1125
3220.38884	3024.1125
3222.68438	3025.1125
3224.97853	3006.1125
3227.2713	3015.2125
3229.56269	3013.3125
3231.8527	3014.9125
3234.14133	3003.6125
3236.42858	2996.6125
3238.71446	2994.7125
3240.99896	2980.7125
3243.28209	2992.7125
3245.56384	3000.5125
3247.84423	2999.4125
3250.12324	3000.8125
3252.40088	2990.9125
3254.67715	2988.2125
3256.95205	2997.9125
3259.22558	2993.4125
3261.49775	2986.2125
3263.76855	2987.2125
3266.03799	2986.6125
3268.30606	2982.8125
3270.57277	2979.4125
3272.83812	2962.3125
3275.10211	2969.7125
3277.36474	2956.3125
3279.62601	2961.9125
3281.88593	2970.2125
3284.14448	2976.2125
3286.40168	2963.9125
3288.65753	2954.1125
3290.91202	2953.7125
3293.16516	2944.0125
3295.41695	2934.0125
3297.66738	2920.1125
3299.91647	2904.8125
3302.16421	2897.7125
3304.4106	2888.1125
3306.65564	2880.2125
3308.89933	2861.6125
3311.14169	2842.7125
3313.38269	2825.7125
3315.62236	2812.4125
3317.86068	2796.7125
3320.09766	2761.4125
3322.3333	2750.0125
3324.5676	2743.2125
3326.80056	2709.1125
3329.03219	2689.3125
3331.26248	0.7125
3333.49143	1.5125
3335.71905	-0.5875
