Data from AgNPs_FTO_APTES_UA_0.1mM_CRN_50uM_NaF_0.1M_Addition_RamanShift__28__13-09-17-658.txt Node

Date: Mon Dec 20 13:09:17 GMT 2021
User: TCL
Spectrometer: QEP01345
Trigger mode: 4
Integration Time (sec): 7.000000E0
Scans to average: 10
Electric dark correction enabled: true
Nonlinearity correction enabled: false
Boxcar width: 0
XAxis mode: Raman Shifts
Number of Pixels in Spectrum: 1044
>>>>>Begin Spectral Data<<<<<
46.04893	1.025
50.45542	-0.175
54.85868	-0.675
59.25871	0.825
63.6555	30.125
68.04907	32.025
72.43941	34.125
76.82654	39.025
81.21044	38.425
85.59113	40.725
89.96862	41.125
94.34289	43.825
98.71396	45.225
103.08183	43.425
107.4465	46.125
111.80798	47.625
116.16626	46.025
120.52136	49.625
124.87327	54.125
129.222	52.725
133.56755	59.525
137.90993	61.925
142.24913	64.025
146.58517	65.725
150.91804	80.625
155.24774	92.025
159.57429	109.625
163.89768	140.625
168.21792	182.925
172.53501	238.725
176.84895	322.825
181.15975	448.125
185.46741	618.525
189.77193	861.425
194.07331	1156.425
198.37157	1498.925
202.6667	1871.325
206.9587	2237.925
211.24758	2601.525
215.53334	2948.125
219.81599	3320.225
224.09553	3720.825
228.37195	4127.525
232.64527	4596.025
236.91549	5057.425
241.18261	5489.325
245.44663	5898.325
249.70755	6271.825
253.96539	6574.525
258.22014	6830.125
262.4718	7021.525
266.72039	7121.525
270.96589	7157.125
275.20832	7112.325
279.44768	7025.625
283.68397	6941.225
287.91719	6840.225
292.14735	6775.325
296.37445	6779.825
300.59849	6844.425
304.81948	6924.425
309.03742	6988.825
313.25231	6932.625
317.46415	6789.725
321.67296	6529.725
325.87872	6299.825
330.08145	6189.225
334.28114	6178.625
338.47781	6208.925
342.67145	6288.325
346.86207	6415.225
351.04966	6579.325
355.23424	6845.025
359.4158	7002.125
363.59435	7123.425
367.76989	7202.225
371.94243	7238.025
376.11196	7299.525
380.27849	7318.525
384.44203	7366.325
388.60257	7384.325
392.76012	7398.825
396.91468	7479.025
401.06626	7560.425
405.21485	7649.125
409.36047	7586.825
413.50311	7394.325
417.64277	7230.325
421.77947	7116.425
425.9132	7085.325
430.04396	7087.325
434.17176	7091.525
438.2966	7156.025
442.41849	7254.825
446.53742	7357.125
450.6534	7474.825
454.76644	7534.225
458.87653	7558.925
462.98368	7567.325
467.08789	7520.425
471.18916	7501.825
475.2875	7496.325
479.38291	7504.525
483.4754	7583.825
487.56496	7703.225
491.6516	7849.025
495.73531	7916.925
499.81612	7837.125
503.89401	7721.525
507.96899	7634.825
512.04106	7625.325
516.11023	7681.725
520.1765	7787.025
524.23987	7872.925
528.30034	7917.625
532.35792	7882.825
536.41261	7773.525
540.46441	7601.325
544.51333	7459.625
548.55936	7366.125
552.60252	7337.725
556.64279	7401.125
560.6802	7448.125
564.71473	7492.725
568.7464	7640.525
572.7752	7741.225
576.80114	7657.925
580.82422	7610.325
584.84444	7670.825
588.86181	7767.525
592.87633	7850.625
596.888	7881.325
600.89682	7908.925
604.9028	8206.525
608.90594	9141.225
612.90624	10526.725
616.90371	10661.625
620.89834	9454.825
624.89015	9156.725
628.87913	9641.425
632.86528	10222.325
636.84862	10546.525
640.82913	10306.225
644.80683	9649.125
648.78172	8914.325
652.75379	8415.725
656.72306	8152.025
660.68952	8079.825
664.65319	7966.825
668.61405	7800.525
672.57211	7702.225
676.52738	7707.825
680.47986	7708.625
684.42955	7676.825
688.37646	7643.725
692.32058	7626.625
696.26192	7604.325
700.20048	7569.825
704.13626	7550.425
708.06928	7470.325
711.99952	7419.825
715.927	7399.425
719.85171	7443.425
723.77365	7516.825
727.69284	7525.025
731.60928	7429.625
735.52295	7325.625
739.43388	7271.125
743.34206	7254.925
747.24749	7282.225
751.15017	7309.425
755.05012	7350.825
758.94733	7468.425
762.8418	7783.625
766.73354	8324.525
770.62254	8848.225
774.50882	9120.925
778.39237	8921.125
782.27321	8329.825
786.15132	7803.225
790.02671	7485.925
793.89938	7419.325
797.76935	7446.025
801.6366	7617.725
805.50115	7931.525
809.36299	8325.025
813.22213	8478.925
817.07857	8321.425
820.93231	7966.825
824.78336	7555.425
828.63172	7268.425
832.47738	7122.425
836.32036	7052.925
840.16066	6992.625
843.99827	6959.025
847.8332	6911.825
851.66546	6917.825
855.49504	6911.225
859.32195	6925.825
863.1462	6948.025
866.96777	7035.325
870.78668	7186.925
874.60293	7386.725
878.41652	7655.325
882.22745	7886.925
886.03573	8059.625
889.84136	8036.425
893.64433	7812.325
897.44466	7501.225
901.24235	7172.225
905.0374	6919.825
908.8298	6766.225
912.61957	6674.525
916.40671	6641.125
920.19121	6616.325
923.97308	6593.625
927.75233	6611.225
931.52895	6609.025
935.30295	6584.325
939.07433	6518.125
942.84309	6471.425
946.60924	6422.125
950.37278	6426.625
954.13371	6406.425
957.89203	6385.525
961.64774	6363.525
965.40086	6328.425
969.15137	6316.825
972.89929	6261.525
976.64461	6249.225
980.38733	6243.925
984.12747	6238.225
987.86502	6271.725
991.59999	6342.025
995.33237	6390.925
999.06217	6508.825
1002.78939	6681.625
1006.51404	6859.325
1010.23611	7017.625
1013.95561	7131.125
1017.67255	7155.025
1021.38692	7100.625
1025.09872	6949.525
1028.80796	6783.425
1032.51465	6644.625
1036.21877	6550.225
1039.92035	6478.225
1043.61937	6447.025
1047.31584	6430.525
1051.00976	6440.225
1054.70114	6459.225
1058.38998	6506.125
1062.07627	6572.225
1065.76003	6662.125
1069.44126	6732.425
1073.11995	6781.325
1076.79611	6777.725
1080.46974	6747.225
1084.14085	6727.025
1087.80943	6703.025
1091.47549	6658.225
1095.13903	6569.125
1098.80005	6479.525
1102.45857	6393.525
1106.11456	6392.525
1109.76805	6450.825
1113.41903	6594.525
1117.06751	6811.725
1120.71348	7185.125
1124.35696	7694.125
1127.99793	8308.925
1131.63641	8809.225
1135.2724	9052.625
1138.90589	9047.925
1142.5369	8745.925
1146.16542	8269.925
1149.79145	7738.725
1153.415	7279.725
1157.03607	6954.325
1160.65467	6755.125
1164.27079	6710.525
1167.88443	6808.225
1171.49561	7006.325
1175.10432	7363.325
1178.71056	7923.325
1182.31434	8406.025
1185.91565	8679.225
1189.51451	8699.825
1193.11091	8739.225
1196.70485	8810.025
1200.29634	8903.425
1203.88538	8920.525
1207.47197	8733.125
1211.05612	8346.825
1214.63782	7919.025
1218.21708	7559.825
1221.79391	7243.825
1225.36829	7016.225
1228.94024	6867.325
1232.50976	6751.625
1236.07685	6678.025
1239.6415	6680.725
1243.20374	6688.025
1246.76355	6749.925
1250.32093	6790.225
1253.8759	6842.225
1257.42845	6916.925
1260.97859	7022.125
1264.52631	7110.625
1268.07163	7163.625
1271.61453	7197.325
1275.15503	7220.925
1278.69312	7250.425
1282.22882	7228.725
1285.76211	7328.425
1289.29301	7455.025
1292.82151	7637.325
1296.34761	7843.525
1299.87133	8136.425
1303.39266	8598.025
1306.9116	9206.025
1310.42815	9893.225
1313.94233	10270.925
1317.45412	10168.025
1320.96354	9815.225
1324.47058	9430.425
1327.97525	9145.925
1331.47754	8979.925
1334.97747	8999.525
1338.47502	9095.825
1341.97022	9271.425
1345.46305	9510.125
1348.95352	9826.125
1352.44163	10255.025
1355.92738	10797.825
1359.41078	11650.225
1362.89183	12431.725
1366.37053	12209.825
1369.84688	11006.225
1373.32088	9828.325
1376.79254	9041.125
1380.26186	8642.425
1383.72883	8403.525
1387.19347	8226.425
1390.65578	8050.425
1394.11575	7932.625
1397.57339	7876.925
1401.0287	7825.325
1404.48168	7799.825
1407.93234	7744.525
1411.38068	7612.225
1414.82669	7418.025
1418.27039	7196.625
1421.71177	6968.725
1425.15083	6754.425
1428.58758	6634.125
1432.02203	6571.925
1435.45416	6571.725
1438.88399	6591.825
1442.31151	6573.225
1445.73673	6625.625
1449.15965	6643.225
1452.58027	6659.925
1455.9986	6636.525
1459.41463	6633.425
1462.82837	6659.825
1466.23982	6753.225
1469.64898	6830.225
1473.05586	6894.325
1476.46045	6909.825
1479.86276	6958.025
1483.26279	7021.025
1486.66054	7115.825
1490.05602	7220.025
1493.44922	7426.725
1496.84016	7687.325
1500.22882	8109.125
1503.61521	8716.525
1506.99934	9438.925
1510.38121	10044.325
1513.76081	10170.025
1517.13816	9694.525
1520.51324	8883.925
1523.88607	8130.025
1527.25665	7642.325
1530.62498	7455.925
1533.99105	7379.525
1537.35488	7373.925
1540.71647	7403.225
1544.07581	7456.625
1547.4329	7494.625
1550.78776	7531.125
1554.14038	7554.325
1557.49077	7564.725
1560.83892	7615.725
1564.18484	7722.625
1567.52853	7781.225
1570.86999	7896.525
1574.20922	7979.225
1577.54624	7990.925
1580.88103	7876.025
1584.2136	7672.325
1587.54395	7566.625
1590.87208	7607.825
1594.19801	7800.825
1597.52172	8101.725
1600.84321	8268.825
1604.16251	8201.325
1607.47959	7994.425
1610.79447	7716.125
1614.10715	7476.725
1617.41763	7263.725
1620.7259	7145.125
1624.03199	7081.425
1627.33587	7068.025
1630.63757	7179.525
1633.93707	7308.925
1637.23439	7603.025
1640.52951	8017.525
1643.82246	8584.325
1647.11321	9271.725
1650.40179	9727.725
1653.68819	9577.025
1656.97241	8858.525
1660.25446	8056.125
1663.53433	7451.225
1666.81203	7041.425
1670.08756	6747.025
1673.36092	6536.925
1676.63211	6394.025
1679.90115	6305.225
1683.16801	6174.825
1686.43272	6076.125
1689.69527	5971.525
1692.95567	5892.225
1696.2139	5801.625
1699.46999	5722.525
1702.72392	5583.625
1705.97571	5470.725
1709.22535	5354.425
1712.47284	5273.825
1715.71819	5207.825
1718.96139	5151.925
1722.20246	5089.825
1725.44139	5045.625
1728.67818	4980.325
1731.91284	4916.525
1735.14537	4878.625
1738.37576	4839.725
1741.60403	4818.025
1744.83017	4795.525
1748.05418	4764.225
1751.27607	4769.125
1754.49584	4737.225
1757.71349	4753.125
1760.92903	4720.725
1764.14244	4687.225
1767.35375	4695.525
1770.56294	4662.625
1773.77002	4613.725
1776.97499	4593.225
1780.17785	4568.925
1783.37861	4531.925
1786.57727	4523.925
1789.77382	4500.125
1792.96828	4471.125
1796.16064	4455.225
1799.3509	4429.125
1802.53907	4434.625
1805.72514	4405.325
1808.90913	4388.225
1812.09102	4377.325
1815.27083	4368.425
1818.44856	4358.525
1821.6242	4338.825
1824.79776	4326.225
1827.96924	4319.025
1831.13864	4306.225
1834.30597	4307.625
1837.47122	4289.925
1840.6344	4271.225
1843.7955	4292.825
1846.95454	4281.925
1850.11151	4278.825
1853.26642	4280.225
1856.41926	4261.525
1859.57004	4245.625
1862.71876	4246.125
1865.86542	4233.325
1869.01003	4230.025
1872.15258	4229.225
1875.29308	4218.325
1878.43152	4219.025
1881.56792	4202.625
1884.70227	4199.425
1887.83457	4195.125
1890.96482	4195.225
1894.09304	4185.125
1897.21921	4162.625
1900.34335	4171.025
1903.46544	4160.625
1906.58551	4153.725
1909.70353	4146.625
1912.81953	4142.525
1915.93349	4117.225
1919.04543	4118.025
1922.15534	4120.525
1925.26322	4103.325
1928.36908	4084.625
1931.47292	4076.125
1934.57473	4068.425
1937.67453	4052.125
1940.77232	4042.025
1943.86808	4036.725
1946.96184	4025.725
1950.05358	4003.125
1953.14331	3990.725
1956.23103	3976.925
1959.31675	3960.225
1962.40046	3954.625
1965.48217	3934.825
1968.56188	3934.725
1971.63959	3926.225
1974.7153	3915.225
1977.78901	3900.825
1980.86073	3882.725
1983.93046	3862.125
1986.99819	3847.825
1990.06394	3834.025
1993.1277	3831.525
1996.18947	3817.925
1999.24925	3817.225
2002.30706	3793.325
2005.36288	3773.025
2008.41672	3760.825
2011.46859	3757.125
2014.51848	3728.425
2017.56639	3724.425
2020.61233	3720.725
2023.6563	3707.225
2026.6983	3693.025
2029.73833	3670.525
2032.7764	3689.025
2035.8125	3682.325
2038.84664	3666.025
2041.87881	3665.625
2044.90903	3651.925
2047.93729	3654.925
2050.96359	3642.825
2053.98794	3635.425
2057.01034	3628.825
2060.03078	3619.625
2063.04927	3615.325
2066.06582	3610.925
2069.08042	3595.125
2072.09307	3599.625
2075.10378	3608.025
2078.11255	3596.225
2081.11938	3596.425
2084.12426	3594.425
2087.12722	3581.325
2090.12824	3601.225
2093.12732	3582.425
2096.12447	3594.225
2099.11969	3577.725
2102.11299	3578.125
2105.10435	3576.125
2108.09379	3573.325
2111.08131	3576.025
2114.0669	3598.025
2117.05057	3578.525
2120.03233	3590.225
2123.01216	3591.825
2125.99008	3585.425
2128.96609	3581.525
2131.94018	3588.325
2134.91236	3592.725
2137.88263	3585.325
2140.851	3588.225
2143.81746	3588.125
2146.78201	3587.825
2149.74466	3594.625
2152.7054	3580.025
2155.66425	3588.525
2158.6212	3576.225
2161.57625	3586.525
2164.52941	3576.925
2167.48067	3572.025
2170.43004	3561.025
2173.37752	3557.925
2176.32311	3553.925
2179.26681	3566.225
2182.20863	3553.125
2185.14856	3558.925
2188.08661	3562.725
2191.02278	3553.925
2193.95707	3538.825
2196.88948	3539.725
2199.82001	3528.125
2202.74867	3527.125
2205.67545	3539.325
2208.60037	3516.725
2211.52341	3516.725
2214.44458	3501.625
2217.36388	3488.925
2220.28132	3496.525
2223.1969	3479.125
2226.11061	3478.925
2229.02246	3455.025
2231.93245	3432.025
2234.84058	3448.425
2237.74686	3453.125
2240.65128	3439.025
2243.55385	3428.825
2246.45456	3425.525
2249.35343	3418.125
2252.25044	3415.225
2255.14561	3417.625
2258.03893	3415.625
2260.93041	3413.025
2263.82004	3404.925
2266.70783	3370.425
2269.59378	3374.725
2272.4779	3369.025
2275.36017	3358.725
2278.24061	3367.725
2281.11922	3343.225
2283.996	3332.725
2286.87094	3337.125
2289.74405	3323.425
2292.61534	3304.325
2295.4848	3298.925
2298.35243	3319.925
2301.21824	3294.725
2304.08223	3286.825
2306.94439	3288.125
2309.80474	3287.925
2312.66327	3280.025
2315.51999	3292.825
2318.37489	3279.325
2321.22797	3264.925
2324.07925	3265.325
2326.92871	3258.725
2329.77637	3244.425
2332.62222	3254.525
2335.46626	3244.125
2338.3085	3228.625
2341.14893	3222.025
2343.98756	3221.225
2346.8244	3213.125
2349.65943	3224.625
2352.49267	3226.125
2355.32411	3222.425
2358.15376	3224.725
2360.98161	3203.725
2363.80768	3222.525
2366.63195	3213.125
2369.45444	3214.125
2372.27514	3206.325
2375.09405	3199.525
2377.91118	3199.925
2380.72652	3184.825
2383.54009	3182.125
2386.35187	3189.225
2389.16188	3159.325
2391.97011	3158.925
2394.77657	3155.025
2397.58125	3141.025
2400.38416	3131.725
2403.18529	3129.925
2405.98466	3123.225
2408.78226	3117.625
2411.57809	3112.925
2414.37216	3107.725
2417.16446	3094.825
2419.955	3089.925
2422.74378	3088.525
2425.5308	3072.025
2428.31606	3076.825
2431.09956	3056.325
2433.88131	3069.825
2436.6613	3059.925
2439.43954	3072.025
2442.21603	3049.525
2444.99077	3054.925
2447.76377	3057.225
2450.53501	3049.925
2453.30451	3046.825
2456.07226	3045.925
2458.83827	3029.925
2461.60254	3020.225
2464.36507	3011.925
2467.12586	3016.425
2469.88492	3018.525
2472.64224	3025.025
2475.39782	3013.525
2478.15167	3026.325
2480.90379	3001.925
2483.65417	3006.625
2486.40283	3002.925
2489.14976	3012.625
2491.89497	3006.025
2494.63845	3013.325
2497.3802	3001.925
2500.12024	2990.525
2502.85855	2997.725
2505.59514	2975.425
2508.33002	2980.925
2511.06318	2973.325
2513.79462	2965.725
2516.52435	2952.825
2519.25237	2957.525
2521.97867	2947.525
2524.70327	2949.125
2527.42616	2927.925
2530.14734	2939.325
2532.86681	2908.225
2535.58458	2920.025
2538.30065	2924.825
2541.01501	2920.525
2543.72768	2915.125
2546.43864	2902.025
2549.14791	2894.225
2551.85548	2883.525
2554.56136	2890.325
2557.26554	2874.825
2559.96803	2875.925
2562.66883	2876.725
2565.36794	2860.525
2568.06536	2854.425
2570.7611	2850.725
2573.45514	2843.725
2576.14751	2837.725
2578.83819	2833.625
2581.52719	2825.425
2584.21451	2818.525
2586.90015	2813.925
2589.58411	2814.125
2592.2664	2809.125
2594.94701	2805.925
2597.62594	2802.225
2600.30321	2799.125
2602.9788	2780.925
2605.65273	2781.325
2608.32498	2784.525
2610.99557	2778.125
2613.66449	2770.525
2616.33175	2759.625
2618.99734	2768.725
2621.66128	2767.225
2624.32355	2765.025
2626.98416	2753.525
2629.64311	2761.925
2632.30041	2745.525
2634.95605	2740.925
2637.61004	2744.225
2640.26238	2735.525
2642.91306	2723.825
2645.56209	2728.025
2648.20948	2720.325
2650.85521	2720.925
2653.4993	2724.425
2656.14175	2713.625
2658.78255	2713.925
2661.42171	2711.825
2664.05923	2711.425
2666.6951	2717.825
2669.32934	2723.425
2671.96194	2709.325
2674.59291	2718.125
2677.22224	2709.225
2679.84993	2719.425
2682.476	2706.625
2685.10043	2715.725
2687.72324	2709.425
2690.34441	2715.525
2692.96396	2700.025
2695.58188	2713.925
2698.19818	2703.925
2700.81285	2719.025
2703.4259	2726.925
2706.03733	2746.225
2708.64714	2743.225
2711.25533	2726.625
2713.86191	2712.825
2716.46687	2716.625
2719.07021	2721.225
2721.67194	2721.925
2724.27206	2717.325
2726.87057	2711.025
2729.46747	2724.825
2732.06276	2712.125
2734.65644	2710.525
2737.24852	2712.025
2739.83899	2700.325
2742.42786	2689.325
2745.01513	2692.225
2747.60079	2696.225
2750.18486	2684.925
2752.76733	2680.925
2755.3482	2685.625
2757.92747	2678.825
2760.50515	2673.925
2763.08123	2666.725
2765.65573	2665.525
2768.22863	2663.525
2770.79994	2670.025
2773.36967	2653.825
2775.9378	2658.325
2778.50435	2640.925
2781.06932	2645.125
2783.6327	2633.425
2786.1945	2649.225
2788.75471	2637.625
2791.31335	2623.525
2793.87041	2617.525
2796.42589	2620.725
2798.97979	2618.425
2801.53212	2598.525
2804.08288	2614.825
2806.63206	2602.525
2809.17967	2592.125
2811.72571	2600.625
2814.27018	2587.225
2816.81308	2582.825
2819.35442	2584.925
2821.89419	2586.225
2824.43239	2589.225
2826.96904	2579.025
2829.50412	2569.125
2832.03763	2575.725
2834.56959	2574.325
2837.1	2568.925
2839.62884	2578.125
2842.15613	2577.325
2844.68186	2573.725
2847.20604	2567.125
2849.72867	2566.625
2852.24974	2586.625
2854.76927	2590.925
2857.28724	2586.225
2859.80367	2577.925
2862.31855	2573.025
2864.83189	2586.125
2867.34368	2569.625
2869.85393	2563.425
2872.36264	2574.725
2874.8698	2571.125
2877.37543	2572.525
2879.87952	2572.025
2882.38207	2582.125
2884.88308	2576.525
2887.38256	2583.625
2889.88051	2585.125
2892.37692	2577.325
2894.8718	2573.125
2897.36515	2583.125
2899.85698	2581.725
2902.34727	2582.525
2904.83604	2587.925
2907.32328	2591.425
2909.809	2591.925
2912.29319	2584.925
2914.77587	2592.325
2917.25702	2584.425
2919.73665	2595.725
2922.21476	2593.125
2924.69136	2583.425
2927.16644	2594.825
2929.64	2588.125
2932.11205	2582.825
2934.58258	2590.725
2937.05161	2578.625
2939.51912	2584.725
2941.98513	2571.425
2944.44962	2577.225
2946.91261	2565.725
2949.37409	2572.625
2951.83407	2567.425
2954.29254	2567.325
2956.74951	2569.825
2959.20498	2556.025
2961.65895	2551.325
2964.11142	2544.225
2966.56239	2539.225
2969.01186	2538.325
2971.45984	2532.725
2973.90632	2520.125
2976.35131	2523.425
2978.7948	2512.725
2981.23681	2504.525
2983.67732	2502.825
2986.11635	2505.025
2988.55388	2504.625
2990.98993	2490.225
2993.4245	2491.725
2995.85758	2489.825
2998.28917	2488.825
3000.71928	2491.925
3003.14791	2483.325
3005.57506	2489.425
3008.00073	2485.725
3010.42493	2491.125
3012.84764	2495.825
3015.26888	2484.525
3017.68865	2487.225
3020.10694	2493.425
3022.52376	2479.825
3024.9391	2473.325
3027.35298	2469.225
3029.76539	2473.925
3032.17632	2477.225
3034.5858	2479.525
3036.9938	2472.625
3039.40034	2480.825
3041.80542	2474.125
3044.20903	2471.625
3046.61118	2469.325
3049.01187	2467.225
3051.4111	2474.025
3053.80888	2462.725
3056.20519	2474.825
3058.60005	2469.425
3060.99345	2469.725
3063.3854	2466.525
3065.7759	2465.225
3068.16494	2465.925
3070.55254	2469.525
3072.93868	2464.625
3075.32338	2466.725
3077.70662	2475.325
3080.08842	2467.425
3082.46878	2471.025
3084.84769	2471.525
3087.22515	2470.725
3089.60118	2487.925
3091.97576	2495.625
3094.3489	2488.625
3096.72061	2489.025
3099.09087	2507.225
3101.4597	2499.325
3103.82709	2503.725
3106.19305	2510.225
3108.55757	2497.925
3110.92066	2513.325
3113.28232	2515.125
3115.64255	2516.925
3118.00134	2501.525
3120.35871	2521.425
3122.71466	2503.525
3125.06917	2523.125
3127.42226	2518.625
3129.77393	2525.925
3132.12417	2529.525
3134.47299	2551.225
3136.82039	2540.625
3139.16636	2547.925
3141.51092	2570.325
3143.85406	2577.225
3146.19579	2578.225
3148.53609	2574.225
3150.87499	2603.125
3153.21246	2606.025
3155.54853	2620.125
3157.88318	2640.025
3160.21642	2622.925
3162.54826	2635.025
3164.87868	2639.525
3167.2077	2642.725
3169.5353	2638.625
3171.86151	2659.525
3174.18631	2653.925
3176.5097	2667.725
3178.83169	2658.725
3181.15228	2672.225
3183.47147	2680.425
3185.78926	2673.425
3188.10565	2680.925
3190.42065	2689.525
3192.73424	2694.825
3195.04645	2706.525
3197.35725	2702.325
3199.66667	2714.525
3201.97469	2718.725
3204.28132	2731.125
3206.58656	2740.625
3208.8904	2738.525
3211.19287	2746.525
3213.49394	2757.325
3215.79363	2766.125
3218.09193	2762.525
3220.38884	2776.625
3222.68438	2781.025
3224.97853	2767.325
3227.2713	2776.725
3229.56269	2760.725
3231.8527	2770.925
3234.14133	2769.325
3236.42858	2760.925
3238.71446	2761.825
3240.99896	2760.525
3243.28209	2763.025
3245.56384	2766.325
3247.84423	2770.325
3250.12324	2769.725
3252.40088	2774.525
3254.67715	2769.625
3256.95205	2768.525
3259.22558	2761.825
3261.49775	2766.525
3263.76855	2772.725
3266.03799	2753.525
3268.30606	2758.625
3270.57277	2764.025
3272.83812	2757.725
3275.10211	2738.125
3277.36474	2743.025
3279.62601	2750.625
3281.88593	2740.425
3284.14448	2745.525
3286.40168	2742.525
3288.65753	2738.525
3290.91202	2733.625
3293.16516	2729.925
3295.41695	2705.425
3297.66738	2707.025
3299.91647	2691.825
3302.16421	2683.725
3304.4106	2664.325
3306.65564	2662.225
3308.89933	2649.225
3311.14169	2635.225
3313.38269	2618.825
3315.62236	2600.825
3317.86068	2575.825
3320.09766	2550.325
3322.3333	2531.825
3324.5676	2549.225
3326.80056	2494.825
3329.03219	2479.325
3331.26248	-1.175
3333.49143	1.925
3335.71905	-1.175
