Data from AgNPs_FTO_APTES_UA_0.1mM_CRN_200uM_NaF_0.1M_Addition_RamanShift__12__14-08-47-725.txt Node

Date: Mon Dec 20 14:08:47 GMT 2021
User: TCL
Spectrometer: QEP01345
Trigger mode: 4
Integration Time (sec): 7.000000E0
Scans to average: 10
Electric dark correction enabled: true
Nonlinearity correction enabled: false
Boxcar width: 0
XAxis mode: Raman Shifts
Number of Pixels in Spectrum: 1044
>>>>>Begin Spectral Data<<<<<
46.04893	1
50.45542	0.2
54.85868	-1.7
59.25871	0.9
63.6555	24.1
68.04907	27.8
72.43941	30
76.82654	27.8
81.21044	28.8
85.59113	34.1
89.96862	29.8
94.34289	33.6
98.71396	39
103.08183	38
107.4465	38.1
111.80798	40.3
116.16626	40.5
120.52136	42.7
124.87327	42.6
129.222	43.6
133.56755	44.4
137.90993	51.3
142.24913	51
146.58517	52.6
150.91804	62.2
155.24774	73
159.57429	86.2
163.89768	112.1
168.21792	147.5
172.53501	191.1
176.84895	267.2
181.15975	370.1
185.46741	516.7
189.77193	719.6
194.07331	969.3
198.37157	1258.3
202.6667	1555.5
206.9587	1868.8
211.24758	2173.7
215.53334	2483.9
219.81599	2810.8
224.09553	3151.9
228.37195	3551.4
232.64527	3993.5
236.91549	4464.3
241.18261	4909.2
245.44663	5358.3
249.70755	5732.4
253.96539	6000.2
258.22014	6173.6
262.4718	6182.1
266.72039	6115.5
270.96589	5933.8
275.20832	5725.6
279.44768	5455.6
283.68397	5194.4
287.91719	4965
292.14735	4764.8
296.37445	4617.4
300.59849	4524.3
304.81948	4420.9
309.03742	4355.8
313.25231	4289.5
317.46415	4240.6
321.67296	4187.5
325.87872	4138.4
330.08145	4094.4
334.28114	4081
338.47781	4072.8
342.67145	4062.3
346.86207	4074.4
351.04966	4089
355.23424	4128.2
359.4158	4156.2
363.59435	4184.7
367.76989	4200.9
371.94243	4247.8
376.11196	4264.9
380.27849	4306.4
384.44203	4338.9
388.60257	4408.6
392.76012	4483.8
396.91468	4594.1
401.06626	4711.7
405.21485	4864.5
409.36047	4923.5
413.50311	4915.3
417.64277	4876.4
421.77947	4820.9
425.9132	4763.4
430.04396	4748.9
434.17176	4701.9
438.2966	4711.2
442.41849	4684.3
446.53742	4690.1
450.6534	4702.9
454.76644	4719.4
458.87653	4736.5
462.98368	4752.7
467.08789	4751.1
471.18916	4764.6
475.2875	4803.2
479.38291	4837.9
483.4754	4917.6
487.56496	4997.4
491.6516	5074.8
495.73531	5132.2
499.81612	5186.1
503.89401	5231.8
507.96899	5228.3
512.04106	5216.2
516.11023	5153.3
520.1765	5050.1
524.23987	4959.5
528.30034	4887.8
532.35792	4818.9
536.41261	4786.2
540.46441	4744.6
544.51333	4725.4
548.55936	4738.9
552.60252	4746.7
556.64279	4772.2
560.6802	4791.4
564.71473	4808.1
568.7464	4821
572.7752	4861.3
576.80114	4868.2
580.82422	4886.5
584.84444	4924.9
588.86181	4962.6
592.87633	5005.7
596.888	5028.8
600.89682	5066.3
604.9028	5145.9
608.90594	5325
612.90624	5511.4
616.90371	5514
620.89834	5321.7
624.89015	5206.4
628.87913	5224.8
632.86528	5325.2
636.84862	5423.9
640.82913	5464.6
644.80683	5448.3
648.78172	5449
652.75379	5428.3
656.72306	5392.3
660.68952	5413.4
664.65319	5441
668.61405	5530.8
672.57211	5605.3
676.52738	5671.1
680.47986	5712.9
684.42955	5707.8
688.37646	5749.2
692.32058	5741.3
696.26192	5698.1
700.20048	5583.3
704.13626	5467.2
708.06928	5327.2
711.99952	5193.7
715.927	5058
719.85171	4981
723.77365	4942.9
727.69284	4912.4
731.60928	4887.1
735.52295	4888
739.43388	4904.8
743.34206	4960.6
747.24749	5015.6
751.15017	5073.5
755.05012	5155.8
758.94733	5193.4
762.8418	5246.5
766.73354	5300.9
770.62254	5344.5
774.50882	5341.3
778.39237	5264.5
782.27321	5138.8
786.15132	5015.7
790.02671	4924.7
793.89938	4884.3
797.76935	4898.2
801.6366	4967.1
805.50115	5015.6
809.36299	5094.5
813.22213	5121.6
817.07857	5054.1
820.93231	4964.9
824.78336	4834.8
828.63172	4732.3
832.47738	4676.1
836.32036	4639
840.16066	4616.3
843.99827	4620
847.8332	4624.1
851.66546	4601.3
855.49504	4627.3
859.32195	4624.7
863.1462	4621.9
866.96777	4627.4
870.78668	4627.2
874.60293	4643.8
878.41652	4689
882.22745	4713
886.03573	4746.7
889.84136	4779
893.64433	4799.4
897.44466	4786.1
901.24235	4774.2
905.0374	4740
908.8298	4709.8
912.61957	4681
916.40671	4663.6
920.19121	4651.9
923.97308	4610.3
927.75233	4599.7
931.52895	4572.3
935.30295	4548.1
939.07433	4539.3
942.84309	4502.8
946.60924	4482.9
950.37278	4487.6
954.13371	4490.8
957.89203	4505.1
961.64774	4496.9
965.40086	4488.7
969.15137	4504.4
972.89929	4460.9
976.64461	4470.4
980.38733	4468
984.12747	4462.7
987.86502	4458.4
991.59999	4476.8
995.33237	4469.7
999.06217	4486.5
1002.78939	4522.1
1006.51404	4541.5
1010.23611	4551.9
1013.95561	4579
1017.67255	4585.3
1021.38692	4600.7
1025.09872	4601.3
1028.80796	4590.9
1032.51465	4590.1
1036.21877	4578.7
1039.92035	4569.8
1043.61937	4587.8
1047.31584	4598.6
1051.00976	4600.9
1054.70114	4622.9
1058.38998	4621.7
1062.07627	4650.4
1065.76003	4660.6
1069.44126	4664.6
1073.11995	4656.2
1076.79611	4664.6
1080.46974	4655.2
1084.14085	4640.9
1087.80943	4611.5
1091.47549	4586.5
1095.13903	4576.6
1098.80005	4573.1
1102.45857	4550.7
1106.11456	4548.8
1109.76805	4562.9
1113.41903	4635.1
1117.06751	4688.8
1120.71348	4783.9
1124.35696	4914.4
1127.99793	5048
1131.63641	5175.1
1135.2724	5230.4
1138.90589	5290.9
1142.5369	5260.1
1146.16542	5238.1
1149.79145	5113
1153.415	5004.7
1157.03607	4890.9
1160.65467	4808.5
1164.27079	4747.7
1167.88443	4727.9
1171.49561	4745.8
1175.10432	4806.8
1178.71056	4880
1182.31434	4976.6
1185.91565	5035.4
1189.51451	5058.6
1193.11091	5061.6
1196.70485	5058.1
1200.29634	5077
1203.88538	5064.6
1207.47197	5085.3
1211.05612	5118.8
1214.63782	5116
1218.21708	5157.1
1221.79391	5167.9
1225.36829	5145.3
1228.94024	5104.7
1232.50976	5070.2
1236.07685	5026.8
1239.6415	4991.8
1243.20374	4979.5
1246.76355	4992.2
1250.32093	5018.6
1253.8759	5041.7
1257.42845	5103
1260.97859	5141.7
1264.52631	5148.9
1268.07163	5156.5
1271.61453	5159.5
1275.15503	5114.3
1278.69312	5107.2
1282.22882	5071.7
1285.76211	5067.2
1289.29301	5077.6
1292.82151	5112.8
1296.34761	5174.2
1299.87133	5251
1303.39266	5325.6
1306.9116	5449.3
1310.42815	5562.2
1313.94233	5640.5
1317.45412	5693.2
1320.96354	5720.6
1324.47058	5718.2
1327.97525	5745.8
1331.47754	5744.6
1334.97747	5762.9
1338.47502	5808
1341.97022	5864.9
1345.46305	5916
1348.95352	6023.5
1352.44163	6093
1355.92738	6146.7
1359.41078	6230.6
1362.89183	6312.6
1366.37053	6290.1
1369.84688	6141.8
1373.32088	5942.2
1376.79254	5779.6
1380.26186	5682
1383.72883	5624.1
1387.19347	5573.8
1390.65578	5498.9
1394.11575	5446.5
1397.57339	5401
1401.0287	5350.6
1404.48168	5292.4
1407.93234	5237.8
1411.38068	5198.3
1414.82669	5135.1
1418.27039	5047.3
1421.71177	4998.8
1425.15083	4917.6
1428.58758	4842.9
1432.02203	4800.7
1435.45416	4773.4
1438.88399	4733.1
1442.31151	4719.3
1445.73673	4702.5
1449.15965	4685.3
1452.58027	4679.6
1455.9986	4692.1
1459.41463	4710.7
1462.82837	4735.5
1466.23982	4757
1469.64898	4800
1473.05586	4869.3
1476.46045	4891.4
1479.86276	4893.5
1483.26279	4904.5
1486.66054	4930.6
1490.05602	4927.6
1493.44922	4968.4
1496.84016	5000
1500.22882	5085
1503.61521	5187.7
1506.99934	5322.9
1510.38121	5404.5
1513.76081	5415.5
1517.13816	5391.8
1520.51324	5311.3
1523.88607	5242.9
1527.25665	5206
1530.62498	5213.1
1533.99105	5229.9
1537.35488	5273.4
1540.71647	5306.6
1544.07581	5373.3
1547.4329	5456.6
1550.78776	5482.6
1554.14038	5536.6
1557.49077	5617.1
1560.83892	5643.7
1564.18484	5703.6
1567.52853	5736.1
1570.86999	5776.6
1574.20922	5794
1577.54624	5838.6
1580.88103	5844.5
1584.2136	5808.7
1587.54395	5802.7
1590.87208	5781.1
1594.19801	5782.2
1597.52172	5797.1
1600.84321	5767.6
1604.16251	5726.8
1607.47959	5657.3
1610.79447	5573.1
1614.10715	5488.1
1617.41763	5406.5
1620.7259	5346.5
1624.03199	5283.5
1627.33587	5255.9
1630.63757	5243.1
1633.93707	5257.2
1637.23439	5298.4
1640.52951	5378.3
1643.82246	5462.9
1647.11321	5539.5
1650.40179	5610.8
1653.68819	5613.1
1656.97241	5518.9
1660.25446	5377.2
1663.53433	5241.8
1666.81203	5150.1
1670.08756	5076.4
1673.36092	5001
1676.63211	4944.6
1679.90115	4876.1
1683.16801	4798.9
1686.43272	4717.1
1689.69527	4609.5
1692.95567	4516
1696.2139	4463.4
1699.46999	4398.4
1702.72392	4321.7
1705.97571	4255.8
1709.22535	4196
1712.47284	4171.1
1715.71819	4115.9
1718.96139	4086.4
1722.20246	4037.8
1725.44139	4000.2
1728.67818	3944.2
1731.91284	3899.6
1735.14537	3848.5
1738.37576	3814.2
1741.60403	3773.6
1744.83017	3766.3
1748.05418	3748.4
1751.27607	3728.1
1754.49584	3732.1
1757.71349	3728.8
1760.92903	3704.5
1764.14244	3677.7
1767.35375	3680.3
1770.56294	3640.2
1773.77002	3587.6
1776.97499	3554.7
1780.17785	3513.8
1783.37861	3485.1
1786.57727	3464.2
1789.77382	3415.6
1792.96828	3393.5
1796.16064	3365.9
1799.3509	3325.8
1802.53907	3308.5
1805.72514	3308.8
1808.90913	3281.2
1812.09102	3271.2
1815.27083	3267.1
1818.44856	3235.9
1821.6242	3229.6
1824.79776	3214.6
1827.96924	3193.9
1831.13864	3196.2
1834.30597	3188.6
1837.47122	3183.3
1840.6344	3175.3
1843.7955	3167.8
1846.95454	3162.2
1850.11151	3167.2
1853.26642	3157.1
1856.41926	3142.8
1859.57004	3133.8
1862.71876	3133.8
1865.86542	3121
1869.01003	3127.4
1872.15258	3112.5
1875.29308	3099.1
1878.43152	3090.8
1881.56792	3084.3
1884.70227	3080
1887.83457	3068.9
1890.96482	3068.4
1894.09304	3045.8
1897.21921	3049.8
1900.34335	3057.8
1903.46544	3046.1
1906.58551	3034.3
1909.70353	3022.5
1912.81953	3018.1
1915.93349	3000
1919.04543	2998.6
1922.15534	2998.4
1925.26322	2994.9
1928.36908	2977.7
1931.47292	2974.7
1934.57473	2973.1
1937.67453	2959.7
1940.77232	2936.5
1943.86808	2934.4
1946.96184	2942.2
1950.05358	2912.7
1953.14331	2912.9
1956.23103	2897.5
1959.31675	2881.1
1962.40046	2876.9
1965.48217	2859.5
1968.56188	2854
1971.63959	2846.5
1974.7153	2828.9
1977.78901	2826.1
1980.86073	2817.9
1983.93046	2800.8
1986.99819	2791.8
1990.06394	2770.6
1993.1277	2768.1
1996.18947	2768.4
1999.24925	2766.8
2002.30706	2749.9
2005.36288	2737.1
2008.41672	2734.6
2011.46859	2727.5
2014.51848	2718.6
2017.56639	2702.5
2020.61233	2690.2
2023.6563	2697
2026.6983	2675.9
2029.73833	2659
2032.7764	2657.6
2035.8125	2656.5
2038.84664	2644
2041.87881	2645.1
2044.90903	2628
2047.93729	2620.2
2050.96359	2619.6
2053.98794	2614.3
2057.01034	2607.3
2060.03078	2590
2063.04927	2596.8
2066.06582	2596.4
2069.08042	2605.6
2072.09307	2594.1
2075.10378	2593.5
2078.11255	2597.5
2081.11938	2584.1
2084.12426	2587
2087.12722	2584
2090.12824	2586.7
2093.12732	2577.3
2096.12447	2576.1
2099.11969	2575.7
2102.11299	2576.5
2105.10435	2584.8
2108.09379	2577.4
2111.08131	2582
2114.0669	2589.2
2117.05057	2579.9
2120.03233	2583.1
2123.01216	2583.2
2125.99008	2582.7
2128.96609	2579.9
2131.94018	2578.3
2134.91236	2570
2137.88263	2575.1
2140.851	2578.4
2143.81746	2578.6
2146.78201	2587.4
2149.74466	2573.9
2152.7054	2572.5
2155.66425	2584.1
2158.6212	2580.9
2161.57625	2563.4
2164.52941	2569.4
2167.48067	2564
2170.43004	2577.3
2173.37752	2557.3
2176.32311	2560
2179.26681	2558.8
2182.20863	2556.7
2185.14856	2549.7
2188.08661	2541.9
2191.02278	2554.1
2193.95707	2532
2196.88948	2537.6
2199.82001	2528.1
2202.74867	2515
2205.67545	2518.6
2208.60037	2510.3
2211.52341	2506.2
2214.44458	2499.6
2217.36388	2502.3
2220.28132	2489.7
2223.1969	2477.9
2226.11061	2478.1
2229.02246	2471.6
2231.93245	2459.9
2234.84058	2456.2
2237.74686	2457.2
2240.65128	2457.5
2243.55385	2441.5
2246.45456	2430.9
2249.35343	2440.7
2252.25044	2425.4
2255.14561	2419.5
2258.03893	2408.3
2260.93041	2414.7
2263.82004	2403.3
2266.70783	2412.8
2269.59378	2393.4
2272.4779	2378.9
2275.36017	2366.8
2278.24061	2369.3
2281.11922	2360.4
2283.996	2363.3
2286.87094	2345.6
2289.74405	2338.6
2292.61534	2329.5
2295.4848	2335.6
2298.35243	2324.7
2301.21824	2324.3
2304.08223	2327
2306.94439	2318.8
2309.80474	2319.1
2312.66327	2311.2
2315.51999	2310.6
2318.37489	2308.5
2321.22797	2304.7
2324.07925	2298
2326.92871	2300.6
2329.77637	2288
2332.62222	2281.9
2335.46626	2282.8
2338.3085	2263.8
2341.14893	2262.9
2343.98756	2269.3
2346.8244	2249.5
2349.65943	2248.2
2352.49267	2257.9
2355.32411	2247.4
2358.15376	2257.9
2360.98161	2243
2363.80768	2225.4
2366.63195	2228.5
2369.45444	2229
2372.27514	2225.5
2375.09405	2233
2377.91118	2221.6
2380.72652	2218.8
2383.54009	2208.4
2386.35187	2214.9
2389.16188	2187.8
2391.97011	2193.9
2394.77657	2181.8
2397.58125	2171.8
2400.38416	2185
2403.18529	2169.6
2405.98466	2171.8
2408.78226	2169.6
2411.57809	2167.7
2414.37216	2161.7
2417.16446	2152.8
2419.955	2152
2422.74378	2144.3
2425.5308	2140.5
2428.31606	2141.5
2431.09956	2132.2
2433.88131	2124.6
2436.6613	2130
2439.43954	2117.4
2442.21603	2115.1
2444.99077	2121.4
2447.76377	2111.4
2450.53501	2117.8
2453.30451	2117.4
2456.07226	2106.7
2458.83827	2110.1
2461.60254	2104
2464.36507	2099.4
2467.12586	2087.7
2469.88492	2089.1
2472.64224	2094.7
2475.39782	2090.7
2478.15167	2094.7
2480.90379	2088.4
2483.65417	2078.8
2486.40283	2070.7
2489.14976	2066.1
2491.89497	2059.3
2494.63845	2070.1
2497.3802	2062.8
2500.12024	2056.2
2502.85855	2053
2505.59514	2059.2
2508.33002	2056.6
2511.06318	2059.9
2513.79462	2051.3
2516.52435	2031.7
2519.25237	2034.8
2521.97867	2023.9
2524.70327	2026.3
2527.42616	2025
2530.14734	2026.3
2532.86681	2010.8
2535.58458	1997
2538.30065	2006.5
2541.01501	1997
2543.72768	1995
2546.43864	1997.4
2549.14791	1995.9
2551.85548	1986.5
2554.56136	1981.3
2557.26554	1967.3
2559.96803	1968.5
2562.66883	1975.3
2565.36794	1959.8
2568.06536	1952.5
2570.7611	1950.4
2573.45514	1957.1
2576.14751	1958.1
2578.83819	1931.3
2581.52719	1940.5
2584.21451	1919.9
2586.90015	1928.8
2589.58411	1923.6
2592.2664	1917.8
2594.94701	1909.2
2597.62594	1908.5
2600.30321	1900.6
2602.9788	1900.5
2605.65273	1895.9
2608.32498	1890
2610.99557	1889.8
2613.66449	1884.3
2616.33175	1872.2
2618.99734	1882.9
2621.66128	1882.5
2624.32355	1869
2626.98416	1869.8
2629.64311	1871.4
2632.30041	1859.9
2634.95605	1864.7
2637.61004	1858.4
2640.26238	1858.1
2642.91306	1851.1
2645.56209	1850.4
2648.20948	1854.4
2650.85521	1848.7
2653.4993	1854.4
2656.14175	1850.2
2658.78255	1850.2
2661.42171	1845.3
2664.05923	1832.9
2666.6951	1846.4
2669.32934	1831.4
2671.96194	1829.5
2674.59291	1835.8
2677.22224	1843.6
2679.84993	1834
2682.476	1840.1
2685.10043	1836.9
2687.72324	1834.2
2690.34441	1825.8
2692.96396	1827
2695.58188	1841
2698.19818	1828.4
2700.81285	1832.5
2703.4259	1846.2
2706.03733	1850.6
2708.64714	1839.1
2711.25533	1830.9
2713.86191	1823.8
2716.46687	1822.6
2719.07021	1827.6
2721.67194	1814.5
2724.27206	1811.8
2726.87057	1823.7
2729.46747	1821.3
2732.06276	1823.4
2734.65644	1811.2
2737.24852	1809.9
2739.83899	1806
2742.42786	1801.2
2745.01513	1793.7
2747.60079	1800.4
2750.18486	1789.9
2752.76733	1791.6
2755.3482	1785
2757.92747	1786.6
2760.50515	1781.9
2763.08123	1779.6
2765.65573	1768.3
2768.22863	1780.1
2770.79994	1766.8
2773.36967	1768.4
2775.9378	1763.6
2778.50435	1768.7
2781.06932	1759.2
2783.6327	1746.5
2786.1945	1757.9
2788.75471	1748.5
2791.31335	1755.4
2793.87041	1741.6
2796.42589	1736.2
2798.97979	1724.7
2801.53212	1719.4
2804.08288	1728.7
2806.63206	1719.7
2809.17967	1713.8
2811.72571	1704.3
2814.27018	1709.1
2816.81308	1699.4
2819.35442	1699.9
2821.89419	1696
2824.43239	1699.7
2826.96904	1690
2829.50412	1699.5
2832.03763	1694.3
2834.56959	1695.1
2837.1	1697.1
2839.62884	1698.8
2842.15613	1689.4
2844.68186	1692
2847.20604	1679.4
2849.72867	1681
2852.24974	1684
2854.76927	1690.4
2857.28724	1690
2859.80367	1686.9
2862.31855	1669.1
2864.83189	1669
2867.34368	1668.4
2869.85393	1668.9
2872.36264	1662.9
2874.8698	1668
2877.37543	1674.4
2879.87952	1675.8
2882.38207	1657.7
2884.88308	1671.2
2887.38256	1659.6
2889.88051	1669
2892.37692	1669.5
2894.8718	1668.8
2897.36515	1674.6
2899.85698	1673.2
2902.34727	1680.6
2904.83604	1674.5
2907.32328	1684.8
2909.809	1681
2912.29319	1675.6
2914.77587	1681.5
2917.25702	1684.5
2919.73665	1681.3
2922.21476	1685.6
2924.69136	1686.7
2927.16644	1689.2
2929.64	1699.8
2932.11205	1696.8
2934.58258	1699.7
2937.05161	1706.5
2939.51912	1702.1
2941.98513	1699
2944.44962	1696.5
2946.91261	1698.8
2949.37409	1696.7
2951.83407	1695.5
2954.29254	1698.4
2956.74951	1699.6
2959.20498	1692.2
2961.65895	1678.4
2964.11142	1682.5
2966.56239	1678.7
2969.01186	1667.4
2971.45984	1664.8
2973.90632	1653.4
2976.35131	1653.7
2978.7948	1647.7
2981.23681	1642.9
2983.67732	1637.2
2986.11635	1641.6
2988.55388	1625.4
2990.98993	1633.1
2993.4245	1609
2995.85758	1619.9
2998.28917	1613.2
3000.71928	1614.5
3003.14791	1620.6
3005.57506	1613.6
3008.00073	1603.6
3010.42493	1608.2
3012.84764	1617.4
3015.26888	1614.5
3017.68865	1611.3
3020.10694	1604.2
3022.52376	1599.9
3024.9391	1611.2
3027.35298	1600.2
3029.76539	1604.5
3032.17632	1600.3
3034.5858	1596.5
3036.9938	1600
3039.40034	1597.8
3041.80542	1596.5
3044.20903	1584.5
3046.61118	1590.4
3049.01187	1588.6
3051.4111	1588.6
3053.80888	1597.7
3056.20519	1599.4
3058.60005	1594.7
3060.99345	1591.4
3063.3854	1581.8
3065.7759	1587.2
3068.16494	1596.5
3070.55254	1580.6
3072.93868	1587.4
3075.32338	1584.1
3077.70662	1591.9
3080.08842	1595.3
3082.46878	1587.6
3084.84769	1597.8
3087.22515	1592
3089.60118	1601.3
3091.97576	1602.3
3094.3489	1608.4
3096.72061	1606.7
3099.09087	1611.8
3101.4597	1625.1
3103.82709	1615.2
3106.19305	1625.6
3108.55757	1634
3110.92066	1627.2
3113.28232	1627.3
3115.64255	1625
3118.00134	1626.2
3120.35871	1626.9
3122.71466	1638.5
3125.06917	1632.7
3127.42226	1628.4
3129.77393	1642.2
3132.12417	1642.7
3134.47299	1647.1
3136.82039	1658.5
3139.16636	1659.6
3141.51092	1667.4
3143.85406	1669.2
3146.19579	1690.8
3148.53609	1686.2
3150.87499	1692.3
3153.21246	1699.7
3155.54853	1700.1
3157.88318	1718.9
3160.21642	1709.9
3162.54826	1710.7
3164.87868	1724.1
3167.2077	1723.5
3169.5353	1728.3
3171.86151	1731.7
3174.18631	1742.6
3176.5097	1729.8
3178.83169	1730.3
3181.15228	1739.2
3183.47147	1742.9
3185.78926	1755.8
3188.10565	1751.6
3190.42065	1757.2
3192.73424	1774.1
3195.04645	1763.8
3197.35725	1766.7
3199.66667	1772.2
3201.97469	1768.5
3204.28132	1782.9
3206.58656	1783.2
3208.8904	1782.4
3211.19287	1796.9
3213.49394	1790.8
3215.79363	1796.3
3218.09193	1796.2
3220.38884	1796.3
3222.68438	1802
3224.97853	1793
3227.2713	1805.1
3229.56269	1805.2
3231.8527	1805.3
3234.14133	1795.5
3236.42858	1797.4
3238.71446	1796.7
3240.99896	1793.7
3243.28209	1788.4
3245.56384	1794.6
3247.84423	1787.8
3250.12324	1788.5
3252.40088	1796
3254.67715	1798.2
3256.95205	1797.2
3259.22558	1788.8
3261.49775	1779.1
3263.76855	1800.9
3266.03799	1784.5
3268.30606	1767.9
3270.57277	1773.7
3272.83812	1776.2
3275.10211	1781.6
3277.36474	1781
3279.62601	1778.3
3281.88593	1776.2
3284.14448	1766.9
3286.40168	1779.3
3288.65753	1766.9
3290.91202	1773
3293.16516	1754.5
3295.41695	1753.7
3297.66738	1751.5
3299.91647	1742.6
3302.16421	1736.1
3304.4106	1726.8
3306.65564	1718.4
3308.89933	1713.6
3311.14169	1708.5
3313.38269	1697.1
3315.62236	1689.4
3317.86068	1678.3
3320.09766	1653.4
3322.3333	1648.5
3324.5676	1643.8
3326.80056	1621.3
3329.03219	1618.6
3331.26248	-0.5
3333.49143	0.9
3335.71905	-0.3
