Data from AgNPs_FTO_APTES_UA_0.1mM_CRN_10uM_NaF_0.1M_Addition_RamanShift__31__11-54-37-573.txt Node

Date: Mon Dec 20 11:54:37 GMT 2021
User: TCL
Spectrometer: QEP01345
Trigger mode: 4
Integration Time (sec): 7.000000E0
Scans to average: 10
Electric dark correction enabled: true
Nonlinearity correction enabled: false
Boxcar width: 0
XAxis mode: Raman Shifts
Number of Pixels in Spectrum: 1044
>>>>>Begin Spectral Data<<<<<
46.04893	0.1375
50.45542	-0.2625
54.85868	-0.8625
59.25871	0.5375
63.6555	29.7375
68.04907	32.0375
72.43941	35.0375
76.82654	37.6375
81.21044	38.2375
85.59113	40.7375
89.96862	38.2375
94.34289	43.2375
98.71396	43.8375
103.08183	41.8375
107.4465	47.0375
111.80798	46.8375
116.16626	49.7375
120.52136	51.5375
124.87327	51.9375
129.222	51.5375
133.56755	55.1375
137.90993	58.5375
142.24913	59.3375
146.58517	64.4375
150.91804	74.9375
155.24774	86.6375
159.57429	103.1375
163.89768	130.8375
168.21792	166.6375
172.53501	216.0375
176.84895	293.2375
181.15975	404.3375
185.46741	556.1375
189.77193	759.1375
194.07331	1015.5375
198.37157	1299.5375
202.6667	1609.9375
206.9587	1921.6375
211.24758	2215.0375
215.53334	2511.6375
219.81599	2858.3375
224.09553	3203.4375
228.37195	3616.0375
232.64527	4036.2375
236.91549	4447.2375
241.18261	4849.9375
245.44663	5171.1375
249.70755	5411.9375
253.96539	5597.0375
258.22014	5772.7375
262.4718	5880.7375
266.72039	5960.9375
270.96589	5980.4375
275.20832	5949.5375
279.44768	5845.0375
283.68397	5729.1375
287.91719	5657.6375
292.14735	5652.5375
296.37445	5796.0375
300.59849	6019.7375
304.81948	6279.7375
309.03742	6481.3375
313.25231	6466.4375
317.46415	6174.7375
321.67296	5668.8375
325.87872	5234.2375
330.08145	4997.3375
334.28114	4949.7375
338.47781	5018.4375
342.67145	5139.4375
346.86207	5361.7375
351.04966	5701.5375
355.23424	6089.7375
359.4158	6418.6375
363.59435	6595.0375
367.76989	6670.4375
371.94243	6685.9375
376.11196	6705.8375
380.27849	6691.2375
384.44203	6648.8375
388.60257	6536.2375
392.76012	6508.7375
396.91468	6550.5375
401.06626	6675.8375
405.21485	6771.5375
409.36047	6624.4375
413.50311	6206.9375
417.64277	5815.2375
421.77947	5583.1375
425.9132	5453.6375
430.04396	5423.2375
434.17176	5443.5375
438.2966	5510.5375
442.41849	5670.1375
446.53742	5824.5375
450.6534	5988.5375
454.76644	6054.0375
458.87653	6046.8375
462.98368	6012.2375
467.08789	5892.8375
471.18916	5782.8375
475.2875	5683.7375
479.38291	5618.6375
483.4754	5654.7375
487.56496	5731.3375
491.6516	5839.5375
495.73531	5907.1375
499.81612	5871.7375
503.89401	5793.8375
507.96899	5757.0375
512.04106	5844.0375
516.11023	6003.2375
520.1765	6187.5375
524.23987	6287.7375
528.30034	6241.1375
532.35792	6119.9375
536.41261	5908.9375
540.46441	5667.7375
544.51333	5477.9375
548.55936	5385.5375
552.60252	5396.5375
556.64279	5478.8375
560.6802	5565.3375
564.71473	5667.4375
568.7464	5897.4375
572.7752	6089.5375
576.80114	5910.0375
580.82422	5688.5375
584.84444	5655.9375
588.86181	5759.5375
592.87633	5862.1375
596.888	5915.3375
600.89682	6030.1375
604.9028	6656.4375
608.90594	8618.9375
612.90624	11349.1375
616.90371	11462.1375
620.89834	8637.2375
624.89015	7499.1375
628.87913	7781.4375
632.86528	8279.2375
636.84862	8519.2375
640.82913	8225.6375
644.80683	7461.9375
648.78172	6725.1375
652.75379	6284.6375
656.72306	6150.2375
660.68952	6220.5375
664.65319	6030.9375
668.61405	5648.5375
672.57211	5439.8375
676.52738	5418.7375
680.47986	5406.7375
684.42955	5354.3375
688.37646	5362.1375
692.32058	5357.7375
696.26192	5357.0375
700.20048	5392.1375
704.13626	5408.7375
708.06928	5352.0375
711.99952	5304.1375
715.927	5295.0375
719.85171	5389.4375
723.77365	5453.7375
727.69284	5437.7375
731.60928	5334.2375
735.52295	5246.3375
739.43388	5214.1375
743.34206	5219.5375
747.24749	5261.5375
751.15017	5285.7375
755.05012	5354.4375
758.94733	5581.3375
762.8418	6185.1375
766.73354	7208.6375
770.62254	8337.4375
774.50882	9014.7375
778.39237	8742.4375
782.27321	7613.5375
786.15132	6421.1375
790.02671	5749.5375
793.89938	5494.2375
797.76935	5469.5375
801.6366	5633.8375
805.50115	6007.1375
809.36299	6422.9375
813.22213	6539.8375
817.07857	6312.3375
820.93231	5943.6375
824.78336	5561.8375
828.63172	5338.8375
832.47738	5183.8375
836.32036	5094.3375
840.16066	5026.5375
843.99827	4983.5375
847.8332	4940.7375
851.66546	4929.9375
855.49504	4942.2375
859.32195	4969.4375
863.1462	5002.3375
866.96777	5088.8375
870.78668	5266.6375
874.60293	5538.1375
878.41652	5818.9375
882.22745	6102.6375
886.03573	6241.8375
889.84136	6222.0375
893.64433	5948.0375
897.44466	5612.6375
901.24235	5303.0375
905.0374	5069.6375
908.8298	4913.3375
912.61957	4810.8375
916.40671	4788.8375
920.19121	4772.9375
923.97308	4768.9375
927.75233	4807.4375
931.52895	4875.0375
935.30295	4829.4375
939.07433	4700.4375
942.84309	4566.9375
946.60924	4497.8375
950.37278	4451.0375
954.13371	4445.5375
957.89203	4426.7375
961.64774	4420.6375
965.40086	4394.6375
969.15137	4381.0375
972.89929	4378.1375
976.64461	4370.7375
980.38733	4377.1375
984.12747	4380.0375
987.86502	4412.2375
991.59999	4455.4375
995.33237	4556.0375
999.06217	4705.9375
1002.78939	4940.4375
1006.51404	5152.6375
1010.23611	5366.2375
1013.95561	5509.3375
1017.67255	5510.5375
1021.38692	5400.7375
1025.09872	5223.9375
1028.80796	5011.9375
1032.51465	4861.6375
1036.21877	4777.3375
1039.92035	4733.5375
1043.61937	4728.6375
1047.31584	4719.1375
1051.00976	4736.6375
1054.70114	4758.7375
1058.38998	4801.9375
1062.07627	4887.8375
1065.76003	4992.1375
1069.44126	5041.6375
1073.11995	5078.2375
1076.79611	5114.6375
1080.46974	5145.1375
1084.14085	5206.6375
1087.80943	5273.2375
1091.47549	5263.8375
1095.13903	5139.1375
1098.80005	4955.5375
1102.45857	4799.0375
1106.11456	4800.1375
1109.76805	4909.1375
1113.41903	5095.1375
1117.06751	5428.3375
1120.71348	5897.2375
1124.35696	6538.7375
1127.99793	7237.7375
1131.63641	7664.2375
1135.2724	7717.5375
1138.90589	7495.4375
1142.5369	7127.6375
1146.16542	6616.7375
1149.79145	6089.5375
1153.415	5646.5375
1157.03607	5366.1375
1160.65467	5242.7375
1164.27079	5249.6375
1167.88443	5463.1375
1171.49561	5845.5375
1175.10432	6594.7375
1178.71056	7628.7375
1182.31434	8483.4375
1185.91565	8807.0375
1189.51451	8802.0375
1193.11091	8587.3375
1196.70485	8433.1375
1200.29634	8355.3375
1203.88538	8186.3375
1207.47197	7715.3375
1211.05612	7140.7375
1214.63782	6608.5375
1218.21708	6166.6375
1221.79391	5854.5375
1225.36829	5606.9375
1228.94024	5439.6375
1232.50976	5326.6375
1236.07685	5265.5375
1239.6415	5292.8375
1243.20374	5328.8375
1246.76355	5354.5375
1250.32093	5416.8375
1253.8759	5503.0375
1257.42845	5629.2375
1260.97859	5783.4375
1264.52631	5957.9375
1268.07163	6117.7375
1271.61453	6205.1375
1275.15503	6273.4375
1278.69312	6218.3375
1282.22882	6216.9375
1285.76211	6312.0375
1289.29301	6544.9375
1292.82151	6817.6375
1296.34761	7108.2375
1299.87133	7542.7375
1303.39266	8245.2375
1306.9116	9285.4375
1310.42815	10456.5375
1313.94233	11113.5375
1317.45412	10903.1375
1320.96354	10077.2375
1324.47058	9252.6375
1327.97525	8508.6375
1331.47754	8090.0375
1334.97747	7958.1375
1338.47502	8079.6375
1341.97022	8391.5375
1345.46305	8838.5375
1348.95352	9542.9375
1352.44163	10422.4375
1355.92738	11609.9375
1359.41078	13314.5375
1362.89183	14834.9375
1366.37053	14425.3375
1369.84688	12316.9375
1373.32088	10214.9375
1376.79254	8791.1375
1380.26186	8040.4375
1383.72883	7590.7375
1387.19347	7314.9375
1390.65578	6998.3375
1394.11575	6750.3375
1397.57339	6575.8375
1401.0287	6520.1375
1404.48168	6451.6375
1407.93234	6396.6375
1411.38068	6306.6375
1414.82669	6178.2375
1418.27039	5999.6375
1421.71177	5840.8375
1425.15083	5644.3375
1428.58758	5557.2375
1432.02203	5562.8375
1435.45416	5600.7375
1438.88399	5654.4375
1442.31151	5659.9375
1445.73673	5692.4375
1449.15965	5713.5375
1452.58027	5698.5375
1455.9986	5634.4375
1459.41463	5622.8375
1462.82837	5660.3375
1466.23982	5774.2375
1469.64898	5918.0375
1473.05586	5984.5375
1476.46045	6079.5375
1479.86276	6187.2375
1483.26279	6360.9375
1486.66054	6557.2375
1490.05602	6843.8375
1493.44922	7219.7375
1496.84016	7761.5375
1500.22882	8632.1375
1503.61521	9790.1375
1506.99934	11165.6375
1510.38121	12271.5375
1513.76081	12600.7375
1517.13816	11838.5375
1520.51324	10287.0375
1523.88607	8717.3375
1527.25665	7732.7375
1530.62498	7205.7375
1533.99105	6976.4375
1537.35488	6865.5375
1540.71647	6873.7375
1544.07581	6923.1375
1547.4329	6993.3375
1550.78776	7014.1375
1554.14038	7013.7375
1557.49077	7046.0375
1560.83892	7082.1375
1564.18484	7243.4375
1567.52853	7476.9375
1570.86999	7712.1375
1574.20922	7856.5375
1577.54624	7854.4375
1580.88103	7503.9375
1584.2136	7006.0375
1587.54395	6700.4375
1590.87208	6694.2375
1594.19801	7008.4375
1597.52172	7471.8375
1600.84321	7726.8375
1604.16251	7646.8375
1607.47959	7312.7375
1610.79447	6891.7375
1614.10715	6462.7375
1617.41763	6128.1375
1620.7259	5953.3375
1624.03199	5851.0375
1627.33587	5856.6375
1630.63757	5986.7375
1633.93707	6219.9375
1637.23439	6621.3375
1640.52951	7250.4375
1643.82246	8136.3375
1647.11321	9279.0375
1650.40179	10147.3375
1653.68819	10094.7375
1656.97241	9011.1375
1660.25446	7666.9375
1663.53433	6651.1375
1666.81203	5956.1375
1670.08756	5491.9375
1673.36092	5191.7375
1676.63211	4963.0375
1679.90115	4809.7375
1683.16801	4684.3375
1686.43272	4562.1375
1689.69527	4482.6375
1692.95567	4400.6375
1696.2139	4326.5375
1699.46999	4251.4375
1702.72392	4172.4375
1705.97571	4102.1375
1709.22535	4029.3375
1712.47284	3986.4375
1715.71819	3947.7375
1718.96139	3910.5375
1722.20246	3861.9375
1725.44139	3821.9375
1728.67818	3754.6375
1731.91284	3695.2375
1735.14537	3672.4375
1738.37576	3636.0375
1741.60403	3617.3375
1744.83017	3586.7375
1748.05418	3571.0375
1751.27607	3555.9375
1754.49584	3536.1375
1757.71349	3525.2375
1760.92903	3504.1375
1764.14244	3499.1375
1767.35375	3468.3375
1770.56294	3443.8375
1773.77002	3429.8375
1776.97499	3398.3375
1780.17785	3391.7375
1783.37861	3371.6375
1786.57727	3354.8375
1789.77382	3346.1375
1792.96828	3340.1375
1796.16064	3320.1375
1799.3509	3307.5375
1802.53907	3300.2375
1805.72514	3289.1375
1808.90913	3279.7375
1812.09102	3254.0375
1815.27083	3248.6375
1818.44856	3237.6375
1821.6242	3231.7375
1824.79776	3233.7375
1827.96924	3222.9375
1831.13864	3201.0375
1834.30597	3205.1375
1837.47122	3200.6375
1840.6344	3194.8375
1843.7955	3184.0375
1846.95454	3181.2375
1850.11151	3184.3375
1853.26642	3177.3375
1856.41926	3167.5375
1859.57004	3158.0375
1862.71876	3166.9375
1865.86542	3146.1375
1869.01003	3151.1375
1872.15258	3153.6375
1875.29308	3141.3375
1878.43152	3142.1375
1881.56792	3140.3375
1884.70227	3136.7375
1887.83457	3122.7375
1890.96482	3113.5375
1894.09304	3121.0375
1897.21921	3121.5375
1900.34335	3102.4375
1903.46544	3125.3375
1906.58551	3102.9375
1909.70353	3102.3375
1912.81953	3099.5375
1915.93349	3086.7375
1919.04543	3077.1375
1922.15534	3069.1375
1925.26322	3074.6375
1928.36908	3053.9375
1931.47292	3044.6375
1934.57473	3037.0375
1937.67453	3027.9375
1940.77232	3012.7375
1943.86808	3006.9375
1946.96184	2999.3375
1950.05358	2970.4375
1953.14331	2974.1375
1956.23103	2967.6375
1959.31675	2965.3375
1962.40046	2960.6375
1965.48217	2928.8375
1968.56188	2946.4375
1971.63959	2927.7375
1974.7153	2924.5375
1977.78901	2916.7375
1980.86073	2903.4375
1983.93046	2889.9375
1986.99819	2873.0375
1990.06394	2865.1375
1993.1277	2856.4375
1996.18947	2849.4375
1999.24925	2833.5375
2002.30706	2828.2375
2005.36288	2813.9375
2008.41672	2804.6375
2011.46859	2805.2375
2014.51848	2784.2375
2017.56639	2794.3375
2020.61233	2780.8375
2023.6563	2766.2375
2026.6983	2766.0375
2029.73833	2746.7375
2032.7764	2753.7375
2035.8125	2740.4375
2038.84664	2728.9375
2041.87881	2733.7375
2044.90903	2723.8375
2047.93729	2720.3375
2050.96359	2718.3375
2053.98794	2706.8375
2057.01034	2709.3375
2060.03078	2705.7375
2063.04927	2700.2375
2066.06582	2709.6375
2069.08042	2697.3375
2072.09307	2689.3375
2075.10378	2692.9375
2078.11255	2683.0375
2081.11938	2696.9375
2084.12426	2673.1375
2087.12722	2669.9375
2090.12824	2680.9375
2093.12732	2676.2375
2096.12447	2674.2375
2099.11969	2673.5375
2102.11299	2661.4375
2105.10435	2666.5375
2108.09379	2675.5375
2111.08131	2678.3375
2114.0669	2674.0375
2117.05057	2683.6375
2120.03233	2671.5375
2123.01216	2675.5375
2125.99008	2684.5375
2128.96609	2673.4375
2131.94018	2677.0375
2134.91236	2686.0375
2137.88263	2677.9375
2140.851	2680.1375
2143.81746	2679.5375
2146.78201	2678.7375
2149.74466	2666.2375
2152.7054	2678.0375
2155.66425	2681.6375
2158.6212	2664.4375
2161.57625	2666.1375
2164.52941	2668.8375
2167.48067	2658.0375
2170.43004	2652.1375
2173.37752	2658.6375
2176.32311	2649.0375
2179.26681	2651.4375
2182.20863	2653.1375
2185.14856	2656.0375
2188.08661	2642.4375
2191.02278	2645.7375
2193.95707	2645.8375
2196.88948	2636.3375
2199.82001	2618.7375
2202.74867	2611.3375
2205.67545	2625.0375
2208.60037	2624.6375
2211.52341	2613.3375
2214.44458	2605.8375
2217.36388	2604.2375
2220.28132	2586.3375
2223.1969	2594.3375
2226.11061	2575.6375
2229.02246	2579.4375
2231.93245	2578.4375
2234.84058	2557.5375
2237.74686	2558.3375
2240.65128	2552.8375
2243.55385	2568.4375
2246.45456	2551.5375
2249.35343	2548.9375
2252.25044	2547.7375
2255.14561	2544.2375
2258.03893	2539.5375
2260.93041	2553.4375
2263.82004	2536.5375
2266.70783	2540.9375
2269.59378	2533.5375
2272.4779	2527.5375
2275.36017	2525.7375
2278.24061	2496.9375
2281.11922	2516.9375
2283.996	2493.0375
2286.87094	2490.9375
2289.74405	2486.8375
2292.61534	2471.4375
2295.4848	2460.8375
2298.35243	2450.9375
2301.21824	2448.7375
2304.08223	2459.3375
2306.94439	2463.0375
2309.80474	2453.3375
2312.66327	2448.9375
2315.51999	2447.1375
2318.37489	2446.7375
2321.22797	2434.2375
2324.07925	2434.4375
2326.92871	2435.7375
2329.77637	2435.3375
2332.62222	2419.5375
2335.46626	2420.0375
2338.3085	2410.6375
2341.14893	2409.1375
2343.98756	2409.0375
2346.8244	2406.9375
2349.65943	2403.9375
2352.49267	2412.3375
2355.32411	2422.8375
2358.15376	2417.6375
2360.98161	2415.4375
2363.80768	2421.7375
2366.63195	2444.3375
2369.45444	2432.9375
2372.27514	2424.6375
2375.09405	2428.8375
2377.91118	2418.9375
2380.72652	2410.3375
2383.54009	2397.6375
2386.35187	2404.6375
2389.16188	2393.0375
2391.97011	2389.6375
2394.77657	2364.4375
2397.58125	2357.2375
2400.38416	2346.7375
2403.18529	2342.9375
2405.98466	2331.5375
2408.78226	2336.2375
2411.57809	2336.7375
2414.37216	2307.4375
2417.16446	2323.5375
2419.955	2308.8375
2422.74378	2310.9375
2425.5308	2310.2375
2428.31606	2303.9375
2431.09956	2295.9375
2433.88131	2308.1375
2436.6613	2309.1375
2439.43954	2294.0375
2442.21603	2288.6375
2444.99077	2276.1375
2447.76377	2294.6375
2450.53501	2295.8375
2453.30451	2296.7375
2456.07226	2288.2375
2458.83827	2289.6375
2461.60254	2279.4375
2464.36507	2273.9375
2467.12586	2279.2375
2469.88492	2269.7375
2472.64224	2277.1375
2475.39782	2286.0375
2478.15167	2278.2375
2480.90379	2286.6375
2483.65417	2284.6375
2486.40283	2280.1375
2489.14976	2283.4375
2491.89497	2297.7375
2494.63845	2300.7375
2497.3802	2289.2375
2500.12024	2287.9375
2502.85855	2276.1375
2505.59514	2270.8375
2508.33002	2259.9375
2511.06318	2258.9375
2513.79462	2247.8375
2516.52435	2221.2375
2519.25237	2226.3375
2521.97867	2223.9375
2524.70327	2208.9375
2527.42616	2218.3375
2530.14734	2209.1375
2532.86681	2202.6375
2535.58458	2202.9375
2538.30065	2194.5375
2541.01501	2198.4375
2543.72768	2184.8375
2546.43864	2170.0375
2549.14791	2182.1375
2551.85548	2177.1375
2554.56136	2177.2375
2557.26554	2162.3375
2559.96803	2164.0375
2562.66883	2174.3375
2565.36794	2159.0375
2568.06536	2166.6375
2570.7611	2162.3375
2573.45514	2145.4375
2576.14751	2158.1375
2578.83819	2145.1375
2581.52719	2146.0375
2584.21451	2134.1375
2586.90015	2124.7375
2589.58411	2123.0375
2592.2664	2125.8375
2594.94701	2111.3375
2597.62594	2105.9375
2600.30321	2108.8375
2602.9788	2104.2375
2605.65273	2109.3375
2608.32498	2108.0375
2610.99557	2104.7375
2613.66449	2098.8375
2616.33175	2105.4375
2618.99734	2089.6375
2621.66128	2086.4375
2624.32355	2091.5375
2626.98416	2088.9375
2629.64311	2083.0375
2632.30041	2075.9375
2634.95605	2078.9375
2637.61004	2061.4375
2640.26238	2060.3375
2642.91306	2055.2375
2645.56209	2054.1375
2648.20948	2062.0375
2650.85521	2063.1375
2653.4993	2058.7375
2656.14175	2056.1375
2658.78255	2056.6375
2661.42171	2068.9375
2664.05923	2053.7375
2666.6951	2067.0375
2669.32934	2065.8375
2671.96194	2057.7375
2674.59291	2067.4375
2677.22224	2072.6375
2679.84993	2078.1375
2682.476	2070.7375
2685.10043	2055.4375
2687.72324	2066.5375
2690.34441	2061.2375
2692.96396	2062.5375
2695.58188	2086.3375
2698.19818	2068.1375
2700.81285	2064.1375
2703.4259	2086.3375
2706.03733	2109.1375
2708.64714	2094.7375
2711.25533	2087.0375
2713.86191	2081.4375
2716.46687	2085.1375
2719.07021	2080.4375
2721.67194	2094.4375
2724.27206	2085.2375
2726.87057	2085.2375
2729.46747	2076.9375
2732.06276	2069.1375
2734.65644	2075.6375
2737.24852	2065.3375
2739.83899	2074.5375
2742.42786	2072.4375
2745.01513	2060.6375
2747.60079	2061.0375
2750.18486	2057.5375
2752.76733	2062.3375
2755.3482	2045.2375
2757.92747	2047.9375
2760.50515	2047.6375
2763.08123	2040.4375
2765.65573	2037.7375
2768.22863	2039.3375
2770.79994	2038.2375
2773.36967	2040.5375
2775.9378	2040.2375
2778.50435	2025.9375
2781.06932	2035.7375
2783.6327	2029.9375
2786.1945	2031.7375
2788.75471	2032.4375
2791.31335	2032.7375
2793.87041	2026.8375
2796.42589	2024.2375
2798.97979	2021.2375
2801.53212	2022.0375
2804.08288	2017.0375
2806.63206	2018.9375
2809.17967	2010.7375
2811.72571	2020.7375
2814.27018	2012.4375
2816.81308	2010.6375
2819.35442	2026.8375
2821.89419	2017.0375
2824.43239	2025.9375
2826.96904	2015.9375
2829.50412	2021.9375
2832.03763	2029.5375
2834.56959	2069.0375
2837.1	2029.6375
2839.62884	2029.2375
2842.15613	2042.2375
2844.68186	2050.5375
2847.20604	2052.5375
2849.72867	2069.9375
2852.24974	2081.1375
2854.76927	2091.8375
2857.28724	2073.4375
2859.80367	2071.9375
2862.31855	2077.4375
2864.83189	2072.6375
2867.34368	2072.5375
2869.85393	2069.0375
2872.36264	2067.0375
2874.8698	2084.7375
2877.37543	2065.9375
2879.87952	2066.8375
2882.38207	2072.8375
2884.88308	2063.8375
2887.38256	2066.7375
2889.88051	2072.0375
2892.37692	2082.8375
2894.8718	2070.4375
2897.36515	2074.8375
2899.85698	2071.9375
2902.34727	2075.7375
2904.83604	2075.9375
2907.32328	2081.7375
2909.809	2085.5375
2912.29319	2079.6375
2914.77587	2079.9375
2917.25702	2078.0375
2919.73665	2078.7375
2922.21476	2063.7375
2924.69136	2065.8375
2927.16644	2070.6375
2929.64	2064.6375
2932.11205	2065.9375
2934.58258	2056.7375
2937.05161	2049.9375
2939.51912	2044.3375
2941.98513	2037.8375
2944.44962	2034.4375
2946.91261	2020.5375
2949.37409	2031.1375
2951.83407	2011.7375
2954.29254	2011.1375
2956.74951	2003.4375
2959.20498	1991.9375
2961.65895	1984.0375
2964.11142	1980.5375
2966.56239	1976.8375
2969.01186	1974.6375
2971.45984	1969.1375
2973.90632	1960.3375
2976.35131	1962.2375
2978.7948	1971.1375
2981.23681	1950.1375
2983.67732	1952.4375
2986.11635	1951.0375
2988.55388	1945.4375
2990.98993	1936.2375
2993.4245	1941.7375
2995.85758	1933.6375
2998.28917	1927.2375
3000.71928	1926.3375
3003.14791	1926.5375
3005.57506	1939.5375
3008.00073	1928.6375
3010.42493	1934.2375
3012.84764	1937.1375
3015.26888	1938.2375
3017.68865	1924.8375
3020.10694	1927.7375
3022.52376	1927.3375
3024.9391	1926.8375
3027.35298	1920.7375
3029.76539	1924.0375
3032.17632	1928.1375
3034.5858	1928.4375
3036.9938	1925.5375
3039.40034	1917.2375
3041.80542	1934.9375
3044.20903	1919.0375
3046.61118	1913.9375
3049.01187	1920.3375
3051.4111	1918.0375
3053.80888	1924.0375
3056.20519	1925.4375
3058.60005	1918.5375
3060.99345	1925.3375
3063.3854	1920.5375
3065.7759	1912.8375
3068.16494	1921.0375
3070.55254	1915.7375
3072.93868	1924.3375
3075.32338	1927.6375
3077.70662	1917.8375
3080.08842	1932.7375
3082.46878	1922.7375
3084.84769	1932.5375
3087.22515	1932.7375
3089.60118	1931.1375
3091.97576	1938.4375
3094.3489	1943.1375
3096.72061	1944.6375
3099.09087	1951.6375
3101.4597	1949.9375
3103.82709	1942.1375
3106.19305	1955.0375
3108.55757	1961.2375
3110.92066	1940.0375
3113.28232	1947.1375
3115.64255	1967.3375
3118.00134	1974.3375
3120.35871	1979.8375
3122.71466	1969.5375
3125.06917	1986.3375
3127.42226	1985.4375
3129.77393	1993.9375
3132.12417	2001.6375
3134.47299	2015.2375
3136.82039	2014.8375
3139.16636	2018.8375
3141.51092	2027.2375
3143.85406	2025.7375
3146.19579	2033.5375
3148.53609	2042.1375
3150.87499	2060.7375
3153.21246	2065.6375
3155.54853	2071.5375
3157.88318	2077.8375
3160.21642	2081.8375
3162.54826	2089.9375
3164.87868	2089.2375
3167.2077	2100.8375
3169.5353	2092.6375
3171.86151	2106.7375
3174.18631	2111.4375
3176.5097	2118.7375
3178.83169	2112.4375
3181.15228	2125.0375
3183.47147	2132.2375
3185.78926	2142.2375
3188.10565	2139.6375
3190.42065	2156.6375
3192.73424	2154.5375
3195.04645	2161.1375
3197.35725	2170.1375
3199.66667	2185.4375
3201.97469	2194.6375
3204.28132	2197.9375
3206.58656	2207.6375
3208.8904	2206.4375
3211.19287	2209.9375
3213.49394	2217.5375
3215.79363	2230.6375
3218.09193	2232.4375
3220.38884	2234.1375
3222.68438	2251.4375
3224.97853	2226.2375
3227.2713	2235.5375
3229.56269	2230.3375
3231.8527	2247.6375
3234.14133	2226.8375
3236.42858	2228.5375
3238.71446	2231.9375
3240.99896	2228.0375
3243.28209	2235.5375
3245.56384	2238.4375
3247.84423	2237.1375
3250.12324	2225.8375
3252.40088	2230.6375
3254.67715	2228.7375
3256.95205	2248.0375
3259.22558	2240.4375
3261.49775	2229.2375
3263.76855	2233.9375
3266.03799	2227.1375
3268.30606	2220.9375
3270.57277	2224.6375
3272.83812	2223.8375
3275.10211	2221.1375
3277.36474	2206.9375
3279.62601	2217.9375
3281.88593	2216.3375
3284.14448	2230.4375
3286.40168	2222.8375
3288.65753	2215.5375
3290.91202	2206.7375
3293.16516	2212.4375
3295.41695	2203.1375
3297.66738	2186.9375
3299.91647	2185.9375
3302.16421	2167.4375
3304.4106	2164.0375
3306.65564	2149.2375
3308.89933	2151.1375
3311.14169	2125.7375
3313.38269	2110.6375
3315.62236	2101.8375
3317.86068	2085.3375
3320.09766	2056.2375
3322.3333	2042.4375
3324.5676	2063.7375
3326.80056	2028.3375
3329.03219	2012.1375
3331.26248	0.2375
3333.49143	0.2375
3335.71905	-0.7625
