Data from AgNPs_FTO_APTES_UA_0.1mM_CRN_10uM_NaF_0.1M_Addition_RamanShift__21__11-42-57-560.txt Node

Date: Mon Dec 20 11:42:57 GMT 2021
User: TCL
Spectrometer: QEP01345
Trigger mode: 4
Integration Time (sec): 7.000000E0
Scans to average: 10
Electric dark correction enabled: true
Nonlinearity correction enabled: false
Boxcar width: 0
XAxis mode: Raman Shifts
Number of Pixels in Spectrum: 1044
>>>>>Begin Spectral Data<<<<<
46.04893	-0.975
50.45542	0.125
54.85868	-1.175
59.25871	0.425
63.6555	33.825
68.04907	36.325
72.43941	38.925
76.82654	40.225
81.21044	41.125
85.59113	46.825
89.96862	46.025
94.34289	46.425
98.71396	50.125
103.08183	49.225
107.4465	48.125
111.80798	52.625
116.16626	54.025
120.52136	54.825
124.87327	57.725
129.222	56.425
133.56755	58.325
137.90993	63.625
142.24913	68.325
146.58517	74.225
150.91804	88.125
155.24774	101.825
159.57429	123.125
163.89768	154.725
168.21792	206.025
172.53501	262.925
176.84895	362.725
181.15975	503.825
185.46741	699.825
189.77193	968.225
194.07331	1280.425
198.37157	1660.025
202.6667	2068.625
206.9587	2474.025
211.24758	2861.025
215.53334	3250.825
219.81599	3671.725
224.09553	4105.625
228.37195	4561.325
232.64527	5059.325
236.91549	5607.925
241.18261	6129.525
245.44663	6638.225
249.70755	7106.825
253.96539	7470.525
258.22014	7793.325
262.4718	8029.625
266.72039	8176.425
270.96589	8232.825
275.20832	8208.925
279.44768	8130.225
283.68397	8027.025
287.91719	7925.425
292.14735	7817.625
296.37445	7803.925
300.59849	7783.525
304.81948	7768.025
309.03742	7740.525
313.25231	7680.525
317.46415	7552.125
321.67296	7404.925
325.87872	7258.625
330.08145	7185.025
334.28114	7190.725
338.47781	7210.925
342.67145	7297.525
346.86207	7377.825
351.04966	7525.625
355.23424	7654.325
359.4158	7785.925
363.59435	7906.825
367.76989	7999.325
371.94243	8080.425
376.11196	8138.225
380.27849	8204.325
384.44203	8287.125
388.60257	8358.325
392.76012	8404.425
396.91468	8485.425
401.06626	8590.025
405.21485	8667.925
409.36047	8629.625
413.50311	8569.925
417.64277	8484.725
421.77947	8446.825
425.9132	8424.125
430.04396	8430.125
434.17176	8486.125
438.2966	8565.525
442.41849	8617.725
446.53742	8760.425
450.6534	8904.225
454.76644	9010.525
458.87653	9066.825
462.98368	9075.225
467.08789	9042.025
471.18916	9023.625
475.2875	9021.625
479.38291	9078.225
483.4754	9130.625
487.56496	9217.025
491.6516	9295.925
495.73531	9354.325
499.81612	9351.025
503.89401	9261.225
507.96899	9180.925
512.04106	9104.525
516.11023	9072.625
520.1765	9073.225
524.23987	9106.525
528.30034	9114.625
532.35792	9090.025
536.41261	9045.325
540.46441	8967.225
544.51333	8857.925
548.55936	8850.425
552.60252	8819.625
556.64279	8896.625
560.6802	8940.725
564.71473	8966.525
568.7464	9054.725
572.7752	9119.625
576.80114	9202.125
580.82422	9210.825
584.84444	9314.625
588.86181	9433.625
592.87633	9540.125
596.888	9568.525
600.89682	9571.325
604.9028	9698.625
608.90594	10271.925
612.90624	11060.425
616.90371	10959.325
620.89834	10064.325
624.89015	9872.825
628.87913	10202.325
632.86528	10694.225
636.84862	10989.025
640.82913	10910.325
644.80683	10506.225
648.78172	10038.225
652.75379	9707.525
656.72306	9504.025
660.68952	9467.225
664.65319	9383.225
668.61405	9332.125
672.57211	9322.825
676.52738	9356.325
680.47986	9376.325
684.42955	9388.025
688.37646	9353.025
692.32058	9304.025
696.26192	9209.725
700.20048	9179.325
704.13626	9100.825
708.06928	9012.225
711.99952	8946.625
715.927	8881.925
719.85171	8879.325
723.77365	8905.325
727.69284	8874.125
731.60928	8842.825
735.52295	8758.425
739.43388	8726.525
743.34206	8732.325
747.24749	8741.125
751.15017	8745.525
755.05012	8784.925
758.94733	8898.325
762.8418	9111.225
766.73354	9507.025
770.62254	9937.225
774.50882	10172.425
778.39237	9942.725
782.27321	9452.425
786.15132	9051.625
790.02671	8811.325
793.89938	8721.725
797.76935	8703.225
801.6366	8779.125
805.50115	8931.525
809.36299	9137.825
813.22213	9199.625
817.07857	9076.025
820.93231	8873.525
824.78336	8630.225
828.63172	8463.225
832.47738	8387.125
836.32036	8341.225
840.16066	8309.225
843.99827	8284.725
847.8332	8279.525
851.66546	8265.725
855.49504	8267.325
859.32195	8283.225
863.1462	8305.325
866.96777	8348.225
870.78668	8434.025
874.60293	8545.925
878.41652	8684.825
882.22745	8819.125
886.03573	8881.025
889.84136	8879.425
893.64433	8736.125
897.44466	8542.725
901.24235	8330.025
905.0374	8197.925
908.8298	8075.125
912.61957	8019.925
916.40671	8013.825
920.19121	8023.925
923.97308	8037.425
927.75233	8013.825
931.52895	8000.625
935.30295	7958.025
939.07433	7896.125
942.84309	7842.425
946.60924	7802.725
950.37278	7800.325
954.13371	7791.425
957.89203	7731.725
961.64774	7737.025
965.40086	7716.025
969.15137	7659.625
972.89929	7622.125
976.64461	7589.325
980.38733	7578.825
984.12747	7564.225
987.86502	7585.425
991.59999	7617.525
995.33237	7679.725
999.06217	7783.025
1002.78939	7899.725
1006.51404	8015.525
1010.23611	8106.425
1013.95561	8189.425
1017.67255	8221.525
1021.38692	8155.425
1025.09872	8042.425
1028.80796	7957.425
1032.51465	7878.125
1036.21877	7871.625
1039.92035	7837.425
1043.61937	7838.225
1047.31584	7791.925
1051.00976	7787.825
1054.70114	7761.225
1058.38998	7791.625
1062.07627	7845.425
1065.76003	7923.125
1069.44126	7992.825
1073.11995	8017.225
1076.79611	8052.525
1080.46974	8055.225
1084.14085	8022.625
1087.80943	7994.625
1091.47549	7986.725
1095.13903	7933.925
1098.80005	7867.525
1102.45857	7760.925
1106.11456	7729.025
1109.76805	7783.625
1113.41903	7877.525
1117.06751	8044.325
1120.71348	8320.825
1124.35696	8668.325
1127.99793	9141.625
1131.63641	9547.925
1135.2724	9775.925
1138.90589	9769.425
1142.5369	9566.325
1146.16542	9188.825
1149.79145	8828.725
1153.415	8480.025
1157.03607	8236.325
1160.65467	8160.625
1164.27079	8166.225
1167.88443	8281.825
1171.49561	8507.725
1175.10432	8834.425
1178.71056	9277.225
1182.31434	9724.325
1185.91565	9952.025
1189.51451	10006.325
1193.11091	9940.625
1196.70485	9885.725
1200.29634	9798.525
1203.88538	9740.025
1207.47197	9595.225
1211.05612	9365.125
1214.63782	9100.425
1218.21708	8892.425
1221.79391	8662.625
1225.36829	8517.325
1228.94024	8381.925
1232.50976	8290.425
1236.07685	8189.925
1239.6415	8169.425
1243.20374	8180.925
1246.76355	8220.025
1250.32093	8269.025
1253.8759	8351.425
1257.42845	8454.025
1260.97859	8565.225
1264.52631	8663.225
1268.07163	8772.925
1271.61453	8868.825
1275.15503	8972.325
1278.69312	9041.625
1282.22882	9110.125
1285.76211	9230.725
1289.29301	9393.725
1292.82151	9613.825
1296.34761	9900.825
1299.87133	10270.325
1303.39266	10668.425
1306.9116	11147.525
1310.42815	11636.325
1313.94233	11978.325
1317.45412	11996.525
1320.96354	11842.125
1324.47058	11642.625
1327.97525	11397.025
1331.47754	11260.625
1334.97747	11210.525
1338.47502	11263.425
1341.97022	11338.625
1345.46305	11414.225
1348.95352	11543.725
1352.44163	11723.425
1355.92738	12091.625
1359.41078	12620.425
1362.89183	13089.925
1366.37053	12997.525
1369.84688	12155.025
1373.32088	11129.225
1376.79254	10436.025
1380.26186	10078.825
1383.72883	9936.025
1387.19347	9840.325
1390.65578	9738.725
1394.11575	9611.225
1397.57339	9590.225
1401.0287	9599.825
1404.48168	9629.025
1407.93234	9573.125
1411.38068	9444.525
1414.82669	9221.225
1418.27039	8909.325
1421.71177	8617.925
1425.15083	8372.125
1428.58758	8190.025
1432.02203	8131.925
1435.45416	8195.225
1438.88399	8243.525
1442.31151	8329.825
1445.73673	8404.525
1449.15965	8480.025
1452.58027	8539.425
1455.9986	8567.325
1459.41463	8604.025
1462.82837	8666.325
1466.23982	8785.225
1469.64898	8891.225
1473.05586	8957.625
1476.46045	8963.325
1479.86276	8950.925
1483.26279	8930.825
1486.66054	8967.025
1490.05602	8981.725
1493.44922	9070.925
1496.84016	9247.225
1500.22882	9440.525
1503.61521	9767.325
1506.99934	10208.825
1510.38121	10558.625
1513.76081	10685.625
1517.13816	10452.425
1520.51324	9971.225
1523.88607	9523.025
1527.25665	9258.425
1530.62498	9107.125
1533.99105	9094.425
1537.35488	9083.125
1540.71647	9105.125
1544.07581	9070.225
1547.4329	9047.425
1550.78776	9037.625
1554.14038	9005.125
1557.49077	9037.525
1560.83892	9086.125
1564.18484	9147.625
1567.52853	9208.125
1570.86999	9249.225
1574.20922	9311.225
1577.54624	9312.725
1580.88103	9285.725
1584.2136	9209.425
1587.54395	9225.325
1590.87208	9359.925
1594.19801	9593.125
1597.52172	9943.125
1600.84321	10094.725
1604.16251	9968.025
1607.47959	9622.425
1610.79447	9268.125
1614.10715	8889.225
1617.41763	8597.625
1620.7259	8396.625
1624.03199	8296.525
1627.33587	8321.425
1630.63757	8412.625
1633.93707	8639.025
1637.23439	9020.825
1640.52951	9571.425
1643.82246	10222.525
1647.11321	10874.725
1650.40179	11169.425
1653.68819	10944.025
1656.97241	10196.825
1660.25446	9387.525
1663.53433	8736.525
1666.81203	8282.225
1670.08756	7985.525
1673.36092	7766.425
1676.63211	7629.225
1679.90115	7503.725
1683.16801	7362.925
1686.43272	7233.725
1689.69527	7131.825
1692.95567	6997.925
1696.2139	6882.025
1699.46999	6744.725
1702.72392	6622.025
1705.97571	6516.725
1709.22535	6419.025
1712.47284	6369.125
1715.71819	6298.125
1718.96139	6249.225
1722.20246	6178.325
1725.44139	6114.425
1728.67818	6060.925
1731.91284	5990.225
1735.14537	5929.225
1738.37576	5891.925
1741.60403	5838.425
1744.83017	5823.625
1748.05418	5813.325
1751.27607	5778.925
1754.49584	5765.925
1757.71349	5775.025
1760.92903	5751.425
1764.14244	5738.725
1767.35375	5712.925
1770.56294	5699.125
1773.77002	5676.425
1776.97499	5654.825
1780.17785	5629.225
1783.37861	5587.825
1786.57727	5554.525
1789.77382	5528.025
1792.96828	5521.625
1796.16064	5490.125
1799.3509	5473.925
1802.53907	5458.725
1805.72514	5435.425
1808.90913	5426.425
1812.09102	5419.225
1815.27083	5396.125
1818.44856	5383.025
1821.6242	5369.225
1824.79776	5363.125
1827.96924	5345.425
1831.13864	5331.525
1834.30597	5325.925
1837.47122	5316.725
1840.6344	5301.225
1843.7955	5294.025
1846.95454	5308.425
1850.11151	5311.825
1853.26642	5292.025
1856.41926	5295.725
1859.57004	5295.525
1862.71876	5270.525
1865.86542	5267.225
1869.01003	5277.625
1872.15258	5254.025
1875.29308	5265.425
1878.43152	5246.925
1881.56792	5227.125
1884.70227	5223.925
1887.83457	5224.725
1890.96482	5188.725
1894.09304	5196.825
1897.21921	5199.325
1900.34335	5169.025
1903.46544	5182.425
1906.58551	5175.425
1909.70353	5152.125
1912.81953	5142.825
1915.93349	5134.225
1919.04543	5118.125
1922.15534	5120.525
1925.26322	5097.225
1928.36908	5082.025
1931.47292	5092.425
1934.57473	5080.025
1937.67453	5045.625
1940.77232	5042.125
1943.86808	5022.125
1946.96184	4998.325
1950.05358	4989.325
1953.14331	4978.925
1956.23103	4969.625
1959.31675	4938.525
1962.40046	4938.425
1965.48217	4933.825
1968.56188	4918.925
1971.63959	4879.025
1974.7153	4879.225
1977.78901	4872.325
1980.86073	4840.825
1983.93046	4834.225
1986.99819	4808.725
1990.06394	4809.725
1993.1277	4786.625
1996.18947	4765.525
1999.24925	4763.425
2002.30706	4741.125
2005.36288	4721.925
2008.41672	4706.125
2011.46859	4709.225
2014.51848	4700.825
2017.56639	4680.625
2020.61233	4669.125
2023.6563	4648.125
2026.6983	4638.925
2029.73833	4614.125
2032.7764	4605.425
2035.8125	4599.325
2038.84664	4602.125
2041.87881	4593.025
2044.90903	4579.425
2047.93729	4579.525
2050.96359	4560.425
2053.98794	4554.625
2057.01034	4553.525
2060.03078	4546.225
2063.04927	4548.625
2066.06582	4537.625
2069.08042	4524.425
2072.09307	4518.925
2075.10378	4527.125
2078.11255	4521.625
2081.11938	4507.525
2084.12426	4518.625
2087.12722	4496.625
2090.12824	4493.625
2093.12732	4503.825
2096.12447	4501.625
2099.11969	4505.725
2102.11299	4493.925
2105.10435	4505.425
2108.09379	4524.325
2111.08131	4511.125
2114.0669	4510.225
2117.05057	4529.125
2120.03233	4522.325
2123.01216	4525.325
2125.99008	4524.925
2128.96609	4525.425
2131.94018	4530.925
2134.91236	4538.425
2137.88263	4521.625
2140.851	4526.825
2143.81746	4523.125
2146.78201	4513.725
2149.74466	4518.225
2152.7054	4513.925
2155.66425	4528.925
2158.6212	4536.025
2161.57625	4528.725
2164.52941	4516.225
2167.48067	4508.625
2170.43004	4501.325
2173.37752	4494.925
2176.32311	4496.225
2179.26681	4502.225
2182.20863	4492.425
2185.14856	4498.825
2188.08661	4493.025
2191.02278	4485.225
2193.95707	4475.625
2196.88948	4480.025
2199.82001	4475.425
2202.74867	4463.625
2205.67545	4472.225
2208.60037	4441.425
2211.52341	4445.825
2214.44458	4434.425
2217.36388	4444.125
2220.28132	4425.225
2223.1969	4399.125
2226.11061	4390.225
2229.02246	4387.825
2231.93245	4377.025
2234.84058	4371.325
2237.74686	4380.625
2240.65128	4346.725
2243.55385	4351.225
2246.45456	4343.225
2249.35343	4334.325
2252.25044	4354.625
2255.14561	4322.425
2258.03893	4318.625
2260.93041	4328.125
2263.82004	4313.225
2266.70783	4306.025
2269.59378	4297.425
2272.4779	4274.225
2275.36017	4271.825
2278.24061	4270.525
2281.11922	4247.225
2283.996	4241.025
2286.87094	4254.025
2289.74405	4223.725
2292.61534	4196.225
2295.4848	4201.025
2298.35243	4195.025
2301.21824	4179.425
2304.08223	4185.925
2306.94439	4192.425
2309.80474	4183.225
2312.66327	4206.125
2315.51999	4162.625
2318.37489	4200.225
2321.22797	4155.125
2324.07925	4161.625
2326.92871	4163.225
2329.77637	4152.525
2332.62222	4145.125
2335.46626	4130.925
2338.3085	4124.625
2341.14893	4119.425
2343.98756	4117.525
2346.8244	4125.125
2349.65943	4110.825
2352.49267	4107.725
2355.32411	4111.725
2358.15376	4103.325
2360.98161	4098.325
2363.80768	4099.125
2366.63195	4103.125
2369.45444	4095.525
2372.27514	4082.025
2375.09405	4079.625
2377.91118	4080.925
2380.72652	4079.325
2383.54009	4054.025
2386.35187	4047.025
2389.16188	4040.625
2391.97011	4033.825
2394.77657	4005.925
2397.58125	4015.625
2400.38416	4000.825
2403.18529	3996.825
2405.98466	3998.425
2408.78226	3973.025
2411.57809	3982.425
2414.37216	3974.225
2417.16446	3975.825
2419.955	3963.125
2422.74378	3957.525
2425.5308	3954.125
2428.31606	3947.025
2431.09956	3933.625
2433.88131	3938.625
2436.6613	3931.625
2439.43954	3937.425
2442.21603	3914.725
2444.99077	3922.025
2447.76377	3910.325
2450.53501	3905.925
2453.30451	3923.525
2456.07226	3894.925
2458.83827	3897.425
2461.60254	3896.925
2464.36507	3893.325
2467.12586	3889.625
2469.88492	3883.825
2472.64224	3878.025
2475.39782	3875.225
2478.15167	3875.925
2480.90379	3882.025
2483.65417	3863.125
2486.40283	3870.825
2489.14976	3872.725
2491.89497	3868.725
2494.63845	3877.125
2497.3802	3866.525
2500.12024	3867.125
2502.85855	3851.425
2505.59514	3835.325
2508.33002	3839.925
2511.06318	3828.725
2513.79462	3836.025
2516.52435	3831.525
2519.25237	3825.625
2521.97867	3810.025
2524.70327	3811.825
2527.42616	3814.325
2530.14734	3812.825
2532.86681	3779.625
2535.58458	3785.825
2538.30065	3777.325
2541.01501	3772.725
2543.72768	3761.825
2546.43864	3750.725
2549.14791	3752.125
2551.85548	3756.625
2554.56136	3746.725
2557.26554	3746.025
2559.96803	3723.425
2562.66883	3723.925
2565.36794	3721.525
2568.06536	3719.425
2570.7611	3717.525
2573.45514	3724.925
2576.14751	3694.625
2578.83819	3687.525
2581.52719	3692.525
2584.21451	3678.025
2586.90015	3678.125
2589.58411	3677.125
2592.2664	3668.225
2594.94701	3652.225
2597.62594	3647.825
2600.30321	3644.825
2602.9788	3640.625
2605.65273	3639.825
2608.32498	3632.525
2610.99557	3623.325
2613.66449	3622.125
2616.33175	3627.525
2618.99734	3616.125
2621.66128	3614.125
2624.32355	3606.725
2626.98416	3609.125
2629.64311	3603.125
2632.30041	3594.125
2634.95605	3593.225
2637.61004	3590.625
2640.26238	3593.125
2642.91306	3591.825
2645.56209	3585.425
2648.20948	3592.825
2650.85521	3567.625
2653.4993	3561.925
2656.14175	3557.925
2658.78255	3566.225
2661.42171	3563.625
2664.05923	3569.525
2666.6951	3576.625
2669.32934	3566.125
2671.96194	3555.525
2674.59291	3569.425
2677.22224	3567.825
2679.84993	3578.825
2682.476	3569.825
2685.10043	3576.525
2687.72324	3566.525
2690.34441	3559.125
2692.96396	3570.525
2695.58188	3573.225
2698.19818	3560.025
2700.81285	3573.625
2703.4259	3564.025
2706.03733	3603.125
2708.64714	3579.925
2711.25533	3582.025
2713.86191	3569.825
2716.46687	3573.025
2719.07021	3570.125
2721.67194	3587.225
2724.27206	3561.025
2726.87057	3569.225
2729.46747	3564.125
2732.06276	3568.125
2734.65644	3570.125
2737.24852	3562.125
2739.83899	3559.125
2742.42786	3560.625
2745.01513	3554.625
2747.60079	3557.725
2750.18486	3551.225
2752.76733	3544.825
2755.3482	3538.225
2757.92747	3535.925
2760.50515	3523.625
2763.08123	3513.825
2765.65573	3512.425
2768.22863	3527.525
2770.79994	3515.025
2773.36967	3519.525
2775.9378	3507.825
2778.50435	3502.325
2781.06932	3501.525
2783.6327	3492.925
2786.1945	3504.925
2788.75471	3486.225
2791.31335	3474.725
2793.87041	3484.025
2796.42589	3465.125
2798.97979	3464.525
2801.53212	3460.525
2804.08288	3455.225
2806.63206	3439.325
2809.17967	3446.825
2811.72571	3419.525
2814.27018	3422.225
2816.81308	3426.425
2819.35442	3421.625
2821.89419	3413.125
2824.43239	3411.325
2826.96904	3405.825
2829.50412	3403.525
2832.03763	3393.325
2834.56959	3405.825
2837.1	3397.725
2839.62884	3396.525
2842.15613	3388.425
2844.68186	3395.925
2847.20604	3398.225
2849.72867	3394.725
2852.24974	3409.325
2854.76927	3387.525
2857.28724	3397.725
2859.80367	3389.625
2862.31855	3391.325
2864.83189	3378.425
2867.34368	3384.325
2869.85393	3375.825
2872.36264	3382.325
2874.8698	3379.625
2877.37543	3392.725
2879.87952	3385.125
2882.38207	3393.625
2884.88308	3392.225
2887.38256	3393.125
2889.88051	3380.425
2892.37692	3403.925
2894.8718	3394.925
2897.36515	3406.225
2899.85698	3391.925
2902.34727	3413.225
2904.83604	3403.725
2907.32328	3420.125
2909.809	3418.225
2912.29319	3403.425
2914.77587	3421.025
2917.25702	3407.025
2919.73665	3407.325
2922.21476	3420.925
2924.69136	3413.925
2927.16644	3412.525
2929.64	3426.925
2932.11205	3419.125
2934.58258	3416.925
2937.05161	3412.125
2939.51912	3413.725
2941.98513	3403.925
2944.44962	3392.425
2946.91261	3393.725
2949.37409	3398.925
2951.83407	3396.025
2954.29254	3401.325
2956.74951	3384.925
2959.20498	3373.825
2961.65895	3366.925
2964.11142	3375.825
2966.56239	3366.625
2969.01186	3361.125
2971.45984	3347.025
2973.90632	3330.025
2976.35131	3327.125
2978.7948	3341.325
2981.23681	3312.225
2983.67732	3313.325
2986.11635	3318.825
2988.55388	3311.625
2990.98993	3299.725
2993.4245	3306.125
2995.85758	3288.325
2998.28917	3287.225
3000.71928	3269.125
3003.14791	3267.225
3005.57506	3271.325
3008.00073	3277.725
3010.42493	3270.225
3012.84764	3271.525
3015.26888	3271.125
3017.68865	3261.325
3020.10694	3274.925
3022.52376	3258.225
3024.9391	3248.125
3027.35298	3252.925
3029.76539	3239.225
3032.17632	3238.725
3034.5858	3238.325
3036.9938	3248.125
3039.40034	3238.725
3041.80542	3232.525
3044.20903	3241.425
3046.61118	3226.725
3049.01187	3232.025
3051.4111	3212.825
3053.80888	3228.325
3056.20519	3225.425
3058.60005	3225.125
3060.99345	3210.825
3063.3854	3208.825
3065.7759	3212.225
3068.16494	3199.925
3070.55254	3200.125
3072.93868	3192.825
3075.32338	3205.325
3077.70662	3213.225
3080.08842	3209.425
3082.46878	3199.125
3084.84769	3216.425
3087.22515	3198.225
3089.60118	3203.525
3091.97576	3222.425
3094.3489	3207.625
3096.72061	3226.525
3099.09087	3221.525
3101.4597	3221.125
3103.82709	3221.325
3106.19305	3223.325
3108.55757	3232.625
3110.92066	3233.625
3113.28232	3222.525
3115.64255	3208.125
3118.00134	3228.225
3120.35871	3224.325
3122.71466	3228.125
3125.06917	3231.725
3127.42226	3220.525
3129.77393	3233.325
3132.12417	3240.825
3134.47299	3245.925
3136.82039	3242.425
3139.16636	3241.225
3141.51092	3245.825
3143.85406	3260.925
3146.19579	3268.725
3148.53609	3274.225
3150.87499	3280.125
3153.21246	3274.425
3155.54853	3288.325
3157.88318	3297.925
3160.21642	3305.325
3162.54826	3315.125
3164.87868	3304.425
3167.2077	3311.525
3169.5353	3315.925
3171.86151	3326.325
3174.18631	3314.225
3176.5097	3309.225
3178.83169	3322.525
3181.15228	3328.125
3183.47147	3331.025
3185.78926	3332.825
3188.10565	3336.225
3190.42065	3342.925
3192.73424	3355.625
3195.04645	3345.825
3197.35725	3343.325
3199.66667	3355.325
3201.97469	3367.125
3204.28132	3383.625
3206.58656	3372.325
3208.8904	3382.225
3211.19287	3386.425
3213.49394	3404.325
3215.79363	3392.925
3218.09193	3402.425
3220.38884	3407.925
3222.68438	3403.725
3224.97853	3397.025
3227.2713	3404.625
3229.56269	3392.225
3231.8527	3398.525
3234.14133	3387.925
3236.42858	3396.425
3238.71446	3381.125
3240.99896	3377.925
3243.28209	3380.625
3245.56384	3381.725
3247.84423	3383.825
3250.12324	3374.325
3252.40088	3383.725
3254.67715	3375.825
3256.95205	3357.825
3259.22558	3389.325
3261.49775	3371.825
3263.76855	3369.625
3266.03799	3357.825
3268.30606	3363.825
3270.57277	3340.725
3272.83812	3355.925
3275.10211	3344.425
3277.36474	3345.025
3279.62601	3342.825
3281.88593	3328.825
3284.14448	3344.025
3286.40168	3341.525
3288.65753	3339.625
3290.91202	3331.425
3293.16516	3315.425
3295.41695	3311.525
3297.66738	3297.625
3299.91647	3281.225
3302.16421	3260.125
3304.4106	3258.425
3306.65564	3238.825
3308.89933	3219.425
3311.14169	3194.525
3313.38269	3177.825
3315.62236	3167.125
3317.86068	3139.525
3320.09766	3103.725
3322.3333	3089.725
3324.5676	3089.125
3326.80056	3040.025
3329.03219	3023.125
3331.26248	0.825
3333.49143	0.325
3335.71905	-0.175
