Data from AgNPs_FTO_APTES_UA_0.1mM_CRN_10uM_NaF_0.1M_Addition_RamanShift__20__11-41-47-559.txt Node

Date: Mon Dec 20 11:41:47 GMT 2021
User: TCL
Spectrometer: QEP01345
Trigger mode: 4
Integration Time (sec): 7.000000E0
Scans to average: 10
Electric dark correction enabled: true
Nonlinearity correction enabled: false
Boxcar width: 0
XAxis mode: Raman Shifts
Number of Pixels in Spectrum: 1044
>>>>>Begin Spectral Data<<<<<
46.04893	-0.0125
50.45542	-0.3125
54.85868	-1.7125
59.25871	0.8875
63.6555	34.0875
68.04907	37.6875
72.43941	40.9875
76.82654	41.8875
81.21044	42.5875
85.59113	47.7875
89.96862	45.4875
94.34289	46.7875
98.71396	47.2875
103.08183	48.3875
107.4465	50.6875
111.80798	53.4875
116.16626	53.1875
120.52136	55.1875
124.87327	54.9875
129.222	58.7875
133.56755	59.7875
137.90993	65.2875
142.24913	70.0875
146.58517	74.8875
150.91804	89.5875
155.24774	104.0875
159.57429	126.7875
163.89768	163.2875
168.21792	206.3875
172.53501	269.0875
176.84895	373.9875
181.15975	520.8875
185.46741	719.9875
189.77193	990.9875
194.07331	1322.0875
198.37157	1722.0875
202.6667	2126.5875
206.9587	2537.5875
211.24758	2957.2875
215.53334	3356.0875
219.81599	3785.6875
224.09553	4236.8875
228.37195	4698.0875
232.64527	5244.2875
236.91549	5813.0875
241.18261	6345.7875
245.44663	6860.1875
249.70755	7330.8875
253.96539	7733.0875
258.22014	8053.6875
262.4718	8298.1875
266.72039	8446.6875
270.96589	8524.5875
275.20832	8480.8875
279.44768	8384.4875
283.68397	8266.7875
287.91719	8165.5875
292.14735	8051.1875
296.37445	8014.4875
300.59849	8025.1875
304.81948	8007.4875
309.03742	7985.6875
313.25231	7918.4875
317.46415	7779.9875
321.67296	7620.8875
325.87872	7485.2875
330.08145	7400.5875
334.28114	7385.7875
338.47781	7431.9875
342.67145	7509.7875
346.86207	7625.3875
351.04966	7761.0875
355.23424	7899.8875
359.4158	8034.9875
363.59435	8139.7875
367.76989	8232.8875
371.94243	8315.8875
376.11196	8385.2875
380.27849	8459.6875
384.44203	8531.4875
388.60257	8608.4875
392.76012	8676.7875
396.91468	8726.0875
401.06626	8844.7875
405.21485	8904.7875
409.36047	8921.8875
413.50311	8834.7875
417.64277	8740.7875
421.77947	8698.2875
425.9132	8672.1875
430.04396	8699.8875
434.17176	8727.1875
438.2966	8802.0875
442.41849	8877.6875
446.53742	9001.8875
450.6534	9139.7875
454.76644	9247.9875
458.87653	9313.4875
462.98368	9317.6875
467.08789	9303.1875
471.18916	9293.6875
475.2875	9281.0875
479.38291	9306.6875
483.4754	9371.2875
487.56496	9471.5875
491.6516	9557.2875
495.73531	9617.9875
499.81612	9610.0875
503.89401	9552.5875
507.96899	9463.0875
512.04106	9407.1875
516.11023	9348.5875
520.1765	9352.6875
524.23987	9365.7875
528.30034	9381.6875
532.35792	9380.2875
536.41261	9324.8875
540.46441	9211.7875
544.51333	9140.5875
548.55936	9108.4875
552.60252	9106.8875
556.64279	9166.6875
560.6802	9201.2875
564.71473	9243.8875
568.7464	9306.5875
572.7752	9388.8875
576.80114	9420.0875
580.82422	9439.2875
584.84444	9533.1875
588.86181	9666.5875
592.87633	9769.6875
596.888	9809.6875
600.89682	9785.4875
604.9028	9969.6875
608.90594	10549.2875
612.90624	11408.1875
616.90371	11357.9875
620.89834	10364.0875
624.89015	10102.1875
628.87913	10441.2875
632.86528	10906.6875
636.84862	11187.9875
640.82913	11135.3875
644.80683	10761.8875
648.78172	10314.1875
652.75379	9958.7875
656.72306	9789.5875
660.68952	9726.2875
664.65319	9700.1875
668.61405	9609.5875
672.57211	9616.1875
676.52738	9664.5875
680.47986	9708.2875
684.42955	9664.7875
688.37646	9670.5875
692.32058	9623.2875
696.26192	9533.2875
700.20048	9469.7875
704.13626	9406.1875
708.06928	9331.0875
711.99952	9219.1875
715.927	9154.8875
719.85171	9178.4875
723.77365	9151.9875
727.69284	9154.8875
731.60928	9098.3875
735.52295	9035.1875
739.43388	9003.1875
743.34206	9010.3875
747.24749	9031.8875
751.15017	9053.1875
755.05012	9063.4875
758.94733	9160.9875
762.8418	9395.7875
766.73354	9801.7875
770.62254	10273.9875
774.50882	10508.4875
778.39237	10298.0875
782.27321	9800.2875
786.15132	9335.5875
790.02671	9085.5875
793.89938	9000.3875
797.76935	8993.1875
801.6366	9068.8875
805.50115	9187.7875
809.36299	9380.5875
813.22213	9441.3875
817.07857	9335.3875
820.93231	9120.9875
824.78336	8891.7875
828.63172	8744.5875
832.47738	8660.5875
836.32036	8600.1875
840.16066	8583.6875
843.99827	8578.6875
847.8332	8562.3875
851.66546	8532.7875
855.49504	8547.3875
859.32195	8531.7875
863.1462	8572.9875
866.96777	8617.4875
870.78668	8705.9875
874.60293	8810.2875
878.41652	8939.8875
882.22745	9060.6875
886.03573	9151.1875
889.84136	9119.0875
893.64433	8996.0875
897.44466	8786.5875
901.24235	8600.0875
905.0374	8456.4875
908.8298	8358.6875
912.61957	8306.6875
916.40671	8262.6875
920.19121	8286.9875
923.97308	8281.7875
927.75233	8294.5875
931.52895	8273.7875
935.30295	8231.6875
939.07433	8170.4875
942.84309	8109.1875
946.60924	8088.0875
950.37278	8064.9875
954.13371	8054.0875
957.89203	8026.7875
961.64774	8003.5875
965.40086	7939.3875
969.15137	7934.8875
972.89929	7893.7875
976.64461	7858.6875
980.38733	7833.6875
984.12747	7840.8875
987.86502	7845.8875
991.59999	7866.9875
995.33237	7943.7875
999.06217	8048.8875
1002.78939	8167.8875
1006.51404	8254.1875
1010.23611	8376.3875
1013.95561	8444.4875
1017.67255	8468.0875
1021.38692	8430.3875
1025.09872	8317.3875
1028.80796	8220.5875
1032.51465	8177.0875
1036.21877	8148.5875
1039.92035	8137.3875
1043.61937	8093.8875
1047.31584	8066.5875
1051.00976	8059.0875
1054.70114	8073.7875
1058.38998	8074.1875
1062.07627	8136.0875
1065.76003	8200.4875
1069.44126	8263.4875
1073.11995	8310.5875
1076.79611	8354.8875
1080.46974	8318.0875
1084.14085	8311.6875
1087.80943	8289.7875
1091.47549	8280.4875
1095.13903	8228.9875
1098.80005	8149.3875
1102.45857	8063.9875
1106.11456	8031.7875
1109.76805	8052.3875
1113.41903	8149.7875
1117.06751	8335.2875
1120.71348	8587.5875
1124.35696	8975.9875
1127.99793	9401.9875
1131.63641	9842.9875
1135.2724	10041.4875
1138.90589	10023.2875
1142.5369	9827.5875
1146.16542	9451.1875
1149.79145	9072.1875
1153.415	8740.7875
1157.03607	8505.5875
1160.65467	8418.3875
1164.27079	8420.8875
1167.88443	8543.9875
1171.49561	8775.6875
1175.10432	9111.5875
1178.71056	9562.7875
1182.31434	10015.2875
1185.91565	10258.6875
1189.51451	10305.5875
1193.11091	10236.1875
1196.70485	10175.5875
1200.29634	10070.9875
1203.88538	9998.9875
1207.47197	9843.6875
1211.05612	9608.6875
1214.63782	9350.4875
1218.21708	9132.1875
1221.79391	8934.4875
1225.36829	8775.5875
1228.94024	8664.2875
1232.50976	8551.9875
1236.07685	8484.0875
1239.6415	8451.8875
1243.20374	8445.7875
1246.76355	8508.8875
1250.32093	8562.1875
1253.8759	8629.1875
1257.42845	8740.7875
1260.97859	8838.3875
1264.52631	8952.9875
1268.07163	9060.8875
1271.61453	9177.2875
1275.15503	9246.8875
1278.69312	9346.4875
1282.22882	9397.5875
1285.76211	9513.8875
1289.29301	9661.3875
1292.82151	9899.0875
1296.34761	10172.3875
1299.87133	10531.7875
1303.39266	10970.6875
1306.9116	11452.5875
1310.42815	11923.3875
1313.94233	12260.9875
1317.45412	12272.3875
1320.96354	12092.5875
1324.47058	11851.5875
1327.97525	11628.4875
1331.47754	11498.8875
1334.97747	11428.1875
1338.47502	11454.2875
1341.97022	11578.1875
1345.46305	11666.7875
1348.95352	11817.7875
1352.44163	12028.5875
1355.92738	12413.5875
1359.41078	12952.3875
1362.89183	13491.7875
1366.37053	13379.2875
1369.84688	12442.6875
1373.32088	11439.7875
1376.79254	10717.7875
1380.26186	10354.3875
1383.72883	10184.2875
1387.19347	10104.0875
1390.65578	9948.6875
1394.11575	9850.3875
1397.57339	9808.4875
1401.0287	9811.7875
1404.48168	9781.5875
1407.93234	9762.0875
1411.38068	9619.3875
1414.82669	9406.3875
1418.27039	9135.9875
1421.71177	8863.0875
1425.15083	8591.2875
1428.58758	8428.0875
1432.02203	8387.8875
1435.45416	8405.8875
1438.88399	8492.0875
1442.31151	8557.6875
1445.73673	8651.1875
1449.15965	8698.1875
1452.58027	8761.8875
1455.9986	8796.0875
1459.41463	8839.2875
1462.82837	8904.7875
1466.23982	9022.8875
1469.64898	9137.0875
1473.05586	9201.2875
1476.46045	9227.9875
1479.86276	9226.2875
1483.26279	9227.7875
1486.66054	9207.8875
1490.05602	9269.6875
1493.44922	9369.0875
1496.84016	9525.2875
1500.22882	9745.9875
1503.61521	10102.0875
1506.99934	10559.4875
1510.38121	10953.7875
1513.76081	11112.0875
1517.13816	10835.4875
1520.51324	10333.2875
1523.88607	9861.8875
1527.25665	9549.3875
1530.62498	9405.1875
1533.99105	9361.8875
1537.35488	9338.2875
1540.71647	9339.3875
1544.07581	9322.1875
1547.4329	9305.4875
1550.78776	9267.7875
1554.14038	9281.8875
1557.49077	9335.4875
1560.83892	9390.3875
1564.18484	9440.3875
1567.52853	9499.8875
1570.86999	9556.5875
1574.20922	9585.8875
1577.54624	9653.5875
1580.88103	9596.1875
1584.2136	9495.4875
1587.54395	9445.5875
1590.87208	9584.0875
1594.19801	9833.1875
1597.52172	10137.9875
1600.84321	10310.6875
1604.16251	10155.3875
1607.47959	9860.1875
1610.79447	9525.2875
1614.10715	9157.3875
1617.41763	8883.9875
1620.7259	8670.9875
1624.03199	8587.2875
1627.33587	8564.4875
1630.63757	8652.9875
1633.93707	8898.7875
1637.23439	9261.5875
1640.52951	9791.2875
1643.82246	10446.4875
1647.11321	11066.2875
1650.40179	11406.1875
1653.68819	11198.6875
1656.97241	10467.5875
1660.25446	9640.7875
1663.53433	8993.5875
1666.81203	8533.1875
1670.08756	8244.9875
1673.36092	8037.5875
1676.63211	7889.2875
1679.90115	7762.9875
1683.16801	7629.2875
1686.43272	7485.6875
1689.69527	7367.6875
1692.95567	7223.3875
1696.2139	7103.9875
1699.46999	6996.4875
1702.72392	6877.2875
1705.97571	6757.1875
1709.22535	6699.0875
1712.47284	6607.5875
1715.71819	6565.0875
1718.96139	6527.7875
1722.20246	6442.0875
1725.44139	6389.8875
1728.67818	6315.4875
1731.91284	6251.1875
1735.14537	6177.2875
1738.37576	6139.3875
1741.60403	6084.3875
1744.83017	6050.7875
1748.05418	6033.5875
1751.27607	6026.6875
1754.49584	6009.5875
1757.71349	6002.8875
1760.92903	5980.2875
1764.14244	5992.7875
1767.35375	5965.1875
1770.56294	5944.8875
1773.77002	5923.0875
1776.97499	5878.1875
1780.17785	5843.6875
1783.37861	5835.0875
1786.57727	5803.7875
1789.77382	5785.8875
1792.96828	5738.2875
1796.16064	5755.7875
1799.3509	5711.2875
1802.53907	5703.5875
1805.72514	5678.4875
1808.90913	5650.3875
1812.09102	5650.6875
1815.27083	5632.6875
1818.44856	5617.0875
1821.6242	5594.1875
1824.79776	5592.0875
1827.96924	5588.3875
1831.13864	5575.0875
1834.30597	5569.7875
1837.47122	5550.8875
1840.6344	5536.7875
1843.7955	5549.4875
1846.95454	5543.9875
1850.11151	5534.9875
1853.26642	5538.7875
1856.41926	5512.5875
1859.57004	5513.9875
1862.71876	5504.5875
1865.86542	5512.9875
1869.01003	5498.0875
1872.15258	5488.0875
1875.29308	5476.0875
1878.43152	5466.5875
1881.56792	5468.1875
1884.70227	5446.6875
1887.83457	5445.6875
1890.96482	5435.2875
1894.09304	5433.5875
1897.21921	5422.6875
1900.34335	5422.0875
1903.46544	5405.0875
1906.58551	5407.3875
1909.70353	5399.4875
1912.81953	5382.1875
1915.93349	5370.6875
1919.04543	5359.5875
1922.15534	5360.5875
1925.26322	5340.7875
1928.36908	5313.2875
1931.47292	5318.7875
1934.57473	5299.0875
1937.67453	5280.7875
1940.77232	5266.0875
1943.86808	5268.3875
1946.96184	5239.0875
1950.05358	5218.5875
1953.14331	5214.6875
1956.23103	5194.4875
1959.31675	5182.2875
1962.40046	5156.3875
1965.48217	5165.9875
1968.56188	5159.8875
1971.63959	5116.0875
1974.7153	5090.9875
1977.78901	5093.6875
1980.86073	5056.1875
1983.93046	5057.6875
1986.99819	5035.0875
1990.06394	5025.4875
1993.1277	4997.5875
1996.18947	4985.3875
1999.24925	4987.3875
2002.30706	4971.8875
2005.36288	4950.2875
2008.41672	4923.9875
2011.46859	4931.5875
2014.51848	4915.2875
2017.56639	4893.3875
2020.61233	4875.2875
2023.6563	4868.0875
2026.6983	4853.3875
2029.73833	4841.7875
2032.7764	4835.7875
2035.8125	4832.0875
2038.84664	4811.1875
2041.87881	4815.9875
2044.90903	4786.7875
2047.93729	4782.6875
2050.96359	4782.8875
2053.98794	4778.2875
2057.01034	4762.7875
2060.03078	4747.7875
2063.04927	4738.2875
2066.06582	4745.9875
2069.08042	4730.7875
2072.09307	4718.7875
2075.10378	4742.3875
2078.11255	4732.6875
2081.11938	4734.8875
2084.12426	4727.9875
2087.12722	4716.6875
2090.12824	4716.6875
2093.12732	4719.5875
2096.12447	4727.8875
2099.11969	4714.8875
2102.11299	4712.8875
2105.10435	4720.2875
2108.09379	4722.3875
2111.08131	4727.4875
2114.0669	4725.0875
2117.05057	4727.7875
2120.03233	4734.0875
2123.01216	4724.8875
2125.99008	4737.5875
2128.96609	4732.7875
2131.94018	4747.9875
2134.91236	4743.1875
2137.88263	4742.9875
2140.851	4752.6875
2143.81746	4734.4875
2146.78201	4741.5875
2149.74466	4718.5875
2152.7054	4740.7875
2155.66425	4739.3875
2158.6212	4739.3875
2161.57625	4744.5875
2164.52941	4735.9875
2167.48067	4735.1875
2170.43004	4703.3875
2173.37752	4712.1875
2176.32311	4696.2875
2179.26681	4703.4875
2182.20863	4718.3875
2185.14856	4713.1875
2188.08661	4721.6875
2191.02278	4710.2875
2193.95707	4693.3875
2196.88948	4691.0875
2199.82001	4696.6875
2202.74867	4664.5875
2205.67545	4688.6875
2208.60037	4686.8875
2211.52341	4656.0875
2214.44458	4664.2875
2217.36388	4651.6875
2220.28132	4631.0875
2223.1969	4632.7875
2226.11061	4614.3875
2229.02246	4619.5875
2231.93245	4604.4875
2234.84058	4590.8875
2237.74686	4578.4875
2240.65128	4589.7875
2243.55385	4574.5875
2246.45456	4564.6875
2249.35343	4548.7875
2252.25044	4537.1875
2255.14561	4545.0875
2258.03893	4541.8875
2260.93041	4524.2875
2263.82004	4524.7875
2266.70783	4499.6875
2269.59378	4491.7875
2272.4779	4478.3875
2275.36017	4480.5875
2278.24061	4467.9875
2281.11922	4454.5875
2283.996	4459.1875
2286.87094	4447.8875
2289.74405	4438.0875
2292.61534	4418.1875
2295.4848	4386.5875
2298.35243	4401.0875
2301.21824	4399.3875
2304.08223	4420.2875
2306.94439	4386.9875
2309.80474	4401.2875
2312.66327	4401.9875
2315.51999	4377.1875
2318.37489	4401.5875
2321.22797	4385.5875
2324.07925	4383.5875
2326.92871	4373.2875
2329.77637	4363.0875
2332.62222	4344.7875
2335.46626	4340.4875
2338.3085	4331.6875
2341.14893	4331.7875
2343.98756	4323.9875
2346.8244	4335.7875
2349.65943	4319.8875
2352.49267	4317.7875
2355.32411	4322.1875
2358.15376	4321.2875
2360.98161	4310.4875
2363.80768	4308.2875
2366.63195	4308.7875
2369.45444	4309.0875
2372.27514	4310.4875
2375.09405	4299.5875
2377.91118	4280.9875
2380.72652	4272.2875
2383.54009	4250.3875
2386.35187	4269.8875
2389.16188	4241.7875
2391.97011	4241.0875
2394.77657	4218.3875
2397.58125	4217.0875
2400.38416	4213.3875
2403.18529	4194.5875
2405.98466	4202.5875
2408.78226	4192.3875
2411.57809	4194.8875
2414.37216	4157.4875
2417.16446	4169.2875
2419.955	4155.8875
2422.74378	4149.0875
2425.5308	4146.9875
2428.31606	4129.6875
2431.09956	4144.2875
2433.88131	4146.5875
2436.6613	4134.0875
2439.43954	4112.3875
2442.21603	4127.6875
2444.99077	4114.5875
2447.76377	4107.2875
2450.53501	4112.6875
2453.30451	4125.7875
2456.07226	4107.5875
2458.83827	4116.8875
2461.60254	4094.8875
2464.36507	4080.8875
2467.12586	4094.6875
2469.88492	4081.4875
2472.64224	4076.8875
2475.39782	4077.0875
2478.15167	4074.0875
2480.90379	4070.3875
2483.65417	4072.9875
2486.40283	4079.2875
2489.14976	4085.1875
2491.89497	4079.8875
2494.63845	4081.4875
2497.3802	4077.5875
2500.12024	4045.1875
2502.85855	4060.2875
2505.59514	4044.7875
2508.33002	4036.8875
2511.06318	4032.3875
2513.79462	4041.0875
2516.52435	4021.6875
2519.25237	4025.3875
2521.97867	4017.2875
2524.70327	4022.8875
2527.42616	4012.5875
2530.14734	4011.8875
2532.86681	3995.5875
2535.58458	3982.9875
2538.30065	3977.8875
2541.01501	3975.8875
2543.72768	3966.9875
2546.43864	3957.4875
2549.14791	3943.0875
2551.85548	3946.2875
2554.56136	3944.3875
2557.26554	3930.4875
2559.96803	3920.6875
2562.66883	3938.9875
2565.36794	3921.0875
2568.06536	3911.7875
2570.7611	3907.7875
2573.45514	3900.7875
2576.14751	3886.2875
2578.83819	3890.0875
2581.52719	3898.6875
2584.21451	3881.7875
2586.90015	3882.8875
2589.58411	3871.7875
2592.2664	3874.6875
2594.94701	3842.4875
2597.62594	3843.9875
2600.30321	3834.3875
2602.9788	3838.8875
2605.65273	3825.1875
2608.32498	3829.4875
2610.99557	3815.9875
2613.66449	3819.5875
2616.33175	3816.3875
2618.99734	3814.7875
2621.66128	3810.8875
2624.32355	3805.2875
2626.98416	3796.8875
2629.64311	3798.0875
2632.30041	3789.4875
2634.95605	3787.9875
2637.61004	3780.0875
2640.26238	3770.3875
2642.91306	3785.9875
2645.56209	3768.6875
2648.20948	3759.9875
2650.85521	3768.7875
2653.4993	3777.5875
2656.14175	3748.1875
2658.78255	3741.8875
2661.42171	3758.7875
2664.05923	3750.2875
2666.6951	3763.8875
2669.32934	3759.1875
2671.96194	3757.6875
2674.59291	3760.4875
2677.22224	3771.4875
2679.84993	3754.5875
2682.476	3756.5875
2685.10043	3768.7875
2687.72324	3751.7875
2690.34441	3761.9875
2692.96396	3752.8875
2695.58188	3753.5875
2698.19818	3735.7875
2700.81285	3765.4875
2703.4259	3774.6875
2706.03733	3787.3875
2708.64714	3777.2875
2711.25533	3771.2875
2713.86191	3753.4875
2716.46687	3754.7875
2719.07021	3747.7875
2721.67194	3766.3875
2724.27206	3743.5875
2726.87057	3764.5875
2729.46747	3757.9875
2732.06276	3744.9875
2734.65644	3747.9875
2737.24852	3750.0875
2739.83899	3747.4875
2742.42786	3737.8875
2745.01513	3730.6875
2747.60079	3736.5875
2750.18486	3739.2875
2752.76733	3731.5875
2755.3482	3728.4875
2757.92747	3725.2875
2760.50515	3728.2875
2763.08123	3718.2875
2765.65573	3715.4875
2768.22863	3706.2875
2770.79994	3699.8875
2773.36967	3703.2875
2775.9378	3700.1875
2778.50435	3691.9875
2781.06932	3687.8875
2783.6327	3686.2875
2786.1945	3681.9875
2788.75471	3670.0875
2791.31335	3677.7875
2793.87041	3673.4875
2796.42589	3654.7875
2798.97979	3699.3875
2801.53212	3645.5875
2804.08288	3636.0875
2806.63206	3623.0875
2809.17967	3621.1875
2811.72571	3616.9875
2814.27018	3608.3875
2816.81308	3605.6875
2819.35442	3605.8875
2821.89419	3584.5875
2824.43239	3590.4875
2826.96904	3597.1875
2829.50412	3581.0875
2832.03763	3580.0875
2834.56959	3585.9875
2837.1	3578.9875
2839.62884	3583.4875
2842.15613	3582.8875
2844.68186	3576.5875
2847.20604	3578.3875
2849.72867	3587.6875
2852.24974	3582.4875
2854.76927	3561.6875
2857.28724	3562.1875
2859.80367	3563.0875
2862.31855	3569.6875
2864.83189	3570.4875
2867.34368	3563.9875
2869.85393	3554.9875
2872.36264	3551.5875
2874.8698	3567.2875
2877.37543	3575.2875
2879.87952	3567.9875
2882.38207	3573.8875
2884.88308	3565.3875
2887.38256	3584.5875
2889.88051	3575.7875
2892.37692	3593.7875
2894.8718	3570.1875
2897.36515	3587.2875
2899.85698	3577.2875
2902.34727	3592.9875
2904.83604	3597.4875
2907.32328	3599.7875
2909.809	3594.3875
2912.29319	3595.9875
2914.77587	3594.1875
2917.25702	3615.7875
2919.73665	3590.7875
2922.21476	3603.0875
2924.69136	3601.3875
2927.16644	3600.9875
2929.64	3599.4875
2932.11205	3603.5875
2934.58258	3587.7875
2937.05161	3599.0875
2939.51912	3591.1875
2941.98513	3589.7875
2944.44962	3579.5875
2946.91261	3566.9875
2949.37409	3581.9875
2951.83407	3580.7875
2954.29254	3589.2875
2956.74951	3569.0875
2959.20498	3562.7875
2961.65895	3556.9875
2964.11142	3559.4875
2966.56239	3554.8875
2969.01186	3547.4875
2971.45984	3539.9875
2973.90632	3524.0875
2976.35131	3510.6875
2978.7948	3517.5875
2981.23681	3500.6875
2983.67732	3501.5875
2986.11635	3497.1875
2988.55388	3466.9875
2990.98993	3479.0875
2993.4245	3478.9875
2995.85758	3463.1875
2998.28917	3464.1875
3000.71928	3473.0875
3003.14791	3452.1875
3005.57506	3460.9875
3008.00073	3454.6875
3010.42493	3451.1875
3012.84764	3455.3875
3015.26888	3465.4875
3017.68865	3449.0875
3020.10694	3451.1875
3022.52376	3452.1875
3024.9391	3438.5875
3027.35298	3430.4875
3029.76539	3411.7875
3032.17632	3421.3875
3034.5858	3416.9875
3036.9938	3416.6875
3039.40034	3413.3875
3041.80542	3410.5875
3044.20903	3409.8875
3046.61118	3420.2875
3049.01187	3404.9875
3051.4111	3401.1875
3053.80888	3396.3875
3056.20519	3386.5875
3058.60005	3390.7875
3060.99345	3375.7875
3063.3854	3380.0875
3065.7759	3382.3875
3068.16494	3377.6875
3070.55254	3375.9875
3072.93868	3362.0875
3075.32338	3371.3875
3077.70662	3369.3875
3080.08842	3367.8875
3082.46878	3365.3875
3084.84769	3363.7875
3087.22515	3371.2875
3089.60118	3383.7875
3091.97576	3383.4875
3094.3489	3388.5875
3096.72061	3397.5875
3099.09087	3410.5875
3101.4597	3402.4875
3103.82709	3383.0875
3106.19305	3387.8875
3108.55757	3404.7875
3110.92066	3384.7875
3113.28232	3397.0875
3115.64255	3392.0875
3118.00134	3378.9875
3120.35871	3386.1875
3122.71466	3393.5875
3125.06917	3392.4875
3127.42226	3383.5875
3129.77393	3414.6875
3132.12417	3395.0875
3134.47299	3406.3875
3136.82039	3401.4875
3139.16636	3430.3875
3141.51092	3418.6875
3143.85406	3432.0875
3146.19579	3427.6875
3148.53609	3437.2875
3150.87499	3436.8875
3153.21246	3447.9875
3155.54853	3458.8875
3157.88318	3462.7875
3160.21642	3465.9875
3162.54826	3471.0875
3164.87868	3486.9875
3167.2077	3482.4875
3169.5353	3483.6875
3171.86151	3490.2875
3174.18631	3489.9875
3176.5097	3487.8875
3178.83169	3490.9875
3181.15228	3491.5875
3183.47147	3494.1875
3185.78926	3486.9875
3188.10565	3491.5875
3190.42065	3500.0875
3192.73424	3508.6875
3195.04645	3511.5875
3197.35725	3518.3875
3199.66667	3541.0875
3201.97469	3547.2875
3204.28132	3550.1875
3206.58656	3551.2875
3208.8904	3561.4875
3211.19287	3555.3875
3213.49394	3547.1875
3215.79363	3553.8875
3218.09193	3584.3875
3220.38884	3575.8875
3222.68438	3581.5875
3224.97853	3559.8875
3227.2713	3570.7875
3229.56269	3563.9875
3231.8527	3549.4875
3234.14133	3539.5875
3236.42858	3552.5875
3238.71446	3552.2875
3240.99896	3533.8875
3243.28209	3547.1875
3245.56384	3547.1875
3247.84423	3543.8875
3250.12324	3545.6875
3252.40088	3538.4875
3254.67715	3540.8875
3256.95205	3540.0875
3259.22558	3540.0875
3261.49775	3533.1875
3263.76855	3540.0875
3266.03799	3524.7875
3268.30606	3518.9875
3270.57277	3516.6875
3272.83812	3519.0875
3275.10211	3510.0875
3277.36474	3493.7875
3279.62601	3508.1875
3281.88593	3496.9875
3284.14448	3498.9875
3286.40168	3511.2875
3288.65753	3507.1875
3290.91202	3490.8875
3293.16516	3474.3875
3295.41695	3478.4875
3297.66738	3442.2875
3299.91647	3436.1875
3302.16421	3416.5875
3304.4106	3398.4875
3306.65564	3402.1875
3308.89933	3363.7875
3311.14169	3346.3875
3313.38269	3341.7875
3315.62236	3311.9875
3317.86068	3284.0875
3320.09766	3252.8875
3322.3333	3233.8875
3324.5676	3255.2875
3326.80056	3180.3875
3329.03219	3172.6875
3331.26248	0.7875
3333.49143	2.0875
3335.71905	-1.8125
