Data from AgNPs_FTO_APTES_UA_0.1mM_CRN_200uM_NaF_0.1M_Addition_RamanShift__27__14-26-17-744.txt Node

Date: Mon Dec 20 14:26:17 GMT 2021
User: TCL
Spectrometer: QEP01345
Trigger mode: 4
Integration Time (sec): 7.000000E0
Scans to average: 10
Electric dark correction enabled: true
Nonlinearity correction enabled: false
Boxcar width: 0
XAxis mode: Raman Shifts
Number of Pixels in Spectrum: 1044
>>>>>Begin Spectral Data<<<<<
46.04893	0.6875
50.45542	-0.3125
54.85868	-1.6125
59.25871	0.8875
63.6555	27.8875
68.04907	26.9875
72.43941	29.5875
76.82654	30.7875
81.21044	31.5875
85.59113	39.1875
89.96862	33.6875
94.34289	34.2875
98.71396	37.8875
103.08183	37.3875
107.4465	40.9875
111.80798	42.0875
116.16626	40.8875
120.52136	41.5875
124.87327	45.4875
129.222	45.3875
133.56755	45.5875
137.90993	49.9875
142.24913	53.9875
146.58517	54.9875
150.91804	65.2875
155.24774	75.7875
159.57429	84.7875
163.89768	109.9875
168.21792	140.2875
172.53501	180.6875
176.84895	246.4875
181.15975	339.8875
185.46741	465.6875
189.77193	644.6875
194.07331	860.8875
198.37157	1114.5875
202.6667	1382.6875
206.9587	1658.1875
211.24758	1935.3875
215.53334	2200.7875
219.81599	2468.6875
224.09553	2742.5875
228.37195	3052.3875
232.64527	3348.7875
236.91549	3690.0875
241.18261	3975.4875
245.44663	4275.1875
249.70755	4524.3875
253.96539	4749.5875
258.22014	4926.5875
262.4718	5047.4875
266.72039	5092.1875
270.96589	5092.9875
275.20832	5049.0875
279.44768	4986.7875
283.68397	4923.4875
287.91719	4862.6875
292.14735	4797.3875
296.37445	4773.3875
300.59849	4772.4875
304.81948	4780.7875
309.03742	4806.3875
313.25231	4732.9875
317.46415	4646.2875
321.67296	4516.8875
325.87872	4428.8875
330.08145	4361.7875
334.28114	4360.9875
338.47781	4364.4875
342.67145	4408.1875
346.86207	4470.6875
351.04966	4541.5875
355.23424	4645.9875
359.4158	4744.5875
363.59435	4796.3875
367.76989	4869.3875
371.94243	4917.9875
376.11196	4956.1875
380.27849	4998.2875
384.44203	5066.7875
388.60257	5102.1875
392.76012	5119.1875
396.91468	5165.0875
401.06626	5252.3875
405.21485	5270.7875
409.36047	5268.0875
413.50311	5208.1875
417.64277	5112.3875
421.77947	5088.2875
425.9132	5074.3875
430.04396	5078.9875
434.17176	5094.5875
438.2966	5131.0875
442.41849	5180.8875
446.53742	5261.6875
450.6534	5327.2875
454.76644	5366.0875
458.87653	5390.3875
462.98368	5394.2875
467.08789	5388.4875
471.18916	5396.7875
475.2875	5414.8875
479.38291	5452.4875
483.4754	5543.3875
487.56496	5648.1875
491.6516	5770.5875
495.73531	5813.3875
499.81612	5766.7875
503.89401	5661.7875
507.96899	5561.3875
512.04106	5491.1875
516.11023	5517.2875
520.1765	5579.2875
524.23987	5654.5875
528.30034	5700.2875
532.35792	5721.7875
536.41261	5637.8875
540.46441	5524.6875
544.51333	5406.5875
548.55936	5324.4875
552.60252	5313.9875
556.64279	5319.3875
560.6802	5317.1875
564.71473	5374.8875
568.7464	5441.3875
572.7752	5529.0875
576.80114	5525.8875
580.82422	5527.8875
584.84444	5596.8875
588.86181	5684.5875
592.87633	5749.0875
596.888	5792.0875
600.89682	5760.4875
604.9028	5870.3875
608.90594	6257.1875
612.90624	6871.6875
616.90371	6974.1875
620.89834	6601.2875
624.89015	6730.0875
628.87913	7217.8875
632.86528	7728.0875
636.84862	7991.1875
640.82913	7835.9875
644.80683	7339.0875
648.78172	6758.4875
652.75379	6332.2875
656.72306	6078.0875
660.68952	5966.1875
664.65319	5899.7875
668.61405	5845.5875
672.57211	5859.4875
676.52738	5870.9875
680.47986	5885.3875
684.42955	5871.5875
688.37646	5853.8875
692.32058	5805.3875
696.26192	5754.6875
700.20048	5708.2875
704.13626	5647.8875
708.06928	5563.4875
711.99952	5506.8875
715.927	5470.2875
719.85171	5490.4875
723.77365	5528.8875
727.69284	5552.2875
731.60928	5479.2875
735.52295	5386.7875
739.43388	5328.7875
743.34206	5312.1875
747.24749	5326.3875
751.15017	5350.6875
755.05012	5383.0875
758.94733	5435.6875
762.8418	5585.9875
766.73354	5814.5875
770.62254	6045.1875
774.50882	6145.9875
778.39237	6039.6875
782.27321	5780.8875
786.15132	5537.6875
790.02671	5444.2875
793.89938	5453.5875
797.76935	5504.7875
801.6366	5627.1875
805.50115	5889.1875
809.36299	6211.5875
813.22213	6339.9875
817.07857	6216.6875
820.93231	5936.0875
824.78336	5584.5875
828.63172	5331.8875
832.47738	5205.3875
836.32036	5120.3875
840.16066	5070.9875
843.99827	5060.9875
847.8332	5030.7875
851.66546	5017.2875
855.49504	4993.1875
859.32195	5013.3875
863.1462	5045.3875
866.96777	5122.9875
870.78668	5221.6875
874.60293	5392.0875
878.41652	5583.0875
882.22745	5796.7875
886.03573	5917.7875
889.84136	5933.7875
893.64433	5770.3875
897.44466	5504.9875
901.24235	5234.1875
905.0374	5027.5875
908.8298	4886.2875
912.61957	4812.7875
916.40671	4767.4875
920.19121	4753.3875
923.97308	4754.2875
927.75233	4746.6875
931.52895	4741.4875
935.30295	4738.9875
939.07433	4706.1875
942.84309	4688.9875
946.60924	4678.6875
950.37278	4672.1875
954.13371	4666.8875
957.89203	4639.0875
961.64774	4628.7875
965.40086	4600.0875
969.15137	4573.6875
972.89929	4530.7875
976.64461	4514.3875
980.38733	4522.6875
984.12747	4509.9875
987.86502	4520.5875
991.59999	4550.1875
995.33237	4594.0875
999.06217	4685.3875
1002.78939	4804.5875
1006.51404	4928.9875
1010.23611	5064.4875
1013.95561	5158.9875
1017.67255	5186.0875
1021.38692	5152.8875
1025.09872	5054.4875
1028.80796	4927.4875
1032.51465	4796.9875
1036.21877	4699.2875
1039.92035	4636.4875
1043.61937	4610.7875
1047.31584	4617.6875
1051.00976	4625.2875
1054.70114	4664.1875
1058.38998	4689.3875
1062.07627	4755.7875
1065.76003	4808.3875
1069.44126	4865.6875
1073.11995	4928.6875
1076.79611	4922.1875
1080.46974	4866.3875
1084.14085	4824.8875
1087.80943	4763.7875
1091.47549	4704.8875
1095.13903	4639.6875
1098.80005	4587.3875
1102.45857	4557.7875
1106.11456	4552.7875
1109.76805	4586.1875
1113.41903	4686.2875
1117.06751	4855.0875
1120.71348	5103.1875
1124.35696	5465.4875
1127.99793	5949.5875
1131.63641	6433.1875
1135.2724	6716.1875
1138.90589	6723.3875
1142.5369	6556.8875
1146.16542	6145.9875
1149.79145	5711.2875
1153.415	5328.8875
1157.03607	5043.6875
1160.65467	4887.7875
1164.27079	4809.2875
1167.88443	4853.7875
1171.49561	4944.8875
1175.10432	5156.3875
1178.71056	5407.5875
1182.31434	5672.8875
1185.91565	5835.4875
1189.51451	5901.5875
1193.11091	6005.5875
1196.70485	6133.0875
1200.29634	6300.0875
1203.88538	6384.1875
1207.47197	6293.9875
1211.05612	6042.4875
1214.63782	5777.6875
1218.21708	5478.1875
1221.79391	5214.7875
1225.36829	5047.9875
1228.94024	4909.0875
1232.50976	4814.5875
1236.07685	4772.8875
1239.6415	4771.8875
1243.20374	4793.8875
1246.76355	4819.1875
1250.32093	4861.6875
1253.8759	4891.2875
1257.42845	4937.3875
1260.97859	4954.9875
1264.52631	5006.3875
1268.07163	5037.7875
1271.61453	5047.7875
1275.15503	5049.9875
1278.69312	5041.2875
1282.22882	5036.7875
1285.76211	5082.2875
1289.29301	5151.8875
1292.82151	5259.6875
1296.34761	5383.1875
1299.87133	5552.8875
1303.39266	5800.4875
1306.9116	6105.7875
1310.42815	6450.9875
1313.94233	6681.9875
1317.45412	6731.9875
1320.96354	6656.8875
1324.47058	6529.4875
1327.97525	6444.7875
1331.47754	6417.2875
1334.97747	6458.4875
1338.47502	6533.2875
1341.97022	6652.1875
1345.46305	6759.2875
1348.95352	6935.6875
1352.44163	7091.5875
1355.92738	7334.5875
1359.41078	7701.2875
1362.89183	8077.5875
1366.37053	7982.8875
1369.84688	7455.8875
1373.32088	6896.8875
1376.79254	6449.8875
1380.26186	6229.4875
1383.72883	6085.3875
1387.19347	5976.8875
1390.65578	5869.0875
1394.11575	5804.6875
1397.57339	5748.9875
1401.0287	5727.8875
1404.48168	5718.0875
1407.93234	5649.3875
1411.38068	5537.7875
1414.82669	5361.3875
1418.27039	5174.1875
1421.71177	4966.6875
1425.15083	4809.5875
1428.58758	4693.7875
1432.02203	4635.3875
1435.45416	4596.2875
1438.88399	4581.9875
1442.31151	4591.6875
1445.73673	4597.2875
1449.15965	4603.1875
1452.58027	4624.8875
1455.9986	4618.5875
1459.41463	4626.9875
1462.82837	4663.6875
1466.23982	4683.1875
1469.64898	4742.9875
1473.05586	4787.0875
1476.46045	4801.4875
1479.86276	4799.8875
1483.26279	4795.4875
1486.66054	4835.5875
1490.05602	4878.0875
1493.44922	4970.4875
1496.84016	5092.7875
1500.22882	5256.6875
1503.61521	5515.5875
1506.99934	5823.8875
1510.38121	6069.1875
1513.76081	6160.9875
1517.13816	5955.3875
1520.51324	5626.1875
1523.88607	5307.5875
1527.25665	5141.5875
1530.62498	5074.6875
1533.99105	5081.6875
1537.35488	5120.3875
1540.71647	5168.2875
1544.07581	5192.6875
1547.4329	5226.4875
1550.78776	5248.9875
1554.14038	5266.4875
1557.49077	5277.0875
1560.83892	5268.0875
1564.18484	5300.0875
1567.52853	5346.4875
1570.86999	5412.4875
1574.20922	5450.7875
1577.54624	5500.9875
1580.88103	5483.6875
1584.2136	5426.7875
1587.54395	5398.4875
1590.87208	5425.4875
1594.19801	5525.8875
1597.52172	5698.9875
1600.84321	5795.2875
1604.16251	5761.1875
1607.47959	5646.8875
1610.79447	5511.9875
1614.10715	5363.9875
1617.41763	5248.9875
1620.7259	5149.8875
1624.03199	5110.1875
1627.33587	5071.7875
1630.63757	5111.2875
1633.93707	5218.7875
1637.23439	5348.6875
1640.52951	5597.5875
1643.82246	5908.9875
1647.11321	6233.4875
1650.40179	6483.4875
1653.68819	6428.0875
1656.97241	6093.4875
1660.25446	5686.3875
1663.53433	5370.4875
1666.81203	5158.8875
1670.08756	5008.8875
1673.36092	4884.0875
1676.63211	4786.4875
1679.90115	4718.9875
1683.16801	4664.5875
1686.43272	4575.0875
1689.69527	4487.9875
1692.95567	4412.9875
1696.2139	4344.5875
1699.46999	4232.1875
1702.72392	4120.0875
1705.97571	4003.9875
1709.22535	3880.0875
1712.47284	3790.6875
1715.71819	3737.1875
1718.96139	3676.3875
1722.20246	3598.9875
1725.44139	3562.6875
1728.67818	3534.0875
1731.91284	3473.3875
1735.14537	3430.4875
1738.37576	3405.6875
1741.60403	3402.1875
1744.83017	3370.2875
1748.05418	3380.6875
1751.27607	3373.0875
1754.49584	3368.2875
1757.71349	3350.2875
1760.92903	3340.9875
1764.14244	3311.8875
1767.35375	3284.3875
1770.56294	3263.9875
1773.77002	3224.9875
1776.97499	3174.6875
1780.17785	3155.5875
1783.37861	3115.5875
1786.57727	3089.7875
1789.77382	3062.9875
1792.96828	3026.9875
1796.16064	3024.2875
1799.3509	2996.6875
1802.53907	2984.3875
1805.72514	2962.7875
1808.90913	2956.4875
1812.09102	2958.9875
1815.27083	2935.3875
1818.44856	2924.2875
1821.6242	2926.9875
1824.79776	2899.9875
1827.96924	2901.3875
1831.13864	2893.8875
1834.30597	2886.3875
1837.47122	2890.4875
1840.6344	2866.0875
1843.7955	2883.1875
1846.95454	2870.7875
1850.11151	2845.1875
1853.26642	2849.1875
1856.41926	2848.8875
1859.57004	2853.4875
1862.71876	2846.2875
1865.86542	2840.2875
1869.01003	2821.5875
1872.15258	2808.5875
1875.29308	2813.7875
1878.43152	2815.3875
1881.56792	2806.1875
1884.70227	2796.3875
1887.83457	2797.7875
1890.96482	2783.2875
1894.09304	2779.3875
1897.21921	2770.1875
1900.34335	2769.5875
1903.46544	2767.6875
1906.58551	2767.2875
1909.70353	2753.2875
1912.81953	2745.2875
1915.93349	2741.9875
1919.04543	2745.1875
1922.15534	2728.2875
1925.26322	2719.1875
1928.36908	2714.3875
1931.47292	2693.4875
1934.57473	2694.0875
1937.67453	2682.6875
1940.77232	2678.8875
1943.86808	2669.9875
1946.96184	2658.4875
1950.05358	2636.7875
1953.14331	2644.4875
1956.23103	2644.4875
1959.31675	2641.2875
1962.40046	2618.2875
1965.48217	2603.7875
1968.56188	2590.8875
1971.63959	2586.2875
1974.7153	2578.1875
1977.78901	2566.3875
1980.86073	2561.9875
1983.93046	2554.8875
1986.99819	2538.1875
1990.06394	2530.6875
1993.1277	2520.7875
1996.18947	2512.0875
1999.24925	2509.0875
2002.30706	2503.6875
2005.36288	2482.3875
2008.41672	2482.3875
2011.46859	2475.8875
2014.51848	2483.9875
2017.56639	2451.9875
2020.61233	2452.5875
2023.6563	2442.3875
2026.6983	2443.6875
2029.73833	2417.5875
2032.7764	2419.7875
2035.8125	2410.2875
2038.84664	2412.0875
2041.87881	2407.1875
2044.90903	2402.9875
2047.93729	2404.7875
2050.96359	2387.6875
2053.98794	2387.3875
2057.01034	2383.3875
2060.03078	2382.9875
2063.04927	2374.2875
2066.06582	2376.8875
2069.08042	2371.6875
2072.09307	2367.4875
2075.10378	2362.5875
2078.11255	2356.9875
2081.11938	2361.8875
2084.12426	2353.4875
2087.12722	2361.8875
2090.12824	2352.7875
2093.12732	2359.1875
2096.12447	2346.5875
2099.11969	2346.6875
2102.11299	2350.0875
2105.10435	2345.1875
2108.09379	2341.4875
2111.08131	2337.4875
2114.0669	2353.3875
2117.05057	2351.8875
2120.03233	2338.9875
2123.01216	2346.7875
2125.99008	2348.2875
2128.96609	2343.3875
2131.94018	2343.4875
2134.91236	2355.5875
2137.88263	2341.1875
2140.851	2349.5875
2143.81746	2352.1875
2146.78201	2343.2875
2149.74466	2348.0875
2152.7054	2332.4875
2155.66425	2342.6875
2158.6212	2340.1875
2161.57625	2334.0875
2164.52941	2339.7875
2167.48067	2335.0875
2170.43004	2332.8875
2173.37752	2324.4875
2176.32311	2315.1875
2179.26681	2320.5875
2182.20863	2320.6875
2185.14856	2320.8875
2188.08661	2305.9875
2191.02278	2313.2875
2193.95707	2299.1875
2196.88948	2308.1875
2199.82001	2292.2875
2202.74867	2285.2875
2205.67545	2287.2875
2208.60037	2297.5875
2211.52341	2282.9875
2214.44458	2275.3875
2217.36388	2268.3875
2220.28132	2265.8875
2223.1969	2252.4875
2226.11061	2247.8875
2229.02246	2254.3875
2231.93245	2250.2875
2234.84058	2229.6875
2237.74686	2224.2875
2240.65128	2215.7875
2243.55385	2230.6875
2246.45456	2214.8875
2249.35343	2224.4875
2252.25044	2211.2875
2255.14561	2197.8875
2258.03893	2207.0875
2260.93041	2201.5875
2263.82004	2199.8875
2266.70783	2188.9875
2269.59378	2181.9875
2272.4779	2174.6875
2275.36017	2174.0875
2278.24061	2166.5875
2281.11922	2159.5875
2283.996	2150.4875
2286.87094	2157.7875
2289.74405	2139.1875
2292.61534	2130.9875
2295.4848	2129.7875
2298.35243	2127.0875
2301.21824	2121.4875
2304.08223	2125.2875
2306.94439	2119.3875
2309.80474	2109.5875
2312.66327	2114.9875
2315.51999	2113.9875
2318.37489	2098.4875
2321.22797	2101.2875
2324.07925	2100.5875
2326.92871	2102.9875
2329.77637	2092.5875
2332.62222	2087.0875
2335.46626	2078.2875
2338.3085	2075.9875
2341.14893	2081.5875
2343.98756	2070.0875
2346.8244	2070.0875
2349.65943	2071.8875
2352.49267	2064.8875
2355.32411	2064.4875
2358.15376	2064.0875
2360.98161	2056.9875
2363.80768	2056.3875
2366.63195	2048.4875
2369.45444	2061.7875
2372.27514	2052.3875
2375.09405	2055.3875
2377.91118	2049.4875
2380.72652	2040.6875
2383.54009	2042.5875
2386.35187	2043.0875
2389.16188	2025.5875
2391.97011	2024.1875
2394.77657	2015.0875
2397.58125	2015.3875
2400.38416	2011.3875
2403.18529	2013.5875
2405.98466	2005.8875
2408.78226	1998.6875
2411.57809	1992.5875
2414.37216	1970.4875
2417.16446	1986.1875
2419.955	1975.3875
2422.74378	1973.6875
2425.5308	1965.3875
2428.31606	1961.9875
2431.09956	1958.7875
2433.88131	1960.8875
2436.6613	1952.2875
2439.43954	1946.7875
2442.21603	1938.7875
2444.99077	1925.2875
2447.76377	1939.7875
2450.53501	1943.3875
2453.30451	1935.8875
2456.07226	1928.7875
2458.83827	1916.2875
2461.60254	1929.0875
2464.36507	1919.2875
2467.12586	1910.1875
2469.88492	1914.2875
2472.64224	1906.3875
2475.39782	1906.5875
2478.15167	1921.7875
2480.90379	1907.5875
2483.65417	1906.7875
2486.40283	1896.3875
2489.14976	1909.2875
2491.89497	1902.9875
2494.63845	1895.3875
2497.3802	1906.1875
2500.12024	1893.0875
2502.85855	1903.5875
2505.59514	1898.7875
2508.33002	1891.0875
2511.06318	1886.4875
2513.79462	1884.9875
2516.52435	1875.8875
2519.25237	1868.8875
2521.97867	1871.8875
2524.70327	1879.3875
2527.42616	1867.1875
2530.14734	1853.0875
2532.86681	1850.9875
2535.58458	1856.9875
2538.30065	1852.1875
2541.01501	1840.3875
2543.72768	1838.6875
2546.43864	1849.6875
2549.14791	1827.4875
2551.85548	1830.1875
2554.56136	1818.3875
2557.26554	1806.6875
2559.96803	1815.7875
2562.66883	1810.4875
2565.36794	1801.2875
2568.06536	1800.9875
2570.7611	1819.8875
2573.45514	1799.4875
2576.14751	1795.9875
2578.83819	1781.8875
2581.52719	1789.6875
2584.21451	1781.1875
2586.90015	1775.0875
2589.58411	1774.3875
2592.2664	1768.8875
2594.94701	1769.6875
2597.62594	1768.3875
2600.30321	1750.4875
2602.9788	1756.5875
2605.65273	1748.8875
2608.32498	1759.5875
2610.99557	1743.4875
2613.66449	1748.2875
2616.33175	1737.8875
2618.99734	1736.3875
2621.66128	1732.6875
2624.32355	1730.9875
2626.98416	1736.0875
2629.64311	1730.9875
2632.30041	1720.3875
2634.95605	1722.2875
2637.61004	1719.0875
2640.26238	1716.0875
2642.91306	1713.8875
2645.56209	1709.3875
2648.20948	1719.1875
2650.85521	1711.4875
2653.4993	1709.4875
2656.14175	1705.8875
2658.78255	1711.6875
2661.42171	1705.6875
2664.05923	1704.0875
2666.6951	1702.1875
2669.32934	1715.0875
2671.96194	1696.9875
2674.59291	1705.5875
2677.22224	1705.7875
2679.84993	1697.5875
2682.476	1709.6875
2685.10043	1703.1875
2687.72324	1700.7875
2690.34441	1697.4875
2692.96396	1695.8875
2695.58188	1695.2875
2698.19818	1709.3875
2700.81285	1698.0875
2703.4259	1713.0875
2706.03733	1733.4875
2708.64714	1724.9875
2711.25533	1709.7875
2713.86191	1708.6875
2716.46687	1713.8875
2719.07021	1706.6875
2721.67194	1708.5875
2724.27206	1697.4875
2726.87057	1709.4875
2729.46747	1709.6875
2732.06276	1703.8875
2734.65644	1703.0875
2737.24852	1701.6875
2739.83899	1697.0875
2742.42786	1695.0875
2745.01513	1686.4875
2747.60079	1692.2875
2750.18486	1677.9875
2752.76733	1681.9875
2755.3482	1675.3875
2757.92747	1686.4875
2760.50515	1671.9875
2763.08123	1669.1875
2765.65573	1667.2875
2768.22863	1668.8875
2770.79994	1668.4875
2773.36967	1665.3875
2775.9378	1666.6875
2778.50435	1660.9875
2781.06932	1656.2875
2783.6327	1657.5875
2786.1945	1656.3875
2788.75471	1640.7875
2791.31335	1650.0875
2793.87041	1641.4875
2796.42589	1641.7875
2798.97979	1633.3875
2801.53212	1636.5875
2804.08288	1632.0875
2806.63206	1627.4875
2809.17967	1630.2875
2811.72571	1621.7875
2814.27018	1624.2875
2816.81308	1615.8875
2819.35442	1616.0875
2821.89419	1618.4875
2824.43239	1620.5875
2826.96904	1618.0875
2829.50412	1619.5875
2832.03763	1612.2875
2834.56959	1623.0875
2837.1	1608.1875
2839.62884	1603.0875
2842.15613	1613.9875
2844.68186	1623.7875
2847.20604	1617.9875
2849.72867	1618.0875
2852.24974	1616.8875
2854.76927	1618.3875
2857.28724	1625.4875
2859.80367	1619.9875
2862.31855	1622.5875
2864.83189	1616.5875
2867.34368	1616.8875
2869.85393	1612.4875
2872.36264	1602.7875
2874.8698	1625.5875
2877.37543	1612.4875
2879.87952	1620.3875
2882.38207	1614.7875
2884.88308	1629.9875
2887.38256	1626.6875
2889.88051	1633.6875
2892.37692	1628.0875
2894.8718	1634.3875
2897.36515	1634.0875
2899.85698	1629.1875
2902.34727	1643.1875
2904.83604	1643.1875
2907.32328	1644.5875
2909.809	1657.4875
2912.29319	1647.9875
2914.77587	1656.1875
2917.25702	1651.1875
2919.73665	1664.5875
2922.21476	1658.7875
2924.69136	1659.4875
2927.16644	1663.1875
2929.64	1663.6875
2932.11205	1666.4875
2934.58258	1663.2875
2937.05161	1663.6875
2939.51912	1661.6875
2941.98513	1665.5875
2944.44962	1664.2875
2946.91261	1665.7875
2949.37409	1658.4875
2951.83407	1656.8875
2954.29254	1664.0875
2956.74951	1646.9875
2959.20498	1649.1875
2961.65895	1643.3875
2964.11142	1648.1875
2966.56239	1638.3875
2969.01186	1630.7875
2971.45984	1628.9875
2973.90632	1616.6875
2976.35131	1610.2875
2978.7948	1605.6875
2981.23681	1601.6875
2983.67732	1600.1875
2986.11635	1604.9875
2988.55388	1591.4875
2990.98993	1593.1875
2993.4245	1583.9875
2995.85758	1583.9875
2998.28917	1582.3875
3000.71928	1582.8875
3003.14791	1592.4875
3005.57506	1585.2875
3008.00073	1586.4875
3010.42493	1584.8875
3012.84764	1595.6875
3015.26888	1598.1875
3017.68865	1595.1875
3020.10694	1588.9875
3022.52376	1590.6875
3024.9391	1597.3875
3027.35298	1589.8875
3029.76539	1592.8875
3032.17632	1583.6875
3034.5858	1583.2875
3036.9938	1597.7875
3039.40034	1592.4875
3041.80542	1593.5875
3044.20903	1591.0875
3046.61118	1587.0875
3049.01187	1600.3875
3051.4111	1596.0875
3053.80888	1602.7875
3056.20519	1595.6875
3058.60005	1599.6875
3060.99345	1598.3875
3063.3854	1594.8875
3065.7759	1589.8875
3068.16494	1589.9875
3070.55254	1588.3875
3072.93868	1599.0875
3075.32338	1603.3875
3077.70662	1601.9875
3080.08842	1607.2875
3082.46878	1607.9875
3084.84769	1610.3875
3087.22515	1618.7875
3089.60118	1626.5875
3091.97576	1625.5875
3094.3489	1626.3875
3096.72061	1642.2875
3099.09087	1642.0875
3101.4597	1653.2875
3103.82709	1642.3875
3106.19305	1648.8875
3108.55757	1657.2875
3110.92066	1657.5875
3113.28232	1656.6875
3115.64255	1669.0875
3118.00134	1666.2875
3120.35871	1668.4875
3122.71466	1683.8875
3125.06917	1681.1875
3127.42226	1676.3875
3129.77393	1690.3875
3132.12417	1697.6875
3134.47299	1705.9875
3136.82039	1708.2875
3139.16636	1713.7875
3141.51092	1722.9875
3143.85406	1734.4875
3146.19579	1743.6875
3148.53609	1747.4875
3150.87499	1756.6875
3153.21246	1767.6875
3155.54853	1784.2875
3157.88318	1790.2875
3160.21642	1789.8875
3162.54826	1795.5875
3164.87868	1803.4875
3167.2077	1808.2875
3169.5353	1811.2875
3171.86151	1824.7875
3174.18631	1829.8875
3176.5097	1824.8875
3178.83169	1845.4875
3181.15228	1847.5875
3183.47147	1850.3875
3185.78926	1853.9875
3188.10565	1857.9875
3190.42065	1863.2875
3192.73424	1864.7875
3195.04645	1882.5875
3197.35725	1876.2875
3199.66667	1881.1875
3201.97469	1892.0875
3204.28132	1908.1875
3206.58656	1897.7875
3208.8904	1909.2875
3211.19287	1925.2875
3213.49394	1924.7875
3215.79363	1929.9875
3218.09193	1930.8875
3220.38884	1946.1875
3222.68438	1945.2875
3224.97853	1947.0875
3227.2713	1947.8875
3229.56269	1940.0875
3231.8527	1944.4875
3234.14133	1950.2875
3236.42858	1932.9875
3238.71446	1947.9875
3240.99896	1938.5875
3243.28209	1951.2875
3245.56384	1936.9875
3247.84423	1944.4875
3250.12324	1958.3875
3252.40088	1942.4875
3254.67715	1957.3875
3256.95205	1952.0875
3259.22558	1948.1875
3261.49775	1943.2875
3263.76855	1949.4875
3266.03799	1940.7875
3268.30606	1937.1875
3270.57277	1932.2875
3272.83812	1942.5875
3275.10211	1933.2875
3277.36474	1932.4875
3279.62601	1940.6875
3281.88593	1936.8875
3284.14448	1937.9875
3286.40168	1936.5875
3288.65753	1941.3875
3290.91202	1935.5875
3293.16516	1922.6875
3295.41695	1917.9875
3297.66738	1906.2875
3299.91647	1904.5875
3302.16421	1893.5875
3304.4106	1886.9875
3306.65564	1883.5875
3308.89933	1876.3875
3311.14169	1863.6875
3313.38269	1851.3875
3315.62236	1846.3875
3317.86068	1815.2875
3320.09766	1806.9875
3322.3333	1799.3875
3324.5676	1800.2875
3326.80056	1777.3875
3329.03219	1767.8875
3331.26248	-0.6125
3333.49143	0.8875
3335.71905	-0.1125
