Data from AgNPs_FTO_APTES_UA_0.1mM_CRN_10uM_NaF_0.1M_Addition_RamanShift__27__11-49-57-568.txt Node

Date: Mon Dec 20 11:49:57 GMT 2021
User: TCL
Spectrometer: QEP01345
Trigger mode: 4
Integration Time (sec): 7.000000E0
Scans to average: 10
Electric dark correction enabled: true
Nonlinearity correction enabled: false
Boxcar width: 0
XAxis mode: Raman Shifts
Number of Pixels in Spectrum: 1044
>>>>>Begin Spectral Data<<<<<
46.04893	-0.7875
50.45542	-0.5875
54.85868	-0.4875
59.25871	1.5125
63.6555	35.3125
68.04907	34.5125
72.43941	40.2125
76.82654	40.2125
81.21044	41.4125
85.59113	44.6125
89.96862	43.0125
94.34289	47.8125
98.71396	48.0125
103.08183	45.9125
107.4465	49.6125
111.80798	51.3125
116.16626	50.3125
120.52136	51.2125
124.87327	53.5125
129.222	56.0125
133.56755	59.9125
137.90993	65.5125
142.24913	67.4125
146.58517	71.4125
150.91804	87.1125
155.24774	98.4125
159.57429	120.9125
163.89768	149.9125
168.21792	199.9125
172.53501	257.0125
176.84895	356.0125
181.15975	493.4125
185.46741	677.9125
189.77193	934.8125
194.07331	1254.5125
198.37157	1627.1125
202.6667	2010.9125
206.9587	2401.9125
211.24758	2790.4125
215.53334	3170.8125
219.81599	3563.7125
224.09553	3975.0125
228.37195	4410.0125
232.64527	4900.1125
236.91549	5402.3125
241.18261	5877.5125
245.44663	6374.3125
249.70755	6792.5125
253.96539	7146.2125
258.22014	7444.7125
262.4718	7692.7125
266.72039	7798.2125
270.96589	7872.3125
275.20832	7863.7125
279.44768	7778.2125
283.68397	7667.9125
287.91719	7581.9125
292.14735	7530.1125
296.37445	7511.7125
300.59849	7519.9125
304.81948	7563.3125
309.03742	7581.0125
313.25231	7508.9125
317.46415	7360.3125
321.67296	7147.8125
325.87872	6980.3125
330.08145	6873.6125
334.28114	6876.8125
338.47781	6927.8125
342.67145	7001.1125
346.86207	7124.1125
351.04966	7283.6125
355.23424	7476.5125
359.4158	7626.7125
363.59435	7747.9125
367.76989	7826.1125
371.94243	7902.2125
376.11196	7954.7125
380.27849	8035.6125
384.44203	8085.9125
388.60257	8107.0125
392.76012	8183.1125
396.91468	8258.4125
401.06626	8344.4125
405.21485	8444.8125
409.36047	8406.0125
413.50311	8304.8125
417.64277	8171.1125
421.77947	8076.9125
425.9132	8076.2125
430.04396	8090.4125
434.17176	8127.5125
438.2966	8210.1125
442.41849	8309.8125
446.53742	8471.0125
450.6534	8629.2125
454.76644	8737.0125
458.87653	8803.3125
462.98368	8747.9125
467.08789	8685.1125
471.18916	8648.7125
475.2875	8620.8125
479.38291	8666.8125
483.4754	8728.4125
487.56496	8833.1125
491.6516	8922.1125
495.73531	8972.9125
499.81612	8866.3125
503.89401	8776.9125
507.96899	8700.3125
512.04106	8625.8125
516.11023	8623.7125
520.1765	8655.8125
524.23987	8750.5125
528.30034	8779.6125
532.35792	8723.5125
536.41261	8654.1125
540.46441	8510.9125
544.51333	8397.3125
548.55936	8335.5125
552.60252	8356.6125
556.64279	8385.6125
560.6802	8493.6125
564.71473	8530.6125
568.7464	8670.5125
572.7752	8789.4125
576.80114	8784.6125
580.82422	8761.0125
584.84444	8861.1125
588.86181	9039.2125
592.87633	9168.7125
596.888	9231.6125
600.89682	9182.7125
604.9028	9328.4125
608.90594	10080.6125
612.90624	11167.3125
616.90371	11156.9125
620.89834	10092.9125
624.89015	9877.5125
628.87913	10321.6125
632.86528	10806.3125
636.84862	11109.3125
640.82913	10884.4125
644.80683	10322.4125
648.78172	9686.1125
652.75379	9245.9125
656.72306	9017.8125
660.68952	8947.2125
664.65319	8877.0125
668.61405	8723.1125
672.57211	8678.1125
676.52738	8659.3125
680.47986	8652.0125
684.42955	8665.3125
688.37646	8641.9125
692.32058	8631.8125
696.26192	8589.2125
700.20048	8580.9125
704.13626	8547.9125
708.06928	8452.5125
711.99952	8384.9125
715.927	8344.8125
719.85171	8382.5125
723.77365	8433.0125
727.69284	8433.2125
731.60928	8381.9125
735.52295	8239.4125
739.43388	8216.7125
743.34206	8221.0125
747.24749	8229.9125
751.15017	8268.2125
755.05012	8316.0125
758.94733	8424.3125
762.8418	8699.4125
766.73354	9161.2125
770.62254	9642.8125
774.50882	9889.7125
778.39237	9653.7125
782.27321	9147.6125
786.15132	8649.9125
790.02671	8390.6125
793.89938	8301.9125
797.76935	8318.3125
801.6366	8467.3125
805.50115	8705.8125
809.36299	9023.7125
813.22213	9169.1125
817.07857	9028.7125
820.93231	8704.8125
824.78336	8381.9125
828.63172	8145.6125
832.47738	8017.4125
836.32036	7940.4125
840.16066	7909.1125
843.99827	7892.7125
847.8332	7857.9125
851.66546	7837.7125
855.49504	7811.3125
859.32195	7827.0125
863.1462	7834.0125
866.96777	7913.2125
870.78668	8006.2125
874.60293	8206.3125
878.41652	8412.3125
882.22745	8604.7125
886.03573	8735.6125
889.84136	8714.3125
893.64433	8512.3125
897.44466	8242.3125
901.24235	7978.9125
905.0374	7754.7125
908.8298	7621.0125
912.61957	7540.0125
916.40671	7514.0125
920.19121	7515.3125
923.97308	7519.7125
927.75233	7510.6125
931.52895	7497.8125
935.30295	7472.6125
939.07433	7393.8125
942.84309	7336.6125
946.60924	7286.5125
950.37278	7264.5125
954.13371	7295.8125
957.89203	7227.8125
961.64774	7219.1125
965.40086	7196.2125
969.15137	7149.8125
972.89929	7122.0125
976.64461	7099.6125
980.38733	7086.7125
984.12747	7072.0125
987.86502	7086.9125
991.59999	7136.5125
995.33237	7226.8125
999.06217	7350.3125
1002.78939	7519.6125
1006.51404	7682.6125
1010.23611	7838.0125
1013.95561	7949.3125
1017.67255	7975.5125
1021.38692	7877.5125
1025.09872	7768.5125
1028.80796	7596.6125
1032.51465	7510.3125
1036.21877	7428.2125
1039.92035	7396.8125
1043.61937	7343.3125
1047.31584	7301.0125
1051.00976	7264.8125
1054.70114	7279.1125
1058.38998	7312.7125
1062.07627	7365.9125
1065.76003	7462.4125
1069.44126	7509.1125
1073.11995	7561.3125
1076.79611	7582.5125
1080.46974	7543.8125
1084.14085	7500.9125
1087.80943	7503.9125
1091.47549	7469.2125
1095.13903	7422.5125
1098.80005	7323.0125
1102.45857	7233.3125
1106.11456	7214.8125
1109.76805	7274.0125
1113.41903	7363.1125
1117.06751	7589.9125
1120.71348	7876.2125
1124.35696	8313.0125
1127.99793	8860.6125
1131.63641	9354.7125
1135.2724	9587.6125
1138.90589	9570.1125
1142.5369	9306.2125
1146.16542	8902.1125
1149.79145	8449.1125
1153.415	8058.3125
1157.03607	7760.4125
1160.65467	7630.4125
1164.27079	7643.8125
1167.88443	7758.3125
1171.49561	8030.5125
1175.10432	8416.5125
1178.71056	8979.1125
1182.31434	9529.0125
1185.91565	9787.2125
1189.51451	9858.3125
1193.11091	9820.5125
1196.70485	9809.9125
1200.29634	9865.5125
1203.88538	9792.7125
1207.47197	9606.0125
1211.05612	9251.0125
1214.63782	8923.1125
1218.21708	8570.6125
1221.79391	8310.5125
1225.36829	8116.2125
1228.94024	7921.6125
1232.50976	7785.8125
1236.07685	7692.0125
1239.6415	7654.3125
1243.20374	7674.6125
1246.76355	7699.7125
1250.32093	7764.4125
1253.8759	7838.6125
1257.42845	7950.2125
1260.97859	8073.6125
1264.52631	8177.9125
1268.07163	8259.0125
1271.61453	8336.7125
1275.15503	8393.0125
1278.69312	8475.3125
1282.22882	8540.7125
1285.76211	8651.8125
1289.29301	8819.0125
1292.82151	9074.4125
1296.34761	9401.7125
1299.87133	9783.2125
1303.39266	10284.1125
1306.9116	10890.2125
1310.42815	11550.9125
1313.94233	12046.8125
1317.45412	12086.4125
1320.96354	11873.7125
1324.47058	11533.7125
1327.97525	11200.9125
1331.47754	11019.0125
1334.97747	10986.0125
1338.47502	11039.4125
1341.97022	11152.2125
1345.46305	11195.9125
1348.95352	11365.3125
1352.44163	11589.0125
1355.92738	12023.8125
1359.41078	12733.2125
1362.89183	13440.6125
1366.37053	13354.0125
1369.84688	12297.4125
1373.32088	11087.4125
1376.79254	10243.9125
1380.26186	9851.1125
1383.72883	9665.6125
1387.19347	9554.4125
1390.65578	9424.7125
1394.11575	9346.6125
1397.57339	9345.0125
1401.0287	9418.6125
1404.48168	9466.3125
1407.93234	9442.6125
1411.38068	9281.3125
1414.82669	9046.5125
1418.27039	8719.1125
1421.71177	8373.0125
1425.15083	8042.8125
1428.58758	7864.8125
1432.02203	7795.3125
1435.45416	7838.6125
1438.88399	7899.4125
1442.31151	7969.8125
1445.73673	8025.6125
1449.15965	8122.3125
1452.58027	8157.6125
1455.9986	8140.0125
1459.41463	8164.6125
1462.82837	8220.3125
1466.23982	8319.5125
1469.64898	8436.3125
1473.05586	8492.7125
1476.46045	8514.0125
1479.86276	8542.2125
1483.26279	8562.6125
1486.66054	8568.8125
1490.05602	8638.1125
1493.44922	8748.9125
1496.84016	8895.7125
1500.22882	9137.4125
1503.61521	9549.5125
1506.99934	10036.6125
1510.38121	10539.1125
1513.76081	10746.1125
1517.13816	10463.4125
1520.51324	9826.9125
1523.88607	9214.5125
1527.25665	8857.1125
1530.62498	8669.7125
1533.99105	8657.3125
1537.35488	8673.5125
1540.71647	8684.0125
1544.07581	8720.4125
1547.4329	8714.0125
1550.78776	8666.2125
1554.14038	8641.6125
1557.49077	8636.7125
1560.83892	8658.3125
1564.18484	8714.3125
1567.52853	8751.7125
1570.86999	8851.9125
1574.20922	8910.8125
1577.54624	8974.2125
1580.88103	8913.3125
1584.2136	8805.6125
1587.54395	8811.9125
1590.87208	9010.7125
1594.19801	9369.6125
1597.52172	9768.4125
1600.84321	10010.2125
1604.16251	9879.7125
1607.47959	9509.0125
1610.79447	9047.9125
1614.10715	8582.3125
1617.41763	8225.7125
1620.7259	7995.2125
1624.03199	7895.0125
1627.33587	7920.3125
1630.63757	8017.4125
1633.93707	8270.2125
1637.23439	8682.5125
1640.52951	9251.3125
1643.82246	9998.7125
1647.11321	10744.6125
1650.40179	11166.1125
1653.68819	10961.4125
1656.97241	10064.1125
1660.25446	9089.6125
1663.53433	8328.9125
1666.81203	7793.9125
1670.08756	7438.2125
1673.36092	7185.9125
1676.63211	6998.5125
1679.90115	6889.7125
1683.16801	6777.4125
1686.43272	6627.7125
1689.69527	6549.0125
1692.95567	6445.0125
1696.2139	6371.8125
1699.46999	6266.7125
1702.72392	6148.9125
1705.97571	6042.1125
1709.22535	5939.6125
1712.47284	5858.2125
1715.71819	5788.4125
1718.96139	5717.3125
1722.20246	5665.4125
1725.44139	5606.5125
1728.67818	5533.6125
1731.91284	5465.7125
1735.14537	5427.6125
1738.37576	5388.6125
1741.60403	5355.3125
1744.83017	5314.2125
1748.05418	5292.8125
1751.27607	5283.2125
1754.49584	5278.5125
1757.71349	5263.0125
1760.92903	5251.7125
1764.14244	5240.1125
1767.35375	5222.7125
1770.56294	5199.0125
1773.77002	5170.8125
1776.97499	5132.0125
1780.17785	5108.3125
1783.37861	5076.2125
1786.57727	5052.4125
1789.77382	5016.1125
1792.96828	5040.2125
1796.16064	5004.3125
1799.3509	4979.1125
1802.53907	4964.8125
1805.72514	4947.3125
1808.90913	4932.6125
1812.09102	4916.7125
1815.27083	4900.5125
1818.44856	4897.0125
1821.6242	4881.9125
1824.79776	4877.4125
1827.96924	4862.2125
1831.13864	4832.7125
1834.30597	4845.6125
1837.47122	4834.2125
1840.6344	4811.5125
1843.7955	4828.0125
1846.95454	4822.9125
1850.11151	4817.6125
1853.26642	4794.9125
1856.41926	4792.5125
1859.57004	4794.2125
1862.71876	4772.4125
1865.86542	4779.4125
1869.01003	4765.4125
1872.15258	4761.8125
1875.29308	4751.1125
1878.43152	4745.6125
1881.56792	4729.4125
1884.70227	4729.5125
1887.83457	4733.6125
1890.96482	4722.9125
1894.09304	4722.0125
1897.21921	4714.4125
1900.34335	4715.8125
1903.46544	4698.1125
1906.58551	4698.0125
1909.70353	4691.9125
1912.81953	4680.7125
1915.93349	4672.9125
1919.04543	4642.0125
1922.15534	4641.4125
1925.26322	4632.2125
1928.36908	4619.1125
1931.47292	4603.4125
1934.57473	4583.0125
1937.67453	4567.7125
1940.77232	4567.2125
1943.86808	4546.9125
1946.96184	4537.8125
1950.05358	4512.9125
1953.14331	4510.6125
1956.23103	4486.9125
1959.31675	4492.3125
1962.40046	4472.2125
1965.48217	4455.6125
1968.56188	4459.1125
1971.63959	4428.2125
1974.7153	4416.8125
1977.78901	4410.5125
1980.86073	4382.6125
1983.93046	4368.0125
1986.99819	4352.8125
1990.06394	4340.5125
1993.1277	4324.0125
1996.18947	4305.4125
1999.24925	4304.5125
2002.30706	4283.9125
2005.36288	4264.1125
2008.41672	4263.3125
2011.46859	4247.7125
2014.51848	4226.0125
2017.56639	4204.4125
2020.61233	4210.0125
2023.6563	4194.4125
2026.6983	4173.7125
2029.73833	4175.3125
2032.7764	4163.9125
2035.8125	4158.0125
2038.84664	4138.6125
2041.87881	4153.1125
2044.90903	4132.5125
2047.93729	4115.3125
2050.96359	4127.6125
2053.98794	4110.5125
2057.01034	4108.4125
2060.03078	4094.8125
2063.04927	4102.9125
2066.06582	4096.7125
2069.08042	4078.2125
2072.09307	4065.3125
2075.10378	4066.4125
2078.11255	4086.0125
2081.11938	4065.9125
2084.12426	4057.3125
2087.12722	4068.1125
2090.12824	4078.6125
2093.12732	4053.7125
2096.12447	4049.0125
2099.11969	4039.9125
2102.11299	4047.1125
2105.10435	4052.6125
2108.09379	4060.3125
2111.08131	4043.9125
2114.0669	4048.5125
2117.05057	4049.8125
2120.03233	4060.4125
2123.01216	4056.1125
2125.99008	4064.2125
2128.96609	4059.4125
2131.94018	4066.2125
2134.91236	4068.2125
2137.88263	4051.7125
2140.851	4071.9125
2143.81746	4068.0125
2146.78201	4050.5125
2149.74466	4056.2125
2152.7054	4056.6125
2155.66425	4058.5125
2158.6212	4040.1125
2161.57625	4052.8125
2164.52941	4052.6125
2167.48067	4038.8125
2170.43004	4032.3125
2173.37752	4016.8125
2176.32311	4019.3125
2179.26681	4031.8125
2182.20863	4020.5125
2185.14856	4037.2125
2188.08661	4026.3125
2191.02278	4008.5125
2193.95707	4013.4125
2196.88948	4010.2125
2199.82001	4011.2125
2202.74867	4003.7125
2205.67545	4001.1125
2208.60037	3979.9125
2211.52341	3981.9125
2214.44458	3964.2125
2217.36388	3955.4125
2220.28132	3960.1125
2223.1969	3942.3125
2226.11061	3929.2125
2229.02246	3928.8125
2231.93245	3929.3125
2234.84058	3904.0125
2237.74686	3897.5125
2240.65128	3899.1125
2243.55385	3877.7125
2246.45456	3889.1125
2249.35343	3879.7125
2252.25044	3875.9125
2255.14561	3875.4125
2258.03893	3862.6125
2260.93041	3872.6125
2263.82004	3839.9125
2266.70783	3843.3125
2269.59378	3829.2125
2272.4779	3817.0125
2275.36017	3810.4125
2278.24061	3804.5125
2281.11922	3789.4125
2283.996	3780.4125
2286.87094	3792.5125
2289.74405	3774.1125
2292.61534	3750.4125
2295.4848	3745.9125
2298.35243	3734.9125
2301.21824	3739.8125
2304.08223	3739.0125
2306.94439	3731.1125
2309.80474	3724.6125
2312.66327	3723.6125
2315.51999	3732.7125
2318.37489	3717.9125
2321.22797	3724.4125
2324.07925	3711.3125
2326.92871	3705.3125
2329.77637	3689.4125
2332.62222	3687.7125
2335.46626	3684.8125
2338.3085	3678.2125
2341.14893	3665.6125
2343.98756	3670.2125
2346.8244	3662.3125
2349.65943	3668.1125
2352.49267	3670.5125
2355.32411	3674.4125
2358.15376	3655.4125
2360.98161	3657.8125
2363.80768	3651.8125
2366.63195	3649.7125
2369.45444	3645.6125
2372.27514	3648.5125
2375.09405	3641.1125
2377.91118	3631.6125
2380.72652	3615.1125
2383.54009	3616.2125
2386.35187	3611.5125
2389.16188	3603.4125
2391.97011	3598.3125
2394.77657	3580.5125
2397.58125	3555.0125
2400.38416	3562.9125
2403.18529	3539.2125
2405.98466	3553.5125
2408.78226	3546.6125
2411.57809	3526.2125
2414.37216	3516.7125
2417.16446	3515.1125
2419.955	3503.1125
2422.74378	3501.6125
2425.5308	3499.5125
2428.31606	3484.8125
2431.09956	3481.9125
2433.88131	3475.8125
2436.6613	3486.1125
2439.43954	3473.9125
2442.21603	3474.5125
2444.99077	3470.0125
2447.76377	3458.9125
2450.53501	3476.8125
2453.30451	3452.9125
2456.07226	3452.1125
2458.83827	3454.6125
2461.60254	3455.5125
2464.36507	3433.7125
2467.12586	3441.6125
2469.88492	3440.1125
2472.64224	3423.9125
2475.39782	3424.1125
2478.15167	3438.0125
2480.90379	3422.3125
2483.65417	3445.9125
2486.40283	3435.9125
2489.14976	3437.5125
2491.89497	3418.2125
2494.63845	3422.2125
2497.3802	3427.1125
2500.12024	3400.0125
2502.85855	3414.8125
2505.59514	3401.3125
2508.33002	3391.5125
2511.06318	3404.5125
2513.79462	3390.7125
2516.52435	3391.5125
2519.25237	3378.0125
2521.97867	3362.7125
2524.70327	3371.3125
2527.42616	3360.1125
2530.14734	3359.2125
2532.86681	3355.4125
2535.58458	3345.8125
2538.30065	3331.9125
2541.01501	3324.5125
2543.72768	3323.9125
2546.43864	3305.2125
2549.14791	3317.8125
2551.85548	3302.1125
2554.56136	3292.2125
2557.26554	3305.5125
2559.96803	3293.8125
2562.66883	3292.6125
2565.36794	3280.7125
2568.06536	3275.2125
2570.7611	3271.0125
2573.45514	3253.6125
2576.14751	3265.7125
2578.83819	3250.5125
2581.52719	3260.2125
2584.21451	3239.5125
2586.90015	3238.3125
2589.58411	3243.6125
2592.2664	3235.3125
2594.94701	3226.8125
2597.62594	3215.9125
2600.30321	3210.6125
2602.9788	3217.9125
2605.65273	3205.1125
2608.32498	3199.5125
2610.99557	3200.7125
2613.66449	3181.7125
2616.33175	3198.0125
2618.99734	3192.1125
2621.66128	3181.4125
2624.32355	3175.7125
2626.98416	3175.6125
2629.64311	3169.6125
2632.30041	3169.2125
2634.95605	3170.5125
2637.61004	3163.7125
2640.26238	3165.9125
2642.91306	3144.8125
2645.56209	3157.4125
2648.20948	3157.9125
2650.85521	3139.6125
2653.4993	3140.1125
2656.14175	3128.6125
2658.78255	3138.4125
2661.42171	3129.4125
2664.05923	3144.1125
2666.6951	3140.5125
2669.32934	3146.3125
2671.96194	3139.9125
2674.59291	3137.6125
2677.22224	3133.6125
2679.84993	3151.6125
2682.476	3150.8125
2685.10043	3147.7125
2687.72324	3137.0125
2690.34441	3131.5125
2692.96396	3127.5125
2695.58188	3131.2125
2698.19818	3144.4125
2700.81285	3138.7125
2703.4259	3149.2125
2706.03733	3161.2125
2708.64714	3156.9125
2711.25533	3147.6125
2713.86191	3135.0125
2716.46687	3158.1125
2719.07021	3133.6125
2721.67194	3159.3125
2724.27206	3138.2125
2726.87057	3134.8125
2729.46747	3130.5125
2732.06276	3133.4125
2734.65644	3145.7125
2737.24852	3133.7125
2739.83899	3132.6125
2742.42786	3132.2125
2745.01513	3117.2125
2747.60079	3122.7125
2750.18486	3125.5125
2752.76733	3118.7125
2755.3482	3115.3125
2757.92747	3101.2125
2760.50515	3109.9125
2763.08123	3100.4125
2765.65573	3087.2125
2768.22863	3104.1125
2770.79994	3092.3125
2773.36967	3092.8125
2775.9378	3095.7125
2778.50435	3081.2125
2781.06932	3073.9125
2783.6327	3079.7125
2786.1945	3075.2125
2788.75471	3078.2125
2791.31335	3068.7125
2793.87041	3068.8125
2796.42589	3044.1125
2798.97979	3044.9125
2801.53212	3046.4125
2804.08288	3045.6125
2806.63206	3024.9125
2809.17967	3022.5125
2811.72571	3015.9125
2814.27018	3007.2125
2816.81308	3003.7125
2819.35442	3007.9125
2821.89419	2997.3125
2824.43239	3002.9125
2826.96904	2996.5125
2829.50412	2991.0125
2832.03763	2989.4125
2834.56959	2992.4125
2837.1	2985.1125
2839.62884	2996.9125
2842.15613	2981.8125
2844.68186	2995.2125
2847.20604	2993.5125
2849.72867	2989.2125
2852.24974	2990.6125
2854.76927	2992.1125
2857.28724	2998.5125
2859.80367	2983.9125
2862.31855	2983.9125
2864.83189	2980.2125
2867.34368	2971.4125
2869.85393	2975.3125
2872.36264	2971.3125
2874.8698	2985.3125
2877.37543	2986.1125
2879.87952	2984.1125
2882.38207	2990.0125
2884.88308	2994.9125
2887.38256	2981.8125
2889.88051	2985.6125
2892.37692	2994.2125
2894.8718	2988.1125
2897.36515	3000.9125
2899.85698	2991.9125
2902.34727	3002.3125
2904.83604	3006.7125
2907.32328	3013.3125
2909.809	3009.0125
2912.29319	2998.6125
2914.77587	3001.4125
2917.25702	2995.7125
2919.73665	2996.2125
2922.21476	2997.1125
2924.69136	3001.6125
2927.16644	3002.8125
2929.64	3004.5125
2932.11205	3009.2125
2934.58258	2999.8125
2937.05161	2992.8125
2939.51912	2988.4125
2941.98513	2979.4125
2944.44962	2980.2125
2946.91261	2967.9125
2949.37409	2986.6125
2951.83407	2974.5125
2954.29254	2980.8125
2956.74951	2958.6125
2959.20498	2950.4125
2961.65895	2945.8125
2964.11142	2940.0125
2966.56239	2945.3125
2969.01186	2941.3125
2971.45984	2932.8125
2973.90632	2927.4125
2976.35131	2919.2125
2978.7948	2918.8125
2981.23681	2918.1125
2983.67732	2902.3125
2986.11635	2902.2125
2988.55388	2895.8125
2990.98993	2892.7125
2993.4245	2867.3125
2995.85758	2875.3125
2998.28917	2878.3125
3000.71928	2870.9125
3003.14791	2863.4125
3005.57506	2867.6125
3008.00073	2857.5125
3010.42493	2877.1125
3012.84764	2867.0125
3015.26888	2856.6125
3017.68865	2856.6125
3020.10694	2864.9125
3022.52376	2854.2125
3024.9391	2849.8125
3027.35298	2846.5125
3029.76539	2837.9125
3032.17632	2840.4125
3034.5858	2837.4125
3036.9938	2830.5125
3039.40034	2839.0125
3041.80542	2846.3125
3044.20903	2846.6125
3046.61118	2839.8125
3049.01187	2834.0125
3051.4111	2836.5125
3053.80888	2832.0125
3056.20519	2840.0125
3058.60005	2830.9125
3060.99345	2818.3125
3063.3854	2809.3125
3065.7759	2802.2125
3068.16494	2812.0125
3070.55254	2816.8125
3072.93868	2813.2125
3075.32338	2819.8125
3077.70662	2819.6125
3080.08842	2812.0125
3082.46878	2821.8125
3084.84769	2800.7125
3087.22515	2818.8125
3089.60118	2813.6125
3091.97576	2835.6125
3094.3489	2829.4125
3096.72061	2835.1125
3099.09087	2848.2125
3101.4597	2838.8125
3103.82709	2838.9125
3106.19305	2839.8125
3108.55757	2853.1125
3110.92066	2834.9125
3113.28232	2838.1125
3115.64255	2837.6125
3118.00134	2843.0125
3120.35871	2846.6125
3122.71466	2841.2125
3125.06917	2850.1125
3127.42226	2855.5125
3129.77393	2850.3125
3132.12417	2868.6125
3134.47299	2870.7125
3136.82039	2871.3125
3139.16636	2873.5125
3141.51092	2874.9125
3143.85406	2883.1125
3146.19579	2891.1125
3148.53609	2901.5125
3150.87499	2893.8125
3153.21246	2906.0125
3155.54853	2912.2125
3157.88318	2925.2125
3160.21642	2925.3125
3162.54826	2936.9125
3164.87868	2935.8125
3167.2077	2954.0125
3169.5353	2940.0125
3171.86151	2948.7125
3174.18631	2962.5125
3176.5097	2954.1125
3178.83169	2955.7125
3181.15228	2962.0125
3183.47147	2964.9125
3185.78926	2976.4125
3188.10565	2979.2125
3190.42065	2981.0125
3192.73424	2976.9125
3195.04645	3002.1125
3197.35725	2982.6125
3199.66667	3006.4125
3201.97469	3019.8125
3204.28132	3026.7125
3206.58656	3020.6125
3208.8904	3032.2125
3211.19287	3037.8125
3213.49394	3027.4125
3215.79363	3034.5125
3218.09193	3034.8125
3220.38884	3044.8125
3222.68438	3043.2125
3224.97853	3048.0125
3227.2713	3050.4125
3229.56269	3041.0125
3231.8527	3040.6125
3234.14133	3029.4125
3236.42858	3037.2125
3238.71446	3036.0125
3240.99896	3026.6125
3243.28209	3030.0125
3245.56384	3026.8125
3247.84423	3032.4125
3250.12324	3036.3125
3252.40088	3030.1125
3254.67715	3037.4125
3256.95205	3030.1125
3259.22558	3038.5125
3261.49775	3018.2125
3263.76855	3024.7125
3266.03799	3012.2125
3268.30606	3011.4125
3270.57277	3011.5125
3272.83812	3008.1125
3275.10211	2997.1125
3277.36474	3003.6125
3279.62601	2991.2125
3281.88593	2997.1125
3284.14448	3007.0125
3286.40168	2997.0125
3288.65753	2989.7125
3290.91202	2997.3125
3293.16516	2971.0125
3295.41695	2975.7125
3297.66738	2944.5125
3299.91647	2948.3125
3302.16421	2914.1125
3304.4106	2898.9125
3306.65564	2900.5125
3308.89933	2879.3125
3311.14169	2864.6125
3313.38269	2846.1125
3315.62236	2825.3125
3317.86068	2802.7125
3320.09766	2769.1125
3322.3333	2752.1125
3324.5676	2757.1125
3326.80056	2728.5125
3329.03219	2703.4125
3331.26248	0.2125
3333.49143	0.0125
3335.71905	-0.1875
