Data from AgNPs_FTO_APTES_UA_0.1mM_CRN_50uM_NaF_0.1M_Addition_RamanShift__13__12-51-47-638.txt Node

Date: Mon Dec 20 12:51:47 GMT 2021
User: TCL
Spectrometer: QEP01345
Trigger mode: 4
Integration Time (sec): 7.000000E0
Scans to average: 10
Electric dark correction enabled: true
Nonlinearity correction enabled: false
Boxcar width: 0
XAxis mode: Raman Shifts
Number of Pixels in Spectrum: 1044
>>>>>Begin Spectral Data<<<<<
46.04893	0.9875
50.45542	0.2875
54.85868	-1.8125
59.25871	1.0875
63.6555	29.0875
68.04907	31.6875
72.43941	37.5875
76.82654	35.2875
81.21044	34.9875
85.59113	42.7875
89.96862	37.8875
94.34289	42.9875
98.71396	40.5875
103.08183	42.5875
107.4465	46.7875
111.80798	49.3875
116.16626	48.7875
120.52136	47.6875
124.87327	51.9875
129.222	50.3875
133.56755	58.5875
137.90993	61.9875
142.24913	62.9875
146.58517	69.2875
150.91804	82.3875
155.24774	97.6875
159.57429	113.8875
163.89768	149.9875
168.21792	199.7875
172.53501	257.7875
176.84895	365.4875
181.15975	511.3875
185.46741	715.4875
189.77193	1000.2875
194.07331	1336.7875
198.37157	1743.0875
202.6667	2173.9875
206.9587	2589.7875
211.24758	3009.9875
215.53334	3435.0875
219.81599	3879.3875
224.09553	4348.9875
228.37195	4863.6875
232.64527	5476.7875
236.91549	6129.7875
241.18261	6775.2875
245.44663	7417.2875
249.70755	7991.3875
253.96539	8458.6875
258.22014	8766.1875
262.4718	8930.7875
266.72039	8954.3875
270.96589	8858.0875
275.20832	8659.0875
279.44768	8409.5875
283.68397	8125.3875
287.91719	7861.5875
292.14735	7623.8875
296.37445	7461.1875
300.59849	7314.0875
304.81948	7236.8875
309.03742	7171.2875
313.25231	7113.5875
317.46415	7018.8875
321.67296	6962.4875
325.87872	6892.4875
330.08145	6887.4875
334.28114	6873.2875
338.47781	6897.3875
342.67145	6952.1875
346.86207	6982.5875
351.04966	7046.4875
355.23424	7126.8875
359.4158	7207.2875
363.59435	7247.4875
367.76989	7337.8875
371.94243	7404.3875
376.11196	7459.5875
380.27849	7511.8875
384.44203	7595.8875
388.60257	7644.6875
392.76012	7743.0875
396.91468	7864.6875
401.06626	8003.8875
405.21485	8153.8875
409.36047	8223.7875
413.50311	8214.4875
417.64277	8139.9875
421.77947	8118.0875
425.9132	8092.2875
430.04396	8076.7875
434.17176	8059.1875
438.2966	8094.0875
442.41849	8110.2875
446.53742	8148.2875
450.6534	8218.7875
454.76644	8269.8875
458.87653	8291.2875
462.98368	8328.0875
467.08789	8319.9875
471.18916	8343.6875
475.2875	8394.0875
479.38291	8421.6875
483.4754	8491.5875
487.56496	8550.0875
491.6516	8594.2875
495.73531	8662.2875
499.81612	8718.8875
503.89401	8816.6875
507.96899	8838.1875
512.04106	8837.8875
516.11023	8800.5875
520.1765	8707.7875
524.23987	8610.4875
528.30034	8568.8875
532.35792	8519.4875
536.41261	8461.7875
540.46441	8405.4875
544.51333	8409.3875
548.55936	8425.1875
552.60252	8436.1875
556.64279	8511.9875
560.6802	8535.5875
564.71473	8551.9875
568.7464	8582.5875
572.7752	8616.1875
576.80114	8628.9875
580.82422	8644.8875
584.84444	8644.8875
588.86181	8740.3875
592.87633	8735.2875
596.888	8772.2875
600.89682	8826.2875
604.9028	8995.3875
608.90594	9351.3875
612.90624	9757.6875
616.90371	9697.4875
620.89834	9254.4875
624.89015	8989.5875
628.87913	9011.4875
632.86528	9123.9875
636.84862	9216.3875
640.82913	9281.0875
644.80683	9254.6875
648.78172	9230.5875
652.75379	9170.1875
656.72306	9183.4875
660.68952	9232.3875
664.65319	9262.6875
668.61405	9303.5875
672.57211	9377.9875
676.52738	9466.1875
680.47986	9460.2875
684.42955	9445.2875
688.37646	9422.9875
692.32058	9436.6875
696.26192	9445.9875
700.20048	9439.1875
704.13626	9371.9875
708.06928	9280.2875
711.99952	9151.5875
715.927	8986.0875
719.85171	8907.8875
723.77365	8868.9875
727.69284	8811.2875
731.60928	8799.1875
735.52295	8781.7875
739.43388	8792.0875
743.34206	8841.5875
747.24749	8913.1875
751.15017	8971.4875
755.05012	9021.8875
758.94733	9092.7875
762.8418	9215.2875
766.73354	9354.4875
770.62254	9505.2875
774.50882	9577.0875
778.39237	9501.3875
782.27321	9318.6875
786.15132	9099.6875
790.02671	8924.1875
793.89938	8859.9875
797.76935	8835.4875
801.6366	8863.8875
805.50115	8929.8875
809.36299	9010.7875
813.22213	8995.0875
817.07857	8973.6875
820.93231	8882.1875
824.78336	8773.5875
828.63172	8698.7875
832.47738	8646.0875
836.32036	8603.2875
840.16066	8602.8875
843.99827	8592.8875
847.8332	8603.6875
851.66546	8604.0875
855.49504	8627.4875
859.32195	8599.2875
863.1462	8582.8875
866.96777	8616.3875
870.78668	8628.4875
874.60293	8669.0875
878.41652	8669.5875
882.22745	8742.3875
886.03573	8741.4875
889.84136	8764.1875
893.64433	8781.2875
897.44466	8764.5875
901.24235	8769.3875
905.0374	8718.4875
908.8298	8696.0875
912.61957	8694.0875
916.40671	8646.2875
920.19121	8635.4875
923.97308	8658.7875
927.75233	8610.2875
931.52895	8595.7875
935.30295	8560.9875
939.07433	8524.6875
942.84309	8471.8875
946.60924	8475.7875
950.37278	8443.3875
954.13371	8421.3875
957.89203	8435.0875
961.64774	8413.4875
965.40086	8415.1875
969.15137	8388.9875
972.89929	8396.5875
976.64461	8374.8875
980.38733	8386.4875
984.12747	8372.1875
987.86502	8371.2875
991.59999	8404.9875
995.33237	8429.9875
999.06217	8437.0875
1002.78939	8472.6875
1006.51404	8471.0875
1010.23611	8507.5875
1013.95561	8560.4875
1017.67255	8565.0875
1021.38692	8573.5875
1025.09872	8568.1875
1028.80796	8565.5875
1032.51465	8529.5875
1036.21877	8551.6875
1039.92035	8546.4875
1043.61937	8570.8875
1047.31584	8556.2875
1051.00976	8605.6875
1054.70114	8605.5875
1058.38998	8609.8875
1062.07627	8630.7875
1065.76003	8647.0875
1069.44126	8678.3875
1073.11995	8677.9875
1076.79611	8713.2875
1080.46974	8716.3875
1084.14085	8708.8875
1087.80943	8675.0875
1091.47549	8679.6875
1095.13903	8662.8875
1098.80005	8658.3875
1102.45857	8624.7875
1106.11456	8619.8875
1109.76805	8629.4875
1113.41903	8668.5875
1117.06751	8711.3875
1120.71348	8812.0875
1124.35696	8941.4875
1127.99793	9070.6875
1131.63641	9219.0875
1135.2724	9268.2875
1138.90589	9274.8875
1142.5369	9256.7875
1146.16542	9163.6875
1149.79145	9081.7875
1153.415	8951.8875
1157.03607	8820.8875
1160.65467	8762.9875
1164.27079	8697.6875
1167.88443	8724.1875
1171.49561	8796.7875
1175.10432	8894.6875
1178.71056	9049.2875
1182.31434	9219.9875
1185.91565	9326.0875
1189.51451	9369.8875
1193.11091	9353.6875
1196.70485	9352.4875
1200.29634	9319.6875
1203.88538	9276.4875
1207.47197	9218.8875
1211.05612	9188.7875
1214.63782	9191.4875
1218.21708	9181.9875
1221.79391	9175.2875
1225.36829	9142.9875
1228.94024	9111.3875
1232.50976	9058.1875
1236.07685	9002.2875
1239.6415	8972.9875
1243.20374	8958.1875
1246.76355	8976.0875
1250.32093	9012.0875
1253.8759	9030.1875
1257.42845	9097.2875
1260.97859	9180.7875
1264.52631	9220.0875
1268.07163	9217.8875
1271.61453	9234.6875
1275.15503	9225.4875
1278.69312	9232.2875
1282.22882	9204.8875
1285.76211	9183.8875
1289.29301	9218.7875
1292.82151	9259.7875
1296.34761	9369.4875
1299.87133	9467.0875
1303.39266	9603.2875
1306.9116	9804.7875
1310.42815	9979.7875
1313.94233	10121.7875
1317.45412	10164.8875
1320.96354	10141.4875
1324.47058	10094.2875
1327.97525	10017.0875
1331.47754	9997.0875
1334.97747	9978.2875
1338.47502	10021.2875
1341.97022	10095.5875
1345.46305	10226.1875
1348.95352	10420.4875
1352.44163	10536.4875
1355.92738	10658.0875
1359.41078	10781.8875
1362.89183	10960.0875
1366.37053	10903.6875
1369.84688	10557.2875
1373.32088	10141.1875
1376.79254	9852.7875
1380.26186	9670.7875
1383.72883	9589.6875
1387.19347	9485.0875
1390.65578	9388.0875
1394.11575	9314.6875
1397.57339	9223.1875
1401.0287	9117.1875
1404.48168	9081.7875
1407.93234	9006.7875
1411.38068	8941.5875
1414.82669	8871.6875
1418.27039	8800.7875
1421.71177	8705.4875
1425.15083	8618.7875
1428.58758	8546.8875
1432.02203	8481.7875
1435.45416	8458.4875
1438.88399	8432.4875
1442.31151	8387.1875
1445.73673	8368.2875
1449.15965	8386.5875
1452.58027	8381.9875
1455.9986	8396.5875
1459.41463	8424.1875
1462.82837	8431.4875
1466.23982	8484.2875
1469.64898	8557.3875
1473.05586	8637.7875
1476.46045	8663.3875
1479.86276	8695.5875
1483.26279	8713.0875
1486.66054	8758.8875
1490.05602	8786.4875
1493.44922	8863.0875
1496.84016	8976.0875
1500.22882	9158.0875
1503.61521	9371.1875
1506.99934	9625.2875
1510.38121	9792.7875
1513.76081	9811.6875
1517.13816	9707.4875
1520.51324	9492.2875
1523.88607	9328.9875
1527.25665	9205.0875
1530.62498	9178.6875
1533.99105	9167.6875
1537.35488	9178.0875
1540.71647	9196.2875
1544.07581	9250.6875
1547.4329	9299.5875
1550.78776	9357.6875
1554.14038	9426.5875
1557.49077	9475.7875
1560.83892	9534.8875
1564.18484	9588.8875
1567.52853	9656.0875
1570.86999	9703.5875
1574.20922	9753.3875
1577.54624	9756.8875
1580.88103	9720.1875
1584.2136	9627.0875
1587.54395	9584.9875
1590.87208	9562.6875
1594.19801	9584.3875
1597.52172	9621.9875
1600.84321	9658.7875
1604.16251	9579.0875
1607.47959	9464.6875
1610.79447	9345.1875
1614.10715	9212.3875
1617.41763	9087.1875
1620.7259	8941.2875
1624.03199	8877.2875
1627.33587	8838.4875
1630.63757	8835.8875
1633.93707	8839.8875
1637.23439	8894.6875
1640.52951	9027.1875
1643.82246	9197.3875
1647.11321	9382.7875
1650.40179	9525.5875
1653.68819	9468.2875
1656.97241	9250.2875
1660.25446	8958.8875
1663.53433	8753.4875
1666.81203	8588.2875
1670.08756	8440.8875
1673.36092	8313.5875
1676.63211	8231.5875
1679.90115	8130.9875
1683.16801	8056.6875
1686.43272	7966.7875
1689.69527	7886.0875
1692.95567	7797.5875
1696.2139	7726.5875
1699.46999	7692.5875
1702.72392	7614.4875
1705.97571	7578.1875
1709.22535	7535.1875
1712.47284	7535.0875
1715.71819	7478.0875
1718.96139	7452.7875
1722.20246	7405.5875
1725.44139	7369.9875
1728.67818	7322.9875
1731.91284	7224.9875
1735.14537	7184.4875
1738.37576	7154.2875
1741.60403	7089.1875
1744.83017	7047.0875
1748.05418	7032.1875
1751.27607	6992.1875
1754.49584	6986.6875
1757.71349	6975.2875
1760.92903	6940.0875
1764.14244	6930.2875
1767.35375	6926.7875
1770.56294	6897.2875
1773.77002	6867.8875
1776.97499	6853.3875
1780.17785	6801.3875
1783.37861	6766.3875
1786.57727	6765.2875
1789.77382	6734.5875
1792.96828	6691.1875
1796.16064	6686.3875
1799.3509	6662.0875
1802.53907	6628.7875
1805.72514	6616.4875
1808.90913	6578.7875
1812.09102	6558.8875
1815.27083	6560.1875
1818.44856	6536.2875
1821.6242	6498.8875
1824.79776	6500.2875
1827.96924	6463.0875
1831.13864	6474.4875
1834.30597	6477.7875
1837.47122	6465.5875
1840.6344	6446.0875
1843.7955	6431.0875
1846.95454	6432.7875
1850.11151	6411.3875
1853.26642	6400.2875
1856.41926	6400.8875
1859.57004	6411.2875
1862.71876	6394.9875
1865.86542	6354.8875
1869.01003	6344.1875
1872.15258	6349.5875
1875.29308	6329.5875
1878.43152	6313.8875
1881.56792	6312.5875
1884.70227	6292.0875
1887.83457	6277.3875
1890.96482	6279.0875
1894.09304	6236.9875
1897.21921	6240.1875
1900.34335	6237.2875
1903.46544	6228.8875
1906.58551	6226.7875
1909.70353	6228.3875
1912.81953	6197.4875
1915.93349	6198.0875
1919.04543	6184.5875
1922.15534	6172.7875
1925.26322	6158.9875
1928.36908	6138.0875
1931.47292	6116.7875
1934.57473	6122.3875
1937.67453	6084.7875
1940.77232	6058.6875
1943.86808	6047.5875
1946.96184	6036.2875
1950.05358	6020.9875
1953.14331	6018.8875
1956.23103	5970.8875
1959.31675	5962.4875
1962.40046	5954.2875
1965.48217	5942.8875
1968.56188	5907.0875
1971.63959	5870.5875
1974.7153	5867.8875
1977.78901	5833.1875
1980.86073	5828.4875
1983.93046	5806.3875
1986.99819	5769.1875
1990.06394	5757.0875
1993.1277	5739.0875
1996.18947	5728.3875
1999.24925	5721.3875
2002.30706	5698.9875
2005.36288	5682.8875
2008.41672	5652.3875
2011.46859	5635.4875
2014.51848	5603.1875
2017.56639	5590.9875
2020.61233	5579.7875
2023.6563	5544.5875
2026.6983	5546.8875
2029.73833	5540.5875
2032.7764	5524.0875
2035.8125	5491.7875
2038.84664	5483.0875
2041.87881	5474.6875
2044.90903	5478.4875
2047.93729	5453.1875
2050.96359	5446.2875
2053.98794	5419.7875
2057.01034	5433.0875
2060.03078	5408.6875
2063.04927	5412.7875
2066.06582	5398.2875
2069.08042	5378.2875
2072.09307	5381.6875
2075.10378	5382.3875
2078.11255	5378.6875
2081.11938	5374.6875
2084.12426	5355.9875
2087.12722	5365.2875
2090.12824	5367.9875
2093.12732	5376.9875
2096.12447	5365.6875
2099.11969	5364.9875
2102.11299	5368.1875
2105.10435	5350.7875
2108.09379	5353.7875
2111.08131	5361.6875
2114.0669	5346.6875
2117.05057	5341.0875
2120.03233	5365.7875
2123.01216	5373.8875
2125.99008	5374.6875
2128.96609	5366.8875
2131.94018	5361.4875
2134.91236	5368.9875
2137.88263	5368.8875
2140.851	5366.4875
2143.81746	5382.9875
2146.78201	5353.3875
2149.74466	5388.6875
2152.7054	5381.8875
2155.66425	5364.7875
2158.6212	5373.2875
2161.57625	5358.6875
2164.52941	5365.7875
2167.48067	5356.3875
2170.43004	5346.5875
2173.37752	5341.5875
2176.32311	5339.8875
2179.26681	5329.6875
2182.20863	5340.9875
2185.14856	5345.7875
2188.08661	5330.0875
2191.02278	5323.3875
2193.95707	5316.1875
2196.88948	5311.0875
2199.82001	5283.0875
2202.74867	5285.9875
2205.67545	5292.1875
2208.60037	5253.8875
2211.52341	5250.0875
2214.44458	5240.0875
2217.36388	5243.5875
2220.28132	5231.3875
2223.1969	5197.8875
2226.11061	5193.0875
2229.02246	5177.4875
2231.93245	5165.2875
2234.84058	5137.9875
2237.74686	5146.3875
2240.65128	5142.4875
2243.55385	5145.4875
2246.45456	5116.3875
2249.35343	5094.4875
2252.25044	5109.4875
2255.14561	5077.1875
2258.03893	5092.4875
2260.93041	5074.1875
2263.82004	5054.8875
2266.70783	5042.3875
2269.59378	5008.8875
2272.4779	5017.9875
2275.36017	5012.5875
2278.24061	4989.4875
2281.11922	4972.0875
2283.996	4964.5875
2286.87094	4967.2875
2289.74405	4941.9875
2292.61534	4939.5875
2295.4848	4926.3875
2298.35243	4950.7875
2301.21824	4875.8875
2304.08223	4911.1875
2306.94439	4895.0875
2309.80474	4898.1875
2312.66327	4884.7875
2315.51999	4887.8875
2318.37489	4872.2875
2321.22797	4863.2875
2324.07925	4866.8875
2326.92871	4856.4875
2329.77637	4835.8875
2332.62222	4817.1875
2335.46626	4809.1875
2338.3085	4796.2875
2341.14893	4792.3875
2343.98756	4799.0875
2346.8244	4780.9875
2349.65943	4775.9875
2352.49267	4776.7875
2355.32411	4760.0875
2358.15376	4766.1875
2360.98161	4746.6875
2363.80768	4742.6875
2366.63195	4729.6875
2369.45444	4733.2875
2372.27514	4720.2875
2375.09405	4700.6875
2377.91118	4685.9875
2380.72652	4684.0875
2383.54009	4670.6875
2386.35187	4666.3875
2389.16188	4667.8875
2391.97011	4670.8875
2394.77657	4646.5875
2397.58125	4618.6875
2400.38416	4618.1875
2403.18529	4611.0875
2405.98466	4592.7875
2408.78226	4601.6875
2411.57809	4580.7875
2414.37216	4579.3875
2417.16446	4559.8875
2419.955	4563.4875
2422.74378	4558.3875
2425.5308	4558.0875
2428.31606	4541.0875
2431.09956	4533.3875
2433.88131	4517.7875
2436.6613	4537.8875
2439.43954	4512.6875
2442.21603	4504.6875
2444.99077	4493.5875
2447.76377	4499.3875
2450.53501	4494.8875
2453.30451	4486.1875
2456.07226	4482.9875
2458.83827	4470.0875
2461.60254	4470.6875
2464.36507	4448.1875
2467.12586	4451.0875
2469.88492	4454.1875
2472.64224	4448.8875
2475.39782	4446.1875
2478.15167	4425.7875
2480.90379	4426.5875
2483.65417	4426.1875
2486.40283	4406.7875
2489.14976	4408.4875
2491.89497	4391.7875
2494.63845	4387.3875
2497.3802	4386.4875
2500.12024	4379.3875
2502.85855	4378.7875
2505.59514	4370.7875
2508.33002	4339.3875
2511.06318	4352.9875
2513.79462	4343.1875
2516.52435	4348.1875
2519.25237	4329.4875
2521.97867	4326.2875
2524.70327	4325.5875
2527.42616	4311.1875
2530.14734	4288.9875
2532.86681	4281.7875
2535.58458	4267.0875
2538.30065	4259.0875
2541.01501	4258.2875
2543.72768	4260.5875
2546.43864	4235.3875
2549.14791	4227.2875
2551.85548	4229.9875
2554.56136	4211.9875
2557.26554	4204.1875
2559.96803	4200.3875
2562.66883	4192.4875
2565.36794	4189.2875
2568.06536	4179.5875
2570.7611	4166.3875
2573.45514	4145.3875
2576.14751	4139.9875
2578.83819	4142.2875
2581.52719	4123.3875
2584.21451	4117.6875
2586.90015	4108.1875
2589.58411	4100.3875
2592.2664	4068.3875
2594.94701	4076.1875
2597.62594	4052.9875
2600.30321	4052.6875
2602.9788	4056.1875
2605.65273	4033.9875
2608.32498	4033.9875
2610.99557	4037.2875
2613.66449	4027.5875
2616.33175	4004.2875
2618.99734	4000.4875
2621.66128	3992.8875
2624.32355	3987.0875
2626.98416	3990.0875
2629.64311	3980.9875
2632.30041	3971.0875
2634.95605	3959.6875
2637.61004	3958.3875
2640.26238	3958.8875
2642.91306	3943.0875
2645.56209	3942.7875
2648.20948	3929.3875
2650.85521	3926.4875
2653.4993	3919.5875
2656.14175	3933.1875
2658.78255	3911.0875
2661.42171	3906.7875
2664.05923	3911.2875
2666.6951	3910.1875
2669.32934	3899.3875
2671.96194	3890.9875
2674.59291	3887.8875
2677.22224	3887.1875
2679.84993	3893.6875
2682.476	3898.9875
2685.10043	3885.2875
2687.72324	3882.6875
2690.34441	3882.9875
2692.96396	3868.3875
2695.58188	3883.9875
2698.19818	3882.8875
2700.81285	3882.1875
2703.4259	3879.3875
2706.03733	3891.6875
2708.64714	3887.8875
2711.25533	3873.9875
2713.86191	3868.2875
2716.46687	3863.2875
2719.07021	3856.3875
2721.67194	3874.7875
2724.27206	3860.0875
2726.87057	3849.3875
2729.46747	3861.7875
2732.06276	3851.6875
2734.65644	3851.9875
2737.24852	3845.0875
2739.83899	3833.3875
2742.42786	3834.2875
2745.01513	3823.2875
2747.60079	3813.1875
2750.18486	3806.1875
2752.76733	3799.9875
2755.3482	3785.6875
2757.92747	3782.3875
2760.50515	3804.0875
2763.08123	3781.8875
2765.65573	3771.6875
2768.22863	3773.9875
2770.79994	3765.0875
2773.36967	3760.9875
2775.9378	3756.1875
2778.50435	3731.9875
2781.06932	3734.0875
2783.6327	3725.1875
2786.1945	3718.8875
2788.75471	3703.5875
2791.31335	3702.3875
2793.87041	3682.4875
2796.42589	3672.4875
2798.97979	3654.0875
2801.53212	3660.8875
2804.08288	3645.9875
2806.63206	3641.1875
2809.17967	3638.5875
2811.72571	3612.6875
2814.27018	3617.7875
2816.81308	3608.8875
2819.35442	3595.5875
2821.89419	3600.7875
2824.43239	3603.7875
2826.96904	3582.1875
2829.50412	3587.2875
2832.03763	3579.1875
2834.56959	3573.2875
2837.1	3553.8875
2839.62884	3549.8875
2842.15613	3555.7875
2844.68186	3551.3875
2847.20604	3560.7875
2849.72867	3548.0875
2852.24974	3547.1875
2854.76927	3551.5875
2857.28724	3522.9875
2859.80367	3530.7875
2862.31855	3516.3875
2864.83189	3518.7875
2867.34368	3510.7875
2869.85393	3514.1875
2872.36264	3506.6875
2874.8698	3507.4875
2877.37543	3502.8875
2879.87952	3492.8875
2882.38207	3478.5875
2884.88308	3491.8875
2887.38256	3493.5875
2889.88051	3500.2875
2892.37692	3487.7875
2894.8718	3491.5875
2897.36515	3476.4875
2899.85698	3467.5875
2902.34727	3503.4875
2904.83604	3477.7875
2907.32328	3477.6875
2909.809	3482.6875
2912.29319	3495.7875
2914.77587	3479.9875
2917.25702	3478.2875
2919.73665	3469.6875
2922.21476	3465.1875
2924.69136	3466.6875
2927.16644	3476.6875
2929.64	3475.0875
2932.11205	3473.6875
2934.58258	3453.0875
2937.05161	3466.8875
2939.51912	3453.4875
2941.98513	3461.6875
2944.44962	3454.3875
2946.91261	3440.7875
2949.37409	3459.3875
2951.83407	3460.7875
2954.29254	3438.5875
2956.74951	3441.5875
2959.20498	3456.0875
2961.65895	3439.7875
2964.11142	3436.3875
2966.56239	3426.7875
2969.01186	3430.0875
2971.45984	3419.4875
2973.90632	3406.9875
2976.35131	3381.8875
2978.7948	3390.3875
2981.23681	3388.2875
2983.67732	3386.3875
2986.11635	3383.5875
2988.55388	3369.6875
2990.98993	3362.2875
2993.4245	3344.1875
2995.85758	3327.1875
2998.28917	3350.3875
3000.71928	3323.3875
3003.14791	3319.5875
3005.57506	3328.7875
3008.00073	3311.2875
3010.42493	3314.1875
3012.84764	3311.6875
3015.26888	3314.6875
3017.68865	3305.2875
3020.10694	3306.3875
3022.52376	3300.7875
3024.9391	3280.1875
3027.35298	3290.1875
3029.76539	3288.1875
3032.17632	3271.6875
3034.5858	3275.1875
3036.9938	3276.6875
3039.40034	3267.3875
3041.80542	3260.8875
3044.20903	3258.6875
3046.61118	3248.9875
3049.01187	3241.0875
3051.4111	3249.3875
3053.80888	3242.3875
3056.20519	3237.1875
3058.60005	3233.7875
3060.99345	3226.7875
3063.3854	3230.0875
3065.7759	3221.3875
3068.16494	3219.8875
3070.55254	3220.3875
3072.93868	3206.8875
3075.32338	3211.1875
3077.70662	3209.9875
3080.08842	3212.9875
3082.46878	3211.2875
3084.84769	3202.0875
3087.22515	3197.1875
3089.60118	3219.9875
3091.97576	3214.7875
3094.3489	3214.8875
3096.72061	3208.0875
3099.09087	3224.6875
3101.4597	3217.7875
3103.82709	3206.6875
3106.19305	3209.9875
3108.55757	3212.7875
3110.92066	3217.1875
3113.28232	3197.7875
3115.64255	3189.9875
3118.00134	3188.2875
3120.35871	3191.6875
3122.71466	3188.1875
3125.06917	3191.0875
3127.42226	3191.9875
3129.77393	3195.3875
3132.12417	3193.9875
3134.47299	3189.3875
3136.82039	3198.8875
3139.16636	3201.6875
3141.51092	3218.0875
3143.85406	3211.7875
3146.19579	3216.5875
3148.53609	3218.2875
3150.87499	3236.3875
3153.21246	3243.0875
3155.54853	3254.2875
3157.88318	3247.1875
3160.21642	3250.5875
3162.54826	3243.8875
3164.87868	3244.5875
3167.2077	3248.3875
3169.5353	3252.1875
3171.86151	3263.1875
3174.18631	3266.7875
3176.5097	3256.4875
3178.83169	3253.5875
3181.15228	3258.7875
3183.47147	3247.5875
3185.78926	3254.3875
3188.10565	3250.6875
3190.42065	3243.6875
3192.73424	3246.0875
3195.04645	3266.2875
3197.35725	3266.6875
3199.66667	3263.1875
3201.97469	3276.2875
3204.28132	3278.2875
3206.58656	3277.2875
3208.8904	3285.4875
3211.19287	3288.7875
3213.49394	3279.0875
3215.79363	3277.6875
3218.09193	3302.6875
3220.38884	3301.9875
3222.68438	3276.9875
3224.97853	3264.8875
3227.2713	3275.3875
3229.56269	3270.7875
3231.8527	3261.4875
3234.14133	3270.4875
3236.42858	3259.7875
3238.71446	3263.3875
3240.99896	3250.8875
3243.28209	3267.0875
3245.56384	3251.5875
3247.84423	3253.8875
3250.12324	3243.1875
3252.40088	3249.2875
3254.67715	3244.8875
3256.95205	3237.0875
3259.22558	3236.5875
3261.49775	3229.0875
3263.76855	3247.9875
3266.03799	3211.2875
3268.30606	3224.6875
3270.57277	3208.4875
3272.83812	3205.7875
3275.10211	3198.2875
3277.36474	3199.0875
3279.62601	3195.6875
3281.88593	3194.4875
3284.14448	3198.5875
3286.40168	3202.5875
3288.65753	3209.0875
3290.91202	3190.0875
3293.16516	3176.3875
3295.41695	3147.7875
3297.66738	3137.9875
3299.91647	3124.0875
3302.16421	3108.8875
3304.4106	3097.7875
3306.65564	3092.7875
3308.89933	3071.2875
3311.14169	3068.7875
3313.38269	3038.4875
3315.62236	3027.6875
3317.86068	2993.7875
3320.09766	2968.6875
3322.3333	2953.2875
3324.5676	2956.4875
3326.80056	2905.2875
3329.03219	2888.0875
3331.26248	0.1875
3333.49143	0.1875
3335.71905	-1.0125
