Data from AgNPs_FTO_APTES_UA_0.1mM_CRN_20uM_NaF_0.1M_Addition_RamanShift__7__12-05-07-585.txt Node

Date: Mon Dec 20 12:05:07 GMT 2021
User: TCL
Spectrometer: QEP01345
Trigger mode: 4
Integration Time (sec): 7.000000E0
Scans to average: 10
Electric dark correction enabled: true
Nonlinearity correction enabled: false
Boxcar width: 0
XAxis mode: Raman Shifts
Number of Pixels in Spectrum: 1044
>>>>>Begin Spectral Data<<<<<
46.04893	0.1125
50.45542	0.2125
54.85868	-1.5875
59.25871	2.6125
63.6555	29.2125
68.04907	31.8125
72.43941	34.2125
76.82654	34.1125
81.21044	34.8125
85.59113	38.4125
89.96862	37.8125
94.34289	43.7125
98.71396	41.6125
103.08183	42.7125
107.4465	44.3125
111.80798	44.8125
116.16626	47.9125
120.52136	51.0125
124.87327	46.5125
129.222	49.9125
133.56755	55.0125
137.90993	57.1125
142.24913	55.0125
146.58517	57.7125
150.91804	74.2125
155.24774	84.4125
159.57429	96.7125
163.89768	122.9125
168.21792	156.9125
172.53501	204.3125
176.84895	283.4125
181.15975	387.2125
185.46741	534.2125
189.77193	737.1125
194.07331	972.5125
198.37157	1261.3125
202.6667	1570.4125
206.9587	1866.4125
211.24758	2174.4125
215.53334	2480.4125
219.81599	2816.7125
224.09553	3149.9125
228.37195	3562.7125
232.64527	4020.2125
236.91549	4488.5125
241.18261	4943.7125
245.44663	5352.4125
249.70755	5695.2125
253.96539	5978.4125
258.22014	6173.7125
262.4718	6314.4125
266.72039	6361.7125
270.96589	6369.7125
275.20832	6327.4125
279.44768	6231.1125
283.68397	6140.3125
287.91719	6014.4125
292.14735	5951.2125
296.37445	5879.7125
300.59849	5845.4125
304.81948	5827.3125
309.03742	5804.5125
313.25231	5741.6125
317.46415	5690.4125
321.67296	5577.3125
325.87872	5509.4125
330.08145	5459.6125
334.28114	5454.1125
338.47781	5453.9125
342.67145	5471.3125
346.86207	5511.3125
351.04966	5598.1125
355.23424	5647.8125
359.4158	5725.3125
363.59435	5793.4125
367.76989	5870.1125
371.94243	5916.4125
376.11196	5950.0125
380.27849	6002.9125
384.44203	6055.5125
388.60257	6099.7125
392.76012	6189.9125
396.91468	6219.5125
401.06626	6256.8125
405.21485	6350.4125
409.36047	6336.9125
413.50311	6300.7125
417.64277	6251.2125
421.77947	6275.1125
425.9132	6272.8125
430.04396	6307.4125
434.17176	6317.6125
438.2966	6340.0125
442.41849	6390.0125
446.53742	6425.1125
450.6534	6502.7125
454.76644	6564.3125
458.87653	6604.6125
462.98368	6624.1125
467.08789	6616.7125
471.18916	6634.2125
475.2875	6658.6125
479.38291	6693.3125
483.4754	6787.4125
487.56496	6827.4125
491.6516	6946.2125
495.73531	7038.1125
499.81612	7055.9125
503.89401	7041.7125
507.96899	6990.6125
512.04106	6896.8125
516.11023	6838.9125
520.1765	6809.7125
524.23987	6796.4125
528.30034	6771.9125
532.35792	6792.9125
536.41261	6750.3125
540.46441	6711.8125
544.51333	6655.7125
548.55936	6597.9125
552.60252	6620.5125
556.64279	6625.1125
560.6802	6666.7125
564.71473	6665.1125
568.7464	6690.0125
572.7752	6750.7125
576.80114	6829.3125
580.82422	6887.7125
584.84444	7027.7125
588.86181	7179.0125
592.87633	7269.2125
596.888	7225.3125
600.89682	7150.0125
604.9028	7157.0125
608.90594	7417.7125
612.90624	7790.7125
616.90371	7761.7125
620.89834	7325.0125
624.89015	7310.7125
628.87913	7672.2125
632.86528	8116.3125
636.84862	8481.4125
640.82913	8547.4125
644.80683	8288.1125
648.78172	7895.3125
652.75379	7537.9125
656.72306	7298.8125
660.68952	7133.4125
664.65319	6994.4125
668.61405	6879.6125
672.57211	6816.4125
676.52738	6820.6125
680.47986	6839.9125
684.42955	6828.1125
688.37646	6788.4125
692.32058	6752.8125
696.26192	6669.1125
700.20048	6628.6125
704.13626	6620.4125
708.06928	6613.0125
711.99952	6592.3125
715.927	6577.4125
719.85171	6620.2125
723.77365	6695.2125
727.69284	6716.7125
731.60928	6676.2125
735.52295	6594.5125
739.43388	6513.6125
743.34206	6527.3125
747.24749	6539.5125
751.15017	6545.1125
755.05012	6564.0125
758.94733	6643.2125
762.8418	6751.3125
766.73354	6991.0125
770.62254	7183.5125
774.50882	7259.0125
778.39237	7087.9125
782.27321	6833.2125
786.15132	6590.7125
790.02671	6452.5125
793.89938	6431.2125
797.76935	6430.9125
801.6366	6474.3125
805.50115	6618.9125
809.36299	6789.4125
813.22213	6956.1125
817.07857	6916.8125
820.93231	6774.9125
824.78336	6570.6125
828.63172	6378.8125
832.47738	6283.4125
836.32036	6206.3125
840.16066	6195.7125
843.99827	6201.6125
847.8332	6188.0125
851.66546	6161.4125
855.49504	6196.3125
859.32195	6181.5125
863.1462	6193.6125
866.96777	6229.6125
870.78668	6319.7125
874.60293	6402.1125
878.41652	6507.0125
882.22745	6616.7125
886.03573	6728.0125
889.84136	6768.4125
893.64433	6739.6125
897.44466	6579.7125
901.24235	6435.3125
905.0374	6264.2125
908.8298	6156.2125
912.61957	6101.4125
916.40671	6044.2125
920.19121	6079.0125
923.97308	6066.5125
927.75233	6051.8125
931.52895	6016.1125
935.30295	5970.4125
939.07433	5920.1125
942.84309	5858.5125
946.60924	5840.9125
950.37278	5812.7125
954.13371	5816.6125
957.89203	5805.6125
961.64774	5776.8125
965.40086	5791.9125
969.15137	5770.2125
972.89929	5758.0125
976.64461	5731.9125
980.38733	5711.6125
984.12747	5712.8125
987.86502	5732.3125
991.59999	5747.3125
995.33237	5776.8125
999.06217	5842.7125
1002.78939	5908.1125
1006.51404	5974.3125
1010.23611	6040.8125
1013.95561	6121.5125
1017.67255	6134.7125
1021.38692	6134.2125
1025.09872	6096.9125
1028.80796	6031.4125
1032.51465	5967.6125
1036.21877	5909.6125
1039.92035	5873.1125
1043.61937	5844.1125
1047.31584	5832.3125
1051.00976	5828.9125
1054.70114	5863.4125
1058.38998	5885.9125
1062.07627	5926.9125
1065.76003	5995.7125
1069.44126	6060.0125
1073.11995	6130.2125
1076.79611	6179.6125
1080.46974	6174.8125
1084.14085	6141.1125
1087.80943	6112.3125
1091.47549	6118.7125
1095.13903	6049.3125
1098.80005	6027.3125
1102.45857	5983.3125
1106.11456	5928.7125
1109.76805	5950.3125
1113.41903	6068.4125
1117.06751	6272.5125
1120.71348	6588.0125
1124.35696	6986.3125
1127.99793	7471.8125
1131.63641	7838.9125
1135.2724	7985.7125
1138.90589	7943.9125
1142.5369	7717.4125
1146.16542	7397.8125
1149.79145	7018.1125
1153.415	6701.5125
1157.03607	6436.5125
1160.65467	6293.5125
1164.27079	6228.1125
1167.88443	6265.3125
1171.49561	6382.0125
1175.10432	6543.7125
1178.71056	6804.8125
1182.31434	7036.8125
1185.91565	7157.7125
1189.51451	7204.9125
1193.11091	7224.0125
1196.70485	7229.1125
1200.29634	7248.2125
1203.88538	7262.0125
1207.47197	7223.3125
1211.05612	7142.2125
1214.63782	7028.7125
1218.21708	6837.2125
1221.79391	6658.7125
1225.36829	6519.0125
1228.94024	6394.8125
1232.50976	6332.8125
1236.07685	6284.7125
1239.6415	6244.7125
1243.20374	6235.3125
1246.76355	6276.3125
1250.32093	6312.5125
1253.8759	6402.9125
1257.42845	6487.3125
1260.97859	6579.0125
1264.52631	6639.9125
1268.07163	6703.1125
1271.61453	6757.1125
1275.15503	6788.8125
1278.69312	6837.3125
1282.22882	6873.2125
1285.76211	6923.5125
1289.29301	6997.1125
1292.82151	7121.5125
1296.34761	7289.5125
1299.87133	7502.4125
1303.39266	7686.0125
1306.9116	7944.3125
1310.42815	8121.7125
1313.94233	8294.7125
1317.45412	8343.4125
1320.96354	8257.3125
1324.47058	8191.0125
1327.97525	8126.3125
1331.47754	8067.1125
1334.97747	8041.7125
1338.47502	8059.1125
1341.97022	8093.9125
1345.46305	8169.6125
1348.95352	8276.7125
1352.44163	8397.3125
1355.92738	8565.6125
1359.41078	8870.6125
1362.89183	9188.8125
1366.37053	9166.9125
1369.84688	8781.0125
1373.32088	8241.4125
1376.79254	7845.7125
1380.26186	7609.9125
1383.72883	7512.9125
1387.19347	7406.8125
1390.65578	7307.1125
1394.11575	7187.2125
1397.57339	7090.1125
1401.0287	7000.6125
1404.48168	6940.6125
1407.93234	6821.5125
1411.38068	6687.0125
1414.82669	6513.8125
1418.27039	6338.8125
1421.71177	6159.0125
1425.15083	6027.0125
1428.58758	5937.5125
1432.02203	5916.5125
1435.45416	5924.8125
1438.88399	5985.7125
1442.31151	6006.8125
1445.73673	6047.5125
1449.15965	6059.1125
1452.58027	6086.5125
1455.9986	6117.9125
1459.41463	6136.6125
1462.82837	6189.3125
1466.23982	6239.7125
1469.64898	6288.2125
1473.05586	6323.1125
1476.46045	6352.7125
1479.86276	6343.3125
1483.26279	6356.4125
1486.66054	6396.5125
1490.05602	6472.3125
1493.44922	6562.0125
1496.84016	6701.0125
1500.22882	6889.0125
1503.61521	7155.1125
1506.99934	7423.8125
1510.38121	7628.3125
1513.76081	7682.8125
1517.13816	7527.9125
1520.51324	7300.3125
1523.88607	7068.7125
1527.25665	6950.5125
1530.62498	6909.2125
1533.99105	6910.9125
1537.35488	6881.7125
1540.71647	6880.1125
1544.07581	6843.1125
1547.4329	6829.1125
1550.78776	6768.4125
1554.14038	6762.6125
1557.49077	6777.3125
1560.83892	6788.8125
1564.18484	6806.7125
1567.52853	6807.9125
1570.86999	6869.4125
1574.20922	6888.5125
1577.54624	6934.6125
1580.88103	6880.1125
1584.2136	6813.1125
1587.54395	6771.9125
1590.87208	6812.5125
1594.19801	6905.8125
1597.52172	7025.8125
1600.84321	7069.6125
1604.16251	6964.8125
1607.47959	6792.1125
1610.79447	6620.3125
1614.10715	6438.8125
1617.41763	6293.7125
1620.7259	6182.7125
1624.03199	6133.6125
1627.33587	6177.3125
1630.63757	6272.9125
1633.93707	6433.9125
1637.23439	6698.0125
1640.52951	7076.0125
1643.82246	7497.4125
1647.11321	7899.1125
1650.40179	8099.3125
1653.68819	7958.8125
1656.97241	7566.7125
1660.25446	7089.4125
1663.53433	6727.4125
1666.81203	6489.2125
1670.08756	6325.4125
1673.36092	6245.9125
1676.63211	6161.1125
1679.90115	6129.0125
1683.16801	6082.7125
1686.43272	6002.2125
1689.69527	5887.1125
1692.95567	5786.1125
1696.2139	5714.1125
1699.46999	5607.5125
1702.72392	5542.7125
1705.97571	5443.5125
1709.22535	5319.8125
1712.47284	5181.4125
1715.71819	5043.3125
1718.96139	4942.0125
1722.20246	4827.5125
1725.44139	4758.9125
1728.67818	4671.1125
1731.91284	4606.6125
1735.14537	4539.9125
1738.37576	4512.7125
1741.60403	4471.2125
1744.83017	4446.0125
1748.05418	4406.8125
1751.27607	4409.8125
1754.49584	4376.0125
1757.71349	4381.4125
1760.92903	4376.4125
1764.14244	4349.1125
1767.35375	4344.2125
1770.56294	4337.7125
1773.77002	4323.2125
1776.97499	4291.9125
1780.17785	4284.1125
1783.37861	4262.5125
1786.57727	4241.9125
1789.77382	4233.1125
1792.96828	4234.8125
1796.16064	4212.2125
1799.3509	4193.7125
1802.53907	4201.4125
1805.72514	4168.4125
1808.90913	4170.3125
1812.09102	4133.1125
1815.27083	4138.1125
1818.44856	4124.3125
1821.6242	4121.5125
1824.79776	4100.8125
1827.96924	4103.6125
1831.13864	4084.0125
1834.30597	4067.9125
1837.47122	4075.7125
1840.6344	4073.9125
1843.7955	4063.9125
1846.95454	4078.4125
1850.11151	4058.2125
1853.26642	4052.4125
1856.41926	4045.2125
1859.57004	4037.3125
1862.71876	4032.8125
1865.86542	4027.4125
1869.01003	4019.7125
1872.15258	4009.7125
1875.29308	4008.8125
1878.43152	4004.2125
1881.56792	3988.6125
1884.70227	3984.7125
1887.83457	3972.1125
1890.96482	3963.1125
1894.09304	3961.7125
1897.21921	3949.2125
1900.34335	3947.6125
1903.46544	3930.4125
1906.58551	3954.5125
1909.70353	3930.9125
1912.81953	3917.9125
1915.93349	3907.0125
1919.04543	3902.0125
1922.15534	3896.7125
1925.26322	3887.1125
1928.36908	3879.0125
1931.47292	3864.3125
1934.57473	3829.6125
1937.67453	3844.6125
1940.77232	3815.4125
1943.86808	3811.3125
1946.96184	3803.4125
1950.05358	3776.7125
1953.14331	3778.6125
1956.23103	3762.8125
1959.31675	3757.0125
1962.40046	3746.6125
1965.48217	3720.7125
1968.56188	3714.6125
1971.63959	3704.4125
1974.7153	3689.7125
1977.78901	3677.2125
1980.86073	3665.7125
1983.93046	3656.2125
1986.99819	3653.5125
1990.06394	3623.6125
1993.1277	3611.3125
1996.18947	3605.1125
1999.24925	3608.3125
2002.30706	3595.9125
2005.36288	3578.1125
2008.41672	3560.0125
2011.46859	3554.5125
2014.51848	3537.4125
2017.56639	3525.5125
2020.61233	3526.2125
2023.6563	3508.5125
2026.6983	3507.6125
2029.73833	3487.0125
2032.7764	3477.6125
2035.8125	3458.1125
2038.84664	3460.7125
2041.87881	3453.7125
2044.90903	3438.8125
2047.93729	3431.3125
2050.96359	3419.6125
2053.98794	3420.3125
2057.01034	3425.5125
2060.03078	3415.6125
2063.04927	3405.9125
2066.06582	3397.9125
2069.08042	3411.0125
2072.09307	3398.4125
2075.10378	3399.0125
2078.11255	3396.7125
2081.11938	3383.1125
2084.12426	3383.5125
2087.12722	3386.4125
2090.12824	3380.4125
2093.12732	3388.2125
2096.12447	3388.6125
2099.11969	3388.8125
2102.11299	3378.3125
2105.10435	3375.4125
2108.09379	3370.3125
2111.08131	3374.3125
2114.0669	3367.3125
2117.05057	3365.8125
2120.03233	3358.6125
2123.01216	3372.1125
2125.99008	3371.8125
2128.96609	3385.4125
2131.94018	3374.2125
2134.91236	3383.0125
2137.88263	3389.9125
2140.851	3371.6125
2143.81746	3382.4125
2146.78201	3374.0125
2149.74466	3374.3125
2152.7054	3385.3125
2155.66425	3371.5125
2158.6212	3368.8125
2161.57625	3360.5125
2164.52941	3374.4125
2167.48067	3365.3125
2170.43004	3360.3125
2173.37752	3343.1125
2176.32311	3344.3125
2179.26681	3357.5125
2182.20863	3333.8125
2185.14856	3352.0125
2188.08661	3328.3125
2191.02278	3340.6125
2193.95707	3325.6125
2196.88948	3321.9125
2199.82001	3310.2125
2202.74867	3312.1125
2205.67545	3299.7125
2208.60037	3299.2125
2211.52341	3283.2125
2214.44458	3297.8125
2217.36388	3271.9125
2220.28132	3271.3125
2223.1969	3253.1125
2226.11061	3246.8125
2229.02246	3228.4125
2231.93245	3228.5125
2234.84058	3220.4125
2237.74686	3216.8125
2240.65128	3220.6125
2243.55385	3194.1125
2246.45456	3202.2125
2249.35343	3202.4125
2252.25044	3180.5125
2255.14561	3172.6125
2258.03893	3181.9125
2260.93041	3190.2125
2263.82004	3170.0125
2266.70783	3155.1125
2269.59378	3148.6125
2272.4779	3154.0125
2275.36017	3131.3125
2278.24061	3120.7125
2281.11922	3129.5125
2283.996	3113.7125
2286.87094	3108.6125
2289.74405	3097.6125
2292.61534	3082.6125
2295.4848	3075.9125
2298.35243	3083.6125
2301.21824	3074.1125
2304.08223	3067.0125
2306.94439	3052.6125
2309.80474	3059.9125
2312.66327	3053.7125
2315.51999	3054.0125
2318.37489	3040.7125
2321.22797	3040.1125
2324.07925	3037.6125
2326.92871	3011.2125
2329.77637	3025.6125
2332.62222	3013.1125
2335.46626	3008.2125
2338.3085	3004.9125
2341.14893	2997.6125
2343.98756	3000.3125
2346.8244	3004.8125
2349.65943	2978.9125
2352.49267	2986.1125
2355.32411	2987.2125
2358.15376	2981.5125
2360.98161	2965.0125
2363.80768	2969.9125
2366.63195	2979.8125
2369.45444	2969.5125
2372.27514	2960.6125
2375.09405	2960.1125
2377.91118	2949.9125
2380.72652	2938.2125
2383.54009	2936.6125
2386.35187	2940.7125
2389.16188	2919.2125
2391.97011	2917.5125
2394.77657	2909.8125
2397.58125	2889.7125
2400.38416	2898.3125
2403.18529	2888.5125
2405.98466	2881.1125
2408.78226	2872.2125
2411.57809	2873.0125
2414.37216	2856.4125
2417.16446	2869.1125
2419.955	2847.9125
2422.74378	2845.7125
2425.5308	2845.0125
2428.31606	2831.4125
2431.09956	2827.5125
2433.88131	2828.6125
2436.6613	2823.1125
2439.43954	2813.4125
2442.21603	2820.4125
2444.99077	2814.5125
2447.76377	2810.1125
2450.53501	2812.4125
2453.30451	2815.8125
2456.07226	2803.6125
2458.83827	2809.7125
2461.60254	2797.4125
2464.36507	2789.2125
2467.12586	2782.9125
2469.88492	2781.3125
2472.64224	2776.3125
2475.39782	2762.5125
2478.15167	2779.7125
2480.90379	2772.2125
2483.65417	2760.1125
2486.40283	2760.4125
2489.14976	2754.2125
2491.89497	2750.4125
2494.63845	2758.1125
2497.3802	2756.9125
2500.12024	2749.1125
2502.85855	2735.2125
2505.59514	2725.4125
2508.33002	2728.3125
2511.06318	2729.5125
2513.79462	2720.5125
2516.52435	2714.3125
2519.25237	2721.2125
2521.97867	2711.3125
2524.70327	2701.5125
2527.42616	2697.1125
2530.14734	2710.8125
2532.86681	2682.0125
2535.58458	2686.6125
2538.30065	2679.5125
2541.01501	2677.9125
2543.72768	2665.7125
2546.43864	2666.2125
2549.14791	2667.7125
2551.85548	2653.0125
2554.56136	2650.0125
2557.26554	2650.5125
2559.96803	2633.8125
2562.66883	2636.0125
2565.36794	2620.5125
2568.06536	2624.1125
2570.7611	2617.6125
2573.45514	2621.3125
2576.14751	2606.9125
2578.83819	2590.2125
2581.52719	2594.8125
2584.21451	2594.8125
2586.90015	2578.1125
2589.58411	2575.9125
2592.2664	2574.3125
2594.94701	2560.5125
2597.62594	2558.2125
2600.30321	2549.2125
2602.9788	2554.6125
2605.65273	2535.3125
2608.32498	2541.5125
2610.99557	2536.6125
2613.66449	2535.9125
2616.33175	2547.2125
2618.99734	2528.5125
2621.66128	2531.6125
2624.32355	2510.1125
2626.98416	2519.0125
2629.64311	2505.4125
2632.30041	2516.8125
2634.95605	2509.5125
2637.61004	2501.7125
2640.26238	2498.1125
2642.91306	2492.4125
2645.56209	2502.4125
2648.20948	2500.2125
2650.85521	2506.6125
2653.4993	2489.0125
2656.14175	2477.6125
2658.78255	2476.8125
2661.42171	2483.3125
2664.05923	2480.2125
2666.6951	2479.2125
2669.32934	2476.4125
2671.96194	2469.9125
2674.59291	2466.8125
2677.22224	2467.2125
2679.84993	2468.7125
2682.476	2472.2125
2685.10043	2461.4125
2687.72324	2464.4125
2690.34441	2470.3125
2692.96396	2462.3125
2695.58188	2470.5125
2698.19818	2461.8125
2700.81285	2472.3125
2703.4259	2472.0125
2706.03733	2501.5125
2708.64714	2475.3125
2711.25533	2482.8125
2713.86191	2472.1125
2716.46687	2467.7125
2719.07021	2463.8125
2721.67194	2465.4125
2724.27206	2469.4125
2726.87057	2466.2125
2729.46747	2466.6125
2732.06276	2474.3125
2734.65644	2468.6125
2737.24852	2459.5125
2739.83899	2450.3125
2742.42786	2450.6125
2745.01513	2427.0125
2747.60079	2438.7125
2750.18486	2435.5125
2752.76733	2425.2125
2755.3482	2436.8125
2757.92747	2428.0125
2760.50515	2423.2125
2763.08123	2409.9125
2765.65573	2417.8125
2768.22863	2418.3125
2770.79994	2407.2125
2773.36967	2407.7125
2775.9378	2404.7125
2778.50435	2396.6125
2781.06932	2400.9125
2783.6327	2387.8125
2786.1945	2383.1125
2788.75471	2381.7125
2791.31335	2377.4125
2793.87041	2375.9125
2796.42589	2368.6125
2798.97979	2362.6125
2801.53212	2357.7125
2804.08288	2348.3125
2806.63206	2337.0125
2809.17967	2336.0125
2811.72571	2328.8125
2814.27018	2323.8125
2816.81308	2324.9125
2819.35442	2323.7125
2821.89419	2307.6125
2824.43239	2301.8125
2826.96904	2309.8125
2829.50412	2306.5125
2832.03763	2309.9125
2834.56959	2301.6125
2837.1	2302.5125
2839.62884	2307.4125
2842.15613	2297.7125
2844.68186	2307.3125
2847.20604	2304.5125
2849.72867	2304.4125
2852.24974	2316.7125
2854.76927	2291.5125
2857.28724	2309.3125
2859.80367	2300.2125
2862.31855	2298.3125
2864.83189	2293.8125
2867.34368	2284.4125
2869.85393	2305.4125
2872.36264	2290.8125
2874.8698	2289.0125
2877.37543	2283.1125
2879.87952	2285.8125
2882.38207	2279.6125
2884.88308	2282.4125
2887.38256	2272.1125
2889.88051	2301.7125
2892.37692	2277.8125
2894.8718	2284.8125
2897.36515	2288.1125
2899.85698	2288.5125
2902.34727	2295.5125
2904.83604	2293.8125
2907.32328	2295.4125
2909.809	2292.0125
2912.29319	2291.8125
2914.77587	2288.7125
2917.25702	2300.7125
2919.73665	2288.3125
2922.21476	2287.5125
2924.69136	2300.4125
2927.16644	2289.3125
2929.64	2293.2125
2932.11205	2289.4125
2934.58258	2288.3125
2937.05161	2283.8125
2939.51912	2279.6125
2941.98513	2292.9125
2944.44962	2270.5125
2946.91261	2266.0125
2949.37409	2272.6125
2951.83407	2267.2125
2954.29254	2276.0125
2956.74951	2260.9125
2959.20498	2261.7125
2961.65895	2249.0125
2964.11142	2251.5125
2966.56239	2255.9125
2969.01186	2256.2125
2971.45984	2242.7125
2973.90632	2243.0125
2976.35131	2227.6125
2978.7948	2239.2125
2981.23681	2231.8125
2983.67732	2219.8125
2986.11635	2219.7125
2988.55388	2225.7125
2990.98993	2212.9125
2993.4245	2213.5125
2995.85758	2214.5125
2998.28917	2208.5125
3000.71928	2209.8125
3003.14791	2207.4125
3005.57506	2202.9125
3008.00073	2198.8125
3010.42493	2199.5125
3012.84764	2208.2125
3015.26888	2202.0125
3017.68865	2188.7125
3020.10694	2192.0125
3022.52376	2190.4125
3024.9391	2186.5125
3027.35298	2193.0125
3029.76539	2186.0125
3032.17632	2184.8125
3034.5858	2187.8125
3036.9938	2181.8125
3039.40034	2190.4125
3041.80542	2195.3125
3044.20903	2174.2125
3046.61118	2192.4125
3049.01187	2188.9125
3051.4111	2190.7125
3053.80888	2184.2125
3056.20519	2190.9125
3058.60005	2178.5125
3060.99345	2180.2125
3063.3854	2182.2125
3065.7759	2190.3125
3068.16494	2180.3125
3070.55254	2181.8125
3072.93868	2177.7125
3075.32338	2188.5125
3077.70662	2188.0125
3080.08842	2187.1125
3082.46878	2182.3125
3084.84769	2181.8125
3087.22515	2184.6125
3089.60118	2194.1125
3091.97576	2195.3125
3094.3489	2199.9125
3096.72061	2202.9125
3099.09087	2201.7125
3101.4597	2207.6125
3103.82709	2202.4125
3106.19305	2210.0125
3108.55757	2213.3125
3110.92066	2209.0125
3113.28232	2218.5125
3115.64255	2212.6125
3118.00134	2214.3125
3120.35871	2208.7125
3122.71466	2221.9125
3125.06917	2212.2125
3127.42226	2213.4125
3129.77393	2222.2125
3132.12417	2229.2125
3134.47299	2232.6125
3136.82039	2243.1125
3139.16636	2242.4125
3141.51092	2258.2125
3143.85406	2259.1125
3146.19579	2263.1125
3148.53609	2276.4125
3150.87499	2281.7125
3153.21246	2272.5125
3155.54853	2296.1125
3157.88318	2292.8125
3160.21642	2304.5125
3162.54826	2300.1125
3164.87868	2313.6125
3167.2077	2313.7125
3169.5353	2321.0125
3171.86151	2321.9125
3174.18631	2320.5125
3176.5097	2334.6125
3178.83169	2325.9125
3181.15228	2319.8125
3183.47147	2333.6125
3185.78926	2335.9125
3188.10565	2340.4125
3190.42065	2349.1125
3192.73424	2347.6125
3195.04645	2354.9125
3197.35725	2349.8125
3199.66667	2355.1125
3201.97469	2374.9125
3204.28132	2371.4125
3206.58656	2374.1125
3208.8904	2380.0125
3211.19287	2393.1125
3213.49394	2377.8125
3215.79363	2393.9125
3218.09193	2396.5125
3220.38884	2402.3125
3222.68438	2402.8125
3224.97853	2396.8125
3227.2713	2395.1125
3229.56269	2398.1125
3231.8527	2393.0125
3234.14133	2380.1125
3236.42858	2395.7125
3238.71446	2375.7125
3240.99896	2378.8125
3243.28209	2382.8125
3245.56384	2375.1125
3247.84423	2385.9125
3250.12324	2366.5125
3252.40088	2377.7125
3254.67715	2370.6125
3256.95205	2366.3125
3259.22558	2379.0125
3261.49775	2358.4125
3263.76855	2360.8125
3266.03799	2365.1125
3268.30606	2363.7125
3270.57277	2356.8125
3272.83812	2353.5125
3275.10211	2343.4125
3277.36474	2354.6125
3279.62601	2341.0125
3281.88593	2354.0125
3284.14448	2346.3125
3286.40168	2329.2125
3288.65753	2329.2125
3290.91202	2327.7125
3293.16516	2326.5125
3295.41695	2320.6125
3297.66738	2301.3125
3299.91647	2304.3125
3302.16421	2285.7125
3304.4106	2284.9125
3306.65564	2272.3125
3308.89933	2259.5125
3311.14169	2243.1125
3313.38269	2227.4125
3315.62236	2219.5125
3317.86068	2195.1125
3320.09766	2182.5125
3322.3333	2167.7125
3324.5676	2170.8125
3326.80056	2139.0125
3329.03219	2120.9125
3331.26248	-0.7875
3333.49143	1.1125
3335.71905	-1.3875
