Data from AgNPs_FTO_APTES_UA_0.1mM_CRN_100uM_NaF_0.1M_Addition_RamanShift__24__13-44-17-697.txt Node

Date: Mon Dec 20 13:44:17 GMT 2021
User: TCL
Spectrometer: QEP01345
Trigger mode: 4
Integration Time (sec): 7.000000E0
Scans to average: 10
Electric dark correction enabled: true
Nonlinearity correction enabled: false
Boxcar width: 0
XAxis mode: Raman Shifts
Number of Pixels in Spectrum: 1044
>>>>>Begin Spectral Data<<<<<
46.04893	0.8125
50.45542	-0.5875
54.85868	-1.2875
59.25871	1.2125
63.6555	29.7125
68.04907	31.6125
72.43941	32.0125
76.82654	36.2125
81.21044	33.9125
85.59113	41.8125
89.96862	37.6125
94.34289	43.0125
98.71396	41.6125
103.08183	44.6125
107.4465	45.9125
111.80798	47.1125
116.16626	48.8125
120.52136	50.7125
124.87327	48.5125
129.222	50.6125
133.56755	49.8125
137.90993	59.0125
142.24913	61.8125
146.58517	64.8125
150.91804	79.3125
155.24774	90.8125
159.57429	108.7125
163.89768	136.5125
168.21792	181.6125
172.53501	235.4125
176.84895	319.3125
181.15975	447.2125
185.46741	617.6125
189.77193	852.9125
194.07331	1143.1125
198.37157	1486.6125
202.6667	1846.0125
206.9587	2213.2125
211.24758	2581.3125
215.53334	2931.0125
219.81599	3298.6125
224.09553	3677.6125
228.37195	4086.2125
232.64527	4530.3125
236.91549	4994.0125
241.18261	5430.8125
245.44663	5819.8125
249.70755	6203.3125
253.96539	6500.1125
258.22014	6736.9125
262.4718	6955.7125
266.72039	7056.7125
270.96589	7091.9125
275.20832	7067.2125
279.44768	6946.4125
283.68397	6875.2125
287.91719	6766.9125
292.14735	6687.9125
296.37445	6663.4125
300.59849	6693.0125
304.81948	6744.7125
309.03742	6749.8125
313.25231	6717.7125
317.46415	6567.1125
321.67296	6388.1125
325.87872	6223.0125
330.08145	6119.5125
334.28114	6121.2125
338.47781	6164.8125
342.67145	6238.7125
346.86207	6326.2125
351.04966	6466.3125
355.23424	6649.2125
359.4158	6783.0125
363.59435	6891.0125
367.76989	6973.8125
371.94243	7003.6125
376.11196	7069.8125
380.27849	7121.4125
384.44203	7159.6125
388.60257	7186.4125
392.76012	7239.0125
396.91468	7297.8125
401.06626	7387.9125
405.21485	7459.9125
409.36047	7434.6125
413.50311	7329.3125
417.64277	7184.4125
421.77947	7129.1125
425.9132	7093.2125
430.04396	7088.5125
434.17176	7120.5125
438.2966	7168.5125
442.41849	7262.2125
446.53742	7333.9125
450.6534	7443.2125
454.76644	7503.7125
458.87653	7563.1125
462.98368	7549.2125
467.08789	7537.6125
471.18916	7520.2125
475.2875	7516.5125
479.38291	7554.5125
483.4754	7613.1125
487.56496	7744.4125
491.6516	7828.4125
495.73531	7885.5125
499.81612	7837.8125
503.89401	7755.3125
507.96899	7668.4125
512.04106	7634.3125
516.11023	7652.5125
520.1765	7720.5125
524.23987	7787.1125
528.30034	7836.7125
532.35792	7823.3125
536.41261	7745.5125
540.46441	7589.6125
544.51333	7475.3125
548.55936	7426.9125
552.60252	7390.1125
556.64279	7446.9125
560.6802	7451.1125
564.71473	7503.1125
568.7464	7625.3125
572.7752	7714.7125
576.80114	7671.6125
580.82422	7627.9125
584.84444	7671.6125
588.86181	7790.3125
592.87633	7852.1125
596.888	7869.5125
600.89682	7898.1125
604.9028	8122.6125
608.90594	8809.0125
612.90624	9828.9125
616.90371	9942.0125
620.89834	9073.7125
624.89015	8928.1125
628.87913	9324.9125
632.86528	9868.0125
636.84862	10156.5125
640.82913	9984.9125
644.80683	9464.2125
648.78172	8847.2125
652.75379	8387.3125
656.72306	8183.4125
660.68952	8103.5125
664.65319	8032.7125
668.61405	7946.6125
672.57211	7917.7125
676.52738	7951.1125
680.47986	7948.0125
684.42955	7946.2125
688.37646	7895.3125
692.32058	7867.6125
696.26192	7813.4125
700.20048	7774.3125
704.13626	7714.0125
708.06928	7645.0125
711.99952	7558.1125
715.927	7520.6125
719.85171	7559.4125
723.77365	7585.6125
727.69284	7605.7125
731.60928	7536.0125
735.52295	7454.9125
739.43388	7376.3125
743.34206	7356.5125
747.24749	7383.7125
751.15017	7397.9125
755.05012	7427.8125
758.94733	7534.8125
762.8418	7768.8125
766.73354	8167.9125
770.62254	8569.7125
774.50882	8761.6125
778.39237	8593.8125
782.27321	8137.9125
786.15132	7730.1125
790.02671	7531.9125
793.89938	7463.7125
797.76935	7502.8125
801.6366	7617.1125
805.50115	7904.0125
809.36299	8190.6125
813.22213	8336.8125
817.07857	8206.0125
820.93231	7911.6125
824.78336	7574.7125
828.63172	7325.9125
832.47738	7194.1125
836.32036	7095.0125
840.16066	7074.6125
843.99827	7025.5125
847.8332	7020.3125
851.66546	6982.3125
855.49504	6983.4125
859.32195	6993.8125
863.1462	7029.1125
866.96777	7112.0125
870.78668	7216.1125
874.60293	7400.6125
878.41652	7576.9125
882.22745	7781.4125
886.03573	7917.9125
889.84136	7915.4125
893.64433	7749.5125
897.44466	7477.4125
901.24235	7213.9125
905.0374	7002.7125
908.8298	6851.8125
912.61957	6775.3125
916.40671	6743.6125
920.19121	6698.3125
923.97308	6716.3125
927.75233	6713.8125
931.52895	6703.6125
935.30295	6694.0125
939.07433	6644.5125
942.84309	6598.0125
946.60924	6581.3125
950.37278	6554.9125
954.13371	6553.4125
957.89203	6525.6125
961.64774	6504.5125
965.40086	6474.3125
969.15137	6440.3125
972.89929	6401.0125
976.64461	6370.2125
980.38733	6359.5125
984.12747	6348.5125
987.86502	6383.2125
991.59999	6427.9125
995.33237	6478.6125
999.06217	6580.8125
1002.78939	6710.3125
1006.51404	6852.2125
1010.23611	7009.1125
1013.95561	7099.1125
1017.67255	7126.1125
1021.38692	7067.3125
1025.09872	6949.3125
1028.80796	6833.0125
1032.51465	6708.2125
1036.21877	6654.4125
1039.92035	6598.8125
1043.61937	6561.0125
1047.31584	6527.3125
1051.00976	6534.9125
1054.70114	6548.9125
1058.38998	6579.2125
1062.07627	6647.2125
1065.76003	6710.3125
1069.44126	6783.7125
1073.11995	6832.6125
1076.79611	6838.6125
1080.46974	6799.5125
1084.14085	6779.9125
1087.80943	6710.4125
1091.47549	6682.9125
1095.13903	6600.1125
1098.80005	6540.4125
1102.45857	6483.2125
1106.11456	6453.7125
1109.76805	6514.7125
1113.41903	6637.1125
1117.06751	6804.3125
1120.71348	7122.3125
1124.35696	7526.7125
1127.99793	8060.2125
1131.63641	8523.7125
1135.2724	8788.6125
1138.90589	8770.7125
1142.5369	8523.2125
1146.16542	8117.3125
1149.79145	7649.0125
1153.415	7272.8125
1157.03607	6947.6125
1160.65467	6784.1125
1164.27079	6760.5125
1167.88443	6815.3125
1171.49561	6994.6125
1175.10432	7289.8125
1178.71056	7708.3125
1182.31434	8100.4125
1185.91565	8297.2125
1189.51451	8354.5125
1193.11091	8338.8125
1196.70485	8392.9125
1200.29634	8461.6125
1203.88538	8511.1125
1207.47197	8366.2125
1211.05612	8100.0125
1214.63782	7768.5125
1218.21708	7442.7125
1221.79391	7168.6125
1225.36829	6975.2125
1228.94024	6864.9125
1232.50976	6765.3125
1236.07685	6728.2125
1239.6415	6715.5125
1243.20374	6761.7125
1246.76355	6789.8125
1250.32093	6844.9125
1253.8759	6893.8125
1257.42845	6933.4125
1260.97859	7010.8125
1264.52631	7087.8125
1268.07163	7121.5125
1271.61453	7178.1125
1275.15503	7194.4125
1278.69312	7191.5125
1282.22882	7208.9125
1285.76211	7259.0125
1289.29301	7360.5125
1292.82151	7520.5125
1296.34761	7719.7125
1299.87133	7974.6125
1303.39266	8289.8125
1306.9116	8768.3125
1310.42815	9276.1125
1313.94233	9605.3125
1317.45412	9545.8125
1320.96354	9325.1125
1324.47058	9056.9125
1327.97525	8870.5125
1331.47754	8774.7125
1334.97747	8782.2125
1338.47502	8854.5125
1341.97022	9027.5125
1345.46305	9216.7125
1348.95352	9431.5125
1352.44163	9714.1125
1355.92738	10150.2125
1359.41078	10754.5125
1362.89183	11367.7125
1366.37053	11218.2125
1369.84688	10297.9125
1373.32088	9370.8125
1376.79254	8754.6125
1380.26186	8391.7125
1383.72883	8225.7125
1387.19347	8067.9125
1390.65578	7918.3125
1394.11575	7801.4125
1397.57339	7733.3125
1401.0287	7718.6125
1404.48168	7700.9125
1407.93234	7648.6125
1411.38068	7532.8125
1414.82669	7364.1125
1418.27039	7179.4125
1421.71177	6937.9125
1425.15083	6734.6125
1428.58758	6605.1125
1432.02203	6556.3125
1435.45416	6535.4125
1438.88399	6540.4125
1442.31151	6532.6125
1445.73673	6548.9125
1449.15965	6563.1125
1452.58027	6600.7125
1455.9986	6576.2125
1459.41463	6593.7125
1462.82837	6621.0125
1466.23982	6704.2125
1469.64898	6771.9125
1473.05586	6825.1125
1476.46045	6848.5125
1479.86276	6858.1125
1483.26279	6888.4125
1486.66054	6951.8125
1490.05602	7012.3125
1493.44922	7167.4125
1496.84016	7357.0125
1500.22882	7658.3125
1503.61521	8096.8125
1506.99934	8664.9125
1510.38121	9124.9125
1513.76081	9267.3125
1517.13816	8917.9125
1520.51324	8319.7125
1523.88607	7744.4125
1527.25665	7407.9125
1530.62498	7247.1125
1533.99105	7216.2125
1537.35488	7197.1125
1540.71647	7216.7125
1544.07581	7253.0125
1547.4329	7283.8125
1550.78776	7311.9125
1554.14038	7317.8125
1557.49077	7381.6125
1560.83892	7394.2125
1564.18484	7430.3125
1567.52853	7524.9125
1570.86999	7590.4125
1574.20922	7687.3125
1577.54624	7728.1125
1580.88103	7661.0125
1584.2136	7527.0125
1587.54395	7452.5125
1590.87208	7479.7125
1594.19801	7652.6125
1597.52172	7864.4125
1600.84321	7985.5125
1604.16251	7947.3125
1607.47959	7764.2125
1610.79447	7558.8125
1614.10715	7354.0125
1617.41763	7170.5125
1620.7259	7058.7125
1624.03199	6976.9125
1627.33587	6948.3125
1630.63757	6962.7125
1633.93707	7100.4125
1637.23439	7306.6125
1640.52951	7615.1125
1643.82246	8075.7125
1647.11321	8565.8125
1650.40179	8951.7125
1653.68819	8829.5125
1656.97241	8311.0125
1660.25446	7692.0125
1663.53433	7216.3125
1666.81203	6918.5125
1670.08756	6696.3125
1673.36092	6566.0125
1676.63211	6458.0125
1679.90115	6390.7125
1683.16801	6290.4125
1686.43272	6212.5125
1689.69527	6111.4125
1692.95567	6023.6125
1696.2139	5944.7125
1699.46999	5819.1125
1702.72392	5671.4125
1705.97571	5546.4125
1709.22535	5467.6125
1712.47284	5378.9125
1715.71819	5296.8125
1718.96139	5242.1125
1722.20246	5180.2125
1725.44139	5135.5125
1728.67818	5087.2125
1731.91284	5050.2125
1735.14537	4986.0125
1738.37576	4969.7125
1741.60403	4928.5125
1744.83017	4913.7125
1748.05418	4900.8125
1751.27607	4911.9125
1754.49584	4899.0125
1757.71349	4890.0125
1760.92903	4850.7125
1764.14244	4833.4125
1767.35375	4811.8125
1770.56294	4779.9125
1773.77002	4738.0125
1776.97499	4706.3125
1780.17785	4668.6125
1783.37861	4627.8125
1786.57727	4611.3125
1789.77382	4577.1125
1792.96828	4548.5125
1796.16064	4537.5125
1799.3509	4502.3125
1802.53907	4492.8125
1805.72514	4473.0125
1808.90913	4460.4125
1812.09102	4452.0125
1815.27083	4418.3125
1818.44856	4420.7125
1821.6242	4409.2125
1824.79776	4389.9125
1827.96924	4387.7125
1831.13864	4386.5125
1834.30597	4369.0125
1837.47122	4361.6125
1840.6344	4361.6125
1843.7955	4358.6125
1846.95454	4352.8125
1850.11151	4342.4125
1853.26642	4319.8125
1856.41926	4326.6125
1859.57004	4323.6125
1862.71876	4323.5125
1865.86542	4318.1125
1869.01003	4285.0125
1872.15258	4296.5125
1875.29308	4301.8125
1878.43152	4280.8125
1881.56792	4277.2125
1884.70227	4272.7125
1887.83457	4255.6125
1890.96482	4238.9125
1894.09304	4231.0125
1897.21921	4222.3125
1900.34335	4224.4125
1903.46544	4211.7125
1906.58551	4236.9125
1909.70353	4207.3125
1912.81953	4219.7125
1915.93349	4186.7125
1919.04543	4188.8125
1922.15534	4174.8125
1925.26322	4140.7125
1928.36908	4159.8125
1931.47292	4144.3125
1934.57473	4125.6125
1937.67453	4110.3125
1940.77232	4116.5125
1943.86808	4088.4125
1946.96184	4088.8125
1950.05358	4063.7125
1953.14331	4047.6125
1956.23103	4044.6125
1959.31675	4039.8125
1962.40046	4025.6125
1965.48217	4020.3125
1968.56188	4006.2125
1971.63959	3981.8125
1974.7153	3971.5125
1977.78901	3961.7125
1980.86073	3938.0125
1983.93046	3936.1125
1986.99819	3912.8125
1990.06394	3899.4125
1993.1277	3897.7125
1996.18947	3870.7125
1999.24925	3867.5125
2002.30706	3866.4125
2005.36288	3844.6125
2008.41672	3834.5125
2011.46859	3822.4125
2014.51848	3806.7125
2017.56639	3778.1125
2020.61233	3777.0125
2023.6563	3772.9125
2026.6983	3767.0125
2029.73833	3749.5125
2032.7764	3756.9125
2035.8125	3749.8125
2038.84664	3730.1125
2041.87881	3730.8125
2044.90903	3731.7125
2047.93729	3705.9125
2050.96359	3700.0125
2053.98794	3690.3125
2057.01034	3687.3125
2060.03078	3684.0125
2063.04927	3682.7125
2066.06582	3670.9125
2069.08042	3683.4125
2072.09307	3659.1125
2075.10378	3678.3125
2078.11255	3658.9125
2081.11938	3660.7125
2084.12426	3665.6125
2087.12722	3660.2125
2090.12824	3677.4125
2093.12732	3667.8125
2096.12447	3641.1125
2099.11969	3651.5125
2102.11299	3646.3125
2105.10435	3651.2125
2108.09379	3653.6125
2111.08131	3650.1125
2114.0669	3651.8125
2117.05057	3661.8125
2120.03233	3655.3125
2123.01216	3668.8125
2125.99008	3670.1125
2128.96609	3650.2125
2131.94018	3668.4125
2134.91236	3671.0125
2137.88263	3664.5125
2140.851	3672.0125
2143.81746	3667.1125
2146.78201	3667.4125
2149.74466	3670.4125
2152.7054	3643.5125
2155.66425	3653.5125
2158.6212	3669.0125
2161.57625	3634.3125
2164.52941	3653.6125
2167.48067	3640.5125
2170.43004	3652.6125
2173.37752	3629.9125
2176.32311	3642.6125
2179.26681	3648.8125
2182.20863	3639.4125
2185.14856	3632.6125
2188.08661	3624.1125
2191.02278	3648.5125
2193.95707	3636.4125
2196.88948	3617.1125
2199.82001	3619.1125
2202.74867	3613.8125
2205.67545	3614.1125
2208.60037	3603.7125
2211.52341	3593.8125
2214.44458	3586.9125
2217.36388	3579.5125
2220.28132	3583.2125
2223.1969	3552.4125
2226.11061	3562.7125
2229.02246	3532.0125
2231.93245	3538.7125
2234.84058	3531.6125
2237.74686	3529.7125
2240.65128	3518.9125
2243.55385	3520.8125
2246.45456	3521.5125
2249.35343	3504.1125
2252.25044	3487.2125
2255.14561	3475.0125
2258.03893	3500.1125
2260.93041	3498.2125
2263.82004	3461.1125
2266.70783	3456.5125
2269.59378	3456.7125
2272.4779	3447.9125
2275.36017	3433.9125
2278.24061	3434.9125
2281.11922	3426.2125
2283.996	3416.5125
2286.87094	3406.3125
2289.74405	3397.9125
2292.61534	3401.6125
2295.4848	3386.9125
2298.35243	3378.4125
2301.21824	3381.9125
2304.08223	3375.6125
2306.94439	3365.4125
2309.80474	3365.2125
2312.66327	3370.4125
2315.51999	3365.5125
2318.37489	3360.2125
2321.22797	3351.3125
2324.07925	3344.9125
2326.92871	3349.6125
2329.77637	3330.2125
2332.62222	3333.8125
2335.46626	3329.1125
2338.3085	3321.6125
2341.14893	3316.2125
2343.98756	3314.7125
2346.8244	3293.8125
2349.65943	3293.5125
2352.49267	3316.6125
2355.32411	3305.3125
2358.15376	3289.2125
2360.98161	3298.6125
2363.80768	3281.0125
2366.63195	3284.4125
2369.45444	3280.5125
2372.27514	3290.3125
2375.09405	3286.1125
2377.91118	3280.8125
2380.72652	3249.7125
2383.54009	3265.3125
2386.35187	3253.3125
2389.16188	3236.4125
2391.97011	3240.8125
2394.77657	3235.6125
2397.58125	3227.4125
2400.38416	3228.9125
2403.18529	3210.1125
2405.98466	3212.1125
2408.78226	3206.2125
2411.57809	3195.3125
2414.37216	3182.8125
2417.16446	3178.4125
2419.955	3176.2125
2422.74378	3167.1125
2425.5308	3170.9125
2428.31606	3155.2125
2431.09956	3149.6125
2433.88131	3148.4125
2436.6613	3157.1125
2439.43954	3149.2125
2442.21603	3134.5125
2444.99077	3141.2125
2447.76377	3134.2125
2450.53501	3131.7125
2453.30451	3126.9125
2456.07226	3127.8125
2458.83827	3111.7125
2461.60254	3106.1125
2464.36507	3101.0125
2467.12586	3094.4125
2469.88492	3096.3125
2472.64224	3099.3125
2475.39782	3095.0125
2478.15167	3099.0125
2480.90379	3088.8125
2483.65417	3093.7125
2486.40283	3072.7125
2489.14976	3086.7125
2491.89497	3099.9125
2494.63845	3088.9125
2497.3802	3080.7125
2500.12024	3076.5125
2502.85855	3072.0125
2505.59514	3063.4125
2508.33002	3075.8125
2511.06318	3051.1125
2513.79462	3055.7125
2516.52435	3051.8125
2519.25237	3046.5125
2521.97867	3036.1125
2524.70327	3025.2125
2527.42616	3031.9125
2530.14734	3034.8125
2532.86681	3000.9125
2535.58458	3010.8125
2538.30065	2993.8125
2541.01501	3007.9125
2543.72768	2999.4125
2546.43864	2983.3125
2549.14791	2979.7125
2551.85548	2967.0125
2554.56136	2963.7125
2557.26554	2965.6125
2559.96803	2952.8125
2562.66883	2957.2125
2565.36794	2945.6125
2568.06536	2949.3125
2570.7611	2944.2125
2573.45514	2934.7125
2576.14751	2935.5125
2578.83819	2919.1125
2581.52719	2931.1125
2584.21451	2911.6125
2586.90015	2899.6125
2589.58411	2904.2125
2592.2664	2891.6125
2594.94701	2883.9125
2597.62594	2885.9125
2600.30321	2878.2125
2602.9788	2885.5125
2605.65273	2874.6125
2608.32498	2869.9125
2610.99557	2866.3125
2613.66449	2851.2125
2616.33175	2850.4125
2618.99734	2852.9125
2621.66128	2841.3125
2624.32355	2835.7125
2626.98416	2832.3125
2629.64311	2836.8125
2632.30041	2834.4125
2634.95605	2834.5125
2637.61004	2837.0125
2640.26238	2827.1125
2642.91306	2817.2125
2645.56209	2811.7125
2648.20948	2813.3125
2650.85521	2803.0125
2653.4993	2806.9125
2656.14175	2799.7125
2658.78255	2805.4125
2661.42171	2812.8125
2664.05923	2803.2125
2666.6951	2792.3125
2669.32934	2809.4125
2671.96194	2785.9125
2674.59291	2800.9125
2677.22224	2810.2125
2679.84993	2808.5125
2682.476	2795.8125
2685.10043	2801.5125
2687.72324	2800.8125
2690.34441	2803.4125
2692.96396	2795.4125
2695.58188	2812.1125
2698.19818	2798.5125
2700.81285	2795.0125
2703.4259	2814.5125
2706.03733	2820.3125
2708.64714	2819.1125
2711.25533	2806.7125
2713.86191	2813.6125
2716.46687	2806.2125
2719.07021	2806.2125
2721.67194	2801.3125
2724.27206	2801.3125
2726.87057	2799.8125
2729.46747	2797.6125
2732.06276	2792.1125
2734.65644	2800.6125
2737.24852	2786.0125
2739.83899	2797.4125
2742.42786	2785.3125
2745.01513	2777.7125
2747.60079	2781.7125
2750.18486	2777.9125
2752.76733	2771.8125
2755.3482	2755.9125
2757.92747	2759.6125
2760.50515	2756.3125
2763.08123	2756.5125
2765.65573	2743.1125
2768.22863	2744.1125
2770.79994	2742.5125
2773.36967	2747.5125
2775.9378	2753.8125
2778.50435	2740.8125
2781.06932	2738.9125
2783.6327	2731.9125
2786.1945	2727.7125
2788.75471	2729.6125
2791.31335	2730.0125
2793.87041	2715.7125
2796.42589	2704.1125
2798.97979	2690.5125
2801.53212	2690.0125
2804.08288	2687.1125
2806.63206	2694.4125
2809.17967	2691.2125
2811.72571	2688.7125
2814.27018	2678.5125
2816.81308	2672.6125
2819.35442	2680.0125
2821.89419	2667.0125
2824.43239	2668.7125
2826.96904	2666.5125
2829.50412	2666.6125
2832.03763	2665.4125
2834.56959	2666.0125
2837.1	2660.8125
2839.62884	2663.4125
2842.15613	2645.2125
2844.68186	2662.1125
2847.20604	2663.8125
2849.72867	2659.1125
2852.24974	2657.1125
2854.76927	2649.2125
2857.28724	2664.4125
2859.80367	2647.7125
2862.31855	2664.2125
2864.83189	2645.8125
2867.34368	2645.6125
2869.85393	2654.2125
2872.36264	2646.1125
2874.8698	2660.4125
2877.37543	2649.9125
2879.87952	2646.3125
2882.38207	2646.9125
2884.88308	2649.9125
2887.38256	2658.4125
2889.88051	2656.1125
2892.37692	2656.2125
2894.8718	2655.0125
2897.36515	2656.1125
2899.85698	2660.6125
2902.34727	2670.8125
2904.83604	2670.1125
2907.32328	2680.2125
2909.809	2670.5125
2912.29319	2672.4125
2914.77587	2683.2125
2917.25702	2684.7125
2919.73665	2682.7125
2922.21476	2682.5125
2924.69136	2680.0125
2927.16644	2682.8125
2929.64	2684.2125
2932.11205	2690.7125
2934.58258	2688.0125
2937.05161	2677.4125
2939.51912	2678.2125
2941.98513	2684.8125
2944.44962	2684.9125
2946.91261	2673.9125
2949.37409	2693.8125
2951.83407	2690.0125
2954.29254	2676.0125
2956.74951	2676.0125
2959.20498	2672.8125
2961.65895	2649.7125
2964.11142	2663.8125
2966.56239	2634.5125
2969.01186	2647.2125
2971.45984	2640.8125
2973.90632	2617.0125
2976.35131	2626.9125
2978.7948	2622.4125
2981.23681	2615.5125
2983.67732	2605.7125
2986.11635	2605.2125
2988.55388	2602.1125
2990.98993	2604.6125
2993.4245	2583.7125
2995.85758	2587.5125
2998.28917	2574.4125
3000.71928	2579.2125
3003.14791	2577.6125
3005.57506	2593.8125
3008.00073	2578.2125
3010.42493	2594.6125
3012.84764	2579.7125
3015.26888	2574.1125
3017.68865	2581.5125
3020.10694	2573.6125
3022.52376	2563.8125
3024.9391	2572.5125
3027.35298	2571.7125
3029.76539	2575.4125
3032.17632	2569.3125
3034.5858	2563.1125
3036.9938	2569.7125
3039.40034	2563.8125
3041.80542	2576.4125
3044.20903	2565.5125
3046.61118	2559.5125
3049.01187	2555.9125
3051.4111	2552.7125
3053.80888	2553.6125
3056.20519	2562.9125
3058.60005	2544.2125
3060.99345	2550.8125
3063.3854	2556.3125
3065.7759	2540.1125
3068.16494	2548.9125
3070.55254	2540.4125
3072.93868	2550.0125
3075.32338	2556.1125
3077.70662	2547.9125
3080.08842	2545.2125
3082.46878	2558.5125
3084.84769	2564.7125
3087.22515	2559.0125
3089.60118	2557.6125
3091.97576	2563.5125
3094.3489	2564.7125
3096.72061	2571.6125
3099.09087	2579.1125
3101.4597	2575.5125
3103.82709	2584.5125
3106.19305	2587.2125
3108.55757	2601.8125
3110.92066	2598.2125
3113.28232	2578.5125
3115.64255	2584.5125
3118.00134	2597.7125
3120.35871	2594.6125
3122.71466	2593.5125
3125.06917	2606.8125
3127.42226	2591.2125
3129.77393	2615.9125
3132.12417	2617.2125
3134.47299	2623.5125
3136.82039	2622.8125
3139.16636	2632.2125
3141.51092	2638.7125
3143.85406	2658.9125
3146.19579	2658.1125
3148.53609	2655.1125
3150.87499	2676.9125
3153.21246	2684.9125
3155.54853	2690.5125
3157.88318	2695.3125
3160.21642	2709.9125
3162.54826	2707.1125
3164.87868	2723.5125
3167.2077	2719.4125
3169.5353	2730.3125
3171.86151	2734.3125
3174.18631	2736.2125
3176.5097	2749.1125
3178.83169	2740.2125
3181.15228	2751.0125
3183.47147	2753.3125
3185.78926	2760.7125
3188.10565	2752.7125
3190.42065	2772.5125
3192.73424	2773.1125
3195.04645	2768.5125
3197.35725	2779.2125
3199.66667	2788.6125
3201.97469	2798.2125
3204.28132	2799.3125
3206.58656	2796.7125
3208.8904	2809.1125
3211.19287	2818.2125
3213.49394	2834.5125
3215.79363	2829.0125
3218.09193	2829.8125
3220.38884	2836.7125
3222.68438	2842.5125
3224.97853	2842.9125
3227.2713	2837.9125
3229.56269	2841.2125
3231.8527	2837.4125
3234.14133	2836.1125
3236.42858	2839.4125
3238.71446	2821.7125
3240.99896	2839.0125
3243.28209	2837.7125
3245.56384	2837.8125
3247.84423	2834.3125
3250.12324	2833.8125
3252.40088	2847.6125
3254.67715	2834.0125
3256.95205	2830.1125
3259.22558	2830.9125
3261.49775	2824.7125
3263.76855	2828.6125
3266.03799	2822.6125
3268.30606	2819.6125
3270.57277	2813.6125
3272.83812	2805.7125
3275.10211	2820.2125
3277.36474	2801.8125
3279.62601	2813.5125
3281.88593	2804.7125
3284.14448	2817.9125
3286.40168	2824.8125
3288.65753	2801.2125
3290.91202	2809.4125
3293.16516	2794.5125
3295.41695	2783.4125
3297.66738	2765.0125
3299.91647	2773.6125
3302.16421	2737.0125
3304.4106	2735.3125
3306.65564	2720.4125
3308.89933	2725.5125
3311.14169	2699.6125
3313.38269	2676.0125
3315.62236	2660.6125
3317.86068	2634.4125
3320.09766	2617.9125
3322.3333	2601.9125
3324.5676	2599.3125
3326.80056	2560.4125
3329.03219	2565.4125
3331.26248	-1.4875
3333.49143	0.9125
3335.71905	-0.3875
