Data from AgNPs_FTO_APTES_UA_0.1mM_CRN_200uM_NaF_0.1M_Addition_RamanShift__30__14-29-47-748.txt Node

Date: Mon Dec 20 14:29:47 GMT 2021
User: TCL
Spectrometer: QEP01345
Trigger mode: 4
Integration Time (sec): 7.000000E0
Scans to average: 10
Electric dark correction enabled: true
Nonlinearity correction enabled: false
Boxcar width: 0
XAxis mode: Raman Shifts
Number of Pixels in Spectrum: 1044
>>>>>Begin Spectral Data<<<<<
46.04893	0.8875
50.45542	0.8875
54.85868	-2.4125
59.25871	1.6875
63.6555	25.1875
68.04907	25.9875
72.43941	28.7875
76.82654	33.0875
81.21044	28.2875
85.59113	35.8875
89.96862	33.0875
94.34289	35.5875
98.71396	36.6875
103.08183	36.3875
107.4465	38.9875
111.80798	42.8875
116.16626	37.7875
120.52136	40.2875
124.87327	43.0875
129.222	42.0875
133.56755	43.5875
137.90993	46.7875
142.24913	46.9875
146.58517	49.9875
150.91804	60.2875
155.24774	68.2875
159.57429	80.3875
163.89768	102.2875
168.21792	126.6875
172.53501	163.1875
176.84895	218.2875
181.15975	300.5875
185.46741	411.6875
189.77193	561.0875
194.07331	744.4875
198.37157	959.0875
202.6667	1184.1875
206.9587	1418.8875
211.24758	1633.6875
215.53334	1859.3875
219.81599	2091.8875
224.09553	2344.3875
228.37195	2610.4875
232.64527	2904.8875
236.91549	3196.5875
241.18261	3486.6875
245.44663	3709.7875
249.70755	3927.2875
253.96539	4064.4875
258.22014	4169.2875
262.4718	4230.9875
266.72039	4225.6875
270.96589	4216.6875
275.20832	4168.1875
279.44768	4079.4875
283.68397	3990.2875
287.91719	3934.4875
292.14735	3935.0875
296.37445	3988.9875
300.59849	4136.6875
304.81948	4285.0875
309.03742	4411.6875
313.25231	4378.3875
317.46415	4171.5875
321.67296	3864.3875
325.87872	3565.9875
330.08145	3425.7875
334.28114	3386.5875
338.47781	3424.4875
342.67145	3512.4875
346.86207	3629.2875
351.04966	3833.5875
355.23424	4074.3875
359.4158	4286.7875
363.59435	4393.6875
367.76989	4466.1875
371.94243	4501.9875
376.11196	4524.3875
380.27849	4545.2875
384.44203	4516.2875
388.60257	4494.6875
392.76012	4450.2875
396.91468	4476.3875
401.06626	4558.5875
405.21485	4598.8875
409.36047	4484.1875
413.50311	4228.3875
417.64277	3975.1875
421.77947	3817.7875
425.9132	3740.5875
430.04396	3695.1875
434.17176	3701.0875
438.2966	3732.0875
442.41849	3809.9875
446.53742	3881.3875
450.6534	3968.1875
454.76644	4027.2875
458.87653	4023.3875
462.98368	4002.1875
467.08789	3959.0875
471.18916	3919.5875
475.2875	3892.9875
479.38291	3886.4875
483.4754	3957.9875
487.56496	4071.2875
491.6516	4230.4875
495.73531	4287.1875
499.81612	4229.9875
503.89401	4129.6875
507.96899	4061.5875
512.04106	4108.2875
516.11023	4222.9875
520.1765	4368.4875
524.23987	4489.1875
528.30034	4492.9875
532.35792	4424.3875
536.41261	4260.1875
540.46441	4044.2875
544.51333	3864.9875
548.55936	3784.7875
552.60252	3765.4875
556.64279	3801.8875
560.6802	3832.1875
564.71473	3882.4875
568.7464	4044.2875
572.7752	4154.7875
576.80114	4060.3875
580.82422	3941.5875
584.84444	3949.7875
588.86181	4029.0875
592.87633	4093.2875
596.888	4122.5875
600.89682	4189.0875
604.9028	4592.6875
608.90594	5752.2875
612.90624	7410.1875
616.90371	7613.5875
620.89834	6143.4875
624.89015	5726.8875
628.87913	6153.4875
632.86528	6684.6875
636.84862	6961.4875
640.82913	6698.9875
644.80683	6038.7875
648.78172	5310.1875
652.75379	4850.7875
656.72306	4631.7875
660.68952	4572.3875
664.65319	4398.5875
668.61405	4140.5875
672.57211	4017.2875
676.52738	4017.0875
680.47986	4020.3875
684.42955	4013.6875
688.37646	3974.7875
692.32058	3946.1875
696.26192	3929.9875
700.20048	3932.2875
704.13626	3922.1875
708.06928	3864.1875
711.99952	3816.2875
715.927	3824.6875
719.85171	3888.7875
723.77365	3961.8875
727.69284	3966.0875
731.60928	3863.6875
735.52295	3765.8875
739.43388	3722.2875
743.34206	3725.2875
747.24749	3743.5875
751.15017	3774.1875
755.05012	3824.9875
758.94733	3965.6875
762.8418	4320.0875
766.73354	4916.6875
770.62254	5560.6875
774.50882	5942.1875
778.39237	5796.9875
782.27321	5129.6875
786.15132	4426.4875
790.02671	4055.1875
793.89938	3940.7875
797.76935	3975.0875
801.6366	4164.4875
805.50115	4537.1875
809.36299	4959.3875
813.22213	5121.3875
817.07857	4922.8875
820.93231	4542.5875
824.78336	4137.8875
828.63172	3860.3875
832.47738	3704.9875
836.32036	3622.0875
840.16066	3570.2875
843.99827	3545.9875
847.8332	3518.8875
851.66546	3490.8875
855.49504	3510.7875
859.32195	3528.4875
863.1462	3577.9875
866.96777	3657.5875
870.78668	3825.1875
874.60293	4062.0875
878.41652	4342.3875
882.22745	4621.9875
886.03573	4802.2875
889.84136	4789.0875
893.64433	4563.1875
897.44466	4234.9875
901.24235	3891.3875
905.0374	3652.1875
908.8298	3489.7875
912.61957	3392.5875
916.40671	3334.9875
920.19121	3326.0875
923.97308	3316.9875
927.75233	3337.3875
931.52895	3359.1875
935.30295	3339.9875
939.07433	3271.4875
942.84309	3191.8875
946.60924	3154.0875
950.37278	3128.2875
954.13371	3127.6875
957.89203	3117.2875
961.64774	3107.7875
965.40086	3082.5875
969.15137	3085.6875
972.89929	3065.8875
976.64461	3055.8875
980.38733	3062.8875
984.12747	3084.6875
987.86502	3103.0875
991.59999	3159.5875
995.33237	3220.4875
999.06217	3338.6875
1002.78939	3524.3875
1006.51404	3709.5875
1010.23611	3882.9875
1013.95561	4020.8875
1017.67255	4050.7875
1021.38692	3976.4875
1025.09872	3814.5875
1028.80796	3637.5875
1032.51465	3467.0875
1036.21877	3368.4875
1039.92035	3320.3875
1043.61937	3317.4875
1047.31584	3326.3875
1051.00976	3339.9875
1054.70114	3379.8875
1058.38998	3448.0875
1062.07627	3524.0875
1065.76003	3614.3875
1069.44126	3654.2875
1073.11995	3672.2875
1076.79611	3670.8875
1080.46974	3645.5875
1084.14085	3641.7875
1087.80943	3642.1875
1091.47549	3599.6875
1095.13903	3534.5875
1098.80005	3419.8875
1102.45857	3328.6875
1106.11456	3354.5875
1109.76805	3431.7875
1113.41903	3586.2875
1117.06751	3831.2875
1120.71348	4217.4875
1124.35696	4715.6875
1127.99793	5322.5875
1131.63641	5763.0875
1135.2724	5942.6875
1138.90589	5873.7875
1142.5369	5588.9875
1146.16542	5146.7875
1149.79145	4631.4875
1153.415	4191.6875
1157.03607	3871.0875
1160.65467	3722.6875
1164.27079	3656.4875
1167.88443	3729.6875
1171.49561	3948.0875
1175.10432	4337.5875
1178.71056	4903.0875
1182.31434	5473.9875
1185.91565	5732.7875
1189.51451	5770.2875
1193.11091	5784.6875
1196.70485	5876.4875
1200.29634	6029.6875
1203.88538	6079.2875
1207.47197	5826.3875
1211.05612	5392.6875
1214.63782	4920.0875
1218.21708	4498.4875
1221.79391	4171.0875
1225.36829	3905.3875
1228.94024	3742.9875
1232.50976	3660.3875
1236.07685	3608.1875
1239.6415	3607.4875
1243.20374	3639.2875
1246.76355	3667.1875
1250.32093	3701.7875
1253.8759	3736.7875
1257.42845	3797.4875
1260.97859	3870.4875
1264.52631	3935.3875
1268.07163	4002.6875
1271.61453	4049.8875
1275.15503	4052.7875
1278.69312	4023.7875
1282.22882	4009.2875
1285.76211	4059.4875
1289.29301	4186.3875
1292.82151	4319.6875
1296.34761	4514.7875
1299.87133	4773.9875
1303.39266	5229.0875
1306.9116	5868.3875
1310.42815	6537.7875
1313.94233	6834.0875
1317.45412	6567.9875
1320.96354	6099.3875
1324.47058	5694.1875
1327.97525	5379.8875
1331.47754	5226.1875
1334.97747	5248.8875
1338.47502	5348.6875
1341.97022	5593.7875
1345.46305	5932.2875
1348.95352	6417.8875
1352.44163	6989.5875
1355.92738	7736.8875
1359.41078	8756.6875
1362.89183	9535.2875
1366.37053	9132.6875
1369.84688	7900.2875
1373.32088	6728.0875
1376.79254	5952.5875
1380.26186	5484.7875
1383.72883	5199.4875
1387.19347	4992.3875
1390.65578	4802.3875
1394.11575	4639.6875
1397.57339	4538.9875
1401.0287	4451.1875
1404.48168	4384.8875
1407.93234	4290.4875
1411.38068	4188.4875
1414.82669	4060.6875
1418.27039	3925.3875
1421.71177	3797.2875
1425.15083	3677.8875
1428.58758	3598.1875
1432.02203	3563.3875
1435.45416	3564.1875
1438.88399	3554.0875
1442.31151	3528.4875
1445.73673	3541.3875
1449.15965	3554.3875
1452.58027	3542.0875
1455.9986	3510.4875
1459.41463	3514.1875
1462.82837	3547.0875
1466.23982	3606.8875
1469.64898	3674.5875
1473.05586	3717.9875
1476.46045	3728.5875
1479.86276	3777.3875
1483.26279	3880.2875
1486.66054	4039.1875
1490.05602	4229.7875
1493.44922	4515.9875
1496.84016	4902.5875
1500.22882	5530.1875
1503.61521	6352.7875
1506.99934	7243.4875
1510.38121	7856.7875
1513.76081	7872.4875
1517.13816	7198.2875
1520.51324	6171.1875
1523.88607	5328.3875
1527.25665	4825.9875
1530.62498	4586.8875
1533.99105	4484.6875
1537.35488	4473.6875
1540.71647	4520.8875
1544.07581	4617.8875
1547.4329	4684.9875
1550.78776	4763.4875
1554.14038	4786.5875
1557.49077	4798.5875
1560.83892	4818.4875
1564.18484	4902.4875
1567.52853	5046.9875
1570.86999	5212.4875
1574.20922	5301.2875
1577.54624	5292.9875
1580.88103	5078.8875
1584.2136	4764.3875
1587.54395	4589.4875
1590.87208	4569.8875
1594.19801	4688.8875
1597.52172	4896.0875
1600.84321	5015.1875
1604.16251	4965.8875
1607.47959	4834.3875
1610.79447	4687.3875
1614.10715	4521.5875
1617.41763	4396.7875
1620.7259	4313.5875
1624.03199	4276.5875
1627.33587	4285.4875
1630.63757	4324.4875
1633.93707	4444.5875
1637.23439	4667.6875
1640.52951	5026.7875
1643.82246	5575.1875
1647.11321	6241.1875
1650.40179	6773.0875
1653.68819	6756.5875
1656.97241	6146.5875
1660.25446	5445.0875
1663.53433	4873.2875
1666.81203	4458.0875
1670.08756	4174.2875
1673.36092	3960.1875
1676.63211	3794.6875
1679.90115	3666.2875
1683.16801	3570.8875
1686.43272	3459.7875
1689.69527	3364.7875
1692.95567	3293.3875
1696.2139	3227.8875
1699.46999	3153.7875
1702.72392	3066.2875
1705.97571	2971.8875
1709.22535	2898.4875
1712.47284	2870.9875
1715.71819	2823.4875
1718.96139	2787.5875
1722.20246	2747.8875
1725.44139	2709.2875
1728.67818	2664.4875
1731.91284	2619.3875
1735.14537	2598.0875
1738.37576	2571.3875
1741.60403	2537.5875
1744.83017	2535.8875
1748.05418	2514.0875
1751.27607	2500.0875
1754.49584	2484.8875
1757.71349	2470.5875
1760.92903	2435.6875
1764.14244	2421.0875
1767.35375	2387.9875
1770.56294	2369.7875
1773.77002	2347.9875
1776.97499	2332.0875
1780.17785	2310.3875
1783.37861	2291.0875
1786.57727	2292.2875
1789.77382	2264.6875
1792.96828	2254.7875
1796.16064	2241.9875
1799.3509	2226.9875
1802.53907	2226.1875
1805.72514	2215.3875
1808.90913	2201.7875
1812.09102	2190.9875
1815.27083	2180.8875
1818.44856	2176.4875
1821.6242	2172.1875
1824.79776	2161.9875
1827.96924	2159.9875
1831.13864	2149.6875
1834.30597	2154.6875
1837.47122	2152.8875
1840.6344	2148.9875
1843.7955	2132.8875
1846.95454	2139.2875
1850.11151	2126.0875
1853.26642	2112.9875
1856.41926	2122.9875
1859.57004	2117.5875
1862.71876	2118.5875
1865.86542	2105.1875
1869.01003	2103.8875
1872.15258	2103.2875
1875.29308	2093.5875
1878.43152	2098.8875
1881.56792	2090.4875
1884.70227	2093.5875
1887.83457	2077.1875
1890.96482	2079.5875
1894.09304	2076.6875
1897.21921	2063.8875
1900.34335	2068.3875
1903.46544	2057.0875
1906.58551	2060.0875
1909.70353	2057.3875
1912.81953	2055.5875
1915.93349	2045.9875
1919.04543	2042.7875
1922.15534	2026.6875
1925.26322	2033.4875
1928.36908	2023.4875
1931.47292	2015.3875
1934.57473	2003.6875
1937.67453	2001.9875
1940.77232	1996.5875
1943.86808	1999.2875
1946.96184	1987.7875
1950.05358	1970.0875
1953.14331	1974.8875
1956.23103	1967.9875
1959.31675	1963.5875
1962.40046	1946.6875
1965.48217	1956.2875
1968.56188	1949.4875
1971.63959	1945.0875
1974.7153	1933.2875
1977.78901	1916.1875
1980.86073	1910.3875
1983.93046	1915.6875
1986.99819	1896.5875
1990.06394	1886.2875
1993.1277	1888.3875
1996.18947	1885.0875
1999.24925	1872.0875
2002.30706	1872.6875
2005.36288	1869.1875
2008.41672	1858.8875
2011.46859	1859.3875
2014.51848	1845.2875
2017.56639	1836.7875
2020.61233	1831.0875
2023.6563	1835.7875
2026.6983	1830.8875
2029.73833	1817.6875
2032.7764	1814.4875
2035.8125	1815.1875
2038.84664	1811.4875
2041.87881	1807.8875
2044.90903	1803.7875
2047.93729	1797.7875
2050.96359	1794.5875
2053.98794	1791.0875
2057.01034	1783.1875
2060.03078	1781.9875
2063.04927	1781.1875
2066.06582	1780.4875
2069.08042	1773.5875
2072.09307	1773.8875
2075.10378	1782.0875
2078.11255	1774.9875
2081.11938	1771.1875
2084.12426	1768.1875
2087.12722	1774.9875
2090.12824	1766.3875
2093.12732	1764.2875
2096.12447	1771.7875
2099.11969	1773.1875
2102.11299	1759.8875
2105.10435	1756.0875
2108.09379	1757.5875
2111.08131	1764.0875
2114.0669	1766.7875
2117.05057	1759.3875
2120.03233	1770.4875
2123.01216	1773.7875
2125.99008	1775.9875
2128.96609	1773.6875
2131.94018	1773.1875
2134.91236	1785.4875
2137.88263	1766.4875
2140.851	1774.5875
2143.81746	1788.4875
2146.78201	1774.8875
2149.74466	1777.5875
2152.7054	1765.8875
2155.66425	1758.9875
2158.6212	1769.1875
2161.57625	1761.5875
2164.52941	1761.0875
2167.48067	1756.5875
2170.43004	1767.9875
2173.37752	1751.1875
2176.32311	1746.1875
2179.26681	1755.9875
2182.20863	1748.1875
2185.14856	1754.2875
2188.08661	1741.9875
2191.02278	1746.3875
2193.95707	1740.2875
2196.88948	1738.2875
2199.82001	1746.4875
2202.74867	1722.8875
2205.67545	1732.5875
2208.60037	1725.2875
2211.52341	1723.5875
2214.44458	1719.3875
2217.36388	1714.8875
2220.28132	1711.4875
2223.1969	1701.9875
2226.11061	1703.2875
2229.02246	1690.7875
2231.93245	1690.5875
2234.84058	1684.5875
2237.74686	1676.2875
2240.65128	1691.6875
2243.55385	1687.0875
2246.45456	1676.0875
2249.35343	1674.7875
2252.25044	1676.9875
2255.14561	1673.9875
2258.03893	1682.1875
2260.93041	1679.5875
2263.82004	1670.4875
2266.70783	1660.5875
2269.59378	1666.7875
2272.4779	1661.3875
2275.36017	1654.7875
2278.24061	1643.0875
2281.11922	1643.9875
2283.996	1636.6875
2286.87094	1634.5875
2289.74405	1642.4875
2292.61534	1628.1875
2295.4848	1628.2875
2298.35243	1614.5875
2301.21824	1607.8875
2304.08223	1617.9875
2306.94439	1612.8875
2309.80474	1615.5875
2312.66327	1607.1875
2315.51999	1603.4875
2318.37489	1596.9875
2321.22797	1589.2875
2324.07925	1604.3875
2326.92871	1592.8875
2329.77637	1600.3875
2332.62222	1595.8875
2335.46626	1581.0875
2338.3085	1573.5875
2341.14893	1581.0875
2343.98756	1578.7875
2346.8244	1574.5875
2349.65943	1574.4875
2352.49267	1578.9875
2355.32411	1580.2875
2358.15376	1579.8875
2360.98161	1581.2875
2363.80768	1576.0875
2366.63195	1583.0875
2369.45444	1585.5875
2372.27514	1590.3875
2375.09405	1590.4875
2377.91118	1579.7875
2380.72652	1575.6875
2383.54009	1575.6875
2386.35187	1570.3875
2389.16188	1566.7875
2391.97011	1559.7875
2394.77657	1562.3875
2397.58125	1552.6875
2400.38416	1544.8875
2403.18529	1553.6875
2405.98466	1543.0875
2408.78226	1533.6875
2411.57809	1531.5875
2414.37216	1525.7875
2417.16446	1520.5875
2419.955	1521.3875
2422.74378	1517.2875
2425.5308	1505.4875
2428.31606	1508.2875
2431.09956	1496.4875
2433.88131	1506.7875
2436.6613	1499.7875
2439.43954	1500.1875
2442.21603	1504.8875
2444.99077	1496.0875
2447.76377	1490.9875
2450.53501	1496.5875
2453.30451	1504.1875
2456.07226	1490.0875
2458.83827	1495.0875
2461.60254	1490.3875
2464.36507	1491.7875
2467.12586	1476.5875
2469.88492	1481.3875
2472.64224	1482.8875
2475.39782	1489.6875
2478.15167	1492.0875
2480.90379	1491.0875
2483.65417	1486.8875
2486.40283	1493.6875
2489.14976	1488.9875
2491.89497	1484.1875
2494.63845	1494.0875
2497.3802	1496.7875
2500.12024	1498.2875
2502.85855	1481.7875
2505.59514	1479.8875
2508.33002	1472.6875
2511.06318	1465.3875
2513.79462	1456.5875
2516.52435	1450.6875
2519.25237	1445.1875
2521.97867	1440.1875
2524.70327	1440.2875
2527.42616	1438.4875
2530.14734	1429.9875
2532.86681	1428.2875
2535.58458	1427.9875
2538.30065	1426.5875
2541.01501	1414.9875
2543.72768	1421.1875
2546.43864	1420.8875
2549.14791	1417.2875
2551.85548	1412.8875
2554.56136	1410.1875
2557.26554	1401.2875
2559.96803	1402.5875
2562.66883	1402.0875
2565.36794	1401.8875
2568.06536	1403.4875
2570.7611	1400.0875
2573.45514	1394.0875
2576.14751	1391.7875
2578.83819	1380.1875
2581.52719	1381.2875
2584.21451	1383.5875
2586.90015	1370.5875
2589.58411	1375.2875
2592.2664	1371.9875
2594.94701	1360.9875
2597.62594	1363.9875
2600.30321	1359.8875
2602.9788	1361.4875
2605.65273	1353.5875
2608.32498	1353.4875
2610.99557	1360.1875
2613.66449	1350.5875
2616.33175	1355.9875
2618.99734	1347.7875
2621.66128	1352.5875
2624.32355	1342.9875
2626.98416	1330.7875
2629.64311	1335.7875
2632.30041	1338.7875
2634.95605	1333.6875
2637.61004	1324.6875
2640.26238	1335.1875
2642.91306	1316.1875
2645.56209	1324.3875
2648.20948	1325.8875
2650.85521	1321.6875
2653.4993	1326.8875
2656.14175	1315.5875
2658.78255	1331.4875
2661.42171	1321.6875
2664.05923	1309.8875
2666.6951	1320.3875
2669.32934	1327.1875
2671.96194	1321.8875
2674.59291	1322.1875
2677.22224	1321.4875
2679.84993	1321.9875
2682.476	1327.4875
2685.10043	1329.4875
2687.72324	1321.4875
2690.34441	1323.2875
2692.96396	1329.4875
2695.58188	1331.5875
2698.19818	1331.7875
2700.81285	1336.0875
2703.4259	1341.6875
2706.03733	1367.5875
2708.64714	1346.1875
2711.25533	1347.8875
2713.86191	1347.9875
2716.46687	1343.4875
2719.07021	1349.9875
2721.67194	1343.0875
2724.27206	1344.9875
2726.87057	1344.2875
2729.46747	1341.3875
2732.06276	1340.9875
2734.65644	1326.1875
2737.24852	1322.8875
2739.83899	1337.5875
2742.42786	1323.4875
2745.01513	1318.2875
2747.60079	1324.7875
2750.18486	1314.8875
2752.76733	1317.0875
2755.3482	1316.3875
2757.92747	1314.9875
2760.50515	1316.6875
2763.08123	1305.2875
2765.65573	1294.0875
2768.22863	1311.9875
2770.79994	1302.9875
2773.36967	1305.0875
2775.9378	1300.2875
2778.50435	1299.4875
2781.06932	1300.4875
2783.6327	1298.3875
2786.1945	1302.4875
2788.75471	1305.8875
2791.31335	1290.8875
2793.87041	1297.9875
2796.42589	1287.0875
2798.97979	1295.9875
2801.53212	1288.5875
2804.08288	1300.6875
2806.63206	1292.7875
2809.17967	1293.4875
2811.72571	1291.5875
2814.27018	1299.7875
2816.81308	1297.2875
2819.35442	1294.2875
2821.89419	1291.2875
2824.43239	1301.8875
2826.96904	1295.1875
2829.50412	1296.1875
2832.03763	1304.8875
2834.56959	1300.3875
2837.1	1299.5875
2839.62884	1309.2875
2842.15613	1294.6875
2844.68186	1312.7875
2847.20604	1323.3875
2849.72867	1318.6875
2852.24974	1330.6875
2854.76927	1331.8875
2857.28724	1335.0875
2859.80367	1331.7875
2862.31855	1326.5875
2864.83189	1327.5875
2867.34368	1327.2875
2869.85393	1329.9875
2872.36264	1331.3875
2874.8698	1326.6875
2877.37543	1332.2875
2879.87952	1338.1875
2882.38207	1332.9875
2884.88308	1334.7875
2887.38256	1338.0875
2889.88051	1338.3875
2892.37692	1341.0875
2894.8718	1337.1875
2897.36515	1340.6875
2899.85698	1344.3875
2902.34727	1349.1875
2904.83604	1357.8875
2907.32328	1356.4875
2909.809	1362.9875
2912.29319	1358.0875
2914.77587	1360.0875
2917.25702	1353.7875
2919.73665	1353.2875
2922.21476	1356.7875
2924.69136	1353.2875
2927.16644	1360.3875
2929.64	1359.3875
2932.11205	1352.3875
2934.58258	1345.4875
2937.05161	1346.1875
2939.51912	1343.7875
2941.98513	1347.9875
2944.44962	1344.6875
2946.91261	1331.4875
2949.37409	1341.9875
2951.83407	1334.0875
2954.29254	1327.6875
2956.74951	1320.0875
2959.20498	1320.7875
2961.65895	1324.8875
2964.11142	1318.3875
2966.56239	1309.5875
2969.01186	1305.5875
2971.45984	1307.2875
2973.90632	1289.7875
2976.35131	1288.6875
2978.7948	1291.8875
2981.23681	1282.6875
2983.67732	1290.3875
2986.11635	1287.8875
2988.55388	1290.8875
2990.98993	1285.2875
2993.4245	1290.7875
2995.85758	1276.2875
2998.28917	1289.3875
3000.71928	1269.0875
3003.14791	1284.7875
3005.57506	1281.4875
3008.00073	1283.4875
3010.42493	1289.9875
3012.84764	1291.5875
3015.26888	1294.1875
3017.68865	1282.1875
3020.10694	1287.0875
3022.52376	1287.6875
3024.9391	1297.4875
3027.35298	1298.8875
3029.76539	1292.7875
3032.17632	1294.0875
3034.5858	1293.8875
3036.9938	1298.3875
3039.40034	1297.4875
3041.80542	1296.6875
3044.20903	1303.1875
3046.61118	1293.3875
3049.01187	1302.8875
3051.4111	1301.5875
3053.80888	1307.3875
3056.20519	1312.2875
3058.60005	1314.5875
3060.99345	1316.1875
3063.3854	1313.4875
3065.7759	1315.4875
3068.16494	1318.6875
3070.55254	1313.4875
3072.93868	1325.4875
3075.32338	1332.4875
3077.70662	1329.9875
3080.08842	1327.8875
3082.46878	1339.6875
3084.84769	1331.8875
3087.22515	1338.4875
3089.60118	1342.6875
3091.97576	1347.5875
3094.3489	1352.6875
3096.72061	1355.8875
3099.09087	1371.2875
3101.4597	1361.8875
3103.82709	1374.0875
3106.19305	1368.0875
3108.55757	1381.4875
3110.92066	1382.9875
3113.28232	1395.3875
3115.64255	1391.6875
3118.00134	1399.0875
3120.35871	1403.3875
3122.71466	1416.4875
3125.06917	1415.0875
3127.42226	1409.4875
3129.77393	1425.6875
3132.12417	1434.6875
3134.47299	1445.4875
3136.82039	1450.3875
3139.16636	1460.6875
3141.51092	1473.1875
3143.85406	1483.6875
3146.19579	1493.8875
3148.53609	1501.4875
3150.87499	1498.1875
3153.21246	1516.4875
3155.54853	1526.5875
3157.88318	1537.7875
3160.21642	1544.8875
3162.54826	1552.1875
3164.87868	1548.2875
3167.2077	1565.4875
3169.5353	1574.5875
3171.86151	1579.1875
3174.18631	1588.8875
3176.5097	1593.3875
3178.83169	1590.7875
3181.15228	1602.0875
3183.47147	1604.0875
3185.78926	1612.3875
3188.10565	1624.0875
3190.42065	1625.7875
3192.73424	1636.7875
3195.04645	1648.2875
3197.35725	1649.3875
3199.66667	1646.2875
3201.97469	1669.4875
3204.28132	1675.2875
3206.58656	1683.6875
3208.8904	1692.2875
3211.19287	1697.4875
3213.49394	1691.7875
3215.79363	1716.6875
3218.09193	1712.0875
3220.38884	1726.6875
3222.68438	1730.7875
3224.97853	1714.8875
3227.2713	1721.7875
3229.56269	1729.1875
3231.8527	1728.6875
3234.14133	1721.0875
3236.42858	1725.5875
3238.71446	1720.5875
3240.99896	1727.8875
3243.28209	1732.8875
3245.56384	1728.2875
3247.84423	1735.1875
3250.12324	1740.2875
3252.40088	1731.9875
3254.67715	1735.1875
3256.95205	1741.5875
3259.22558	1742.5875
3261.49775	1733.2875
3263.76855	1735.3875
3266.03799	1732.1875
3268.30606	1736.1875
3270.57277	1728.8875
3272.83812	1733.2875
3275.10211	1731.4875
3277.36474	1733.8875
3279.62601	1734.8875
3281.88593	1732.6875
3284.14448	1738.3875
3286.40168	1730.0875
3288.65753	1733.8875
3290.91202	1738.8875
3293.16516	1734.7875
3295.41695	1716.3875
3297.66738	1724.6875
3299.91647	1701.2875
3302.16421	1702.6875
3304.4106	1697.5875
3306.65564	1687.7875
3308.89933	1673.9875
3311.14169	1671.9875
3313.38269	1660.0875
3315.62236	1652.6875
3317.86068	1636.2875
3320.09766	1622.3875
3322.3333	1609.8875
3324.5676	1615.5875
3326.80056	1596.4875
3329.03219	1579.5875
3331.26248	0.4875
3333.49143	0.2875
3335.71905	-1.6125
