Data from AgNPs_FTO_APTES_UA_0.1mM_CRN_1000uM_NaF_0.1M_Addition_RamanShift__24__15-42-07-829.txt Node

Date: Mon Dec 20 15:42:07 GMT 2021
User: TCL
Spectrometer: QEP01345
Trigger mode: 4
Integration Time (sec): 7.000000E0
Scans to average: 10
Electric dark correction enabled: true
Nonlinearity correction enabled: false
Boxcar width: 0
XAxis mode: Raman Shifts
Number of Pixels in Spectrum: 1044
>>>>>Begin Spectral Data<<<<<
46.04893	0.3875
50.45542	0.0875
54.85868	-1.2125
59.25871	0.8875
63.6555	20.8875
68.04907	23.8875
72.43941	26.0875
76.82654	23.5875
81.21044	23.8875
85.59113	31.6875
89.96862	29.8875
94.34289	29.0875
98.71396	29.7875
103.08183	29.4875
107.4465	32.7875
111.80798	35.3875
116.16626	35.8875
120.52136	34.0875
124.87327	35.1875
129.222	34.9875
133.56755	35.4875
137.90993	38.2875
142.24913	35.8875
146.58517	41.3875
150.91804	47.5875
155.24774	57.6875
159.57429	59.3875
163.89768	76.1875
168.21792	96.2875
172.53501	120.4875
176.84895	155.8875
181.15975	219.1875
185.46741	298.6875
189.77193	420.4875
194.07331	557.4875
198.37157	732.7875
202.6667	912.3875
206.9587	1089.2875
211.24758	1271.6875
215.53334	1452.4875
219.81599	1639.6875
224.09553	1820.7875
228.37195	2014.8875
232.64527	2212.6875
236.91549	2412.5875
241.18261	2615.4875
245.44663	2813.6875
249.70755	2951.8875
253.96539	3095.5875
258.22014	3201.7875
262.4718	3269.3875
266.72039	3311.0875
270.96589	3287.5875
275.20832	3280.3875
279.44768	3233.4875
283.68397	3184.8875
287.91719	3140.3875
292.14735	3094.1875
296.37445	3055.8875
300.59849	3044.4875
304.81948	3028.5875
309.03742	3018.4875
313.25231	2967.6875
317.46415	2953.3875
321.67296	2889.6875
325.87872	2868.2875
330.08145	2841.4875
334.28114	2847.5875
338.47781	2850.4875
342.67145	2873.0875
346.86207	2893.7875
351.04966	2945.0875
355.23424	2996.5875
359.4158	3029.1875
363.59435	3063.3875
367.76989	3093.5875
371.94243	3128.2875
376.11196	3157.2875
380.27849	3195.2875
384.44203	3233.2875
388.60257	3273.3875
392.76012	3302.6875
396.91468	3340.1875
401.06626	3367.4875
405.21485	3390.9875
409.36047	3377.4875
413.50311	3381.3875
417.64277	3336.5875
421.77947	3330.7875
425.9132	3349.3875
430.04396	3354.7875
434.17176	3361.7875
438.2966	3384.5875
442.41849	3396.8875
446.53742	3422.6875
450.6534	3463.1875
454.76644	3477.3875
458.87653	3496.7875
462.98368	3516.2875
467.08789	3507.8875
471.18916	3523.9875
475.2875	3541.4875
479.38291	3560.5875
483.4754	3621.3875
487.56496	3683.7875
491.6516	3768.4875
495.73531	3806.6875
499.81612	3785.3875
503.89401	3734.2875
507.96899	3673.7875
512.04106	3664.7875
516.11023	3646.1875
520.1765	3679.8875
524.23987	3720.2875
528.30034	3756.5875
532.35792	3763.6875
536.41261	3724.6875
540.46441	3664.2875
544.51333	3603.0875
548.55936	3536.1875
552.60252	3507.8875
556.64279	3503.3875
560.6802	3530.6875
564.71473	3534.1875
568.7464	3545.5875
572.7752	3582.7875
576.80114	3581.8875
580.82422	3619.7875
584.84444	3645.0875
588.86181	3706.6875
592.87633	3744.5875
596.888	3753.4875
600.89682	3746.2875
604.9028	3801.5875
608.90594	3943.2875
612.90624	4194.8875
616.90371	4276.1875
620.89834	4223.9875
624.89015	4378.9875
628.87913	4703.4875
632.86528	5032.7875
636.84862	5197.5875
640.82913	5127.0875
644.80683	4841.8875
648.78172	4470.6875
652.75379	4215.1875
656.72306	4053.4875
660.68952	3977.6875
664.65319	3930.0875
668.61405	3932.2875
672.57211	3956.9875
676.52738	3990.9875
680.47986	3995.4875
684.42955	4004.2875
688.37646	3968.3875
692.32058	3918.5875
696.26192	3891.7875
700.20048	3855.9875
704.13626	3809.9875
708.06928	3767.0875
711.99952	3722.7875
715.927	3679.9875
719.85171	3691.9875
723.77365	3701.7875
727.69284	3720.5875
731.60928	3683.9875
735.52295	3644.3875
739.43388	3586.0875
743.34206	3568.2875
747.24749	3577.8875
751.15017	3592.7875
755.05012	3602.4875
758.94733	3610.8875
762.8418	3650.3875
766.73354	3729.8875
770.62254	3813.9875
774.50882	3841.8875
778.39237	3799.6875
782.27321	3673.6875
786.15132	3611.0875
790.02671	3594.1875
793.89938	3594.8875
797.76935	3627.1875
801.6366	3714.2875
805.50115	3856.6875
809.36299	4033.9875
813.22213	4119.3875
817.07857	4049.7875
820.93231	3874.7875
824.78336	3675.8875
828.63172	3525.6875
832.47738	3433.4875
836.32036	3377.8875
840.16066	3369.9875
843.99827	3350.6875
847.8332	3335.5875
851.66546	3327.0875
855.49504	3332.6875
859.32195	3353.1875
863.1462	3379.9875
866.96777	3432.7875
870.78668	3480.4875
874.60293	3566.2875
878.41652	3659.1875
882.22745	3779.6875
886.03573	3855.4875
889.84136	3875.8875
893.64433	3777.3875
897.44466	3642.5875
901.24235	3479.7875
905.0374	3355.8875
908.8298	3275.7875
912.61957	3221.9875
916.40671	3215.2875
920.19121	3185.9875
923.97308	3201.2875
927.75233	3193.1875
931.52895	3198.2875
935.30295	3203.1875
939.07433	3177.4875
942.84309	3169.8875
946.60924	3153.0875
950.37278	3128.2875
954.13371	3136.8875
957.89203	3121.4875
961.64774	3104.7875
965.40086	3081.9875
969.15137	3071.2875
972.89929	3045.2875
976.64461	3047.9875
980.38733	3036.9875
984.12747	3031.9875
987.86502	3041.2875
991.59999	3064.2875
995.33237	3088.5875
999.06217	3112.7875
1002.78939	3171.3875
1006.51404	3243.0875
1010.23611	3316.4875
1013.95561	3363.9875
1017.67255	3376.0875
1021.38692	3343.3875
1025.09872	3307.4875
1028.80796	3235.1875
1032.51465	3179.5875
1036.21877	3120.1875
1039.92035	3079.1875
1043.61937	3083.7875
1047.31584	3090.3875
1051.00976	3090.8875
1054.70114	3110.5875
1058.38998	3133.5875
1062.07627	3163.4875
1065.76003	3184.1875
1069.44126	3209.4875
1073.11995	3247.9875
1076.79611	3252.4875
1080.46974	3216.1875
1084.14085	3173.4875
1087.80943	3109.5875
1091.47549	3076.6875
1095.13903	3030.5875
1098.80005	3002.8875
1102.45857	2996.8875
1106.11456	3004.8875
1109.76805	3018.4875
1113.41903	3070.6875
1117.06751	3155.9875
1120.71348	3288.5875
1124.35696	3495.6875
1127.99793	3763.2875
1131.63641	4066.6875
1135.2724	4264.7875
1138.90589	4314.2875
1142.5369	4209.8875
1146.16542	3962.6875
1149.79145	3692.7875
1153.415	3443.7875
1157.03607	3264.1875
1160.65467	3153.1875
1164.27079	3103.0875
1167.88443	3092.1875
1171.49561	3115.8875
1175.10432	3178.7875
1178.71056	3280.4875
1182.31434	3372.1875
1185.91565	3449.7875
1189.51451	3485.4875
1193.11091	3569.4875
1196.70485	3659.3875
1200.29634	3766.9875
1203.88538	3834.6875
1207.47197	3807.2875
1211.05612	3683.7875
1214.63782	3519.6875
1218.21708	3390.1875
1221.79391	3239.6875
1225.36829	3136.7875
1228.94024	3081.9875
1232.50976	3052.1875
1236.07685	3040.0875
1239.6415	3023.9875
1243.20374	3045.6875
1246.76355	3042.9875
1250.32093	3067.7875
1253.8759	3083.8875
1257.42845	3097.9875
1260.97859	3101.1875
1264.52631	3109.8875
1268.07163	3113.9875
1271.61453	3109.8875
1275.15503	3098.1875
1278.69312	3070.8875
1282.22882	3078.7875
1285.76211	3083.4875
1289.29301	3083.4875
1292.82151	3106.6875
1296.34761	3173.5875
1299.87133	3224.5875
1303.39266	3299.2875
1306.9116	3427.0875
1310.42815	3548.5875
1313.94233	3627.9875
1317.45412	3647.1875
1320.96354	3646.4875
1324.47058	3611.6875
1327.97525	3596.2875
1331.47754	3588.8875
1334.97747	3617.0875
1338.47502	3659.4875
1341.97022	3715.6875
1345.46305	3774.7875
1348.95352	3871.5875
1352.44163	3963.7875
1355.92738	4110.4875
1359.41078	4241.3875
1362.89183	4382.5875
1366.37053	4358.4875
1369.84688	4138.3875
1373.32088	3924.1875
1376.79254	3745.7875
1380.26186	3632.5875
1383.72883	3559.2875
1387.19347	3486.3875
1390.65578	3420.3875
1394.11575	3376.4875
1397.57339	3341.4875
1401.0287	3295.6875
1404.48168	3265.5875
1407.93234	3240.7875
1411.38068	3192.3875
1414.82669	3132.1875
1418.27039	3063.1875
1421.71177	2970.8875
1425.15083	2918.0875
1428.58758	2851.9875
1432.02203	2806.8875
1435.45416	2776.9875
1438.88399	2733.7875
1442.31151	2700.1875
1445.73673	2688.7875
1449.15965	2684.1875
1452.58027	2676.8875
1455.9986	2664.0875
1459.41463	2669.3875
1462.82837	2679.1875
1466.23982	2696.1875
1469.64898	2707.5875
1473.05586	2729.6875
1476.46045	2726.2875
1479.86276	2750.8875
1483.26279	2740.2875
1486.66054	2761.5875
1490.05602	2785.5875
1493.44922	2837.0875
1496.84016	2885.6875
1500.22882	2963.4875
1503.61521	3071.6875
1506.99934	3202.4875
1510.38121	3292.2875
1513.76081	3317.0875
1517.13816	3253.4875
1520.51324	3117.4875
1523.88607	2993.9875
1527.25665	2940.2875
1530.62498	2916.3875
1533.99105	2916.7875
1537.35488	2924.3875
1540.71647	2954.4875
1544.07581	2985.6875
1547.4329	3001.8875
1550.78776	3031.4875
1554.14038	3049.0875
1557.49077	3064.0875
1560.83892	3063.4875
1564.18484	3078.9875
1567.52853	3086.9875
1570.86999	3113.7875
1574.20922	3137.2875
1577.54624	3166.4875
1580.88103	3165.9875
1584.2136	3139.9875
1587.54395	3124.1875
1590.87208	3100.1875
1594.19801	3110.7875
1597.52172	3152.6875
1600.84321	3197.9875
1604.16251	3193.3875
1607.47959	3189.3875
1610.79447	3170.5875
1614.10715	3142.7875
1617.41763	3131.7875
1620.7259	3105.1875
1624.03199	3077.5875
1627.33587	3071.6875
1630.63757	3059.0875
1633.93707	3070.8875
1637.23439	3100.6875
1640.52951	3172.8875
1643.82246	3247.9875
1647.11321	3352.9875
1650.40179	3450.3875
1653.68819	3464.1875
1656.97241	3380.1875
1660.25446	3269.3875
1663.53433	3192.7875
1666.81203	3130.1875
1670.08756	3092.4875
1673.36092	3055.9875
1676.63211	3040.3875
1679.90115	3011.5875
1683.16801	2982.5875
1686.43272	2946.3875
1689.69527	2898.4875
1692.95567	2855.8875
1696.2139	2798.6875
1699.46999	2733.8875
1702.72392	2634.3875
1705.97571	2559.3875
1709.22535	2471.2875
1712.47284	2411.0875
1715.71819	2366.5875
1718.96139	2326.3875
1722.20246	2294.0875
1725.44139	2270.8875
1728.67818	2261.6875
1731.91284	2235.3875
1735.14537	2210.5875
1738.37576	2187.6875
1741.60403	2178.9875
1744.83017	2167.1875
1748.05418	2174.1875
1751.27607	2181.7875
1754.49584	2181.8875
1757.71349	2182.1875
1760.92903	2172.5875
1764.14244	2158.7875
1767.35375	2129.0875
1770.56294	2108.8875
1773.77002	2079.3875
1776.97499	2041.3875
1780.17785	2017.4875
1783.37861	1979.9875
1786.57727	1965.9875
1789.77382	1941.6875
1792.96828	1918.7875
1796.16064	1906.6875
1799.3509	1891.5875
1802.53907	1885.4875
1805.72514	1880.8875
1808.90913	1871.1875
1812.09102	1862.8875
1815.27083	1853.9875
1818.44856	1842.0875
1821.6242	1853.9875
1824.79776	1873.6875
1827.96924	1837.0875
1831.13864	1832.0875
1834.30597	1821.6875
1837.47122	1823.4875
1840.6344	1811.8875
1843.7955	1802.3875
1846.95454	1811.2875
1850.11151	1799.8875
1853.26642	1791.4875
1856.41926	1791.1875
1859.57004	1784.7875
1862.71876	1798.2875
1865.86542	1779.7875
1869.01003	1766.5875
1872.15258	1767.8875
1875.29308	1777.9875
1878.43152	1764.1875
1881.56792	1754.7875
1884.70227	1753.3875
1887.83457	1744.2875
1890.96482	1745.1875
1894.09304	1745.8875
1897.21921	1737.6875
1900.34335	1738.3875
1903.46544	1724.7875
1906.58551	1735.6875
1909.70353	1721.6875
1912.81953	1726.2875
1915.93349	1722.7875
1919.04543	1713.9875
1922.15534	1702.5875
1925.26322	1700.5875
1928.36908	1692.5875
1931.47292	1693.5875
1934.57473	1693.3875
1937.67453	1677.4875
1940.77232	1668.3875
1943.86808	1673.8875
1946.96184	1656.8875
1950.05358	1652.7875
1953.14331	1643.5875
1956.23103	1638.7875
1959.31675	1641.7875
1962.40046	1633.8875
1965.48217	1634.8875
1968.56188	1625.9875
1971.63959	1616.6875
1974.7153	1614.2875
1977.78901	1600.6875
1980.86073	1593.3875
1983.93046	1587.9875
1986.99819	1573.1875
1990.06394	1578.8875
1993.1277	1568.6875
1996.18947	1559.6875
1999.24925	1552.2875
2002.30706	1553.8875
2005.36288	1545.3875
2008.41672	1539.4875
2011.46859	1540.0875
2014.51848	1530.9875
2017.56639	1521.8875
2020.61233	1514.5875
2023.6563	1510.1875
2026.6983	1514.2875
2029.73833	1505.4875
2032.7764	1500.0875
2035.8125	1499.4875
2038.84664	1491.7875
2041.87881	1479.9875
2044.90903	1479.7875
2047.93729	1480.0875
2050.96359	1481.1875
2053.98794	1476.0875
2057.01034	1470.8875
2060.03078	1461.1875
2063.04927	1462.7875
2066.06582	1468.5875
2069.08042	1455.6875
2072.09307	1462.8875
2075.10378	1461.1875
2078.11255	1452.9875
2081.11938	1456.0875
2084.12426	1444.0875
2087.12722	1444.0875
2090.12824	1455.5875
2093.12732	1443.0875
2096.12447	1448.5875
2099.11969	1443.3875
2102.11299	1442.2875
2105.10435	1437.8875
2108.09379	1443.7875
2111.08131	1437.2875
2114.0669	1436.5875
2117.05057	1446.3875
2120.03233	1439.6875
2123.01216	1440.6875
2125.99008	1438.3875
2128.96609	1441.0875
2131.94018	1438.7875
2134.91236	1434.8875
2137.88263	1441.7875
2140.851	1437.4875
2143.81746	1430.8875
2146.78201	1434.5875
2149.74466	1437.1875
2152.7054	1432.1875
2155.66425	1434.1875
2158.6212	1432.6875
2161.57625	1427.3875
2164.52941	1426.4875
2167.48067	1426.5875
2170.43004	1423.1875
2173.37752	1421.0875
2176.32311	1424.7875
2179.26681	1417.0875
2182.20863	1424.2875
2185.14856	1417.5875
2188.08661	1414.7875
2191.02278	1415.8875
2193.95707	1407.4875
2196.88948	1401.6875
2199.82001	1399.7875
2202.74867	1400.8875
2205.67545	1400.9875
2208.60037	1396.8875
2211.52341	1385.5875
2214.44458	1378.2875
2217.36388	1378.1875
2220.28132	1376.3875
2223.1969	1369.5875
2226.11061	1369.9875
2229.02246	1365.4875
2231.93245	1365.7875
2234.84058	1352.0875
2237.74686	1352.0875
2240.65128	1356.4875
2243.55385	1360.4875
2246.45456	1348.5875
2249.35343	1342.7875
2252.25044	1344.5875
2255.14561	1331.3875
2258.03893	1342.7875
2260.93041	1349.6875
2263.82004	1330.6875
2266.70783	1329.4875
2269.59378	1318.4875
2272.4779	1314.3875
2275.36017	1311.0875
2278.24061	1302.0875
2281.11922	1300.6875
2283.996	1303.2875
2286.87094	1294.8875
2289.74405	1290.6875
2292.61534	1282.1875
2295.4848	1288.5875
2298.35243	1284.1875
2301.21824	1283.4875
2304.08223	1283.9875
2306.94439	1282.9875
2309.80474	1273.2875
2312.66327	1279.2875
2315.51999	1271.2875
2318.37489	1271.2875
2321.22797	1262.0875
2324.07925	1256.9875
2326.92871	1260.6875
2329.77637	1256.7875
2332.62222	1253.4875
2335.46626	1251.9875
2338.3085	1248.9875
2341.14893	1243.5875
2343.98756	1247.0875
2346.8244	1239.8875
2349.65943	1230.6875
2352.49267	1244.2875
2355.32411	1229.4875
2358.15376	1236.0875
2360.98161	1227.6875
2363.80768	1224.2875
2366.63195	1219.6875
2369.45444	1220.6875
2372.27514	1230.5875
2375.09405	1219.7875
2377.91118	1217.1875
2380.72652	1213.9875
2383.54009	1210.9875
2386.35187	1209.8875
2389.16188	1211.3875
2391.97011	1208.8875
2394.77657	1198.8875
2397.58125	1204.3875
2400.38416	1197.2875
2403.18529	1189.1875
2405.98466	1189.7875
2408.78226	1188.0875
2411.57809	1186.7875
2414.37216	1175.7875
2417.16446	1182.2875
2419.955	1176.9875
2422.74378	1173.8875
2425.5308	1167.0875
2428.31606	1163.4875
2431.09956	1165.3875
2433.88131	1167.7875
2436.6613	1161.8875
2439.43954	1157.3875
2442.21603	1154.0875
2444.99077	1145.8875
2447.76377	1148.3875
2450.53501	1151.1875
2453.30451	1148.0875
2456.07226	1145.7875
2458.83827	1142.7875
2461.60254	1142.7875
2464.36507	1137.5875
2467.12586	1122.8875
2469.88492	1131.6875
2472.64224	1124.1875
2475.39782	1137.3875
2478.15167	1138.5875
2480.90379	1128.2875
2483.65417	1130.0875
2486.40283	1129.0875
2489.14976	1127.2875
2491.89497	1125.2875
2494.63845	1130.0875
2497.3802	1124.6875
2500.12024	1119.6875
2502.85855	1116.5875
2505.59514	1109.8875
2508.33002	1112.0875
2511.06318	1105.8875
2513.79462	1106.1875
2516.52435	1104.5875
2519.25237	1094.2875
2521.97867	1093.0875
2524.70327	1097.6875
2527.42616	1092.9875
2530.14734	1093.6875
2532.86681	1084.5875
2535.58458	1084.5875
2538.30065	1083.2875
2541.01501	1077.4875
2543.72768	1077.3875
2546.43864	1078.1875
2549.14791	1076.2875
2551.85548	1072.1875
2554.56136	1068.6875
2557.26554	1062.7875
2559.96803	1047.2875
2562.66883	1066.4875
2565.36794	1055.1875
2568.06536	1052.2875
2570.7611	1053.7875
2573.45514	1048.3875
2576.14751	1050.5875
2578.83819	1045.1875
2581.52719	1038.0875
2584.21451	1034.3875
2586.90015	1036.2875
2589.58411	1036.5875
2592.2664	1026.4875
2594.94701	1028.7875
2597.62594	1022.8875
2600.30321	1016.7875
2602.9788	1018.8875
2605.65273	1018.8875
2608.32498	1013.2875
2610.99557	1016.3875
2613.66449	1014.4875
2616.33175	1010.3875
2618.99734	1002.7875
2621.66128	1008.7875
2624.32355	1012.8875
2626.98416	1005.6875
2629.64311	1006.9875
2632.30041	999.9875
2634.95605	1003.5875
2637.61004	993.0875
2640.26238	999.0875
2642.91306	992.5875
2645.56209	998.7875
2648.20948	993.9875
2650.85521	996.3875
2653.4993	989.1875
2656.14175	989.9875
2658.78255	986.7875
2661.42171	983.1875
2664.05923	978.7875
2666.6951	986.6875
2669.32934	987.1875
2671.96194	981.5875
2674.59291	983.1875
2677.22224	984.7875
2679.84993	984.6875
2682.476	980.4875
2685.10043	978.7875
2687.72324	980.6875
2690.34441	975.1875
2692.96396	974.9875
2695.58188	981.7875
2698.19818	975.3875
2700.81285	987.2875
2703.4259	996.5875
2706.03733	1025.1875
2708.64714	994.2875
2711.25533	992.4875
2713.86191	981.6875
2716.46687	992.0875
2719.07021	989.4875
2721.67194	975.1875
2724.27206	976.2875
2726.87057	976.5875
2729.46747	976.1875
2732.06276	977.7875
2734.65644	967.1875
2737.24852	973.0875
2739.83899	968.8875
2742.42786	965.4875
2745.01513	957.5875
2747.60079	960.9875
2750.18486	961.2875
2752.76733	954.1875
2755.3482	951.9875
2757.92747	958.2875
2760.50515	959.2875
2763.08123	956.3875
2765.65573	942.8875
2768.22863	958.7875
2770.79994	944.1875
2773.36967	946.8875
2775.9378	947.6875
2778.50435	945.8875
2781.06932	943.1875
2783.6327	940.9875
2786.1945	941.6875
2788.75471	940.3875
2791.31335	937.1875
2793.87041	933.4875
2796.42589	929.2875
2798.97979	928.3875
2801.53212	931.5875
2804.08288	933.8875
2806.63206	930.0875
2809.17967	926.2875
2811.72571	927.9875
2814.27018	923.8875
2816.81308	922.9875
2819.35442	924.6875
2821.89419	923.6875
2824.43239	921.8875
2826.96904	923.3875
2829.50412	917.4875
2832.03763	918.2875
2834.56959	922.6875
2837.1	918.4875
2839.62884	919.1875
2842.15613	918.0875
2844.68186	915.7875
2847.20604	919.3875
2849.72867	913.0875
2852.24974	918.5875
2854.76927	919.7875
2857.28724	928.1875
2859.80367	920.0875
2862.31855	916.9875
2864.83189	914.7875
2867.34368	913.8875
2869.85393	912.0875
2872.36264	908.8875
2874.8698	916.3875
2877.37543	917.2875
2879.87952	923.4875
2882.38207	922.6875
2884.88308	931.4875
2887.38256	928.0875
2889.88051	923.9875
2892.37692	929.2875
2894.8718	933.9875
2897.36515	941.2875
2899.85698	943.3875
2902.34727	948.1875
2904.83604	950.2875
2907.32328	951.5875
2909.809	959.8875
2912.29319	958.6875
2914.77587	959.1875
2917.25702	962.6875
2919.73665	968.0875
2922.21476	973.8875
2924.69136	976.1875
2927.16644	982.8875
2929.64	971.2875
2932.11205	976.0875
2934.58258	979.7875
2937.05161	973.6875
2939.51912	978.2875
2941.98513	984.7875
2944.44962	979.4875
2946.91261	975.3875
2949.37409	992.0875
2951.83407	974.8875
2954.29254	973.8875
2956.74951	974.8875
2959.20498	969.2875
2961.65895	960.9875
2964.11142	962.4875
2966.56239	954.6875
2969.01186	960.4875
2971.45984	942.0875
2973.90632	938.4875
2976.35131	939.2875
2978.7948	938.4875
2981.23681	930.2875
2983.67732	924.5875
2986.11635	927.5875
2988.55388	927.2875
2990.98993	919.3875
2993.4245	917.9875
2995.85758	922.0875
2998.28917	916.7875
3000.71928	915.5875
3003.14791	915.7875
3005.57506	923.4875
3008.00073	923.7875
3010.42493	924.0875
3012.84764	924.4875
3015.26888	924.3875
3017.68865	922.2875
3020.10694	920.2875
3022.52376	923.7875
3024.9391	928.6875
3027.35298	928.0875
3029.76539	924.4875
3032.17632	925.9875
3034.5858	922.9875
3036.9938	921.5875
3039.40034	923.8875
3041.80542	928.4875
3044.20903	925.4875
3046.61118	927.0875
3049.01187	924.2875
3051.4111	923.6875
3053.80888	930.4875
3056.20519	931.1875
3058.60005	921.0875
3060.99345	931.8875
3063.3854	932.5875
3065.7759	932.3875
3068.16494	930.9875
3070.55254	931.4875
3072.93868	937.7875
3075.32338	939.7875
3077.70662	937.6875
3080.08842	947.7875
3082.46878	946.2875
3084.84769	951.8875
3087.22515	953.5875
3089.60118	956.8875
3091.97576	965.6875
3094.3489	968.3875
3096.72061	965.9875
3099.09087	976.5875
3101.4597	978.3875
3103.82709	972.9875
3106.19305	985.1875
3108.55757	989.7875
3110.92066	984.1875
3113.28232	996.1875
3115.64255	996.5875
3118.00134	1003.6875
3120.35871	1010.6875
3122.71466	1010.7875
3125.06917	1009.7875
3127.42226	1012.6875
3129.77393	1022.2875
3132.12417	1023.3875
3134.47299	1034.6875
3136.82039	1035.4875
3139.16636	1039.9875
3141.51092	1052.3875
3143.85406	1062.7875
3146.19579	1069.1875
3148.53609	1068.6875
3150.87499	1072.2875
3153.21246	1085.6875
3155.54853	1094.4875
3157.88318	1097.6875
3160.21642	1097.8875
3162.54826	1108.6875
3164.87868	1111.0875
3167.2077	1117.3875
3169.5353	1126.0875
3171.86151	1123.6875
3174.18631	1136.4875
3176.5097	1136.7875
3178.83169	1142.8875
3181.15228	1142.7875
3183.47147	1156.4875
3185.78926	1155.4875
3188.10565	1159.5875
3190.42065	1166.6875
3192.73424	1169.0875
3195.04645	1173.3875
3197.35725	1174.1875
3199.66667	1180.3875
3201.97469	1184.7875
3204.28132	1192.9875
3206.58656	1206.7875
3208.8904	1201.4875
3211.19287	1207.6875
3213.49394	1210.2875
3215.79363	1217.0875
3218.09193	1224.0875
3220.38884	1229.6875
3222.68438	1245.2875
3224.97853	1237.1875
3227.2713	1228.8875
3229.56269	1231.1875
3231.8527	1234.9875
3234.14133	1236.6875
3236.42858	1232.6875
3238.71446	1227.1875
3240.99896	1222.8875
3243.28209	1235.6875
3245.56384	1229.2875
3247.84423	1233.0875
3250.12324	1230.8875
3252.40088	1237.8875
3254.67715	1241.4875
3256.95205	1226.5875
3259.22558	1234.1875
3261.49775	1229.6875
3263.76855	1234.4875
3266.03799	1236.7875
3268.30606	1233.2875
3270.57277	1224.2875
3272.83812	1240.0875
3275.10211	1223.1875
3277.36474	1229.0875
3279.62601	1231.9875
3281.88593	1220.0875
3284.14448	1231.4875
3286.40168	1237.6875
3288.65753	1220.1875
3290.91202	1225.3875
3293.16516	1222.1875
3295.41695	1224.9875
3297.66738	1207.5875
3299.91647	1203.6875
3302.16421	1201.0875
3304.4106	1193.3875
3306.65564	1196.4875
3308.89933	1189.6875
3311.14169	1188.9875
3313.38269	1181.9875
3315.62236	1172.7875
3317.86068	1161.8875
3320.09766	1158.2875
3322.3333	1148.6875
3324.5676	1163.2875
3326.80056	1143.8875
3329.03219	1134.3875
3331.26248	0.1875
3333.49143	0.1875
3335.71905	-0.5125
