Data from AgNPs_FTO_APTES_UA_0.1mM_CRN_10uM_NaF_0.1M_Addition_RamanShift__1__11-19-37-533.txt Node

Date: Mon Dec 20 11:19:37 GMT 2021
User: TCL
Spectrometer: QEP01345
Trigger mode: 4
Integration Time (sec): 7.000000E0
Scans to average: 10
Electric dark correction enabled: true
Nonlinearity correction enabled: false
Boxcar width: 0
XAxis mode: Raman Shifts
Number of Pixels in Spectrum: 1044
>>>>>Begin Spectral Data<<<<<
46.04893	0.525
50.45542	-0.175
54.85868	-2.375
59.25871	1.825
63.6555	29.025
68.04907	28.725
72.43941	33.425
76.82654	36.125
81.21044	34.225
85.59113	40.025
89.96862	36.525
94.34289	40.625
98.71396	39.525
103.08183	40.425
107.4465	41.225
111.80798	46.425
116.16626	45.825
120.52136	46.925
124.87327	46.925
129.222	46.725
133.56755	47.525
137.90993	54.625
142.24913	57.325
146.58517	59.225
150.91804	68.525
155.24774	74.725
159.57429	91.425
163.89768	119.925
168.21792	151.525
172.53501	196.925
176.84895	266.325
181.15975	369.125
185.46741	503.525
189.77193	694.325
194.07331	933.725
198.37157	1199.525
202.6667	1475.025
206.9587	1763.725
211.24758	2033.625
215.53334	2321.125
219.81599	2633.125
224.09553	2961.225
228.37195	3329.025
232.64527	3745.125
236.91549	4154.025
241.18261	4555.325
245.44663	4928.925
249.70755	5207.625
253.96539	5440.425
258.22014	5620.125
262.4718	5753.225
266.72039	5834.325
270.96589	5857.925
275.20832	5832.225
279.44768	5749.225
283.68397	5659.425
287.91719	5591.125
292.14735	5517.225
296.37445	5492.225
300.59849	5512.625
304.81948	5509.825
309.03742	5515.825
313.25231	5487.525
317.46415	5418.725
321.67296	5295.825
325.87872	5187.225
330.08145	5102.025
334.28114	5091.925
338.47781	5096.425
342.67145	5141.325
346.86207	5206.725
351.04966	5276.825
355.23424	5374.625
359.4158	5462.725
363.59435	5522.125
367.76989	5572.125
371.94243	5616.925
376.11196	5682.825
380.27849	5732.825
384.44203	5766.825
388.60257	5818.425
392.76012	5860.525
396.91468	5913.525
401.06626	5968.525
405.21485	6030.925
409.36047	6041.025
413.50311	5966.125
417.64277	5881.825
421.77947	5884.225
425.9132	5863.325
430.04396	5875.725
434.17176	5907.225
438.2966	5951.525
442.41849	6009.625
446.53742	6105.625
450.6534	6224.625
454.76644	6275.625
458.87653	6297.825
462.98368	6282.625
467.08789	6265.325
471.18916	6243.025
475.2875	6214.025
479.38291	6233.025
483.4754	6292.525
487.56496	6403.525
491.6516	6525.225
495.73531	6617.625
499.81612	6648.325
503.89401	6627.325
507.96899	6548.525
512.04106	6480.725
516.11023	6419.625
520.1765	6394.725
524.23987	6419.725
528.30034	6433.325
532.35792	6417.225
536.41261	6377.625
540.46441	6292.125
544.51333	6208.725
548.55936	6153.425
552.60252	6171.025
556.64279	6207.025
560.6802	6233.325
564.71473	6267.025
568.7464	6304.925
572.7752	6384.425
576.80114	6410.525
580.82422	6500.025
584.84444	6643.725
588.86181	6856.625
592.87633	7020.425
596.888	7075.725
600.89682	6954.125
604.9028	6933.425
608.90594	7358.525
612.90624	7986.625
616.90371	7911.125
620.89834	7200.825
624.89015	7043.625
628.87913	7406.725
632.86528	7873.425
636.84862	8213.725
640.82913	8195.225
644.80683	7880.325
648.78172	7480.925
652.75379	7119.825
656.72306	6891.925
660.68952	6738.225
664.65319	6565.825
668.61405	6400.525
672.57211	6345.325
676.52738	6345.825
680.47986	6353.125
684.42955	6368.125
688.37646	6345.825
692.32058	6311.025
696.26192	6248.025
700.20048	6239.225
704.13626	6221.225
708.06928	6185.725
711.99952	6169.625
715.927	6181.025
719.85171	6224.125
723.77365	6295.425
727.69284	6305.625
731.60928	6250.525
735.52295	6160.725
739.43388	6114.625
743.34206	6122.325
747.24749	6145.225
751.15017	6165.925
755.05012	6197.925
758.94733	6277.725
762.8418	6471.425
766.73354	6776.725
770.62254	7134.225
774.50882	7251.025
778.39237	7065.225
782.27321	6675.525
786.15132	6360.125
790.02671	6165.025
793.89938	6087.825
797.76935	6109.025
801.6366	6143.525
805.50115	6292.825
809.36299	6492.525
813.22213	6588.325
817.07857	6540.025
820.93231	6388.025
824.78336	6168.125
828.63172	6023.425
832.47738	5931.125
836.32036	5897.725
840.16066	5880.425
843.99827	5888.625
847.8332	5848.725
851.66546	5853.025
855.49504	5847.525
859.32195	5849.525
863.1462	5875.725
866.96777	5907.325
870.78668	5981.325
874.60293	6082.825
878.41652	6224.925
882.22745	6320.225
886.03573	6455.725
889.84136	6504.425
893.64433	6419.225
897.44466	6276.625
901.24235	6065.425
905.0374	5943.925
908.8298	5829.425
912.61957	5767.425
916.40671	5749.725
920.19121	5767.125
923.97308	5760.925
927.75233	5775.025
931.52895	5754.225
935.30295	5725.525
939.07433	5640.525
942.84309	5600.725
946.60924	5539.925
950.37278	5548.725
954.13371	5522.425
957.89203	5504.825
961.64774	5496.225
965.40086	5476.025
969.15137	5480.025
972.89929	5466.025
976.64461	5465.025
980.38733	5455.625
984.12747	5443.625
987.86502	5466.025
991.59999	5485.525
995.33237	5558.025
999.06217	5620.825
1002.78939	5737.425
1006.51404	5817.325
1010.23611	5922.725
1013.95561	5979.925
1017.67255	6015.925
1021.38692	5979.225
1025.09872	5943.525
1028.80796	5864.025
1032.51465	5797.325
1036.21877	5767.525
1039.92035	5760.925
1043.61937	5709.525
1047.31584	5685.825
1051.00976	5661.825
1054.70114	5671.125
1058.38998	5691.125
1062.07627	5733.525
1065.76003	5792.725
1069.44126	5871.125
1073.11995	5934.425
1076.79611	6007.525
1080.46974	6033.325
1084.14085	6032.325
1087.80943	5996.725
1091.47549	5985.425
1095.13903	5943.725
1098.80005	5896.025
1102.45857	5812.925
1106.11456	5786.425
1109.76805	5806.325
1113.41903	5933.725
1117.06751	6128.325
1120.71348	6449.825
1124.35696	6866.825
1127.99793	7348.125
1131.63641	7751.125
1135.2724	7917.925
1138.90589	7863.325
1142.5369	7579.925
1146.16542	7246.425
1149.79145	6899.525
1153.415	6549.225
1157.03607	6297.225
1160.65467	6195.425
1164.27079	6197.025
1167.88443	6275.625
1171.49561	6430.425
1175.10432	6745.725
1178.71056	7117.825
1182.31434	7454.525
1185.91565	7642.625
1189.51451	7603.225
1193.11091	7527.325
1196.70485	7451.925
1200.29634	7441.625
1203.88538	7410.525
1207.47197	7315.525
1211.05612	7190.725
1214.63782	7025.125
1218.21708	6838.525
1221.79391	6697.825
1225.36829	6567.425
1228.94024	6484.325
1232.50976	6378.525
1236.07685	6285.525
1239.6415	6246.725
1243.20374	6236.625
1246.76355	6264.225
1250.32093	6346.825
1253.8759	6404.125
1257.42845	6519.525
1260.97859	6638.925
1264.52631	6746.925
1268.07163	6823.125
1271.61453	6902.625
1275.15503	6956.925
1278.69312	7043.425
1282.22882	7078.725
1285.76211	7192.625
1289.29301	7358.025
1292.82151	7543.125
1296.34761	7769.625
1299.87133	8053.025
1303.39266	8375.225
1306.9116	8771.025
1310.42815	9166.025
1313.94233	9396.425
1317.45412	9360.525
1320.96354	9172.225
1324.47058	8929.825
1327.97525	8680.325
1331.47754	8531.925
1334.97747	8419.125
1338.47502	8372.925
1341.97022	8380.125
1345.46305	8439.125
1348.95352	8591.625
1352.44163	8870.825
1355.92738	9304.525
1359.41078	9900.825
1362.89183	10461.525
1366.37053	10487.125
1369.84688	9788.425
1373.32088	8883.125
1376.79254	8264.225
1380.26186	7971.825
1383.72883	7816.625
1387.19347	7689.725
1390.65578	7519.725
1394.11575	7403.225
1397.57339	7308.125
1401.0287	7271.025
1404.48168	7241.925
1407.93234	7157.925
1411.38068	7007.625
1414.82669	6828.425
1418.27039	6647.425
1421.71177	6446.325
1425.15083	6308.425
1428.58758	6234.325
1432.02203	6205.525
1435.45416	6264.225
1438.88399	6343.825
1442.31151	6356.825
1445.73673	6407.325
1449.15965	6412.825
1452.58027	6442.425
1455.9986	6418.525
1459.41463	6406.525
1462.82837	6485.625
1466.23982	6534.025
1469.64898	6625.025
1473.05586	6690.925
1476.46045	6708.025
1479.86276	6742.625
1483.26279	6779.425
1486.66054	6839.325
1490.05602	6923.125
1493.44922	7064.525
1496.84016	7246.425
1500.22882	7530.725
1503.61521	7863.225
1506.99934	8237.425
1510.38121	8578.925
1513.76081	8700.825
1517.13816	8463.325
1520.51324	8026.825
1523.88607	7651.825
1527.25665	7427.125
1530.62498	7319.925
1533.99105	7301.425
1537.35488	7273.225
1540.71647	7235.425
1544.07581	7154.225
1547.4329	7130.625
1550.78776	7101.825
1554.14038	7067.925
1557.49077	7073.225
1560.83892	7099.125
1564.18484	7158.125
1567.52853	7209.525
1570.86999	7276.625
1574.20922	7324.825
1577.54624	7330.025
1580.88103	7264.825
1584.2136	7149.725
1587.54395	7120.325
1590.87208	7231.725
1594.19801	7435.025
1597.52172	7677.225
1600.84321	7779.025
1604.16251	7648.325
1607.47959	7379.025
1610.79447	7075.525
1614.10715	6807.525
1617.41763	6589.125
1620.7259	6509.325
1624.03199	6462.425
1627.33587	6506.625
1630.63757	6621.225
1633.93707	6836.125
1637.23439	7190.925
1640.52951	7697.325
1643.82246	8315.225
1647.11321	8885.025
1650.40179	9182.225
1653.68819	8901.025
1656.97241	8253.225
1660.25446	7546.125
1663.53433	6997.925
1666.81203	6677.025
1670.08756	6443.025
1673.36092	6307.125
1676.63211	6212.125
1679.90115	6142.425
1683.16801	6055.525
1686.43272	5977.625
1689.69527	5893.025
1692.95567	5771.325
1696.2139	5671.925
1699.46999	5591.525
1702.72392	5486.325
1705.97571	5362.425
1709.22535	5237.825
1712.47284	5115.025
1715.71819	5007.125
1718.96139	4922.525
1722.20246	4845.425
1725.44139	4791.725
1728.67818	4725.425
1731.91284	4671.025
1735.14537	4628.125
1738.37576	4586.925
1741.60403	4550.025
1744.83017	4532.725
1748.05418	4512.725
1751.27607	4491.125
1754.49584	4480.025
1757.71349	4466.625
1760.92903	4468.125
1764.14244	4467.425
1767.35375	4460.425
1770.56294	4447.625
1773.77002	4423.525
1776.97499	4396.825
1780.17785	4389.925
1783.37861	4367.825
1786.57727	4373.325
1789.77382	4348.425
1792.96828	4347.825
1796.16064	4340.825
1799.3509	4314.125
1802.53907	4307.925
1805.72514	4297.325
1808.90913	4279.425
1812.09102	4279.325
1815.27083	4258.625
1818.44856	4256.725
1821.6242	4245.225
1824.79776	4239.625
1827.96924	4235.225
1831.13864	4223.425
1834.30597	4218.825
1837.47122	4220.625
1840.6344	4203.325
1843.7955	4208.325
1846.95454	4212.925
1850.11151	4208.025
1853.26642	4189.125
1856.41926	4196.625
1859.57004	4190.825
1862.71876	4172.625
1865.86542	4185.125
1869.01003	4166.825
1872.15258	4178.525
1875.29308	4152.325
1878.43152	4145.425
1881.56792	4131.725
1884.70227	4137.625
1887.83457	4119.725
1890.96482	4133.225
1894.09304	4133.825
1897.21921	4108.225
1900.34335	4107.425
1903.46544	4095.625
1906.58551	4103.225
1909.70353	4082.725
1912.81953	4091.525
1915.93349	4083.625
1919.04543	4082.025
1922.15534	4055.425
1925.26322	4050.725
1928.36908	4038.025
1931.47292	4034.525
1934.57473	4018.025
1937.67453	4008.825
1940.77232	4012.325
1943.86808	3988.025
1946.96184	3962.225
1950.05358	3956.025
1953.14331	3958.725
1956.23103	3947.125
1959.31675	3945.325
1962.40046	3936.025
1965.48217	3929.425
1968.56188	3911.825
1971.63959	3890.925
1974.7153	3878.925
1977.78901	3866.425
1980.86073	3854.925
1983.93046	3844.725
1986.99819	3830.325
1990.06394	3832.725
1993.1277	3811.925
1996.18947	3804.325
1999.24925	3786.925
2002.30706	3785.925
2005.36288	3774.025
2008.41672	3759.125
2011.46859	3752.425
2014.51848	3739.625
2017.56639	3727.925
2020.61233	3732.725
2023.6563	3704.225
2026.6983	3689.025
2029.73833	3682.525
2032.7764	3659.225
2035.8125	3658.125
2038.84664	3662.025
2041.87881	3658.825
2044.90903	3643.625
2047.93729	3638.525
2050.96359	3622.725
2053.98794	3620.825
2057.01034	3624.725
2060.03078	3621.825
2063.04927	3613.825
2066.06582	3627.225
2069.08042	3611.525
2072.09307	3622.125
2075.10378	3601.225
2078.11255	3592.225
2081.11938	3603.525
2084.12426	3597.125
2087.12722	3597.525
2090.12824	3599.925
2093.12732	3597.025
2096.12447	3610.625
2099.11969	3589.625
2102.11299	3608.825
2105.10435	3600.925
2108.09379	3606.925
2111.08131	3616.925
2114.0669	3603.125
2117.05057	3616.825
2120.03233	3612.925
2123.01216	3603.725
2125.99008	3602.025
2128.96609	3602.825
2131.94018	3617.725
2134.91236	3614.125
2137.88263	3609.725
2140.851	3617.225
2143.81746	3621.025
2146.78201	3609.825
2149.74466	3611.025
2152.7054	3622.425
2155.66425	3623.225
2158.6212	3611.725
2161.57625	3608.225
2164.52941	3598.825
2167.48067	3591.825
2170.43004	3595.825
2173.37752	3587.925
2176.32311	3587.725
2179.26681	3598.725
2182.20863	3582.625
2185.14856	3599.225
2188.08661	3596.325
2191.02278	3597.525
2193.95707	3576.325
2196.88948	3582.925
2199.82001	3592.225
2202.74867	3573.025
2205.67545	3587.025
2208.60037	3562.525
2211.52341	3552.725
2214.44458	3547.925
2217.36388	3550.025
2220.28132	3541.625
2223.1969	3512.525
2226.11061	3524.725
2229.02246	3497.425
2231.93245	3496.025
2234.84058	3491.425
2237.74686	3483.825
2240.65128	3478.125
2243.55385	3488.925
2246.45456	3471.425
2249.35343	3472.725
2252.25044	3460.225
2255.14561	3451.325
2258.03893	3461.725
2260.93041	3452.925
2263.82004	3450.025
2266.70783	3435.625
2269.59378	3433.625
2272.4779	3411.525
2275.36017	3412.525
2278.24061	3401.925
2281.11922	3396.625
2283.996	3391.325
2286.87094	3392.625
2289.74405	3386.725
2292.61534	3361.225
2295.4848	3362.025
2298.35243	3358.125
2301.21824	3349.625
2304.08223	3348.125
2306.94439	3353.625
2309.80474	3365.025
2312.66327	3342.625
2315.51999	3341.725
2318.37489	3328.925
2321.22797	3325.025
2324.07925	3325.325
2326.92871	3323.025
2329.77637	3325.925
2332.62222	3309.625
2335.46626	3301.525
2338.3085	3303.925
2341.14893	3298.625
2343.98756	3282.825
2346.8244	3284.625
2349.65943	3286.625
2352.49267	3285.625
2355.32411	3288.725
2358.15376	3263.225
2360.98161	3278.025
2363.80768	3271.225
2366.63195	3276.825
2369.45444	3270.925
2372.27514	3269.925
2375.09405	3264.425
2377.91118	3254.725
2380.72652	3241.925
2383.54009	3244.425
2386.35187	3234.425
2389.16188	3232.925
2391.97011	3229.325
2394.77657	3206.725
2397.58125	3201.325
2400.38416	3205.225
2403.18529	3195.025
2405.98466	3189.125
2408.78226	3189.925
2411.57809	3170.425
2414.37216	3167.325
2417.16446	3187.525
2419.955	3159.825
2422.74378	3153.925
2425.5308	3149.725
2428.31606	3155.325
2431.09956	3138.625
2433.88131	3144.425
2436.6613	3137.325
2439.43954	3125.725
2442.21603	3133.425
2444.99077	3119.225
2447.76377	3141.725
2450.53501	3134.825
2453.30451	3127.825
2456.07226	3118.625
2458.83827	3110.325
2461.60254	3109.125
2464.36507	3109.425
2467.12586	3107.225
2469.88492	3107.025
2472.64224	3091.025
2475.39782	3109.425
2478.15167	3101.625
2480.90379	3094.425
2483.65417	3084.125
2486.40283	3088.325
2489.14976	3094.825
2491.89497	3093.425
2494.63845	3100.325
2497.3802	3083.125
2500.12024	3072.225
2502.85855	3073.025
2505.59514	3076.925
2508.33002	3072.925
2511.06318	3058.725
2513.79462	3061.325
2516.52435	3055.725
2519.25237	3051.125
2521.97867	3038.325
2524.70327	3032.725
2527.42616	3037.925
2530.14734	3046.025
2532.86681	3010.125
2535.58458	3013.225
2538.30065	3015.825
2541.01501	3005.325
2543.72768	2995.325
2546.43864	2996.125
2549.14791	2977.325
2551.85548	2981.925
2554.56136	2980.325
2557.26554	2983.625
2559.96803	2984.725
2562.66883	2972.725
2565.36794	2957.025
2568.06536	2970.325
2570.7611	2977.825
2573.45514	2948.125
2576.14751	2948.625
2578.83819	2940.325
2581.52719	2937.825
2584.21451	2928.325
2586.90015	2922.525
2589.58411	2930.825
2592.2664	2919.625
2594.94701	2916.725
2597.62594	2907.625
2600.30321	2896.225
2602.9788	2901.625
2605.65273	2890.125
2608.32498	2892.825
2610.99557	2888.625
2613.66449	2884.725
2616.33175	2883.025
2618.99734	2878.525
2621.66128	2877.225
2624.32355	2869.025
2626.98416	2865.625
2629.64311	2868.525
2632.30041	2857.925
2634.95605	2860.525
2637.61004	2852.925
2640.26238	2846.125
2642.91306	2845.325
2645.56209	2837.225
2648.20948	2846.225
2650.85521	2832.825
2653.4993	2828.525
2656.14175	2834.925
2658.78255	2840.625
2661.42171	2837.225
2664.05923	2831.425
2666.6951	2835.425
2669.32934	2836.225
2671.96194	2830.425
2674.59291	2836.425
2677.22224	2829.225
2679.84993	2850.825
2682.476	2843.425
2685.10043	2840.025
2687.72324	2817.925
2690.34441	2836.025
2692.96396	2831.525
2695.58188	2841.025
2698.19818	2835.625
2700.81285	2829.025
2703.4259	2840.725
2706.03733	2848.525
2708.64714	2844.325
2711.25533	2831.125
2713.86191	2827.925
2716.46687	2834.325
2719.07021	2840.825
2721.67194	2843.925
2724.27206	2838.025
2726.87057	2824.525
2729.46747	2838.525
2732.06276	2839.925
2734.65644	2822.425
2737.24852	2824.425
2739.83899	2824.825
2742.42786	2825.925
2745.01513	2818.225
2747.60079	2818.825
2750.18486	2806.425
2752.76733	2823.325
2755.3482	2807.725
2757.92747	2797.725
2760.50515	2805.025
2763.08123	2799.725
2765.65573	2792.325
2768.22863	2787.925
2770.79994	2784.625
2773.36967	2785.125
2775.9378	2776.125
2778.50435	2786.525
2781.06932	2771.725
2783.6327	2774.125
2786.1945	2768.925
2788.75471	2769.625
2791.31335	2764.525
2793.87041	2751.625
2796.42589	2744.025
2798.97979	2747.425
2801.53212	2738.725
2804.08288	2723.725
2806.63206	2724.025
2809.17967	2718.025
2811.72571	2710.925
2814.27018	2715.525
2816.81308	2707.925
2819.35442	2691.625
2821.89419	2698.625
2824.43239	2695.725
2826.96904	2697.025
2829.50412	2694.025
2832.03763	2680.325
2834.56959	2696.725
2837.1	2683.725
2839.62884	2681.525
2842.15613	2686.825
2844.68186	2690.125
2847.20604	2696.125
2849.72867	2674.025
2852.24974	2688.525
2854.76927	2697.425
2857.28724	2693.625
2859.80367	2695.425
2862.31855	2707.625
2864.83189	2700.025
2867.34368	2683.925
2869.85393	2686.825
2872.36264	2695.125
2874.8698	2702.525
2877.37543	2686.625
2879.87952	2700.625
2882.38207	2697.125
2884.88308	2707.125
2887.38256	2707.225
2889.88051	2702.925
2892.37692	2697.025
2894.8718	2691.425
2897.36515	2708.425
2899.85698	2701.525
2902.34727	2717.225
2904.83604	2710.325
2907.32328	2711.025
2909.809	2714.325
2912.29319	2702.925
2914.77587	2699.525
2917.25702	2713.825
2919.73665	2696.025
2922.21476	2708.825
2924.69136	2711.025
2927.16644	2711.225
2929.64	2707.825
2932.11205	2711.125
2934.58258	2705.725
2937.05161	2705.625
2939.51912	2695.825
2941.98513	2700.125
2944.44962	2702.425
2946.91261	2686.625
2949.37409	2696.825
2951.83407	2684.325
2954.29254	2681.425
2956.74951	2680.825
2959.20498	2675.325
2961.65895	2669.925
2964.11142	2668.025
2966.56239	2667.825
2969.01186	2666.725
2971.45984	2663.925
2973.90632	2645.525
2976.35131	2636.225
2978.7948	2643.425
2981.23681	2636.325
2983.67732	2636.425
2986.11635	2625.025
2988.55388	2618.425
2990.98993	2620.825
2993.4245	2614.925
2995.85758	2606.725
2998.28917	2596.625
3000.71928	2605.625
3003.14791	2612.925
3005.57506	2600.225
3008.00073	2599.725
3010.42493	2593.425
3012.84764	2600.225
3015.26888	2599.825
3017.68865	2597.725
3020.10694	2595.025
3022.52376	2596.425
3024.9391	2586.425
3027.35298	2588.425
3029.76539	2581.225
3032.17632	2583.725
3034.5858	2580.925
3036.9938	2574.425
3039.40034	2569.625
3041.80542	2584.125
3044.20903	2577.425
3046.61118	2585.225
3049.01187	2574.125
3051.4111	2578.325
3053.80888	2564.625
3056.20519	2585.125
3058.60005	2571.825
3060.99345	2578.925
3063.3854	2572.225
3065.7759	2569.525
3068.16494	2554.425
3070.55254	2568.925
3072.93868	2570.625
3075.32338	2571.325
3077.70662	2562.925
3080.08842	2560.525
3082.46878	2565.725
3084.84769	2569.425
3087.22515	2575.525
3089.60118	2588.425
3091.97576	2579.925
3094.3489	2579.425
3096.72061	2589.825
3099.09087	2592.025
3101.4597	2599.725
3103.82709	2607.825
3106.19305	2589.025
3108.55757	2605.825
3110.92066	2591.525
3113.28232	2603.025
3115.64255	2604.125
3118.00134	2599.925
3120.35871	2594.925
3122.71466	2609.325
3125.06917	2612.625
3127.42226	2609.625
3129.77393	2626.125
3132.12417	2621.525
3134.47299	2627.425
3136.82039	2626.425
3139.16636	2635.825
3141.51092	2644.925
3143.85406	2656.525
3146.19579	2660.025
3148.53609	2659.025
3150.87499	2661.425
3153.21246	2680.825
3155.54853	2681.225
3157.88318	2679.625
3160.21642	2697.225
3162.54826	2696.125
3164.87868	2696.525
3167.2077	2703.925
3169.5353	2705.325
3171.86151	2715.325
3174.18631	2718.325
3176.5097	2719.625
3178.83169	2711.625
3181.15228	2728.725
3183.47147	2722.125
3185.78926	2725.725
3188.10565	2720.625
3190.42065	2731.725
3192.73424	2742.925
3195.04645	2749.925
3197.35725	2740.925
3199.66667	2757.525
3201.97469	2755.225
3204.28132	2774.725
3206.58656	2776.825
3208.8904	2770.225
3211.19287	2775.225
3213.49394	2779.725
3215.79363	2783.425
3218.09193	2790.225
3220.38884	2799.925
3222.68438	2796.725
3224.97853	2796.925
3227.2713	2788.525
3229.56269	2781.725
3231.8527	2778.525
3234.14133	2773.225
3236.42858	2777.425
3238.71446	2777.425
3240.99896	2770.525
3243.28209	2781.225
3245.56384	2781.125
3247.84423	2783.725
3250.12324	2770.525
3252.40088	2762.225
3254.67715	2775.325
3256.95205	2765.125
3259.22558	2775.925
3261.49775	2759.125
3263.76855	2773.225
3266.03799	2747.725
3268.30606	2741.225
3270.57277	2754.225
3272.83812	2746.725
3275.10211	2733.625
3277.36474	2751.525
3279.62601	2735.725
3281.88593	2727.625
3284.14448	2751.925
3286.40168	2738.425
3288.65753	2730.125
3290.91202	2728.825
3293.16516	2722.225
3295.41695	2710.225
3297.66738	2692.325
3299.91647	2683.625
3302.16421	2664.325
3304.4106	2660.125
3306.65564	2657.225
3308.89933	2638.825
3311.14169	2621.625
3313.38269	2602.525
3315.62236	2591.225
3317.86068	2565.325
3320.09766	2540.925
3322.3333	2528.825
3324.5676	2544.625
3326.80056	2495.925
3329.03219	2488.125
3331.26248	0.625
3333.49143	0.125
3335.71905	-0.375
