Data from AgNPs_FTO_APTES_UA_0.1mM_CRN_0uM_NaF_0.1M_Addition_RamanShift__35__10-43-27-492.txt Node

Date: Mon Dec 20 10:43:27 GMT 2021
User: TCL
Spectrometer: QEP01345
Trigger mode: 4
Integration Time (sec): 7.000000E0
Scans to average: 10
Electric dark correction enabled: true
Nonlinearity correction enabled: false
Boxcar width: 0
XAxis mode: Raman Shifts
Number of Pixels in Spectrum: 1044
>>>>>Begin Spectral Data<<<<<
46.04893	0.9875
50.45542	-0.8125
54.85868	-1.1125
59.25871	1.8875
63.6555	27.1875
68.04907	27.8875
72.43941	32.1875
76.82654	32.0875
81.21044	31.2875
85.59113	35.4875
89.96862	32.9875
94.34289	39.0875
98.71396	37.8875
103.08183	36.4875
107.4465	41.6875
111.80798	41.8875
116.16626	40.2875
120.52136	44.7875
124.87327	44.9875
129.222	42.2875
133.56755	45.9875
137.90993	49.3875
142.24913	49.5875
146.58517	52.5875
150.91804	61.5875
155.24774	68.8875
159.57429	79.2875
163.89768	98.9875
168.21792	131.1875
172.53501	168.3875
176.84895	226.2875
181.15975	310.1875
185.46741	422.3875
189.77193	577.6875
194.07331	759.1875
198.37157	974.9875
202.6667	1201.8875
206.9587	1424.0875
211.24758	1647.3875
215.53334	1880.5875
219.81599	2133.3875
224.09553	2384.9875
228.37195	2680.7875
232.64527	3015.3875
236.91549	3341.0875
241.18261	3651.6875
245.44663	3940.9875
249.70755	4189.2875
253.96539	4369.2875
258.22014	4513.4875
262.4718	4616.7875
266.72039	4655.4875
270.96589	4658.3875
275.20832	4623.3875
279.44768	4537.1875
283.68397	4459.6875
287.91719	4403.9875
292.14735	4348.6875
296.37445	4314.5875
300.59849	4303.8875
304.81948	4336.8875
309.03742	4325.7875
313.25231	4319.9875
317.46415	4282.8875
321.67296	4217.1875
325.87872	4144.4875
330.08145	4113.8875
334.28114	4087.4875
338.47781	4073.9875
342.67145	4082.7875
346.86207	4089.6875
351.04966	4124.2875
355.23424	4158.7875
359.4158	4211.2875
363.59435	4240.0875
367.76989	4286.1875
371.94243	4337.0875
376.11196	4356.1875
380.27849	4400.2875
384.44203	4439.6875
388.60257	4505.4875
392.76012	4544.5875
396.91468	4575.4875
401.06626	4613.5875
405.21485	4651.4875
409.36047	4648.7875
413.50311	4630.0875
417.64277	4648.6875
421.77947	4682.9875
425.9132	4676.8875
430.04396	4729.1875
434.17176	4732.5875
438.2966	4762.8875
442.41849	4831.2875
446.53742	4930.0875
450.6534	5086.0875
454.76644	5116.7875
458.87653	5127.4875
462.98368	5078.5875
467.08789	5001.9875
471.18916	4975.3875
475.2875	4912.7875
479.38291	4926.1875
483.4754	4979.7875
487.56496	5087.5875
491.6516	5201.2875
495.73531	5318.1875
499.81612	5368.5875
503.89401	5380.6875
507.96899	5308.4875
512.04106	5195.4875
516.11023	5105.5875
520.1765	5028.2875
524.23987	5022.0875
528.30034	5034.3875
532.35792	5042.2875
536.41261	4968.4875
540.46441	4893.0875
544.51333	4795.8875
548.55936	4763.9875
552.60252	4786.9875
556.64279	4855.6875
560.6802	4903.5875
564.71473	4902.9875
568.7464	4916.6875
572.7752	4999.5875
576.80114	5095.6875
580.82422	5233.4875
584.84444	5499.0875
588.86181	5878.8875
592.87633	6201.8875
596.888	6276.9875
600.89682	5943.7875
604.9028	5687.3875
608.90594	5755.2875
612.90624	6018.5875
616.90371	5903.9875
620.89834	5518.4875
624.89015	5525.9875
628.87913	5876.2875
632.86528	6313.9875
636.84862	6640.2875
640.82913	6648.2875
644.80683	6433.9875
648.78172	6104.0875
652.75379	5769.1875
656.72306	5519.7875
660.68952	5301.5875
664.65319	5124.4875
668.61405	4983.3875
672.57211	4892.5875
676.52738	4917.7875
680.47986	4913.3875
684.42955	4901.1875
688.37646	4867.1875
692.32058	4828.8875
696.26192	4786.7875
700.20048	4772.6875
704.13626	4770.7875
708.06928	4751.3875
711.99952	4748.9875
715.927	4765.9875
719.85171	4828.3875
723.77365	4878.3875
727.69284	4880.0875
731.60928	4816.6875
735.52295	4749.2875
739.43388	4727.6875
743.34206	4731.3875
747.24749	4768.0875
751.15017	4778.0875
755.05012	4831.2875
758.94733	4905.4875
762.8418	5068.0875
766.73354	5264.1875
770.62254	5479.3875
774.50882	5511.4875
778.39237	5328.4875
782.27321	5034.0875
786.15132	4831.0875
790.02671	4735.6875
793.89938	4689.0875
797.76935	4695.7875
801.6366	4783.4875
805.50115	4924.5875
809.36299	5089.8875
813.22213	5176.2875
817.07857	5123.3875
820.93231	4939.1875
824.78336	4760.2875
828.63172	4596.9875
832.47738	4513.5875
836.32036	4473.9875
840.16066	4455.1875
843.99827	4441.3875
847.8332	4448.6875
851.66546	4452.8875
855.49504	4455.8875
859.32195	4456.5875
863.1462	4457.7875
866.96777	4491.3875
870.78668	4558.7875
874.60293	4640.5875
878.41652	4756.5875
882.22745	4897.5875
886.03573	4990.6875
889.84136	5037.1875
893.64433	4969.8875
897.44466	4863.5875
901.24235	4684.4875
905.0374	4555.7875
908.8298	4452.4875
912.61957	4401.3875
916.40671	4390.2875
920.19121	4398.5875
923.97308	4419.0875
927.75233	4416.3875
931.52895	4393.5875
935.30295	4325.2875
939.07433	4255.8875
942.84309	4215.2875
946.60924	4189.7875
950.37278	4164.6875
954.13371	4180.5875
957.89203	4167.6875
961.64774	4152.9875
965.40086	4167.7875
969.15137	4148.5875
972.89929	4116.8875
976.64461	4097.7875
980.38733	4096.7875
984.12747	4102.6875
987.86502	4116.6875
991.59999	4149.2875
995.33237	4196.2875
999.06217	4286.2875
1002.78939	4389.4875
1006.51404	4475.5875
1010.23611	4562.8875
1013.95561	4647.1875
1017.67255	4692.1875
1021.38692	4665.4875
1025.09872	4587.0875
1028.80796	4487.8875
1032.51465	4435.0875
1036.21877	4401.4875
1039.92035	4373.4875
1043.61937	4352.0875
1047.31584	4338.8875
1051.00976	4314.2875
1054.70114	4328.1875
1058.38998	4337.5875
1062.07627	4379.9875
1065.76003	4423.9875
1069.44126	4508.6875
1073.11995	4574.4875
1076.79611	4630.1875
1080.46974	4668.4875
1084.14085	4682.0875
1087.80943	4648.5875
1091.47549	4637.1875
1095.13903	4613.9875
1098.80005	4548.8875
1102.45857	4479.3875
1106.11456	4427.1875
1109.76805	4453.2875
1113.41903	4557.5875
1117.06751	4733.2875
1120.71348	5025.0875
1124.35696	5402.5875
1127.99793	5826.9875
1131.63641	6219.0875
1135.2724	6441.9875
1138.90589	6444.6875
1142.5369	6285.7875
1146.16542	5994.3875
1149.79145	5696.3875
1153.415	5368.1875
1157.03607	5143.5875
1160.65467	5015.4875
1164.27079	5034.7875
1167.88443	5121.0875
1171.49561	5260.6875
1175.10432	5514.8875
1178.71056	5850.0875
1182.31434	6196.0875
1185.91565	6351.1875
1189.51451	6256.8875
1193.11091	6144.8875
1196.70485	6149.3875
1200.29634	6161.9875
1203.88538	6167.0875
1207.47197	6181.1875
1211.05612	6105.5875
1214.63782	5979.6875
1218.21708	5819.5875
1221.79391	5649.9875
1225.36829	5548.0875
1228.94024	5446.5875
1232.50976	5310.0875
1236.07685	5170.5875
1239.6415	5105.3875
1243.20374	5068.2875
1246.76355	5087.9875
1250.32093	5155.6875
1253.8759	5250.2875
1257.42845	5351.8875
1260.97859	5454.7875
1264.52631	5559.8875
1268.07163	5629.7875
1271.61453	5691.7875
1275.15503	5772.0875
1278.69312	5868.1875
1282.22882	6023.1875
1285.76211	6217.0875
1289.29301	6489.5875
1292.82151	6773.3875
1296.34761	7095.1875
1299.87133	7496.3875
1303.39266	7879.5875
1306.9116	8245.9875
1310.42815	8565.1875
1313.94233	8721.1875
1317.45412	8656.3875
1320.96354	8410.1875
1324.47058	8132.1875
1327.97525	7882.5875
1331.47754	7705.6875
1334.97747	7619.2875
1338.47502	7498.7875
1341.97022	7393.3875
1345.46305	7317.6875
1348.95352	7379.0875
1352.44163	7642.3875
1355.92738	8140.3875
1359.41078	8721.3875
1362.89183	9226.9875
1366.37053	9266.5875
1369.84688	8749.0875
1373.32088	7880.2875
1376.79254	7236.9875
1380.26186	7022.6875
1383.72883	6969.6875
1387.19347	6849.8875
1390.65578	6698.3875
1394.11575	6632.1875
1397.57339	6633.5875
1401.0287	6689.6875
1404.48168	6687.5875
1407.93234	6588.1875
1411.38068	6382.3875
1414.82669	6149.4875
1418.27039	5875.0875
1421.71177	5634.8875
1425.15083	5436.2875
1428.58758	5357.2875
1432.02203	5398.8875
1435.45416	5506.4875
1438.88399	5604.2875
1442.31151	5682.7875
1445.73673	5714.1875
1449.15965	5751.0875
1452.58027	5728.3875
1455.9986	5673.4875
1459.41463	5635.8875
1462.82837	5692.9875
1466.23982	5791.4875
1469.64898	5901.1875
1473.05586	6003.7875
1476.46045	6034.8875
1479.86276	6043.0875
1483.26279	6033.1875
1486.66054	6047.4875
1490.05602	6072.2875
1493.44922	6138.4875
1496.84016	6194.6875
1500.22882	6277.9875
1503.61521	6407.0875
1506.99934	6536.9875
1510.38121	6688.6875
1513.76081	6722.5875
1517.13816	6627.0875
1520.51324	6471.9875
1523.88607	6377.1875
1527.25665	6352.6875
1530.62498	6397.9875
1533.99105	6448.5875
1537.35488	6413.1875
1540.71647	6346.2875
1544.07581	6264.5875
1547.4329	6147.1875
1550.78776	6074.6875
1554.14038	5978.5875
1557.49077	5931.4875
1560.83892	5918.2875
1564.18484	5920.2875
1567.52853	5930.4875
1570.86999	5986.5875
1574.20922	6069.1875
1577.54624	6117.1875
1580.88103	6109.8875
1584.2136	6105.5875
1587.54395	6232.9875
1590.87208	6503.3875
1594.19801	6830.1875
1597.52172	7146.6875
1600.84321	7296.7875
1604.16251	7085.1875
1607.47959	6638.2875
1610.79447	6169.2875
1614.10715	5788.9875
1617.41763	5535.4875
1620.7259	5437.1875
1624.03199	5397.1875
1627.33587	5442.5875
1630.63757	5596.8875
1633.93707	5847.1875
1637.23439	6239.9875
1640.52951	6870.9875
1643.82246	7664.2875
1647.11321	8307.3875
1650.40179	8415.4875
1653.68819	7915.6875
1656.97241	7060.6875
1660.25446	6301.0875
1663.53433	5762.0875
1666.81203	5442.1875
1670.08756	5234.4875
1673.36092	5096.9875
1676.63211	5013.4875
1679.90115	4939.5875
1683.16801	4895.6875
1686.43272	4796.4875
1689.69527	4712.0875
1692.95567	4602.4875
1696.2139	4508.7875
1699.46999	4401.7875
1702.72392	4316.2875
1705.97571	4199.7875
1709.22535	4058.1875
1712.47284	3947.5875
1715.71819	3865.4875
1718.96139	3778.3875
1722.20246	3708.2875
1725.44139	3659.7875
1728.67818	3603.0875
1731.91284	3548.1875
1735.14537	3511.4875
1738.37576	3485.9875
1741.60403	3461.2875
1744.83017	3433.8875
1748.05418	3422.5875
1751.27607	3403.0875
1754.49584	3384.4875
1757.71349	3383.1875
1760.92903	3377.7875
1764.14244	3363.4875
1767.35375	3360.1875
1770.56294	3353.3875
1773.77002	3340.9875
1776.97499	3324.0875
1780.17785	3321.4875
1783.37861	3317.4875
1786.57727	3304.3875
1789.77382	3293.7875
1792.96828	3283.1875
1796.16064	3282.0875
1799.3509	3268.5875
1802.53907	3262.5875
1805.72514	3258.4875
1808.90913	3222.5875
1812.09102	3238.8875
1815.27083	3229.5875
1818.44856	3214.9875
1821.6242	3205.5875
1824.79776	3202.4875
1827.96924	3207.1875
1831.13864	3178.4875
1834.30597	3192.0875
1837.47122	3198.1875
1840.6344	3182.9875
1843.7955	3167.1875
1846.95454	3180.6875
1850.11151	3170.6875
1853.26642	3170.3875
1856.41926	3162.6875
1859.57004	3158.1875
1862.71876	3168.0875
1865.86542	3159.2875
1869.01003	3140.3875
1872.15258	3142.9875
1875.29308	3118.8875
1878.43152	3126.7875
1881.56792	3135.7875
1884.70227	3135.4875
1887.83457	3138.3875
1890.96482	3120.1875
1894.09304	3116.1875
1897.21921	3102.8875
1900.34335	3109.8875
1903.46544	3112.9875
1906.58551	3107.3875
1909.70353	3084.3875
1912.81953	3100.4875
1915.93349	3074.0875
1919.04543	3077.8875
1922.15534	3069.8875
1925.26322	3066.7875
1928.36908	3058.4875
1931.47292	3044.0875
1934.57473	3040.7875
1937.67453	3025.9875
1940.77232	3020.1875
1943.86808	3031.0875
1946.96184	3015.2875
1950.05358	2996.0875
1953.14331	2992.5875
1956.23103	2977.9875
1959.31675	2996.9875
1962.40046	2981.6875
1965.48217	2959.6875
1968.56188	2946.9875
1971.63959	2934.8875
1974.7153	2929.5875
1977.78901	2933.9875
1980.86073	2907.0875
1983.93046	2896.3875
1986.99819	2899.0875
1990.06394	2891.9875
1993.1277	2882.3875
1996.18947	2880.4875
1999.24925	2874.5875
2002.30706	2853.6875
2005.36288	2855.8875
2008.41672	2840.4875
2011.46859	2837.0875
2014.51848	2810.7875
2017.56639	2814.1875
2020.61233	2807.9875
2023.6563	2799.2875
2026.6983	2793.0875
2029.73833	2775.4875
2032.7764	2779.6875
2035.8125	2775.9875
2038.84664	2767.3875
2041.87881	2763.0875
2044.90903	2761.0875
2047.93729	2764.3875
2050.96359	2750.1875
2053.98794	2740.8875
2057.01034	2751.6875
2060.03078	2747.0875
2063.04927	2738.4875
2066.06582	2746.8875
2069.08042	2746.7875
2072.09307	2746.9875
2075.10378	2741.8875
2078.11255	2728.5875
2081.11938	2718.6875
2084.12426	2727.9875
2087.12722	2741.8875
2090.12824	2730.5875
2093.12732	2734.7875
2096.12447	2732.5875
2099.11969	2729.5875
2102.11299	2731.7875
2105.10435	2733.8875
2108.09379	2734.8875
2111.08131	2739.6875
2114.0669	2729.4875
2117.05057	2741.4875
2120.03233	2736.9875
2123.01216	2725.0875
2125.99008	2739.3875
2128.96609	2742.1875
2131.94018	2741.6875
2134.91236	2736.0875
2137.88263	2740.7875
2140.851	2729.0875
2143.81746	2734.2875
2146.78201	2737.5875
2149.74466	2727.2875
2152.7054	2738.3875
2155.66425	2734.5875
2158.6212	2735.9875
2161.57625	2724.2875
2164.52941	2719.3875
2167.48067	2734.7875
2170.43004	2724.3875
2173.37752	2722.7875
2176.32311	2713.2875
2179.26681	2719.6875
2182.20863	2734.5875
2185.14856	2726.3875
2188.08661	2718.5875
2191.02278	2725.4875
2193.95707	2724.2875
2196.88948	2708.9875
2199.82001	2714.6875
2202.74867	2701.0875
2205.67545	2706.6875
2208.60037	2702.4875
2211.52341	2705.0875
2214.44458	2682.4875
2217.36388	2684.0875
2220.28132	2668.7875
2223.1969	2665.9875
2226.11061	2660.1875
2229.02246	2656.4875
2231.93245	2649.6875
2234.84058	2649.9875
2237.74686	2647.0875
2240.65128	2635.7875
2243.55385	2643.6875
2246.45456	2630.3875
2249.35343	2621.2875
2252.25044	2618.9875
2255.14561	2608.7875
2258.03893	2602.9875
2260.93041	2607.9875
2263.82004	2606.5875
2266.70783	2597.9875
2269.59378	2586.9875
2272.4779	2584.4875
2275.36017	2574.5875
2278.24061	2561.1875
2281.11922	2564.3875
2283.996	2556.4875
2286.87094	2565.3875
2289.74405	2546.7875
2292.61534	2553.0875
2295.4848	2538.1875
2298.35243	2545.4875
2301.21824	2542.6875
2304.08223	2535.7875
2306.94439	2536.0875
2309.80474	2531.4875
2312.66327	2526.5875
2315.51999	2521.0875
2318.37489	2531.4875
2321.22797	2511.5875
2324.07925	2510.8875
2326.92871	2510.5875
2329.77637	2511.0875
2332.62222	2503.9875
2335.46626	2507.9875
2338.3085	2502.3875
2341.14893	2485.7875
2343.98756	2481.9875
2346.8244	2488.3875
2349.65943	2471.8875
2352.49267	2484.1875
2355.32411	2485.0875
2358.15376	2473.5875
2360.98161	2466.3875
2363.80768	2471.4875
2366.63195	2476.8875
2369.45444	2466.0875
2372.27514	2465.6875
2375.09405	2464.1875
2377.91118	2471.3875
2380.72652	2460.3875
2383.54009	2440.2875
2386.35187	2453.7875
2389.16188	2442.5875
2391.97011	2432.0875
2394.77657	2430.6875
2397.58125	2422.4875
2400.38416	2428.1875
2403.18529	2409.1875
2405.98466	2421.8875
2408.78226	2415.7875
2411.57809	2404.0875
2414.37216	2406.6875
2417.16446	2403.8875
2419.955	2400.3875
2422.74378	2390.6875
2425.5308	2389.3875
2428.31606	2391.3875
2431.09956	2375.9875
2433.88131	2387.1875
2436.6613	2387.6875
2439.43954	2374.2875
2442.21603	2380.4875
2444.99077	2373.1875
2447.76377	2378.2875
2450.53501	2371.8875
2453.30451	2381.9875
2456.07226	2373.6875
2458.83827	2363.6875
2461.60254	2359.5875
2464.36507	2373.7875
2467.12586	2367.4875
2469.88492	2367.4875
2472.64224	2358.4875
2475.39782	2351.3875
2478.15167	2351.8875
2480.90379	2351.9875
2483.65417	2350.6875
2486.40283	2354.4875
2489.14976	2347.2875
2491.89497	2342.3875
2494.63845	2350.5875
2497.3802	2334.3875
2500.12024	2334.3875
2502.85855	2344.3875
2505.59514	2350.7875
2508.33002	2330.7875
2511.06318	2338.8875
2513.79462	2332.3875
2516.52435	2321.7875
2519.25237	2323.8875
2521.97867	2311.1875
2524.70327	2316.2875
2527.42616	2307.6875
2530.14734	2312.7875
2532.86681	2315.3875
2535.58458	2308.6875
2538.30065	2305.8875
2541.01501	2300.8875
2543.72768	2296.7875
2546.43864	2299.3875
2549.14791	2287.1875
2551.85548	2273.2875
2554.56136	2280.1875
2557.26554	2273.5875
2559.96803	2272.2875
2562.66883	2266.8875
2565.36794	2262.8875
2568.06536	2268.6875
2570.7611	2264.1875
2573.45514	2263.4875
2576.14751	2268.8875
2578.83819	2249.8875
2581.52719	2257.7875
2584.21451	2245.0875
2586.90015	2243.4875
2589.58411	2242.6875
2592.2664	2234.1875
2594.94701	2233.7875
2597.62594	2227.8875
2600.30321	2220.5875
2602.9788	2224.5875
2605.65273	2223.7875
2608.32498	2228.8875
2610.99557	2228.8875
2613.66449	2208.3875
2616.33175	2213.6875
2618.99734	2213.1875
2621.66128	2211.5875
2624.32355	2205.8875
2626.98416	2204.8875
2629.64311	2202.9875
2632.30041	2201.5875
2634.95605	2183.0875
2637.61004	2195.9875
2640.26238	2190.7875
2642.91306	2198.6875
2645.56209	2189.4875
2648.20948	2193.0875
2650.85521	2181.8875
2653.4993	2185.1875
2656.14175	2186.7875
2658.78255	2181.6875
2661.42171	2174.7875
2664.05923	2194.6875
2666.6951	2189.8875
2669.32934	2185.4875
2671.96194	2183.0875
2674.59291	2188.1875
2677.22224	2192.5875
2679.84993	2195.0875
2682.476	2188.3875
2685.10043	2187.5875
2687.72324	2189.8875
2690.34441	2191.8875
2692.96396	2195.6875
2695.58188	2185.5875
2698.19818	2192.5875
2700.81285	2185.1875
2703.4259	2192.0875
2706.03733	2208.6875
2708.64714	2208.8875
2711.25533	2201.4875
2713.86191	2202.0875
2716.46687	2204.7875
2719.07021	2195.1875
2721.67194	2200.3875
2724.27206	2191.1875
2726.87057	2206.2875
2729.46747	2208.9875
2732.06276	2195.0875
2734.65644	2189.5875
2737.24852	2192.9875
2739.83899	2193.5875
2742.42786	2203.4875
2745.01513	2189.1875
2747.60079	2196.3875
2750.18486	2194.4875
2752.76733	2178.1875
2755.3482	2191.8875
2757.92747	2191.6875
2760.50515	2177.3875
2763.08123	2187.3875
2765.65573	2173.8875
2768.22863	2190.4875
2770.79994	2168.2875
2773.36967	2173.8875
2775.9378	2170.8875
2778.50435	2165.6875
2781.06932	2153.9875
2783.6327	2159.5875
2786.1945	2161.7875
2788.75471	2158.4875
2791.31335	2155.5875
2793.87041	2154.5875
2796.42589	2140.0875
2798.97979	2140.3875
2801.53212	2132.3875
2804.08288	2132.6875
2806.63206	2132.0875
2809.17967	2125.6875
2811.72571	2118.3875
2814.27018	2125.1875
2816.81308	2124.0875
2819.35442	2127.8875
2821.89419	2101.1875
2824.43239	2112.3875
2826.96904	2105.0875
2829.50412	2116.6875
2832.03763	2112.4875
2834.56959	2112.1875
2837.1	2102.3875
2839.62884	2117.8875
2842.15613	2103.2875
2844.68186	2122.8875
2847.20604	2115.3875
2849.72867	2137.2875
2852.24974	2130.6875
2854.76927	2143.7875
2857.28724	2141.8875
2859.80367	2125.3875
2862.31855	2145.0875
2864.83189	2135.3875
2867.34368	2132.5875
2869.85393	2138.8875
2872.36264	2117.4875
2874.8698	2138.4875
2877.37543	2131.9875
2879.87952	2135.8875
2882.38207	2139.5875
2884.88308	2137.4875
2887.38256	2142.4875
2889.88051	2149.2875
2892.37692	2146.4875
2894.8718	2156.4875
2897.36515	2158.7875
2899.85698	2157.2875
2902.34727	2159.8875
2904.83604	2160.5875
2907.32328	2170.1875
2909.809	2166.1875
2912.29319	2161.4875
2914.77587	2165.7875
2917.25702	2157.9875
2919.73665	2167.3875
2922.21476	2157.6875
2924.69136	2155.3875
2927.16644	2166.6875
2929.64	2160.8875
2932.11205	2165.1875
2934.58258	2160.3875
2937.05161	2157.2875
2939.51912	2159.2875
2941.98513	2148.1875
2944.44962	2137.0875
2946.91261	2137.9875
2949.37409	2139.5875
2951.83407	2130.8875
2954.29254	2136.5875
2956.74951	2115.9875
2959.20498	2129.0875
2961.65895	2126.0875
2964.11142	2104.4875
2966.56239	2102.5875
2969.01186	2104.5875
2971.45984	2102.4875
2973.90632	2091.5875
2976.35131	2085.0875
2978.7948	2096.8875
2981.23681	2067.1875
2983.67732	2067.7875
2986.11635	2064.5875
2988.55388	2067.3875
2990.98993	2062.0875
2993.4245	2053.3875
2995.85758	2047.3875
2998.28917	2056.3875
3000.71928	2055.5875
3003.14791	2044.4875
3005.57506	2053.6875
3008.00073	2039.2875
3010.42493	2048.5875
3012.84764	2048.1875
3015.26888	2047.9875
3017.68865	2044.3875
3020.10694	2046.4875
3022.52376	2044.8875
3024.9391	2042.2875
3027.35298	2036.5875
3029.76539	2034.5875
3032.17632	2045.3875
3034.5858	2045.6875
3036.9938	2045.2875
3039.40034	2052.6875
3041.80542	2040.1875
3044.20903	2044.6875
3046.61118	2044.1875
3049.01187	2040.8875
3051.4111	2046.5875
3053.80888	2050.6875
3056.20519	2045.4875
3058.60005	2043.8875
3060.99345	2050.4875
3063.3854	2051.4875
3065.7759	2040.4875
3068.16494	2047.1875
3070.55254	2039.6875
3072.93868	2054.0875
3075.32338	2035.9875
3077.70662	2040.3875
3080.08842	2044.2875
3082.46878	2053.0875
3084.84769	2050.7875
3087.22515	2044.9875
3089.60118	2057.9875
3091.97576	2061.0875
3094.3489	2054.4875
3096.72061	2070.8875
3099.09087	2068.4875
3101.4597	2068.5875
3103.82709	2065.0875
3106.19305	2077.4875
3108.55757	2074.8875
3110.92066	2081.4875
3113.28232	2071.7875
3115.64255	2073.2875
3118.00134	2075.5875
3120.35871	2081.7875
3122.71466	2087.7875
3125.06917	2082.4875
3127.42226	2082.2875
3129.77393	2090.9875
3132.12417	2095.0875
3134.47299	2104.3875
3136.82039	2106.2875
3139.16636	2106.3875
3141.51092	2123.0875
3143.85406	2134.0875
3146.19579	2128.0875
3148.53609	2135.1875
3150.87499	2146.1875
3153.21246	2146.7875
3155.54853	2160.1875
3157.88318	2157.5875
3160.21642	2176.9875
3162.54826	2179.5875
3164.87868	2182.0875
3167.2077	2173.0875
3169.5353	2206.6875
3171.86151	2187.7875
3174.18631	2205.1875
3176.5097	2206.7875
3178.83169	2191.2875
3181.15228	2204.4875
3183.47147	2200.9875
3185.78926	2213.4875
3188.10565	2213.0875
3190.42065	2220.1875
3192.73424	2230.9875
3195.04645	2223.2875
3197.35725	2229.6875
3199.66667	2231.1875
3201.97469	2239.0875
3204.28132	2243.9875
3206.58656	2235.2875
3208.8904	2253.0875
3211.19287	2258.1875
3213.49394	2259.0875
3215.79363	2260.7875
3218.09193	2267.7875
3220.38884	2268.5875
3222.68438	2280.4875
3224.97853	2267.5875
3227.2713	2272.5875
3229.56269	2267.8875
3231.8527	2273.1875
3234.14133	2256.8875
3236.42858	2264.9875
3238.71446	2259.2875
3240.99896	2263.6875
3243.28209	2270.6875
3245.56384	2264.1875
3247.84423	2266.5875
3250.12324	2259.6875
3252.40088	2267.5875
3254.67715	2260.2875
3256.95205	2257.9875
3259.22558	2258.9875
3261.49775	2241.9875
3263.76855	2252.6875
3266.03799	2247.6875
3268.30606	2237.5875
3270.57277	2239.5875
3272.83812	2246.4875
3275.10211	2233.6875
3277.36474	2234.1875
3279.62601	2234.8875
3281.88593	2234.5875
3284.14448	2239.8875
3286.40168	2235.3875
3288.65753	2238.0875
3290.91202	2235.6875
3293.16516	2216.7875
3295.41695	2225.0875
3297.66738	2203.2875
3299.91647	2199.1875
3302.16421	2182.3875
3304.4106	2169.4875
3306.65564	2171.8875
3308.89933	2150.7875
3311.14169	2135.4875
3313.38269	2115.4875
3315.62236	2115.4875
3317.86068	2095.7875
3320.09766	2080.4875
3322.3333	2066.6875
3324.5676	2063.4875
3326.80056	2033.6875
3329.03219	2023.1875
3331.26248	-0.3125
3333.49143	0.7875
3335.71905	-0.9125
