Data from AgNPs_FTO_APTES_UA_0.1mM_CRN_200uM_NaF_0.1M_Addition_RamanShift__16__14-13-27-730.txt Node

Date: Mon Dec 20 14:13:27 GMT 2021
User: TCL
Spectrometer: QEP01345
Trigger mode: 4
Integration Time (sec): 7.000000E0
Scans to average: 10
Electric dark correction enabled: true
Nonlinearity correction enabled: false
Boxcar width: 0
XAxis mode: Raman Shifts
Number of Pixels in Spectrum: 1044
>>>>>Begin Spectral Data<<<<<
46.04893	0.8
50.45542	0.1
54.85868	-1.7
59.25871	1.1
63.6555	23.4
68.04907	28
72.43941	26.1
76.82654	31.1
81.21044	28.9
85.59113	34.7
89.96862	33
94.34289	35.1
98.71396	34.5
103.08183	34.9
107.4465	39.2
111.80798	41.9
116.16626	40.1
120.52136	39.5
124.87327	42.6
129.222	44.3
133.56755	45.2
137.90993	48.3
142.24913	50.6
146.58517	53.9
150.91804	64.9
155.24774	73.2
159.57429	83.6
163.89768	107.6
168.21792	137.7
172.53501	173.4
176.84895	240.3
181.15975	330.4
185.46741	455.9
189.77193	628.9
194.07331	845.5
198.37157	1104.7
202.6667	1387
206.9587	1672.2
211.24758	1958.4
215.53334	2232.5
219.81599	2542.3
224.09553	2853.1
228.37195	3178.9
232.64527	3528.2
236.91549	3873.1
241.18261	4195.3
245.44663	4501.4
249.70755	4755.3
253.96539	4942.5
258.22014	5085.5
262.4718	5154.5
266.72039	5186.8
270.96589	5150.6
275.20832	5068
279.44768	4965.9
283.68397	4856.7
287.91719	4748.1
292.14735	4656.5
296.37445	4593.1
300.59849	4540.9
304.81948	4510.3
309.03742	4503.3
313.25231	4454.4
317.46415	4395.1
321.67296	4309.5
325.87872	4247.9
330.08145	4220.5
334.28114	4195.8
338.47781	4225.6
342.67145	4261.8
346.86207	4280
351.04966	4346.8
355.23424	4407.2
359.4158	4460.8
363.59435	4508.3
367.76989	4562.2
371.94243	4605.4
376.11196	4640.4
380.27849	4697.8
384.44203	4731.5
388.60257	4776.9
392.76012	4819
396.91468	4866.1
401.06626	4906.4
405.21485	4932.1
409.36047	4956.5
413.50311	4914.8
417.64277	4883.8
421.77947	4869.6
425.9132	4879.3
430.04396	4897.1
434.17176	4916.6
438.2966	4925.1
442.41849	4951.7
446.53742	5015.3
450.6534	5062
454.76644	5084.2
458.87653	5143
462.98368	5156.3
467.08789	5160.7
471.18916	5165.6
475.2875	5178.5
479.38291	5213.1
483.4754	5279.3
487.56496	5340.7
491.6516	5408.1
495.73531	5454.5
499.81612	5443.6
503.89401	5440.1
507.96899	5401.1
512.04106	5356.3
516.11023	5316.9
520.1765	5310.8
524.23987	5316.3
528.30034	5308.1
532.35792	5296.1
536.41261	5270.3
540.46441	5214.8
544.51333	5167.5
548.55936	5148.4
552.60252	5125.3
556.64279	5173.1
560.6802	5177.7
564.71473	5195.3
568.7464	5234.8
572.7752	5293.3
576.80114	5306.2
580.82422	5325.4
584.84444	5366
588.86181	5436.7
592.87633	5444.4
596.888	5458.1
600.89682	5451.2
604.9028	5525
608.90594	5743.2
612.90624	6060
616.90371	6124.7
620.89834	5812.6
624.89015	5831.6
628.87913	6068.2
632.86528	6383.4
636.84862	6627
640.82913	6623.2
644.80683	6429
648.78172	6172.5
652.75379	5942.4
656.72306	5831.4
660.68952	5791.4
664.65319	5772.8
668.61405	5814.3
672.57211	5874.3
676.52738	5992.6
680.47986	6045.5
684.42955	6063.4
688.37646	6026
692.32058	5952.3
696.26192	5844.6
700.20048	5738.8
704.13626	5653.2
708.06928	5584.2
711.99952	5488.4
715.927	5397.3
719.85171	5358.6
723.77365	5360.4
727.69284	5334.6
731.60928	5318
735.52295	5271.7
739.43388	5233.7
743.34206	5224.8
747.24749	5231.3
751.15017	5250.6
755.05012	5267.3
758.94733	5296.4
762.8418	5399.3
766.73354	5551.8
770.62254	5694.7
774.50882	5759
778.39237	5672
782.27321	5482.2
786.15132	5316.3
790.02671	5226.7
793.89938	5204.5
797.76935	5211.6
801.6366	5245.9
805.50115	5346.9
809.36299	5461
813.22213	5523.1
817.07857	5454.3
820.93231	5323.7
824.78336	5163.6
828.63172	5052.5
832.47738	4982.1
836.32036	4939.6
840.16066	4908.6
843.99827	4893.1
847.8332	4869.2
851.66546	4869.9
855.49504	4868.3
859.32195	4878.6
863.1462	4900.5
866.96777	4931.3
870.78668	4988.1
874.60293	5059.4
878.41652	5134.1
882.22745	5199.1
886.03573	5243.8
889.84136	5266.7
893.64433	5214.7
897.44466	5092.4
901.24235	5021.9
905.0374	4914.5
908.8298	4845.2
912.61957	4799.1
916.40671	4780.2
920.19121	4760.5
923.97308	4751.2
927.75233	4745.6
931.52895	4735.1
935.30295	4723.1
939.07433	4705.3
942.84309	4686.6
946.60924	4654
950.37278	4632.6
954.13371	4633.9
957.89203	4602.7
961.64774	4600.9
965.40086	4592.5
969.15137	4574.5
972.89929	4566.8
976.64461	4541.2
980.38733	4531.7
984.12747	4513.1
987.86502	4533.3
991.59999	4529.5
995.33237	4565.7
999.06217	4601.5
1002.78939	4654.4
1006.51404	4691.7
1010.23611	4742.6
1013.95561	4778.4
1017.67255	4790.7
1021.38692	4782.8
1025.09872	4753
1028.80796	4681.5
1032.51465	4655.5
1036.21877	4618.6
1039.92035	4603.5
1043.61937	4600.7
1047.31584	4591
1051.00976	4615.9
1054.70114	4638.2
1058.38998	4660.3
1062.07627	4708.3
1065.76003	4731.9
1069.44126	4774
1073.11995	4833
1076.79611	4846.2
1080.46974	4824.1
1084.14085	4774.2
1087.80943	4729.8
1091.47549	4703.7
1095.13903	4673.8
1098.80005	4640.9
1102.45857	4613
1106.11456	4601.9
1109.76805	4621.3
1113.41903	4684.5
1117.06751	4799.1
1120.71348	4976.6
1124.35696	5233.1
1127.99793	5526.4
1131.63641	5809
1135.2724	5957.4
1138.90589	5964.9
1142.5369	5836.7
1146.16542	5626.6
1149.79145	5367.8
1153.415	5163.3
1157.03607	4973.8
1160.65467	4880.9
1164.27079	4830.6
1167.88443	4862.4
1171.49561	4917.5
1175.10432	5044.8
1178.71056	5201.8
1182.31434	5349.8
1185.91565	5452.4
1189.51451	5458.7
1193.11091	5441.6
1196.70485	5463
1200.29634	5451.8
1203.88538	5455
1207.47197	5382.7
1211.05612	5304.7
1214.63782	5188.8
1218.21708	5071
1221.79391	4978.5
1225.36829	4899
1228.94024	4845.8
1232.50976	4805.9
1236.07685	4761
1239.6415	4777.8
1243.20374	4796.6
1246.76355	4819
1250.32093	4845.8
1253.8759	4860.3
1257.42845	4901
1260.97859	4955
1264.52631	4958.1
1268.07163	5010.1
1271.61453	5013.9
1275.15503	5028.7
1278.69312	5043.8
1282.22882	5043.9
1285.76211	5096.9
1289.29301	5136.3
1292.82151	5227
1296.34761	5342.2
1299.87133	5455.9
1303.39266	5601.1
1306.9116	5785.4
1310.42815	5983.3
1313.94233	6118.4
1317.45412	6149.4
1320.96354	6093.8
1324.47058	6059
1327.97525	6004.3
1331.47754	5965.6
1334.97747	5970.6
1338.47502	6015.8
1341.97022	6088.3
1345.46305	6148.4
1348.95352	6262.6
1352.44163	6383.3
1355.92738	6559.4
1359.41078	6770.2
1362.89183	6965.3
1366.37053	6954.5
1369.84688	6670.7
1373.32088	6277.9
1376.79254	6015.2
1380.26186	5849.6
1383.72883	5755.6
1387.19347	5683.9
1390.65578	5583.9
1394.11575	5492.8
1397.57339	5450.6
1401.0287	5389.5
1404.48168	5318.5
1407.93234	5270
1411.38068	5192.5
1414.82669	5084.6
1418.27039	4969.3
1421.71177	4863.7
1425.15083	4758.3
1428.58758	4679.9
1432.02203	4623.7
1435.45416	4589.5
1438.88399	4570.8
1442.31151	4567.8
1445.73673	4567.8
1449.15965	4571.6
1452.58027	4576.8
1455.9986	4595.3
1459.41463	4606.9
1462.82837	4624.8
1466.23982	4661.8
1469.64898	4701.1
1473.05586	4723.7
1476.46045	4740.3
1479.86276	4754.5
1483.26279	4738.8
1486.66054	4767.4
1490.05602	4780.6
1493.44922	4825.5
1496.84016	4920.1
1500.22882	5046
1503.61521	5201
1506.99934	5376.5
1510.38121	5570.6
1513.76081	5637.6
1517.13816	5543.4
1520.51324	5338.7
1523.88607	5157.3
1527.25665	5038.8
1530.62498	4992.3
1533.99105	4974
1537.35488	4987.6
1540.71647	4981
1544.07581	4998.9
1547.4329	4997.6
1550.78776	5014.5
1554.14038	5038.6
1557.49077	5039.4
1560.83892	5082.7
1564.18484	5107.8
1567.52853	5137.3
1570.86999	5187.1
1574.20922	5213.3
1577.54624	5253.2
1580.88103	5235.2
1584.2136	5187.7
1587.54395	5132.7
1590.87208	5115.9
1594.19801	5141.4
1597.52172	5200.1
1600.84321	5249.3
1604.16251	5205.7
1607.47959	5122.7
1610.79447	5055.1
1614.10715	4949.5
1617.41763	4879.7
1620.7259	4811.9
1624.03199	4770.4
1627.33587	4768.6
1630.63757	4799.4
1633.93707	4864.9
1637.23439	4981.2
1640.52951	5153.4
1643.82246	5356.3
1647.11321	5577
1650.40179	5747.6
1653.68819	5713.2
1656.97241	5514.7
1660.25446	5264.2
1663.53433	5107.7
1666.81203	5004.7
1670.08756	4950
1673.36092	4920
1676.63211	4894.8
1679.90115	4869
1683.16801	4789.2
1686.43272	4717.1
1689.69527	4622.9
1692.95567	4519.8
1696.2139	4412.6
1699.46999	4332
1702.72392	4224.1
1705.97571	4120.1
1709.22535	4064.7
1712.47284	3975.2
1715.71819	3936.2
1718.96139	3895.8
1722.20246	3862.9
1725.44139	3810.4
1728.67818	3758.5
1731.91284	3691.6
1735.14537	3666.5
1738.37576	3628.7
1741.60403	3612.4
1744.83017	3586.3
1748.05418	3578.9
1751.27607	3586
1754.49584	3574.6
1757.71349	3582.1
1760.92903	3569.2
1764.14244	3529.9
1767.35375	3504.6
1770.56294	3473
1773.77002	3421.6
1776.97499	3390.4
1780.17785	3358.8
1783.37861	3316
1786.57727	3290.6
1789.77382	3259.3
1792.96828	3231.9
1796.16064	3197.5
1799.3509	3177.2
1802.53907	3156.6
1805.72514	3159.2
1808.90913	3127
1812.09102	3114.4
1815.27083	3099
1818.44856	3097.6
1821.6242	3080.3
1824.79776	3072.8
1827.96924	3063.4
1831.13864	3050.2
1834.30597	3061.8
1837.47122	3045.7
1840.6344	3034.1
1843.7955	3025
1846.95454	3037.1
1850.11151	3015.6
1853.26642	3019.1
1856.41926	3016.9
1859.57004	3012.6
1862.71876	3002.9
1865.86542	3003.3
1869.01003	2997.9
1872.15258	2981
1875.29308	2977.5
1878.43152	2972.8
1881.56792	2959.4
1884.70227	2966.5
1887.83457	2942.3
1890.96482	2922
1894.09304	2935.1
1897.21921	2927.9
1900.34335	2926.3
1903.46544	2924
1906.58551	2918
1909.70353	2910.9
1912.81953	2907
1915.93349	2897.3
1919.04543	2900.4
1922.15534	2892.2
1925.26322	2900.5
1928.36908	2870.3
1931.47292	2867.2
1934.57473	2855.1
1937.67453	2841.7
1940.77232	2832.5
1943.86808	2838.7
1946.96184	2820.4
1950.05358	2806.8
1953.14331	2803.5
1956.23103	2794.3
1959.31675	2791.2
1962.40046	2782
1965.48217	2770
1968.56188	2750.9
1971.63959	2744.1
1974.7153	2728.1
1977.78901	2727.5
1980.86073	2721.5
1983.93046	2712.5
1986.99819	2704.9
1990.06394	2703.8
1993.1277	2695.8
1996.18947	2682
1999.24925	2667.3
2002.30706	2659
2005.36288	2663.4
2008.41672	2635.8
2011.46859	2645.8
2014.51848	2625.3
2017.56639	2602.7
2020.61233	2608
2023.6563	2604
2026.6983	2592.1
2029.73833	2590.5
2032.7764	2573.6
2035.8125	2571.7
2038.84664	2555.8
2041.87881	2561.2
2044.90903	2547.8
2047.93729	2543.8
2050.96359	2544.7
2053.98794	2536.3
2057.01034	2535.9
2060.03078	2516
2063.04927	2518.6
2066.06582	2527.6
2069.08042	2530.1
2072.09307	2518.3
2075.10378	2515.6
2078.11255	2517.2
2081.11938	2504.1
2084.12426	2512.6
2087.12722	2497.6
2090.12824	2516.5
2093.12732	2507.7
2096.12447	2493.5
2099.11969	2500.5
2102.11299	2506.8
2105.10435	2500.9
2108.09379	2500.9
2111.08131	2499.7
2114.0669	2498
2117.05057	2497.6
2120.03233	2499.6
2123.01216	2510.3
2125.99008	2508
2128.96609	2499.9
2131.94018	2508.6
2134.91236	2507.9
2137.88263	2512.7
2140.851	2511.5
2143.81746	2502.6
2146.78201	2515
2149.74466	2505.5
2152.7054	2505.2
2155.66425	2501.5
2158.6212	2512.6
2161.57625	2503
2164.52941	2500.4
2167.48067	2501.6
2170.43004	2503.7
2173.37752	2491.3
2176.32311	2486.5
2179.26681	2480
2182.20863	2483.6
2185.14856	2486.9
2188.08661	2484.2
2191.02278	2478.9
2193.95707	2478.3
2196.88948	2469.9
2199.82001	2472.9
2202.74867	2457.7
2205.67545	2460.7
2208.60037	2449.3
2211.52341	2437.9
2214.44458	2435.4
2217.36388	2435.3
2220.28132	2427.9
2223.1969	2416
2226.11061	2422
2229.02246	2397.1
2231.93245	2406.3
2234.84058	2403.2
2237.74686	2379.9
2240.65128	2395.1
2243.55385	2383.5
2246.45456	2377.9
2249.35343	2382.6
2252.25044	2359.4
2255.14561	2350.3
2258.03893	2357.2
2260.93041	2354.6
2263.82004	2345.5
2266.70783	2340
2269.59378	2337.9
2272.4779	2334.9
2275.36017	2313.4
2278.24061	2315.3
2281.11922	2315.6
2283.996	2294.8
2286.87094	2298.5
2289.74405	2295.9
2292.61534	2300.1
2295.4848	2269.7
2298.35243	2279.3
2301.21824	2264.9
2304.08223	2271.3
2306.94439	2275
2309.80474	2257
2312.66327	2267
2315.51999	2255.7
2318.37489	2265.8
2321.22797	2255.6
2324.07925	2251.6
2326.92871	2247.9
2329.77637	2240
2332.62222	2242.7
2335.46626	2235.4
2338.3085	2224.6
2341.14893	2223.1
2343.98756	2218.2
2346.8244	2225.8
2349.65943	2204.5
2352.49267	2211.6
2355.32411	2212.1
2358.15376	2205.4
2360.98161	2202.1
2363.80768	2203.4
2366.63195	2195.9
2369.45444	2194
2372.27514	2188.6
2375.09405	2197.5
2377.91118	2179.5
2380.72652	2169.9
2383.54009	2174.9
2386.35187	2167.6
2389.16188	2160.8
2391.97011	2157.1
2394.77657	2158
2397.58125	2150
2400.38416	2144.1
2403.18529	2138.2
2405.98466	2129.2
2408.78226	2128.9
2411.57809	2126.2
2414.37216	2110.5
2417.16446	2124.6
2419.955	2108.7
2422.74378	2112.1
2425.5308	2109.2
2428.31606	2110.8
2431.09956	2102.5
2433.88131	2099.5
2436.6613	2094.3
2439.43954	2088.2
2442.21603	2080.3
2444.99077	2076.1
2447.76377	2086.7
2450.53501	2089.7
2453.30451	2091.7
2456.07226	2081.7
2458.83827	2072.8
2461.60254	2070.5
2464.36507	2060.4
2467.12586	2057.9
2469.88492	2059
2472.64224	2046.3
2475.39782	2053
2478.15167	2055.8
2480.90379	2045.7
2483.65417	2059.9
2486.40283	2042.8
2489.14976	2043.9
2491.89497	2045.5
2494.63845	2038.4
2497.3802	2038.1
2500.12024	2025.9
2502.85855	2034.2
2505.59514	2021.8
2508.33002	2017.1
2511.06318	2023
2513.79462	2018.5
2516.52435	2020.9
2519.25237	2016.5
2521.97867	1997
2524.70327	1997.1
2527.42616	2003.4
2530.14734	1993
2532.86681	1987
2535.58458	1985.4
2538.30065	1987.9
2541.01501	1986.8
2543.72768	1983.2
2546.43864	1979
2549.14791	1958.5
2551.85548	1962.9
2554.56136	1956.9
2557.26554	1953.5
2559.96803	1953.1
2562.66883	1945.8
2565.36794	1935.1
2568.06536	1931.1
2570.7611	1928.8
2573.45514	1931.6
2576.14751	1937
2578.83819	1917.1
2581.52719	1931.1
2584.21451	1922.1
2586.90015	1914.8
2589.58411	1904.3
2592.2664	1903.4
2594.94701	1902.1
2597.62594	1883.4
2600.30321	1898.7
2602.9788	1883.2
2605.65273	1874.7
2608.32498	1880.5
2610.99557	1875.2
2613.66449	1861.8
2616.33175	1876
2618.99734	1868.9
2621.66128	1867.7
2624.32355	1861.9
2626.98416	1860.6
2629.64311	1848.9
2632.30041	1851.3
2634.95605	1851.1
2637.61004	1847.5
2640.26238	1846.4
2642.91306	1837.8
2645.56209	1842.2
2648.20948	1834.7
2650.85521	1833.2
2653.4993	1842
2656.14175	1835.6
2658.78255	1834.3
2661.42171	1826
2664.05923	1836.1
2666.6951	1832.1
2669.32934	1829.4
2671.96194	1823.4
2674.59291	1829
2677.22224	1824.5
2679.84993	1831.7
2682.476	1830.5
2685.10043	1831.6
2687.72324	1817.2
2690.34441	1825.4
2692.96396	1817
2695.58188	1823.2
2698.19818	1833
2700.81285	1827.4
2703.4259	1834.9
2706.03733	1857.9
2708.64714	1842.2
2711.25533	1838.9
2713.86191	1832.9
2716.46687	1824
2719.07021	1833.3
2721.67194	1824.8
2724.27206	1811.7
2726.87057	1828.9
2729.46747	1833.8
2732.06276	1822.9
2734.65644	1816.3
2737.24852	1814.6
2739.83899	1808.1
2742.42786	1803.9
2745.01513	1813.4
2747.60079	1806.9
2750.18486	1803.4
2752.76733	1791.7
2755.3482	1798.7
2757.92747	1799.1
2760.50515	1793.8
2763.08123	1785.6
2765.65573	1783.1
2768.22863	1782.3
2770.79994	1784.6
2773.36967	1790
2775.9378	1784.7
2778.50435	1772.4
2781.06932	1772.6
2783.6327	1767.6
2786.1945	1778.5
2788.75471	1768.1
2791.31335	1768.6
2793.87041	1761.5
2796.42589	1750.3
2798.97979	1739.4
2801.53212	1738.8
2804.08288	1743.7
2806.63206	1737.9
2809.17967	1736.9
2811.72571	1728.3
2814.27018	1727.8
2816.81308	1716.9
2819.35442	1731.5
2821.89419	1722.3
2824.43239	1733.8
2826.96904	1730.7
2829.50412	1726.1
2832.03763	1720.8
2834.56959	1710.7
2837.1	1712.6
2839.62884	1715.6
2842.15613	1710.3
2844.68186	1719.4
2847.20604	1721
2849.72867	1712.3
2852.24974	1718.3
2854.76927	1709
2857.28724	1712.3
2859.80367	1712.3
2862.31855	1711.4
2864.83189	1715.4
2867.34368	1694
2869.85393	1715.5
2872.36264	1711.4
2874.8698	1715.6
2877.37543	1704
2879.87952	1710.9
2882.38207	1727.1
2884.88308	1715.7
2887.38256	1717.1
2889.88051	1725.2
2892.37692	1721.9
2894.8718	1724.6
2897.36515	1727
2899.85698	1721.1
2902.34727	1738.3
2904.83604	1732.3
2907.32328	1746.3
2909.809	1741.3
2912.29319	1748.7
2914.77587	1747.7
2917.25702	1764.1
2919.73665	1755.9
2922.21476	1751.7
2924.69136	1763.8
2927.16644	1780.5
2929.64	1754.6
2932.11205	1766.3
2934.58258	1773.1
2937.05161	1770.8
2939.51912	1782
2941.98513	1772.6
2944.44962	1774.4
2946.91261	1760.6
2949.37409	1779.7
2951.83407	1765.2
2954.29254	1768.2
2956.74951	1765.3
2959.20498	1766.6
2961.65895	1751.8
2964.11142	1752
2966.56239	1746.2
2969.01186	1738.3
2971.45984	1729.1
2973.90632	1718.2
2976.35131	1718.3
2978.7948	1724.5
2981.23681	1708.8
2983.67732	1702.8
2986.11635	1701.5
2988.55388	1691.7
2990.98993	1694.3
2993.4245	1682.7
2995.85758	1691.7
2998.28917	1682.6
3000.71928	1687.2
3003.14791	1690.3
3005.57506	1685
3008.00073	1679.2
3010.42493	1678.3
3012.84764	1677.9
3015.26888	1690.8
3017.68865	1682.4
3020.10694	1684.8
3022.52376	1673.5
3024.9391	1684.1
3027.35298	1683.9
3029.76539	1683.5
3032.17632	1673.4
3034.5858	1678
3036.9938	1674
3039.40034	1672.9
3041.80542	1671.4
3044.20903	1663.3
3046.61118	1662
3049.01187	1669.9
3051.4111	1667.5
3053.80888	1670.2
3056.20519	1671.7
3058.60005	1664
3060.99345	1668.5
3063.3854	1660.4
3065.7759	1661
3068.16494	1663.5
3070.55254	1665.1
3072.93868	1666.3
3075.32338	1668.4
3077.70662	1666.6
3080.08842	1673.7
3082.46878	1680.5
3084.84769	1683.2
3087.22515	1675.7
3089.60118	1683.1
3091.97576	1693.5
3094.3489	1691.8
3096.72061	1691
3099.09087	1704.1
3101.4597	1693.8
3103.82709	1702.5
3106.19305	1717.3
3108.55757	1717.1
3110.92066	1708.4
3113.28232	1722.3
3115.64255	1711.4
3118.00134	1718.2
3120.35871	1718.9
3122.71466	1719.7
3125.06917	1726.5
3127.42226	1727.6
3129.77393	1726.8
3132.12417	1746.7
3134.47299	1749.1
3136.82039	1752.3
3139.16636	1747.4
3141.51092	1760.3
3143.85406	1772.6
3146.19579	1769.2
3148.53609	1780
3150.87499	1788
3153.21246	1802.9
3155.54853	1820
3157.88318	1810.8
3160.21642	1819
3162.54826	1824.9
3164.87868	1834.9
3167.2077	1837.9
3169.5353	1852.8
3171.86151	1851.4
3174.18631	1853.7
3176.5097	1846.9
3178.83169	1873.4
3181.15228	1860.9
3183.47147	1872
3185.78926	1880.9
3188.10565	1878
3190.42065	1880
3192.73424	1890.7
3195.04645	1895.6
3197.35725	1894.9
3199.66667	1898.5
3201.97469	1916.5
3204.28132	1904.2
3206.58656	1921.1
3208.8904	1922.2
3211.19287	1928
3213.49394	1937.6
3215.79363	1943.8
3218.09193	1947.5
3220.38884	1940.3
3222.68438	1963.2
3224.97853	1941
3227.2713	1945
3229.56269	1952.5
3231.8527	1948.9
3234.14133	1936.3
3236.42858	1953.9
3238.71446	1948.3
3240.99896	1935.5
3243.28209	1934.3
3245.56384	1946.1
3247.84423	1944.2
3250.12324	1937.6
3252.40088	1944.7
3254.67715	1947.6
3256.95205	1945.1
3259.22558	1956.2
3261.49775	1944.1
3263.76855	1941.7
3266.03799	1931
3268.30606	1926.2
3270.57277	1933.1
3272.83812	1928
3275.10211	1925.2
3277.36474	1930.7
3279.62601	1934.2
3281.88593	1931.9
3284.14448	1930.1
3286.40168	1934.5
3288.65753	1929.8
3290.91202	1927.7
3293.16516	1922.9
3295.41695	1920.3
3297.66738	1904.9
3299.91647	1901.6
3302.16421	1898.8
3304.4106	1888.8
3306.65564	1879.2
3308.89933	1856.2
3311.14169	1863
3313.38269	1854
3315.62236	1832
3317.86068	1832.6
3320.09766	1813
3322.3333	1796.7
3324.5676	1801.7
3326.80056	1776.1
3329.03219	1755.4
3331.26248	-0.4
3333.49143	0.1
3335.71905	-0.4
