Data from AgNPs_FTO_APTES_UA_0.1mM_CRN_50uM_NaF_0.1M_Addition_RamanShift__14__12-52-57-640.txt Node

Date: Mon Dec 20 12:52:57 GMT 2021
User: TCL
Spectrometer: QEP01345
Trigger mode: 4
Integration Time (sec): 7.000000E0
Scans to average: 10
Electric dark correction enabled: true
Nonlinearity correction enabled: false
Boxcar width: 0
XAxis mode: Raman Shifts
Number of Pixels in Spectrum: 1044
>>>>>Begin Spectral Data<<<<<
46.04893	1.1
50.45542	-0.8
54.85868	-1.7
59.25871	-0.2
63.6555	37.4
68.04907	36.9
72.43941	39.7
76.82654	41.8
81.21044	40
85.59113	47.1
89.96862	41.4
94.34289	44.6
98.71396	46.2
103.08183	46.3
107.4465	49.9
111.80798	53
116.16626	53
120.52136	53.9
124.87327	58.1
129.222	60.3
133.56755	65
137.90993	67.4
142.24913	71.6
146.58517	76.3
150.91804	88.1
155.24774	105.1
159.57429	126.3
163.89768	164
168.21792	218.7
172.53501	291.1
176.84895	403.2
181.15975	563.2
185.46741	795.3
189.77193	1107
194.07331	1480.7
198.37157	1933.9
202.6667	2402.3
206.9587	2886.2
211.24758	3350.9
215.53334	3821.8
219.81599	4307.8
224.09553	4834.2
228.37195	5430.3
232.64527	6078.9
236.91549	6772.6
241.18261	7499.3
245.44663	8173
249.70755	8780.3
253.96539	9297
258.22014	9662.7
262.4718	9894.5
266.72039	9952.9
270.96589	9879.8
275.20832	9737.9
279.44768	9463.7
283.68397	9205.9
287.91719	8953.3
292.14735	8738.6
296.37445	8555.4
300.59849	8438
304.81948	8363.6
309.03742	8299.6
313.25231	8224.5
317.46415	8136.6
321.67296	8046.9
325.87872	7972.7
330.08145	7948.2
334.28114	7971.8
338.47781	7996.3
342.67145	8063
346.86207	8130.7
351.04966	8207.2
355.23424	8329.1
359.4158	8426.7
363.59435	8520
367.76989	8604.8
371.94243	8692.4
376.11196	8750
380.27849	8826.8
384.44203	8907
388.60257	8996.2
392.76012	9089.2
396.91468	9180.4
401.06626	9342.8
405.21485	9468.7
409.36047	9508.1
413.50311	9492.5
417.64277	9442.6
421.77947	9385.9
425.9132	9385.4
430.04396	9390.8
434.17176	9402.3
438.2966	9445.2
442.41849	9474.2
446.53742	9537.3
450.6534	9609.2
454.76644	9661.8
458.87653	9742.3
462.98368	9744.8
467.08789	9793
471.18916	9790.8
475.2875	9818.6
479.38291	9844.1
483.4754	9876.8
487.56496	9958.4
491.6516	10037.4
495.73531	10095
499.81612	10153.9
503.89401	10228.8
507.96899	10252
512.04106	10260.9
516.11023	10199.4
520.1765	10142
524.23987	10101.9
528.30034	10030
532.35792	10000.7
536.41261	9971.8
540.46441	9883.1
544.51333	9862.8
548.55936	9871.8
552.60252	9894.1
556.64279	9971.2
560.6802	10003.4
564.71473	10028.7
568.7464	10055.7
572.7752	10088.4
576.80114	10074.6
580.82422	10104.3
584.84444	10150.4
588.86181	10186.3
592.87633	10195
596.888	10231.7
600.89682	10332.1
604.9028	10509.7
608.90594	10961.9
612.90624	11499
616.90371	11473
620.89834	10842.2
624.89015	10553.4
628.87913	10593.7
632.86528	10745.9
636.84862	10877.2
640.82913	10947.5
644.80683	10933.9
648.78172	10813.5
652.75379	10762.1
656.72306	10753.4
660.68952	10786.3
664.65319	10822.2
668.61405	10867.3
672.57211	10908.4
676.52738	10994
680.47986	11011
684.42955	11010.3
688.37646	11007.5
692.32058	11004.8
696.26192	11019.8
700.20048	11003.6
704.13626	10927.7
708.06928	10814.5
711.99952	10683.4
715.927	10531.5
719.85171	10458.8
723.77365	10416.1
727.69284	10362.2
731.60928	10327.5
735.52295	10306.7
739.43388	10311.7
743.34206	10373.9
747.24749	10428.7
751.15017	10483.3
755.05012	10520.6
758.94733	10612
762.8418	10743.2
766.73354	10931.5
770.62254	11145.2
774.50882	11278.1
778.39237	11200.4
782.27321	10947.8
786.15132	10681.2
790.02671	10488.6
793.89938	10381.9
797.76935	10372.6
801.6366	10416.7
805.50115	10469.3
809.36299	10538.5
813.22213	10544.9
817.07857	10526.5
820.93231	10426.2
824.78336	10326.9
828.63172	10240.9
832.47738	10167.9
836.32036	10141.4
840.16066	10132.8
843.99827	10120.5
847.8332	10131.6
851.66546	10134.6
855.49504	10128.8
859.32195	10131.6
863.1462	10146.9
866.96777	10148.8
870.78668	10174.7
874.60293	10221.6
878.41652	10245.9
882.22745	10295.8
886.03573	10333.3
889.84136	10340.5
893.64433	10339.5
897.44466	10307.8
901.24235	10303.6
905.0374	10223.6
908.8298	10214
912.61957	10183.4
916.40671	10152.8
920.19121	10155.2
923.97308	10130.3
927.75233	10120.5
931.52895	10095.8
935.30295	10063.4
939.07433	10022.8
942.84309	9981.8
946.60924	9961.9
950.37278	9954.5
954.13371	9926.5
957.89203	9918.8
961.64774	9905.9
965.40086	9886.8
969.15137	9876.2
972.89929	9849.1
976.64461	9817.7
980.38733	9846.6
984.12747	9859.9
987.86502	9882.6
991.59999	9874.6
995.33237	9870.9
999.06217	9932.3
1002.78939	9974.3
1006.51404	9977.9
1010.23611	10030.9
1013.95561	10078.5
1017.67255	10073.2
1021.38692	10082.1
1025.09872	10079.7
1028.80796	10044.1
1032.51465	10023.6
1036.21877	10011.3
1039.92035	10008.1
1043.61937	10037.7
1047.31584	10027.7
1051.00976	10056.4
1054.70114	10076
1058.38998	10074.7
1062.07627	10120.3
1065.76003	10170.9
1069.44126	10171.9
1073.11995	10213
1076.79611	10270.8
1080.46974	10259.7
1084.14085	10248.8
1087.80943	10219.8
1091.47549	10244.2
1095.13903	10209.2
1098.80005	10200.8
1102.45857	10176.1
1106.11456	10153.8
1109.76805	10148
1113.41903	10184.2
1117.06751	10259.5
1120.71348	10373.4
1124.35696	10538.6
1127.99793	10728.4
1131.63641	10867.9
1135.2724	10961.2
1138.90589	10961.1
1142.5369	10896.5
1146.16542	10775.5
1149.79145	10644.4
1153.415	10485.6
1157.03607	10340.2
1160.65467	10245.2
1164.27079	10199.5
1167.88443	10225
1171.49561	10314.5
1175.10432	10455.9
1178.71056	10668.3
1182.31434	10887
1185.91565	11020.1
1189.51451	11041
1193.11091	11011.5
1196.70485	10977
1200.29634	10927.2
1203.88538	10873
1207.47197	10828
1211.05612	10743.2
1214.63782	10715.7
1218.21708	10660.5
1221.79391	10623.8
1225.36829	10577.8
1228.94024	10519.2
1232.50976	10467.1
1236.07685	10446.5
1239.6415	10417.5
1243.20374	10397.3
1246.76355	10432.5
1250.32093	10501.9
1253.8759	10538
1257.42845	10564.4
1260.97859	10656.8
1264.52631	10702.3
1268.07163	10729.8
1271.61453	10746.3
1275.15503	10754.4
1278.69312	10762.6
1282.22882	10716.9
1285.76211	10745.6
1289.29301	10774.5
1292.82151	10838.3
1296.34761	10949.7
1299.87133	11044.3
1303.39266	11230.7
1306.9116	11441.3
1310.42815	11688.3
1313.94233	11881.1
1317.45412	11935.2
1320.96354	11873.9
1324.47058	11760.1
1327.97525	11651.7
1331.47754	11565
1334.97747	11554.6
1338.47502	11580.4
1341.97022	11692.3
1345.46305	11867.9
1348.95352	12061.7
1352.44163	12240.1
1355.92738	12411.8
1359.41078	12629.4
1362.89183	12851.4
1366.37053	12804.8
1369.84688	12374
1373.32088	11833.8
1376.79254	11463.6
1380.26186	11224.2
1383.72883	11092.2
1387.19347	11013.1
1390.65578	10886.6
1394.11575	10743.5
1397.57339	10661.3
1401.0287	10545.5
1404.48168	10469.1
1407.93234	10417.5
1411.38068	10326.8
1414.82669	10257.8
1418.27039	10165.8
1421.71177	10062.5
1425.15083	9994.5
1428.58758	9901
1432.02203	9848.3
1435.45416	9804.1
1438.88399	9800.8
1442.31151	9772.4
1445.73673	9743.9
1449.15965	9720.1
1452.58027	9743.7
1455.9986	9741.7
1459.41463	9793.2
1462.82837	9828.1
1466.23982	9892.9
1469.64898	9955.8
1473.05586	10022.2
1476.46045	10073.1
1479.86276	10118.6
1483.26279	10143.5
1486.66054	10172.4
1490.05602	10221.7
1493.44922	10296.4
1496.84016	10438.3
1500.22882	10674
1503.61521	10968.6
1506.99934	11280.6
1510.38121	11512.3
1513.76081	11596.1
1517.13816	11419.8
1520.51324	11128.5
1523.88607	10868.5
1527.25665	10668
1530.62498	10586.5
1533.99105	10533.5
1537.35488	10566.9
1540.71647	10590.1
1544.07581	10620.6
1547.4329	10675.9
1550.78776	10714.2
1554.14038	10764.6
1557.49077	10802.7
1560.83892	10845
1564.18484	10930.1
1567.52853	10961.8
1570.86999	11044
1574.20922	11109.6
1577.54624	11111.5
1580.88103	11034.7
1584.2136	10934
1587.54395	10851
1590.87208	10793.1
1594.19801	10851
1597.52172	10934.2
1600.84321	10977.8
1604.16251	10907.5
1607.47959	10847.1
1610.79447	10705.5
1614.10715	10569.6
1617.41763	10387.4
1620.7259	10268.3
1624.03199	10172.4
1627.33587	10134.4
1630.63757	10153.6
1633.93707	10184.3
1637.23439	10256.2
1640.52951	10431
1643.82246	10652.7
1647.11321	10896.9
1650.40179	11075.6
1653.68819	11004
1656.97241	10740.4
1660.25446	10405.2
1663.53433	10144.5
1666.81203	9947.2
1670.08756	9814.4
1673.36092	9695.4
1676.63211	9616.5
1679.90115	9512.2
1683.16801	9453.2
1686.43272	9362.8
1689.69527	9271.9
1692.95567	9172.7
1696.2139	9115.9
1699.46999	9034.3
1702.72392	8965.9
1705.97571	8930.1
1709.22535	8897.3
1712.47284	8826.7
1715.71819	8825.9
1718.96139	8786.9
1722.20246	8759.1
1725.44139	8693.7
1728.67818	8646.5
1731.91284	8562.8
1735.14537	8502
1738.37576	8462.2
1741.60403	8420.9
1744.83017	8375.8
1748.05418	8346.4
1751.27607	8328.7
1754.49584	8304
1757.71349	8314.9
1760.92903	8261.7
1764.14244	8255.9
1767.35375	8244.4
1770.56294	8224.8
1773.77002	8177.8
1776.97499	8149.2
1780.17785	8099.3
1783.37861	8102.8
1786.57727	8067.7
1789.77382	8029.3
1792.96828	8000.5
1796.16064	7990
1799.3509	7962
1802.53907	7904.6
1805.72514	7906.8
1808.90913	7848.6
1812.09102	7839.8
1815.27083	7835.4
1818.44856	7809.8
1821.6242	7807
1824.79776	7755.8
1827.96924	7743
1831.13864	7762.5
1834.30597	7766.4
1837.47122	7726.2
1840.6344	7722.4
1843.7955	7705.9
1846.95454	7706.4
1850.11151	7694.2
1853.26642	7684.6
1856.41926	7665.3
1859.57004	7697.2
1862.71876	7647.8
1865.86542	7649.1
1869.01003	7642.6
1872.15258	7587.1
1875.29308	7605.2
1878.43152	7577.4
1881.56792	7590.2
1884.70227	7568.7
1887.83457	7559.2
1890.96482	7544.3
1894.09304	7510.5
1897.21921	7497.7
1900.34335	7509.5
1903.46544	7478.2
1906.58551	7484.5
1909.70353	7482.4
1912.81953	7455.1
1915.93349	7437.9
1919.04543	7430
1922.15534	7434
1925.26322	7409.7
1928.36908	7378.4
1931.47292	7365.6
1934.57473	7347.3
1937.67453	7332.7
1940.77232	7310.8
1943.86808	7283
1946.96184	7281.7
1950.05358	7244.6
1953.14331	7236.5
1956.23103	7190.6
1959.31675	7186.1
1962.40046	7170
1965.48217	7155.3
1968.56188	7124.1
1971.63959	7101.9
1974.7153	7068.9
1977.78901	7052.2
1980.86073	7031.6
1983.93046	6986.4
1986.99819	6990.3
1990.06394	6976.5
1993.1277	6950.2
1996.18947	6920.7
1999.24925	6907.2
2002.30706	6888.8
2005.36288	6848.8
2008.41672	6817.6
2011.46859	6805.8
2014.51848	6774.4
2017.56639	6790.5
2020.61233	6746.4
2023.6563	6718.4
2026.6983	6697.4
2029.73833	6696.3
2032.7764	6680.1
2035.8125	6655.9
2038.84664	6644.1
2041.87881	6639.3
2044.90903	6634.3
2047.93729	6586.5
2050.96359	6577.4
2053.98794	6589.4
2057.01034	6571
2060.03078	6562
2063.04927	6542.9
2066.06582	6529.4
2069.08042	6536
2072.09307	6519.4
2075.10378	6505.8
2078.11255	6523.2
2081.11938	6530.6
2084.12426	6519.9
2087.12722	6525.4
2090.12824	6513.7
2093.12732	6522.2
2096.12447	6517.6
2099.11969	6506.6
2102.11299	6486.9
2105.10435	6511.8
2108.09379	6491
2111.08131	6517.3
2114.0669	6511.8
2117.05057	6534.7
2120.03233	6519.3
2123.01216	6520.5
2125.99008	6543.9
2128.96609	6529.1
2131.94018	6514.1
2134.91236	6541
2137.88263	6534.8
2140.851	6528.3
2143.81746	6542.6
2146.78201	6532.9
2149.74466	6546
2152.7054	6540.8
2155.66425	6540.5
2158.6212	6539.3
2161.57625	6533.7
2164.52941	6527.5
2167.48067	6531.5
2170.43004	6510.4
2173.37752	6502.9
2176.32311	6495.1
2179.26681	6505.2
2182.20863	6492.4
2185.14856	6495.9
2188.08661	6502.7
2191.02278	6498.8
2193.95707	6465.9
2196.88948	6479.9
2199.82001	6444.4
2202.74867	6440.6
2205.67545	6435
2208.60037	6434
2211.52341	6408.6
2214.44458	6413.2
2217.36388	6398.1
2220.28132	6360.4
2223.1969	6341.6
2226.11061	6334.9
2229.02246	6317.6
2231.93245	6294.4
2234.84058	6302.3
2237.74686	6290.2
2240.65128	6286.6
2243.55385	6286.1
2246.45456	6246.3
2249.35343	6247.3
2252.25044	6234.6
2255.14561	6204.7
2258.03893	6213.3
2260.93041	6215.7
2263.82004	6175.7
2266.70783	6163.4
2269.59378	6170.5
2272.4779	6144.4
2275.36017	6110.5
2278.24061	6114.2
2281.11922	6086.1
2283.996	6077.2
2286.87094	6093.1
2289.74405	6069.6
2292.61534	6066.5
2295.4848	6035.6
2298.35243	6023.1
2301.21824	6033.4
2304.08223	5996.2
2306.94439	6007.4
2309.80474	5984.9
2312.66327	5977.9
2315.51999	5992.9
2318.37489	5990
2321.22797	5968
2324.07925	5964.9
2326.92871	5954
2329.77637	5929.8
2332.62222	5913
2335.46626	5918.3
2338.3085	5902.9
2341.14893	5882.4
2343.98756	5878.5
2346.8244	5872.4
2349.65943	5870.6
2352.49267	5866.3
2355.32411	5851.9
2358.15376	5854.2
2360.98161	5836.5
2363.80768	5840.2
2366.63195	5835.5
2369.45444	5817.1
2372.27514	5813
2375.09405	5777.7
2377.91118	5776.3
2380.72652	5755.3
2383.54009	5750.1
2386.35187	5756.3
2389.16188	5742.3
2391.97011	5726.4
2394.77657	5720.7
2397.58125	5701.5
2400.38416	5688.4
2403.18529	5681.5
2405.98466	5668.8
2408.78226	5659.5
2411.57809	5659.9
2414.37216	5630.9
2417.16446	5640.9
2419.955	5621.7
2422.74378	5647.1
2425.5308	5594.1
2428.31606	5589.7
2431.09956	5582.1
2433.88131	5586.2
2436.6613	5566.1
2439.43954	5581.3
2442.21603	5566.9
2444.99077	5553.7
2447.76377	5552.5
2450.53501	5556.1
2453.30451	5556
2456.07226	5525.5
2458.83827	5518.9
2461.60254	5518.3
2464.36507	5498.7
2467.12586	5484.6
2469.88492	5493.9
2472.64224	5487.2
2475.39782	5482.6
2478.15167	5484
2480.90379	5467.3
2483.65417	5471.3
2486.40283	5442.7
2489.14976	5445
2491.89497	5437.7
2494.63845	5438
2497.3802	5434.2
2500.12024	5417.7
2502.85855	5406.1
2505.59514	5398.1
2508.33002	5383.3
2511.06318	5377.5
2513.79462	5397.4
2516.52435	5381.7
2519.25237	5364.6
2521.97867	5350.1
2524.70327	5346.7
2527.42616	5338.2
2530.14734	5346.6
2532.86681	5316.1
2535.58458	5312.1
2538.30065	5289.7
2541.01501	5285.9
2543.72768	5282.4
2546.43864	5268.2
2549.14791	5249.1
2551.85548	5246.2
2554.56136	5224.7
2557.26554	5221
2559.96803	5195
2562.66883	5200.4
2565.36794	5177
2568.06536	5174.9
2570.7611	5169
2573.45514	5157.5
2576.14751	5144.3
2578.83819	5146.7
2581.52719	5138.6
2584.21451	5124.9
2586.90015	5100.6
2589.58411	5105.7
2592.2664	5086.5
2594.94701	5080.6
2597.62594	5055.2
2600.30321	5043.6
2602.9788	5034
2605.65273	5033.4
2608.32498	5016.3
2610.99557	5002.2
2613.66449	4984.6
2616.33175	4976.6
2618.99734	4986.8
2621.66128	4970
2624.32355	4962.6
2626.98416	4964.5
2629.64311	4939.4
2632.30041	4952.9
2634.95605	4938.5
2637.61004	4929.7
2640.26238	4916.9
2642.91306	4917.2
2645.56209	4892.2
2648.20948	4893.6
2650.85521	4896.8
2653.4993	4900.4
2656.14175	4890.5
2658.78255	4890.3
2661.42171	4869.2
2664.05923	4886.9
2666.6951	4868.5
2669.32934	4866.7
2671.96194	4855.6
2674.59291	4866.7
2677.22224	4852.9
2679.84993	4856.3
2682.476	4853.1
2685.10043	4850.5
2687.72324	4858.1
2690.34441	4841.2
2692.96396	4845.9
2695.58188	4845
2698.19818	4847.9
2700.81285	4830.2
2703.4259	4848.9
2706.03733	4869.5
2708.64714	4843.1
2711.25533	4845.5
2713.86191	4842.3
2716.46687	4839.2
2719.07021	4828.5
2721.67194	4820.5
2724.27206	4827.7
2726.87057	4823.6
2729.46747	4828.8
2732.06276	4824
2734.65644	4799.8
2737.24852	4808.6
2739.83899	4810.8
2742.42786	4791.3
2745.01513	4778.9
2747.60079	4777.6
2750.18486	4771
2752.76733	4749
2755.3482	4749
2757.92747	4751.3
2760.50515	4740.8
2763.08123	4728.7
2765.65573	4731.3
2768.22863	4736.7
2770.79994	4713
2773.36967	4723.5
2775.9378	4699.9
2778.50435	4692.1
2781.06932	4679.3
2783.6327	4680.8
2786.1945	4640.4
2788.75471	4656.1
2791.31335	4641
2793.87041	4622.4
2796.42589	4609.1
2798.97979	4612.5
2801.53212	4594
2804.08288	4594.3
2806.63206	4581.6
2809.17967	4569.4
2811.72571	4545.8
2814.27018	4546.1
2816.81308	4536.2
2819.35442	4543.8
2821.89419	4518.5
2824.43239	4513.3
2826.96904	4508.4
2829.50412	4491.8
2832.03763	4480.8
2834.56959	4477.9
2837.1	4464.1
2839.62884	4478.2
2842.15613	4470.2
2844.68186	4465.1
2847.20604	4477.6
2849.72867	4461.9
2852.24974	4466.3
2854.76927	4460.9
2857.28724	4448.3
2859.80367	4431.9
2862.31855	4432.5
2864.83189	4435.9
2867.34368	4402.5
2869.85393	4431.2
2872.36264	4404.1
2874.8698	4404
2877.37543	4405.9
2879.87952	4398.8
2882.38207	4409.7
2884.88308	4419.6
2887.38256	4405.2
2889.88051	4405.2
2892.37692	4386.7
2894.8718	4389.1
2897.36515	4393.7
2899.85698	4397
2902.34727	4384.1
2904.83604	4387.7
2907.32328	4386.9
2909.809	4384.9
2912.29319	4381.4
2914.77587	4395.3
2917.25702	4398.6
2919.73665	4391.1
2922.21476	4367.2
2924.69136	4369.6
2927.16644	4390.7
2929.64	4386.6
2932.11205	4370.6
2934.58258	4355.3
2937.05161	4365.8
2939.51912	4368.4
2941.98513	4355.1
2944.44962	4363.8
2946.91261	4345.4
2949.37409	4362.4
2951.83407	4354.7
2954.29254	4357.7
2956.74951	4367.8
2959.20498	4345.4
2961.65895	4348.1
2964.11142	4345.1
2966.56239	4327.4
2969.01186	4333.2
2971.45984	4322.9
2973.90632	4308.2
2976.35131	4293.4
2978.7948	4299.9
2981.23681	4282.8
2983.67732	4292.1
2986.11635	4268.7
2988.55388	4254.4
2990.98993	4257.9
2993.4245	4241.6
2995.85758	4244.7
2998.28917	4225.3
3000.71928	4230.3
3003.14791	4205.9
3005.57506	4232.1
3008.00073	4216.5
3010.42493	4199.3
3012.84764	4213.6
3015.26888	4187.6
3017.68865	4181.2
3020.10694	4184
3022.52376	4177.8
3024.9391	4157.6
3027.35298	4160.4
3029.76539	4165.1
3032.17632	4157.1
3034.5858	4146.8
3036.9938	4159.3
3039.40034	4153
3041.80542	4169.3
3044.20903	4129.1
3046.61118	4131.5
3049.01187	4132.5
3051.4111	4127.3
3053.80888	4107.4
3056.20519	4108.1
3058.60005	4086.7
3060.99345	4107.1
3063.3854	4081.7
3065.7759	4077
3068.16494	4064.6
3070.55254	4058.3
3072.93868	4074.7
3075.32338	4071.6
3077.70662	4056.1
3080.08842	4073.6
3082.46878	4071.4
3084.84769	4063.5
3087.22515	4055.5
3089.60118	4068.6
3091.97576	4075.2
3094.3489	4050.5
3096.72061	4067.1
3099.09087	4059.7
3101.4597	4080.1
3103.82709	4076.9
3106.19305	4073.7
3108.55757	4054.9
3110.92066	4053.1
3113.28232	4048.3
3115.64255	4043.5
3118.00134	4035.9
3120.35871	4038.8
3122.71466	4033.4
3125.06917	4027.2
3127.42226	4023.5
3129.77393	4021.5
3132.12417	4030.7
3134.47299	4045.5
3136.82039	4024.7
3139.16636	4044.8
3141.51092	4058.8
3143.85406	4071.9
3146.19579	4050.2
3148.53609	4056
3150.87499	4083.2
3153.21246	4081
3155.54853	4103.2
3157.88318	4084.3
3160.21642	4090.7
3162.54826	4084.5
3164.87868	4108.1
3167.2077	4084.9
3169.5353	4100.2
3171.86151	4107.3
3174.18631	4100.8
3176.5097	4099.3
3178.83169	4092.9
3181.15228	4094.4
3183.47147	4091.2
3185.78926	4100.6
3188.10565	4076.9
3190.42065	4087.9
3192.73424	4100.7
3195.04645	4108.2
3197.35725	4102.1
3199.66667	4100.7
3201.97469	4101.8
3204.28132	4115
3206.58656	4110.4
3208.8904	4109.1
3211.19287	4114.5
3213.49394	4123
3215.79363	4130.1
3218.09193	4139.2
3220.38884	4124.1
3222.68438	4137.9
3224.97853	4128.3
3227.2713	4133.6
3229.56269	4100
3231.8527	4109.7
3234.14133	4096.1
3236.42858	4100.8
3238.71446	4088.5
3240.99896	4080.9
3243.28209	4077.8
3245.56384	4096
3247.84423	4089.2
3250.12324	4076
3252.40088	4075.3
3254.67715	4084.3
3256.95205	4067.4
3259.22558	4082.5
3261.49775	4065.6
3263.76855	4060.2
3266.03799	4051.9
3268.30606	4050.8
3270.57277	4040.2
3272.83812	4035
3275.10211	4017.1
3277.36474	4024
3279.62601	4027
3281.88593	4034.6
3284.14448	4025.9
3286.40168	4026
3288.65753	4017.4
3290.91202	4001.1
3293.16516	3996.2
3295.41695	3975.8
3297.66738	3948.1
3299.91647	3948.4
3302.16421	3912.9
3304.4106	3913.6
3306.65564	3884.8
3308.89933	3891.7
3311.14169	3859.7
3313.38269	3829.4
3315.62236	3808.4
3317.86068	3766
3320.09766	3738.9
3322.3333	3721.3
3324.5676	3726.1
3326.80056	3659.3
3329.03219	3627.5
3331.26248	1.8
3333.49143	-0.1
3335.71905	-0.9
