Data from AgNPs_FTO_APTES_UA_0.1mM_CRN_0uM_NaF_0.1M_Addition_RamanShift__62__11-14-57-528.txt Node

Date: Mon Dec 20 11:14:57 GMT 2021
User: TCL
Spectrometer: QEP01345
Trigger mode: 4
Integration Time (sec): 7.000000E0
Scans to average: 10
Electric dark correction enabled: true
Nonlinearity correction enabled: false
Boxcar width: 0
XAxis mode: Raman Shifts
Number of Pixels in Spectrum: 1044
>>>>>Begin Spectral Data<<<<<
46.04893	-0.5125
50.45542	0.4875
54.85868	-1.2125
59.25871	1.8875
63.6555	26.3875
68.04907	32.3875
72.43941	31.4875
76.82654	33.2875
81.21044	33.8875
85.59113	39.8875
89.96862	35.7875
94.34289	38.9875
98.71396	36.4875
103.08183	38.6875
107.4465	39.1875
111.80798	42.1875
116.16626	45.7875
120.52136	49.4875
124.87327	46.5875
129.222	43.6875
133.56755	51.5875
137.90993	51.0875
142.24913	53.5875
146.58517	60.1875
150.91804	71.1875
155.24774	80.6875
159.57429	96.5875
163.89768	121.2875
168.21792	160.1875
172.53501	207.4875
176.84895	277.1875
181.15975	385.8875
185.46741	521.3875
189.77193	719.4875
194.07331	954.4875
198.37157	1229.7875
202.6667	1514.4875
206.9587	1800.3875
211.24758	2081.5875
215.53334	2378.1875
219.81599	2669.7875
224.09553	2996.5875
228.37195	3380.0875
232.64527	3766.0875
236.91549	4179.9875
241.18261	4510.7875
245.44663	4828.4875
249.70755	5036.8875
253.96539	5226.5875
258.22014	5351.8875
262.4718	5450.5875
266.72039	5522.9875
270.96589	5540.0875
275.20832	5503.5875
279.44768	5438.9875
283.68397	5358.2875
287.91719	5264.7875
292.14735	5253.7875
296.37445	5357.3875
300.59849	5581.8875
304.81948	5841.3875
309.03742	6059.2875
313.25231	6046.4875
317.46415	5795.7875
321.67296	5316.8875
325.87872	4891.3875
330.08145	4666.9875
334.28114	4617.6875
338.47781	4667.6875
342.67145	4780.0875
346.86207	4996.1875
351.04966	5318.2875
355.23424	5705.5875
359.4158	6003.0875
363.59435	6167.4875
367.76989	6240.0875
371.94243	6254.5875
376.11196	6239.1875
380.27849	6261.0875
384.44203	6203.5875
388.60257	6134.5875
392.76012	6074.5875
396.91468	6112.6875
401.06626	6251.8875
405.21485	6366.6875
409.36047	6198.4875
413.50311	5826.8875
417.64277	5469.5875
421.77947	5232.7875
425.9132	5114.3875
430.04396	5086.7875
434.17176	5103.1875
438.2966	5209.0875
442.41849	5355.1875
446.53742	5525.0875
450.6534	5716.6875
454.76644	5808.8875
458.87653	5786.3875
462.98368	5693.5875
467.08789	5580.9875
471.18916	5453.4875
475.2875	5349.2875
479.38291	5293.9875
483.4754	5298.5875
487.56496	5383.7875
491.6516	5505.5875
495.73531	5561.2875
499.81612	5500.7875
503.89401	5424.1875
507.96899	5412.6875
512.04106	5482.0875
516.11023	5637.2875
520.1765	5786.0875
524.23987	5901.5875
528.30034	5866.1875
532.35792	5732.3875
536.41261	5538.4875
540.46441	5300.0875
544.51333	5093.0875
548.55936	5006.7875
552.60252	5022.2875
556.64279	5144.8875
560.6802	5196.1875
564.71473	5291.8875
568.7464	5527.9875
572.7752	5726.6875
576.80114	5553.4875
580.82422	5367.4875
584.84444	5350.2875
588.86181	5479.0875
592.87633	5606.2875
596.888	5688.6875
600.89682	5769.9875
604.9028	6359.7875
608.90594	8182.1875
612.90624	10806.6875
616.90371	10924.1875
620.89834	8200.2875
624.89015	7132.0875
628.87913	7412.0875
632.86528	7903.5875
636.84862	8123.7875
640.82913	7802.2875
644.80683	7086.8875
648.78172	6369.5875
652.75379	5915.8875
656.72306	5800.1875
660.68952	5863.1875
664.65319	5674.8875
668.61405	5332.2875
672.57211	5121.0875
676.52738	5068.5875
680.47986	5062.1875
684.42955	4999.6875
688.37646	4984.5875
692.32058	4994.0875
696.26192	5019.5875
700.20048	5052.6875
704.13626	5076.3875
708.06928	5003.4875
711.99952	4944.0875
715.927	4944.5875
719.85171	5049.1875
723.77365	5111.1875
727.69284	5070.1875
731.60928	4980.1875
735.52295	4890.8875
739.43388	4898.6875
743.34206	4902.7875
747.24749	4917.8875
751.15017	4952.2875
755.05012	5016.6875
758.94733	5239.1875
762.8418	5810.4875
766.73354	6821.7875
770.62254	7901.8875
774.50882	8546.3875
778.39237	8306.1875
782.27321	7197.6875
786.15132	6065.1875
790.02671	5411.5875
793.89938	5166.3875
797.76935	5140.8875
801.6366	5297.5875
805.50115	5682.8875
809.36299	6071.5875
813.22213	6183.4875
817.07857	5953.3875
820.93231	5578.8875
824.78336	5228.8875
828.63172	5004.0875
832.47738	4876.0875
836.32036	4785.9875
840.16066	4711.3875
843.99827	4678.9875
847.8332	4629.9875
851.66546	4620.8875
855.49504	4623.0875
859.32195	4630.4875
863.1462	4673.5875
866.96777	4775.8875
870.78668	4943.0875
874.60293	5195.0875
878.41652	5490.3875
882.22745	5772.0875
886.03573	5911.5875
889.84136	5844.3875
893.64433	5573.2875
897.44466	5269.0875
901.24235	4972.2875
905.0374	4738.2875
908.8298	4592.0875
912.61957	4506.5875
916.40671	4444.2875
920.19121	4452.5875
923.97308	4468.9875
927.75233	4510.7875
931.52895	4542.5875
935.30295	4527.5875
939.07433	4401.1875
942.84309	4269.8875
946.60924	4189.4875
950.37278	4143.9875
954.13371	4142.7875
957.89203	4124.4875
961.64774	4119.0875
965.40086	4101.6875
969.15137	4085.6875
972.89929	4080.3875
976.64461	4074.7875
980.38733	4080.2875
984.12747	4094.7875
987.86502	4127.2875
991.59999	4186.9875
995.33237	4289.4875
999.06217	4447.7875
1002.78939	4659.6875
1006.51404	4906.5875
1010.23611	5101.4875
1013.95561	5243.3875
1017.67255	5221.8875
1021.38692	5126.6875
1025.09872	4916.6875
1028.80796	4731.5875
1032.51465	4588.0875
1036.21877	4503.4875
1039.92035	4472.4875
1043.61937	4453.4875
1047.31584	4444.2875
1051.00976	4451.9875
1054.70114	4460.6875
1058.38998	4497.6875
1062.07627	4564.2875
1065.76003	4679.1875
1069.44126	4734.6875
1073.11995	4777.8875
1076.79611	4795.3875
1080.46974	4834.8875
1084.14085	4904.6875
1087.80943	4968.1875
1091.47549	4980.5875
1095.13903	4848.5875
1098.80005	4672.0875
1102.45857	4536.2875
1106.11456	4519.7875
1109.76805	4597.1875
1113.41903	4812.7875
1117.06751	5126.9875
1120.71348	5604.5875
1124.35696	6208.2875
1127.99793	6918.7875
1131.63641	7361.5875
1135.2724	7364.4875
1138.90589	7164.4875
1142.5369	6811.2875
1146.16542	6303.5875
1149.79145	5792.6875
1153.415	5358.0875
1157.03607	5053.4875
1160.65467	4938.8875
1164.27079	4950.3875
1167.88443	5165.5875
1171.49561	5564.4875
1175.10432	6309.0875
1178.71056	7340.7875
1182.31434	8233.6875
1185.91565	8585.5875
1189.51451	8573.0875
1193.11091	8414.2875
1196.70485	8221.5875
1200.29634	8129.6875
1203.88538	7922.9875
1207.47197	7452.5875
1211.05612	6852.9875
1214.63782	6351.4875
1218.21708	5925.0875
1221.79391	5616.0875
1225.36829	5378.2875
1228.94024	5192.4875
1232.50976	5058.0875
1236.07685	4999.5875
1239.6415	5009.4875
1243.20374	5067.2875
1246.76355	5097.9875
1250.32093	5151.5875
1253.8759	5262.4875
1257.42845	5416.8875
1260.97859	5581.9875
1264.52631	5751.0875
1268.07163	5909.4875
1271.61453	6004.1875
1275.15503	6060.5875
1278.69312	6031.8875
1282.22882	6016.5875
1285.76211	6134.1875
1289.29301	6358.8875
1292.82151	6662.1875
1296.34761	6977.7875
1299.87133	7391.2875
1303.39266	8092.5875
1306.9116	9155.1875
1310.42815	10332.3875
1313.94233	11131.9875
1317.45412	10912.0875
1320.96354	10095.4875
1324.47058	9214.6875
1327.97525	8393.3875
1331.47754	7912.4875
1334.97747	7804.1875
1338.47502	7924.2875
1341.97022	8228.8875
1345.46305	8668.8875
1348.95352	9352.8875
1352.44163	10218.3875
1355.92738	11425.1875
1359.41078	13117.3875
1362.89183	14612.2875
1366.37053	14250.6875
1369.84688	12206.2875
1373.32088	10113.7875
1376.79254	8675.5875
1380.26186	7888.9875
1383.72883	7464.9875
1387.19347	7167.6875
1390.65578	6818.9875
1394.11575	6559.2875
1397.57339	6444.7875
1401.0287	6363.1875
1404.48168	6310.3875
1407.93234	6245.3875
1411.38068	6151.6875
1414.82669	6039.8875
1418.27039	5850.8875
1421.71177	5687.8875
1425.15083	5503.9875
1428.58758	5410.9875
1432.02203	5452.0875
1435.45416	5523.7875
1438.88399	5568.1875
1442.31151	5561.5875
1445.73673	5605.8875
1449.15965	5644.3875
1452.58027	5621.8875
1455.9986	5504.5875
1459.41463	5483.9875
1462.82837	5520.7875
1466.23982	5658.1875
1469.64898	5803.0875
1473.05586	5889.4875
1476.46045	6001.7875
1479.86276	6128.9875
1483.26279	6303.9875
1486.66054	6552.6875
1490.05602	6808.0875
1493.44922	7162.7875
1496.84016	7642.1875
1500.22882	8390.5875
1503.61521	9517.1875
1506.99934	10761.0875
1510.38121	11865.5875
1513.76081	12325.6875
1517.13816	11640.6875
1520.51324	10134.1875
1523.88607	8614.1875
1527.25665	7578.3875
1530.62498	7065.3875
1533.99105	6829.8875
1537.35488	6729.4875
1540.71647	6700.6875
1544.07581	6748.1875
1547.4329	6816.9875
1550.78776	6840.1875
1554.14038	6805.4875
1557.49077	6827.6875
1560.83892	6862.3875
1564.18484	7001.2875
1567.52853	7226.7875
1570.86999	7459.7875
1574.20922	7615.5875
1577.54624	7607.7875
1580.88103	7274.1875
1584.2136	6776.7875
1587.54395	6513.6875
1590.87208	6532.8875
1594.19801	6854.2875
1597.52172	7397.8875
1600.84321	7754.0875
1604.16251	7685.6875
1607.47959	7309.5875
1610.79447	6816.6875
1614.10715	6318.1875
1617.41763	5932.5875
1620.7259	5717.3875
1624.03199	5632.8875
1627.33587	5673.1875
1630.63757	5769.7875
1633.93707	6049.7875
1637.23439	6501.1875
1640.52951	7162.4875
1643.82246	8150.6875
1647.11321	9324.7875
1650.40179	10242.1875
1653.68819	10180.9875
1656.97241	9038.1875
1660.25446	7643.3875
1663.53433	6550.0875
1666.81203	5793.6875
1670.08756	5318.3875
1673.36092	5004.4875
1676.63211	4746.5875
1679.90115	4594.8875
1683.16801	4465.3875
1686.43272	4332.1875
1689.69527	4250.9875
1692.95567	4147.8875
1696.2139	4087.8875
1699.46999	4015.4875
1702.72392	3946.1875
1705.97571	3872.1875
1709.22535	3813.2875
1712.47284	3765.0875
1715.71819	3728.0875
1718.96139	3691.6875
1722.20246	3632.6875
1725.44139	3583.6875
1728.67818	3526.7875
1731.91284	3483.6875
1735.14537	3430.7875
1738.37576	3396.4875
1741.60403	3381.5875
1744.83017	3361.7875
1748.05418	3348.3875
1751.27607	3323.1875
1754.49584	3308.0875
1757.71349	3281.3875
1760.92903	3275.3875
1764.14244	3265.2875
1767.35375	3246.5875
1770.56294	3222.4875
1773.77002	3204.9875
1776.97499	3190.3875
1780.17785	3160.7875
1783.37861	3165.6875
1786.57727	3151.0875
1789.77382	3135.1875
1792.96828	3119.8875
1796.16064	3101.7875
1799.3509	3102.2875
1802.53907	3086.6875
1805.72514	3073.6875
1808.90913	3059.1875
1812.09102	3051.3875
1815.27083	3042.4875
1818.44856	3025.4875
1821.6242	3012.9875
1824.79776	3014.9875
1827.96924	3005.2875
1831.13864	2994.8875
1834.30597	2997.4875
1837.47122	2980.1875
1840.6344	2967.0875
1843.7955	2966.8875
1846.95454	2961.9875
1850.11151	2963.5875
1853.26642	2965.6875
1856.41926	2960.3875
1859.57004	2946.6875
1862.71876	2955.3875
1865.86542	2939.6875
1869.01003	2953.7875
1872.15258	2945.2875
1875.29308	2926.3875
1878.43152	2936.4875
1881.56792	2934.9875
1884.70227	2908.9875
1887.83457	2909.9875
1890.96482	2916.5875
1894.09304	2911.1875
1897.21921	2907.5875
1900.34335	2910.0875
1903.46544	2900.8875
1906.58551	2902.5875
1909.70353	2893.3875
1912.81953	2881.7875
1915.93349	2884.2875
1919.04543	2864.9875
1922.15534	2864.3875
1925.26322	2860.0875
1928.36908	2860.1875
1931.47292	2845.1875
1934.57473	2829.6875
1937.67453	2828.8875
1940.77232	2810.8875
1943.86808	2818.6875
1946.96184	2804.8875
1950.05358	2779.5875
1953.14331	2779.0875
1956.23103	2767.4875
1959.31675	2757.2875
1962.40046	2746.3875
1965.48217	2740.0875
1968.56188	2741.8875
1971.63959	2737.5875
1974.7153	2721.9875
1977.78901	2713.3875
1980.86073	2710.9875
1983.93046	2703.4875
1986.99819	2687.3875
1990.06394	2677.6875
1993.1277	2669.1875
1996.18947	2709.8875
1999.24925	2667.9875
2002.30706	2637.5875
2005.36288	2631.3875
2008.41672	2625.6875
2011.46859	2619.4875
2014.51848	2604.0875
2017.56639	2586.9875
2020.61233	2594.9875
2023.6563	2582.8875
2026.6983	2568.6875
2029.73833	2567.3875
2032.7764	2560.4875
2035.8125	2564.5875
2038.84664	2551.5875
2041.87881	2548.4875
2044.90903	2535.9875
2047.93729	2535.6875
2050.96359	2529.3875
2053.98794	2536.2875
2057.01034	2527.4875
2060.03078	2526.9875
2063.04927	2521.4875
2066.06582	2510.2875
2069.08042	2514.7875
2072.09307	2509.3875
2075.10378	2506.5875
2078.11255	2499.6875
2081.11938	2508.0875
2084.12426	2510.0875
2087.12722	2503.5875
2090.12824	2498.2875
2093.12732	2495.3875
2096.12447	2489.4875
2099.11969	2506.8875
2102.11299	2491.5875
2105.10435	2489.3875
2108.09379	2494.6875
2111.08131	2491.7875
2114.0669	2481.5875
2117.05057	2490.9875
2120.03233	2491.1875
2123.01216	2504.1875
2125.99008	2499.0875
2128.96609	2499.6875
2131.94018	2502.0875
2134.91236	2496.8875
2137.88263	2502.3875
2140.851	2499.8875
2143.81746	2510.4875
2146.78201	2484.3875
2149.74466	2503.4875
2152.7054	2506.0875
2155.66425	2494.1875
2158.6212	2486.3875
2161.57625	2461.7875
2164.52941	2480.6875
2167.48067	2475.5875
2170.43004	2476.7875
2173.37752	2475.0875
2176.32311	2464.1875
2179.26681	2468.8875
2182.20863	2468.1875
2185.14856	2470.4875
2188.08661	2477.4875
2191.02278	2467.3875
2193.95707	2451.3875
2196.88948	2449.5875
2199.82001	2448.7875
2202.74867	2452.9875
2205.67545	2445.2875
2208.60037	2437.1875
2211.52341	2446.5875
2214.44458	2439.1875
2217.36388	2420.6875
2220.28132	2422.8875
2223.1969	2394.7875
2226.11061	2412.5875
2229.02246	2397.5875
2231.93245	2399.2875
2234.84058	2403.3875
2237.74686	2395.3875
2240.65128	2378.1875
2243.55385	2388.7875
2246.45456	2371.0875
2249.35343	2368.8875
2252.25044	2374.9875
2255.14561	2368.5875
2258.03893	2379.7875
2260.93041	2373.3875
2263.82004	2361.7875
2266.70783	2361.1875
2269.59378	2362.2875
2272.4779	2351.8875
2275.36017	2341.2875
2278.24061	2334.0875
2281.11922	2343.7875
2283.996	2322.4875
2286.87094	2326.3875
2289.74405	2317.0875
2292.61534	2305.9875
2295.4848	2296.4875
2298.35243	2296.8875
2301.21824	2275.6875
2304.08223	2276.5875
2306.94439	2281.3875
2309.80474	2283.8875
2312.66327	2279.7875
2315.51999	2270.9875
2318.37489	2276.1875
2321.22797	2269.6875
2324.07925	2265.9875
2326.92871	2264.4875
2329.77637	2264.3875
2332.62222	2248.1875
2335.46626	2246.4875
2338.3085	2254.6875
2341.14893	2248.6875
2343.98756	2242.7875
2346.8244	2250.5875
2349.65943	2249.8875
2352.49267	2243.1875
2355.32411	2244.5875
2358.15376	2265.5875
2360.98161	2263.0875
2363.80768	2257.5875
2366.63195	2267.3875
2369.45444	2267.8875
2372.27514	2266.2875
2375.09405	2272.9875
2377.91118	2266.3875
2380.72652	2260.4875
2383.54009	2245.0875
2386.35187	2230.5875
2389.16188	2219.5875
2391.97011	2217.3875
2394.77657	2209.4875
2397.58125	2199.0875
2400.38416	2202.9875
2403.18529	2193.9875
2405.98466	2187.7875
2408.78226	2185.7875
2411.57809	2174.8875
2414.37216	2163.8875
2417.16446	2165.0875
2419.955	2164.4875
2422.74378	2150.3875
2425.5308	2157.8875
2428.31606	2149.2875
2431.09956	2130.7875
2433.88131	2143.0875
2436.6613	2136.4875
2439.43954	2139.1875
2442.21603	2133.4875
2444.99077	2145.8875
2447.76377	2139.4875
2450.53501	2142.0875
2453.30451	2148.9875
2456.07226	2138.8875
2458.83827	2127.0875
2461.60254	2129.3875
2464.36507	2130.4875
2467.12586	2124.9875
2469.88492	2125.3875
2472.64224	2119.0875
2475.39782	2123.2875
2478.15167	2129.9875
2480.90379	2125.6875
2483.65417	2139.2875
2486.40283	2136.7875
2489.14976	2140.6875
2491.89497	2136.6875
2494.63845	2133.5875
2497.3802	2136.0875
2500.12024	2136.7875
2502.85855	2129.9875
2505.59514	2123.1875
2508.33002	2114.0875
2511.06318	2110.8875
2513.79462	2094.3875
2516.52435	2088.6875
2519.25237	2076.5875
2521.97867	2067.4875
2524.70327	2056.7875
2527.42616	2059.0875
2530.14734	2056.4875
2532.86681	2048.9875
2535.58458	2050.1875
2538.30065	2050.3875
2541.01501	2054.2875
2543.72768	2044.0875
2546.43864	2033.0875
2549.14791	2024.8875
2551.85548	2039.5875
2554.56136	2030.2875
2557.26554	2036.4875
2559.96803	2022.9875
2562.66883	2032.9875
2565.36794	2020.4875
2568.06536	2026.0875
2570.7611	2012.5875
2573.45514	2015.6875
2576.14751	2009.5875
2578.83819	2004.8875
2581.52719	1997.0875
2584.21451	2005.9875
2586.90015	1995.3875
2589.58411	1992.0875
2592.2664	1988.9875
2594.94701	1978.4875
2597.62594	1982.3875
2600.30321	1964.0875
2602.9788	1970.6875
2605.65273	1973.6875
2608.32498	1973.7875
2610.99557	1966.6875
2613.66449	1962.7875
2616.33175	1961.2875
2618.99734	1964.1875
2621.66128	1955.6875
2624.32355	1963.6875
2626.98416	1956.2875
2629.64311	1954.4875
2632.30041	1955.7875
2634.95605	1941.2875
2637.61004	1943.3875
2640.26238	1940.6875
2642.91306	1931.2875
2645.56209	1920.1875
2648.20948	1933.1875
2650.85521	1931.8875
2653.4993	1925.7875
2656.14175	1931.6875
2658.78255	1927.5875
2661.42171	1927.9875
2664.05923	1927.9875
2666.6951	1913.3875
2669.32934	1929.5875
2671.96194	1941.4875
2674.59291	1935.5875
2677.22224	1943.5875
2679.84993	1937.7875
2682.476	1942.5875
2685.10043	1943.4875
2687.72324	1934.5875
2690.34441	1932.8875
2692.96396	1944.4875
2695.58188	1946.3875
2698.19818	1943.2875
2700.81285	1942.4875
2703.4259	1953.8875
2706.03733	1970.3875
2708.64714	1973.6875
2711.25533	1961.9875
2713.86191	1953.1875
2716.46687	1970.7875
2719.07021	1958.6875
2721.67194	1961.7875
2724.27206	1956.2875
2726.87057	1961.7875
2729.46747	1957.6875
2732.06276	1963.0875
2734.65644	1950.3875
2737.24852	1939.7875
2739.83899	1940.9875
2742.42786	1937.8875
2745.01513	1934.7875
2747.60079	1936.6875
2750.18486	1928.5875
2752.76733	1925.1875
2755.3482	1926.7875
2757.92747	1921.6875
2760.50515	1922.1875
2763.08123	1927.9875
2765.65573	1917.9875
2768.22863	1924.8875
2770.79994	1911.4875
2773.36967	1917.9875
2775.9378	1929.6875
2778.50435	1917.8875
2781.06932	1906.9875
2783.6327	1915.1875
2786.1945	1919.3875
2788.75471	1915.8875
2791.31335	1919.8875
2793.87041	1911.9875
2796.42589	1912.9875
2798.97979	1912.3875
2801.53212	1907.0875
2804.08288	1908.4875
2806.63206	1917.7875
2809.17967	1903.9875
2811.72571	1902.3875
2814.27018	1902.9875
2816.81308	1910.5875
2819.35442	1913.7875
2821.89419	1907.1875
2824.43239	1917.2875
2826.96904	1921.2875
2829.50412	1917.3875
2832.03763	1915.3875
2834.56959	1925.2875
2837.1	1926.0875
2839.62884	1930.6875
2842.15613	1936.3875
2844.68186	1948.6875
2847.20604	1955.0875
2849.72867	1961.1875
2852.24974	1975.5875
2854.76927	1968.3875
2857.28724	1972.5875
2859.80367	1966.1875
2862.31855	1966.0875
2864.83189	1962.8875
2867.34368	1963.2875
2869.85393	1959.3875
2872.36264	1961.8875
2874.8698	1968.2875
2877.37543	1962.8875
2879.87952	1973.0875
2882.38207	1971.9875
2884.88308	1958.8875
2887.38256	1959.2875
2889.88051	1951.5875
2892.37692	1969.0875
2894.8718	1967.7875
2897.36515	1961.3875
2899.85698	1966.4875
2902.34727	1965.9875
2904.83604	1968.3875
2907.32328	1977.6875
2909.809	1958.5875
2912.29319	1977.9875
2914.77587	1970.3875
2917.25702	1968.4875
2919.73665	1976.8875
2922.21476	1962.1875
2924.69136	1950.5875
2927.16644	1962.4875
2929.64	1949.2875
2932.11205	1937.5875
2934.58258	1949.5875
2937.05161	1937.7875
2939.51912	1927.6875
2941.98513	1924.2875
2944.44962	1918.9875
2946.91261	1907.5875
2949.37409	1906.8875
2951.83407	1899.0875
2954.29254	1886.9875
2956.74951	1882.9875
2959.20498	1886.8875
2961.65895	1873.1875
2964.11142	1875.5875
2966.56239	1872.6875
2969.01186	1869.2875
2971.45984	1864.0875
2973.90632	1858.3875
2976.35131	1850.3875
2978.7948	1854.5875
2981.23681	1840.5875
2983.67732	1845.2875
2986.11635	1834.4875
2988.55388	1834.4875
2990.98993	1829.1875
2993.4245	1817.6875
2995.85758	1817.2875
2998.28917	1821.1875
3000.71928	1816.0875
3003.14791	1825.7875
3005.57506	1823.4875
3008.00073	1823.2875
3010.42493	1816.5875
3012.84764	1817.0875
3015.26888	1821.5875
3017.68865	1819.5875
3020.10694	1820.0875
3022.52376	1818.6875
3024.9391	1822.1875
3027.35298	1809.9875
3029.76539	1806.6875
3032.17632	1822.7875
3034.5858	1817.1875
3036.9938	1816.7875
3039.40034	1824.7875
3041.80542	1815.3875
3044.20903	1805.0875
3046.61118	1823.7875
3049.01187	1816.6875
3051.4111	1815.7875
3053.80888	1815.4875
3056.20519	1819.9875
3058.60005	1817.0875
3060.99345	1817.6875
3063.3854	1819.2875
3065.7759	1816.5875
3068.16494	1815.6875
3070.55254	1811.8875
3072.93868	1812.0875
3075.32338	1823.0875
3077.70662	1818.5875
3080.08842	1813.7875
3082.46878	1820.3875
3084.84769	1810.8875
3087.22515	1822.9875
3089.60118	1830.3875
3091.97576	1836.8875
3094.3489	1822.3875
3096.72061	1831.9875
3099.09087	1843.2875
3101.4597	1842.2875
3103.82709	1851.4875
3106.19305	1848.3875
3108.55757	1861.6875
3110.92066	1841.8875
3113.28232	1845.6875
3115.64255	1857.3875
3118.00134	1860.2875
3120.35871	1849.5875
3122.71466	1870.5875
3125.06917	1872.2875
3127.42226	1866.2875
3129.77393	1882.5875
3132.12417	1886.5875
3134.47299	1899.1875
3136.82039	1897.2875
3139.16636	1896.6875
3141.51092	1919.3875
3143.85406	1920.0875
3146.19579	1926.9875
3148.53609	1946.7875
3150.87499	1942.6875
3153.21246	1954.6875
3155.54853	1963.2875
3157.88318	1968.6875
3160.21642	1981.1875
3162.54826	1984.5875
3164.87868	1983.5875
3167.2077	1985.8875
3169.5353	1993.9875
3171.86151	2002.7875
3174.18631	2005.9875
3176.5097	2006.9875
3178.83169	2015.6875
3181.15228	2010.1875
3183.47147	2021.7875
3185.78926	2033.2875
3188.10565	2037.3875
3190.42065	2043.8875
3192.73424	2049.0875
3195.04645	2044.8875
3197.35725	2050.2875
3199.66667	2065.5875
3201.97469	2083.8875
3204.28132	2090.3875
3206.58656	2094.1875
3208.8904	2093.9875
3211.19287	2098.3875
3213.49394	2114.7875
3215.79363	2119.9875
3218.09193	2117.2875
3220.38884	2121.6875
3222.68438	2121.1875
3224.97853	2125.5875
3227.2713	2129.0875
3229.56269	2122.1875
3231.8527	2120.0875
3234.14133	2119.3875
3236.42858	2123.6875
3238.71446	2116.2875
3240.99896	2116.7875
3243.28209	2132.0875
3245.56384	2131.9875
3247.84423	2117.2875
3250.12324	2119.2875
3252.40088	2122.7875
3254.67715	2128.1875
3256.95205	2120.2875
3259.22558	2129.2875
3261.49775	2116.8875
3263.76855	2123.8875
3266.03799	2116.9875
3268.30606	2117.3875
3270.57277	2113.6875
3272.83812	2108.1875
3275.10211	2111.7875
3277.36474	2107.6875
3279.62601	2111.0875
3281.88593	2112.5875
3284.14448	2117.8875
3286.40168	2114.3875
3288.65753	2108.9875
3290.91202	2105.4875
3293.16516	2105.2875
3295.41695	2096.3875
3297.66738	2100.9875
3299.91647	2085.7875
3302.16421	2061.8875
3304.4106	2062.5875
3306.65564	2052.2875
3308.89933	2031.1875
3311.14169	2033.4875
3313.38269	2012.2875
3315.62236	1988.3875
3317.86068	1977.0875
3320.09766	1958.9875
3322.3333	1940.4875
3324.5676	1952.6875
3326.80056	1922.5875
3329.03219	1906.3875
3331.26248	-0.4125
3333.49143	0.2875
3335.71905	-0.6125
