Data from AgNPs_FTO_APTES_UA_0.1mM_CRN_100uM_NaF_0.1M_Addition_RamanShift__10__13-27-57-679.txt Node

Date: Mon Dec 20 13:27:57 GMT 2021
User: TCL
Spectrometer: QEP01345
Trigger mode: 4
Integration Time (sec): 7.000000E0
Scans to average: 10
Electric dark correction enabled: true
Nonlinearity correction enabled: false
Boxcar width: 0
XAxis mode: Raman Shifts
Number of Pixels in Spectrum: 1044
>>>>>Begin Spectral Data<<<<<
46.04893	0.6875
50.45542	0.6875
54.85868	-1.3125
59.25871	1.9875
63.6555	28.2875
68.04907	31.9875
72.43941	33.8875
76.82654	34.6875
81.21044	32.8875
85.59113	38.7875
89.96862	33.7875
94.34289	40.2875
98.71396	38.9875
103.08183	40.4875
107.4465	44.5875
111.80798	45.1875
116.16626	45.8875
120.52136	47.7875
124.87327	47.3875
129.222	47.3875
133.56755	52.9875
137.90993	56.2875
142.24913	60.6875
146.58517	67.9875
150.91804	79.7875
155.24774	88.9875
159.57429	107.0875
163.89768	141.5875
168.21792	185.9875
172.53501	246.6875
176.84895	341.1875
181.15975	475.5875
185.46741	669.4875
189.77193	924.6875
194.07331	1245.4875
198.37157	1609.9875
202.6667	1990.8875
206.9587	2378.2875
211.24758	2760.8875
215.53334	3128.7875
219.81599	3525.1875
224.09553	3982.5875
228.37195	4477.4875
232.64527	5035.3875
236.91549	5648.2875
241.18261	6258.0875
245.44663	6816.3875
249.70755	7315.1875
253.96539	7665.4875
258.22014	7874.5875
262.4718	7931.4875
266.72039	7875.7875
270.96589	7690.5875
275.20832	7451.8875
279.44768	7155.6875
283.68397	6879.6875
287.91719	6626.8875
292.14735	6432.2875
296.37445	6255.8875
300.59849	6138.6875
304.81948	6062.6875
309.03742	5984.9875
313.25231	5909.9875
317.46415	5829.2875
321.67296	5762.2875
325.87872	5713.6875
330.08145	5644.8875
334.28114	5644.2875
338.47781	5621.2875
342.67145	5640.7875
346.86207	5655.2875
351.04966	5678.3875
355.23424	5740.0875
359.4158	5770.4875
363.59435	5811.1875
367.76989	5856.3875
371.94243	5890.1875
376.11196	5937.4875
380.27849	5982.7875
384.44203	6043.8875
388.60257	6121.3875
392.76012	6241.6875
396.91468	6384.8875
401.06626	6551.7875
405.21485	6709.8875
409.36047	6809.5875
413.50311	6795.0875
417.64277	6732.2875
421.77947	6654.8875
425.9132	6589.8875
430.04396	6557.1875
434.17176	6516.6875
438.2966	6508.3875
442.41849	6514.7875
446.53742	6504.3875
450.6534	6557.2875
454.76644	6579.4875
458.87653	6600.9875
462.98368	6594.0875
467.08789	6596.0875
471.18916	6626.7875
475.2875	6662.6875
479.38291	6701.1875
483.4754	6801.6875
487.56496	6905.5875
491.6516	6995.7875
495.73531	7095.7875
499.81612	7152.9875
503.89401	7204.4875
507.96899	7211.4875
512.04106	7178.5875
516.11023	7099.7875
520.1765	6976.8875
524.23987	6878.9875
528.30034	6793.8875
532.35792	6734.0875
536.41261	6663.7875
540.46441	6614.4875
544.51333	6589.4875
548.55936	6564.5875
552.60252	6578.0875
556.64279	6625.6875
560.6802	6643.9875
564.71473	6685.0875
568.7464	6717.4875
572.7752	6744.1875
576.80114	6763.9875
580.82422	6797.7875
584.84444	6873.7875
588.86181	6948.8875
592.87633	7003.7875
596.888	7015.9875
600.89682	7084.4875
604.9028	7173.3875
608.90594	7418.2875
612.90624	7675.3875
616.90371	7658.4875
620.89834	7379.0875
624.89015	7232.3875
628.87913	7304.3875
632.86528	7451.6875
636.84862	7625.2875
640.82913	7686.0875
644.80683	7660.8875
648.78172	7574.1875
652.75379	7500.0875
656.72306	7425.7875
660.68952	7383.8875
664.65319	7391.9875
668.61405	7377.4875
672.57211	7429.3875
676.52738	7445.0875
680.47986	7471.7875
684.42955	7426.6875
688.37646	7377.9875
692.32058	7337.6875
696.26192	7278.6875
700.20048	7196.1875
704.13626	7102.1875
708.06928	6992.6875
711.99952	6885.3875
715.927	6803.8875
719.85171	6742.4875
723.77365	6715.3875
727.69284	6710.4875
731.60928	6699.9875
735.52295	6693.1875
739.43388	6722.8875
743.34206	6820.8875
747.24749	6888.7875
751.15017	6955.2875
755.05012	7057.5875
758.94733	7142.0875
762.8418	7226.0875
766.73354	7298.5875
770.62254	7346.9875
774.50882	7332.7875
778.39237	7232.3875
782.27321	7026.7875
786.15132	6846.9875
790.02671	6722.3875
793.89938	6680.4875
797.76935	6708.0875
801.6366	6802.0875
805.50115	6927.1875
809.36299	7044.7875
813.22213	7083.5875
817.07857	7037.3875
820.93231	6871.8875
824.78336	6712.0875
828.63172	6568.3875
832.47738	6461.5875
836.32036	6408.7875
840.16066	6410.8875
843.99827	6385.6875
847.8332	6395.9875
851.66546	6389.6875
855.49504	6413.9875
859.32195	6418.9875
863.1462	6416.2875
866.96777	6436.5875
870.78668	6441.5875
874.60293	6474.1875
878.41652	6533.0875
882.22745	6598.4875
886.03573	6649.2875
889.84136	6679.3875
893.64433	6698.0875
897.44466	6648.0875
901.24235	6622.1875
905.0374	6573.3875
908.8298	6520.0875
912.61957	6450.2875
916.40671	6427.3875
920.19121	6402.1875
923.97308	6375.2875
927.75233	6366.9875
931.52895	6321.3875
935.30295	6296.0875
939.07433	6263.6875
942.84309	6229.9875
946.60924	6207.1875
950.37278	6194.9875
954.13371	6206.3875
957.89203	6202.0875
961.64774	6216.6875
965.40086	6190.3875
969.15137	6183.3875
972.89929	6165.2875
976.64461	6188.1875
980.38733	6163.2875
984.12747	6169.1875
987.86502	6183.8875
991.59999	6191.7875
995.33237	6210.8875
999.06217	6247.2875
1002.78939	6277.9875
1006.51404	6301.1875
1010.23611	6348.2875
1013.95561	6373.9875
1017.67255	6394.1875
1021.38692	6424.2875
1025.09872	6409.1875
1028.80796	6402.7875
1032.51465	6386.6875
1036.21877	6357.0875
1039.92035	6359.7875
1043.61937	6356.4875
1047.31584	6344.2875
1051.00976	6350.3875
1054.70114	6352.4875
1058.38998	6387.0875
1062.07627	6395.7875
1065.76003	6430.0875
1069.44126	6438.4875
1073.11995	6470.3875
1076.79611	6474.8875
1080.46974	6471.8875
1084.14085	6435.2875
1087.80943	6430.0875
1091.47549	6399.0875
1095.13903	6403.9875
1098.80005	6381.3875
1102.45857	6353.8875
1106.11456	6384.0875
1109.76805	6380.7875
1113.41903	6450.2875
1117.06751	6571.3875
1120.71348	6719.4875
1124.35696	6904.9875
1127.99793	7134.0875
1131.63641	7338.4875
1135.2724	7452.7875
1138.90589	7477.7875
1142.5369	7445.4875
1146.16542	7343.6875
1149.79145	7175.7875
1153.415	6994.9875
1157.03607	6825.3875
1160.65467	6668.9875
1164.27079	6602.7875
1167.88443	6568.8875
1171.49561	6610.0875
1175.10432	6694.0875
1178.71056	6819.2875
1182.31434	6978.3875
1185.91565	7074.1875
1189.51451	7118.3875
1193.11091	7135.8875
1196.70485	7151.1875
1200.29634	7168.5875
1203.88538	7200.6875
1207.47197	7201.7875
1211.05612	7224.0875
1214.63782	7238.5875
1218.21708	7245.7875
1221.79391	7238.4875
1225.36829	7185.9875
1228.94024	7125.4875
1232.50976	7055.8875
1236.07685	6977.8875
1239.6415	6934.1875
1243.20374	6919.2875
1246.76355	6922.2875
1250.32093	6984.4875
1253.8759	7026.3875
1257.42845	7098.4875
1260.97859	7170.5875
1264.52631	7191.8875
1268.07163	7185.9875
1271.61453	7170.5875
1275.15503	7127.9875
1278.69312	7100.3875
1282.22882	7067.8875
1285.76211	7058.4875
1289.29301	7084.1875
1292.82151	7119.3875
1296.34761	7195.0875
1299.87133	7323.0875
1303.39266	7441.2875
1306.9116	7600.8875
1310.42815	7746.1875
1313.94233	7888.7875
1317.45412	7921.1875
1320.96354	7950.4875
1324.47058	7941.6875
1327.97525	7944.2875
1331.47754	7940.4875
1334.97747	7953.7875
1338.47502	8004.4875
1341.97022	8073.0875
1345.46305	8187.2875
1348.95352	8300.8875
1352.44163	8367.9875
1355.92738	8456.7875
1359.41078	8590.8875
1362.89183	8679.5875
1366.37053	8659.1875
1369.84688	8429.4875
1373.32088	8125.7875
1376.79254	7885.6875
1380.26186	7735.3875
1383.72883	7632.4875
1387.19347	7549.5875
1390.65578	7478.3875
1394.11575	7393.3875
1397.57339	7335.6875
1401.0287	7265.4875
1404.48168	7221.2875
1407.93234	7139.0875
1411.38068	7061.1875
1414.82669	6971.9875
1418.27039	6895.3875
1421.71177	6796.4875
1425.15083	6698.7875
1428.58758	6636.2875
1432.02203	6576.1875
1435.45416	6537.7875
1438.88399	6523.0875
1442.31151	6508.3875
1445.73673	6514.4875
1449.15965	6480.8875
1452.58027	6492.3875
1455.9986	6520.9875
1459.41463	6547.8875
1462.82837	6581.3875
1466.23982	6634.7875
1469.64898	6703.7875
1473.05586	6745.2875
1476.46045	6781.3875
1479.86276	6816.7875
1483.26279	6821.6875
1486.66054	6857.2875
1490.05602	6849.4875
1493.44922	6899.3875
1496.84016	6988.8875
1500.22882	7100.2875
1503.61521	7255.9875
1506.99934	7432.8875
1510.38121	7541.3875
1513.76081	7592.0875
1517.13816	7515.9875
1520.51324	7419.0875
1523.88607	7298.8875
1527.25665	7253.8875
1530.62498	7245.6875
1533.99105	7283.7875
1537.35488	7305.4875
1540.71647	7380.5875
1544.07581	7448.3875
1547.4329	7483.8875
1550.78776	7587.9875
1554.14038	7615.1875
1557.49077	7697.9875
1560.83892	7737.7875
1564.18484	7809.5875
1567.52853	7853.5875
1570.86999	7901.6875
1574.20922	7918.7875
1577.54624	7979.0875
1580.88103	7963.5875
1584.2136	7939.9875
1587.54395	7896.3875
1590.87208	7873.5875
1594.19801	7863.3875
1597.52172	7894.9875
1600.84321	7877.5875
1604.16251	7803.9875
1607.47959	7680.9875
1610.79447	7574.7875
1614.10715	7450.1875
1617.41763	7325.1875
1620.7259	7229.1875
1624.03199	7153.5875
1627.33587	7110.5875
1630.63757	7102.1875
1633.93707	7134.1875
1637.23439	7225.6875
1640.52951	7356.9875
1643.82246	7523.0875
1647.11321	7709.2875
1650.40179	7848.8875
1653.68819	7835.7875
1656.97241	7664.6875
1660.25446	7466.4875
1663.53433	7261.7875
1666.81203	7132.5875
1670.08756	7004.3875
1673.36092	6920.0875
1676.63211	6846.1875
1679.90115	6756.8875
1683.16801	6664.9875
1686.43272	6543.8875
1689.69527	6405.0875
1692.95567	6297.5875
1696.2139	6147.7875
1699.46999	6041.8875
1702.72392	5930.2875
1705.97571	5853.2875
1709.22535	5740.6875
1712.47284	5697.3875
1715.71819	5621.5875
1718.96139	5571.0875
1722.20246	5515.6875
1725.44139	5437.2875
1728.67818	5379.3875
1731.91284	5338.5875
1735.14537	5261.5875
1738.37576	5221.9875
1741.60403	5196.2875
1744.83017	5153.4875
1748.05418	5119.0875
1751.27607	5112.7875
1754.49584	5090.8875
1757.71349	5088.1875
1760.92903	5068.6875
1764.14244	5033.6875
1767.35375	5028.8875
1770.56294	4986.9875
1773.77002	4970.4875
1776.97499	4957.3875
1780.17785	4911.4875
1783.37861	4899.1875
1786.57727	4867.8875
1789.77382	4839.9875
1792.96828	4813.3875
1796.16064	4787.6875
1799.3509	4767.8875
1802.53907	4752.3875
1805.72514	4718.0875
1808.90913	4705.1875
1812.09102	4686.8875
1815.27083	4665.2875
1818.44856	4646.9875
1821.6242	4646.3875
1824.79776	4626.8875
1827.96924	4616.9875
1831.13864	4606.2875
1834.30597	4602.3875
1837.47122	4593.5875
1840.6344	4574.2875
1843.7955	4572.1875
1846.95454	4556.4875
1850.11151	4559.5875
1853.26642	4544.0875
1856.41926	4537.1875
1859.57004	4536.3875
1862.71876	4519.2875
1865.86542	4500.5875
1869.01003	4520.6875
1872.15258	4490.1875
1875.29308	4480.2875
1878.43152	4466.2875
1881.56792	4455.7875
1884.70227	4451.2875
1887.83457	4439.7875
1890.96482	4431.8875
1894.09304	4427.3875
1897.21921	4412.8875
1900.34335	4406.2875
1903.46544	4401.8875
1906.58551	4388.2875
1909.70353	4395.1875
1912.81953	4392.5875
1915.93349	4358.0875
1919.04543	4352.7875
1922.15534	4361.5875
1925.26322	4334.1875
1928.36908	4327.2875
1931.47292	4316.4875
1934.57473	4306.2875
1937.67453	4272.8875
1940.77232	4271.8875
1943.86808	4272.2875
1946.96184	4243.3875
1950.05358	4226.9875
1953.14331	4223.6875
1956.23103	4200.1875
1959.31675	4199.5875
1962.40046	4191.5875
1965.48217	4170.3875
1968.56188	4161.5875
1971.63959	4145.3875
1974.7153	4120.1875
1977.78901	4113.1875
1980.86073	4096.2875
1983.93046	4075.1875
1986.99819	4065.0875
1990.06394	4063.2875
1993.1277	4049.4875
1996.18947	4013.1875
1999.24925	4002.2875
2002.30706	4015.1875
2005.36288	3995.9875
2008.41672	3980.6875
2011.46859	3953.2875
2014.51848	3951.6875
2017.56639	3932.4875
2020.61233	3923.6875
2023.6563	3904.7875
2026.6983	3898.8875
2029.73833	3893.7875
2032.7764	3890.3875
2035.8125	3868.6875
2038.84664	3860.6875
2041.87881	3842.7875
2044.90903	3834.2875
2047.93729	3824.4875
2050.96359	3824.5875
2053.98794	3810.4875
2057.01034	3803.6875
2060.03078	3793.7875
2063.04927	3795.9875
2066.06582	3796.1875
2069.08042	3789.3875
2072.09307	3797.9875
2075.10378	3777.2875
2078.11255	3769.7875
2081.11938	3767.8875
2084.12426	3766.9875
2087.12722	3776.3875
2090.12824	3773.7875
2093.12732	3774.4875
2096.12447	3760.5875
2099.11969	3758.6875
2102.11299	3767.5875
2105.10435	3760.0875
2108.09379	3759.8875
2111.08131	3764.6875
2114.0669	3759.2875
2117.05057	3771.0875
2120.03233	3758.2875
2123.01216	3767.7875
2125.99008	3766.9875
2128.96609	3762.6875
2131.94018	3771.9875
2134.91236	3756.9875
2137.88263	3768.6875
2140.851	3770.1875
2143.81746	3769.1875
2146.78201	3765.7875
2149.74466	3772.9875
2152.7054	3777.2875
2155.66425	3767.8875
2158.6212	3758.5875
2161.57625	3750.1875
2164.52941	3753.8875
2167.48067	3763.4875
2170.43004	3739.9875
2173.37752	3735.6875
2176.32311	3745.0875
2179.26681	3746.2875
2182.20863	3730.2875
2185.14856	3733.9875
2188.08661	3728.7875
2191.02278	3743.8875
2193.95707	3713.3875
2196.88948	3723.0875
2199.82001	3707.1875
2202.74867	3692.5875
2205.67545	3704.7875
2208.60037	3687.9875
2211.52341	3682.7875
2214.44458	3681.6875
2217.36388	3680.6875
2220.28132	3666.4875
2223.1969	3650.4875
2226.11061	3635.8875
2229.02246	3635.2875
2231.93245	3622.0875
2234.84058	3611.7875
2237.74686	3604.7875
2240.65128	3604.4875
2243.55385	3600.4875
2246.45456	3589.0875
2249.35343	3591.2875
2252.25044	3564.8875
2255.14561	3567.3875
2258.03893	3571.6875
2260.93041	3559.3875
2263.82004	3525.4875
2266.70783	3530.4875
2269.59378	3516.3875
2272.4779	3504.9875
2275.36017	3503.7875
2278.24061	3497.4875
2281.11922	3488.4875
2283.996	3474.3875
2286.87094	3468.2875
2289.74405	3465.7875
2292.61534	3442.0875
2295.4848	3442.4875
2298.35243	3437.7875
2301.21824	3440.6875
2304.08223	3437.2875
2306.94439	3432.0875
2309.80474	3423.0875
2312.66327	3415.2875
2315.51999	3409.4875
2318.37489	3417.3875
2321.22797	3395.7875
2324.07925	3388.5875
2326.92871	3379.7875
2329.77637	3381.2875
2332.62222	3383.3875
2335.46626	3364.5875
2338.3085	3364.9875
2341.14893	3354.5875
2343.98756	3340.7875
2346.8244	3342.1875
2349.65943	3346.7875
2352.49267	3345.7875
2355.32411	3336.8875
2358.15376	3334.9875
2360.98161	3317.6875
2363.80768	3318.5875
2366.63195	3325.2875
2369.45444	3295.6875
2372.27514	3302.2875
2375.09405	3304.1875
2377.91118	3293.3875
2380.72652	3285.7875
2383.54009	3274.1875
2386.35187	3271.2875
2389.16188	3252.6875
2391.97011	3253.7875
2394.77657	3238.0875
2397.58125	3233.0875
2400.38416	3232.4875
2403.18529	3221.3875
2405.98466	3228.0875
2408.78226	3208.2875
2411.57809	3203.6875
2414.37216	3210.7875
2417.16446	3195.5875
2419.955	3188.6875
2422.74378	3184.0875
2425.5308	3181.2875
2428.31606	3180.1875
2431.09956	3157.5875
2433.88131	3157.2875
2436.6613	3161.3875
2439.43954	3159.7875
2442.21603	3151.9875
2444.99077	3148.3875
2447.76377	3144.4875
2450.53501	3134.6875
2453.30451	3144.5875
2456.07226	3132.5875
2458.83827	3128.3875
2461.60254	3124.5875
2464.36507	3111.6875
2467.12586	3111.4875
2469.88492	3117.2875
2472.64224	3096.8875
2475.39782	3093.8875
2478.15167	3097.3875
2480.90379	3099.4875
2483.65417	3089.0875
2486.40283	3091.0875
2489.14976	3071.3875
2491.89497	3087.1875
2494.63845	3074.8875
2497.3802	3071.9875
2500.12024	3070.0875
2502.85855	3069.6875
2505.59514	3060.0875
2508.33002	3054.0875
2511.06318	3048.2875
2513.79462	3039.7875
2516.52435	3031.4875
2519.25237	3026.0875
2521.97867	3032.8875
2524.70327	3023.0875
2527.42616	3015.0875
2530.14734	3005.6875
2532.86681	3001.3875
2535.58458	2992.5875
2538.30065	2989.5875
2541.01501	2989.6875
2543.72768	2990.2875
2546.43864	2969.9875
2549.14791	2975.1875
2551.85548	2959.5875
2554.56136	2947.9875
2557.26554	2936.7875
2559.96803	2934.4875
2562.66883	2934.9875
2565.36794	2924.2875
2568.06536	2918.3875
2570.7611	2911.4875
2573.45514	2905.2875
2576.14751	2912.1875
2578.83819	2903.9875
2581.52719	2894.0875
2584.21451	2890.3875
2586.90015	2879.3875
2589.58411	2869.9875
2592.2664	2865.2875
2594.94701	2847.5875
2597.62594	2853.1875
2600.30321	2839.8875
2602.9788	2838.3875
2605.65273	2845.3875
2608.32498	2842.1875
2610.99557	2826.5875
2613.66449	2826.5875
2616.33175	2818.9875
2618.99734	2825.7875
2621.66128	2813.2875
2624.32355	2812.7875
2626.98416	2795.3875
2629.64311	2791.6875
2632.30041	2792.3875
2634.95605	2795.9875
2637.61004	2783.9875
2640.26238	2778.5875
2642.91306	2780.0875
2645.56209	2772.5875
2648.20948	2772.7875
2650.85521	2760.3875
2653.4993	2767.9875
2656.14175	2768.5875
2658.78255	2768.3875
2661.42171	2752.2875
2664.05923	2754.1875
2666.6951	2753.3875
2669.32934	2757.7875
2671.96194	2733.0875
2674.59291	2757.6875
2677.22224	2761.9875
2679.84993	2753.4875
2682.476	2746.7875
2685.10043	2742.8875
2687.72324	2746.8875
2690.34441	2740.0875
2692.96396	2730.6875
2695.58188	2743.4875
2698.19818	2742.1875
2700.81285	2746.9875
2703.4259	2752.3875
2706.03733	2752.9875
2708.64714	2748.2875
2711.25533	2746.4875
2713.86191	2741.3875
2716.46687	2745.0875
2719.07021	2731.4875
2721.67194	2733.4875
2724.27206	2712.9875
2726.87057	2734.6875
2729.46747	2727.7875
2732.06276	2727.2875
2734.65644	2735.4875
2737.24852	2713.9875
2739.83899	2706.6875
2742.42786	2712.2875
2745.01513	2707.9875
2747.60079	2699.2875
2750.18486	2695.7875
2752.76733	2683.7875
2755.3482	2689.5875
2757.92747	2675.1875
2760.50515	2676.8875
2763.08123	2676.0875
2765.65573	2660.7875
2768.22863	2662.3875
2770.79994	2673.1875
2773.36967	2645.8875
2775.9378	2656.0875
2778.50435	2654.5875
2781.06932	2639.9875
2783.6327	2642.4875
2786.1945	2641.5875
2788.75471	2641.8875
2791.31335	2625.4875
2793.87041	2616.4875
2796.42589	2600.2875
2798.97979	2607.9875
2801.53212	2598.2875
2804.08288	2590.8875
2806.63206	2578.8875
2809.17967	2582.3875
2811.72571	2571.3875
2814.27018	2581.0875
2816.81308	2566.3875
2819.35442	2554.5875
2821.89419	2555.6875
2824.43239	2562.7875
2826.96904	2544.6875
2829.50412	2545.8875
2832.03763	2549.7875
2834.56959	2539.1875
2837.1	2543.8875
2839.62884	2529.7875
2842.15613	2529.0875
2844.68186	2539.0875
2847.20604	2534.1875
2849.72867	2533.1875
2852.24974	2536.2875
2854.76927	2530.7875
2857.28724	2535.4875
2859.80367	2526.8875
2862.31855	2526.4875
2864.83189	2514.3875
2867.34368	2500.8875
2869.85393	2519.1875
2872.36264	2497.5875
2874.8698	2512.4875
2877.37543	2507.7875
2879.87952	2488.6875
2882.38207	2491.8875
2884.88308	2487.3875
2887.38256	2499.4875
2889.88051	2509.2875
2892.37692	2491.2875
2894.8718	2496.3875
2897.36515	2501.5875
2899.85698	2495.6875
2902.34727	2492.1875
2904.83604	2500.3875
2907.32328	2508.6875
2909.809	2513.5875
2912.29319	2505.8875
2914.77587	2503.0875
2917.25702	2506.0875
2919.73665	2507.1875
2922.21476	2497.6875
2924.69136	2504.7875
2927.16644	2500.1875
2929.64	2509.6875
2932.11205	2519.8875
2934.58258	2508.1875
2937.05161	2508.1875
2939.51912	2511.6875
2941.98513	2504.3875
2944.44962	2505.2875
2946.91261	2494.3875
2949.37409	2501.9875
2951.83407	2506.2875
2954.29254	2506.2875
2956.74951	2491.3875
2959.20498	2506.8875
2961.65895	2486.6875
2964.11142	2493.9875
2966.56239	2478.9875
2969.01186	2477.2875
2971.45984	2465.1875
2973.90632	2459.5875
2976.35131	2455.0875
2978.7948	2450.3875
2981.23681	2446.0875
2983.67732	2446.8875
2986.11635	2431.9875
2988.55388	2440.2875
2990.98993	2420.7875
2993.4245	2414.8875
2995.85758	2413.6875
2998.28917	2412.4875
3000.71928	2411.3875
3003.14791	2407.4875
3005.57506	2404.8875
3008.00073	2389.6875
3010.42493	2399.5875
3012.84764	2402.8875
3015.26888	2392.4875
3017.68865	2398.4875
3020.10694	2380.2875
3022.52376	2380.9875
3024.9391	2395.8875
3027.35298	2378.9875
3029.76539	2372.5875
3032.17632	2371.4875
3034.5858	2367.7875
3036.9938	2372.8875
3039.40034	2372.3875
3041.80542	2372.4875
3044.20903	2367.5875
3046.61118	2381.1875
3049.01187	2360.7875
3051.4111	2367.9875
3053.80888	2362.0875
3056.20519	2370.7875
3058.60005	2352.4875
3060.99345	2362.4875
3063.3854	2344.0875
3065.7759	2349.3875
3068.16494	2351.2875
3070.55254	2350.4875
3072.93868	2350.8875
3075.32338	2348.4875
3077.70662	2346.9875
3080.08842	2345.4875
3082.46878	2351.7875
3084.84769	2353.1875
3087.22515	2358.3875
3089.60118	2359.8875
3091.97576	2363.7875
3094.3489	2356.1875
3096.72061	2355.0875
3099.09087	2362.5875
3101.4597	2366.4875
3103.82709	2367.2875
3106.19305	2374.4875
3108.55757	2371.9875
3110.92066	2379.6875
3113.28232	2365.3875
3115.64255	2360.9875
3118.00134	2371.0875
3120.35871	2362.0875
3122.71466	2372.7875
3125.06917	2374.8875
3127.42226	2367.0875
3129.77393	2376.0875
3132.12417	2378.8875
3134.47299	2386.4875
3136.82039	2380.2875
3139.16636	2398.0875
3141.51092	2395.3875
3143.85406	2406.1875
3146.19579	2401.0875
3148.53609	2400.8875
3150.87499	2412.5875
3153.21246	2425.5875
3155.54853	2430.2875
3157.88318	2425.6875
3160.21642	2446.4875
3162.54826	2454.3875
3164.87868	2443.6875
3167.2077	2456.0875
3169.5353	2442.3875
3171.86151	2467.5875
3174.18631	2448.0875
3176.5097	2457.1875
3178.83169	2454.1875
3181.15228	2458.9875
3183.47147	2457.7875
3185.78926	2499.5875
3188.10565	2473.8875
3190.42065	2474.2875
3192.73424	2484.3875
3195.04645	2479.2875
3197.35725	2478.3875
3199.66667	2478.6875
3201.97469	2491.3875
3204.28132	2496.3875
3206.58656	2499.6875
3208.8904	2493.8875
3211.19287	2504.1875
3213.49394	2504.7875
3215.79363	2511.9875
3218.09193	2514.4875
3220.38884	2509.6875
3222.68438	2509.2875
3224.97853	2512.5875
3227.2713	2516.2875
3229.56269	2508.4875
3231.8527	2497.8875
3234.14133	2496.3875
3236.42858	2489.7875
3238.71446	2497.1875
3240.99896	2484.8875
3243.28209	2507.9875
3245.56384	2497.2875
3247.84423	2484.4875
3250.12324	2485.8875
3252.40088	2488.8875
3254.67715	2485.2875
3256.95205	2481.6875
3259.22558	2487.9875
3261.49775	2482.8875
3263.76855	2473.7875
3266.03799	2478.2875
3268.30606	2470.1875
3270.57277	2469.1875
3272.83812	2459.3875
3275.10211	2456.3875
3277.36474	2451.5875
3279.62601	2457.3875
3281.88593	2449.8875
3284.14448	2459.1875
3286.40168	2432.1875
3288.65753	2445.6875
3290.91202	2450.3875
3293.16516	2435.8875
3295.41695	2426.4875
3297.66738	2407.2875
3299.91647	2403.5875
3302.16421	2385.6875
3304.4106	2381.7875
3306.65564	2375.0875
3308.89933	2367.6875
3311.14169	2357.5875
3313.38269	2325.8875
3315.62236	2324.1875
3317.86068	2303.2875
3320.09766	2282.9875
3322.3333	2259.2875
3324.5676	2266.2875
3326.80056	2244.9875
3329.03219	2216.8875
3331.26248	0.0875
3333.49143	-0.7125
3335.71905	-1.0125
