Data from AgNPs_FTO_APTES_UA_0.1mM_CRN_1000uM_NaF_0.1M_Addition_RamanShift__4__15-18-47-803.txt Node

Date: Mon Dec 20 15:18:47 GMT 2021
User: TCL
Spectrometer: QEP01345
Trigger mode: 4
Integration Time (sec): 7.000000E0
Scans to average: 10
Electric dark correction enabled: true
Nonlinearity correction enabled: false
Boxcar width: 0
XAxis mode: Raman Shifts
Number of Pixels in Spectrum: 1044
>>>>>Begin Spectral Data<<<<<
46.04893	0.5375
50.45542	-0.0625
54.85868	-1.5625
59.25871	1.2375
63.6555	25.1375
68.04907	23.2375
72.43941	28.2375
76.82654	26.7375
81.21044	27.4375
85.59113	34.4375
89.96862	31.1375
94.34289	31.9375
98.71396	34.2375
103.08183	34.0375
107.4465	37.7375
111.80798	39.8375
116.16626	38.4375
120.52136	39.8375
124.87327	41.3375
129.222	38.2375
133.56755	38.8375
137.90993	43.7375
142.24913	41.9375
146.58517	43.7375
150.91804	54.5375
155.24774	61.2375
159.57429	66.5375
163.89768	86.8375
168.21792	108.0375
172.53501	135.0375
176.84895	181.7375
181.15975	245.6375
185.46741	336.7375
189.77193	461.0375
194.07331	609.6375
198.37157	789.8375
202.6667	987.3375
206.9587	1182.9375
211.24758	1374.9375
215.53334	1596.4375
219.81599	1799.6375
224.09553	2038.3375
228.37195	2291.7375
232.64527	2586.7375
236.91549	2863.5375
241.18261	3109.7375
245.44663	3356.3375
249.70755	3543.7375
253.96539	3669.7375
258.22014	3775.8375
262.4718	3833.9375
266.72039	3847.7375
270.96589	3818.0375
275.20832	3771.7375
279.44768	3737.3375
283.68397	3679.9375
287.91719	3615.7375
292.14735	3560.3375
296.37445	3519.8375
300.59849	3483.1375
304.81948	3455.9375
309.03742	3427.9375
313.25231	3404.0375
317.46415	3357.9375
321.67296	3312.0375
325.87872	3268.5375
330.08145	3259.6375
334.28114	3245.3375
338.47781	3254.6375
342.67145	3265.1375
346.86207	3285.4375
351.04966	3312.1375
355.23424	3335.4375
359.4158	3389.0375
363.59435	3425.1375
367.76989	3465.0375
371.94243	3510.0375
376.11196	3549.2375
380.27849	3586.5375
384.44203	3628.5375
388.60257	3685.9375
392.76012	3708.0375
396.91468	3741.8375
401.06626	3761.5375
405.21485	3783.5375
409.36047	3786.3375
413.50311	3784.2375
417.64277	3757.2375
421.77947	3765.0375
425.9132	3764.4375
430.04396	3770.6375
434.17176	3782.3375
438.2966	3813.6375
442.41849	3805.0375
446.53742	3837.8375
450.6534	3874.0375
454.76644	3900.3375
458.87653	3925.1375
462.98368	3955.4375
467.08789	3951.9375
471.18916	3976.0375
475.2875	4000.3375
479.38291	4044.8375
483.4754	4105.9375
487.56496	4233.6375
491.6516	4356.6375
495.73531	4449.6375
499.81612	4460.7375
503.89401	4417.1375
507.96899	4316.8375
512.04106	4255.1375
516.11023	4236.1375
520.1765	4220.3375
524.23987	4280.2375
528.30034	4295.2375
532.35792	4328.0375
536.41261	4306.0375
540.46441	4245.5375
544.51333	4165.4375
548.55936	4097.7375
552.60252	4032.4375
556.64279	4020.9375
560.6802	4003.5375
564.71473	4013.5375
568.7464	4008.6375
572.7752	4035.4375
576.80114	4077.0375
580.82422	4123.7375
584.84444	4210.7375
588.86181	4324.1375
592.87633	4378.6375
596.888	4346.9375
600.89682	4312.1375
604.9028	4307.0375
608.90594	4412.8375
612.90624	4570.2375
616.90371	4677.9375
620.89834	4711.5375
624.89015	4962.3375
628.87913	5410.3375
632.86528	5882.0375
636.84862	6211.7375
640.82913	6239.8375
644.80683	5943.7375
648.78172	5506.9375
652.75379	5101.0375
656.72306	4801.1375
660.68952	4614.0375
664.65319	4493.9375
668.61405	4425.1375
672.57211	4407.3375
676.52738	4431.0375
680.47986	4440.2375
684.42955	4443.5375
688.37646	4402.8375
692.32058	4339.8375
696.26192	4271.3375
700.20048	4218.1375
704.13626	4219.9375
708.06928	4182.2375
711.99952	4177.7375
715.927	4183.0375
719.85171	4223.3375
723.77365	4299.7375
727.69284	4343.9375
731.60928	4312.3375
735.52295	4230.4375
739.43388	4164.4375
743.34206	4119.1375
747.24749	4117.0375
751.15017	4120.8375
755.05012	4105.5375
758.94733	4143.9375
762.8418	4177.7375
766.73354	4218.2375
770.62254	4266.7375
774.50882	4273.7375
778.39237	4224.5375
782.27321	4139.3375
786.15132	4074.4375
790.02671	4047.1375
793.89938	4060.2375
797.76935	4073.1375
801.6366	4115.4375
805.50115	4266.8375
809.36299	4476.2375
813.22213	4624.2375
817.07857	4601.9375
820.93231	4459.0375
824.78336	4266.9375
828.63172	4076.2375
832.47738	3945.0375
836.32036	3894.7375
840.16066	3887.0375
843.99827	3876.9375
847.8332	3864.6375
851.66546	3858.8375
855.49504	3866.1375
859.32195	3888.8375
863.1462	3899.2375
866.96777	3970.7375
870.78668	4033.5375
874.60293	4135.4375
878.41652	4254.8375
882.22745	4403.1375
886.03573	4499.3375
889.84136	4558.6375
893.64433	4506.0375
897.44466	4345.7375
901.24235	4144.9375
905.0374	3978.0375
908.8298	3863.7375
912.61957	3795.8375
916.40671	3764.8375
920.19121	3739.6375
923.97308	3717.5375
927.75233	3724.6375
931.52895	3707.6375
935.30295	3689.9375
939.07433	3691.0375
942.84309	3662.6375
946.60924	3656.9375
950.37278	3636.2375
954.13371	3627.8375
957.89203	3611.6375
961.64774	3621.6375
965.40086	3605.5375
969.15137	3579.7375
972.89929	3581.3375
976.64461	3562.0375
980.38733	3562.8375
984.12747	3558.3375
987.86502	3569.8375
991.59999	3579.1375
995.33237	3603.1375
999.06217	3653.1375
1002.78939	3704.7375
1006.51404	3759.0375
1010.23611	3829.0375
1013.95561	3876.2375
1017.67255	3903.0375
1021.38692	3905.5375
1025.09872	3893.3375
1028.80796	3838.2375
1032.51465	3770.7375
1036.21877	3721.2375
1039.92035	3661.1375
1043.61937	3644.2375
1047.31584	3621.1375
1051.00976	3627.3375
1054.70114	3630.8375
1058.38998	3664.0375
1062.07627	3709.4375
1065.76003	3776.1375
1069.44126	3825.7375
1073.11995	3894.4375
1076.79611	3908.3375
1080.46974	3876.7375
1084.14085	3820.3375
1087.80943	3739.9375
1091.47549	3679.3375
1095.13903	3629.4375
1098.80005	3597.4375
1102.45857	3596.8375
1106.11456	3605.6375
1109.76805	3628.8375
1113.41903	3752.0375
1117.06751	3914.0375
1120.71348	4196.3375
1124.35696	4574.2375
1127.99793	5008.8375
1131.63641	5413.0375
1135.2724	5631.4375
1138.90589	5613.3375
1142.5369	5379.0375
1146.16542	5008.6375
1149.79145	4631.3375
1153.415	4268.8375
1157.03607	3990.9375
1160.65467	3813.5375
1164.27079	3710.2375
1167.88443	3676.9375
1171.49561	3672.9375
1175.10432	3722.8375
1178.71056	3794.0375
1182.31434	3868.1375
1185.91565	3936.0375
1189.51451	4012.0375
1193.11091	4070.4375
1196.70485	4173.6375
1200.29634	4289.4375
1203.88538	4368.4375
1207.47197	4401.6375
1211.05612	4330.9375
1214.63782	4225.5375
1218.21708	4072.8375
1221.79391	3923.6375
1225.36829	3798.2375
1228.94024	3711.1375
1232.50976	3674.1375
1236.07685	3640.1375
1239.6415	3641.5375
1243.20374	3664.0375
1246.76355	3691.8375
1250.32093	3733.4375
1253.8759	3764.5375
1257.42845	3805.5375
1260.97859	3810.6375
1264.52631	3820.7375
1268.07163	3849.7375
1271.61453	3840.4375
1275.15503	3818.8375
1278.69312	3786.8375
1282.22882	3750.1375
1285.76211	3739.0375
1289.29301	3725.3375
1292.82151	3727.1375
1296.34761	3753.0375
1299.87133	3812.1375
1303.39266	3846.9375
1306.9116	3935.1375
1310.42815	4020.9375
1313.94233	4102.5375
1317.45412	4134.5375
1320.96354	4153.1375
1324.47058	4151.3375
1327.97525	4169.5375
1331.47754	4192.8375
1334.97747	4202.4375
1338.47502	4257.5375
1341.97022	4335.0375
1345.46305	4397.7375
1348.95352	4492.7375
1352.44163	4592.7375
1355.92738	4709.7375
1359.41078	4822.3375
1362.89183	4933.8375
1366.37053	4945.9375
1369.84688	4841.9375
1373.32088	4694.5375
1376.79254	4546.9375
1380.26186	4423.9375
1383.72883	4320.0375
1387.19347	4234.0375
1390.65578	4129.6375
1394.11575	4022.8375
1397.57339	3965.8375
1401.0287	3882.0375
1404.48168	3826.5375
1407.93234	3750.5375
1411.38068	3696.4375
1414.82669	3613.5375
1418.27039	3526.7375
1421.71177	3458.7375
1425.15083	3400.0375
1428.58758	3345.6375
1432.02203	3287.1375
1435.45416	3263.2375
1438.88399	3247.1375
1442.31151	3227.9375
1445.73673	3224.9375
1449.15965	3236.3375
1452.58027	3225.6375
1455.9986	3204.7375
1459.41463	3230.8375
1462.82837	3233.8375
1466.23982	3247.4375
1469.64898	3279.7375
1473.05586	3276.0375
1476.46045	3274.3375
1479.86276	3314.4375
1483.26279	3329.3375
1486.66054	3351.9375
1490.05602	3379.2375
1493.44922	3421.6375
1496.84016	3484.6375
1500.22882	3578.5375
1503.61521	3675.4375
1506.99934	3783.5375
1510.38121	3857.5375
1513.76081	3868.4375
1517.13816	3816.9375
1520.51324	3718.9375
1523.88607	3628.1375
1527.25665	3608.6375
1530.62498	3601.5375
1533.99105	3615.3375
1537.35488	3647.2375
1540.71647	3693.9375
1544.07581	3731.7375
1547.4329	3762.8375
1550.78776	3783.6375
1554.14038	3813.7375
1557.49077	3828.6375
1560.83892	3844.1375
1564.18484	3848.8375
1567.52853	3842.9375
1570.86999	3863.8375
1574.20922	3876.4375
1577.54624	3903.1375
1580.88103	3887.9375
1584.2136	3843.9375
1587.54395	3783.5375
1590.87208	3734.1375
1594.19801	3721.7375
1597.52172	3749.6375
1600.84321	3741.7375
1604.16251	3741.7375
1607.47959	3715.2375
1610.79447	3721.3375
1614.10715	3710.1375
1617.41763	3702.6375
1620.7259	3709.5375
1624.03199	3710.2375
1627.33587	3746.9375
1630.63757	3793.2375
1633.93707	3858.1375
1637.23439	3917.9375
1640.52951	4031.8375
1643.82246	4153.6375
1647.11321	4323.5375
1650.40179	4413.0375
1653.68819	4448.6375
1656.97241	4403.6375
1660.25446	4295.1375
1663.53433	4217.3375
1666.81203	4155.7375
1670.08756	4123.8375
1673.36092	4103.5375
1676.63211	4101.7375
1679.90115	4089.0375
1683.16801	4080.8375
1686.43272	4043.4375
1689.69527	3978.0375
1692.95567	3910.2375
1696.2139	3816.1375
1699.46999	3741.6375
1702.72392	3628.2375
1705.97571	3480.4375
1709.22535	3343.0375
1712.47284	3215.5375
1715.71819	3112.0375
1718.96139	3013.9375
1722.20246	2935.8375
1725.44139	2884.1375
1728.67818	2832.1375
1731.91284	2790.3375
1735.14537	2750.8375
1738.37576	2717.8375
1741.60403	2684.6375
1744.83017	2664.2375
1748.05418	2667.6375
1751.27607	2657.6375
1754.49584	2647.7375
1757.71349	2660.7375
1760.92903	2648.4375
1764.14244	2648.4375
1767.35375	2641.2375
1770.56294	2613.1375
1773.77002	2609.3375
1776.97499	2570.2375
1780.17785	2560.9375
1783.37861	2540.6375
1786.57727	2526.8375
1789.77382	2495.4375
1792.96828	2488.4375
1796.16064	2472.8375
1799.3509	2458.4375
1802.53907	2448.3375
1805.72514	2432.9375
1808.90913	2430.4375
1812.09102	2426.5375
1815.27083	2398.5375
1818.44856	2417.4375
1821.6242	2398.0375
1824.79776	2378.5375
1827.96924	2389.1375
1831.13864	2374.2375
1834.30597	2383.8375
1837.47122	2374.8375
1840.6344	2357.0375
1843.7955	2360.2375
1846.95454	2363.5375
1850.11151	2349.7375
1853.26642	2351.0375
1856.41926	2349.4375
1859.57004	2342.8375
1862.71876	2338.7375
1865.86542	2330.1375
1869.01003	2324.3375
1872.15258	2316.4375
1875.29308	2310.9375
1878.43152	2302.0375
1881.56792	2302.1375
1884.70227	2303.6375
1887.83457	2286.9375
1890.96482	2285.6375
1894.09304	2288.3375
1897.21921	2266.6375
1900.34335	2267.5375
1903.46544	2265.0375
1906.58551	2279.8375
1909.70353	2262.8375
1912.81953	2270.9375
1915.93349	2254.0375
1919.04543	2247.6375
1922.15534	2240.9375
1925.26322	2237.7375
1928.36908	2228.7375
1931.47292	2237.0375
1934.57473	2219.1375
1937.67453	2197.3375
1940.77232	2200.3375
1943.86808	2202.4375
1946.96184	2205.3375
1950.05358	2184.8375
1953.14331	2180.8375
1956.23103	2167.5375
1959.31675	2159.3375
1962.40046	2160.4375
1965.48217	2137.0375
1968.56188	2141.1375
1971.63959	2136.6375
1974.7153	2128.1375
1977.78901	2114.3375
1980.86073	2098.1375
1983.93046	2103.7375
1986.99819	2096.5375
1990.06394	2080.0375
1993.1277	2079.5375
1996.18947	2067.4375
1999.24925	2068.9375
2002.30706	2063.4375
2005.36288	2047.2375
2008.41672	2041.7375
2011.46859	2030.3375
2014.51848	2029.8375
2017.56639	2015.6375
2020.61233	2021.1375
2023.6563	2007.9375
2026.6983	2004.1375
2029.73833	1998.6375
2032.7764	1990.4375
2035.8125	1984.0375
2038.84664	1976.8375
2041.87881	1975.8375
2044.90903	1966.6375
2047.93729	1965.6375
2050.96359	1960.6375
2053.98794	1960.2375
2057.01034	1950.8375
2060.03078	1954.1375
2063.04927	1951.9375
2066.06582	1949.0375
2069.08042	1946.7375
2072.09307	1953.7375
2075.10378	1946.1375
2078.11255	1947.2375
2081.11938	1942.3375
2084.12426	1929.0375
2087.12722	1928.0375
2090.12824	1935.0375
2093.12732	1936.9375
2096.12447	1937.8375
2099.11969	1933.4375
2102.11299	1916.9375
2105.10435	1928.1375
2108.09379	1917.0375
2111.08131	1933.5375
2114.0669	1930.2375
2117.05057	1929.2375
2120.03233	1935.1375
2123.01216	1930.6375
2125.99008	1931.9375
2128.96609	1935.9375
2131.94018	1934.2375
2134.91236	1929.0375
2137.88263	1929.1375
2140.851	1929.9375
2143.81746	1931.6375
2146.78201	1929.2375
2149.74466	1926.0375
2152.7054	1932.5375
2155.66425	1924.5375
2158.6212	1927.3375
2161.57625	1927.4375
2164.52941	1911.4375
2167.48067	1921.1375
2170.43004	1916.9375
2173.37752	1915.8375
2176.32311	1914.9375
2179.26681	1909.2375
2182.20863	1904.8375
2185.14856	1906.2375
2188.08661	1906.3375
2191.02278	1898.4375
2193.95707	1892.8375
2196.88948	1882.1375
2199.82001	1898.3375
2202.74867	1892.7375
2205.67545	1881.3375
2208.60037	1881.9375
2211.52341	1881.6375
2214.44458	1861.6375
2217.36388	1859.5375
2220.28132	1869.8375
2223.1969	1857.6375
2226.11061	1866.1375
2229.02246	1845.9375
2231.93245	1839.8375
2234.84058	1848.4375
2237.74686	1826.6375
2240.65128	1835.4375
2243.55385	1828.4375
2246.45456	1821.1375
2249.35343	1820.5375
2252.25044	1819.8375
2255.14561	1804.0375
2258.03893	1813.4375
2260.93041	1817.3375
2263.82004	1802.2375
2266.70783	1804.5375
2269.59378	1793.6375
2272.4779	1784.2375
2275.36017	1781.4375
2278.24061	1774.6375
2281.11922	1770.1375
2283.996	1767.7375
2286.87094	1764.0375
2289.74405	1757.7375
2292.61534	1749.4375
2295.4848	1751.3375
2298.35243	1753.7375
2301.21824	1745.2375
2304.08223	1747.9375
2306.94439	1739.1375
2309.80474	1737.4375
2312.66327	1738.0375
2315.51999	1735.2375
2318.37489	1732.0375
2321.22797	1719.7375
2324.07925	1720.2375
2326.92871	1716.9375
2329.77637	1712.8375
2332.62222	1712.6375
2335.46626	1715.6375
2338.3085	1699.9375
2341.14893	1697.6375
2343.98756	1688.2375
2346.8244	1683.0375
2349.65943	1680.2375
2352.49267	1684.2375
2355.32411	1684.1375
2358.15376	1677.9375
2360.98161	1680.3375
2363.80768	1678.4375
2366.63195	1687.9375
2369.45444	1660.4375
2372.27514	1668.2375
2375.09405	1670.1375
2377.91118	1669.3375
2380.72652	1663.6375
2383.54009	1659.0375
2386.35187	1655.0375
2389.16188	1650.4375
2391.97011	1658.0375
2394.77657	1646.4375
2397.58125	1640.9375
2400.38416	1641.6375
2403.18529	1633.3375
2405.98466	1634.8375
2408.78226	1631.4375
2411.57809	1610.2375
2414.37216	1615.1375
2417.16446	1619.2375
2419.955	1609.5375
2422.74378	1610.8375
2425.5308	1604.8375
2428.31606	1614.9375
2431.09956	1598.4375
2433.88131	1595.0375
2436.6613	1596.9375
2439.43954	1606.6375
2442.21603	1596.3375
2444.99077	1582.5375
2447.76377	1590.4375
2450.53501	1582.9375
2453.30451	1582.9375
2456.07226	1575.7375
2458.83827	1571.5375
2461.60254	1570.6375
2464.36507	1562.0375
2467.12586	1565.2375
2469.88492	1557.0375
2472.64224	1556.7375
2475.39782	1555.7375
2478.15167	1564.6375
2480.90379	1555.8375
2483.65417	1556.9375
2486.40283	1544.3375
2489.14976	1550.3375
2491.89497	1549.4375
2494.63845	1557.6375
2497.3802	1549.5375
2500.12024	1533.5375
2502.85855	1532.9375
2505.59514	1537.9375
2508.33002	1540.3375
2511.06318	1524.6375
2513.79462	1520.3375
2516.52435	1525.6375
2519.25237	1516.8375
2521.97867	1514.9375
2524.70327	1508.9375
2527.42616	1505.9375
2530.14734	1503.9375
2532.86681	1505.3375
2535.58458	1506.4375
2538.30065	1493.7375
2541.01501	1505.7375
2543.72768	1500.6375
2546.43864	1479.6375
2549.14791	1482.6375
2551.85548	1495.6375
2554.56136	1483.8375
2557.26554	1478.0375
2559.96803	1461.0375
2562.66883	1475.4375
2565.36794	1463.0375
2568.06536	1469.7375
2570.7611	1467.8375
2573.45514	1456.2375
2576.14751	1456.2375
2578.83819	1449.4375
2581.52719	1443.9375
2584.21451	1450.1375
2586.90015	1441.7375
2589.58411	1430.8375
2592.2664	1435.5375
2594.94701	1430.2375
2597.62594	1428.3375
2600.30321	1418.4375
2602.9788	1426.2375
2605.65273	1413.0375
2608.32498	1406.3375
2610.99557	1410.6375
2613.66449	1414.4375
2616.33175	1408.5375
2618.99734	1400.5375
2621.66128	1403.6375
2624.32355	1407.0375
2626.98416	1397.5375
2629.64311	1397.7375
2632.30041	1392.9375
2634.95605	1390.7375
2637.61004	1384.1375
2640.26238	1392.9375
2642.91306	1377.9375
2645.56209	1390.5375
2648.20948	1390.3375
2650.85521	1377.4375
2653.4993	1380.0375
2656.14175	1373.1375
2658.78255	1379.2375
2661.42171	1374.1375
2664.05923	1372.1375
2666.6951	1376.6375
2669.32934	1363.1375
2671.96194	1367.3375
2674.59291	1372.1375
2677.22224	1368.2375
2679.84993	1368.9375
2682.476	1374.6375
2685.10043	1370.2375
2687.72324	1371.9375
2690.34441	1368.2375
2692.96396	1367.5375
2695.58188	1379.7375
2698.19818	1365.0375
2700.81285	1372.2375
2703.4259	1383.8375
2706.03733	1417.6375
2708.64714	1396.4375
2711.25533	1382.8375
2713.86191	1375.0375
2716.46687	1378.8375
2719.07021	1377.9375
2721.67194	1368.5375
2724.27206	1362.9375
2726.87057	1374.9375
2729.46747	1375.7375
2732.06276	1366.9375
2734.65644	1367.2375
2737.24852	1361.9375
2739.83899	1363.2375
2742.42786	1352.6375
2745.01513	1356.0375
2747.60079	1361.6375
2750.18486	1354.3375
2752.76733	1346.9375
2755.3482	1349.6375
2757.92747	1339.6375
2760.50515	1351.4375
2763.08123	1345.8375
2765.65573	1336.1375
2768.22863	1337.4375
2770.79994	1326.3375
2773.36967	1330.9375
2775.9378	1331.4375
2778.50435	1327.7375
2781.06932	1326.6375
2783.6327	1328.7375
2786.1945	1324.9375
2788.75471	1318.6375
2791.31335	1313.5375
2793.87041	1305.0375
2796.42589	1304.2375
2798.97979	1302.6375
2801.53212	1297.4375
2804.08288	1300.9375
2806.63206	1289.4375
2809.17967	1284.7375
2811.72571	1289.5375
2814.27018	1291.9375
2816.81308	1281.3375
2819.35442	1286.6375
2821.89419	1282.8375
2824.43239	1291.7375
2826.96904	1280.5375
2829.50412	1286.2375
2832.03763	1279.8375
2834.56959	1283.1375
2837.1	1266.2375
2839.62884	1276.4375
2842.15613	1269.5375
2844.68186	1275.2375
2847.20604	1286.2375
2849.72867	1278.6375
2852.24974	1273.5375
2854.76927	1275.3375
2857.28724	1288.0375
2859.80367	1275.4375
2862.31855	1276.0375
2864.83189	1272.1375
2867.34368	1265.3375
2869.85393	1280.0375
2872.36264	1269.0375
2874.8698	1270.4375
2877.37543	1270.5375
2879.87952	1271.5375
2882.38207	1287.2375
2884.88308	1282.4375
2887.38256	1277.0375
2889.88051	1279.3375
2892.37692	1276.3375
2894.8718	1281.2375
2897.36515	1287.8375
2899.85698	1294.1375
2902.34727	1290.0375
2904.83604	1295.2375
2907.32328	1290.2375
2909.809	1299.5375
2912.29319	1308.7375
2914.77587	1305.9375
2917.25702	1305.9375
2919.73665	1313.3375
2922.21476	1311.8375
2924.69136	1316.9375
2927.16644	1320.3375
2929.64	1311.8375
2932.11205	1317.1375
2934.58258	1328.9375
2937.05161	1316.6375
2939.51912	1321.6375
2941.98513	1317.1375
2944.44962	1322.8375
2946.91261	1319.7375
2949.37409	1319.8375
2951.83407	1313.1375
2954.29254	1315.8375
2956.74951	1307.4375
2959.20498	1308.7375
2961.65895	1303.9375
2964.11142	1302.2375
2966.56239	1294.5375
2969.01186	1300.3375
2971.45984	1292.8375
2973.90632	1273.5375
2976.35131	1288.2375
2978.7948	1278.2375
2981.23681	1276.4375
2983.67732	1274.3375
2986.11635	1271.0375
2988.55388	1274.1375
2990.98993	1269.9375
2993.4245	1269.1375
2995.85758	1265.4375
2998.28917	1268.7375
3000.71928	1267.0375
3003.14791	1263.6375
3005.57506	1269.3375
3008.00073	1267.7375
3010.42493	1270.4375
3012.84764	1266.1375
3015.26888	1276.1375
3017.68865	1262.0375
3020.10694	1275.4375
3022.52376	1270.2375
3024.9391	1276.1375
3027.35298	1266.8375
3029.76539	1267.6375
3032.17632	1272.1375
3034.5858	1273.7375
3036.9938	1273.4375
3039.40034	1278.4375
3041.80542	1269.3375
3044.20903	1265.9375
3046.61118	1262.2375
3049.01187	1270.4375
3051.4111	1274.9375
3053.80888	1279.4375
3056.20519	1273.4375
3058.60005	1274.8375
3060.99345	1279.8375
3063.3854	1274.9375
3065.7759	1281.5375
3068.16494	1281.7375
3070.55254	1283.0375
3072.93868	1280.3375
3075.32338	1287.1375
3077.70662	1281.4375
3080.08842	1286.0375
3082.46878	1307.9375
3084.84769	1291.8375
3087.22515	1299.4375
3089.60118	1310.2375
3091.97576	1316.8375
3094.3489	1312.0375
3096.72061	1316.8375
3099.09087	1329.4375
3101.4597	1325.6375
3103.82709	1333.8375
3106.19305	1329.2375
3108.55757	1341.7375
3110.92066	1338.4375
3113.28232	1331.7375
3115.64255	1351.7375
3118.00134	1341.3375
3120.35871	1345.8375
3122.71466	1358.3375
3125.06917	1353.4375
3127.42226	1355.1375
3129.77393	1367.1375
3132.12417	1382.8375
3134.47299	1373.7375
3136.82039	1382.2375
3139.16636	1383.7375
3141.51092	1395.2375
3143.85406	1399.8375
3146.19579	1411.5375
3148.53609	1423.2375
3150.87499	1421.8375
3153.21246	1431.0375
3155.54853	1442.3375
3157.88318	1446.4375
3160.21642	1450.7375
3162.54826	1460.1375
3164.87868	1465.9375
3167.2077	1466.5375
3169.5353	1475.9375
3171.86151	1472.1375
3174.18631	1491.0375
3176.5097	1482.0375
3178.83169	1486.3375
3181.15228	1486.6375
3183.47147	1489.9375
3185.78926	1494.0375
3188.10565	1497.8375
3190.42065	1509.5375
3192.73424	1504.3375
3195.04645	1520.2375
3197.35725	1526.8375
3199.66667	1527.2375
3201.97469	1525.7375
3204.28132	1532.9375
3206.58656	1530.9375
3208.8904	1546.1375
3211.19287	1550.6375
3213.49394	1544.9375
3215.79363	1546.2375
3218.09193	1556.8375
3220.38884	1572.4375
3222.68438	1576.6375
3224.97853	1567.3375
3227.2713	1570.9375
3229.56269	1563.3375
3231.8527	1572.1375
3234.14133	1565.7375
3236.42858	1558.7375
3238.71446	1570.2375
3240.99896	1559.1375
3243.28209	1557.8375
3245.56384	1555.8375
3247.84423	1557.1375
3250.12324	1563.6375
3252.40088	1560.8375
3254.67715	1563.0375
3256.95205	1568.0375
3259.22558	1560.6375
3261.49775	1564.6375
3263.76855	1549.3375
3266.03799	1554.7375
3268.30606	1553.2375
3270.57277	1548.0375
3272.83812	1551.0375
3275.10211	1544.8375
3277.36474	1545.6375
3279.62601	1549.4375
3281.88593	1547.9375
3284.14448	1545.4375
3286.40168	1548.6375
3288.65753	1545.0375
3290.91202	1536.4375
3293.16516	1541.3375
3295.41695	1529.3375
3297.66738	1528.7375
3299.91647	1516.5375
3302.16421	1517.5375
3304.4106	1502.4375
3306.65564	1508.8375
3308.89933	1499.5375
3311.14169	1488.8375
3313.38269	1473.8375
3315.62236	1478.5375
3317.86068	1460.2375
3320.09766	1446.4375
3322.3333	1447.1375
3324.5676	1446.8375
3326.80056	1434.0375
3329.03219	1418.0375
3331.26248	-0.3625
3333.49143	0.5375
3335.71905	0.4375
