Data from AgNPs_FTO_APTES_UA_0.1mM_CRN_1000uM_NaF_0.1M_Addition_RamanShift__27__15-45-37-833.txt Node

Date: Mon Dec 20 15:45:37 GMT 2021
User: TCL
Spectrometer: QEP01345
Trigger mode: 4
Integration Time (sec): 7.000000E0
Scans to average: 10
Electric dark correction enabled: true
Nonlinearity correction enabled: false
Boxcar width: 0
XAxis mode: Raman Shifts
Number of Pixels in Spectrum: 1044
>>>>>Begin Spectral Data<<<<<
46.04893	-0.2125
50.45542	-0.4125
54.85868	-1.1125
59.25871	1.3875
63.6555	21.6875
68.04907	24.5875
72.43941	25.5875
76.82654	24.4875
81.21044	24.2875
85.59113	31.7875
89.96862	29.5875
94.34289	31.9875
98.71396	32.9875
103.08183	32.7875
107.4465	33.7875
111.80798	36.8875
116.16626	34.8875
120.52136	36.3875
124.87327	36.9875
129.222	34.7875
133.56755	37.3875
137.90993	41.9875
142.24913	41.5875
146.58517	41.9875
150.91804	50.7875
155.24774	55.5875
159.57429	60.3875
163.89768	74.8875
168.21792	98.6875
172.53501	118.1875
176.84895	159.5875
181.15975	222.0875
185.46741	302.2875
189.77193	418.9875
194.07331	560.7875
198.37157	722.1875
202.6667	905.9875
206.9587	1092.8875
211.24758	1268.8875
215.53334	1438.1875
219.81599	1615.3875
224.09553	1801.8875
228.37195	1989.3875
232.64527	2191.7875
236.91549	2393.6875
241.18261	2594.5875
245.44663	2766.3875
249.70755	2919.5875
253.96539	3049.2875
258.22014	3149.2875
262.4718	3227.7875
266.72039	3242.3875
270.96589	3248.7875
275.20832	3215.3875
279.44768	3177.4875
283.68397	3126.5875
287.91719	3082.0875
292.14735	3048.0875
296.37445	3000.5875
300.59849	3003.4875
304.81948	2997.9875
309.03742	2991.6875
313.25231	2956.2875
317.46415	2904.9875
321.67296	2840.7875
325.87872	2796.9875
330.08145	2771.0875
334.28114	2745.8875
338.47781	2756.8875
342.67145	2778.5875
346.86207	2815.3875
351.04966	2856.5875
355.23424	2914.3875
359.4158	2966.7875
363.59435	3008.0875
367.76989	3034.7875
371.94243	3066.2875
376.11196	3107.6875
380.27849	3147.1875
384.44203	3165.0875
388.60257	3213.0875
392.76012	3243.0875
396.91468	3280.6875
401.06626	3309.8875
405.21485	3330.3875
409.36047	3320.1875
413.50311	3299.2875
417.64277	3263.1875
421.77947	3244.4875
425.9132	3228.3875
430.04396	3234.6875
434.17176	3240.7875
438.2966	3267.5875
442.41849	3282.5875
446.53742	3309.3875
450.6534	3347.9875
454.76644	3391.5875
458.87653	3394.8875
462.98368	3409.5875
467.08789	3386.8875
471.18916	3403.9875
475.2875	3413.3875
479.38291	3454.9875
483.4754	3525.1875
487.56496	3635.9875
491.6516	3706.6875
495.73531	3756.2875
499.81612	3729.4875
503.89401	3644.1875
507.96899	3588.7875
512.04106	3548.3875
516.11023	3568.9875
520.1765	3613.0875
524.23987	3670.5875
528.30034	3726.5875
532.35792	3729.8875
536.41261	3686.4875
540.46441	3592.1875
544.51333	3490.0875
548.55936	3435.9875
552.60252	3394.7875
556.64279	3394.6875
560.6802	3407.4875
564.71473	3411.8875
568.7464	3463.0875
572.7752	3497.7875
576.80114	3494.6875
580.82422	3517.4875
584.84444	3561.3875
588.86181	3622.8875
592.87633	3661.1875
596.888	3665.2875
600.89682	3664.6875
604.9028	3734.1875
608.90594	3939.2875
612.90624	4242.7875
616.90371	4365.3875
620.89834	4287.7875
624.89015	4483.1875
628.87913	4873.2875
632.86528	5252.1875
636.84862	5475.9875
640.82913	5362.3875
644.80683	4980.5875
648.78172	4553.3875
652.75379	4214.5875
656.72306	3989.2875
660.68952	3900.2875
664.65319	3850.5875
668.61405	3825.7875
672.57211	3826.8875
676.52738	3839.4875
680.47986	3862.6875
684.42955	3843.4875
688.37646	3808.5875
692.32058	3783.6875
696.26192	3750.8875
700.20048	3731.1875
704.13626	3689.9875
708.06928	3653.7875
711.99952	3605.2875
715.927	3590.1875
719.85171	3584.9875
723.77365	3627.8875
727.69284	3650.4875
731.60928	3609.0875
735.52295	3525.1875
739.43388	3481.2875
743.34206	3470.2875
747.24749	3477.8875
751.15017	3480.3875
755.05012	3498.7875
758.94733	3522.9875
762.8418	3582.7875
766.73354	3691.6875
770.62254	3797.0875
774.50882	3812.7875
778.39237	3764.3875
782.27321	3642.6875
786.15132	3539.9875
790.02671	3501.9875
793.89938	3523.3875
797.76935	3569.7875
801.6366	3686.6875
805.50115	3883.6875
809.36299	4107.7875
813.22213	4212.8875
817.07857	4159.4875
820.93231	3944.2875
824.78336	3677.9875
828.63172	3482.6875
832.47738	3366.0875
836.32036	3305.5875
840.16066	3285.2875
843.99827	3262.5875
847.8332	3248.1875
851.66546	3244.1875
855.49504	3236.8875
859.32195	3263.9875
863.1462	3295.5875
866.96777	3353.5875
870.78668	3417.3875
874.60293	3529.2875
878.41652	3683.6875
882.22745	3835.8875
886.03573	3942.1875
889.84136	3969.8875
893.64433	3854.9875
897.44466	3639.7875
901.24235	3449.3875
905.0374	3297.5875
908.8298	3186.7875
912.61957	3148.8875
916.40671	3112.1875
920.19121	3086.5875
923.97308	3071.3875
927.75233	3085.4875
931.52895	3093.3875
935.30295	3084.0875
939.07433	3065.6875
942.84309	3047.8875
946.60924	3044.2875
950.37278	3028.3875
954.13371	3021.7875
957.89203	3004.3875
961.64774	2991.0875
965.40086	2981.0875
969.15137	2974.2875
972.89929	2946.3875
976.64461	2936.6875
980.38733	2938.3875
984.12747	2927.4875
987.86502	2935.6875
991.59999	2954.7875
995.33237	2982.0875
999.06217	3030.1875
1002.78939	3108.4875
1006.51404	3193.7875
1010.23611	3297.0875
1013.95561	3362.6875
1017.67255	3398.4875
1021.38692	3372.9875
1025.09872	3307.6875
1028.80796	3211.9875
1032.51465	3125.1875
1036.21877	3059.8875
1039.92035	3007.1875
1043.61937	3000.9875
1047.31584	2992.8875
1051.00976	2999.3875
1054.70114	3022.9875
1058.38998	3058.1875
1062.07627	3082.7875
1065.76003	3132.3875
1069.44126	3168.3875
1073.11995	3204.7875
1076.79611	3193.2875
1080.46974	3145.8875
1084.14085	3090.7875
1087.80943	3034.1875
1091.47549	2988.4875
1095.13903	2951.1875
1098.80005	2921.2875
1102.45857	2921.9875
1106.11456	2922.2875
1109.76805	2947.9875
1113.41903	3007.6875
1117.06751	3113.0875
1120.71348	3287.6875
1124.35696	3554.4875
1127.99793	3885.3875
1131.63641	4233.1875
1135.2724	4454.1875
1138.90589	4528.3875
1142.5369	4403.2875
1146.16542	4111.5875
1149.79145	3783.3875
1153.415	3483.8875
1157.03607	3247.1875
1160.65467	3122.3875
1164.27079	3046.8875
1167.88443	3042.3875
1171.49561	3081.5875
1175.10432	3137.8875
1178.71056	3273.1875
1182.31434	3377.1875
1185.91565	3471.2875
1189.51451	3545.9875
1193.11091	3635.7875
1196.70485	3787.4875
1200.29634	3932.6875
1203.88538	4040.8875
1207.47197	4010.2875
1211.05612	3855.4875
1214.63782	3662.7875
1218.21708	3440.8875
1221.79391	3258.9875
1225.36829	3134.5875
1228.94024	3039.0875
1232.50976	2996.8875
1236.07685	2986.8875
1239.6415	2982.9875
1243.20374	3011.8875
1246.76355	3018.9875
1250.32093	3037.0875
1253.8759	3046.9875
1257.42845	3074.7875
1260.97859	3068.7875
1264.52631	3088.3875
1268.07163	3092.0875
1271.61453	3088.9875
1275.15503	3058.3875
1278.69312	3041.1875
1282.22882	3026.0875
1285.76211	3036.9875
1289.29301	3068.0875
1292.82151	3091.2875
1296.34761	3140.2875
1299.87133	3224.7875
1303.39266	3323.1875
1306.9116	3470.0875
1310.42815	3626.2875
1313.94233	3730.3875
1317.45412	3746.7875
1320.96354	3713.2875
1324.47058	3675.3875
1327.97525	3652.5875
1331.47754	3658.1875
1334.97747	3684.7875
1338.47502	3749.2875
1341.97022	3820.0875
1345.46305	3915.8875
1348.95352	4030.2875
1352.44163	4152.4875
1355.92738	4304.9875
1359.41078	4509.7875
1362.89183	4660.3875
1366.37053	4614.8875
1369.84688	4363.6875
1373.32088	4091.0875
1376.79254	3879.5875
1380.26186	3741.0875
1383.72883	3643.5875
1387.19347	3569.7875
1390.65578	3494.5875
1394.11575	3431.4875
1397.57339	3378.8875
1401.0287	3372.8875
1404.48168	3323.9875
1407.93234	3284.6875
1411.38068	3202.5875
1414.82669	3136.5875
1418.27039	3053.5875
1421.71177	2965.4875
1425.15083	2868.4875
1428.58758	2818.8875
1432.02203	2772.8875
1435.45416	2744.6875
1438.88399	2713.1875
1442.31151	2685.5875
1445.73673	2675.1875
1449.15965	2660.5875
1452.58027	2652.8875
1455.9986	2640.7875
1459.41463	2630.4875
1462.82837	2634.4875
1466.23982	2658.3875
1469.64898	2676.3875
1473.05586	2691.2875
1476.46045	2695.7875
1479.86276	2713.4875
1483.26279	2725.0875
1486.66054	2754.3875
1490.05602	2787.4875
1493.44922	2845.1875
1496.84016	2910.2875
1500.22882	3012.6875
1503.61521	3151.6875
1506.99934	3320.4875
1510.38121	3449.3875
1513.76081	3479.4875
1517.13816	3364.8875
1520.51324	3198.1875
1523.88607	3051.7875
1527.25665	2962.6875
1530.62498	2924.7875
1533.99105	2933.8875
1537.35488	2955.5875
1540.71647	2983.1875
1544.07581	3033.9875
1547.4329	3055.6875
1550.78776	3085.5875
1554.14038	3093.2875
1557.49077	3112.6875
1560.83892	3135.0875
1564.18484	3125.2875
1567.52853	3135.5875
1570.86999	3164.3875
1574.20922	3204.9875
1577.54624	3228.6875
1580.88103	3235.4875
1584.2136	3178.8875
1587.54395	3156.1875
1590.87208	3149.1875
1594.19801	3190.2875
1597.52172	3233.4875
1600.84321	3299.6875
1604.16251	3318.8875
1607.47959	3299.7875
1610.79447	3265.6875
1614.10715	3247.8875
1617.41763	3217.4875
1620.7259	3188.4875
1624.03199	3176.9875
1627.33587	3158.3875
1630.63757	3153.9875
1633.93707	3162.4875
1637.23439	3198.6875
1640.52951	3276.7875
1643.82246	3388.0875
1647.11321	3534.3875
1650.40179	3641.0875
1653.68819	3642.9875
1656.97241	3538.0875
1660.25446	3388.8875
1663.53433	3287.2875
1666.81203	3210.6875
1670.08756	3132.4875
1673.36092	3088.9875
1676.63211	3061.4875
1679.90115	3029.9875
1683.16801	2980.0875
1686.43272	2941.9875
1689.69527	2908.9875
1692.95567	2858.9875
1696.2139	2812.3875
1699.46999	2749.9875
1702.72392	2653.4875
1705.97571	2544.8875
1709.22535	2452.5875
1712.47284	2394.6875
1715.71819	2331.3875
1718.96139	2294.4875
1722.20246	2253.3875
1725.44139	2232.6875
1728.67818	2215.6875
1731.91284	2186.8875
1735.14537	2161.9875
1738.37576	2135.0875
1741.60403	2133.9875
1744.83017	2121.3875
1748.05418	2128.2875
1751.27607	2122.7875
1754.49584	2133.1875
1757.71349	2117.8875
1760.92903	2116.8875
1764.14244	2097.1875
1767.35375	2073.2875
1770.56294	2048.9875
1773.77002	2021.4875
1776.97499	1984.8875
1780.17785	1952.5875
1783.37861	1931.8875
1786.57727	1915.2875
1789.77382	1887.6875
1792.96828	1880.2875
1796.16064	1859.6875
1799.3509	1847.1875
1802.53907	1829.6875
1805.72514	1823.9875
1808.90913	1818.3875
1812.09102	1815.5875
1815.27083	1809.0875
1818.44856	1801.1875
1821.6242	1785.3875
1824.79776	1779.9875
1827.96924	1791.2875
1831.13864	1772.9875
1834.30597	1776.8875
1837.47122	1769.0875
1840.6344	1746.8875
1843.7955	1753.9875
1846.95454	1758.9875
1850.11151	1756.7875
1853.26642	1747.0875
1856.41926	1741.7875
1859.57004	1743.2875
1862.71876	1740.5875
1865.86542	1724.9875
1869.01003	1723.3875
1872.15258	1722.9875
1875.29308	1718.3875
1878.43152	1714.7875
1881.56792	1704.3875
1884.70227	1710.7875
1887.83457	1688.2875
1890.96482	1695.3875
1894.09304	1695.0875
1897.21921	1690.6875
1900.34335	1683.3875
1903.46544	1675.9875
1906.58551	1674.9875
1909.70353	1673.7875
1912.81953	1679.5875
1915.93349	1663.1875
1919.04543	1667.3875
1922.15534	1655.1875
1925.26322	1657.6875
1928.36908	1646.2875
1931.47292	1648.0875
1934.57473	1641.0875
1937.67453	1626.9875
1940.77232	1630.3875
1943.86808	1623.3875
1946.96184	1617.3875
1950.05358	1599.3875
1953.14331	1598.5875
1956.23103	1598.4875
1959.31675	1590.0875
1962.40046	1583.0875
1965.48217	1579.8875
1968.56188	1586.3875
1971.63959	1572.3875
1974.7153	1561.3875
1977.78901	1554.4875
1980.86073	1556.7875
1983.93046	1532.7875
1986.99819	1546.6875
1990.06394	1532.8875
1993.1277	1519.4875
1996.18947	1520.2875
1999.24925	1518.0875
2002.30706	1514.6875
2005.36288	1509.2875
2008.41672	1501.9875
2011.46859	1493.0875
2014.51848	1495.1875
2017.56639	1490.5875
2020.61233	1482.3875
2023.6563	1471.6875
2026.6983	1472.9875
2029.73833	1465.6875
2032.7764	1467.5875
2035.8125	1462.4875
2038.84664	1442.9875
2041.87881	1448.0875
2044.90903	1441.8875
2047.93729	1438.4875
2050.96359	1435.5875
2053.98794	1434.8875
2057.01034	1436.8875
2060.03078	1436.3875
2063.04927	1430.4875
2066.06582	1419.7875
2069.08042	1422.4875
2072.09307	1418.7875
2075.10378	1423.9875
2078.11255	1420.6875
2081.11938	1420.4875
2084.12426	1407.2875
2087.12722	1403.8875
2090.12824	1408.1875
2093.12732	1408.6875
2096.12447	1407.8875
2099.11969	1408.3875
2102.11299	1410.0875
2105.10435	1402.7875
2108.09379	1405.5875
2111.08131	1400.9875
2114.0669	1401.6875
2117.05057	1406.6875
2120.03233	1414.6875
2123.01216	1401.9875
2125.99008	1401.3875
2128.96609	1404.5875
2131.94018	1402.4875
2134.91236	1409.1875
2137.88263	1400.3875
2140.851	1403.3875
2143.81746	1406.5875
2146.78201	1396.4875
2149.74466	1397.7875
2152.7054	1406.5875
2155.66425	1396.5875
2158.6212	1399.5875
2161.57625	1394.4875
2164.52941	1397.5875
2167.48067	1396.1875
2170.43004	1389.7875
2173.37752	1383.2875
2176.32311	1384.5875
2179.26681	1382.6875
2182.20863	1376.5875
2185.14856	1376.1875
2188.08661	1380.5875
2191.02278	1370.6875
2193.95707	1374.5875
2196.88948	1368.1875
2199.82001	1364.7875
2202.74867	1365.1875
2205.67545	1358.5875
2208.60037	1354.1875
2211.52341	1344.0875
2214.44458	1345.9875
2217.36388	1342.1875
2220.28132	1337.5875
2223.1969	1328.5875
2226.11061	1334.1875
2229.02246	1333.9875
2231.93245	1331.9875
2234.84058	1316.4875
2237.74686	1324.0875
2240.65128	1322.9875
2243.55385	1311.2875
2246.45456	1313.8875
2249.35343	1304.8875
2252.25044	1318.3875
2255.14561	1305.4875
2258.03893	1307.3875
2260.93041	1318.2875
2263.82004	1309.3875
2266.70783	1303.2875
2269.59378	1281.4875
2272.4779	1286.1875
2275.36017	1282.2875
2278.24061	1273.8875
2281.11922	1265.3875
2283.996	1270.6875
2286.87094	1272.3875
2289.74405	1266.0875
2292.61534	1250.1875
2295.4848	1254.8875
2298.35243	1253.1875
2301.21824	1251.6875
2304.08223	1252.2875
2306.94439	1247.3875
2309.80474	1242.9875
2312.66327	1245.5875
2315.51999	1251.3875
2318.37489	1238.1875
2321.22797	1236.3875
2324.07925	1227.2875
2326.92871	1234.9875
2329.77637	1234.8875
2332.62222	1234.5875
2335.46626	1214.7875
2338.3085	1225.1875
2341.14893	1222.2875
2343.98756	1211.9875
2346.8244	1200.0875
2349.65943	1200.5875
2352.49267	1215.6875
2355.32411	1204.8875
2358.15376	1202.9875
2360.98161	1191.4875
2363.80768	1209.4875
2366.63195	1204.0875
2369.45444	1196.2875
2372.27514	1195.6875
2375.09405	1201.5875
2377.91118	1190.3875
2380.72652	1193.1875
2383.54009	1190.4875
2386.35187	1193.7875
2389.16188	1173.8875
2391.97011	1177.9875
2394.77657	1180.0875
2397.58125	1171.9875
2400.38416	1173.5875
2403.18529	1165.3875
2405.98466	1166.4875
2408.78226	1162.2875
2411.57809	1157.7875
2414.37216	1152.8875
2417.16446	1163.6875
2419.955	1148.8875
2422.74378	1144.4875
2425.5308	1143.7875
2428.31606	1146.9875
2431.09956	1142.5875
2433.88131	1143.7875
2436.6613	1137.2875
2439.43954	1133.8875
2442.21603	1130.7875
2444.99077	1136.5875
2447.76377	1129.1875
2450.53501	1122.3875
2453.30451	1123.9875
2456.07226	1120.0875
2458.83827	1119.2875
2461.60254	1117.4875
2464.36507	1113.9875
2467.12586	1101.4875
2469.88492	1117.2875
2472.64224	1114.9875
2475.39782	1110.3875
2478.15167	1115.5875
2480.90379	1103.7875
2483.65417	1101.1875
2486.40283	1102.0875
2489.14976	1101.6875
2491.89497	1099.8875
2494.63845	1108.4875
2497.3802	1103.9875
2500.12024	1100.8875
2502.85855	1098.5875
2505.59514	1092.5875
2508.33002	1085.5875
2511.06318	1085.8875
2513.79462	1082.7875
2516.52435	1076.5875
2519.25237	1076.2875
2521.97867	1071.1875
2524.70327	1076.4875
2527.42616	1069.1875
2530.14734	1070.3875
2532.86681	1063.7875
2535.58458	1063.2875
2538.30065	1064.5875
2541.01501	1058.4875
2543.72768	1055.9875
2546.43864	1056.9875
2549.14791	1046.6875
2551.85548	1050.2875
2554.56136	1041.5875
2557.26554	1037.9875
2559.96803	1031.1875
2562.66883	1041.4875
2565.36794	1038.4875
2568.06536	1027.0875
2570.7611	1042.5875
2573.45514	1032.1875
2576.14751	1028.8875
2578.83819	1011.9875
2581.52719	1020.3875
2584.21451	1012.2875
2586.90015	1010.9875
2589.58411	1016.7875
2592.2664	1008.6875
2594.94701	1009.0875
2597.62594	1009.2875
2600.30321	998.5875
2602.9788	999.0875
2605.65273	997.3875
2608.32498	995.1875
2610.99557	998.8875
2613.66449	989.8875
2616.33175	993.0875
2618.99734	988.3875
2621.66128	986.9875
2624.32355	983.1875
2626.98416	993.5875
2629.64311	983.4875
2632.30041	979.3875
2634.95605	984.1875
2637.61004	982.1875
2640.26238	979.0875
2642.91306	971.0875
2645.56209	970.3875
2648.20948	987.8875
2650.85521	974.6875
2653.4993	972.9875
2656.14175	969.5875
2658.78255	966.5875
2661.42171	963.0875
2664.05923	966.2875
2666.6951	970.2875
2669.32934	971.8875
2671.96194	969.4875
2674.59291	966.6875
2677.22224	963.6875
2679.84993	967.3875
2682.476	958.7875
2685.10043	965.6875
2687.72324	951.8875
2690.34441	962.7875
2692.96396	958.2875
2695.58188	961.2875
2698.19818	966.8875
2700.81285	968.6875
2703.4259	981.9875
2706.03733	1016.9875
2708.64714	997.0875
2711.25533	975.9875
2713.86191	970.5875
2716.46687	980.0875
2719.07021	965.1875
2721.67194	966.1875
2724.27206	967.9875
2726.87057	967.9875
2729.46747	957.0875
2732.06276	959.2875
2734.65644	959.3875
2737.24852	955.3875
2739.83899	952.4875
2742.42786	953.8875
2745.01513	951.2875
2747.60079	949.5875
2750.18486	951.1875
2752.76733	944.4875
2755.3482	949.5875
2757.92747	943.9875
2760.50515	945.0875
2763.08123	940.4875
2765.65573	938.7875
2768.22863	934.4875
2770.79994	929.5875
2773.36967	934.3875
2775.9378	936.2875
2778.50435	929.7875
2781.06932	925.6875
2783.6327	935.1875
2786.1945	927.4875
2788.75471	926.6875
2791.31335	926.6875
2793.87041	924.6875
2796.42589	921.2875
2798.97979	918.5875
2801.53212	914.4875
2804.08288	919.2875
2806.63206	919.0875
2809.17967	918.0875
2811.72571	912.6875
2814.27018	918.9875
2816.81308	912.2875
2819.35442	913.3875
2821.89419	914.1875
2824.43239	914.9875
2826.96904	913.1875
2829.50412	908.8875
2832.03763	909.2875
2834.56959	907.8875
2837.1	912.8875
2839.62884	902.3875
2842.15613	904.2875
2844.68186	912.6875
2847.20604	910.8875
2849.72867	909.9875
2852.24974	905.2875
2854.76927	913.8875
2857.28724	928.2875
2859.80367	910.8875
2862.31855	907.3875
2864.83189	903.4875
2867.34368	905.6875
2869.85393	910.0875
2872.36264	902.3875
2874.8698	912.8875
2877.37543	909.7875
2879.87952	915.2875
2882.38207	918.3875
2884.88308	915.5875
2887.38256	926.2875
2889.88051	927.2875
2892.37692	922.3875
2894.8718	926.5875
2897.36515	936.8875
2899.85698	933.4875
2902.34727	935.7875
2904.83604	941.4875
2907.32328	944.1875
2909.809	956.7875
2912.29319	950.8875
2914.77587	953.8875
2917.25702	962.2875
2919.73665	958.0875
2922.21476	964.3875
2924.69136	957.1875
2927.16644	969.9875
2929.64	963.2875
2932.11205	966.0875
2934.58258	979.8875
2937.05161	1002.4875
2939.51912	981.4875
2941.98513	967.8875
2944.44962	972.2875
2946.91261	968.4875
2949.37409	974.3875
2951.83407	972.6875
2954.29254	970.3875
2956.74951	965.5875
2959.20498	956.9875
2961.65895	954.2875
2964.11142	950.9875
2966.56239	949.4875
2969.01186	945.6875
2971.45984	938.8875
2973.90632	930.8875
2976.35131	925.9875
2978.7948	926.1875
2981.23681	920.0875
2983.67732	920.6875
2986.11635	921.0875
2988.55388	918.3875
2990.98993	913.4875
2993.4245	911.3875
2995.85758	916.5875
2998.28917	917.2875
3000.71928	910.8875
3003.14791	917.1875
3005.57506	921.0875
3008.00073	912.8875
3010.42493	913.6875
3012.84764	915.3875
3015.26888	922.0875
3017.68865	921.4875
3020.10694	926.6875
3022.52376	919.1875
3024.9391	923.4875
3027.35298	920.6875
3029.76539	918.7875
3032.17632	920.5875
3034.5858	924.7875
3036.9938	928.6875
3039.40034	920.2875
3041.80542	926.7875
3044.20903	918.4875
3046.61118	930.9875
3049.01187	921.6875
3051.4111	926.7875
3053.80888	930.9875
3056.20519	929.0875
3058.60005	927.8875
3060.99345	938.5875
3063.3854	930.4875
3065.7759	937.2875
3068.16494	931.0875
3070.55254	947.6875
3072.93868	937.6875
3075.32338	942.9875
3077.70662	945.7875
3080.08842	945.4875
3082.46878	961.3875
3084.84769	951.7875
3087.22515	965.6875
3089.60118	961.5875
3091.97576	965.6875
3094.3489	973.4875
3096.72061	977.3875
3099.09087	990.0875
3101.4597	982.9875
3103.82709	987.7875
3106.19305	996.2875
3108.55757	995.1875
3110.92066	997.8875
3113.28232	1001.6875
3115.64255	1006.2875
3118.00134	1010.3875
3120.35871	1016.3875
3122.71466	1024.4875
3125.06917	1032.6875
3127.42226	1026.5875
3129.77393	1032.1875
3132.12417	1037.0875
3134.47299	1045.2875
3136.82039	1052.6875
3139.16636	1058.5875
3141.51092	1065.0875
3143.85406	1070.7875
3146.19579	1083.4875
3148.53609	1091.1875
3150.87499	1094.3875
3153.21246	1108.2875
3155.54853	1108.4875
3157.88318	1111.3875
3160.21642	1121.4875
3162.54826	1128.8875
3164.87868	1133.6875
3167.2077	1139.3875
3169.5353	1143.0875
3171.86151	1148.9875
3174.18631	1147.4875
3176.5097	1159.0875
3178.83169	1159.9875
3181.15228	1166.5875
3183.47147	1171.7875
3185.78926	1182.0875
3188.10565	1177.9875
3190.42065	1192.5875
3192.73424	1194.1875
3195.04645	1204.4875
3197.35725	1196.7875
3199.66667	1212.1875
3201.97469	1216.6875
3204.28132	1220.6875
3206.58656	1226.4875
3208.8904	1228.1875
3211.19287	1228.6875
3213.49394	1230.5875
3215.79363	1246.0875
3218.09193	1246.2875
3220.38884	1263.0875
3222.68438	1270.8875
3224.97853	1263.8875
3227.2713	1265.7875
3229.56269	1254.2875
3231.8527	1253.5875
3234.14133	1255.6875
3236.42858	1257.6875
3238.71446	1258.3875
3240.99896	1253.7875
3243.28209	1261.2875
3245.56384	1260.3875
3247.84423	1262.3875
3250.12324	1257.9875
3252.40088	1260.6875
3254.67715	1268.1875
3256.95205	1263.4875
3259.22558	1273.1875
3261.49775	1263.4875
3263.76855	1264.6875
3266.03799	1264.4875
3268.30606	1258.6875
3270.57277	1262.5875
3272.83812	1262.2875
3275.10211	1252.2875
3277.36474	1260.8875
3279.62601	1264.9875
3281.88593	1257.2875
3284.14448	1257.1875
3286.40168	1260.9875
3288.65753	1264.2875
3290.91202	1257.2875
3293.16516	1241.3875
3295.41695	1244.8875
3297.66738	1237.2875
3299.91647	1247.0875
3302.16421	1226.0875
3304.4106	1224.4875
3306.65564	1227.6875
3308.89933	1222.8875
3311.14169	1216.8875
3313.38269	1215.2875
3315.62236	1204.0875
3317.86068	1197.1875
3320.09766	1183.2875
3322.3333	1174.9875
3324.5676	1187.2875
3326.80056	1176.4875
3329.03219	1156.9875
3331.26248	0.2875
3333.49143	-0.0125
3335.71905	-0.3125
