Data from AgNPs_FTO_APTES_UA_0.1mM_CRN_200uM_NaF_0.1M_Addition_RamanShift__25__14-23-57-742.txt Node

Date: Mon Dec 20 14:23:57 GMT 2021
User: TCL
Spectrometer: QEP01345
Trigger mode: 4
Integration Time (sec): 7.000000E0
Scans to average: 10
Electric dark correction enabled: true
Nonlinearity correction enabled: false
Boxcar width: 0
XAxis mode: Raman Shifts
Number of Pixels in Spectrum: 1044
>>>>>Begin Spectral Data<<<<<
46.04893	0.7875
50.45542	-0.2125
54.85868	-1.4125
59.25871	1.1875
63.6555	29.1875
68.04907	27.5875
72.43941	31.2875
76.82654	33.7875
81.21044	34.8875
85.59113	38.6875
89.96862	35.6875
94.34289	35.7875
98.71396	38.0875
103.08183	39.1875
107.4465	40.9875
111.80798	42.9875
116.16626	43.7875
120.52136	43.3875
124.87327	43.6875
129.222	44.9875
133.56755	47.5875
137.90993	53.2875
142.24913	53.0875
146.58517	57.4875
150.91804	66.0875
155.24774	79.0875
159.57429	89.7875
163.89768	113.0875
168.21792	142.4875
172.53501	185.6875
176.84895	253.5875
181.15975	345.7875
185.46741	478.4875
189.77193	661.7875
194.07331	878.7875
198.37157	1144.5875
202.6667	1429.8875
206.9587	1703.0875
211.24758	1982.3875
215.53334	2253.3875
219.81599	2530.6875
224.09553	2806.2875
228.37195	3109.8875
232.64527	3444.9875
236.91549	3766.8875
241.18261	4086.8875
245.44663	4391.5875
249.70755	4651.0875
253.96539	4882.8875
258.22014	5058.4875
262.4718	5183.1875
266.72039	5250.1875
270.96589	5244.3875
275.20832	5233.5875
279.44768	5161.4875
283.68397	5086.4875
287.91719	5011.7875
292.14735	4973.0875
296.37445	4931.1875
300.59849	4925.2875
304.81948	4934.2875
309.03742	4920.7875
313.25231	4869.8875
317.46415	4794.5875
321.67296	4671.6875
325.87872	4568.4875
330.08145	4511.8875
334.28114	4502.8875
338.47781	4516.6875
342.67145	4560.9875
346.86207	4623.4875
351.04966	4710.1875
355.23424	4809.4875
359.4158	4898.3875
363.59435	4989.0875
367.76989	5020.0875
371.94243	5075.0875
376.11196	5115.8875
380.27849	5163.2875
384.44203	5214.7875
388.60257	5260.7875
392.76012	5303.0875
396.91468	5349.1875
401.06626	5417.7875
405.21485	5458.9875
409.36047	5440.1875
413.50311	5374.6875
417.64277	5306.7875
421.77947	5260.4875
425.9132	5243.2875
430.04396	5257.5875
434.17176	5272.5875
438.2966	5312.8875
442.41849	5369.1875
446.53742	5423.0875
450.6534	5512.9875
454.76644	5567.7875
458.87653	5589.0875
462.98368	5590.1875
467.08789	5562.3875
471.18916	5583.6875
475.2875	5574.5875
479.38291	5625.8875
483.4754	5720.0875
487.56496	5827.5875
491.6516	5938.5875
495.73531	5960.8875
499.81612	5919.5875
503.89401	5830.4875
507.96899	5749.3875
512.04106	5691.3875
516.11023	5710.0875
520.1765	5750.4875
524.23987	5827.0875
528.30034	5863.3875
532.35792	5877.2875
536.41261	5810.0875
540.46441	5677.9875
544.51333	5557.9875
548.55936	5489.2875
552.60252	5477.9875
556.64279	5510.0875
560.6802	5535.8875
564.71473	5574.1875
568.7464	5632.9875
572.7752	5704.2875
576.80114	5713.1875
580.82422	5710.1875
584.84444	5761.4875
588.86181	5869.1875
592.87633	5916.3875
596.888	5920.8875
600.89682	5912.5875
604.9028	6053.5875
608.90594	6430.7875
612.90624	7025.0875
616.90371	7119.6875
620.89834	6755.2875
624.89015	6823.4875
628.87913	7266.9875
632.86528	7748.4875
636.84862	8021.8875
640.82913	7856.4875
644.80683	7407.9875
648.78172	6879.6875
652.75379	6458.8875
656.72306	6222.3875
660.68952	6126.3875
664.65319	6064.5875
668.61405	6020.9875
672.57211	6031.4875
676.52738	6072.7875
680.47986	6084.1875
684.42955	6073.4875
688.37646	6050.7875
692.32058	6001.2875
696.26192	5947.3875
700.20048	5902.3875
704.13626	5833.1875
708.06928	5781.8875
711.99952	5705.6875
715.927	5647.1875
719.85171	5653.2875
723.77365	5698.2875
727.69284	5701.5875
731.60928	5665.7875
735.52295	5565.8875
739.43388	5509.1875
743.34206	5489.4875
747.24749	5513.8875
751.15017	5511.7875
755.05012	5551.5875
758.94733	5622.3875
762.8418	5747.7875
766.73354	5999.7875
770.62254	6206.2875
774.50882	6305.8875
778.39237	6215.4875
782.27321	5925.2875
786.15132	5716.2875
790.02671	5610.3875
793.89938	5628.2875
797.76935	5666.1875
801.6366	5782.2875
805.50115	6030.9875
809.36299	6328.2875
813.22213	6450.7875
817.07857	6325.0875
820.93231	6042.6875
824.78336	5716.6875
828.63172	5489.4875
832.47738	5356.4875
836.32036	5288.2875
840.16066	5246.7875
843.99827	5208.2875
847.8332	5184.8875
851.66546	5165.0875
855.49504	5154.1875
859.32195	5188.3875
863.1462	5199.0875
866.96777	5287.0875
870.78668	5366.4875
874.60293	5545.8875
878.41652	5693.3875
882.22745	5906.0875
886.03573	6037.6875
889.84136	6032.5875
893.64433	5857.6875
897.44466	5613.0875
901.24235	5374.8875
905.0374	5160.8875
908.8298	5062.7875
912.61957	4974.9875
916.40671	4939.5875
920.19121	4926.8875
923.97308	4933.3875
927.75233	4909.9875
931.52895	4925.5875
935.30295	4908.9875
939.07433	4879.1875
942.84309	4849.4875
946.60924	4846.1875
950.37278	4842.7875
954.13371	4829.5875
957.89203	4805.9875
961.64774	4806.2875
965.40086	4763.5875
969.15137	4735.6875
972.89929	4715.5875
976.64461	4690.1875
980.38733	4665.4875
984.12747	4669.9875
987.86502	4684.0875
991.59999	4700.5875
995.33237	4748.2875
999.06217	4834.8875
1002.78939	4954.6875
1006.51404	5064.4875
1010.23611	5179.3875
1013.95561	5275.7875
1017.67255	5297.8875
1021.38692	5266.5875
1025.09872	5153.5875
1028.80796	5063.0875
1032.51465	4928.0875
1036.21877	4859.4875
1039.92035	4804.5875
1043.61937	4767.3875
1047.31584	4777.2875
1051.00976	4794.9875
1054.70114	4789.0875
1058.38998	4843.2875
1062.07627	4903.4875
1065.76003	4964.6875
1069.44126	5020.8875
1073.11995	5055.3875
1076.79611	5069.9875
1080.46974	5019.5875
1084.14085	4941.7875
1087.80943	4878.4875
1091.47549	4826.5875
1095.13903	4791.9875
1098.80005	4740.8875
1102.45857	4711.8875
1106.11456	4704.0875
1109.76805	4743.6875
1113.41903	4823.8875
1117.06751	4981.5875
1120.71348	5212.8875
1124.35696	5564.4875
1127.99793	6021.5875
1131.63641	6480.0875
1135.2724	6738.0875
1138.90589	6768.7875
1142.5369	6565.0875
1146.16542	6207.7875
1149.79145	5789.2875
1153.415	5447.2875
1157.03607	5168.8875
1160.65467	5009.4875
1164.27079	4956.3875
1167.88443	4993.1875
1171.49561	5095.7875
1175.10432	5268.8875
1178.71056	5531.3875
1182.31434	5784.3875
1185.91565	5927.3875
1189.51451	5997.5875
1193.11091	6088.9875
1196.70485	6214.8875
1200.29634	6359.7875
1203.88538	6426.7875
1207.47197	6324.9875
1211.05612	6093.3875
1214.63782	5843.3875
1218.21708	5568.0875
1221.79391	5317.0875
1225.36829	5157.9875
1228.94024	5029.1875
1232.50976	4960.6875
1236.07685	4919.3875
1239.6415	4913.4875
1243.20374	4934.1875
1246.76355	4958.6875
1250.32093	4991.3875
1253.8759	5025.5875
1257.42845	5071.2875
1260.97859	5101.8875
1264.52631	5131.2875
1268.07163	5145.9875
1271.61453	5179.3875
1275.15503	5183.2875
1278.69312	5187.0875
1282.22882	5174.2875
1285.76211	5233.8875
1289.29301	5292.5875
1292.82151	5395.2875
1296.34761	5520.9875
1299.87133	5710.5875
1303.39266	5920.9875
1306.9116	6224.5875
1310.42815	6568.8875
1313.94233	6785.1875
1317.45412	6813.6875
1320.96354	6742.9875
1324.47058	6631.9875
1327.97525	6551.0875
1331.47754	6520.3875
1334.97747	6520.7875
1338.47502	6604.4875
1341.97022	6757.7875
1345.46305	6834.4875
1348.95352	6982.2875
1352.44163	7165.7875
1355.92738	7400.3875
1359.41078	7745.0875
1362.89183	8091.2875
1366.37053	8022.1875
1369.84688	7490.2875
1373.32088	6951.2875
1376.79254	6540.1875
1380.26186	6278.9875
1383.72883	6143.7875
1387.19347	6050.2875
1390.65578	5955.1875
1394.11575	5881.2875
1397.57339	5805.7875
1401.0287	5805.2875
1404.48168	5791.2875
1407.93234	5716.3875
1411.38068	5597.8875
1414.82669	5440.5875
1418.27039	5264.5875
1421.71177	5075.8875
1425.15083	4905.7875
1428.58758	4814.9875
1432.02203	4731.6875
1435.45416	4697.8875
1438.88399	4703.5875
1442.31151	4686.4875
1445.73673	4697.6875
1449.15965	4722.3875
1452.58027	4725.4875
1455.9986	4736.8875
1459.41463	4750.6875
1462.82837	4779.6875
1466.23982	4802.0875
1469.64898	4869.6875
1473.05586	4896.2875
1476.46045	4900.5875
1479.86276	4921.9875
1483.26279	4922.2875
1486.66054	4968.1875
1490.05602	4980.5875
1493.44922	5091.5875
1496.84016	5188.0875
1500.22882	5368.0875
1503.61521	5607.5875
1506.99934	5909.8875
1510.38121	6171.1875
1513.76081	6245.8875
1517.13816	6055.3875
1520.51324	5735.8875
1523.88607	5421.4875
1527.25665	5252.2875
1530.62498	5196.3875
1533.99105	5185.2875
1537.35488	5218.1875
1540.71647	5232.2875
1544.07581	5280.0875
1547.4329	5307.9875
1550.78776	5350.4875
1554.14038	5349.9875
1557.49077	5351.3875
1560.83892	5386.0875
1564.18484	5406.7875
1567.52853	5435.8875
1570.86999	5472.8875
1574.20922	5538.2875
1577.54624	5589.6875
1580.88103	5578.4875
1584.2136	5534.4875
1587.54395	5482.2875
1590.87208	5510.8875
1594.19801	5633.2875
1597.52172	5777.4875
1600.84321	5881.4875
1604.16251	5844.0875
1607.47959	5724.2875
1610.79447	5576.8875
1614.10715	5439.0875
1617.41763	5325.1875
1620.7259	5239.5875
1624.03199	5185.9875
1627.33587	5157.6875
1630.63757	5177.5875
1633.93707	5250.2875
1637.23439	5404.9875
1640.52951	5628.4875
1643.82246	5932.8875
1647.11321	6257.2875
1650.40179	6489.5875
1653.68819	6422.4875
1656.97241	6108.8875
1660.25446	5740.4875
1663.53433	5413.2875
1666.81203	5194.4875
1670.08756	5065.4875
1673.36092	4956.2875
1676.63211	4872.3875
1679.90115	4810.7875
1683.16801	4723.6875
1686.43272	4653.0875
1689.69527	4578.9875
1692.95567	4512.6875
1696.2139	4423.8875
1699.46999	4331.1875
1702.72392	4216.9875
1705.97571	4080.8875
1709.22535	3977.9875
1712.47284	3904.5875
1715.71819	3828.4875
1718.96139	3768.3875
1722.20246	3732.2875
1725.44139	3678.7875
1728.67818	3647.5875
1731.91284	3595.5875
1735.14537	3543.3875
1738.37576	3530.7875
1741.60403	3521.6875
1744.83017	3496.8875
1748.05418	3486.9875
1751.27607	3489.0875
1754.49584	3479.0875
1757.71349	3480.7875
1760.92903	3450.7875
1764.14244	3430.0875
1767.35375	3404.5875
1770.56294	3365.3875
1773.77002	3339.9875
1776.97499	3306.7875
1780.17785	3261.8875
1783.37861	3234.0875
1786.57727	3204.7875
1789.77382	3172.3875
1792.96828	3147.1875
1796.16064	3133.3875
1799.3509	3111.0875
1802.53907	3100.9875
1805.72514	3066.0875
1808.90913	3072.6875
1812.09102	3048.9875
1815.27083	3054.2875
1818.44856	3040.7875
1821.6242	3033.1875
1824.79776	3013.2875
1827.96924	3017.3875
1831.13864	3001.7875
1834.30597	2992.1875
1837.47122	2985.1875
1840.6344	2975.6875
1843.7955	2983.9875
1846.95454	2971.4875
1850.11151	2975.1875
1853.26642	2955.2875
1856.41926	2957.4875
1859.57004	2959.7875
1862.71876	2958.6875
1865.86542	2940.3875
1869.01003	2938.2875
1872.15258	2916.3875
1875.29308	2928.3875
1878.43152	2916.8875
1881.56792	2910.9875
1884.70227	2902.1875
1887.83457	2904.4875
1890.96482	2889.0875
1894.09304	2885.1875
1897.21921	2882.2875
1900.34335	2871.3875
1903.46544	2870.6875
1906.58551	2869.6875
1909.70353	2864.6875
1912.81953	2859.6875
1915.93349	2829.1875
1919.04543	2834.3875
1922.15534	2828.8875
1925.26322	2823.7875
1928.36908	2816.5875
1931.47292	2798.5875
1934.57473	2797.5875
1937.67453	2791.6875
1940.77232	2779.2875
1943.86808	2779.2875
1946.96184	2768.5875
1950.05358	2759.9875
1953.14331	2745.5875
1956.23103	2738.6875
1959.31675	2725.7875
1962.40046	2716.0875
1965.48217	2704.8875
1968.56188	2699.7875
1971.63959	2685.7875
1974.7153	2677.1875
1977.78901	2670.7875
1980.86073	2657.7875
1983.93046	2645.3875
1986.99819	2646.9875
1990.06394	2642.1875
1993.1277	2619.7875
1996.18947	2622.3875
1999.24925	2612.0875
2002.30706	2605.6875
2005.36288	2593.7875
2008.41672	2585.6875
2011.46859	2574.8875
2014.51848	2559.9875
2017.56639	2559.4875
2020.61233	2545.5875
2023.6563	2533.4875
2026.6983	2524.8875
2029.73833	2513.1875
2032.7764	2518.6875
2035.8125	2520.9875
2038.84664	2509.4875
2041.87881	2509.5875
2044.90903	2491.4875
2047.93729	2495.7875
2050.96359	2491.8875
2053.98794	2477.4875
2057.01034	2482.8875
2060.03078	2472.7875
2063.04927	2471.7875
2066.06582	2465.1875
2069.08042	2472.6875
2072.09307	2452.6875
2075.10378	2455.8875
2078.11255	2462.2875
2081.11938	2454.3875
2084.12426	2454.4875
2087.12722	2451.3875
2090.12824	2447.2875
2093.12732	2442.7875
2096.12447	2452.4875
2099.11969	2441.8875
2102.11299	2432.3875
2105.10435	2448.8875
2108.09379	2427.3875
2111.08131	2433.1875
2114.0669	2437.9875
2117.05057	2442.7875
2120.03233	2432.6875
2123.01216	2455.2875
2125.99008	2434.4875
2128.96609	2443.9875
2131.94018	2439.8875
2134.91236	2445.6875
2137.88263	2433.5875
2140.851	2437.9875
2143.81746	2435.0875
2146.78201	2441.5875
2149.74466	2439.4875
2152.7054	2432.3875
2155.66425	2432.9875
2158.6212	2443.4875
2161.57625	2430.2875
2164.52941	2430.3875
2167.48067	2430.8875
2170.43004	2424.3875
2173.37752	2421.6875
2176.32311	2419.6875
2179.26681	2425.5875
2182.20863	2401.8875
2185.14856	2423.5875
2188.08661	2405.1875
2191.02278	2416.4875
2193.95707	2408.7875
2196.88948	2398.8875
2199.82001	2396.5875
2202.74867	2392.8875
2205.67545	2385.1875
2208.60037	2373.3875
2211.52341	2366.9875
2214.44458	2370.8875
2217.36388	2371.2875
2220.28132	2357.1875
2223.1969	2347.5875
2226.11061	2348.7875
2229.02246	2346.8875
2231.93245	2326.4875
2234.84058	2310.0875
2237.74686	2317.2875
2240.65128	2310.0875
2243.55385	2309.9875
2246.45456	2313.3875
2249.35343	2301.4875
2252.25044	2306.6875
2255.14561	2291.1875
2258.03893	2288.2875
2260.93041	2286.9875
2263.82004	2281.3875
2266.70783	2280.1875
2269.59378	2266.5875
2272.4779	2263.3875
2275.36017	2254.6875
2278.24061	2247.2875
2281.11922	2242.1875
2283.996	2240.7875
2286.87094	2244.5875
2289.74405	2225.2875
2292.61534	2219.9875
2295.4848	2214.6875
2298.35243	2226.2875
2301.21824	2193.0875
2304.08223	2209.5875
2306.94439	2206.8875
2309.80474	2200.3875
2312.66327	2195.3875
2315.51999	2194.0875
2318.37489	2187.0875
2321.22797	2188.9875
2324.07925	2182.3875
2326.92871	2181.0875
2329.77637	2170.9875
2332.62222	2182.5875
2335.46626	2164.2875
2338.3085	2148.8875
2341.14893	2157.6875
2343.98756	2152.7875
2346.8244	2154.7875
2349.65943	2137.6875
2352.49267	2145.8875
2355.32411	2145.1875
2358.15376	2142.8875
2360.98161	2142.7875
2363.80768	2142.5875
2366.63195	2136.4875
2369.45444	2140.9875
2372.27514	2136.7875
2375.09405	2138.1875
2377.91118	2121.8875
2380.72652	2116.9875
2383.54009	2114.9875
2386.35187	2112.8875
2389.16188	2107.6875
2391.97011	2106.6875
2394.77657	2104.6875
2397.58125	2083.9875
2400.38416	2095.9875
2403.18529	2086.1875
2405.98466	2089.2875
2408.78226	2081.0875
2411.57809	2073.2875
2414.37216	2060.6875
2417.16446	2055.7875
2419.955	2052.5875
2422.74378	2040.4875
2425.5308	2039.6875
2428.31606	2049.3875
2431.09956	2039.1875
2433.88131	2030.3875
2436.6613	2047.9875
2439.43954	2028.4875
2442.21603	2028.2875
2444.99077	2010.1875
2447.76377	2019.9875
2450.53501	2026.6875
2453.30451	2021.8875
2456.07226	2009.9875
2458.83827	2009.2875
2461.60254	1999.9875
2464.36507	1997.8875
2467.12586	1983.4875
2469.88492	1996.8875
2472.64224	1992.7875
2475.39782	2001.3875
2478.15167	1993.8875
2480.90379	1984.5875
2483.65417	1990.3875
2486.40283	1976.9875
2489.14976	1990.0875
2491.89497	1981.1875
2494.63845	1979.8875
2497.3802	1973.3875
2500.12024	1970.5875
2502.85855	1974.2875
2505.59514	1972.4875
2508.33002	1969.9875
2511.06318	1958.5875
2513.79462	1953.0875
2516.52435	1954.1875
2519.25237	1945.6875
2521.97867	1948.4875
2524.70327	1936.8875
2527.42616	1932.7875
2530.14734	1929.4875
2532.86681	1923.8875
2535.58458	1926.8875
2538.30065	1916.3875
2541.01501	1917.1875
2543.72768	1913.3875
2546.43864	1913.2875
2549.14791	1900.9875
2551.85548	1903.4875
2554.56136	1906.9875
2557.26554	1891.4875
2559.96803	1888.2875
2562.66883	1889.5875
2565.36794	1876.4875
2568.06536	1874.6875
2570.7611	1861.2875
2573.45514	1863.4875
2576.14751	1868.1875
2578.83819	1864.1875
2581.52719	1856.1875
2584.21451	1850.7875
2586.90015	1851.7875
2589.58411	1846.7875
2592.2664	1826.9875
2594.94701	1834.8875
2597.62594	1836.0875
2600.30321	1825.4875
2602.9788	1818.4875
2605.65273	1823.9875
2608.32498	1822.4875
2610.99557	1811.3875
2613.66449	1813.5875
2616.33175	1812.4875
2618.99734	1808.5875
2621.66128	1803.6875
2624.32355	1808.3875
2626.98416	1808.5875
2629.64311	1796.1875
2632.30041	1794.7875
2634.95605	1789.9875
2637.61004	1790.4875
2640.26238	1803.1875
2642.91306	1781.1875
2645.56209	1785.4875
2648.20948	1778.7875
2650.85521	1772.6875
2653.4993	1780.9875
2656.14175	1772.5875
2658.78255	1786.7875
2661.42171	1783.6875
2664.05923	1766.0875
2666.6951	1772.1875
2669.32934	1775.7875
2671.96194	1768.5875
2674.59291	1774.6875
2677.22224	1780.4875
2679.84993	1772.2875
2682.476	1762.8875
2685.10043	1773.2875
2687.72324	1768.0875
2690.34441	1773.1875
2692.96396	1766.2875
2695.58188	1776.6875
2698.19818	1773.1875
2700.81285	1777.2875
2703.4259	1780.2875
2706.03733	1804.3875
2708.64714	1786.3875
2711.25533	1781.7875
2713.86191	1778.1875
2716.46687	1773.3875
2719.07021	1769.8875
2721.67194	1774.2875
2724.27206	1770.0875
2726.87057	1773.7875
2729.46747	1762.7875
2732.06276	1776.6875
2734.65644	1767.7875
2737.24852	1754.6875
2739.83899	1766.6875
2742.42786	1761.8875
2745.01513	1745.5875
2747.60079	1751.5875
2750.18486	1758.2875
2752.76733	1729.5875
2755.3482	1747.4875
2757.92747	1745.3875
2760.50515	1739.7875
2763.08123	1736.2875
2765.65573	1730.9875
2768.22863	1729.4875
2770.79994	1731.5875
2773.36967	1722.4875
2775.9378	1731.0875
2778.50435	1720.0875
2781.06932	1715.3875
2783.6327	1722.5875
2786.1945	1716.7875
2788.75471	1709.2875
2791.31335	1711.7875
2793.87041	1713.3875
2796.42589	1701.5875
2798.97979	1700.4875
2801.53212	1700.7875
2804.08288	1703.5875
2806.63206	1694.8875
2809.17967	1694.7875
2811.72571	1681.5875
2814.27018	1689.4875
2816.81308	1684.3875
2819.35442	1679.1875
2821.89419	1677.9875
2824.43239	1685.7875
2826.96904	1674.8875
2829.50412	1677.8875
2832.03763	1679.4875
2834.56959	1667.2875
2837.1	1673.7875
2839.62884	1669.0875
2842.15613	1671.5875
2844.68186	1673.7875
2847.20604	1686.4875
2849.72867	1674.2875
2852.24974	1678.6875
2854.76927	1680.3875
2857.28724	1671.9875
2859.80367	1677.9875
2862.31855	1684.7875
2864.83189	1677.8875
2867.34368	1667.5875
2869.85393	1672.8875
2872.36264	1670.1875
2874.8698	1672.2875
2877.37543	1679.9875
2879.87952	1677.3875
2882.38207	1682.6875
2884.88308	1676.9875
2887.38256	1673.2875
2889.88051	1680.3875
2892.37692	1689.1875
2894.8718	1692.2875
2897.36515	1690.2875
2899.85698	1697.8875
2902.34727	1706.6875
2904.83604	1694.1875
2907.32328	1715.5875
2909.809	1705.2875
2912.29319	1718.6875
2914.77587	1713.9875
2917.25702	1716.3875
2919.73665	1709.9875
2922.21476	1714.2875
2924.69136	1723.5875
2927.16644	1732.4875
2929.64	1728.3875
2932.11205	1731.3875
2934.58258	1723.8875
2937.05161	1721.3875
2939.51912	1726.5875
2941.98513	1720.2875
2944.44962	1725.8875
2946.91261	1722.0875
2949.37409	1723.3875
2951.83407	1726.9875
2954.29254	1725.1875
2956.74951	1716.6875
2959.20498	1704.4875
2961.65895	1707.7875
2964.11142	1704.3875
2966.56239	1691.5875
2969.01186	1693.3875
2971.45984	1683.3875
2973.90632	1673.3875
2976.35131	1669.3875
2978.7948	1672.1875
2981.23681	1672.1875
2983.67732	1667.2875
2986.11635	1650.3875
2988.55388	1648.1875
2990.98993	1659.7875
2993.4245	1646.4875
2995.85758	1639.0875
2998.28917	1646.8875
3000.71928	1646.1875
3003.14791	1641.4875
3005.57506	1646.1875
3008.00073	1647.5875
3010.42493	1638.8875
3012.84764	1641.3875
3015.26888	1646.6875
3017.68865	1648.3875
3020.10694	1646.0875
3022.52376	1653.6875
3024.9391	1651.8875
3027.35298	1647.7875
3029.76539	1643.2875
3032.17632	1643.2875
3034.5858	1647.2875
3036.9938	1642.2875
3039.40034	1652.5875
3041.80542	1651.0875
3044.20903	1640.8875
3046.61118	1648.2875
3049.01187	1643.8875
3051.4111	1653.8875
3053.80888	1641.9875
3056.20519	1649.7875
3058.60005	1643.5875
3060.99345	1646.3875
3063.3854	1650.8875
3065.7759	1645.7875
3068.16494	1647.6875
3070.55254	1644.8875
3072.93868	1644.6875
3075.32338	1651.5875
3077.70662	1651.4875
3080.08842	1651.3875
3082.46878	1661.3875
3084.84769	1660.3875
3087.22515	1663.4875
3089.60118	1667.1875
3091.97576	1679.8875
3094.3489	1676.8875
3096.72061	1689.5875
3099.09087	1693.1875
3101.4597	1690.4875
3103.82709	1702.7875
3106.19305	1701.8875
3108.55757	1712.0875
3110.92066	1722.1875
3113.28232	1713.1875
3115.64255	1706.2875
3118.00134	1719.7875
3120.35871	1719.8875
3122.71466	1722.9875
3125.06917	1721.0875
3127.42226	1737.7875
3129.77393	1740.4875
3132.12417	1743.3875
3134.47299	1749.5875
3136.82039	1753.9875
3139.16636	1766.4875
3141.51092	1772.0875
3143.85406	1786.7875
3146.19579	1780.0875
3148.53609	1801.1875
3150.87499	1798.8875
3153.21246	1810.4875
3155.54853	1820.7875
3157.88318	1825.1875
3160.21642	1834.0875
3162.54826	1853.1875
3164.87868	1851.5875
3167.2077	1863.5875
3169.5353	1861.5875
3171.86151	1858.4875
3174.18631	1880.2875
3176.5097	1869.1875
3178.83169	1886.4875
3181.15228	1885.2875
3183.47147	1894.3875
3185.78926	1899.6875
3188.10565	1904.0875
3190.42065	1901.4875
3192.73424	1909.7875
3195.04645	1917.3875
3197.35725	1921.6875
3199.66667	1922.9875
3201.97469	1944.3875
3204.28132	1947.2875
3206.58656	1938.6875
3208.8904	1961.2875
3211.19287	1964.3875
3213.49394	1965.3875
3215.79363	1980.9875
3218.09193	1979.8875
3220.38884	1981.3875
3222.68438	1991.8875
3224.97853	1982.8875
3227.2713	1985.5875
3229.56269	1970.4875
3231.8527	1984.8875
3234.14133	1980.1875
3236.42858	1974.1875
3238.71446	1982.5875
3240.99896	1992.7875
3243.28209	1998.8875
3245.56384	1977.5875
3247.84423	1986.7875
3250.12324	1987.4875
3252.40088	1991.0875
3254.67715	1988.3875
3256.95205	1980.4875
3259.22558	1982.7875
3261.49775	1980.1875
3263.76855	1982.8875
3266.03799	1980.8875
3268.30606	1980.8875
3270.57277	1970.8875
3272.83812	1971.9875
3275.10211	1966.9875
3277.36474	1979.4875
3279.62601	1983.5875
3281.88593	1976.9875
3284.14448	1978.5875
3286.40168	1971.3875
3288.65753	1966.0875
3290.91202	1971.9875
3293.16516	1960.8875
3295.41695	1947.2875
3297.66738	1942.2875
3299.91647	1939.5875
3302.16421	1927.3875
3304.4106	1921.3875
3306.65564	1913.7875
3308.89933	1909.9875
3311.14169	1897.2875
3313.38269	1882.2875
3315.62236	1879.8875
3317.86068	1862.7875
3320.09766	1848.3875
3322.3333	1834.2875
3324.5676	1836.1875
3326.80056	1817.2875
3329.03219	1799.3875
3331.26248	-0.0125
3333.49143	0.5875
3335.71905	-0.9125
