Data from AgNPs_FTO_APTES_UA_0.1mM_CRN_200uM_NaF_0.1M_Addition_RamanShift__1__13-55-57-710.txt Node

Date: Mon Dec 20 13:55:57 GMT 2021
User: TCL
Spectrometer: QEP01345
Trigger mode: 4
Integration Time (sec): 7.000000E0
Scans to average: 10
Electric dark correction enabled: true
Nonlinearity correction enabled: false
Boxcar width: 0
XAxis mode: Raman Shifts
Number of Pixels in Spectrum: 1044
>>>>>Begin Spectral Data<<<<<
46.04893	0.3125
50.45542	-0.4875
54.85868	-1.2875
59.25871	0.8125
63.6555	28.8125
68.04907	29.8125
72.43941	32.7125
76.82654	32.7125
81.21044	34.4125
85.59113	41.2125
89.96862	37.1125
94.34289	41.2125
98.71396	39.0125
103.08183	41.4125
107.4465	44.7125
111.80798	48.3125
116.16626	45.1125
120.52136	47.4125
124.87327	49.5125
129.222	49.0125
133.56755	50.2125
137.90993	54.8125
142.24913	56.6125
146.58517	60.4125
150.91804	70.9125
155.24774	77.8125
159.57429	93.7125
163.89768	117.9125
168.21792	156.5125
172.53501	194.9125
176.84895	265.6125
181.15975	370.1125
185.46741	514.5125
189.77193	697.2125
194.07331	933.7125
198.37157	1200.3125
202.6667	1508.7125
206.9587	1790.4125
211.24758	2089.1125
215.53334	2387.4125
219.81599	2684.2125
224.09553	3036.0125
228.37195	3423.7125
232.64527	3838.8125
236.91549	4255.9125
241.18261	4653.3125
245.44663	5026.3125
249.70755	5339.1125
253.96539	5559.2125
258.22014	5742.6125
262.4718	5865.6125
266.72039	5932.9125
270.96589	5924.3125
275.20832	5871.7125
279.44768	5809.2125
283.68397	5714.1125
287.91719	5624.0125
292.14735	5551.1125
296.37445	5515.8125
300.59849	5482.8125
304.81948	5459.5125
309.03742	5443.4125
313.25231	5400.1125
317.46415	5341.5125
321.67296	5246.4125
325.87872	5190.3125
330.08145	5131.0125
334.28114	5127.4125
338.47781	5151.1125
342.67145	5159.4125
346.86207	5207.0125
351.04966	5266.0125
355.23424	5350.0125
359.4158	5427.6125
363.59435	5471.6125
367.76989	5542.9125
371.94243	5598.0125
376.11196	5654.9125
380.27849	5724.3125
384.44203	5771.2125
388.60257	5821.8125
392.76012	5885.6125
396.91468	5924.0125
401.06626	5989.9125
405.21485	6045.9125
409.36047	6033.8125
413.50311	6006.3125
417.64277	5978.9125
421.77947	5945.8125
425.9132	5961.0125
430.04396	5965.7125
434.17176	5994.4125
438.2966	6046.1125
442.41849	6063.8125
446.53742	6130.3125
450.6534	6194.3125
454.76644	6263.0125
458.87653	6296.0125
462.98368	6319.6125
467.08789	6331.8125
471.18916	6325.3125
475.2875	6341.6125
479.38291	6396.9125
483.4754	6488.7125
487.56496	6608.6125
491.6516	6758.4125
495.73531	6878.7125
499.81612	6902.4125
503.89401	6854.6125
507.96899	6726.5125
512.04106	6657.2125
516.11023	6608.7125
520.1765	6609.2125
524.23987	6632.5125
528.30034	6662.8125
532.35792	6717.7125
536.41261	6690.3125
540.46441	6608.2125
544.51333	6522.0125
548.55936	6450.6125
552.60252	6423.5125
556.64279	6390.6125
560.6802	6395.6125
564.71473	6397.7125
568.7464	6453.2125
572.7752	6507.8125
576.80114	6527.9125
580.82422	6596.1125
584.84444	6722.0125
588.86181	6861.8125
592.87633	6957.0125
596.888	6961.3125
600.89682	6908.1125
604.9028	6958.9125
608.90594	7219.9125
612.90624	7629.0125
616.90371	7671.6125
620.89834	7413.9125
624.89015	7555.0125
628.87913	8040.8125
632.86528	8656.0125
636.84862	9071.9125
640.82913	9072.8125
644.80683	8708.4125
648.78172	8161.4125
652.75379	7705.4125
656.72306	7369.2125
660.68952	7179.6125
664.65319	7006.4125
668.61405	6886.2125
672.57211	6840.4125
676.52738	6886.0125
680.47986	6927.8125
684.42955	6926.6125
688.37646	6855.7125
692.32058	6810.6125
696.26192	6736.8125
700.20048	6699.1125
704.13626	6645.7125
708.06928	6621.9125
711.99952	6612.9125
715.927	6612.4125
719.85171	6655.7125
723.77365	6732.8125
727.69284	6789.5125
731.60928	6769.0125
735.52295	6647.9125
739.43388	6575.9125
743.34206	6551.7125
747.24749	6553.1125
751.15017	6554.1125
755.05012	6583.7125
758.94733	6632.5125
762.8418	6731.0125
766.73354	6948.6125
770.62254	7104.4125
774.50882	7158.4125
778.39237	7053.8125
782.27321	6841.7125
786.15132	6640.5125
790.02671	6532.1125
793.89938	6501.3125
797.76935	6517.6125
801.6366	6606.8125
805.50115	6792.9125
809.36299	7017.1125
813.22213	7174.2125
817.07857	7166.3125
820.93231	6965.7125
824.78336	6735.4125
828.63172	6513.1125
832.47738	6380.0125
836.32036	6315.3125
840.16066	6289.6125
843.99827	6298.3125
847.8332	6300.1125
851.66546	6266.0125
855.49504	6286.1125
859.32195	6308.1125
863.1462	6333.1125
866.96777	6394.6125
870.78668	6484.5125
874.60293	6607.1125
878.41652	6762.7125
882.22745	6937.7125
886.03573	7067.9125
889.84136	7133.4125
893.64433	7057.2125
897.44466	6880.7125
901.24235	6630.2125
905.0374	6430.6125
908.8298	6291.4125
912.61957	6212.2125
916.40671	6160.5125
920.19121	6178.1125
923.97308	6152.0125
927.75233	6143.7125
931.52895	6160.9125
935.30295	6116.2125
939.07433	6096.9125
942.84309	6036.8125
946.60924	6009.6125
950.37278	5995.5125
954.13371	5985.5125
957.89203	5983.1125
961.64774	5979.4125
965.40086	5957.1125
969.15137	5935.7125
972.89929	5912.3125
976.64461	5897.4125
980.38733	5904.8125
984.12747	5906.5125
987.86502	5946.3125
991.59999	5959.2125
995.33237	6009.6125
999.06217	6082.7125
1002.78939	6182.3125
1006.51404	6259.9125
1010.23611	6335.6125
1013.95561	6412.8125
1017.67255	6458.9125
1021.38692	6453.6125
1025.09872	6413.1125
1028.80796	6358.9125
1032.51465	6287.2125
1036.21877	6235.1125
1039.92035	6152.7125
1043.61937	6139.1125
1047.31584	6112.2125
1051.00976	6111.2125
1054.70114	6127.8125
1058.38998	6149.9125
1062.07627	6241.7125
1065.76003	6301.8125
1069.44126	6388.1125
1073.11995	6471.6125
1076.79611	6524.3125
1080.46974	6499.0125
1084.14085	6420.3125
1087.80943	6347.7125
1091.47549	6295.2125
1095.13903	6243.5125
1098.80005	6194.4125
1102.45857	6180.0125
1106.11456	6150.8125
1109.76805	6199.1125
1113.41903	6332.1125
1117.06751	6560.3125
1120.71348	6902.6125
1124.35696	7398.8125
1127.99793	7940.5125
1131.63641	8472.2125
1135.2724	8693.2125
1138.90589	8637.3125
1142.5369	8351.5125
1146.16542	7903.0125
1149.79145	7419.0125
1153.415	6997.4125
1157.03607	6655.0125
1160.65467	6474.6125
1164.27079	6387.5125
1167.88443	6401.2125
1171.49561	6479.4125
1175.10432	6640.6125
1178.71056	6835.3125
1182.31434	7085.8125
1185.91565	7210.6125
1189.51451	7267.0125
1193.11091	7301.7125
1196.70485	7395.6125
1200.29634	7473.6125
1203.88538	7510.5125
1207.47197	7482.1125
1211.05612	7373.4125
1214.63782	7190.2125
1218.21708	7013.6125
1221.79391	6813.7125
1225.36829	6671.0125
1228.94024	6561.5125
1232.50976	6473.2125
1236.07685	6422.0125
1239.6415	6438.0125
1243.20374	6453.2125
1246.76355	6492.0125
1250.32093	6541.8125
1253.8759	6608.5125
1257.42845	6691.1125
1260.97859	6762.4125
1264.52631	6813.1125
1268.07163	6828.2125
1271.61453	6897.9125
1275.15503	6905.8125
1278.69312	6907.0125
1282.22882	6883.8125
1285.76211	6911.7125
1289.29301	6968.1125
1292.82151	7035.9125
1296.34761	7129.4125
1299.87133	7269.8125
1303.39266	7435.4125
1306.9116	7639.7125
1310.42815	7856.8125
1313.94233	8030.7125
1317.45412	8066.8125
1320.96354	8006.2125
1324.47058	7936.7125
1327.97525	7874.9125
1331.47754	7826.6125
1334.97747	7830.7125
1338.47502	7855.4125
1341.97022	7927.3125
1345.46305	8045.1125
1348.95352	8187.9125
1352.44163	8377.7125
1355.92738	8587.8125
1359.41078	8877.1125
1362.89183	9141.4125
1366.37053	9147.7125
1369.84688	8802.9125
1373.32088	8350.0125
1376.79254	8015.6125
1380.26186	7770.8125
1383.72883	7633.3125
1387.19347	7475.8125
1390.65578	7339.4125
1394.11575	7195.4125
1397.57339	7110.5125
1401.0287	6995.0125
1404.48168	6910.6125
1407.93234	6816.4125
1411.38068	6722.2125
1414.82669	6572.6125
1418.27039	6444.5125
1421.71177	6346.5125
1425.15083	6226.4125
1428.58758	6150.0125
1432.02203	6093.0125
1435.45416	6088.1125
1438.88399	6090.8125
1442.31151	6099.4125
1445.73673	6106.6125
1449.15965	6107.0125
1452.58027	6126.9125
1455.9986	6124.7125
1459.41463	6139.6125
1462.82837	6160.9125
1466.23982	6179.1125
1469.64898	6239.3125
1473.05586	6280.4125
1476.46045	6310.4125
1479.86276	6339.6125
1483.26279	6333.4125
1486.66054	6420.3125
1490.05602	6484.8125
1493.44922	6576.5125
1496.84016	6728.4125
1500.22882	6903.7125
1503.61521	7159.2125
1506.99934	7399.7125
1510.38121	7583.0125
1513.76081	7629.7125
1517.13816	7480.7125
1520.51324	7235.1125
1523.88607	7028.3125
1527.25665	6906.7125
1530.62498	6865.7125
1533.99105	6888.4125
1537.35488	6895.4125
1540.71647	6934.3125
1544.07581	6950.7125
1547.4329	6956.9125
1550.78776	6973.8125
1554.14038	6989.5125
1557.49077	6983.6125
1560.83892	6997.0125
1564.18484	7023.3125
1567.52853	7049.7125
1570.86999	7120.6125
1574.20922	7123.1125
1577.54624	7138.2125
1580.88103	7111.8125
1584.2136	7022.2125
1587.54395	6971.4125
1590.87208	6971.0125
1594.19801	7000.5125
1597.52172	7106.7125
1600.84321	7150.9125
1604.16251	7091.0125
1607.47959	6999.0125
1610.79447	6890.1125
1614.10715	6759.2125
1617.41763	6703.5125
1620.7259	6654.6125
1624.03199	6623.5125
1627.33587	6661.3125
1630.63757	6724.1125
1633.93707	6877.6125
1637.23439	7087.1125
1640.52951	7374.5125
1643.82246	7685.1125
1647.11321	8042.5125
1650.40179	8232.8125
1653.68819	8173.9125
1656.97241	7877.0125
1660.25446	7528.7125
1663.53433	7242.8125
1666.81203	7060.7125
1670.08756	6932.2125
1673.36092	6858.6125
1676.63211	6815.6125
1679.90115	6772.2125
1683.16801	6734.8125
1686.43272	6648.5125
1689.69527	6568.8125
1692.95567	6450.6125
1696.2139	6368.3125
1699.46999	6262.5125
1702.72392	6137.6125
1705.97571	5983.5125
1709.22535	5797.9125
1712.47284	5647.1125
1715.71819	5514.4125
1718.96139	5406.9125
1722.20246	5326.2125
1725.44139	5237.7125
1728.67818	5178.0125
1731.91284	5121.5125
1735.14537	5075.0125
1738.37576	5005.6125
1741.60403	4985.6125
1744.83017	4957.4125
1748.05418	4962.1125
1751.27607	4922.7125
1754.49584	4921.4125
1757.71349	4918.3125
1760.92903	4899.3125
1764.14244	4887.2125
1767.35375	4864.9125
1770.56294	4857.8125
1773.77002	4828.3125
1776.97499	4821.2125
1780.17785	4813.7125
1783.37861	4787.8125
1786.57727	4785.7125
1789.77382	4749.2125
1792.96828	4749.2125
1796.16064	4704.5125
1799.3509	4708.4125
1802.53907	4688.7125
1805.72514	4678.6125
1808.90913	4662.3125
1812.09102	4657.1125
1815.27083	4657.7125
1818.44856	4640.1125
1821.6242	4619.9125
1824.79776	4603.5125
1827.96924	4604.9125
1831.13864	4594.1125
1834.30597	4583.1125
1837.47122	4592.4125
1840.6344	4561.4125
1843.7955	4570.1125
1846.95454	4567.6125
1850.11151	4569.1125
1853.26642	4550.2125
1856.41926	4553.2125
1859.57004	4555.8125
1862.71876	4551.9125
1865.86542	4534.4125
1869.01003	4542.9125
1872.15258	4543.5125
1875.29308	4526.5125
1878.43152	4513.3125
1881.56792	4513.7125
1884.70227	4509.9125
1887.83457	4506.8125
1890.96482	4475.8125
1894.09304	4487.1125
1897.21921	4451.7125
1900.34335	4458.1125
1903.46544	4462.7125
1906.58551	4473.9125
1909.70353	4438.8125
1912.81953	4449.7125
1915.93349	4442.3125
1919.04543	4432.6125
1922.15534	4423.9125
1925.26322	4400.8125
1928.36908	4404.1125
1931.47292	4397.5125
1934.57473	4381.3125
1937.67453	4376.1125
1940.77232	4366.4125
1943.86808	4361.3125
1946.96184	4342.7125
1950.05358	4322.5125
1953.14331	4326.8125
1956.23103	4299.6125
1959.31675	4294.2125
1962.40046	4280.0125
1965.48217	4269.3125
1968.56188	4256.6125
1971.63959	4244.8125
1974.7153	4216.0125
1977.78901	4211.0125
1980.86073	4197.1125
1983.93046	4184.5125
1986.99819	4178.3125
1990.06394	4157.3125
1993.1277	4164.2125
1996.18947	4136.8125
1999.24925	4136.2125
2002.30706	4128.6125
2005.36288	4107.3125
2008.41672	4095.1125
2011.46859	4081.7125
2014.51848	4082.2125
2017.56639	4043.2125
2020.61233	4043.1125
2023.6563	4036.4125
2026.6983	4023.7125
2029.73833	4013.9125
2032.7764	4008.0125
2035.8125	3982.6125
2038.84664	3989.6125
2041.87881	3991.2125
2044.90903	3968.2125
2047.93729	3975.0125
2050.96359	3976.4125
2053.98794	3946.2125
2057.01034	3951.5125
2060.03078	3940.6125
2063.04927	3937.4125
2066.06582	3936.0125
2069.08042	3938.6125
2072.09307	3936.7125
2075.10378	3945.1125
2078.11255	3935.7125
2081.11938	3932.8125
2084.12426	3944.5125
2087.12722	3937.9125
2090.12824	3934.2125
2093.12732	3932.1125
2096.12447	3926.1125
2099.11969	3939.3125
2102.11299	3938.5125
2105.10435	3936.8125
2108.09379	3920.4125
2111.08131	3925.5125
2114.0669	3921.5125
2117.05057	3933.0125
2120.03233	3939.2125
2123.01216	3954.4125
2125.99008	3957.3125
2128.96609	3941.1125
2131.94018	3943.6125
2134.91236	3949.4125
2137.88263	3938.7125
2140.851	3941.6125
2143.81746	3938.0125
2146.78201	3965.6125
2149.74466	3954.3125
2152.7054	3952.0125
2155.66425	3960.6125
2158.6212	3971.1125
2161.57625	3947.4125
2164.52941	3960.1125
2167.48067	3945.3125
2170.43004	3945.1125
2173.37752	3940.1125
2176.32311	3933.0125
2179.26681	3941.7125
2182.20863	3933.2125
2185.14856	3945.2125
2188.08661	3940.2125
2191.02278	3924.7125
2193.95707	3921.7125
2196.88948	3925.0125
2199.82001	3917.4125
2202.74867	3913.2125
2205.67545	3904.6125
2208.60037	3902.3125
2211.52341	3893.7125
2214.44458	3895.1125
2217.36388	3876.6125
2220.28132	3870.9125
2223.1969	3847.7125
2226.11061	3849.6125
2229.02246	3847.9125
2231.93245	3842.9125
2234.84058	3842.6125
2237.74686	3824.8125
2240.65128	3811.7125
2243.55385	3809.1125
2246.45456	3812.7125
2249.35343	3804.0125
2252.25044	3792.6125
2255.14561	3783.8125
2258.03893	3797.9125
2260.93041	3797.7125
2263.82004	3764.2125
2266.70783	3755.6125
2269.59378	3769.3125
2272.4779	3752.1125
2275.36017	3737.6125
2278.24061	3724.8125
2281.11922	3725.1125
2283.996	3714.3125
2286.87094	3699.6125
2289.74405	3689.8125
2292.61534	3696.8125
2295.4848	3677.3125
2298.35243	3683.7125
2301.21824	3679.8125
2304.08223	3684.7125
2306.94439	3682.1125
2309.80474	3684.1125
2312.66327	3676.9125
2315.51999	3666.8125
2318.37489	3661.6125
2321.22797	3647.0125
2324.07925	3647.6125
2326.92871	3651.0125
2329.77637	3625.1125
2332.62222	3643.9125
2335.46626	3620.5125
2338.3085	3610.3125
2341.14893	3606.2125
2343.98756	3616.1125
2346.8244	3604.5125
2349.65943	3588.3125
2352.49267	3593.5125
2355.32411	3585.2125
2358.15376	3577.2125
2360.98161	3578.0125
2363.80768	3577.0125
2366.63195	3571.3125
2369.45444	3573.9125
2372.27514	3580.5125
2375.09405	3570.0125
2377.91118	3562.4125
2380.72652	3553.9125
2383.54009	3539.7125
2386.35187	3540.5125
2389.16188	3526.1125
2391.97011	3537.7125
2394.77657	3521.5125
2397.58125	3504.2125
2400.38416	3515.9125
2403.18529	3489.4125
2405.98466	3502.5125
2408.78226	3504.1125
2411.57809	3489.9125
2414.37216	3479.6125
2417.16446	3476.2125
2419.955	3477.1125
2422.74378	3461.2125
2425.5308	3456.5125
2428.31606	3457.5125
2431.09956	3438.9125
2433.88131	3459.2125
2436.6613	3445.3125
2439.43954	3451.4125
2442.21603	3429.4125
2444.99077	3424.4125
2447.76377	3423.7125
2450.53501	3411.0125
2453.30451	3414.8125
2456.07226	3403.0125
2458.83827	3410.1125
2461.60254	3406.9125
2464.36507	3401.0125
2467.12586	3393.0125
2469.88492	3383.9125
2472.64224	3390.5125
2475.39782	3384.3125
2478.15167	3385.6125
2480.90379	3380.6125
2483.65417	3386.4125
2486.40283	3366.6125
2489.14976	3364.5125
2491.89497	3364.7125
2494.63845	3383.0125
2497.3802	3361.7125
2500.12024	3361.3125
2502.85855	3358.9125
2505.59514	3351.3125
2508.33002	3342.0125
2511.06318	3361.5125
2513.79462	3351.6125
2516.52435	3326.8125
2519.25237	3327.0125
2521.97867	3338.4125
2524.70327	3332.5125
2527.42616	3317.6125
2530.14734	3318.7125
2532.86681	3300.6125
2535.58458	3296.8125
2538.30065	3303.4125
2541.01501	3293.0125
2543.72768	3278.9125
2546.43864	3271.4125
2549.14791	3272.2125
2551.85548	3272.9125
2554.56136	3265.3125
2557.26554	3247.1125
2559.96803	3231.4125
2562.66883	3245.1125
2565.36794	3239.9125
2568.06536	3234.7125
2570.7611	3216.0125
2573.45514	3222.3125
2576.14751	3217.3125
2578.83819	3217.3125
2581.52719	3201.1125
2584.21451	3191.4125
2586.90015	3190.2125
2589.58411	3193.8125
2592.2664	3193.2125
2594.94701	3168.3125
2597.62594	3175.0125
2600.30321	3150.4125
2602.9788	3168.7125
2605.65273	3142.9125
2608.32498	3138.0125
2610.99557	3135.9125
2613.66449	3133.3125
2616.33175	3134.0125
2618.99734	3131.5125
2621.66128	3132.1125
2624.32355	3109.8125
2626.98416	3123.7125
2629.64311	3117.0125
2632.30041	3114.4125
2634.95605	3100.7125
2637.61004	3094.9125
2640.26238	3095.8125
2642.91306	3082.1125
2645.56209	3088.1125
2648.20948	3084.0125
2650.85521	3080.2125
2653.4993	3080.2125
2656.14175	3082.9125
2658.78255	3086.2125
2661.42171	3076.5125
2664.05923	3078.6125
2666.6951	3066.6125
2669.32934	3070.5125
2671.96194	3071.4125
2674.59291	3077.5125
2677.22224	3060.1125
2679.84993	3077.5125
2682.476	3069.6125
2685.10043	3079.3125
2687.72324	3079.3125
2690.34441	3071.8125
2692.96396	3073.8125
2695.58188	3077.9125
2698.19818	3075.7125
2700.81285	3086.4125
2703.4259	3086.9125
2706.03733	3101.7125
2708.64714	3082.4125
2711.25533	3087.5125
2713.86191	3069.6125
2716.46687	3078.8125
2719.07021	3065.3125
2721.67194	3081.7125
2724.27206	3065.1125
2726.87057	3065.6125
2729.46747	3072.7125
2732.06276	3077.5125
2734.65644	3067.2125
2737.24852	3078.2125
2739.83899	3059.5125
2742.42786	3071.9125
2745.01513	3043.4125
2747.60079	3054.1125
2750.18486	3052.7125
2752.76733	3044.3125
2755.3482	3038.4125
2757.92747	3034.9125
2760.50515	3029.1125
2763.08123	3017.6125
2765.65573	3032.0125
2768.22863	3017.4125
2770.79994	3015.8125
2773.36967	3026.9125
2775.9378	3008.4125
2778.50435	3001.2125
2781.06932	2998.7125
2783.6327	2997.8125
2786.1945	2995.6125
2788.75471	2987.6125
2791.31335	2988.2125
2793.87041	2972.8125
2796.42589	2965.2125
2798.97979	2962.1125
2801.53212	2957.3125
2804.08288	2958.0125
2806.63206	2941.7125
2809.17967	2944.2125
2811.72571	2933.0125
2814.27018	2932.3125
2816.81308	2924.4125
2819.35442	2920.8125
2821.89419	2916.8125
2824.43239	2920.2125
2826.96904	2910.4125
2829.50412	2921.9125
2832.03763	2911.0125
2834.56959	2900.6125
2837.1	2893.9125
2839.62884	2900.4125
2842.15613	2906.9125
2844.68186	2916.1125
2847.20604	2906.2125
2849.72867	2896.8125
2852.24974	2898.9125
2854.76927	2902.1125
2857.28724	2896.7125
2859.80367	2900.7125
2862.31855	2893.9125
2864.83189	2884.6125
2867.34368	2884.4125
2869.85393	2896.3125
2872.36264	2886.3125
2874.8698	2889.1125
2877.37543	2889.4125
2879.87952	2881.7125
2882.38207	2895.5125
2884.88308	2888.8125
2887.38256	2891.0125
2889.88051	2893.9125
2892.37692	2894.3125
2894.8718	2898.3125
2897.36515	2903.4125
2899.85698	2904.1125
2902.34727	2908.8125
2904.83604	2903.2125
2907.32328	2922.0125
2909.809	2913.7125
2912.29319	2919.2125
2914.77587	2914.2125
2917.25702	2918.2125
2919.73665	2910.7125
2922.21476	2923.2125
2924.69136	2931.0125
2927.16644	2943.0125
2929.64	2930.3125
2932.11205	2918.1125
2934.58258	2918.0125
2937.05161	2927.7125
2939.51912	2920.0125
2941.98513	2912.0125
2944.44962	2918.9125
2946.91261	2905.3125
2949.37409	2931.7125
2951.83407	2915.1125
2954.29254	2917.9125
2956.74951	2920.2125
2959.20498	2906.7125
2961.65895	2898.4125
2964.11142	2900.9125
2966.56239	2889.0125
2969.01186	2886.4125
2971.45984	2873.9125
2973.90632	2872.4125
2976.35131	2863.0125
2978.7948	2863.0125
2981.23681	2858.7125
2983.67732	2868.4125
2986.11635	2850.3125
2988.55388	2836.5125
2990.98993	2838.3125
2993.4245	2839.4125
2995.85758	2830.5125
2998.28917	2819.9125
3000.71928	2814.6125
3003.14791	2822.3125
3005.57506	2821.9125
3008.00073	2819.8125
3010.42493	2816.8125
3012.84764	2815.5125
3015.26888	2823.1125
3017.68865	2813.2125
3020.10694	2815.3125
3022.52376	2809.9125
3024.9391	2823.4125
3027.35298	2819.5125
3029.76539	2815.2125
3032.17632	2808.6125
3034.5858	2802.3125
3036.9938	2817.7125
3039.40034	2808.9125
3041.80542	2804.3125
3044.20903	2800.7125
3046.61118	2801.0125
3049.01187	2793.7125
3051.4111	2811.2125
3053.80888	2806.9125
3056.20519	2803.1125
3058.60005	2802.9125
3060.99345	2800.4125
3063.3854	2795.0125
3065.7759	2792.0125
3068.16494	2789.2125
3070.55254	2797.2125
3072.93868	2818.5125
3075.32338	2798.1125
3077.70662	2787.8125
3080.08842	2793.1125
3082.46878	2799.2125
3084.84769	2813.5125
3087.22515	2798.5125
3089.60118	2804.8125
3091.97576	2807.9125
3094.3489	2814.6125
3096.72061	2818.0125
3099.09087	2828.1125
3101.4597	2828.6125
3103.82709	2835.9125
3106.19305	2840.6125
3108.55757	2838.7125
3110.92066	2823.7125
3113.28232	2832.0125
3115.64255	2837.4125
3118.00134	2828.7125
3120.35871	2842.4125
3122.71466	2856.7125
3125.06917	2842.5125
3127.42226	2836.4125
3129.77393	2856.2125
3132.12417	2861.5125
3134.47299	2862.1125
3136.82039	2872.6125
3139.16636	2876.2125
3141.51092	2887.2125
3143.85406	2891.6125
3146.19579	2892.8125
3148.53609	2907.8125
3150.87499	2910.0125
3153.21246	2930.0125
3155.54853	2940.7125
3157.88318	2932.7125
3160.21642	2951.4125
3162.54826	2951.7125
3164.87868	2941.0125
3167.2077	2950.8125
3169.5353	2976.6125
3171.86151	2978.8125
3174.18631	2968.7125
3176.5097	2974.2125
3178.83169	2981.9125
3181.15228	2989.5125
3183.47147	2992.2125
3185.78926	2985.1125
3188.10565	2989.1125
3190.42065	2983.5125
3192.73424	3003.9125
3195.04645	3006.1125
3197.35725	3017.2125
3199.66667	3009.6125
3201.97469	3023.0125
3204.28132	3032.9125
3206.58656	3026.9125
3208.8904	3030.1125
3211.19287	3042.2125
3213.49394	3057.3125
3215.79363	3057.1125
3218.09193	3047.0125
3220.38884	3051.9125
3222.68438	3077.2125
3224.97853	3056.3125
3227.2713	3050.9125
3229.56269	3047.3125
3231.8527	3047.8125
3234.14133	3039.2125
3236.42858	3055.6125
3238.71446	3031.6125
3240.99896	3036.4125
3243.28209	3035.9125
3245.56384	3035.8125
3247.84423	3043.4125
3250.12324	3034.2125
3252.40088	3047.2125
3254.67715	3035.2125
3256.95205	3030.4125
3259.22558	3023.3125
3261.49775	3027.9125
3263.76855	3041.2125
3266.03799	3014.5125
3268.30606	3019.0125
3270.57277	3031.4125
3272.83812	2992.5125
3275.10211	3008.2125
3277.36474	3004.7125
3279.62601	3001.0125
3281.88593	3004.0125
3284.14448	3003.1125
3286.40168	2996.8125
3288.65753	2990.4125
3290.91202	2978.0125
3293.16516	2979.9125
3295.41695	2958.0125
3297.66738	2954.0125
3299.91647	2949.6125
3302.16421	2936.6125
3304.4106	2925.3125
3306.65564	2913.6125
3308.89933	2903.9125
3311.14169	2884.9125
3313.38269	2860.6125
3315.62236	2841.6125
3317.86068	2821.8125
3320.09766	2800.1125
3322.3333	2773.6125
3324.5676	2793.1125
3326.80056	2738.2125
3329.03219	2721.0125
3331.26248	1.2125
3333.49143	0.2125
3335.71905	-0.4875
