Data from AgNPs_FTO_APTES_UA_0.1mM_CRN_0uM_NaF_0.1M_Addition_RamanShift__34__10-42-17-491.txt Node

Date: Mon Dec 20 10:42:17 GMT 2021
User: TCL
Spectrometer: QEP01345
Trigger mode: 4
Integration Time (sec): 7.000000E0
Scans to average: 10
Electric dark correction enabled: true
Nonlinearity correction enabled: false
Boxcar width: 0
XAxis mode: Raman Shifts
Number of Pixels in Spectrum: 1044
>>>>>Begin Spectral Data<<<<<
46.04893	0.8375
50.45542	-0.1625
54.85868	-1.2625
59.25871	0.9375
63.6555	26.6375
68.04907	28.1375
72.43941	28.4375
76.82654	30.4375
81.21044	33.1375
85.59113	37.9375
89.96862	36.6375
94.34289	40.9375
98.71396	37.5375
103.08183	36.5375
107.4465	42.1375
111.80798	41.5375
116.16626	42.3375
120.52136	40.8375
124.87327	46.0375
129.222	43.1375
133.56755	47.3375
137.90993	48.9375
142.24913	50.5375
146.58517	53.7375
150.91804	57.7375
155.24774	68.9375
159.57429	79.3375
163.89768	100.9375
168.21792	129.9375
172.53501	169.1375
176.84895	225.5375
181.15975	311.3375
185.46741	421.3375
189.77193	569.5375
194.07331	764.7375
198.37157	979.1375
202.6667	1201.3375
206.9587	1420.6375
211.24758	1639.9375
215.53334	1882.9375
219.81599	2114.4375
224.09553	2381.1375
228.37195	2674.8375
232.64527	2985.6375
236.91549	3321.3375
241.18261	3648.8375
245.44663	3921.0375
249.70755	4166.3375
253.96539	4344.7375
258.22014	4497.3375
262.4718	4607.0375
266.72039	4633.3375
270.96589	4629.4375
275.20832	4601.7375
279.44768	4527.1375
283.68397	4439.7375
287.91719	4374.9375
292.14735	4317.1375
296.37445	4293.0375
300.59849	4293.8375
304.81948	4301.8375
309.03742	4311.3375
313.25231	4295.3375
317.46415	4257.9375
321.67296	4191.6375
325.87872	4133.0375
330.08145	4090.2375
334.28114	4071.8375
338.47781	4061.9375
342.67145	4058.6375
346.86207	4066.3375
351.04966	4112.7375
355.23424	4164.3375
359.4158	4212.8375
363.59435	4249.0375
367.76989	4277.2375
371.94243	4310.6375
376.11196	4332.6375
380.27849	4383.4375
384.44203	4431.2375
388.60257	4481.1375
392.76012	4523.5375
396.91468	4555.9375
401.06626	4597.7375
405.21485	4628.8375
409.36047	4636.9375
413.50311	4644.2375
417.64277	4630.7375
421.77947	4638.4375
425.9132	4672.4375
430.04396	4689.4375
434.17176	4724.0375
438.2966	4750.3375
442.41849	4817.0375
446.53742	4923.4375
450.6534	5064.9375
454.76644	5124.1375
458.87653	5114.7375
462.98368	5065.3375
467.08789	4980.7375
471.18916	4940.0375
475.2875	4913.6375
479.38291	4886.6375
483.4754	4938.9375
487.56496	5051.8375
491.6516	5177.2375
495.73531	5288.7375
499.81612	5351.3375
503.89401	5340.5375
507.96899	5289.7375
512.04106	5171.0375
516.11023	5097.6375
520.1765	5030.1375
524.23987	5025.6375
528.30034	5030.3375
532.35792	5042.3375
536.41261	4984.9375
540.46441	4879.7375
544.51333	4795.4375
548.55936	4744.8375
552.60252	4771.8375
556.64279	4839.7375
560.6802	4883.8375
564.71473	4883.7375
568.7464	4903.3375
572.7752	4951.5375
576.80114	5035.6375
580.82422	5187.8375
584.84444	5443.8375
588.86181	5832.9375
592.87633	6188.0375
596.888	6226.6375
600.89682	5930.0375
604.9028	5679.0375
608.90594	5758.1375
612.90624	6004.0375
616.90371	5930.1375
620.89834	5523.3375
624.89015	5518.3375
628.87913	5878.5375
632.86528	6331.8375
636.84862	6646.1375
640.82913	6671.3375
644.80683	6414.3375
648.78172	6101.5375
652.75379	5768.6375
656.72306	5507.9375
660.68952	5321.6375
664.65319	5138.5375
668.61405	4987.8375
672.57211	4907.3375
676.52738	4904.5375
680.47986	4909.2375
684.42955	4895.2375
688.37646	4861.5375
692.32058	4813.5375
696.26192	4772.0375
700.20048	4769.6375
704.13626	4764.4375
708.06928	4749.4375
711.99952	4737.8375
715.927	4753.0375
719.85171	4818.2375
723.77365	4866.6375
727.69284	4872.8375
731.60928	4819.5375
735.52295	4755.1375
739.43388	4712.3375
743.34206	4741.5375
747.24749	4768.9375
751.15017	4785.9375
755.05012	4837.5375
758.94733	4909.1375
762.8418	5028.9375
766.73354	5248.8375
770.62254	5472.1375
774.50882	5503.0375
778.39237	5335.4375
782.27321	5055.7375
786.15132	4839.2375
790.02671	4710.0375
793.89938	4682.9375
797.76935	4708.6375
801.6366	4779.1375
805.50115	4924.9375
809.36299	5106.2375
813.22213	5177.7375
817.07857	5111.6375
820.93231	4945.7375
824.78336	4741.4375
828.63172	4597.9375
832.47738	4505.6375
836.32036	4467.0375
840.16066	4465.1375
843.99827	4454.6375
847.8332	4458.3375
851.66546	4441.6375
855.49504	4448.0375
859.32195	4447.2375
863.1462	4457.6375
866.96777	4498.7375
870.78668	4552.2375
874.60293	4652.1375
878.41652	4767.1375
882.22745	4904.2375
886.03573	4990.6375
889.84136	5050.5375
893.64433	4967.0375
897.44466	4843.7375
901.24235	4670.1375
905.0374	4544.5375
908.8298	4451.2375
912.61957	4403.0375
916.40671	4389.8375
920.19121	4408.9375
923.97308	4407.9375
927.75233	4414.2375
931.52895	4383.8375
935.30295	4328.2375
939.07433	4257.3375
942.84309	4211.0375
946.60924	4201.3375
950.37278	4174.9375
954.13371	4187.0375
957.89203	4170.0375
961.64774	4154.4375
965.40086	4154.0375
969.15137	4140.9375
972.89929	4120.4375
976.64461	4097.2375
980.38733	4116.0375
984.12747	4113.7375
987.86502	4125.1375
991.59999	4154.1375
995.33237	4208.2375
999.06217	4293.9375
1002.78939	4396.7375
1006.51404	4483.6375
1010.23611	4566.3375
1013.95561	4642.6375
1017.67255	4679.5375
1021.38692	4656.9375
1025.09872	4585.8375
1028.80796	4494.7375
1032.51465	4440.7375
1036.21877	4401.8375
1039.92035	4380.5375
1043.61937	4359.2375
1047.31584	4343.3375
1051.00976	4321.5375
1054.70114	4318.5375
1058.38998	4337.8375
1062.07627	4368.6375
1065.76003	4423.6375
1069.44126	4481.8375
1073.11995	4567.8375
1076.79611	4631.5375
1080.46974	4650.6375
1084.14085	4646.0375
1087.80943	4629.4375
1091.47549	4630.5375
1095.13903	4599.5375
1098.80005	4536.8375
1102.45857	4455.5375
1106.11456	4443.0375
1109.76805	4450.5375
1113.41903	4559.7375
1117.06751	4742.1375
1120.71348	5027.9375
1124.35696	5406.9375
1127.99793	5840.6375
1131.63641	6210.9375
1135.2724	6431.6375
1138.90589	6429.8375
1142.5369	6285.7375
1146.16542	5988.2375
1149.79145	5676.0375
1153.415	5336.0375
1157.03607	5104.5375
1160.65467	4992.1375
1164.27079	5013.3375
1167.88443	5097.4375
1171.49561	5243.9375
1175.10432	5467.3375
1178.71056	5828.4375
1182.31434	6170.0375
1185.91565	6298.7375
1189.51451	6224.5375
1193.11091	6114.2375
1196.70485	6064.9375
1200.29634	6092.5375
1203.88538	6110.1375
1207.47197	6097.1375
1211.05612	6037.7375
1214.63782	5914.5375
1218.21708	5752.0375
1221.79391	5607.3375
1225.36829	5494.5375
1228.94024	5412.2375
1232.50976	5272.8375
1236.07685	5150.1375
1239.6415	5063.1375
1243.20374	5052.3375
1246.76355	5067.8375
1250.32093	5134.7375
1253.8759	5218.9375
1257.42845	5320.1375
1260.97859	5418.0375
1264.52631	5512.6375
1268.07163	5586.4375
1271.61453	5643.6375
1275.15503	5705.0375
1278.69312	5815.1375
1282.22882	5941.6375
1285.76211	6162.0375
1289.29301	6404.0375
1292.82151	6674.3375
1296.34761	7005.7375
1299.87133	7353.3375
1303.39266	7765.7375
1306.9116	8092.5375
1310.42815	8424.0375
1313.94233	8622.6375
1317.45412	8552.3375
1320.96354	8302.1375
1324.47058	8011.6375
1327.97525	7751.1375
1331.47754	7566.2375
1334.97747	7455.3375
1338.47502	7340.8375
1341.97022	7240.9375
1345.46305	7150.7375
1348.95352	7277.6375
1352.44163	7550.4375
1355.92738	8063.9375
1359.41078	8670.4375
1362.89183	9146.5375
1366.37053	9241.1375
1369.84688	8684.8375
1373.32088	7813.3375
1376.79254	7181.3375
1380.26186	6931.4375
1383.72883	6871.0375
1387.19347	6767.8375
1390.65578	6604.7375
1394.11575	6530.9375
1397.57339	6529.9375
1401.0287	6573.8375
1404.48168	6562.5375
1407.93234	6481.5375
1411.38068	6282.6375
1414.82669	6043.0375
1418.27039	5811.9375
1421.71177	5585.2375
1425.15083	5396.8375
1428.58758	5310.7375
1432.02203	5342.4375
1435.45416	5448.8375
1438.88399	5538.2375
1442.31151	5601.6375
1445.73673	5642.3375
1449.15965	5675.4375
1452.58027	5642.8375
1455.9986	5580.3375
1459.41463	5568.9375
1462.82837	5593.4375
1466.23982	5701.0375
1469.64898	5848.0375
1473.05586	5903.4375
1476.46045	5946.1375
1479.86276	5979.4375
1483.26279	5945.4375
1486.66054	5972.9375
1490.05602	5996.9375
1493.44922	6074.1375
1496.84016	6138.2375
1500.22882	6209.6375
1503.61521	6322.9375
1506.99934	6481.4375
1510.38121	6621.2375
1513.76081	6650.1375
1517.13816	6567.2375
1520.51324	6415.3375
1523.88607	6299.5375
1527.25665	6281.8375
1530.62498	6311.5375
1533.99105	6358.1375
1537.35488	6305.2375
1540.71647	6234.4375
1544.07581	6169.4375
1547.4329	6091.2375
1550.78776	6000.6375
1554.14038	5923.0375
1557.49077	5875.2375
1560.83892	5875.5375
1564.18484	5863.6375
1567.52853	5890.9375
1570.86999	5945.8375
1574.20922	5996.6375
1577.54624	6024.0375
1580.88103	6030.4375
1584.2136	6029.8375
1587.54395	6120.5375
1590.87208	6362.8375
1594.19801	6686.9375
1597.52172	7045.1375
1600.84321	7190.4375
1604.16251	7020.1375
1607.47959	6597.2375
1610.79447	6124.7375
1614.10715	5752.2375
1617.41763	5506.4375
1620.7259	5380.9375
1624.03199	5356.3375
1627.33587	5409.2375
1630.63757	5536.4375
1633.93707	5788.4375
1637.23439	6179.7375
1640.52951	6791.0375
1643.82246	7545.6375
1647.11321	8180.7375
1650.40179	8311.5375
1653.68819	7796.6375
1656.97241	6976.0375
1660.25446	6240.9375
1663.53433	5717.4375
1666.81203	5406.1375
1670.08756	5203.8375
1673.36092	5066.2375
1676.63211	4986.2375
1679.90115	4922.0375
1683.16801	4841.4375
1686.43272	4767.1375
1689.69527	4670.7375
1692.95567	4572.2375
1696.2139	4476.7375
1699.46999	4402.4375
1702.72392	4291.7375
1705.97571	4175.1375
1709.22535	4039.6375
1712.47284	3943.9375
1715.71819	3842.9375
1718.96139	3766.9375
1722.20246	3697.4375
1725.44139	3641.0375
1728.67818	3574.9375
1731.91284	3541.2375
1735.14537	3481.6375
1738.37576	3463.0375
1741.60403	3437.9375
1744.83017	3418.6375
1748.05418	3390.1375
1751.27607	3385.5375
1754.49584	3362.1375
1757.71349	3363.1375
1760.92903	3349.0375
1764.14244	3345.9375
1767.35375	3336.6375
1770.56294	3333.3375
1773.77002	3322.1375
1776.97499	3313.5375
1780.17785	3305.9375
1783.37861	3286.9375
1786.57727	3292.4375
1789.77382	3276.0375
1792.96828	3264.6375
1796.16064	3247.9375
1799.3509	3245.5375
1802.53907	3233.4375
1805.72514	3219.6375
1808.90913	3205.2375
1812.09102	3210.2375
1815.27083	3203.9375
1818.44856	3186.5375
1821.6242	3185.2375
1824.79776	3181.4375
1827.96924	3173.6375
1831.13864	3161.6375
1834.30597	3173.1375
1837.47122	3163.5375
1840.6344	3148.5375
1843.7955	3153.6375
1846.95454	3150.2375
1850.11151	3150.1375
1853.26642	3132.8375
1856.41926	3146.8375
1859.57004	3139.3375
1862.71876	3136.8375
1865.86542	3134.8375
1869.01003	3118.7375
1872.15258	3118.1375
1875.29308	3110.2375
1878.43152	3111.4375
1881.56792	3113.1375
1884.70227	3115.0375
1887.83457	3105.6375
1890.96482	3095.3375
1894.09304	3096.4375
1897.21921	3098.9375
1900.34335	3084.6375
1903.46544	3083.2375
1906.58551	3076.4375
1909.70353	3074.8375
1912.81953	3066.3375
1915.93349	3065.3375
1919.04543	3057.7375
1922.15534	3051.1375
1925.26322	3047.7375
1928.36908	3024.7375
1931.47292	3042.7375
1934.57473	3015.9375
1937.67453	3009.2375
1940.77232	3008.7375
1943.86808	2996.7375
1946.96184	2996.6375
1950.05358	2964.7375
1953.14331	2976.2375
1956.23103	2952.0375
1959.31675	2964.5375
1962.40046	2943.3375
1965.48217	2948.3375
1968.56188	2930.8375
1971.63959	2924.7375
1974.7153	2917.1375
1977.78901	2893.2375
1980.86073	2902.6375
1983.93046	2883.3375
1986.99819	2869.6375
1990.06394	2864.1375
1993.1277	2861.4375
1996.18947	2856.5375
1999.24925	2844.5375
2002.30706	2846.3375
2005.36288	2820.5375
2008.41672	2819.3375
2011.46859	2811.9375
2014.51848	2812.9375
2017.56639	2801.1375
2020.61233	2784.6375
2023.6563	2784.0375
2026.6983	2771.7375
2029.73833	2751.7375
2032.7764	2757.7375
2035.8125	2741.8375
2038.84664	2739.1375
2041.87881	2737.3375
2044.90903	2741.1375
2047.93729	2742.6375
2050.96359	2730.4375
2053.98794	2734.4375
2057.01034	2727.9375
2060.03078	2731.5375
2063.04927	2731.9375
2066.06582	2717.3375
2069.08042	2736.0375
2072.09307	2723.6375
2075.10378	2719.6375
2078.11255	2718.5375
2081.11938	2714.8375
2084.12426	2717.1375
2087.12722	2709.5375
2090.12824	2726.5375
2093.12732	2708.6375
2096.12447	2715.7375
2099.11969	2718.1375
2102.11299	2702.4375
2105.10435	2710.2375
2108.09379	2717.3375
2111.08131	2716.8375
2114.0669	2711.5375
2117.05057	2711.5375
2120.03233	2713.8375
2123.01216	2707.6375
2125.99008	2721.6375
2128.96609	2699.4375
2131.94018	2713.3375
2134.91236	2709.7375
2137.88263	2721.3375
2140.851	2720.9375
2143.81746	2721.2375
2146.78201	2705.9375
2149.74466	2721.9375
2152.7054	2711.8375
2155.66425	2721.8375
2158.6212	2719.3375
2161.57625	2684.6375
2164.52941	2702.5375
2167.48067	2702.8375
2170.43004	2697.9375
2173.37752	2684.9375
2176.32311	2693.8375
2179.26681	2701.5375
2182.20863	2701.6375
2185.14856	2695.6375
2188.08661	2698.7375
2191.02278	2689.1375
2193.95707	2693.2375
2196.88948	2699.6375
2199.82001	2687.9375
2202.74867	2676.7375
2205.67545	2676.2375
2208.60037	2675.9375
2211.52341	2661.4375
2214.44458	2663.3375
2217.36388	2652.3375
2220.28132	2646.6375
2223.1969	2651.0375
2226.11061	2641.9375
2229.02246	2633.0375
2231.93245	2629.6375
2234.84058	2621.0375
2237.74686	2618.8375
2240.65128	2623.7375
2243.55385	2613.0375
2246.45456	2602.7375
2249.35343	2614.8375
2252.25044	2604.2375
2255.14561	2590.4375
2258.03893	2591.0375
2260.93041	2591.6375
2263.82004	2586.4375
2266.70783	2570.6375
2269.59378	2576.1375
2272.4779	2561.5375
2275.36017	2555.8375
2278.24061	2546.4375
2281.11922	2553.3375
2283.996	2536.5375
2286.87094	2539.0375
2289.74405	2541.5375
2292.61534	2526.5375
2295.4848	2520.0375
2298.35243	2515.9375
2301.21824	2514.9375
2304.08223	2503.8375
2306.94439	2506.1375
2309.80474	2507.6375
2312.66327	2510.9375
2315.51999	2491.5375
2318.37489	2500.4375
2321.22797	2482.5375
2324.07925	2495.1375
2326.92871	2490.2375
2329.77637	2493.0375
2332.62222	2488.4375
2335.46626	2473.7375
2338.3085	2476.7375
2341.14893	2485.8375
2343.98756	2470.5375
2346.8244	2468.9375
2349.65943	2452.1375
2352.49267	2459.9375
2355.32411	2465.5375
2358.15376	2463.0375
2360.98161	2457.2375
2363.80768	2456.3375
2366.63195	2456.1375
2369.45444	2454.6375
2372.27514	2449.4375
2375.09405	2435.9375
2377.91118	2438.9375
2380.72652	2432.8375
2383.54009	2431.3375
2386.35187	2423.5375
2389.16188	2416.7375
2391.97011	2424.7375
2394.77657	2411.0375
2397.58125	2398.2375
2400.38416	2403.3375
2403.18529	2394.9375
2405.98466	2391.3375
2408.78226	2400.0375
2411.57809	2376.2375
2414.37216	2376.2375
2417.16446	2389.4375
2419.955	2379.7375
2422.74378	2380.1375
2425.5308	2369.0375
2428.31606	2367.4375
2431.09956	2361.9375
2433.88131	2360.8375
2436.6613	2357.8375
2439.43954	2363.7375
2442.21603	2346.5375
2444.99077	2343.9375
2447.76377	2353.7375
2450.53501	2336.3375
2453.30451	2346.8375
2456.07226	2340.6375
2458.83827	2337.9375
2461.60254	2344.4375
2464.36507	2331.0375
2467.12586	2340.1375
2469.88492	2335.5375
2472.64224	2327.3375
2475.39782	2327.6375
2478.15167	2330.0375
2480.90379	2335.7375
2483.65417	2337.4375
2486.40283	2322.5375
2489.14976	2323.2375
2491.89497	2321.9375
2494.63845	2340.8375
2497.3802	2320.5375
2500.12024	2320.2375
2502.85855	2327.8375
2505.59514	2324.6375
2508.33002	2306.1375
2511.06318	2312.6375
2513.79462	2310.5375
2516.52435	2292.7375
2519.25237	2295.9375
2521.97867	2290.5375
2524.70327	2298.0375
2527.42616	2282.7375
2530.14734	2283.0375
2532.86681	2272.8375
2535.58458	2280.5375
2538.30065	2273.6375
2541.01501	2269.9375
2543.72768	2271.8375
2546.43864	2263.6375
2549.14791	2258.3375
2551.85548	2247.4375
2554.56136	2259.5375
2557.26554	2251.0375
2559.96803	2252.3375
2562.66883	2247.5375
2565.36794	2243.3375
2568.06536	2234.1375
2570.7611	2242.7375
2573.45514	2236.9375
2576.14751	2232.7375
2578.83819	2240.1375
2581.52719	2228.9375
2584.21451	2220.9375
2586.90015	2225.2375
2589.58411	2215.7375
2592.2664	2220.5375
2594.94701	2211.9375
2597.62594	2207.5375
2600.30321	2196.1375
2602.9788	2202.4375
2605.65273	2195.8375
2608.32498	2200.1375
2610.99557	2186.0375
2613.66449	2192.3375
2616.33175	2192.1375
2618.99734	2186.0375
2621.66128	2184.7375
2624.32355	2184.7375
2626.98416	2186.6375
2629.64311	2184.5375
2632.30041	2177.3375
2634.95605	2170.0375
2637.61004	2167.4375
2640.26238	2161.0375
2642.91306	2160.8375
2645.56209	2161.9375
2648.20948	2162.2375
2650.85521	2149.2375
2653.4993	2168.0375
2656.14175	2164.0375
2658.78255	2164.2375
2661.42171	2157.6375
2664.05923	2163.6375
2666.6951	2162.0375
2669.32934	2149.6375
2671.96194	2154.0375
2674.59291	2164.7375
2677.22224	2160.9375
2679.84993	2159.5375
2682.476	2168.4375
2685.10043	2165.8375
2687.72324	2151.5375
2690.34441	2159.4375
2692.96396	2154.5375
2695.58188	2164.0375
2698.19818	2171.9375
2700.81285	2166.8375
2703.4259	2170.8375
2706.03733	2180.9375
2708.64714	2181.5375
2711.25533	2169.3375
2713.86191	2173.0375
2716.46687	2172.3375
2719.07021	2186.7375
2721.67194	2169.4375
2724.27206	2166.7375
2726.87057	2167.0375
2729.46747	2171.2375
2732.06276	2185.6375
2734.65644	2173.3375
2737.24852	2171.2375
2739.83899	2170.9375
2742.42786	2165.9375
2745.01513	2175.0375
2747.60079	2160.0375
2750.18486	2169.3375
2752.76733	2157.6375
2755.3482	2161.8375
2757.92747	2170.7375
2760.50515	2150.5375
2763.08123	2153.3375
2765.65573	2155.4375
2768.22863	2157.0375
2770.79994	2146.3375
2773.36967	2155.9375
2775.9378	2146.7375
2778.50435	2135.1375
2781.06932	2128.4375
2783.6327	2135.8375
2786.1945	2135.8375
2788.75471	2131.8375
2791.31335	2128.6375
2793.87041	2130.3375
2796.42589	2129.3375
2798.97979	2116.7375
2801.53212	2111.4375
2804.08288	2102.4375
2806.63206	2103.7375
2809.17967	2098.4375
2811.72571	2100.5375
2814.27018	2093.4375
2816.81308	2089.3375
2819.35442	2086.8375
2821.89419	2083.2375
2824.43239	2083.9375
2826.96904	2091.7375
2829.50412	2090.7375
2832.03763	2090.4375
2834.56959	2086.2375
2837.1	2081.1375
2839.62884	2093.0375
2842.15613	2092.0375
2844.68186	2088.9375
2847.20604	2098.9375
2849.72867	2101.9375
2852.24974	2110.9375
2854.76927	2108.9375
2857.28724	2112.9375
2859.80367	2106.8375
2862.31855	2113.7375
2864.83189	2109.7375
2867.34368	2113.9375
2869.85393	2107.9375
2872.36264	2118.9375
2874.8698	2122.4375
2877.37543	2115.7375
2879.87952	2125.7375
2882.38207	2124.6375
2884.88308	2120.0375
2887.38256	2130.0375
2889.88051	2131.8375
2892.37692	2124.7375
2894.8718	2128.8375
2897.36515	2134.4375
2899.85698	2130.7375
2902.34727	2146.8375
2904.83604	2139.4375
2907.32328	2144.1375
2909.809	2134.0375
2912.29319	2142.3375
2914.77587	2139.0375
2917.25702	2137.2375
2919.73665	2143.2375
2922.21476	2147.8375
2924.69136	2134.2375
2927.16644	2139.4375
2929.64	2142.0375
2932.11205	2143.5375
2934.58258	2132.6375
2937.05161	2128.9375
2939.51912	2127.3375
2941.98513	2118.5375
2944.44962	2119.3375
2946.91261	2110.5375
2949.37409	2120.4375
2951.83407	2100.9375
2954.29254	2105.6375
2956.74951	2100.1375
2959.20498	2097.0375
2961.65895	2094.6375
2964.11142	2089.3375
2966.56239	2087.4375
2969.01186	2082.5375
2971.45984	2078.6375
2973.90632	2061.6375
2976.35131	2058.3375
2978.7948	2059.8375
2981.23681	2051.3375
2983.67732	2042.3375
2986.11635	2047.6375
2988.55388	2043.4375
2990.98993	2033.2375
2993.4245	2031.5375
2995.85758	2026.7375
2998.28917	2024.9375
3000.71928	2025.8375
3003.14791	2028.1375
3005.57506	2019.5375
3008.00073	2022.1375
3010.42493	2026.1375
3012.84764	2025.4375
3015.26888	2024.3375
3017.68865	2022.8375
3020.10694	2018.3375
3022.52376	2016.1375
3024.9391	2018.5375
3027.35298	2019.7375
3029.76539	2018.7375
3032.17632	2019.2375
3034.5858	2017.3375
3036.9938	2022.4375
3039.40034	2014.5375
3041.80542	2022.9375
3044.20903	2022.1375
3046.61118	2027.9375
3049.01187	2015.1375
3051.4111	2015.2375
3053.80888	2024.3375
3056.20519	2021.4375
3058.60005	2018.5375
3060.99345	2035.2375
3063.3854	2019.6375
3065.7759	2018.0375
3068.16494	2026.3375
3070.55254	2017.0375
3072.93868	2018.1375
3075.32338	2025.2375
3077.70662	2021.3375
3080.08842	2015.9375
3082.46878	2021.8375
3084.84769	2026.1375
3087.22515	2036.6375
3089.60118	2028.6375
3091.97576	2037.2375
3094.3489	2032.4375
3096.72061	2045.4375
3099.09087	2041.3375
3101.4597	2046.6375
3103.82709	2054.5375
3106.19305	2059.8375
3108.55757	2052.1375
3110.92066	2047.2375
3113.28232	2064.6375
3115.64255	2056.4375
3118.00134	2063.2375
3120.35871	2052.2375
3122.71466	2064.7375
3125.06917	2067.3375
3127.42226	2068.5375
3129.77393	2076.9375
3132.12417	2081.9375
3134.47299	2084.5375
3136.82039	2096.6375
3139.16636	2091.2375
3141.51092	2103.3375
3143.85406	2109.2375
3146.19579	2122.5375
3148.53609	2125.8375
3150.87499	2127.0375
3153.21246	2129.4375
3155.54853	2137.6375
3157.88318	2150.8375
3160.21642	2146.2375
3162.54826	2159.6375
3164.87868	2155.5375
3167.2077	2155.1375
3169.5353	2170.5375
3171.86151	2160.0375
3174.18631	2176.8375
3176.5097	2179.5375
3178.83169	2179.6375
3181.15228	2184.3375
3183.47147	2191.3375
3185.78926	2199.7375
3188.10565	2188.7375
3190.42065	2201.2375
3192.73424	2204.1375
3195.04645	2221.6375
3197.35725	2209.6375
3199.66667	2205.7375
3201.97469	2225.0375
3204.28132	2227.6375
3206.58656	2227.4375
3208.8904	2242.9375
3211.19287	2241.4375
3213.49394	2242.9375
3215.79363	2240.0375
3218.09193	2258.4375
3220.38884	2257.9375
3222.68438	2254.4375
3224.97853	2245.9375
3227.2713	2258.7375
3229.56269	2252.8375
3231.8527	2250.8375
3234.14133	2243.2375
3236.42858	2253.9375
3238.71446	2254.6375
3240.99896	2243.4375
3243.28209	2248.9375
3245.56384	2247.5375
3247.84423	2248.6375
3250.12324	2242.9375
3252.40088	2244.5375
3254.67715	2251.5375
3256.95205	2246.0375
3259.22558	2244.8375
3261.49775	2223.1375
3263.76855	2234.1375
3266.03799	2224.7375
3268.30606	2230.6375
3270.57277	2226.0375
3272.83812	2216.4375
3275.10211	2218.4375
3277.36474	2226.6375
3279.62601	2229.5375
3281.88593	2219.7375
3284.14448	2215.0375
3286.40168	2223.7375
3288.65753	2205.2375
3290.91202	2214.9375
3293.16516	2195.6375
3295.41695	2193.0375
3297.66738	2183.2375
3299.91647	2167.9375
3302.16421	2164.6375
3304.4106	2161.1375
3306.65564	2150.3375
3308.89933	2138.8375
3311.14169	2125.6375
3313.38269	2116.1375
3315.62236	2095.9375
3317.86068	2080.7375
3320.09766	2064.0375
3322.3333	2048.8375
3324.5676	2049.6375
3326.80056	2024.0375
3329.03219	2010.2375
3331.26248	-0.1625
3333.49143	0.1375
3335.71905	-0.3625
