Data from AgNPs_FTO_APTES_UA_0.1mM_CRN_20uM_NaF_0.1M_Addition_RamanShift__16__12-15-37-600.txt Node

Date: Mon Dec 20 12:15:37 GMT 2021
User: TCL
Spectrometer: QEP01345
Trigger mode: 4
Integration Time (sec): 7.000000E0
Scans to average: 10
Electric dark correction enabled: true
Nonlinearity correction enabled: false
Boxcar width: 0
XAxis mode: Raman Shifts
Number of Pixels in Spectrum: 1044
>>>>>Begin Spectral Data<<<<<
46.04893	0.8
50.45542	-0.6
54.85868	-1.8
59.25871	0.9
63.6555	35.8
68.04907	34.6
72.43941	37.8
76.82654	39.5
81.21044	37.4
85.59113	44.9
89.96862	41.3
94.34289	46.2
98.71396	45.6
103.08183	46.6
107.4465	49.9
111.80798	53.6
116.16626	51.4
120.52136	53.3
124.87327	55
129.222	55.5
133.56755	57.6
137.90993	62.9
142.24913	66.3
146.58517	71.2
150.91804	87.6
155.24774	101.8
159.57429	119.9
163.89768	155.3
168.21792	203.2
172.53501	261.7
176.84895	363.4
181.15975	509
185.46741	709.4
189.77193	979.9
194.07331	1307.3
198.37157	1702.2
202.6667	2120.5
206.9587	2540.2
211.24758	2950.2
215.53334	3373.7
219.81599	3811.8
224.09553	4261.6
228.37195	4774.1
232.64527	5323.1
236.91549	5893.1
241.18261	6457.9
245.44663	6975.6
249.70755	7455.8
253.96539	7847.4
258.22014	8149.3
262.4718	8363
266.72039	8466
270.96589	8486.1
275.20832	8443.6
279.44768	8300.9
283.68397	8176.9
287.91719	8011.1
292.14735	7860.9
296.37445	7801.9
300.59849	7782.5
304.81948	7742.5
309.03742	7723.5
313.25231	7672.2
317.46415	7554.8
321.67296	7381.3
325.87872	7288.6
330.08145	7233.6
334.28114	7225.3
338.47781	7264
342.67145	7322.2
346.86207	7411
351.04966	7522.7
355.23424	7668.1
359.4158	7769.7
363.59435	7877.3
367.76989	7996.3
371.94243	8073
376.11196	8142
380.27849	8185.4
384.44203	8267.1
388.60257	8310.3
392.76012	8380.9
396.91468	8469.2
401.06626	8566.2
405.21485	8644
409.36047	8635.8
413.50311	8546.3
417.64277	8461.2
421.77947	8421.8
425.9132	8446.5
430.04396	8451.3
434.17176	8485.9
438.2966	8526.2
442.41849	8590.6
446.53742	8685.5
450.6534	8787.7
454.76644	8859.2
458.87653	8930.8
462.98368	8942.8
467.08789	8927.1
471.18916	8958.9
475.2875	8947.4
479.38291	8976.9
483.4754	9022.8
487.56496	9072.9
491.6516	9176.1
495.73531	9249.5
499.81612	9232.4
503.89401	9257.1
507.96899	9203.6
512.04106	9166.3
516.11023	9145.7
520.1765	9102.2
524.23987	9130.3
528.30034	9104.1
532.35792	9082.9
536.41261	9025.5
540.46441	8975
544.51333	8912.4
548.55936	8885.8
552.60252	8932.7
556.64279	8947.7
560.6802	8986
564.71473	9028.7
568.7464	9065.4
572.7752	9125.7
576.80114	9145
580.82422	9155.8
584.84444	9244.2
588.86181	9319.2
592.87633	9339.1
596.888	9388.5
600.89682	9394.6
604.9028	9584.7
608.90594	10174.7
612.90624	10961.3
616.90371	10916.4
620.89834	10015.5
624.89015	9689.1
628.87913	9928.9
632.86528	10303.9
636.84862	10590.2
640.82913	10589.4
644.80683	10345.8
648.78172	10046.4
652.75379	9796
656.72306	9656.7
660.68952	9663.4
664.65319	9631.8
668.61405	9552.1
672.57211	9587.3
676.52738	9638.8
680.47986	9653.6
684.42955	9647.6
688.37646	9628.1
692.32058	9577.1
696.26192	9493.9
700.20048	9429.6
704.13626	9382.8
708.06928	9288.8
711.99952	9217.1
715.927	9139.1
719.85171	9094
723.77365	9081.7
727.69284	9095.1
731.60928	9031.5
735.52295	9003.4
739.43388	8967.5
743.34206	8981.7
747.24749	9003
751.15017	8992.9
755.05012	9046.8
758.94733	9137.7
762.8418	9304.5
766.73354	9688.3
770.62254	10059.3
774.50882	10295.9
778.39237	10125.6
782.27321	9705.6
786.15132	9299
790.02671	9079
793.89938	8978.4
797.76935	8956.7
801.6366	9002.8
805.50115	9113.6
809.36299	9223.2
813.22213	9244.9
817.07857	9176.6
820.93231	9022.7
824.78336	8837.9
828.63172	8741
832.47738	8673.5
836.32036	8630.7
840.16066	8611
843.99827	8597
847.8332	8599.5
851.66546	8564.7
855.49504	8585.1
859.32195	8608
863.1462	8605.6
866.96777	8656.6
870.78668	8718.2
874.60293	8793.2
878.41652	8877.4
882.22745	8973.5
886.03573	9045.6
889.84136	9019
893.64433	8933.9
897.44466	8832.6
901.24235	8696.3
905.0374	8594.9
908.8298	8506.9
912.61957	8453.2
916.40671	8429.3
920.19121	8453.2
923.97308	8449.4
927.75233	8454.1
931.52895	8418.2
935.30295	8415.2
939.07433	8343.5
942.84309	8261.1
946.60924	8257
950.37278	8230.8
954.13371	8218.7
957.89203	8183.1
961.64774	8165.6
965.40086	8158.2
969.15137	8114.9
972.89929	8093.4
976.64461	8078.7
980.38733	8055.7
984.12747	8054
987.86502	8086
991.59999	8121.7
995.33237	8178.5
999.06217	8243.8
1002.78939	8340.1
1006.51404	8377.5
1010.23611	8461.5
1013.95561	8546.2
1017.67255	8546.4
1021.38692	8499.4
1025.09872	8457.4
1028.80796	8388.8
1032.51465	8351.6
1036.21877	8338.3
1039.92035	8323.8
1043.61937	8335.5
1047.31584	8298.5
1051.00976	8278.7
1054.70114	8298.5
1058.38998	8327.7
1062.07627	8388.3
1065.76003	8430
1069.44126	8478.9
1073.11995	8553.6
1076.79611	8592.1
1080.46974	8613
1084.14085	8594.6
1087.80943	8580.2
1091.47549	8555.7
1095.13903	8548.3
1098.80005	8479.9
1102.45857	8421.7
1106.11456	8368.5
1109.76805	8409.9
1113.41903	8484.6
1117.06751	8639.2
1120.71348	8867.4
1124.35696	9173.6
1127.99793	9559.2
1131.63641	9890.8
1135.2724	10038.7
1138.90589	10014.5
1142.5369	9848.8
1146.16542	9585.3
1149.79145	9268.7
1153.415	8989.5
1157.03607	8785.2
1160.65467	8650.7
1164.27079	8648.5
1167.88443	8734.5
1171.49561	8896.2
1175.10432	9178.4
1178.71056	9542
1182.31434	9928
1185.91565	10096.4
1189.51451	10140.3
1193.11091	10066.3
1196.70485	9930.5
1200.29634	9876.5
1203.88538	9788.4
1207.47197	9620.9
1211.05612	9467.8
1214.63782	9324.4
1218.21708	9142.1
1221.79391	9012.7
1225.36829	8902.6
1228.94024	8858.8
1232.50976	8772
1236.07685	8747.7
1239.6415	8740.7
1243.20374	8737.2
1246.76355	8774.2
1250.32093	8852.6
1253.8759	8896.4
1257.42845	9001.3
1260.97859	9060.3
1264.52631	9145
1268.07163	9254.5
1271.61453	9356.3
1275.15503	9407.6
1278.69312	9484.4
1282.22882	9541.2
1285.76211	9575.3
1289.29301	9650.6
1292.82151	9815.5
1296.34761	9984.6
1299.87133	10254.8
1303.39266	10553.8
1306.9116	10962.1
1310.42815	11351.7
1313.94233	11638.6
1317.45412	11704.8
1320.96354	11524.9
1324.47058	11328.1
1327.97525	11127.5
1331.47754	10949.6
1334.97747	10888
1338.47502	10910.5
1341.97022	11011.8
1345.46305	11179
1348.95352	11356.7
1352.44163	11597.3
1355.92738	11924.6
1359.41078	12392.5
1362.89183	12880.2
1366.37053	12802.1
1369.84688	12031.8
1373.32088	11180.7
1376.79254	10584.1
1380.26186	10285.6
1383.72883	10103
1387.19347	9997
1390.65578	9850
1394.11575	9717
1397.57339	9616.2
1401.0287	9529.7
1404.48168	9424.6
1407.93234	9350.8
1411.38068	9221.1
1414.82669	9077.3
1418.27039	8906.4
1421.71177	8740.5
1425.15083	8606.6
1428.58758	8527.4
1432.02203	8446.5
1435.45416	8486.6
1438.88399	8515
1442.31151	8543.7
1445.73673	8576.6
1449.15965	8623.6
1452.58027	8669
1455.9986	8691.5
1459.41463	8768.6
1462.82837	8826.3
1466.23982	8927.3
1469.64898	9025
1473.05586	9106.4
1476.46045	9126.2
1479.86276	9111.4
1483.26279	9136.3
1486.66054	9119.7
1490.05602	9162.2
1493.44922	9277.5
1496.84016	9420.2
1500.22882	9716.3
1503.61521	10116.3
1506.99934	10567.3
1510.38121	10951.6
1513.76081	11072.1
1517.13816	10850.2
1520.51324	10375.6
1523.88607	9892.9
1527.25665	9571.6
1530.62498	9434.1
1533.99105	9345.5
1537.35488	9318
1540.71647	9318.8
1544.07581	9323.1
1547.4329	9310.1
1550.78776	9331.9
1554.14038	9335.8
1557.49077	9398.6
1560.83892	9433.5
1564.18484	9504.4
1567.52853	9588.6
1570.86999	9675.6
1574.20922	9715.9
1577.54624	9762.4
1580.88103	9646.8
1584.2136	9478
1587.54395	9416
1590.87208	9464.5
1594.19801	9590.2
1597.52172	9795.3
1600.84321	9943.1
1604.16251	9853.7
1607.47959	9607.8
1610.79447	9366.7
1614.10715	9137.3
1617.41763	8926.9
1620.7259	8785.4
1624.03199	8678.3
1627.33587	8668.8
1630.63757	8753.4
1633.93707	8910.2
1637.23439	9186.2
1640.52951	9566.7
1643.82246	10031.1
1647.11321	10527.1
1650.40179	10806.6
1653.68819	10684.8
1656.97241	10152.4
1660.25446	9574.8
1663.53433	9085.8
1666.81203	8792.6
1670.08756	8582.3
1673.36092	8459.2
1676.63211	8349.7
1679.90115	8272.2
1683.16801	8176.5
1686.43272	8041.5
1689.69527	7905.4
1692.95567	7757.7
1696.2139	7641.9
1699.46999	7537.9
1702.72392	7442.8
1705.97571	7344.5
1709.22535	7279.8
1712.47284	7241
1715.71819	7163.3
1718.96139	7108.2
1722.20246	7068.2
1725.44139	7009.4
1728.67818	6940.5
1731.91284	6888.2
1735.14537	6814.1
1738.37576	6773.5
1741.60403	6721.7
1744.83017	6678.4
1748.05418	6663.1
1751.27607	6623.8
1754.49584	6635.6
1757.71349	6609.9
1760.92903	6603.6
1764.14244	6572.2
1767.35375	6565.9
1770.56294	6540.7
1773.77002	6514.8
1776.97499	6495.9
1780.17785	6451.5
1783.37861	6420.5
1786.57727	6417
1789.77382	6400.5
1792.96828	6341.1
1796.16064	6337.5
1799.3509	6302.9
1802.53907	6308.8
1805.72514	6303.6
1808.90913	6274.1
1812.09102	6262.7
1815.27083	6245.8
1818.44856	6228.5
1821.6242	6203.1
1824.79776	6209.3
1827.96924	6192.5
1831.13864	6192.2
1834.30597	6185.6
1837.47122	6171.4
1840.6344	6149.2
1843.7955	6153.2
1846.95454	6146
1850.11151	6146.2
1853.26642	6121.4
1856.41926	6120
1859.57004	6121.1
1862.71876	6123
1865.86542	6123.6
1869.01003	6092.9
1872.15258	6084.7
1875.29308	6081.8
1878.43152	6073.2
1881.56792	6059.4
1884.70227	6073
1887.83457	6044.7
1890.96482	6028.8
1894.09304	6035.6
1897.21921	6031.5
1900.34335	6050.4
1903.46544	6036.4
1906.58551	6014
1909.70353	6023.8
1912.81953	5972.2
1915.93349	5977.5
1919.04543	5963.3
1922.15534	5942.3
1925.26322	5933.2
1928.36908	5923
1931.47292	5920.2
1934.57473	5893.7
1937.67453	5862.2
1940.77232	5876.6
1943.86808	5852.8
1946.96184	5838.4
1950.05358	5827.2
1953.14331	5819.6
1956.23103	5812.4
1959.31675	5792.7
1962.40046	5762.6
1965.48217	5751
1968.56188	5743.4
1971.63959	5725.6
1974.7153	5692
1977.78901	5694.6
1980.86073	5659.8
1983.93046	5662.3
1986.99819	5630.7
1990.06394	5611.8
1993.1277	5606.4
1996.18947	5569.7
1999.24925	5566.7
2002.30706	5538.2
2005.36288	5537.5
2008.41672	5505.3
2011.46859	5500.8
2014.51848	5491.6
2017.56639	5463.7
2020.61233	5452.4
2023.6563	5448.3
2026.6983	5434
2029.73833	5419.8
2032.7764	5398.3
2035.8125	5397.8
2038.84664	5388.7
2041.87881	5361.5
2044.90903	5357.4
2047.93729	5354.5
2050.96359	5358.3
2053.98794	5333.3
2057.01034	5339.8
2060.03078	5321.7
2063.04927	5313.9
2066.06582	5316.1
2069.08042	5325.4
2072.09307	5318.8
2075.10378	5295.2
2078.11255	5297.3
2081.11938	5305.5
2084.12426	5313.6
2087.12722	5294
2090.12824	5304.7
2093.12732	5295.9
2096.12447	5312.2
2099.11969	5286.7
2102.11299	5296.8
2105.10435	5312.9
2108.09379	5292.4
2111.08131	5305.5
2114.0669	5299.4
2117.05057	5318.9
2120.03233	5321.9
2123.01216	5324.5
2125.99008	5317.3
2128.96609	5326.1
2131.94018	5319.1
2134.91236	5338.3
2137.88263	5323.1
2140.851	5324.9
2143.81746	5342.1
2146.78201	5339.8
2149.74466	5342.3
2152.7054	5349.4
2155.66425	5339.6
2158.6212	5344.1
2161.57625	5345.8
2164.52941	5333.4
2167.48067	5332.8
2170.43004	5334.8
2173.37752	5318.1
2176.32311	5330.3
2179.26681	5343.2
2182.20863	5310.2
2185.14856	5328.4
2188.08661	5329.8
2191.02278	5310
2193.95707	5303.1
2196.88948	5314.8
2199.82001	5307.1
2202.74867	5289.4
2205.67545	5288.9
2208.60037	5290.2
2211.52341	5279.3
2214.44458	5261.4
2217.36388	5232.6
2220.28132	5240.2
2223.1969	5230.2
2226.11061	5215
2229.02246	5212.7
2231.93245	5196.5
2234.84058	5197.1
2237.74686	5187.2
2240.65128	5158.3
2243.55385	5174.7
2246.45456	5156.1
2249.35343	5150.9
2252.25044	5151.6
2255.14561	5131.7
2258.03893	5140.2
2260.93041	5136.8
2263.82004	5123.8
2266.70783	5119.7
2269.59378	5093.4
2272.4779	5081.9
2275.36017	5090.5
2278.24061	5069.2
2281.11922	5052.6
2283.996	5045
2286.87094	5048.9
2289.74405	5025.8
2292.61534	5012.6
2295.4848	5013.6
2298.35243	5025.9
2301.21824	4996.5
2304.08223	5002.5
2306.94439	4985.9
2309.80474	4984.1
2312.66327	4998.5
2315.51999	4996.2
2318.37489	4982.2
2321.22797	4979.2
2324.07925	4984.7
2326.92871	4955.2
2329.77637	4962.9
2332.62222	4943.2
2335.46626	4934.9
2338.3085	4935.4
2341.14893	4941.8
2343.98756	4941
2346.8244	4922.4
2349.65943	4904.1
2352.49267	4921.9
2355.32411	4911.4
2358.15376	4903.3
2360.98161	4898
2363.80768	4879.2
2366.63195	4888.5
2369.45444	4886.2
2372.27514	4881.5
2375.09405	4887.4
2377.91118	4855.6
2380.72652	4852.1
2383.54009	4849.8
2386.35187	4844.1
2389.16188	4834.8
2391.97011	4841.9
2394.77657	4832
2397.58125	4811.6
2400.38416	4802.8
2403.18529	4772
2405.98466	4790.7
2408.78226	4773
2411.57809	4759.7
2414.37216	4757.3
2417.16446	4757.6
2419.955	4735.9
2422.74378	4739.2
2425.5308	4740.3
2428.31606	4734.5
2431.09956	4716.9
2433.88131	4709.8
2436.6613	4727.9
2439.43954	4727.1
2442.21603	4719.9
2444.99077	4715.9
2447.76377	4707.9
2450.53501	4698.2
2453.30451	4708.3
2456.07226	4693.1
2458.83827	4704.4
2461.60254	4697.6
2464.36507	4677.1
2467.12586	4666.9
2469.88492	4671.3
2472.64224	4670.9
2475.39782	4654.3
2478.15167	4663.8
2480.90379	4658
2483.65417	4654.8
2486.40283	4647.2
2489.14976	4650.6
2491.89497	4643.5
2494.63845	4649.1
2497.3802	4657.3
2500.12024	4633.5
2502.85855	4632.9
2505.59514	4622.5
2508.33002	4622.1
2511.06318	4611.4
2513.79462	4608.6
2516.52435	4582.7
2519.25237	4596.2
2521.97867	4589.6
2524.70327	4589.1
2527.42616	4578.3
2530.14734	4587.4
2532.86681	4566.1
2535.58458	4548.3
2538.30065	4566.6
2541.01501	4553
2543.72768	4542.6
2546.43864	4530.7
2549.14791	4532.9
2551.85548	4512.2
2554.56136	4512.7
2557.26554	4507.8
2559.96803	4507.6
2562.66883	4497.2
2565.36794	4505.4
2568.06536	4483
2570.7611	4476.7
2573.45514	4470.5
2576.14751	4468.6
2578.83819	4462.2
2581.52719	4454.7
2584.21451	4441.8
2586.90015	4441.6
2589.58411	4445
2592.2664	4423.5
2594.94701	4417.6
2597.62594	4401.7
2600.30321	4385.3
2602.9788	4397.1
2605.65273	4385.9
2608.32498	4369.8
2610.99557	4376.7
2613.66449	4365.7
2616.33175	4367.9
2618.99734	4360.9
2621.66128	4356.2
2624.32355	4342.1
2626.98416	4342.8
2629.64311	4357.9
2632.30041	4343.5
2634.95605	4340.9
2637.61004	4327.8
2640.26238	4325.2
2642.91306	4327.8
2645.56209	4337.6
2648.20948	4315.2
2650.85521	4319.7
2653.4993	4310.5
2656.14175	4302.4
2658.78255	4311.7
2661.42171	4301.5
2664.05923	4300.2
2666.6951	4308.6
2669.32934	4300.2
2671.96194	4304.8
2674.59291	4297.9
2677.22224	4305.3
2679.84993	4312.7
2682.476	4301.5
2685.10043	4309.9
2687.72324	4308.3
2690.34441	4305
2692.96396	4298.3
2695.58188	4323.4
2698.19818	4321.7
2700.81285	4321.1
2703.4259	4314.2
2706.03733	4337.8
2708.64714	4326.8
2711.25533	4325.4
2713.86191	4317.2
2716.46687	4327.9
2719.07021	4312.2
2721.67194	4336.1
2724.27206	4327.7
2726.87057	4335.9
2729.46747	4320.2
2732.06276	4311.7
2734.65644	4318.5
2737.24852	4313
2739.83899	4295.9
2742.42786	4305.6
2745.01513	4299.2
2747.60079	4279.5
2750.18486	4284.4
2752.76733	4287.3
2755.3482	4284.5
2757.92747	4285.5
2760.50515	4268.5
2763.08123	4262.1
2765.65573	4275.7
2768.22863	4262.5
2770.79994	4264.4
2773.36967	4268
2775.9378	4243.9
2778.50435	4262.3
2781.06932	4228.9
2783.6327	4245.3
2786.1945	4235.2
2788.75471	4219.3
2791.31335	4224.7
2793.87041	4184.1
2796.42589	4183.7
2798.97979	4176.7
2801.53212	4178.2
2804.08288	4181.4
2806.63206	4171.8
2809.17967	4156.7
2811.72571	4137.8
2814.27018	4143.9
2816.81308	4132.6
2819.35442	4128.7
2821.89419	4111.8
2824.43239	4118.8
2826.96904	4126.3
2829.50412	4111.4
2832.03763	4124.5
2834.56959	4121
2837.1	4110.1
2839.62884	4106.5
2842.15613	4106.1
2844.68186	4112.9
2847.20604	4110
2849.72867	4108.4
2852.24974	4102.9
2854.76927	4104.6
2857.28724	4109
2859.80367	4097.2
2862.31855	4101.8
2864.83189	4079.5
2867.34368	4081.7
2869.85393	4081.5
2872.36264	4073
2874.8698	4093.5
2877.37543	4077.5
2879.87952	4087.4
2882.38207	4087.2
2884.88308	4099
2887.38256	4090.6
2889.88051	4085.6
2892.37692	4090.5
2894.8718	4086.1
2897.36515	4097.4
2899.85698	4101.3
2902.34727	4096.7
2904.83604	4102.7
2907.32328	4133.2
2909.809	4111.6
2912.29319	4118.4
2914.77587	4108.5
2917.25702	4113.2
2919.73665	4129
2922.21476	4122.3
2924.69136	4110.3
2927.16644	4124
2929.64	4104.6
2932.11205	4109.5
2934.58258	4103.3
2937.05161	4109.4
2939.51912	4110.3
2941.98513	4103.7
2944.44962	4112.5
2946.91261	4105.1
2949.37409	4109.9
2951.83407	4100.3
2954.29254	4097.2
2956.74951	4090.9
2959.20498	4098.4
2961.65895	4084.5
2964.11142	4076.6
2966.56239	4082.3
2969.01186	4080.5
2971.45984	4071
2973.90632	4055.9
2976.35131	4059.2
2978.7948	4031.8
2981.23681	4044
2983.67732	4043.3
2986.11635	4039.5
2988.55388	4027.3
2990.98993	4040.9
2993.4245	4008.2
2995.85758	4001.4
2998.28917	4004.6
3000.71928	4007.5
3003.14791	4014.3
3005.57506	4013
3008.00073	3992.4
3010.42493	3999.3
3012.84764	3977.7
3015.26888	3978.9
3017.68865	3981.1
3020.10694	3976.4
3022.52376	3973.1
3024.9391	3989.2
3027.35298	3980
3029.76539	3970
3032.17632	3964
3034.5858	3957.3
3036.9938	3970.7
3039.40034	3944.1
3041.80542	3954.5
3044.20903	3947.7
3046.61118	3952.9
3049.01187	3940.7
3051.4111	3954.5
3053.80888	3956.1
3056.20519	3929.8
3058.60005	3924.5
3060.99345	3926.4
3063.3854	3920.4
3065.7759	3921.4
3068.16494	3931.9
3070.55254	3900.8
3072.93868	3907.4
3075.32338	3914.8
3077.70662	3913.4
3080.08842	3907.5
3082.46878	3922.8
3084.84769	3916.4
3087.22515	3922.6
3089.60118	3918.8
3091.97576	3941.7
3094.3489	3921.6
3096.72061	3923.8
3099.09087	3945.9
3101.4597	3947.5
3103.82709	3938.1
3106.19305	3937.1
3108.55757	3941.2
3110.92066	3928.1
3113.28232	3925.5
3115.64255	3922.4
3118.00134	3912.1
3120.35871	3918.6
3122.71466	3911.9
3125.06917	3937.8
3127.42226	3915.1
3129.77393	3931.4
3132.12417	3923.8
3134.47299	3933.2
3136.82039	3951.4
3139.16636	3940.7
3141.51092	3957.2
3143.85406	3964.7
3146.19579	3973
3148.53609	3977.9
3150.87499	3983.4
3153.21246	3992.4
3155.54853	3997.4
3157.88318	4017.3
3160.21642	4011.2
3162.54826	4018.9
3164.87868	4033.4
3167.2077	4018.7
3169.5353	4026.4
3171.86151	4011.4
3174.18631	4033.6
3176.5097	4024.6
3178.83169	4025
3181.15228	4033.3
3183.47147	4024.6
3185.78926	4031.5
3188.10565	4042
3190.42065	4034.4
3192.73424	4039.2
3195.04645	4041.9
3197.35725	4052.2
3199.66667	4045
3201.97469	4068.4
3204.28132	4066.3
3206.58656	4083.5
3208.8904	4089.4
3211.19287	4080.9
3213.49394	4088.4
3215.79363	4095.8
3218.09193	4101.2
3220.38884	4114.3
3222.68438	4117.3
3224.97853	4106.1
3227.2713	4101.8
3229.56269	4105.3
3231.8527	4103.1
3234.14133	4078.4
3236.42858	4083
3238.71446	4084.4
3240.99896	4079.3
3243.28209	4073.8
3245.56384	4068.1
3247.84423	4082.5
3250.12324	4074.1
3252.40088	4079.8
3254.67715	4067.3
3256.95205	4056.3
3259.22558	4064.7
3261.49775	4064.9
3263.76855	4066.2
3266.03799	4063.3
3268.30606	4049.2
3270.57277	4028.9
3272.83812	4043.3
3275.10211	4034.4
3277.36474	4031.7
3279.62601	4038
3281.88593	4028.1
3284.14448	4040.8
3286.40168	4018.8
3288.65753	4035
3290.91202	4031.4
3293.16516	4015.8
3295.41695	3993.8
3297.66738	3969.9
3299.91647	3962.8
3302.16421	3940.7
3304.4106	3931.9
3306.65564	3923.3
3308.89933	3908.8
3311.14169	3896.5
3313.38269	3850.6
3315.62236	3844.5
3317.86068	3804.6
3320.09766	3760.3
3322.3333	3750.7
3324.5676	3747.2
3326.80056	3699.3
3329.03219	3672.6
3331.26248	0.6
3333.49143	0.4
3335.71905	-0.6
