Data from AgNPs_UA_20uM_CRN_500uM_SU_RamanShift__39__13-43-00-298.txt Node

Date: Thu Aug 04 13:43:00 BST 2022
User: TCL
Spectrometer: QEP01345
Trigger mode: 4
Integration Time (sec): 1.000000E0
Scans to average: 10
Electric dark correction enabled: true
Nonlinearity correction enabled: false
Boxcar width: 0
XAxis mode: Raman Shifts
Number of Pixels in Spectrum: 1044
>>>>>Begin Spectral Data<<<<<
46.04893	-0.9125
50.45542	-0.2125
54.85868	1.3875
59.25871	-0.0125
63.6555	18.8875
68.04907	15.9875
72.43941	21.9875
76.82654	19.5875
81.21044	20.2875
85.59113	22.1875
89.96862	21.6875
94.34289	22.4875
98.71396	22.3875
103.08183	24.7875
107.4465	23.6875
111.80798	26.6875
116.16626	26.3875
120.52136	29.5875
124.87327	27.3875
129.222	34.3875
133.56755	33.3875
137.90993	36.2875
142.24913	40.7875
146.58517	43.8875
150.91804	53.3875
155.24774	65.2875
159.57429	80.6875
163.89768	107.8875
168.21792	143.1875
172.53501	197.0875
176.84895	276.4875
181.15975	392.1875
185.46741	561.3875
189.77193	776.4875
194.07331	1049.3875
198.37157	1355.4875
202.6667	1676.9875
206.9587	2000.5875
211.24758	2321.6875
215.53334	2658.1875
219.81599	3000.7875
224.09553	3390.4875
228.37195	3820.3875
232.64527	4283.1875
236.91549	4727.9875
241.18261	5170.6875
245.44663	5517.4875
249.70755	5803.3875
253.96539	6071.1875
258.22014	6284.8875
262.4718	6466.5875
266.72039	6593.0875
270.96589	6639.2875
275.20832	6589.8875
279.44768	6522.6875
283.68397	6390.3875
287.91719	6312.3875
292.14735	6317.2875
296.37445	6396.2875
300.59849	6585.3875
304.81948	6789.3875
309.03742	6987.3875
313.25231	7069.3875
317.46415	6994.4875
321.67296	6747.5875
325.87872	6520.2875
330.08145	6399.4875
334.28114	6385.8875
338.47781	6479.2875
342.67145	6598.0875
346.86207	6784.6875
351.04966	7020.5875
355.23424	7273.7875
359.4158	7475.3875
363.59435	7569.4875
367.76989	7627.6875
371.94243	7606.7875
376.11196	7609.8875
380.27849	7613.4875
384.44203	7603.0875
388.60257	7643.5875
392.76012	7693.1875
396.91468	7792.9875
401.06626	7903.4875
405.21485	7942.1875
409.36047	7831.7875
413.50311	7625.1875
417.64277	7433.2875
421.77947	7330.9875
425.9132	7256.6875
430.04396	7243.7875
434.17176	7267.5875
438.2966	7371.9875
442.41849	7471.4875
446.53742	7629.4875
450.6534	7797.2875
454.76644	7874.4875
458.87653	7907.7875
462.98368	7919.3875
467.08789	7868.5875
471.18916	7782.0875
475.2875	7650.7875
479.38291	7511.9875
483.4754	7451.6875
487.56496	7403.3875
491.6516	7365.7875
495.73531	7350.1875
499.81612	7378.8875
503.89401	7434.0875
507.96899	7492.4875
512.04106	7534.9875
516.11023	7589.9875
520.1765	7617.6875
524.23987	7645.8875
528.30034	7630.7875
532.35792	7605.6875
536.41261	7575.1875
540.46441	7497.3875
544.51333	7466.0875
548.55936	7535.1875
552.60252	7624.0875
556.64279	7724.8875
560.6802	7823.3875
564.71473	7909.9875
568.7464	7979.4875
572.7752	7935.5875
576.80114	7758.3875
580.82422	7611.6875
584.84444	7543.7875
588.86181	7561.9875
592.87633	7607.0875
596.888	7754.7875
600.89682	8081.9875
604.9028	8907.6875
608.90594	10633.2875
612.90624	12291.4875
616.90371	11406.8875
620.89834	9059.6875
624.89015	8080.4875
628.87913	7992.2875
632.86528	8157.5875
636.84862	8239.3875
640.82913	8087.7875
644.80683	7835.8875
648.78172	7656.7875
652.75379	7685.2875
656.72306	7875.8875
660.68952	8127.5875
664.65319	8064.5875
668.61405	7951.1875
672.57211	7999.5875
676.52738	7993.6875
680.47986	7867.1875
684.42955	7725.7875
688.37646	7687.2875
692.32058	7745.6875
696.26192	7877.6875
700.20048	8023.8875
704.13626	8036.0875
708.06928	7990.5875
711.99952	7907.8875
715.927	7904.0875
719.85171	7941.4875
723.77365	7940.9875
727.69284	7923.6875
731.60928	7849.8875
735.52295	7795.3875
739.43388	7841.0875
743.34206	7889.6875
747.24749	7874.6875
751.15017	7907.2875
755.05012	7979.7875
758.94733	8230.1875
762.8418	8828.4875
766.73354	9748.0875
770.62254	10482.9875
774.50882	10684.0875
778.39237	10347.2875
782.27321	9699.8875
786.15132	8930.4875
790.02671	8402.8875
793.89938	8107.4875
797.76935	7966.7875
801.6366	7937.4875
805.50115	7879.9875
809.36299	7855.5875
813.22213	7849.1875
817.07857	7835.7875
820.93231	7849.2875
824.78336	7861.0875
828.63172	7891.8875
832.47738	7897.4875
836.32036	7886.6875
840.16066	7857.4875
843.99827	7860.9875
847.8332	7888.0875
851.66546	7876.4875
855.49504	7898.5875
859.32195	7901.8875
863.1462	7913.4875
866.96777	7893.6875
870.78668	7886.7875
874.60293	7923.3875
878.41652	7948.4875
882.22745	7984.0875
886.03573	8058.8875
889.84136	8046.1875
893.64433	7997.7875
897.44466	8001.6875
901.24235	7982.7875
905.0374	7969.6875
908.8298	7926.2875
912.61957	7911.7875
916.40671	7906.4875
920.19121	7911.4875
923.97308	7987.0875
927.75233	8051.1875
931.52895	8118.4875
935.30295	8050.0875
939.07433	7939.5875
942.84309	7840.1875
946.60924	7823.6875
950.37278	7792.4875
954.13371	7810.9875
957.89203	7796.3875
961.64774	7809.4875
965.40086	7780.5875
969.15137	7779.7875
972.89929	7776.6875
976.64461	7785.2875
980.38733	7786.6875
984.12747	7808.7875
987.86502	7813.3875
991.59999	7883.4875
995.33237	7960.0875
999.06217	7988.5875
1002.78939	8093.4875
1006.51404	8221.0875
1010.23611	8331.0875
1013.95561	8406.0875
1017.67255	8407.8875
1021.38692	8392.8875
1025.09872	8328.1875
1028.80796	8276.0875
1032.51465	8255.0875
1036.21877	8306.2875
1039.92035	8308.0875
1043.61937	8349.5875
1047.31584	8337.6875
1051.00976	8348.2875
1054.70114	8358.6875
1058.38998	8381.7875
1062.07627	8414.0875
1065.76003	8489.5875
1069.44126	8584.3875
1073.11995	8710.1875
1076.79611	8871.3875
1080.46974	8982.3875
1084.14085	9068.2875
1087.80943	9150.0875
1091.47549	9198.7875
1095.13903	9202.5875
1098.80005	9169.5875
1102.45857	9169.8875
1106.11456	9123.1875
1109.76805	9018.9875
1113.41903	9015.1875
1117.06751	9103.2875
1120.71348	9246.1875
1124.35696	9423.4875
1127.99793	9543.0875
1131.63641	9386.5875
1135.2724	9134.3875
1138.90589	8945.8875
1142.5369	8813.5875
1146.16542	8755.5875
1149.79145	8711.6875
1153.415	8595.2875
1157.03607	8578.1875
1160.65467	8624.1875
1164.27079	8761.3875
1167.88443	8983.3875
1171.49561	9343.3875
1175.10432	9870.1875
1178.71056	10600.5875
1182.31434	11228.1875
1185.91565	11503.6875
1189.51451	11421.8875
1193.11091	11257.7875
1196.70485	11008.8875
1200.29634	10766.2875
1203.88538	10444.0875
1207.47197	10114.9875
1211.05612	9753.3875
1214.63782	9452.0875
1218.21708	9270.9875
1221.79391	9146.9875
1225.36829	9087.0875
1228.94024	9080.3875
1232.50976	9052.9875
1236.07685	9075.9875
1239.6415	9096.2875
1243.20374	9136.6875
1246.76355	9203.6875
1250.32093	9289.3875
1253.8759	9421.7875
1257.42845	9621.3875
1260.97859	9877.6875
1264.52631	10100.4875
1268.07163	10243.4875
1271.61453	10343.0875
1275.15503	10378.6875
1278.69312	10372.1875
1282.22882	10351.3875
1285.76211	10453.4875
1289.29301	10589.7875
1292.82151	10806.0875
1296.34761	11006.5875
1299.87133	11360.5875
1303.39266	11883.6875
1306.9116	12706.8875
1310.42815	13523.1875
1313.94233	13784.0875
1317.45412	13353.8875
1320.96354	12674.9875
1324.47058	12017.7875
1327.97525	11460.6875
1331.47754	11107.1875
1334.97747	11047.3875
1338.47502	11209.4875
1341.97022	11590.8875
1345.46305	12201.3875
1348.95352	12997.0875
1352.44163	13886.2875
1355.92738	14769.2875
1359.41078	15807.7875
1362.89183	16621.2875
1366.37053	15950.8875
1369.84688	13905.7875
1373.32088	12073.4875
1376.79254	11023.5875
1380.26186	10515.5875
1383.72883	10200.9875
1387.19347	9935.0875
1390.65578	9672.6875
1394.11575	9429.1875
1397.57339	9233.0875
1401.0287	9120.6875
1404.48168	9095.8875
1407.93234	9151.0875
1411.38068	9296.3875
1414.82669	9404.8875
1418.27039	9460.8875
1421.71177	9411.8875
1425.15083	9366.6875
1428.58758	9322.2875
1432.02203	9342.7875
1435.45416	9409.8875
1438.88399	9412.6875
1442.31151	9385.6875
1445.73673	9368.0875
1449.15965	9376.9875
1452.58027	9337.1875
1455.9986	9267.7875
1459.41463	9255.9875
1462.82837	9347.1875
1466.23982	9479.5875
1469.64898	9637.5875
1473.05586	9779.4875
1476.46045	9874.2875
1479.86276	9959.8875
1483.26279	10092.8875
1486.66054	10258.3875
1490.05602	10567.8875
1493.44922	10985.7875
1496.84016	11674.0875
1500.22882	12685.1875
1503.61521	13859.0875
1506.99934	14984.4875
1510.38121	15570.2875
1513.76081	15318.2875
1517.13816	14219.8875
1520.51324	12832.9875
1523.88607	11655.3875
1527.25665	10969.5875
1530.62498	10570.3875
1533.99105	10405.7875
1537.35488	10334.4875
1540.71647	10225.9875
1544.07581	10197.6875
1547.4329	10094.5875
1550.78776	10007.9875
1554.14038	9937.7875
1557.49077	9916.6875
1560.83892	10026.4875
1564.18484	10216.8875
1567.52853	10454.3875
1570.86999	10664.0875
1574.20922	10707.8875
1577.54624	10576.8875
1580.88103	10191.4875
1584.2136	9749.0875
1587.54395	9486.4875
1590.87208	9502.5875
1594.19801	9759.7875
1597.52172	10128.5875
1600.84321	10302.7875
1604.16251	10248.5875
1607.47959	10080.5875
1610.79447	9793.6875
1614.10715	9370.8875
1617.41763	9001.3875
1620.7259	8717.3875
1624.03199	8553.8875
1627.33587	8510.1875
1630.63757	8597.0875
1633.93707	8818.9875
1637.23439	9257.1875
1640.52951	9956.3875
1643.82246	10892.9875
1647.11321	11841.7875
1650.40179	12251.2875
1653.68819	11785.3875
1656.97241	10629.1875
1660.25446	9441.3875
1663.53433	8626.2875
1666.81203	8175.7875
1670.08756	7896.0875
1673.36092	7747.9875
1676.63211	7641.1875
1679.90115	7542.5875
1683.16801	7477.5875
1686.43272	7419.2875
1689.69527	7372.5875
1692.95567	7344.5875
1696.2139	7320.3875
1699.46999	7300.7875
1702.72392	7284.3875
1705.97571	7297.3875
1709.22535	7302.6875
1712.47284	7275.3875
1715.71819	7276.2875
1718.96139	7253.6875
1722.20246	7259.9875
1725.44139	7228.5875
1728.67818	7200.0875
1731.91284	7152.0875
1735.14537	7154.2875
1738.37576	7115.2875
1741.60403	7079.7875
1744.83017	7064.3875
1748.05418	7073.5875
1751.27607	7040.6875
1754.49584	7025.4875
1757.71349	6998.3875
1760.92903	6977.3875
1764.14244	7003.3875
1767.35375	6960.1875
1770.56294	6954.8875
1773.77002	6950.0875
1776.97499	6955.5875
1780.17785	6913.4875
1783.37861	6899.3875
1786.57727	6899.7875
1789.77382	6888.4875
1792.96828	6847.3875
1796.16064	6831.5875
1799.3509	6855.6875
1802.53907	6827.8875
1805.72514	6826.8875
1808.90913	6789.6875
1812.09102	6797.3875
1815.27083	6771.8875
1818.44856	6742.0875
1821.6242	6726.1875
1824.79776	6735.5875
1827.96924	6721.9875
1831.13864	6722.6875
1834.30597	6713.9875
1837.47122	6693.0875
1840.6344	6684.6875
1843.7955	6658.2875
1846.95454	6664.2875
1850.11151	6629.7875
1853.26642	6643.9875
1856.41926	6642.5875
1859.57004	6639.0875
1862.71876	6638.1875
1865.86542	6634.0875
1869.01003	6621.1875
1872.15258	6587.4875
1875.29308	6581.8875
1878.43152	6599.7875
1881.56792	6584.3875
1884.70227	6565.2875
1887.83457	6551.5875
1890.96482	6560.9875
1894.09304	6527.5875
1897.21921	6522.2875
1900.34335	6509.6875
1903.46544	6522.6875
1906.58551	6516.6875
1909.70353	6504.7875
1912.81953	6485.5875
1915.93349	6487.0875
1919.04543	6490.7875
1922.15534	6454.8875
1925.26322	6442.6875
1928.36908	6426.7875
1931.47292	6412.6875
1934.57473	6408.4875
1937.67453	6382.9875
1940.77232	6389.1875
1943.86808	6372.2875
1946.96184	6333.1875
1950.05358	6324.5875
1953.14331	6310.7875
1956.23103	6268.0875
1959.31675	6255.9875
1962.40046	6236.6875
1965.48217	6222.3875
1968.56188	6202.2875
1971.63959	6200.1875
1974.7153	6181.1875
1977.78901	6139.1875
1980.86073	6129.0875
1983.93046	6117.0875
1986.99819	6103.8875
1990.06394	6068.0875
1993.1277	6047.6875
1996.18947	6039.2875
1999.24925	6020.5875
2002.30706	5999.6875
2005.36288	5976.7875
2008.41672	5946.4875
2011.46859	5926.7875
2014.51848	5893.8875
2017.56639	5894.9875
2020.61233	5871.7875
2023.6563	5862.6875
2026.6983	5868.4875
2029.73833	5840.4875
2032.7764	5817.7875
2035.8125	5794.2875
2038.84664	5791.8875
2041.87881	5791.3875
2044.90903	5775.1875
2047.93729	5739.4875
2050.96359	5769.7875
2053.98794	5725.9875
2057.01034	5732.5875
2060.03078	5736.6875
2063.04927	5706.5875
2066.06582	5708.8875
2069.08042	5708.9875
2072.09307	5709.2875
2075.10378	5685.1875
2078.11255	5695.8875
2081.11938	5683.0875
2084.12426	5669.8875
2087.12722	5675.5875
2090.12824	5689.3875
2093.12732	5680.0875
2096.12447	5681.0875
2099.11969	5676.8875
2102.11299	5670.2875
2105.10435	5673.4875
2108.09379	5681.6875
2111.08131	5679.5875
2114.0669	5651.4875
2117.05057	5669.3875
2120.03233	5676.1875
2123.01216	5675.1875
2125.99008	5685.5875
2128.96609	5686.9875
2131.94018	5710.3875
2134.91236	5696.5875
2137.88263	5678.2875
2140.851	5687.2875
2143.81746	5691.1875
2146.78201	5671.9875
2149.74466	5684.7875
2152.7054	5676.8875
2155.66425	5685.6875
2158.6212	5683.9875
2161.57625	5687.9875
2164.52941	5685.8875
2167.48067	5672.5875
2170.43004	5666.5875
2173.37752	5659.5875
2176.32311	5653.3875
2179.26681	5663.6875
2182.20863	5643.6875
2185.14856	5642.4875
2188.08661	5655.8875
2191.02278	5657.7875
2193.95707	5641.5875
2196.88948	5651.3875
2199.82001	5628.8875
2202.74867	5636.1875
2205.67545	5627.4875
2208.60037	5622.0875
2211.52341	5625.2875
2214.44458	5596.4875
2217.36388	5576.5875
2220.28132	5551.5875
2223.1969	5539.8875
2226.11061	5518.9875
2229.02246	5519.7875
2231.93245	5506.9875
2234.84058	5498.4875
2237.74686	5485.0875
2240.65128	5487.3875
2243.55385	5497.3875
2246.45456	5481.5875
2249.35343	5452.1875
2252.25044	5450.2875
2255.14561	5458.3875
2258.03893	5460.6875
2260.93041	5439.3875
2263.82004	5425.4875
2266.70783	5423.7875
2269.59378	5399.0875
2272.4779	5386.1875
2275.36017	5367.8875
2278.24061	5340.9875
2281.11922	5336.6875
2283.996	5334.7875
2286.87094	5308.2875
2289.74405	5298.0875
2292.61534	5307.2875
2295.4848	5300.5875
2298.35243	5302.1875
2301.21824	5288.1875
2304.08223	5261.3875
2306.94439	5281.1875
2309.80474	5278.5875
2312.66327	5278.1875
2315.51999	5237.7875
2318.37489	5244.0875
2321.22797	5242.0875
2324.07925	5220.2875
2326.92871	5235.5875
2329.77637	5208.6875
2332.62222	5197.9875
2335.46626	5187.7875
2338.3085	5189.2875
2341.14893	5177.7875
2343.98756	5174.7875
2346.8244	5168.7875
2349.65943	5181.6875
2352.49267	5162.4875
2355.32411	5150.0875
2358.15376	5156.8875
2360.98161	5149.0875
2363.80768	5144.5875
2366.63195	5146.0875
2369.45444	5142.2875
2372.27514	5126.4875
2375.09405	5129.2875
2377.91118	5129.3875
2380.72652	5117.1875
2383.54009	5083.6875
2386.35187	5064.6875
2389.16188	5076.1875
2391.97011	5051.0875
2394.77657	5044.2875
2397.58125	5035.6875
2400.38416	5027.7875
2403.18529	5012.3875
2405.98466	5006.5875
2408.78226	5004.7875
2411.57809	4991.7875
2414.37216	4971.8875
2417.16446	4978.0875
2419.955	4975.8875
2422.74378	4966.7875
2425.5308	4964.5875
2428.31606	4948.1875
2431.09956	4949.7875
2433.88131	4952.4875
2436.6613	4933.5875
2439.43954	4937.2875
2442.21603	4929.9875
2444.99077	4936.0875
2447.76377	4922.1875
2450.53501	4922.1875
2453.30451	4919.5875
2456.07226	4895.6875
2458.83827	4898.5875
2461.60254	4888.9875
2464.36507	4899.2875
2467.12586	4869.2875
2469.88492	4866.7875
2472.64224	4865.9875
2475.39782	4866.4875
2478.15167	4858.7875
2480.90379	4852.1875
2483.65417	4856.1875
2486.40283	4862.4875
2489.14976	4858.4875
2491.89497	4865.6875
2494.63845	4858.8875
2497.3802	4837.2875
2500.12024	4856.0875
2502.85855	4820.6875
2505.59514	4803.6875
2508.33002	4790.0875
2511.06318	4784.1875
2513.79462	4771.3875
2516.52435	4769.8875
2519.25237	4762.2875
2521.97867	4747.0875
2524.70327	4760.4875
2527.42616	4730.1875
2530.14734	4729.5875
2532.86681	4701.8875
2535.58458	4727.7875
2538.30065	4728.6875
2541.01501	4707.3875
2543.72768	4713.0875
2546.43864	4708.6875
2549.14791	4683.7875
2551.85548	4712.9875
2554.56136	4693.3875
2557.26554	4683.8875
2559.96803	4663.9875
2562.66883	4666.7875
2565.36794	4651.1875
2568.06536	4635.4875
2570.7611	4607.1875
2573.45514	4602.9875
2576.14751	4604.7875
2578.83819	4595.9875
2581.52719	4598.9875
2584.21451	4573.7875
2586.90015	4565.2875
2589.58411	4550.3875
2592.2664	4555.8875
2594.94701	4551.6875
2597.62594	4533.1875
2600.30321	4529.1875
2602.9788	4515.7875
2605.65273	4522.0875
2608.32498	4514.1875
2610.99557	4499.7875
2613.66449	4495.9875
2616.33175	4469.9875
2618.99734	4475.8875
2621.66128	4467.9875
2624.32355	4470.9875
2626.98416	4458.5875
2629.64311	4459.7875
2632.30041	4451.4875
2634.95605	4447.5875
2637.61004	4415.0875
2640.26238	4416.3875
2642.91306	4402.6875
2645.56209	4405.7875
2648.20948	4407.7875
2650.85521	4395.7875
2653.4993	4400.9875
2656.14175	4390.8875
2658.78255	4383.5875
2661.42171	4397.7875
2664.05923	4407.6875
2666.6951	4395.8875
2669.32934	4417.2875
2671.96194	4392.8875
2674.59291	4396.2875
2677.22224	4376.2875
2679.84993	4389.7875
2682.476	4387.7875
2685.10043	4387.6875
2687.72324	4375.4875
2690.34441	4365.2875
2692.96396	4376.8875
2695.58188	4370.5875
2698.19818	4358.5875
2700.81285	4388.3875
2703.4259	4376.8875
2706.03733	4368.6875
2708.64714	4356.1875
2711.25533	4352.5875
2713.86191	4330.3875
2716.46687	4346.3875
2719.07021	4351.4875
2721.67194	4368.1875
2724.27206	4366.2875
2726.87057	4354.1875
2729.46747	4354.0875
2732.06276	4344.3875
2734.65644	4339.8875
2737.24852	4333.6875
2739.83899	4336.6875
2742.42786	4338.5875
2745.01513	4329.7875
2747.60079	4320.5875
2750.18486	4302.8875
2752.76733	4303.8875
2755.3482	4280.7875
2757.92747	4283.6875
2760.50515	4268.1875
2763.08123	4272.5875
2765.65573	4254.4875
2768.22863	4264.0875
2770.79994	4242.7875
2773.36967	4243.6875
2775.9378	4233.4875
2778.50435	4230.5875
2781.06932	4211.5875
2783.6327	4214.3875
2786.1945	4207.5875
2788.75471	4207.3875
2791.31335	4189.4875
2793.87041	4169.7875
2796.42589	4167.1875
2798.97979	4160.4875
2801.53212	4147.2875
2804.08288	4151.2875
2806.63206	4144.3875
2809.17967	4137.3875
2811.72571	4125.2875
2814.27018	4141.7875
2816.81308	4128.7875
2819.35442	4111.9875
2821.89419	4088.9875
2824.43239	4080.7875
2826.96904	4074.4875
2829.50412	4080.0875
2832.03763	4060.9875
2834.56959	4060.4875
2837.1	4034.3875
2839.62884	4048.8875
2842.15613	4034.7875
2844.68186	4033.1875
2847.20604	4018.5875
2849.72867	4030.2875
2852.24974	4018.9875
2854.76927	3988.0875
2857.28724	3984.8875
2859.80367	3981.6875
2862.31855	3995.5875
2864.83189	3965.8875
2867.34368	3960.6875
2869.85393	3967.3875
2872.36264	3957.6875
2874.8698	3972.5875
2877.37543	3953.3875
2879.87952	3947.0875
2882.38207	3955.8875
2884.88308	3948.8875
2887.38256	3939.4875
2889.88051	3925.6875
2892.37692	3941.2875
2894.8718	3923.3875
2897.36515	3927.9875
2899.85698	3925.4875
2902.34727	3919.5875
2904.83604	3910.3875
2907.32328	3927.7875
2909.809	3928.2875
2912.29319	3932.7875
2914.77587	3925.9875
2917.25702	3919.9875
2919.73665	3913.1875
2922.21476	3932.0875
2924.69136	3929.2875
2927.16644	3907.8875
2929.64	3891.6875
2932.11205	3887.8875
2934.58258	3889.4875
2937.05161	3886.0875
2939.51912	3875.3875
2941.98513	3869.4875
2944.44962	3867.6875
2946.91261	3864.2875
2949.37409	3864.8875
2951.83407	3861.2875
2954.29254	3861.9875
2956.74951	3854.4875
2959.20498	3851.5875
2961.65895	3831.8875
2964.11142	3844.8875
2966.56239	3834.4875
2969.01186	3843.2875
2971.45984	3828.5875
2973.90632	3842.7875
2976.35131	3835.0875
2978.7948	3800.6875
2981.23681	3807.1875
2983.67732	3803.3875
2986.11635	3795.3875
2988.55388	3796.0875
2990.98993	3775.1875
2993.4245	3771.2875
2995.85758	3778.3875
2998.28917	3757.2875
3000.71928	3745.2875
3003.14791	3737.0875
3005.57506	3726.4875
3008.00073	3715.0875
3010.42493	3693.9875
3012.84764	3690.8875
3015.26888	3679.2875
3017.68865	3682.3875
3020.10694	3680.2875
3022.52376	3668.0875
3024.9391	3664.0875
3027.35298	3651.8875
3029.76539	3638.9875
3032.17632	3620.4875
3034.5858	3620.1875
3036.9938	3616.6875
3039.40034	3604.2875
3041.80542	3593.7875
3044.20903	3585.9875
3046.61118	3587.6875
3049.01187	3571.2875
3051.4111	3577.3875
3053.80888	3557.9875
3056.20519	3542.7875
3058.60005	3537.5875
3060.99345	3546.0875
3063.3854	3527.9875
3065.7759	3541.8875
3068.16494	3529.6875
3070.55254	3499.4875
3072.93868	3490.8875
3075.32338	3501.6875
3077.70662	3477.6875
3080.08842	3463.7875
3082.46878	3458.5875
3084.84769	3445.2875
3087.22515	3426.3875
3089.60118	3461.7875
3091.97576	3446.7875
3094.3489	3457.9875
3096.72061	3450.8875
3099.09087	3438.9875
3101.4597	3434.3875
3103.82709	3427.8875
3106.19305	3421.2875
3108.55757	3409.3875
3110.92066	3412.5875
3113.28232	3406.9875
3115.64255	3391.1875
3118.00134	3378.8875
3120.35871	3369.9875
3122.71466	3368.9875
3125.06917	3361.3875
3127.42226	3347.4875
3129.77393	3348.8875
3132.12417	3348.5875
3134.47299	3331.7875
3136.82039	3332.6875
3139.16636	3319.9875
3141.51092	3331.6875
3143.85406	3335.6875
3146.19579	3333.2875
3148.53609	3330.9875
3150.87499	3319.9875
3153.21246	3313.4875
3155.54853	3319.2875
3157.88318	3319.5875
3160.21642	3324.2875
3162.54826	3314.9875
3164.87868	3305.5875
3167.2077	3290.5875
3169.5353	3300.0875
3171.86151	3287.9875
3174.18631	3287.9875
3176.5097	3289.0875
3178.83169	3264.7875
3181.15228	3262.4875
3183.47147	3269.6875
3185.78926	3270.7875
3188.10565	3248.8875
3190.42065	3248.4875
3192.73424	3232.0875
3195.04645	3228.5875
3197.35725	3221.5875
3199.66667	3209.9875
3201.97469	3221.1875
3204.28132	3205.1875
3206.58656	3216.2875
3208.8904	3193.0875
3211.19287	3223.7875
3213.49394	3232.0875
3215.79363	3210.2875
3218.09193	3214.0875
3220.38884	3201.6875
3222.68438	3203.4875
3224.97853	3206.4875
3227.2713	3210.5875
3229.56269	3209.7875
3231.8527	3187.5875
3234.14133	3181.8875
3236.42858	3169.2875
3238.71446	3174.8875
3240.99896	3146.8875
3243.28209	3152.7875
3245.56384	3138.6875
3247.84423	3135.6875
3250.12324	3133.2875
3252.40088	3118.4875
3254.67715	3126.6875
3256.95205	3126.6875
3259.22558	3110.3875
3261.49775	3124.2875
3263.76855	3117.2875
3266.03799	3119.5875
3268.30606	3111.1875
3270.57277	3119.5875
3272.83812	3110.9875
3275.10211	3079.8875
3277.36474	3086.6875
3279.62601	3078.5875
3281.88593	3065.4875
3284.14448	3064.5875
3286.40168	3064.0875
3288.65753	3061.3875
3290.91202	3056.8875
3293.16516	3043.5875
3295.41695	3038.5875
3297.66738	3020.5875
3299.91647	3007.9875
3302.16421	2985.7875
3304.4106	2989.3875
3306.65564	2952.3875
3308.89933	2933.8875
3311.14169	2903.2875
3313.38269	2893.3875
3315.62236	2870.1875
3317.86068	2834.1875
3320.09766	2819.4875
3322.3333	2788.0875
3324.5676	2772.3875
3326.80056	2724.7875
3329.03219	2714.3875
3331.26248	3.0875
3333.49143	-1.1125
3335.71905	-1.5125
