Data from AgNPs_UA_50uM_CRN_500uM_SU_RamanShift__40__14-02-30-322.txt Node

Date: Thu Aug 04 14:02:30 BST 2022
User: TCL
Spectrometer: QEP01345
Trigger mode: 4
Integration Time (sec): 1.000000E0
Scans to average: 10
Electric dark correction enabled: true
Nonlinearity correction enabled: false
Boxcar width: 0
XAxis mode: Raman Shifts
Number of Pixels in Spectrum: 1044
>>>>>Begin Spectral Data<<<<<
46.04893	1.7875
50.45542	-0.9125
54.85868	-0.5125
59.25871	-0.8125
63.6555	14.9875
68.04907	13.9875
72.43941	15.6875
76.82654	16.9875
81.21044	16.2875
85.59113	19.5875
89.96862	18.8875
94.34289	21.5875
98.71396	21.8875
103.08183	21.8875
107.4465	19.3875
111.80798	20.7875
116.16626	20.4875
120.52136	23.5875
124.87327	26.0875
129.222	28.0875
133.56755	30.4875
137.90993	30.9875
142.24913	33.5875
146.58517	40.1875
150.91804	47.6875
155.24774	57.0875
159.57429	72.3875
163.89768	95.6875
168.21792	123.9875
172.53501	171.6875
176.84895	243.5875
181.15975	349.3875
185.46741	491.0875
189.77193	682.5875
194.07331	913.0875
198.37157	1185.6875
202.6667	1464.4875
206.9587	1759.1875
211.24758	2033.5875
215.53334	2339.2875
219.81599	2650.5875
224.09553	2999.2875
228.37195	3391.2875
232.64527	3819.0875
236.91549	4222.7875
241.18261	4587.0875
245.44663	4869.3875
249.70755	5093.5875
253.96539	5275.4875
258.22014	5453.0875
262.4718	5593.1875
266.72039	5684.8875
270.96589	5720.0875
275.20832	5683.7875
279.44768	5610.2875
283.68397	5499.5875
287.91719	5448.3875
292.14735	5458.4875
296.37445	5541.7875
300.59849	5730.8875
304.81948	5969.1875
309.03742	6205.7875
313.25231	6336.4875
317.46415	6245.6875
321.67296	5979.1875
325.87872	5698.7875
330.08145	5518.0875
334.28114	5538.9875
338.47781	5616.4875
342.67145	5737.0875
346.86207	5914.8875
351.04966	6180.5875
355.23424	6431.4875
359.4158	6617.3875
363.59435	6688.5875
367.76989	6712.8875
371.94243	6676.2875
376.11196	6637.1875
380.27849	6584.0875
384.44203	6596.6875
388.60257	6591.4875
392.76012	6641.5875
396.91468	6711.4875
401.06626	6807.5875
405.21485	6838.1875
409.36047	6730.8875
413.50311	6515.5875
417.64277	6267.5875
421.77947	6132.6875
425.9132	6054.3875
430.04396	6038.9875
434.17176	6086.8875
438.2966	6158.8875
442.41849	6266.3875
446.53742	6392.2875
450.6534	6505.1875
454.76644	6617.3875
458.87653	6630.2875
462.98368	6631.6875
467.08789	6590.1875
471.18916	6472.1875
475.2875	6345.8875
479.38291	6242.0875
483.4754	6148.5875
487.56496	6110.3875
491.6516	6061.9875
495.73531	6056.0875
499.81612	6086.3875
503.89401	6127.3875
507.96899	6169.2875
512.04106	6217.3875
516.11023	6301.1875
520.1765	6343.0875
524.23987	6367.9875
528.30034	6341.3875
532.35792	6323.5875
536.41261	6278.9875
540.46441	6199.2875
544.51333	6153.9875
548.55936	6185.7875
552.60252	6293.4875
556.64279	6416.3875
560.6802	6488.1875
564.71473	6551.1875
568.7464	6687.8875
572.7752	6641.9875
576.80114	6443.7875
580.82422	6294.9875
584.84444	6216.3875
588.86181	6200.9875
592.87633	6255.8875
596.888	6381.6875
600.89682	6677.0875
604.9028	7512.1875
608.90594	9251.6875
612.90624	11028.6875
616.90371	10103.6875
620.89834	7687.1875
624.89015	6684.0875
628.87913	6578.9875
632.86528	6702.0875
636.84862	6777.7875
640.82913	6630.8875
644.80683	6368.9875
648.78172	6209.1875
652.75379	6236.7875
656.72306	6453.5875
660.68952	6656.8875
664.65319	6597.1875
668.61405	6447.3875
672.57211	6473.2875
676.52738	6466.5875
680.47986	6352.4875
684.42955	6223.9875
688.37646	6178.3875
692.32058	6223.0875
696.26192	6345.5875
700.20048	6468.5875
704.13626	6477.4875
708.06928	6412.1875
711.99952	6358.7875
715.927	6345.1875
719.85171	6387.7875
723.77365	6405.9875
727.69284	6354.1875
731.60928	6289.7875
735.52295	6269.9875
739.43388	6290.6875
743.34206	6311.0875
747.24749	6319.0875
751.15017	6332.1875
755.05012	6412.1875
758.94733	6686.3875
762.8418	7314.6875
766.73354	8280.0875
770.62254	9008.5875
774.50882	9129.1875
778.39237	8730.9875
782.27321	8045.9875
786.15132	7292.1875
790.02671	6754.8875
793.89938	6491.1875
797.76935	6370.3875
801.6366	6313.1875
805.50115	6270.3875
809.36299	6253.7875
813.22213	6238.4875
817.07857	6231.9875
820.93231	6233.0875
824.78336	6247.1875
828.63172	6270.2875
832.47738	6291.4875
836.32036	6246.6875
840.16066	6227.5875
843.99827	6218.1875
847.8332	6238.8875
851.66546	6217.4875
855.49504	6252.2875
859.32195	6251.6875
863.1462	6239.2875
866.96777	6243.9875
870.78668	6246.2875
874.60293	6269.0875
878.41652	6269.7875
882.22745	6325.4875
886.03573	6351.5875
889.84136	6331.9875
893.64433	6314.9875
897.44466	6303.1875
901.24235	6314.5875
905.0374	6282.1875
908.8298	6263.5875
912.61957	6214.2875
916.40671	6225.3875
920.19121	6267.9875
923.97308	6320.0875
927.75233	6374.8875
931.52895	6418.1875
935.30295	6381.4875
939.07433	6257.9875
942.84309	6175.5875
946.60924	6129.5875
950.37278	6115.1875
954.13371	6114.3875
957.89203	6107.8875
961.64774	6083.8875
965.40086	6083.9875
969.15137	6062.1875
972.89929	6054.1875
976.64461	6060.6875
980.38733	6066.0875
984.12747	6087.4875
987.86502	6106.3875
991.59999	6141.3875
995.33237	6204.6875
999.06217	6275.6875
1002.78939	6391.0875
1006.51404	6512.3875
1010.23611	6608.1875
1013.95561	6658.3875
1017.67255	6675.9875
1021.38692	6644.3875
1025.09872	6558.6875
1028.80796	6496.4875
1032.51465	6513.4875
1036.21877	6537.4875
1039.92035	6559.6875
1043.61937	6573.8875
1047.31584	6568.2875
1051.00976	6562.8875
1054.70114	6554.3875
1058.38998	6546.7875
1062.07627	6581.8875
1065.76003	6652.7875
1069.44126	6720.6875
1073.11995	6846.3875
1076.79611	6961.3875
1080.46974	7084.9875
1084.14085	7182.5875
1087.80943	7265.2875
1091.47549	7319.1875
1095.13903	7257.9875
1098.80005	7232.9875
1102.45857	7196.0875
1106.11456	7128.9875
1109.76805	7068.1875
1113.41903	7071.1875
1117.06751	7178.5875
1120.71348	7339.3875
1124.35696	7562.9875
1127.99793	7681.4875
1131.63641	7557.9875
1135.2724	7274.9875
1138.90589	7068.2875
1142.5369	6970.0875
1146.16542	6885.6875
1149.79145	6863.7875
1153.415	6798.7875
1157.03607	6738.6875
1160.65467	6778.2875
1164.27079	6934.7875
1167.88443	7119.6875
1171.49561	7462.0875
1175.10432	7994.9875
1178.71056	8711.3875
1182.31434	9295.4875
1185.91565	9494.8875
1189.51451	9362.0875
1193.11091	9108.2875
1196.70485	8811.1875
1200.29634	8581.2875
1203.88538	8348.5875
1207.47197	8017.0875
1211.05612	7746.7875
1214.63782	7544.7875
1218.21708	7349.5875
1221.79391	7225.0875
1225.36829	7167.4875
1228.94024	7145.3875
1232.50976	7105.8875
1236.07685	7116.2875
1239.6415	7128.3875
1243.20374	7161.5875
1246.76355	7199.8875
1250.32093	7295.0875
1253.8759	7446.3875
1257.42845	7653.4875
1260.97859	7894.9875
1264.52631	8095.1875
1268.07163	8213.0875
1271.61453	8315.2875
1275.15503	8340.6875
1278.69312	8331.8875
1282.22882	8355.0875
1285.76211	8442.9875
1289.29301	8609.6875
1292.82151	8793.9875
1296.34761	8958.4875
1299.87133	9287.3875
1303.39266	9814.5875
1306.9116	10668.1875
1310.42815	11544.5875
1313.94233	11815.9875
1317.45412	11319.0875
1320.96354	10556.2875
1324.47058	9892.7875
1327.97525	9297.9875
1331.47754	8933.3875
1334.97747	8836.9875
1338.47502	8970.5875
1341.97022	9303.4875
1345.46305	9904.3875
1348.95352	10665.7875
1352.44163	11540.7875
1355.92738	12430.9875
1359.41078	13591.0875
1362.89183	14495.2875
1366.37053	13815.3875
1369.84688	11801.4875
1373.32088	9977.5875
1376.79254	8929.2875
1380.26186	8469.7875
1383.72883	8179.8875
1387.19347	7902.4875
1390.65578	7651.8875
1394.11575	7401.0875
1397.57339	7254.8875
1401.0287	7174.1875
1404.48168	7144.9875
1407.93234	7183.6875
1411.38068	7289.5875
1414.82669	7398.6875
1418.27039	7467.2875
1421.71177	7425.8875
1425.15083	7350.2875
1428.58758	7311.0875
1432.02203	7351.0875
1435.45416	7430.4875
1438.88399	7441.3875
1442.31151	7413.1875
1445.73673	7437.6875
1449.15965	7450.5875
1452.58027	7404.6875
1455.9986	7353.0875
1459.41463	7303.2875
1462.82837	7372.7875
1466.23982	7499.8875
1469.64898	7630.8875
1473.05586	7744.0875
1476.46045	7822.9875
1479.86276	7905.2875
1483.26279	7999.2875
1486.66054	8209.9875
1490.05602	8461.4875
1493.44922	8865.6875
1496.84016	9508.5875
1500.22882	10454.6875
1503.61521	11627.9875
1506.99934	12818.7875
1510.38121	13558.3875
1513.76081	13351.0875
1517.13816	12259.8875
1520.51324	10829.0875
1523.88607	9664.9875
1527.25665	8927.9875
1530.62498	8535.4875
1533.99105	8328.4875
1537.35488	8200.1875
1540.71647	8125.6875
1544.07581	8046.9875
1547.4329	8003.2875
1550.78776	7914.6875
1554.14038	7892.9875
1557.49077	7904.3875
1560.83892	8033.8875
1564.18484	8224.4875
1567.52853	8479.8875
1570.86999	8669.3875
1574.20922	8698.9875
1577.54624	8565.1875
1580.88103	8167.7875
1584.2136	7736.3875
1587.54395	7477.3875
1590.87208	7465.6875
1594.19801	7742.9875
1597.52172	8061.3875
1600.84321	8196.2875
1604.16251	8126.3875
1607.47959	7954.5875
1610.79447	7677.9875
1614.10715	7341.4875
1617.41763	6992.3875
1620.7259	6750.2875
1624.03199	6623.4875
1627.33587	6582.9875
1630.63757	6666.7875
1633.93707	6906.8875
1637.23439	7284.8875
1640.52951	7952.0875
1643.82246	8870.9875
1647.11321	9836.6875
1650.40179	10311.8875
1653.68819	9875.8875
1656.97241	8737.3875
1660.25446	7614.0875
1663.53433	6827.6875
1666.81203	6372.4875
1670.08756	6109.1875
1673.36092	5942.5875
1676.63211	5832.8875
1679.90115	5754.7875
1683.16801	5711.3875
1686.43272	5646.9875
1689.69527	5624.0875
1692.95567	5575.6875
1696.2139	5583.3875
1699.46999	5556.2875
1702.72392	5558.9875
1705.97571	5539.2875
1709.22535	5540.6875
1712.47284	5540.0875
1715.71819	5541.7875
1718.96139	5538.6875
1722.20246	5517.8875
1725.44139	5486.3875
1728.67818	5455.2875
1731.91284	5413.6875
1735.14537	5396.6875
1738.37576	5388.4875
1741.60403	5375.4875
1744.83017	5355.0875
1748.05418	5332.3875
1751.27607	5346.1875
1754.49584	5308.7875
1757.71349	5305.7875
1760.92903	5302.6875
1764.14244	5291.7875
1767.35375	5289.0875
1770.56294	5280.4875
1773.77002	5261.9875
1776.97499	5239.2875
1780.17785	5219.6875
1783.37861	5213.7875
1786.57727	5195.4875
1789.77382	5182.4875
1792.96828	5170.6875
1796.16064	5179.7875
1799.3509	5157.2875
1802.53907	5158.7875
1805.72514	5136.8875
1808.90913	5132.2875
1812.09102	5119.2875
1815.27083	5100.2875
1818.44856	5091.9875
1821.6242	5066.2875
1824.79776	5066.8875
1827.96924	5050.7875
1831.13864	5046.1875
1834.30597	5017.8875
1837.47122	5028.9875
1840.6344	5019.8875
1843.7955	5011.9875
1846.95454	5016.9875
1850.11151	5019.4875
1853.26642	5001.9875
1856.41926	4997.8875
1859.57004	5003.7875
1862.71876	4994.3875
1865.86542	4990.8875
1869.01003	4971.4875
1872.15258	4968.2875
1875.29308	4962.6875
1878.43152	4966.4875
1881.56792	4958.2875
1884.70227	4954.2875
1887.83457	4941.4875
1890.96482	4942.1875
1894.09304	4919.7875
1897.21921	4922.1875
1900.34335	4900.0875
1903.46544	4888.2875
1906.58551	4883.1875
1909.70353	4868.1875
1912.81953	4856.2875
1915.93349	4859.1875
1919.04543	4857.1875
1922.15534	4849.6875
1925.26322	4840.1875
1928.36908	4810.9875
1931.47292	4811.4875
1934.57473	4804.9875
1937.67453	4793.1875
1940.77232	4761.4875
1943.86808	4765.2875
1946.96184	4753.2875
1950.05358	4751.5875
1953.14331	4719.5875
1956.23103	4695.8875
1959.31675	4681.5875
1962.40046	4667.8875
1965.48217	4663.3875
1968.56188	4648.4875
1971.63959	4650.8875
1974.7153	4646.7875
1977.78901	4609.2875
1980.86073	4608.3875
1983.93046	4590.8875
1986.99819	4572.5875
1990.06394	4566.3875
1993.1277	4539.3875
1996.18947	4513.5875
1999.24925	4506.9875
2002.30706	4493.9875
2005.36288	4454.7875
2008.41672	4446.1875
2011.46859	4435.3875
2014.51848	4429.3875
2017.56639	4406.2875
2020.61233	4405.7875
2023.6563	4376.0875
2026.6983	4383.4875
2029.73833	4339.8875
2032.7764	4339.0875
2035.8125	4338.0875
2038.84664	4329.2875
2041.87881	4330.5875
2044.90903	4304.8875
2047.93729	4303.6875
2050.96359	4296.6875
2053.98794	4280.8875
2057.01034	4285.3875
2060.03078	4274.0875
2063.04927	4274.0875
2066.06582	4272.0875
2069.08042	4272.4875
2072.09307	4255.3875
2075.10378	4246.5875
2078.11255	4241.3875
2081.11938	4247.4875
2084.12426	4256.3875
2087.12722	4232.9875
2090.12824	4229.6875
2093.12732	4224.1875
2096.12447	4236.3875
2099.11969	4236.0875
2102.11299	4250.0875
2105.10435	4255.0875
2108.09379	4237.1875
2111.08131	4232.4875
2114.0669	4235.7875
2117.05057	4242.7875
2120.03233	4246.3875
2123.01216	4241.2875
2125.99008	4245.6875
2128.96609	4252.3875
2131.94018	4254.1875
2134.91236	4250.0875
2137.88263	4250.6875
2140.851	4246.4875
2143.81746	4254.5875
2146.78201	4257.5875
2149.74466	4225.2875
2152.7054	4242.8875
2155.66425	4245.0875
2158.6212	4238.0875
2161.57625	4220.1875
2164.52941	4229.1875
2167.48067	4235.0875
2170.43004	4230.5875
2173.37752	4231.8875
2176.32311	4233.3875
2179.26681	4236.5875
2182.20863	4233.6875
2185.14856	4228.9875
2188.08661	4211.4875
2191.02278	4223.9875
2193.95707	4201.1875
2196.88948	4202.2875
2199.82001	4203.0875
2202.74867	4182.7875
2205.67545	4185.1875
2208.60037	4183.3875
2211.52341	4184.7875
2214.44458	4182.1875
2217.36388	4155.0875
2220.28132	4141.8875
2223.1969	4130.4875
2226.11061	4112.1875
2229.02246	4106.5875
2231.93245	4098.1875
2234.84058	4107.1875
2237.74686	4106.2875
2240.65128	4096.4875
2243.55385	4076.2875
2246.45456	4084.1875
2249.35343	4066.4875
2252.25044	4068.9875
2255.14561	4075.4875
2258.03893	4083.1875
2260.93041	4049.0875
2263.82004	4042.8875
2266.70783	4048.9875
2269.59378	4037.1875
2272.4779	4010.0875
2275.36017	4008.4875
2278.24061	3983.6875
2281.11922	3974.5875
2283.996	3965.3875
2286.87094	3969.9875
2289.74405	3944.0875
2292.61534	3949.9875
2295.4848	3950.0875
2298.35243	3963.7875
2301.21824	3947.1875
2304.08223	3944.0875
2306.94439	3924.9875
2309.80474	3938.3875
2312.66327	3938.6875
2315.51999	3930.1875
2318.37489	3926.9875
2321.22797	3926.8875
2324.07925	3903.2875
2326.92871	3877.4875
2329.77637	3896.2875
2332.62222	3885.5875
2335.46626	3874.3875
2338.3085	3875.3875
2341.14893	3872.7875
2343.98756	3872.4875
2346.8244	3858.4875
2349.65943	3862.3875
2352.49267	3839.5875
2355.32411	3852.2875
2358.15376	3843.5875
2360.98161	3864.6875
2363.80768	3850.5875
2366.63195	3852.1875
2369.45444	3847.8875
2372.27514	3833.7875
2375.09405	3833.4875
2377.91118	3827.6875
2380.72652	3818.2875
2383.54009	3808.6875
2386.35187	3801.2875
2389.16188	3788.0875
2391.97011	3771.6875
2394.77657	3777.9875
2397.58125	3745.5875
2400.38416	3741.7875
2403.18529	3742.5875
2405.98466	3743.3875
2408.78226	3738.2875
2411.57809	3720.3875
2414.37216	3713.8875
2417.16446	3710.3875
2419.955	3702.6875
2422.74378	3706.8875
2425.5308	3703.8875
2428.31606	3702.4875
2431.09956	3690.3875
2433.88131	3691.8875
2436.6613	3685.4875
2439.43954	3679.4875
2442.21603	3694.6875
2444.99077	3685.3875
2447.76377	3676.2875
2450.53501	3683.0875
2453.30451	3680.4875
2456.07226	3667.5875
2458.83827	3663.4875
2461.60254	3664.6875
2464.36507	3644.0875
2467.12586	3642.1875
2469.88492	3646.9875
2472.64224	3654.4875
2475.39782	3638.4875
2478.15167	3635.7875
2480.90379	3631.9875
2483.65417	3641.6875
2486.40283	3639.0875
2489.14976	3638.2875
2491.89497	3635.9875
2494.63845	3640.9875
2497.3802	3622.5875
2500.12024	3629.6875
2502.85855	3611.6875
2505.59514	3612.3875
2508.33002	3601.6875
2511.06318	3598.4875
2513.79462	3579.4875
2516.52435	3572.0875
2519.25237	3565.4875
2521.97867	3548.7875
2524.70327	3552.6875
2527.42616	3544.5875
2530.14734	3554.9875
2532.86681	3545.9875
2535.58458	3538.7875
2538.30065	3550.1875
2541.01501	3536.4875
2543.72768	3547.0875
2546.43864	3535.1875
2549.14791	3509.9875
2551.85548	3514.6875
2554.56136	3511.4875
2557.26554	3509.7875
2559.96803	3494.0875
2562.66883	3485.2875
2565.36794	3482.5875
2568.06536	3473.9875
2570.7611	3477.0875
2573.45514	3464.8875
2576.14751	3444.9875
2578.83819	3440.0875
2581.52719	3424.5875
2584.21451	3411.8875
2586.90015	3424.8875
2589.58411	3420.8875
2592.2664	3403.5875
2594.94701	3400.8875
2597.62594	3405.6875
2600.30321	3398.1875
2602.9788	3378.4875
2605.65273	3376.5875
2608.32498	3375.8875
2610.99557	3386.1875
2613.66449	3382.7875
2616.33175	3380.7875
2618.99734	3373.9875
2621.66128	3362.6875
2624.32355	3367.3875
2626.98416	3360.2875
2629.64311	3343.3875
2632.30041	3328.9875
2634.95605	3333.6875
2637.61004	3308.7875
2640.26238	3317.1875
2642.91306	3304.8875
2645.56209	3292.0875
2648.20948	3298.3875
2650.85521	3292.6875
2653.4993	3301.5875
2656.14175	3304.0875
2658.78255	3295.7875
2661.42171	3294.3875
2664.05923	3302.7875
2666.6951	3308.8875
2669.32934	3303.0875
2671.96194	3290.2875
2674.59291	3290.4875
2677.22224	3283.1875
2679.84993	3302.4875
2682.476	3274.7875
2685.10043	3278.9875
2687.72324	3278.4875
2690.34441	3270.2875
2692.96396	3281.2875
2695.58188	3274.2875
2698.19818	3271.3875
2700.81285	3274.0875
2703.4259	3270.4875
2706.03733	3295.0875
2708.64714	3282.4875
2711.25533	3261.0875
2713.86191	3257.9875
2716.46687	3258.1875
2719.07021	3259.9875
2721.67194	3261.6875
2724.27206	3262.1875
2726.87057	3248.7875
2729.46747	3256.9875
2732.06276	3248.7875
2734.65644	3250.3875
2737.24852	3253.1875
2739.83899	3249.4875
2742.42786	3240.6875
2745.01513	3236.0875
2747.60079	3233.3875
2750.18486	3240.9875
2752.76733	3228.6875
2755.3482	3215.4875
2757.92747	3191.2875
2760.50515	3197.1875
2763.08123	3206.0875
2765.65573	3178.3875
2768.22863	3169.7875
2770.79994	3164.6875
2773.36967	3167.3875
2775.9378	3174.4875
2778.50435	3168.1875
2781.06932	3165.5875
2783.6327	3159.8875
2786.1945	3155.7875
2788.75471	3153.5875
2791.31335	3140.9875
2793.87041	3130.9875
2796.42589	3142.0875
2798.97979	3133.6875
2801.53212	3119.3875
2804.08288	3125.6875
2806.63206	3109.2875
2809.17967	3107.0875
2811.72571	3088.1875
2814.27018	3097.3875
2816.81308	3087.2875
2819.35442	3095.4875
2821.89419	3067.9875
2824.43239	3055.1875
2826.96904	3065.1875
2829.50412	3068.1875
2832.03763	3051.5875
2834.56959	3048.3875
2837.1	3032.2875
2839.62884	3019.3875
2842.15613	3022.2875
2844.68186	3034.6875
2847.20604	3016.9875
2849.72867	3007.8875
2852.24974	3014.8875
2854.76927	3005.4875
2857.28724	2986.6875
2859.80367	2993.2875
2862.31855	2986.5875
2864.83189	2986.5875
2867.34368	2989.3875
2869.85393	2995.1875
2872.36264	2976.1875
2874.8698	2980.0875
2877.37543	2979.0875
2879.87952	2970.0875
2882.38207	2962.7875
2884.88308	2959.9875
2887.38256	2965.3875
2889.88051	2947.6875
2892.37692	2948.1875
2894.8718	2929.1875
2897.36515	2929.2875
2899.85698	2939.5875
2902.34727	2938.1875
2904.83604	2949.8875
2907.32328	2954.5875
2909.809	2946.5875
2912.29319	2948.3875
2914.77587	2963.1875
2917.25702	2952.3875
2919.73665	2953.3875
2922.21476	2946.3875
2924.69136	2950.1875
2927.16644	2945.3875
2929.64	2938.6875
2932.11205	2929.5875
2934.58258	2918.9875
2937.05161	2923.9875
2939.51912	2929.3875
2941.98513	2900.9875
2944.44962	2913.6875
2946.91261	2898.5875
2949.37409	2906.4875
2951.83407	2897.1875
2954.29254	2903.9875
2956.74951	2898.0875
2959.20498	2898.1875
2961.65895	2889.9875
2964.11142	2874.4875
2966.56239	2860.4875
2969.01186	2877.1875
2971.45984	2875.4875
2973.90632	2879.7875
2976.35131	2857.5875
2978.7948	2872.9875
2981.23681	2862.0875
2983.67732	2860.2875
2986.11635	2856.7875
2988.55388	2828.7875
2990.98993	2837.7875
2993.4245	2834.0875
2995.85758	2829.6875
2998.28917	2822.9875
3000.71928	2816.4875
3003.14791	2803.1875
3005.57506	2808.5875
3008.00073	2786.8875
3010.42493	2776.9875
3012.84764	2791.6875
3015.26888	2771.8875
3017.68865	2769.5875
3020.10694	2753.2875
3022.52376	2750.8875
3024.9391	2743.9875
3027.35298	2737.2875
3029.76539	2730.4875
3032.17632	2726.7875
3034.5858	2720.2875
3036.9938	2707.7875
3039.40034	2712.6875
3041.80542	2707.2875
3044.20903	2700.7875
3046.61118	2696.2875
3049.01187	2683.5875
3051.4111	2686.9875
3053.80888	2678.2875
3056.20519	2670.5875
3058.60005	2662.3875
3060.99345	2667.8875
3063.3854	2656.6875
3065.7759	2651.7875
3068.16494	2631.0875
3070.55254	2628.7875
3072.93868	2628.3875
3075.32338	2613.0875
3077.70662	2615.2875
3080.08842	2603.5875
3082.46878	2601.3875
3084.84769	2581.9875
3087.22515	2575.6875
3089.60118	2584.3875
3091.97576	2588.0875
3094.3489	2569.7875
3096.72061	2581.6875
3099.09087	2577.6875
3101.4597	2576.2875
3103.82709	2564.5875
3106.19305	2561.4875
3108.55757	2559.6875
3110.92066	2554.7875
3113.28232	2551.8875
3115.64255	2547.2875
3118.00134	2544.9875
3120.35871	2536.1875
3122.71466	2520.2875
3125.06917	2519.5875
3127.42226	2521.5875
3129.77393	2520.4875
3132.12417	2517.2875
3134.47299	2508.3875
3136.82039	2502.5875
3139.16636	2509.8875
3141.51092	2492.7875
3143.85406	2505.8875
3146.19579	2481.3875
3148.53609	2492.2875
3150.87499	2498.1875
3153.21246	2497.7875
3155.54853	2498.8875
3157.88318	2500.8875
3160.21642	2486.9875
3162.54826	2488.8875
3164.87868	2491.4875
3167.2077	2480.5875
3169.5353	2480.0875
3171.86151	2486.6875
3174.18631	2486.2875
3176.5097	2466.4875
3178.83169	2472.8875
3181.15228	2451.6875
3183.47147	2460.2875
3185.78926	2445.4875
3188.10565	2443.3875
3190.42065	2444.4875
3192.73424	2430.0875
3195.04645	2429.4875
3197.35725	2429.4875
3199.66667	2420.8875
3201.97469	2417.2875
3204.28132	2428.7875
3206.58656	2426.9875
3208.8904	2427.4875
3211.19287	2437.1875
3213.49394	2434.2875
3215.79363	2428.9875
3218.09193	2428.9875
3220.38884	2432.7875
3222.68438	2424.7875
3224.97853	2419.3875
3227.2713	2406.5875
3229.56269	2403.9875
3231.8527	2403.4875
3234.14133	2398.8875
3236.42858	2393.9875
3238.71446	2389.3875
3240.99896	2376.9875
3243.28209	2375.2875
3245.56384	2373.9875
3247.84423	2364.2875
3250.12324	2372.9875
3252.40088	2365.1875
3254.67715	2351.9875
3256.95205	2354.5875
3259.22558	2349.5875
3261.49775	2352.3875
3263.76855	2346.3875
3266.03799	2350.2875
3268.30606	2348.3875
3270.57277	2340.8875
3272.83812	2325.5875
3275.10211	2329.3875
3277.36474	2323.2875
3279.62601	2329.0875
3281.88593	2317.9875
3284.14448	2301.2875
3286.40168	2314.1875
3288.65753	2311.8875
3290.91202	2311.0875
3293.16516	2296.5875
3295.41695	2288.8875
3297.66738	2283.8875
3299.91647	2276.1875
3302.16421	2245.6875
3304.4106	2248.6875
3306.65564	2237.4875
3308.89933	2222.5875
3311.14169	2194.2875
3313.38269	2175.4875
3315.62236	2167.1875
3317.86068	2135.9875
3320.09766	2127.7875
3322.3333	2104.9875
3324.5676	2091.9875
3326.80056	2063.9875
3329.03219	2050.2875
3331.26248	0.6875
3333.49143	-0.2125
3335.71905	-0.2125
