Data from AgNPs_UA_20uM_CRN_500uM_SU_RamanShift__41__13-43-20-299.txt Node

Date: Thu Aug 04 13:43:20 BST 2022
User: TCL
Spectrometer: QEP01345
Trigger mode: 4
Integration Time (sec): 1.000000E0
Scans to average: 10
Electric dark correction enabled: true
Nonlinearity correction enabled: false
Boxcar width: 0
XAxis mode: Raman Shifts
Number of Pixels in Spectrum: 1044
>>>>>Begin Spectral Data<<<<<
46.04893	-2.175
50.45542	-0.875
54.85868	0.425
59.25871	0.725
63.6555	18.425
68.04907	16.725
72.43941	20.625
76.82654	20.025
81.21044	19.225
85.59113	21.725
89.96862	22.225
94.34289	24.325
98.71396	23.225
103.08183	24.725
107.4465	24.025
111.80798	28.625
116.16626	26.625
120.52136	29.925
124.87327	28.625
129.222	35.125
133.56755	32.725
137.90993	34.625
142.24913	41.425
146.58517	47.825
150.91804	55.025
155.24774	66.825
159.57429	84.025
163.89768	110.925
168.21792	146.325
172.53501	202.625
176.84895	281.225
181.15975	403.125
185.46741	570.825
189.77193	796.425
194.07331	1066.525
198.37157	1375.225
202.6667	1706.925
206.9587	2031.225
211.24758	2365.425
215.53334	2688.425
219.81599	3056.225
224.09553	3448.925
228.37195	3886.225
232.64527	4345.725
236.91549	4809.525
241.18261	5243.825
245.44663	5610.625
249.70755	5906.825
253.96539	6150.125
258.22014	6379.225
262.4718	6555.825
266.72039	6693.025
270.96589	6730.925
275.20832	6713.925
279.44768	6637.025
283.68397	6509.725
287.91719	6430.825
292.14735	6435.925
296.37445	6518.325
300.59849	6687.825
304.81948	6889.825
309.03742	7096.125
313.25231	7166.725
317.46415	7107.125
321.67296	6873.025
325.87872	6619.325
330.08145	6509.325
334.28114	6518.225
338.47781	6586.825
342.67145	6726.825
346.86207	6892.125
351.04966	7140.125
355.23424	7388.725
359.4158	7596.625
363.59435	7701.725
367.76989	7738.425
371.94243	7748.925
376.11196	7752.225
380.27849	7738.125
384.44203	7761.325
388.60257	7811.225
392.76012	7863.925
396.91468	7954.425
401.06626	8066.825
405.21485	8120.025
409.36047	8006.625
413.50311	7801.225
417.64277	7587.525
421.77947	7480.125
425.9132	7405.325
430.04396	7394.925
434.17176	7422.025
438.2966	7533.325
442.41849	7646.625
446.53742	7817.425
450.6534	7975.225
454.76644	8067.625
458.87653	8105.825
462.98368	8120.725
467.08789	8083.625
471.18916	7978.625
475.2875	7826.025
479.38291	7685.925
483.4754	7591.725
487.56496	7561.325
491.6516	7504.125
495.73531	7499.525
499.81612	7518.725
503.89401	7590.825
507.96899	7635.925
512.04106	7682.825
516.11023	7727.325
520.1765	7778.225
524.23987	7789.125
528.30034	7758.425
532.35792	7763.225
536.41261	7667.425
540.46441	7616.525
544.51333	7591.625
548.55936	7652.425
552.60252	7734.125
556.64279	7844.825
560.6802	7940.125
564.71473	8043.325
568.7464	8102.625
572.7752	8071.825
576.80114	7909.725
580.82422	7751.325
584.84444	7687.925
588.86181	7730.525
592.87633	7782.025
596.888	7936.525
600.89682	8273.425
604.9028	9125.025
608.90594	10871.325
612.90624	12559.725
616.90371	11649.625
620.89834	9214.525
624.89015	8284.525
628.87913	8179.225
632.86528	8333.425
636.84862	8387.425
640.82913	8229.525
644.80683	7939.325
648.78172	7760.725
652.75379	7793.425
656.72306	8018.825
660.68952	8267.425
664.65319	8223.925
668.61405	8115.725
672.57211	8146.025
676.52738	8140.025
680.47986	7990.625
684.42955	7860.325
688.37646	7817.425
692.32058	7881.125
696.26192	8008.125
700.20048	8155.325
704.13626	8173.025
708.06928	8096.025
711.99952	8015.325
715.927	8015.025
719.85171	8046.725
723.77365	8058.125
727.69284	8008.525
731.60928	7932.025
735.52295	7945.025
739.43388	7967.025
743.34206	7999.025
747.24749	8027.325
751.15017	8031.025
755.05012	8094.225
758.94733	8356.325
762.8418	8978.925
766.73354	9894.725
770.62254	10656.125
774.50882	10848.225
778.39237	10529.325
782.27321	9858.525
786.15132	9057.325
790.02671	8529.125
793.89938	8245.525
797.76935	8107.825
801.6366	8032.225
805.50115	7997.725
809.36299	7965.325
813.22213	7967.125
817.07857	7973.325
820.93231	7959.725
824.78336	7983.425
828.63172	8021.225
832.47738	8002.625
836.32036	7991.925
840.16066	7977.225
843.99827	7989.125
847.8332	7999.425
851.66546	7994.325
855.49504	7999.425
859.32195	8021.525
863.1462	8025.225
866.96777	8013.325
870.78668	7996.425
874.60293	8025.425
878.41652	8039.125
882.22745	8112.525
886.03573	8142.925
889.84136	8148.425
893.64433	8114.625
897.44466	8085.125
901.24235	8076.325
905.0374	8052.025
908.8298	8022.025
912.61957	7997.425
916.40671	8014.425
920.19121	8066.025
923.97308	8100.525
927.75233	8181.925
931.52895	8233.525
935.30295	8179.925
939.07433	8061.425
942.84309	7962.125
946.60924	7934.425
950.37278	7915.425
954.13371	7912.925
957.89203	7901.725
961.64774	7897.825
965.40086	7875.625
969.15137	7871.125
972.89929	7853.825
976.64461	7867.525
980.38733	7892.025
984.12747	7897.925
987.86502	7922.225
991.59999	7992.025
995.33237	8065.625
999.06217	8159.525
1002.78939	8287.525
1006.51404	8392.325
1010.23611	8503.725
1013.95561	8577.225
1017.67255	8596.025
1021.38692	8583.925
1025.09872	8559.525
1028.80796	8499.125
1032.51465	8505.525
1036.21877	8559.625
1039.92035	8572.625
1043.61937	8593.125
1047.31584	8558.525
1051.00976	8522.825
1054.70114	8507.025
1058.38998	8564.025
1062.07627	8596.925
1065.76003	8666.425
1069.44126	8738.825
1073.11995	8900.125
1076.79611	9036.125
1080.46974	9131.525
1084.14085	9214.425
1087.80943	9308.925
1091.47549	9350.925
1095.13903	9352.725
1098.80005	9305.625
1102.45857	9299.825
1106.11456	9256.525
1109.76805	9164.425
1113.41903	9150.525
1117.06751	9246.225
1120.71348	9394.325
1124.35696	9582.025
1127.99793	9683.025
1131.63641	9548.825
1135.2724	9282.625
1138.90589	9100.225
1142.5369	8939.125
1146.16542	8866.125
1149.79145	8803.425
1153.415	8753.425
1157.03607	8707.925
1160.65467	8796.825
1164.27079	8933.025
1167.88443	9167.725
1171.49561	9536.825
1175.10432	10109.825
1178.71056	10865.625
1182.31434	11561.725
1185.91565	11853.625
1189.51451	11804.725
1193.11091	11603.325
1196.70485	11292.025
1200.29634	11015.125
1203.88538	10704.525
1207.47197	10275.225
1211.05612	9940.225
1214.63782	9659.825
1218.21708	9466.525
1221.79391	9339.025
1225.36829	9316.225
1228.94024	9286.925
1232.50976	9267.925
1236.07685	9286.125
1239.6415	9304.425
1243.20374	9354.625
1246.76355	9400.625
1250.32093	9515.825
1253.8759	9660.725
1257.42845	9865.425
1260.97859	10165.425
1264.52631	10358.125
1268.07163	10530.025
1271.61453	10639.025
1275.15503	10689.925
1278.69312	10729.225
1282.22882	10724.625
1285.76211	10813.425
1289.29301	11005.625
1292.82151	11171.425
1296.34761	11419.925
1299.87133	11772.125
1303.39266	12356.825
1306.9116	13210.925
1310.42815	14084.125
1313.94233	14392.925
1317.45412	13979.225
1320.96354	13266.725
1324.47058	12569.225
1327.97525	11940.625
1331.47754	11617.225
1334.97747	11579.925
1338.47502	11747.225
1341.97022	12158.925
1345.46305	12752.725
1348.95352	13590.825
1352.44163	14436.325
1355.92738	15348.525
1359.41078	16406.625
1362.89183	17179.925
1366.37053	16417.925
1369.84688	14349.125
1373.32088	12482.125
1376.79254	11409.625
1380.26186	10853.925
1383.72883	10558.725
1387.19347	10276.725
1390.65578	10003.425
1394.11575	9740.325
1397.57339	9565.425
1401.0287	9466.925
1404.48168	9446.925
1407.93234	9478.625
1411.38068	9638.025
1414.82669	9790.525
1418.27039	9851.225
1421.71177	9809.925
1425.15083	9733.725
1428.58758	9703.325
1432.02203	9755.325
1435.45416	9814.925
1438.88399	9816.825
1442.31151	9788.025
1445.73673	9759.325
1449.15965	9754.725
1452.58027	9701.125
1455.9986	9631.325
1459.41463	9627.325
1462.82837	9694.325
1466.23982	9830.325
1469.64898	10028.925
1473.05586	10150.525
1476.46045	10259.025
1479.86276	10344.425
1483.26279	10483.025
1486.66054	10660.925
1490.05602	10970.225
1493.44922	11463.625
1496.84016	12126.225
1500.22882	13095.425
1503.61521	14318.025
1506.99934	15398.025
1510.38121	16017.025
1513.76081	15717.125
1517.13816	14637.025
1520.51324	13216.725
1523.88607	12049.525
1527.25665	11352.325
1530.62498	10961.325
1533.99105	10771.725
1537.35488	10658.125
1540.71647	10580.725
1544.07581	10495.025
1547.4329	10410.925
1550.78776	10325.625
1554.14038	10254.325
1557.49077	10260.125
1560.83892	10323.725
1564.18484	10547.125
1567.52853	10800.725
1570.86999	10937.725
1574.20922	10995.725
1577.54624	10854.825
1580.88103	10476.325
1584.2136	10030.525
1587.54395	9797.525
1590.87208	9860.125
1594.19801	10179.025
1597.52172	10615.125
1600.84321	10838.225
1604.16251	10777.225
1607.47959	10541.825
1610.79447	10200.225
1614.10715	9746.125
1617.41763	9296.225
1620.7259	8981.525
1624.03199	8795.025
1627.33587	8770.525
1630.63757	8880.325
1633.93707	9144.225
1637.23439	9647.525
1640.52951	10413.325
1643.82246	11402.025
1647.11321	12384.225
1650.40179	12764.425
1653.68819	12160.325
1656.97241	10904.925
1660.25446	9684.525
1663.53433	8820.325
1666.81203	8311.625
1670.08756	8050.925
1673.36092	7888.425
1676.63211	7771.225
1679.90115	7676.625
1683.16801	7595.225
1686.43272	7542.125
1689.69527	7496.625
1692.95567	7490.425
1696.2139	7462.825
1699.46999	7406.225
1702.72392	7407.825
1705.97571	7424.425
1709.22535	7419.225
1712.47284	7411.225
1715.71819	7397.125
1718.96139	7390.325
1722.20246	7372.925
1725.44139	7353.625
1728.67818	7323.325
1731.91284	7283.325
1735.14537	7252.625
1738.37576	7229.725
1741.60403	7217.825
1744.83017	7192.825
1748.05418	7180.425
1751.27607	7163.825
1754.49584	7147.425
1757.71349	7114.925
1760.92903	7117.825
1764.14244	7111.225
1767.35375	7092.325
1770.56294	7090.725
1773.77002	7075.325
1776.97499	7072.425
1780.17785	7033.325
1783.37861	7025.325
1786.57727	7008.725
1789.77382	7003.225
1792.96828	6958.625
1796.16064	6966.025
1799.3509	6965.225
1802.53907	6947.625
1805.72514	6933.725
1808.90913	6919.625
1812.09102	6904.125
1815.27083	6898.925
1818.44856	6858.425
1821.6242	6836.125
1824.79776	6858.425
1827.96924	6831.925
1831.13864	6817.025
1834.30597	6815.325
1837.47122	6818.925
1840.6344	6791.425
1843.7955	6766.225
1846.95454	6768.825
1850.11151	6768.425
1853.26642	6755.825
1856.41926	6759.725
1859.57004	6751.925
1862.71876	6742.725
1865.86542	6742.225
1869.01003	6721.825
1872.15258	6723.125
1875.29308	6712.825
1878.43152	6715.125
1881.56792	6704.625
1884.70227	6699.025
1887.83457	6689.625
1890.96482	6695.625
1894.09304	6678.025
1897.21921	6635.825
1900.34335	6635.925
1903.46544	6638.025
1906.58551	6635.125
1909.70353	6635.525
1912.81953	6620.225
1915.93349	6608.225
1919.04543	6587.825
1922.15534	6577.225
1925.26322	6567.525
1928.36908	6551.025
1931.47292	6520.925
1934.57473	6508.325
1937.67453	6509.925
1940.77232	6511.325
1943.86808	6475.925
1946.96184	6452.525
1950.05358	6448.225
1953.14331	6421.325
1956.23103	6394.425
1959.31675	6371.525
1962.40046	6367.525
1965.48217	6339.825
1968.56188	6313.525
1971.63959	6302.325
1974.7153	6299.025
1977.78901	6284.025
1980.86073	6250.125
1983.93046	6225.425
1986.99819	6202.025
1990.06394	6195.125
1993.1277	6178.125
1996.18947	6159.525
1999.24925	6126.225
2002.30706	6122.625
2005.36288	6075.625
2008.41672	6053.025
2011.46859	6025.525
2014.51848	6024.625
2017.56639	6010.625
2020.61233	6003.525
2023.6563	5975.825
2026.6983	5955.125
2029.73833	5946.225
2032.7764	5935.225
2035.8125	5933.825
2038.84664	5901.625
2041.87881	5895.425
2044.90903	5885.525
2047.93729	5865.625
2050.96359	5876.725
2053.98794	5858.425
2057.01034	5852.525
2060.03078	5839.025
2063.04927	5814.025
2066.06582	5816.725
2069.08042	5839.925
2072.09307	5804.825
2075.10378	5802.825
2078.11255	5795.225
2081.11938	5784.925
2084.12426	5780.125
2087.12722	5779.825
2090.12824	5783.625
2093.12732	5797.125
2096.12447	5786.825
2099.11969	5781.925
2102.11299	5791.325
2105.10435	5794.225
2108.09379	5782.425
2111.08131	5791.125
2114.0669	5769.525
2117.05057	5797.325
2120.03233	5774.325
2123.01216	5785.425
2125.99008	5802.125
2128.96609	5806.825
2131.94018	5806.025
2134.91236	5794.125
2137.88263	5795.025
2140.851	5798.025
2143.81746	5792.625
2146.78201	5801.225
2149.74466	5791.525
2152.7054	5780.725
2155.66425	5783.025
2158.6212	5813.525
2161.57625	5793.725
2164.52941	5788.725
2167.48067	5780.825
2170.43004	5762.725
2173.37752	5777.925
2176.32311	5773.225
2179.26681	5777.525
2182.20863	5780.125
2185.14856	5756.925
2188.08661	5777.425
2191.02278	5773.325
2193.95707	5759.725
2196.88948	5759.725
2199.82001	5740.225
2202.74867	5754.625
2205.67545	5746.925
2208.60037	5743.325
2211.52341	5728.025
2214.44458	5698.925
2217.36388	5690.225
2220.28132	5658.625
2223.1969	5643.325
2226.11061	5654.825
2229.02246	5644.725
2231.93245	5626.425
2234.84058	5616.625
2237.74686	5604.325
2240.65128	5597.925
2243.55385	5596.525
2246.45456	5592.825
2249.35343	5581.325
2252.25044	5587.525
2255.14561	5575.025
2258.03893	5560.725
2260.93041	5550.925
2263.82004	5537.325
2266.70783	5523.025
2269.59378	5513.125
2272.4779	5504.625
2275.36017	5479.425
2278.24061	5452.825
2281.11922	5447.625
2283.996	5425.525
2286.87094	5431.925
2289.74405	5401.725
2292.61534	5418.225
2295.4848	5400.125
2298.35243	5410.625
2301.21824	5402.425
2304.08223	5394.725
2306.94439	5403.325
2309.80474	5386.325
2312.66327	5379.425
2315.51999	5374.625
2318.37489	5373.225
2321.22797	5365.625
2324.07925	5344.125
2326.92871	5324.625
2329.77637	5331.725
2332.62222	5317.225
2335.46626	5309.525
2338.3085	5299.325
2341.14893	5303.625
2343.98756	5290.225
2346.8244	5300.125
2349.65943	5285.025
2352.49267	5294.325
2355.32411	5277.325
2358.15376	5272.425
2360.98161	5275.325
2363.80768	5273.325
2366.63195	5265.025
2369.45444	5260.525
2372.27514	5252.225
2375.09405	5255.025
2377.91118	5264.925
2380.72652	5230.925
2383.54009	5208.225
2386.35187	5199.025
2389.16188	5178.725
2391.97011	5179.425
2394.77657	5169.725
2397.58125	5145.825
2400.38416	5135.125
2403.18529	5144.025
2405.98466	5132.225
2408.78226	5122.825
2411.57809	5108.725
2414.37216	5105.425
2417.16446	5076.225
2419.955	5087.025
2422.74378	5086.625
2425.5308	5083.725
2428.31606	5070.725
2431.09956	5058.125
2433.88131	5064.525
2436.6613	5061.425
2439.43954	5051.825
2442.21603	5054.825
2444.99077	5048.925
2447.76377	5045.225
2450.53501	5028.225
2453.30451	5044.825
2456.07226	5016.825
2458.83827	5014.025
2461.60254	5007.125
2464.36507	4995.525
2467.12586	4989.925
2469.88492	4992.825
2472.64224	4998.325
2475.39782	4993.325
2478.15167	4990.225
2480.90379	4960.825
2483.65417	4992.425
2486.40283	4980.125
2489.14976	4979.325
2491.89497	4986.525
2494.63845	4968.825
2497.3802	4959.925
2500.12024	4976.425
2502.85855	4945.725
2505.59514	4926.125
2508.33002	4912.325
2511.06318	4907.925
2513.79462	4891.925
2516.52435	4889.225
2519.25237	4891.625
2521.97867	4878.925
2524.70327	4874.125
2527.42616	4871.425
2530.14734	4849.925
2532.86681	4851.325
2535.58458	4851.325
2538.30065	4834.625
2541.01501	4832.025
2543.72768	4842.825
2546.43864	4831.425
2549.14791	4826.625
2551.85548	4835.525
2554.56136	4816.825
2557.26554	4815.325
2559.96803	4791.125
2562.66883	4773.525
2565.36794	4767.125
2568.06536	4775.225
2570.7611	4731.125
2573.45514	4740.625
2576.14751	4730.125
2578.83819	4724.225
2581.52719	4713.725
2584.21451	4698.225
2586.90015	4684.425
2589.58411	4675.525
2592.2664	4687.425
2594.94701	4676.525
2597.62594	4664.925
2600.30321	4664.825
2602.9788	4644.725
2605.65273	4653.225
2608.32498	4639.225
2610.99557	4636.925
2613.66449	4626.025
2616.33175	4610.825
2618.99734	4605.925
2621.66128	4600.925
2624.32355	4599.725
2626.98416	4609.425
2629.64311	4602.225
2632.30041	4582.725
2634.95605	4578.425
2637.61004	4579.325
2640.26238	4572.525
2642.91306	4544.225
2645.56209	4537.425
2648.20948	4545.325
2650.85521	4540.825
2653.4993	4525.025
2656.14175	4507.925
2658.78255	4532.425
2661.42171	4529.825
2664.05923	4525.125
2666.6951	4565.425
2669.32934	4556.825
2671.96194	4544.125
2674.59291	4520.625
2677.22224	4522.025
2679.84993	4542.125
2682.476	4515.725
2685.10043	4530.725
2687.72324	4501.425
2690.34441	4515.625
2692.96396	4526.025
2695.58188	4505.225
2698.19818	4506.825
2700.81285	4516.525
2703.4259	4519.925
2706.03733	4515.125
2708.64714	4498.025
2711.25533	4483.925
2713.86191	4492.625
2716.46687	4503.925
2719.07021	4493.325
2721.67194	4499.825
2724.27206	4491.025
2726.87057	4503.025
2729.46747	4500.425
2732.06276	4496.525
2734.65644	4488.825
2737.24852	4470.125
2739.83899	4464.925
2742.42786	4475.025
2745.01513	4485.325
2747.60079	4465.925
2750.18486	4457.325
2752.76733	4448.725
2755.3482	4429.325
2757.92747	4426.325
2760.50515	4410.525
2763.08123	4399.525
2765.65573	4395.825
2768.22863	4385.825
2770.79994	4393.025
2773.36967	4384.625
2775.9378	4391.325
2778.50435	4382.625
2781.06932	4376.425
2783.6327	4360.425
2786.1945	4345.925
2788.75471	4355.725
2791.31335	4336.625
2793.87041	4332.925
2796.42589	4328.325
2798.97979	4322.025
2801.53212	4302.725
2804.08288	4302.225
2806.63206	4309.425
2809.17967	4281.225
2811.72571	4272.925
2814.27018	4279.925
2816.81308	4259.925
2819.35442	4260.125
2821.89419	4234.225
2824.43239	4234.725
2826.96904	4218.625
2829.50412	4240.725
2832.03763	4204.425
2834.56959	4230.925
2837.1	4194.425
2839.62884	4178.125
2842.15613	4191.525
2844.68186	4200.925
2847.20604	4184.525
2849.72867	4176.825
2852.24974	4155.525
2854.76927	4143.025
2857.28724	4140.725
2859.80367	4131.225
2862.31855	4131.725
2864.83189	4125.425
2867.34368	4125.025
2869.85393	4104.925
2872.36264	4087.025
2874.8698	4109.225
2877.37543	4104.525
2879.87952	4097.925
2882.38207	4098.825
2884.88308	4083.725
2887.38256	4080.425
2889.88051	4075.725
2892.37692	4075.925
2894.8718	4074.225
2897.36515	4064.025
2899.85698	4066.125
2902.34727	4083.025
2904.83604	4079.625
2907.32328	4064.325
2909.809	4082.425
2912.29319	4076.825
2914.77587	4076.725
2917.25702	4076.025
2919.73665	4074.525
2922.21476	4080.825
2924.69136	4060.025
2927.16644	4064.125
2929.64	4057.525
2932.11205	4055.125
2934.58258	4019.325
2937.05161	4021.925
2939.51912	4024.125
2941.98513	4025.225
2944.44962	4014.425
2946.91261	4004.125
2949.37409	4016.125
2951.83407	4005.525
2954.29254	4005.025
2956.74951	4002.625
2959.20498	3989.225
2961.65895	3987.225
2964.11142	3988.725
2966.56239	3964.425
2969.01186	3983.425
2971.45984	3978.125
2973.90632	3983.025
2976.35131	3967.825
2978.7948	3952.125
2981.23681	3943.725
2983.67732	3940.325
2986.11635	3949.225
2988.55388	3930.425
2990.98993	3920.725
2993.4245	3922.425
2995.85758	3906.425
2998.28917	3896.025
3000.71928	3890.525
3003.14791	3889.025
3005.57506	3863.725
3008.00073	3855.325
3010.42493	3840.525
3012.84764	3828.925
3015.26888	3822.125
3017.68865	3822.725
3020.10694	3814.425
3022.52376	3801.725
3024.9391	3792.625
3027.35298	3780.125
3029.76539	3770.525
3032.17632	3769.325
3034.5858	3766.325
3036.9938	3755.725
3039.40034	3759.025
3041.80542	3733.925
3044.20903	3729.825
3046.61118	3731.925
3049.01187	3705.225
3051.4111	3697.925
3053.80888	3696.525
3056.20519	3698.725
3058.60005	3679.425
3060.99345	3667.125
3063.3854	3675.925
3065.7759	3665.325
3068.16494	3663.425
3070.55254	3645.625
3072.93868	3623.425
3075.32338	3626.825
3077.70662	3611.025
3080.08842	3587.025
3082.46878	3589.125
3084.84769	3576.525
3087.22515	3576.825
3089.60118	3586.425
3091.97576	3585.125
3094.3489	3572.125
3096.72061	3559.625
3099.09087	3560.225
3101.4597	3566.125
3103.82709	3569.525
3106.19305	3533.725
3108.55757	3547.625
3110.92066	3540.125
3113.28232	3537.625
3115.64255	3512.325
3118.00134	3513.725
3120.35871	3509.225
3122.71466	3507.625
3125.06917	3503.925
3127.42226	3478.825
3129.77393	3481.125
3132.12417	3479.325
3134.47299	3459.525
3136.82039	3459.225
3139.16636	3447.025
3141.51092	3440.425
3143.85406	3447.525
3146.19579	3442.725
3148.53609	3455.425
3150.87499	3449.925
3153.21246	3446.725
3155.54853	3450.725
3157.88318	3443.825
3160.21642	3448.425
3162.54826	3445.625
3164.87868	3422.725
3167.2077	3430.825
3169.5353	3414.325
3171.86151	3420.425
3174.18631	3413.525
3176.5097	3414.025
3178.83169	3388.125
3181.15228	3392.225
3183.47147	3387.925
3185.78926	3372.025
3188.10565	3373.625
3190.42065	3363.425
3192.73424	3355.325
3195.04645	3347.025
3197.35725	3342.025
3199.66667	3328.925
3201.97469	3353.425
3204.28132	3337.625
3206.58656	3343.725
3208.8904	3330.425
3211.19287	3329.325
3213.49394	3344.025
3215.79363	3322.525
3218.09193	3331.125
3220.38884	3333.525
3222.68438	3325.125
3224.97853	3338.525
3227.2713	3328.025
3229.56269	3309.625
3231.8527	3310.725
3234.14133	3305.225
3236.42858	3283.425
3238.71446	3286.925
3240.99896	3288.125
3243.28209	3269.025
3245.56384	3275.825
3247.84423	3275.425
3250.12324	3249.325
3252.40088	3247.925
3254.67715	3251.525
3256.95205	3250.225
3259.22558	3243.125
3261.49775	3227.025
3263.76855	3243.525
3266.03799	3240.825
3268.30606	3240.525
3270.57277	3233.425
3272.83812	3232.525
3275.10211	3222.725
3277.36474	3204.625
3279.62601	3192.225
3281.88593	3181.025
3284.14448	3184.925
3286.40168	3190.625
3288.65753	3184.425
3290.91202	3171.325
3293.16516	3165.625
3295.41695	3157.625
3297.66738	3153.725
3299.91647	3130.825
3302.16421	3101.725
3304.4106	3096.725
3306.65564	3082.925
3308.89933	3047.925
3311.14169	3034.525
3313.38269	2995.125
3315.62236	2970.825
3317.86068	2965.425
3320.09766	2922.825
3322.3333	2913.325
3324.5676	2889.825
3326.80056	2853.025
3329.03219	2830.425
3331.26248	2.325
3333.49143	0.325
3335.71905	-1.375
