Data from AgNPs_UA_10uM_CRN_500uM_SU_RamanShift__20__13-08-40-257.txt Node

Date: Thu Aug 04 13:08:40 BST 2022
User: TCL
Spectrometer: QEP01345
Trigger mode: 4
Integration Time (sec): 1.000000E0
Scans to average: 10
Electric dark correction enabled: true
Nonlinearity correction enabled: false
Boxcar width: 0
XAxis mode: Raman Shifts
Number of Pixels in Spectrum: 1044
>>>>>Begin Spectral Data<<<<<
46.04893	0.4875
50.45542	-0.2125
54.85868	0.1875
59.25871	-0.6125
63.6555	16.9875
68.04907	18.1875
72.43941	19.5875
76.82654	18.8875
81.21044	18.9875
85.59113	21.2875
89.96862	20.1875
94.34289	21.8875
98.71396	23.4875
103.08183	25.4875
107.4465	24.3875
111.80798	22.4875
116.16626	24.7875
120.52136	28.9875
124.87327	31.4875
129.222	30.5875
133.56755	32.1875
137.90993	35.5875
142.24913	38.5875
146.58517	45.2875
150.91804	52.2875
155.24774	66.6875
159.57429	80.6875
163.89768	104.3875
168.21792	141.3875
172.53501	194.3875
176.84895	272.3875
181.15975	387.7875
185.46741	552.5875
189.77193	771.7875
194.07331	1042.3875
198.37157	1351.8875
202.6667	1665.9875
206.9587	1987.4875
211.24758	2324.0875
215.53334	2653.8875
219.81599	3005.1875
224.09553	3403.6875
228.37195	3847.2875
232.64527	4296.1875
236.91549	4765.3875
241.18261	5187.7875
245.44663	5481.9875
249.70755	5732.8875
253.96539	5965.7875
258.22014	6137.5875
262.4718	6286.4875
266.72039	6365.8875
270.96589	6390.5875
275.20832	6330.5875
279.44768	6227.9875
283.68397	6137.2875
287.91719	6072.2875
292.14735	6103.0875
296.37445	6198.9875
300.59849	6396.3875
304.81948	6678.1875
309.03742	6918.4875
313.25231	7071.5875
317.46415	7007.3875
321.67296	6758.8875
325.87872	6463.2875
330.08145	6299.0875
334.28114	6292.1875
338.47781	6328.5875
342.67145	6455.7875
346.86207	6661.5875
351.04966	6964.8875
355.23424	7236.8875
359.4158	7459.5875
363.59435	7526.6875
367.76989	7505.6875
371.94243	7458.9875
376.11196	7404.6875
380.27849	7402.0875
384.44203	7414.9875
388.60257	7423.6875
392.76012	7483.5875
396.91468	7591.0875
401.06626	7736.8875
405.21485	7754.0875
409.36047	7665.8875
413.50311	7416.6875
417.64277	7187.6875
421.77947	7050.3875
425.9132	6966.2875
430.04396	6939.4875
434.17176	6970.3875
438.2966	7033.8875
442.41849	7145.0875
446.53742	7290.3875
450.6534	7413.0875
454.76644	7511.4875
458.87653	7555.4875
462.98368	7572.4875
467.08789	7547.8875
471.18916	7446.4875
475.2875	7281.9875
479.38291	7130.7875
483.4754	7065.2875
487.56496	6985.2875
491.6516	6972.9875
495.73531	6980.1875
499.81612	7013.8875
503.89401	7097.2875
507.96899	7131.4875
512.04106	7184.7875
516.11023	7247.4875
520.1765	7277.2875
524.23987	7287.5875
528.30034	7269.3875
532.35792	7233.7875
536.41261	7191.4875
540.46441	7098.3875
544.51333	7083.9875
548.55936	7140.4875
552.60252	7221.2875
556.64279	7351.5875
560.6802	7453.6875
564.71473	7550.0875
568.7464	7650.3875
572.7752	7594.9875
576.80114	7360.6875
580.82422	7193.2875
584.84444	7124.9875
588.86181	7107.8875
592.87633	7133.4875
596.888	7250.5875
600.89682	7619.7875
604.9028	8528.3875
608.90594	10406.3875
612.90624	12253.9875
616.90371	11314.0875
620.89834	8744.9875
624.89015	7681.4875
628.87913	7596.6875
632.86528	7761.0875
636.84862	7855.0875
640.82913	7685.5875
644.80683	7376.2875
648.78172	7211.2875
652.75379	7214.8875
656.72306	7438.8875
660.68952	7670.2875
664.65319	7606.6875
668.61405	7502.7875
672.57211	7554.6875
676.52738	7547.6875
680.47986	7369.7875
684.42955	7211.7875
688.37646	7148.0875
692.32058	7216.0875
696.26192	7365.3875
700.20048	7470.4875
704.13626	7496.9875
708.06928	7432.2875
711.99952	7345.2875
715.927	7354.6875
719.85171	7360.2875
723.77365	7404.5875
727.69284	7350.9875
731.60928	7301.1875
735.52295	7300.3875
739.43388	7336.2875
743.34206	7357.1875
747.24749	7338.7875
751.15017	7336.8875
755.05012	7430.4875
758.94733	7710.5875
762.8418	8437.7875
766.73354	9491.3875
770.62254	10271.9875
774.50882	10400.3875
778.39237	10079.5875
782.27321	9416.4875
786.15132	8559.1875
790.02671	7938.5875
793.89938	7609.0875
797.76935	7453.4875
801.6366	7395.1875
805.50115	7315.0875
809.36299	7285.7875
813.22213	7296.1875
817.07857	7302.4875
820.93231	7289.2875
824.78336	7308.8875
828.63172	7313.5875
832.47738	7324.3875
836.32036	7317.7875
840.16066	7280.6875
843.99827	7274.2875
847.8332	7281.8875
851.66546	7297.7875
855.49504	7302.8875
859.32195	7309.6875
863.1462	7305.5875
866.96777	7298.3875
870.78668	7305.6875
874.60293	7321.0875
878.41652	7372.3875
882.22745	7424.6875
886.03573	7466.4875
889.84136	7453.4875
893.64433	7439.3875
897.44466	7441.3875
901.24235	7395.5875
905.0374	7391.8875
908.8298	7352.2875
912.61957	7344.7875
916.40671	7353.3875
920.19121	7350.1875
923.97308	7387.1875
927.75233	7473.1875
931.52895	7537.3875
935.30295	7469.6875
939.07433	7367.0875
942.84309	7285.9875
946.60924	7252.0875
950.37278	7251.6875
954.13371	7229.8875
957.89203	7236.7875
961.64774	7224.2875
965.40086	7225.8875
969.15137	7219.1875
972.89929	7220.4875
976.64461	7205.6875
980.38733	7211.0875
984.12747	7245.0875
987.86502	7256.0875
991.59999	7277.7875
995.33237	7330.6875
999.06217	7381.6875
1002.78939	7462.2875
1006.51404	7618.5875
1010.23611	7732.3875
1013.95561	7812.9875
1017.67255	7836.5875
1021.38692	7791.3875
1025.09872	7758.4875
1028.80796	7669.7875
1032.51465	7650.0875
1036.21877	7634.2875
1039.92035	7674.8875
1043.61937	7713.1875
1047.31584	7769.5875
1051.00976	7778.6875
1054.70114	7794.8875
1058.38998	7797.8875
1062.07627	7847.7875
1065.76003	7925.7875
1069.44126	8004.1875
1073.11995	8154.9875
1076.79611	8303.3875
1080.46974	8432.9875
1084.14085	8535.6875
1087.80943	8616.6875
1091.47549	8652.3875
1095.13903	8666.2875
1098.80005	8709.9875
1102.45857	8796.1875
1106.11456	8766.9875
1109.76805	8591.7875
1113.41903	8538.1875
1117.06751	8674.4875
1120.71348	8837.7875
1124.35696	9027.6875
1127.99793	9182.8875
1131.63641	8996.0875
1135.2724	8708.8875
1138.90589	8483.6875
1142.5369	8330.0875
1146.16542	8262.6875
1149.79145	8186.1875
1153.415	8103.0875
1157.03607	8092.7875
1160.65467	8162.5875
1164.27079	8347.9875
1167.88443	8614.9875
1171.49561	8992.5875
1175.10432	9570.8875
1178.71056	10356.1875
1182.31434	10989.7875
1185.91565	11225.4875
1189.51451	11238.2875
1193.11091	11121.9875
1196.70485	10977.0875
1200.29634	10740.8875
1203.88538	10450.7875
1207.47197	10059.5875
1211.05612	9630.6875
1214.63782	9255.8875
1218.21708	8947.3875
1221.79391	8764.8875
1225.36829	8696.9875
1228.94024	8659.2875
1232.50976	8687.8875
1236.07685	8726.7875
1239.6415	8762.2875
1243.20374	8797.7875
1246.76355	8873.9875
1250.32093	8945.0875
1253.8759	9051.3875
1257.42845	9261.5875
1260.97859	9498.4875
1264.52631	9785.7875
1268.07163	9951.3875
1271.61453	10031.4875
1275.15503	10044.0875
1278.69312	10016.5875
1282.22882	9996.1875
1285.76211	10107.0875
1289.29301	10253.3875
1292.82151	10508.5875
1296.34761	10688.7875
1299.87133	10994.0875
1303.39266	11594.0875
1306.9116	12484.1875
1310.42815	13442.0875
1313.94233	13794.6875
1317.45412	13278.7875
1320.96354	12500.9875
1324.47058	11769.7875
1327.97525	11178.7875
1331.47754	10825.5875
1334.97747	10715.0875
1338.47502	10821.5875
1341.97022	11223.6875
1345.46305	11925.2875
1348.95352	12997.5875
1352.44163	14220.0875
1355.92738	15388.4875
1359.41078	16568.9875
1362.89183	17437.8875
1366.37053	16580.3875
1369.84688	14197.3875
1373.32088	12068.1875
1376.79254	10858.7875
1380.26186	10301.3875
1383.72883	9946.1875
1387.19347	9600.8875
1390.65578	9258.1875
1394.11575	8997.4875
1397.57339	8814.7875
1401.0287	8717.3875
1404.48168	8714.5875
1407.93234	8754.7875
1411.38068	8890.7875
1414.82669	9010.8875
1418.27039	9049.2875
1421.71177	9057.4875
1425.15083	8957.9875
1428.58758	8844.6875
1432.02203	8832.4875
1435.45416	8845.8875
1438.88399	8847.4875
1442.31151	8813.4875
1445.73673	8875.6875
1449.15965	8888.0875
1452.58027	8883.2875
1455.9986	8870.9875
1459.41463	8861.2875
1462.82837	8967.0875
1466.23982	9112.1875
1469.64898	9345.2875
1473.05586	9479.5875
1476.46045	9593.1875
1479.86276	9714.6875
1483.26279	9841.1875
1486.66054	10039.9875
1490.05602	10353.2875
1493.44922	10854.6875
1496.84016	11632.9875
1500.22882	12745.4875
1503.61521	14075.0875
1506.99934	15373.1875
1510.38121	16128.5875
1513.76081	15944.4875
1517.13816	14673.1875
1520.51324	13067.1875
1523.88607	11757.6875
1527.25665	10952.9875
1530.62498	10575.3875
1533.99105	10394.4875
1537.35488	10298.0875
1540.71647	10185.5875
1544.07581	10071.6875
1547.4329	9971.9875
1550.78776	9847.7875
1554.14038	9736.5875
1557.49077	9678.1875
1560.83892	9803.0875
1564.18484	10024.7875
1567.52853	10298.9875
1570.86999	10480.7875
1574.20922	10571.3875
1577.54624	10470.4875
1580.88103	10040.7875
1584.2136	9506.3875
1587.54395	9179.6875
1590.87208	9169.6875
1594.19801	9363.2875
1597.52172	9727.0875
1600.84321	9846.5875
1604.16251	9754.5875
1607.47959	9620.0875
1610.79447	9391.2875
1614.10715	9048.8875
1617.41763	8686.7875
1620.7259	8413.1875
1624.03199	8231.9875
1627.33587	8173.5875
1630.63757	8232.0875
1633.93707	8428.5875
1637.23439	8868.0875
1640.52951	9613.7875
1643.82246	10622.3875
1647.11321	11696.2875
1650.40179	12237.1875
1653.68819	11769.4875
1656.97241	10507.7875
1660.25446	9222.1875
1663.53433	8345.9875
1666.81203	7794.6875
1670.08756	7495.2875
1673.36092	7295.1875
1676.63211	7150.3875
1679.90115	7078.7875
1683.16801	7013.9875
1686.43272	6937.8875
1689.69527	6865.6875
1692.95567	6866.3875
1696.2139	6834.3875
1699.46999	6807.6875
1702.72392	6785.5875
1705.97571	6790.5875
1709.22535	6795.1875
1712.47284	6779.1875
1715.71819	6785.6875
1718.96139	6764.2875
1722.20246	6779.3875
1725.44139	6734.0875
1728.67818	6694.3875
1731.91284	6668.9875
1735.14537	6608.4875
1738.37576	6609.3875
1741.60403	6560.5875
1744.83017	6549.5875
1748.05418	6544.7875
1751.27607	6530.2875
1754.49584	6504.6875
1757.71349	6508.0875
1760.92903	6484.9875
1764.14244	6480.8875
1767.35375	6449.1875
1770.56294	6444.2875
1773.77002	6439.3875
1776.97499	6425.6875
1780.17785	6374.1875
1783.37861	6357.7875
1786.57727	6346.7875
1789.77382	6357.0875
1792.96828	6333.6875
1796.16064	6324.4875
1799.3509	6308.8875
1802.53907	6305.4875
1805.72514	6299.7875
1808.90913	6259.6875
1812.09102	6259.2875
1815.27083	6249.2875
1818.44856	6214.0875
1821.6242	6204.2875
1824.79776	6192.6875
1827.96924	6204.4875
1831.13864	6188.3875
1834.30597	6173.7875
1837.47122	6145.4875
1840.6344	6136.3875
1843.7955	6142.5875
1846.95454	6116.2875
1850.11151	6139.0875
1853.26642	6120.7875
1856.41926	6129.6875
1859.57004	6120.5875
1862.71876	6126.9875
1865.86542	6118.4875
1869.01003	6093.0875
1872.15258	6078.3875
1875.29308	6064.4875
1878.43152	6053.8875
1881.56792	6051.3875
1884.70227	6049.3875
1887.83457	6037.2875
1890.96482	6007.4875
1894.09304	5989.2875
1897.21921	5996.7875
1900.34335	5985.0875
1903.46544	5970.1875
1906.58551	5969.0875
1909.70353	5968.4875
1912.81953	5948.7875
1915.93349	5935.0875
1919.04543	5933.3875
1922.15534	5903.1875
1925.26322	5897.5875
1928.36908	5900.5875
1931.47292	5872.3875
1934.57473	5851.7875
1937.67453	5845.7875
1940.77232	5845.1875
1943.86808	5820.7875
1946.96184	5797.1875
1950.05358	5771.4875
1953.14331	5766.7875
1956.23103	5752.5875
1959.31675	5736.1875
1962.40046	5700.0875
1965.48217	5688.1875
1968.56188	5670.4875
1971.63959	5655.6875
1974.7153	5653.5875
1977.78901	5633.8875
1980.86073	5624.1875
1983.93046	5585.1875
1986.99819	5569.5875
1990.06394	5547.3875
1993.1277	5514.9875
1996.18947	5509.5875
1999.24925	5477.0875
2002.30706	5467.6875
2005.36288	5437.6875
2008.41672	5425.3875
2011.46859	5410.9875
2014.51848	5391.0875
2017.56639	5380.8875
2020.61233	5341.7875
2023.6563	5345.1875
2026.6983	5341.3875
2029.73833	5322.4875
2032.7764	5284.7875
2035.8125	5273.6875
2038.84664	5267.3875
2041.87881	5250.1875
2044.90903	5226.5875
2047.93729	5224.5875
2050.96359	5233.7875
2053.98794	5212.5875
2057.01034	5197.4875
2060.03078	5192.2875
2063.04927	5197.7875
2066.06582	5192.3875
2069.08042	5169.8875
2072.09307	5169.8875
2075.10378	5153.6875
2078.11255	5142.9875
2081.11938	5154.7875
2084.12426	5147.5875
2087.12722	5134.9875
2090.12824	5137.2875
2093.12732	5144.8875
2096.12447	5147.8875
2099.11969	5162.9875
2102.11299	5169.5875
2105.10435	5139.9875
2108.09379	5121.5875
2111.08131	5128.9875
2114.0669	5146.1875
2117.05057	5152.3875
2120.03233	5157.2875
2123.01216	5156.3875
2125.99008	5149.2875
2128.96609	5155.8875
2131.94018	5176.7875
2134.91236	5142.8875
2137.88263	5144.0875
2140.851	5149.8875
2143.81746	5152.3875
2146.78201	5150.5875
2149.74466	5119.0875
2152.7054	5142.6875
2155.66425	5131.2875
2158.6212	5123.4875
2161.57625	5127.5875
2164.52941	5111.3875
2167.48067	5110.4875
2170.43004	5094.7875
2173.37752	5097.3875
2176.32311	5095.0875
2179.26681	5101.5875
2182.20863	5104.9875
2185.14856	5103.9875
2188.08661	5098.5875
2191.02278	5093.3875
2193.95707	5107.2875
2196.88948	5076.0875
2199.82001	5089.6875
2202.74867	5056.9875
2205.67545	5063.6875
2208.60037	5052.0875
2211.52341	5039.8875
2214.44458	5030.1875
2217.36388	5004.0875
2220.28132	4993.5875
2223.1969	4986.4875
2226.11061	4966.2875
2229.02246	4954.2875
2231.93245	4963.5875
2234.84058	4949.2875
2237.74686	4940.6875
2240.65128	4934.8875
2243.55385	4919.4875
2246.45456	4907.6875
2249.35343	4911.2875
2252.25044	4921.8875
2255.14561	4894.3875
2258.03893	4895.8875
2260.93041	4878.9875
2263.82004	4875.1875
2266.70783	4864.7875
2269.59378	4843.0875
2272.4779	4833.8875
2275.36017	4798.4875
2278.24061	4812.0875
2281.11922	4789.8875
2283.996	4782.0875
2286.87094	4775.9875
2289.74405	4770.2875
2292.61534	4765.7875
2295.4848	4753.9875
2298.35243	4731.1875
2301.21824	4738.6875
2304.08223	4716.2875
2306.94439	4721.2875
2309.80474	4732.8875
2312.66327	4709.2875
2315.51999	4700.0875
2318.37489	4692.1875
2321.22797	4674.9875
2324.07925	4651.5875
2326.92871	4668.8875
2329.77637	4662.0875
2332.62222	4632.4875
2335.46626	4639.8875
2338.3085	4625.2875
2341.14893	4611.6875
2343.98756	4626.0875
2346.8244	4616.7875
2349.65943	4605.3875
2352.49267	4598.5875
2355.32411	4580.6875
2358.15376	4599.9875
2360.98161	4593.1875
2363.80768	4583.9875
2366.63195	4582.4875
2369.45444	4589.3875
2372.27514	4586.7875
2375.09405	4573.9875
2377.91118	4573.3875
2380.72652	4553.0875
2383.54009	4548.2875
2386.35187	4533.1875
2389.16188	4518.6875
2391.97011	4497.3875
2394.77657	4490.8875
2397.58125	4469.9875
2400.38416	4459.5875
2403.18529	4457.7875
2405.98466	4472.6875
2408.78226	4427.5875
2411.57809	4445.7875
2414.37216	4420.5875
2417.16446	4428.0875
2419.955	4410.3875
2422.74378	4409.4875
2425.5308	4410.7875
2428.31606	4396.5875
2431.09956	4403.5875
2433.88131	4394.1875
2436.6613	4396.1875
2439.43954	4375.4875
2442.21603	4382.2875
2444.99077	4384.3875
2447.76377	4370.6875
2450.53501	4376.7875
2453.30451	4375.6875
2456.07226	4369.3875
2458.83827	4362.0875
2461.60254	4327.3875
2464.36507	4334.8875
2467.12586	4332.0875
2469.88492	4314.3875
2472.64224	4319.7875
2475.39782	4318.9875
2478.15167	4307.4875
2480.90379	4311.4875
2483.65417	4300.5875
2486.40283	4297.8875
2489.14976	4308.2875
2491.89497	4307.4875
2494.63845	4315.1875
2497.3802	4286.3875
2500.12024	4289.7875
2502.85855	4285.6875
2505.59514	4263.8875
2508.33002	4265.9875
2511.06318	4241.1875
2513.79462	4239.7875
2516.52435	4216.4875
2519.25237	4199.1875
2521.97867	4201.2875
2524.70327	4204.8875
2527.42616	4190.5875
2530.14734	4164.3875
2532.86681	4181.1875
2535.58458	4175.7875
2538.30065	4185.3875
2541.01501	4162.0875
2543.72768	4166.5875
2546.43864	4156.4875
2549.14791	4130.2875
2551.85548	4135.0875
2554.56136	4138.6875
2557.26554	4130.6875
2559.96803	4120.8875
2562.66883	4095.1875
2565.36794	4094.6875
2568.06536	4080.8875
2570.7611	4059.3875
2573.45514	4054.9875
2576.14751	4064.7875
2578.83819	4028.9875
2581.52719	4035.3875
2584.21451	4020.6875
2586.90015	4020.7875
2589.58411	4012.1875
2592.2664	4019.1875
2594.94701	3999.5875
2597.62594	3996.2875
2600.30321	3968.0875
2602.9788	3965.4875
2605.65273	3966.1875
2608.32498	3954.8875
2610.99557	3957.0875
2613.66449	3957.9875
2616.33175	3953.0875
2618.99734	3940.2875
2621.66128	3918.7875
2624.32355	3909.1875
2626.98416	3907.4875
2629.64311	3886.6875
2632.30041	3896.8875
2634.95605	3887.1875
2637.61004	3869.4875
2640.26238	3858.0875
2642.91306	3862.1875
2645.56209	3851.6875
2648.20948	3838.9875
2650.85521	3850.5875
2653.4993	3839.7875
2656.14175	3851.6875
2658.78255	3840.3875
2661.42171	3843.9875
2664.05923	3834.9875
2666.6951	3857.9875
2669.32934	3853.8875
2671.96194	3855.6875
2674.59291	3849.7875
2677.22224	3855.4875
2679.84993	3842.3875
2682.476	3840.3875
2685.10043	3835.1875
2687.72324	3832.9875
2690.34441	3851.6875
2692.96396	3836.8875
2695.58188	3824.7875
2698.19818	3826.9875
2700.81285	3815.3875
2703.4259	3828.0875
2706.03733	3800.7875
2708.64714	3802.6875
2711.25533	3808.2875
2713.86191	3803.9875
2716.46687	3802.8875
2719.07021	3799.0875
2721.67194	3806.9875
2724.27206	3816.6875
2726.87057	3794.1875
2729.46747	3801.0875
2732.06276	3793.7875
2734.65644	3779.2875
2737.24852	3779.2875
2739.83899	3761.8875
2742.42786	3770.6875
2745.01513	3760.3875
2747.60079	3747.1875
2750.18486	3739.6875
2752.76733	3736.4875
2755.3482	3736.0875
2757.92747	3728.1875
2760.50515	3712.9875
2763.08123	3724.0875
2765.65573	3685.0875
2768.22863	3694.0875
2770.79994	3675.0875
2773.36967	3678.8875
2775.9378	3662.0875
2778.50435	3669.3875
2781.06932	3672.3875
2783.6327	3658.0875
2786.1945	3657.9875
2788.75471	3642.1875
2791.31335	3625.0875
2793.87041	3625.0875
2796.42589	3603.9875
2798.97979	3604.3875
2801.53212	3602.0875
2804.08288	3604.9875
2806.63206	3589.7875
2809.17967	3593.4875
2811.72571	3582.4875
2814.27018	3581.9875
2816.81308	3552.8875
2819.35442	3546.3875
2821.89419	3544.7875
2824.43239	3544.8875
2826.96904	3536.9875
2829.50412	3522.6875
2832.03763	3512.1875
2834.56959	3512.7875
2837.1	3501.7875
2839.62884	3487.7875
2842.15613	3494.2875
2844.68186	3493.0875
2847.20604	3488.2875
2849.72867	3492.5875
2852.24974	3471.7875
2854.76927	3465.7875
2857.28724	3454.2875
2859.80367	3449.9875
2862.31855	3445.1875
2864.83189	3451.1875
2867.34368	3440.0875
2869.85393	3435.2875
2872.36264	3427.9875
2874.8698	3428.9875
2877.37543	3435.9875
2879.87952	3425.1875
2882.38207	3414.2875
2884.88308	3408.6875
2887.38256	3395.7875
2889.88051	3403.9875
2892.37692	3391.7875
2894.8718	3398.7875
2897.36515	3397.7875
2899.85698	3384.4875
2902.34727	3396.7875
2904.83604	3392.5875
2907.32328	3395.3875
2909.809	3397.1875
2912.29319	3410.8875
2914.77587	3409.5875
2917.25702	3418.4875
2919.73665	3406.6875
2922.21476	3406.8875
2924.69136	3394.2875
2927.16644	3403.7875
2929.64	3399.3875
2932.11205	3381.9875
2934.58258	3372.2875
2937.05161	3375.7875
2939.51912	3369.9875
2941.98513	3349.8875
2944.44962	3344.3875
2946.91261	3333.4875
2949.37409	3340.2875
2951.83407	3341.4875
2954.29254	3337.3875
2956.74951	3324.0875
2959.20498	3324.2875
2961.65895	3321.7875
2964.11142	3314.8875
2966.56239	3296.6875
2969.01186	3312.7875
2971.45984	3296.7875
2973.90632	3303.2875
2976.35131	3280.3875
2978.7948	3282.8875
2981.23681	3285.2875
2983.67732	3284.1875
2986.11635	3264.7875
2988.55388	3253.8875
2990.98993	3247.7875
2993.4245	3252.2875
2995.85758	3242.5875
2998.28917	3229.2875
3000.71928	3217.3875
3003.14791	3206.2875
3005.57506	3193.3875
3008.00073	3190.1875
3010.42493	3183.6875
3012.84764	3175.9875
3015.26888	3165.4875
3017.68865	3164.1875
3020.10694	3149.3875
3022.52376	3138.1875
3024.9391	3147.6875
3027.35298	3117.8875
3029.76539	3124.6875
3032.17632	3108.9875
3034.5858	3105.5875
3036.9938	3103.2875
3039.40034	3076.3875
3041.80542	3068.0875
3044.20903	3064.9875
3046.61118	3071.1875
3049.01187	3063.6875
3051.4111	3058.0875
3053.80888	3047.5875
3056.20519	3032.9875
3058.60005	3018.0875
3060.99345	3016.5875
3063.3854	3020.0875
3065.7759	3011.9875
3068.16494	2999.6875
3070.55254	2985.1875
3072.93868	2985.4875
3075.32338	2978.2875
3077.70662	2958.9875
3080.08842	2946.8875
3082.46878	2946.3875
3084.84769	2937.0875
3087.22515	2931.4875
3089.60118	2930.2875
3091.97576	2934.5875
3094.3489	2927.6875
3096.72061	2930.8875
3099.09087	2921.9875
3101.4597	2917.0875
3103.82709	2920.6875
3106.19305	2912.3875
3108.55757	2906.9875
3110.92066	2898.3875
3113.28232	2898.1875
3115.64255	2887.3875
3118.00134	2873.1875
3120.35871	2884.1875
3122.71466	2879.3875
3125.06917	2861.0875
3127.42226	2858.8875
3129.77393	2842.5875
3132.12417	2830.7875
3134.47299	2834.5875
3136.82039	2820.7875
3139.16636	2822.4875
3141.51092	2827.9875
3143.85406	2828.2875
3146.19579	2826.7875
3148.53609	2822.2875
3150.87499	2816.1875
3153.21246	2818.2875
3155.54853	2809.2875
3157.88318	2813.5875
3160.21642	2804.5875
3162.54826	2804.8875
3164.87868	2794.8875
3167.2077	2807.7875
3169.5353	2795.7875
3171.86151	2788.8875
3174.18631	2763.2875
3176.5097	2757.7875
3178.83169	2760.7875
3181.15228	2768.1875
3183.47147	2748.4875
3185.78926	2759.6875
3188.10565	2726.8875
3190.42065	2727.9875
3192.73424	2731.8875
3195.04645	2710.7875
3197.35725	2726.9875
3199.66667	2709.1875
3201.97469	2709.2875
3204.28132	2717.8875
3206.58656	2720.9875
3208.8904	2702.7875
3211.19287	2727.0875
3213.49394	2711.2875
3215.79363	2711.2875
3218.09193	2723.9875
3220.38884	2712.5875
3222.68438	2717.8875
3224.97853	2696.5875
3227.2713	2695.9875
3229.56269	2689.1875
3231.8527	2678.7875
3234.14133	2681.7875
3236.42858	2685.2875
3238.71446	2666.3875
3240.99896	2644.8875
3243.28209	2645.8875
3245.56384	2638.6875
3247.84423	2644.8875
3250.12324	2629.0875
3252.40088	2620.4875
3254.67715	2632.5875
3256.95205	2613.0875
3259.22558	2615.4875
3261.49775	2606.2875
3263.76855	2626.5875
3266.03799	2617.8875
3268.30606	2614.3875
3270.57277	2611.4875
3272.83812	2603.8875
3275.10211	2588.3875
3277.36474	2577.2875
3279.62601	2583.1875
3281.88593	2567.8875
3284.14448	2564.4875
3286.40168	2573.1875
3288.65753	2561.7875
3290.91202	2560.7875
3293.16516	2545.0875
3295.41695	2548.6875
3297.66738	2541.6875
3299.91647	2527.7875
3302.16421	2507.7875
3304.4106	2506.2875
3306.65564	2475.5875
3308.89933	2453.6875
3311.14169	2442.2875
3313.38269	2409.1875
3315.62236	2390.6875
3317.86068	2371.8875
3320.09766	2369.4875
3322.3333	2346.5875
3324.5676	2329.2875
3326.80056	2285.6875
3329.03219	2273.1875
3331.26248	0.8875
3333.49143	-1.2125
3335.71905	-0.1125
