Data from AgNPs_UA_5uM_CRN_500uM_SU_RamanShift__244__12-10-03-188.txt Node

Date: Thu Aug 04 12:10:03 BST 2022
User: TCL
Spectrometer: QEP01345
Trigger mode: 4
Integration Time (sec): 1.000000E0
Scans to average: 10
Electric dark correction enabled: true
Nonlinearity correction enabled: false
Boxcar width: 0
XAxis mode: Raman Shifts
Number of Pixels in Spectrum: 1044
>>>>>Begin Spectral Data<<<<<
46.04893	0.7125
50.45542	-0.2875
54.85868	0.4125
59.25871	-1.2875
63.6555	-57.7875
68.04907	-40.2875
72.43941	-71.8875
76.82654	-57.5875
81.21044	-56.6875
85.59113	-50.2875
89.96862	-74.5875
94.34289	-55.2875
98.71396	-76.7875
103.08183	-59.1875
107.4465	-50.1875
111.80798	-56.6875
116.16626	-46.3875
120.52136	-74.5875
124.87327	-50.2875
129.222	-63.8875
133.56755	-49.8875
137.90993	-65.4875
142.24913	-49.9875
146.58517	-43.1875
150.91804	-40.6875
155.24774	-29.5875
159.57429	-11.8875
163.89768	-8.4875
168.21792	37.2125
172.53501	58.0125
176.84895	135.5125
181.15975	267.9125
185.46741	415.9125
189.77193	592.7125
194.07331	880.0125
198.37157	1164.5125
202.6667	1438.0125
206.9587	1770.7125
211.24758	2068.9125
215.53334	2387.7125
219.81599	2737.3125
224.09553	3138.0125
228.37195	3567.6125
232.64527	4031.7125
236.91549	4497.5125
241.18261	4828.3125
245.44663	5114.2125
249.70755	5283.5125
253.96539	5408.8125
258.22014	5517.5125
262.4718	5576.3125
266.72039	5615.7125
270.96589	5589.1125
275.20832	5508.8125
279.44768	5393.4125
283.68397	5279.9125
287.91719	5249.7125
292.14735	5275.1125
296.37445	5455.3125
300.59849	5737.6125
304.81948	6097.3125
309.03742	6449.9125
313.25231	6686.3125
317.46415	6640.7125
321.67296	6246.6125
325.87872	5852.7125
330.08145	5657.5125
334.28114	5617.9125
338.47781	5654.5125
342.67145	5806.5125
346.86207	6033.7125
351.04966	6407.9125
355.23424	6788.9125
359.4158	7048.1125
363.59435	7080.3125
367.76989	7029.8125
371.94243	6870.6125
376.11196	6762.7125
380.27849	6686.2125
384.44203	6621.5125
388.60257	6570.7125
392.76012	6599.4125
396.91468	6707.1125
401.06626	6855.9125
405.21485	6897.9125
409.36047	6742.4125
413.50311	6432.5125
417.64277	6103.2125
421.77947	5913.6125
425.9132	5850.3125
430.04396	5835.5125
434.17176	5847.5125
438.2966	5946.6125
442.41849	6025.5125
446.53742	6156.6125
450.6534	6256.9125
454.76644	6317.2125
458.87653	6335.2125
462.98368	6301.6125
467.08789	6216.5125
471.18916	6128.9125
475.2875	6016.5125
479.38291	5892.6125
483.4754	5799.0125
487.56496	5765.8125
491.6516	5719.8125
495.73531	5746.9125
499.81612	5780.3125
503.89401	5862.6125
507.96899	5901.0125
512.04106	6014.6125
516.11023	6109.8125
520.1765	6177.3125
524.23987	6205.5125
528.30034	6194.9125
532.35792	6126.7125
536.41261	6063.6125
540.46441	5951.8125
544.51333	5908.4125
548.55936	5960.9125
552.60252	6088.1125
556.64279	6203.5125
560.6802	6311.1125
564.71473	6445.4125
568.7464	6628.2125
572.7752	6621.5125
576.80114	6295.6125
580.82422	6094.6125
584.84444	6008.1125
588.86181	5958.6125
592.87633	5992.9125
596.888	6131.9125
600.89682	6478.3125
604.9028	7472.0125
608.90594	9564.5125
612.90624	11945.8125
616.90371	11071.7125
620.89834	7944.6125
624.89015	6587.9125
628.87913	6407.4125
632.86528	6530.8125
636.84862	6699.2125
640.82913	6584.5125
644.80683	6212.1125
648.78172	6054.2125
652.75379	6059.2125
656.72306	6304.8125
660.68952	6533.9125
664.65319	6465.4125
668.61405	6204.0125
672.57211	6138.3125
676.52738	6147.2125
680.47986	6043.5125
684.42955	5964.6125
688.37646	5896.7125
692.32058	5897.6125
696.26192	5981.7125
700.20048	6081.5125
704.13626	6115.9125
708.06928	6058.2125
711.99952	6055.8125
715.927	6007.2125
719.85171	6063.7125
723.77365	6109.3125
727.69284	6082.3125
731.60928	6066.7125
735.52295	6019.4125
739.43388	6062.7125
743.34206	6086.4125
747.24749	6100.2125
751.15017	6135.7125
755.05012	6206.3125
758.94733	6586.7125
762.8418	7443.6125
766.73354	8812.7125
770.62254	9846.7125
774.50882	9924.6125
778.39237	9374.7125
782.27321	8436.3125
786.15132	7380.0125
790.02671	6699.6125
793.89938	6301.4125
797.76935	6196.0125
801.6366	6095.5125
805.50115	6055.6125
809.36299	6015.6125
813.22213	5999.0125
817.07857	6028.9125
820.93231	6013.3125
824.78336	6044.3125
828.63172	6062.8125
832.47738	6053.3125
836.32036	6054.0125
840.16066	6016.3125
843.99827	6004.3125
847.8332	5992.8125
851.66546	6012.0125
855.49504	6026.6125
859.32195	6062.3125
863.1462	6029.8125
866.96777	6058.8125
870.78668	6013.4125
874.60293	6019.6125
878.41652	6063.6125
882.22745	6144.9125
886.03573	6167.4125
889.84136	6163.1125
893.64433	6155.4125
897.44466	6139.8125
901.24235	6138.2125
905.0374	6149.1125
908.8298	6082.0125
912.61957	6042.0125
916.40671	5995.5125
920.19121	6055.3125
923.97308	6154.4125
927.75233	6213.7125
931.52895	6263.0125
935.30295	6236.5125
939.07433	6077.7125
942.84309	5972.6125
946.60924	5938.4125
950.37278	5877.5125
954.13371	5892.6125
957.89203	5893.2125
961.64774	5901.0125
965.40086	5889.1125
969.15137	5864.1125
972.89929	5918.0125
976.64461	5878.5125
980.38733	5908.3125
984.12747	5912.5125
987.86502	5911.7125
991.59999	5949.2125
995.33237	6011.5125
999.06217	6091.9125
1002.78939	6143.2125
1006.51404	6283.3125
1010.23611	6413.7125
1013.95561	6446.6125
1017.67255	6446.5125
1021.38692	6413.3125
1025.09872	6351.4125
1028.80796	6263.0125
1032.51465	6284.8125
1036.21877	6269.1125
1039.92035	6305.2125
1043.61937	6353.9125
1047.31584	6403.9125
1051.00976	6452.0125
1054.70114	6424.4125
1058.38998	6435.6125
1062.07627	6438.2125
1065.76003	6480.7125
1069.44126	6536.5125
1073.11995	6626.5125
1076.79611	6742.3125
1080.46974	6914.4125
1084.14085	7089.1125
1087.80943	7211.0125
1091.47549	7243.2125
1095.13903	7155.2125
1098.80005	7054.0125
1102.45857	6923.5125
1106.11456	6897.2125
1109.76805	6843.5125
1113.41903	6985.5125
1117.06751	7154.1125
1120.71348	7401.8125
1124.35696	7790.8125
1127.99793	8070.5125
1131.63641	7914.9125
1135.2724	7509.9125
1138.90589	7220.5125
1142.5369	6995.4125
1146.16542	6895.8125
1149.79145	6784.3125
1153.415	6742.6125
1157.03607	6741.0125
1160.65467	6827.3125
1164.27079	7063.2125
1167.88443	7302.8125
1171.49561	7769.7125
1175.10432	8392.5125
1178.71056	9291.9125
1182.31434	10081.6125
1185.91565	10381.5125
1189.51451	10216.0125
1193.11091	9952.4125
1196.70485	9694.9125
1200.29634	9438.9125
1203.88538	9162.3125
1207.47197	8692.8125
1211.05612	8205.6125
1214.63782	7799.7125
1218.21708	7546.7125
1221.79391	7374.6125
1225.36829	7320.9125
1228.94024	7316.4125
1232.50976	7326.5125
1236.07685	7368.4125
1239.6415	7377.6125
1243.20374	7389.8125
1246.76355	7446.6125
1250.32093	7492.3125
1253.8759	7578.9125
1257.42845	7742.3125
1260.97859	7955.3125
1264.52631	8189.9125
1268.07163	8340.8125
1271.61453	8484.0125
1275.15503	8541.6125
1278.69312	8558.2125
1282.22882	8637.4125
1285.76211	8819.4125
1289.29301	9036.7125
1292.82151	9331.3125
1296.34761	9561.8125
1299.87133	9958.9125
1303.39266	10665.0125
1306.9116	11843.4125
1310.42815	13050.1125
1313.94233	13510.5125
1317.45412	12738.0125
1320.96354	11578.5125
1324.47058	10557.3125
1327.97525	9769.2125
1331.47754	9362.1125
1334.97747	9272.0125
1338.47502	9372.2125
1341.97022	9717.6125
1345.46305	10478.1125
1348.95352	11595.0125
1352.44163	12929.8125
1355.92738	14332.2125
1359.41078	16040.0125
1362.89183	17551.9125
1366.37053	16944.0125
1369.84688	14072.5125
1373.32088	11315.9125
1376.79254	9852.0125
1380.26186	9158.6125
1383.72883	8748.1125
1387.19347	8334.5125
1390.65578	7965.6125
1394.11575	7738.6125
1397.57339	7542.8125
1401.0287	7451.1125
1404.48168	7390.5125
1407.93234	7418.3125
1411.38068	7425.8125
1414.82669	7496.3125
1418.27039	7568.6125
1421.71177	7567.8125
1425.15083	7464.4125
1428.58758	7405.4125
1432.02203	7425.8125
1435.45416	7503.7125
1438.88399	7496.3125
1442.31151	7472.6125
1445.73673	7551.6125
1449.15965	7590.1125
1452.58027	7607.8125
1455.9986	7594.1125
1459.41463	7617.9125
1462.82837	7727.9125
1466.23982	7906.1125
1469.64898	8127.1125
1473.05586	8267.5125
1476.46045	8366.4125
1479.86276	8458.4125
1483.26279	8553.9125
1486.66054	8757.1125
1490.05602	9041.9125
1493.44922	9632.7125
1496.84016	10528.8125
1500.22882	11916.4125
1503.61521	13703.4125
1506.99934	15513.2125
1510.38121	16723.0125
1513.76081	16563.8125
1517.13816	14998.1125
1520.51324	12824.6125
1523.88607	11071.0125
1527.25665	10058.8125
1530.62498	9552.7125
1533.99105	9350.7125
1537.35488	9237.6125
1540.71647	9094.1125
1544.07581	8990.9125
1547.4329	8857.9125
1550.78776	8724.9125
1554.14038	8616.8125
1557.49077	8596.3125
1560.83892	8694.0125
1564.18484	8927.5125
1567.52853	9278.7125
1570.86999	9599.3125
1574.20922	9739.4125
1577.54624	9658.3125
1580.88103	9096.7125
1584.2136	8418.0125
1587.54395	8041.7125
1590.87208	7929.0125
1594.19801	8124.3125
1597.52172	8462.7125
1600.84321	8620.2125
1604.16251	8466.4125
1607.47959	8277.1125
1610.79447	8101.9125
1614.10715	7783.5125
1617.41763	7510.9125
1620.7259	7236.7125
1624.03199	7070.0125
1627.33587	7011.4125
1630.63757	7053.1125
1633.93707	7280.8125
1637.23439	7690.1125
1640.52951	8407.8125
1643.82246	9383.9125
1647.11321	10590.6125
1650.40179	11327.8125
1653.68819	10985.4125
1656.97241	9743.3125
1660.25446	8319.9125
1663.53433	7283.8125
1666.81203	6679.9125
1670.08756	6317.5125
1673.36092	6149.1125
1676.63211	5991.1125
1679.90115	5904.1125
1683.16801	5831.6125
1686.43272	5744.6125
1689.69527	5702.7125
1692.95567	5647.3125
1696.2139	5612.6125
1699.46999	5575.4125
1702.72392	5567.3125
1705.97571	5600.0125
1709.22535	5565.7125
1712.47284	5605.7125
1715.71819	5605.4125
1718.96139	5583.9125
1722.20246	5591.2125
1725.44139	5543.4125
1728.67818	5535.5125
1731.91284	5479.4125
1735.14537	5453.1125
1738.37576	5414.1125
1741.60403	5406.0125
1744.83017	5364.2125
1748.05418	5373.5125
1751.27607	5365.2125
1754.49584	5316.0125
1757.71349	5305.4125
1760.92903	5294.8125
1764.14244	5241.7125
1767.35375	5267.8125
1770.56294	5239.9125
1773.77002	5224.5125
1776.97499	5229.1125
1780.17785	5216.3125
1783.37861	5205.3125
1786.57727	5228.2125
1789.77382	5159.2125
1792.96828	5190.5125
1796.16064	5194.8125
1799.3509	5162.3125
1802.53907	5172.3125
1805.72514	5151.0125
1808.90913	5107.3125
1812.09102	5115.6125
1815.27083	5113.6125
1818.44856	5088.9125
1821.6242	5073.7125
1824.79776	5064.1125
1827.96924	5057.8125
1831.13864	5026.2125
1834.30597	5046.2125
1837.47122	5031.2125
1840.6344	5002.0125
1843.7955	5003.1125
1846.95454	4994.1125
1850.11151	5010.4125
1853.26642	4976.8125
1856.41926	4977.6125
1859.57004	4981.6125
1862.71876	4967.8125
1865.86542	4980.0125
1869.01003	4962.4125
1872.15258	4934.5125
1875.29308	4957.9125
1878.43152	4949.5125
1881.56792	4936.5125
1884.70227	4917.7125
1887.83457	4920.0125
1890.96482	4892.0125
1894.09304	4892.1125
1897.21921	4889.0125
1900.34335	4879.6125
1903.46544	4870.0125
1906.58551	4877.8125
1909.70353	4893.7125
1912.81953	4860.4125
1915.93349	4847.8125
1919.04543	4854.5125
1922.15534	4816.8125
1925.26322	4815.4125
1928.36908	4798.9125
1931.47292	4799.9125
1934.57473	4811.9125
1937.67453	4771.1125
1940.77232	4764.1125
1943.86808	4735.5125
1946.96184	4739.1125
1950.05358	4719.9125
1953.14331	4708.2125
1956.23103	4704.0125
1959.31675	4673.5125
1962.40046	4618.4125
1965.48217	4641.5125
1968.56188	4633.0125
1971.63959	4612.6125
1974.7153	4626.4125
1977.78901	4613.3125
1980.86073	4593.0125
1983.93046	4549.8125
1986.99819	4477.6125
1990.06394	4498.8125
1993.1277	4511.6125
1996.18947	4487.8125
1999.24925	4464.9125
2002.30706	4468.4125
2005.36288	4463.8125
2008.41672	4430.8125
2011.46859	4402.8125
2014.51848	4411.1125
2017.56639	4385.5125
2020.61233	4370.7125
2023.6563	4364.2125
2026.6983	4320.9125
2029.73833	4341.2125
2032.7764	4343.4125
2035.8125	4291.2125
2038.84664	4297.9125
2041.87881	4260.4125
2044.90903	4279.2125
2047.93729	4277.7125
2050.96359	4245.8125
2053.98794	4272.1125
2057.01034	4251.9125
2060.03078	4241.4125
2063.04927	4232.6125
2066.06582	4226.1125
2069.08042	4218.9125
2072.09307	4225.6125
2075.10378	4231.7125
2078.11255	4197.1125
2081.11938	4215.3125
2084.12426	4185.2125
2087.12722	4183.6125
2090.12824	4198.2125
2093.12732	4194.2125
2096.12447	4212.9125
2099.11969	4191.6125
2102.11299	4196.7125
2105.10435	4215.6125
2108.09379	4199.8125
2111.08131	4186.6125
2114.0669	4198.4125
2117.05057	4190.3125
2120.03233	4174.5125
2123.01216	4209.7125
2125.99008	4208.4125
2128.96609	4200.9125
2131.94018	4218.2125
2134.91236	4198.2125
2137.88263	4212.8125
2140.851	4203.5125
2143.81746	4233.5125
2146.78201	4214.2125
2149.74466	4197.4125
2152.7054	4216.6125
2155.66425	4187.4125
2158.6212	4197.8125
2161.57625	4163.2125
2164.52941	4151.9125
2167.48067	4161.7125
2170.43004	4164.9125
2173.37752	4173.5125
2176.32311	4164.8125
2179.26681	4170.5125
2182.20863	4171.7125
2185.14856	4166.0125
2188.08661	4169.6125
2191.02278	4164.0125
2193.95707	4151.5125
2196.88948	4136.7125
2199.82001	4156.9125
2202.74867	4121.2125
2205.67545	4135.3125
2208.60037	4126.3125
2211.52341	4111.2125
2214.44458	4116.0125
2217.36388	4095.1125
2220.28132	4081.5125
2223.1969	4059.1125
2226.11061	4071.0125
2229.02246	4044.8125
2231.93245	4054.5125
2234.84058	4029.3125
2237.74686	4024.0125
2240.65128	4014.8125
2243.55385	4021.5125
2246.45456	4002.5125
2249.35343	4017.9125
2252.25044	4002.3125
2255.14561	4008.7125
2258.03893	3980.2125
2260.93041	3978.8125
2263.82004	3978.3125
2266.70783	3976.8125
2269.59378	3951.6125
2272.4779	3945.7125
2275.36017	3948.5125
2278.24061	3931.9125
2281.11922	3915.9125
2283.996	3911.2125
2286.87094	3901.8125
2289.74405	3895.9125
2292.61534	3889.5125
2295.4848	3883.4125
2298.35243	3865.7125
2301.21824	3874.5125
2304.08223	3860.8125
2306.94439	3870.8125
2309.80474	3859.9125
2312.66327	3861.6125
2315.51999	3827.4125
2318.37489	3840.5125
2321.22797	3831.4125
2324.07925	3814.5125
2326.92871	3809.7125
2329.77637	3798.0125
2332.62222	3786.2125
2335.46626	3771.0125
2338.3085	3769.8125
2341.14893	3784.3125
2343.98756	3793.5125
2346.8244	3740.6125
2349.65943	3746.4125
2352.49267	3763.0125
2355.32411	3761.4125
2358.15376	3746.3125
2360.98161	3776.8125
2363.80768	3742.9125
2366.63195	3756.7125
2369.45444	3764.1125
2372.27514	3766.2125
2375.09405	3759.5125
2377.91118	3726.3125
2380.72652	3728.6125
2383.54009	3720.0125
2386.35187	3721.5125
2389.16188	3702.2125
2391.97011	3689.9125
2394.77657	3671.7125
2397.58125	3670.6125
2400.38416	3651.8125
2403.18529	3646.8125
2405.98466	3636.3125
2408.78226	3635.4125
2411.57809	3625.6125
2414.37216	3621.7125
2417.16446	3627.4125
2419.955	3582.3125
2422.74378	3615.3125
2425.5308	3590.1125
2428.31606	3590.8125
2431.09956	3611.8125
2433.88131	3570.8125
2436.6613	3589.8125
2439.43954	3586.3125
2442.21603	3564.5125
2444.99077	3559.4125
2447.76377	3572.4125
2450.53501	3557.0125
2453.30451	3553.7125
2456.07226	3573.2125
2458.83827	3547.8125
2461.60254	3507.1125
2464.36507	3549.9125
2467.12586	3530.9125
2469.88492	3537.7125
2472.64224	3541.2125
2475.39782	3502.9125
2478.15167	3517.2125
2480.90379	3515.6125
2483.65417	3523.2125
2486.40283	3537.0125
2489.14976	3535.8125
2491.89497	3521.7125
2494.63845	3527.1125
2497.3802	3502.2125
2500.12024	3508.1125
2502.85855	3498.6125
2505.59514	3502.6125
2508.33002	3496.0125
2511.06318	3458.4125
2513.79462	3478.2125
2516.52435	3417.1125
2519.25237	3430.8125
2521.97867	3413.7125
2524.70327	3410.5125
2527.42616	3425.1125
2530.14734	3432.7125
2532.86681	3402.0125
2535.58458	3413.8125
2538.30065	3386.3125
2541.01501	3413.2125
2543.72768	3393.3125
2546.43864	3396.0125
2549.14791	3383.1125
2551.85548	3354.3125
2554.56136	3362.6125
2557.26554	3362.6125
2559.96803	3357.2125
2562.66883	3349.6125
2565.36794	3332.7125
2568.06536	3313.7125
2570.7611	3330.2125
2573.45514	3319.5125
2576.14751	3304.8125
2578.83819	3292.6125
2581.52719	3283.8125
2584.21451	3295.7125
2586.90015	3259.6125
2589.58411	3256.3125
2592.2664	3246.2125
2594.94701	3253.3125
2597.62594	3256.8125
2600.30321	3190.5125
2602.9788	3211.8125
2605.65273	3212.1125
2608.32498	3207.2125
2610.99557	3225.1125
2613.66449	3194.9125
2616.33175	3221.5125
2618.99734	3213.0125
2621.66128	3210.5125
2624.32355	3188.0125
2626.98416	3178.3125
2629.64311	3168.0125
2632.30041	3167.7125
2634.95605	3142.1125
2637.61004	3131.6125
2640.26238	3120.5125
2642.91306	3112.0125
2645.56209	3149.9125
2648.20948	3143.3125
2650.85521	3125.1125
2653.4993	3149.8125
2656.14175	3123.6125
2658.78255	3109.8125
2661.42171	3085.6125
2664.05923	3122.5125
2666.6951	3126.6125
2669.32934	3132.3125
2671.96194	3150.8125
2674.59291	3146.0125
2677.22224	3128.1125
2679.84993	3125.6125
2682.476	3117.7125
2685.10043	3121.1125
2687.72324	3102.2125
2690.34441	3108.9125
2692.96396	3109.2125
2695.58188	3128.5125
2698.19818	3114.9125
2700.81285	3101.1125
2703.4259	3091.1125
2706.03733	3060.9125
2708.64714	3052.7125
2711.25533	3084.8125
2713.86191	3099.9125
2716.46687	3082.2125
2719.07021	3101.5125
2721.67194	3094.6125
2724.27206	3103.2125
2726.87057	3085.2125
2729.46747	3075.7125
2732.06276	3091.9125
2734.65644	3053.4125
2737.24852	3065.2125
2739.83899	3045.8125
2742.42786	3054.9125
2745.01513	3059.3125
2747.60079	3038.8125
2750.18486	3024.8125
2752.76733	3020.5125
2755.3482	3035.0125
2757.92747	3029.4125
2760.50515	3000.6125
2763.08123	3004.0125
2765.65573	3000.1125
2768.22863	2995.7125
2770.79994	2989.8125
2773.36967	2986.9125
2775.9378	2966.8125
2778.50435	2968.5125
2781.06932	2965.2125
2783.6327	2959.8125
2786.1945	2970.5125
2788.75471	2957.9125
2791.31335	2962.6125
2793.87041	2947.0125
2796.42589	2929.9125
2798.97979	2925.6125
2801.53212	2927.4125
2804.08288	2942.0125
2806.63206	2918.4125
2809.17967	2896.5125
2811.72571	2900.6125
2814.27018	2910.7125
2816.81308	2892.8125
2819.35442	2860.4125
2821.89419	2890.1125
2824.43239	2865.1125
2826.96904	2886.6125
2829.50412	2872.1125
2832.03763	2863.0125
2834.56959	2878.4125
2837.1	2856.5125
2839.62884	2858.9125
2842.15613	2856.9125
2844.68186	2856.7125
2847.20604	2827.6125
2849.72867	2838.3125
2852.24974	2834.0125
2854.76927	2798.4125
2857.28724	2758.3125
2859.80367	2829.0125
2862.31855	2828.6125
2864.83189	2817.6125
2867.34368	2825.6125
2869.85393	2832.0125
2872.36264	2809.2125
2874.8698	2814.9125
2877.37543	2808.1125
2879.87952	2807.8125
2882.38207	2782.3125
2884.88308	2794.1125
2887.38256	2796.2125
2889.88051	2782.6125
2892.37692	2782.3125
2894.8718	2756.3125
2897.36515	2779.6125
2899.85698	2788.4125
2902.34727	2764.2125
2904.83604	2781.8125
2907.32328	2800.3125
2909.809	2790.6125
2912.29319	2789.7125
2914.77587	2801.6125
2917.25702	2808.7125
2919.73665	2823.2125
2922.21476	2807.0125
2924.69136	2813.5125
2927.16644	2795.9125
2929.64	2803.9125
2932.11205	2779.4125
2934.58258	2785.2125
2937.05161	2759.5125
2939.51912	2779.5125
2941.98513	2784.2125
2944.44962	2749.7125
2946.91261	2731.7125
2949.37409	2742.5125
2951.83407	2738.6125
2954.29254	2728.8125
2956.74951	2735.4125
2959.20498	2719.9125
2961.65895	2723.3125
2964.11142	2704.3125
2966.56239	2707.6125
2969.01186	2712.5125
2971.45984	2703.6125
2973.90632	2683.9125
2976.35131	2699.5125
2978.7948	2686.6125
2981.23681	2673.4125
2983.67732	2685.1125
2986.11635	2680.3125
2988.55388	2657.4125
2990.98993	2654.3125
2993.4245	2642.3125
2995.85758	2627.6125
2998.28917	2635.6125
3000.71928	2613.3125
3003.14791	2613.3125
3005.57506	2610.2125
3008.00073	2583.9125
3010.42493	2534.3125
3012.84764	2589.4125
3015.26888	2592.4125
3017.68865	2567.6125
3020.10694	2520.3125
3022.52376	2548.1125
3024.9391	2548.5125
3027.35298	2534.5125
3029.76539	2530.6125
3032.17632	2527.3125
3034.5858	2516.8125
3036.9938	2522.5125
3039.40034	2514.2125
3041.80542	2508.9125
3044.20903	2489.2125
3046.61118	2485.0125
3049.01187	2500.7125
3051.4111	2476.4125
3053.80888	2472.7125
3056.20519	2464.8125
3058.60005	2449.5125
3060.99345	2464.7125
3063.3854	2442.3125
3065.7759	2430.3125
3068.16494	2422.6125
3070.55254	2409.8125
3072.93868	2429.6125
3075.32338	2420.8125
3077.70662	2408.6125
3080.08842	2393.0125
3082.46878	2384.4125
3084.84769	2408.7125
3087.22515	2393.3125
3089.60118	2401.3125
3091.97576	2381.5125
3094.3489	2386.6125
3096.72061	2381.3125
3099.09087	2365.4125
3101.4597	2386.9125
3103.82709	2375.2125
3106.19305	2350.3125
3108.55757	2363.3125
3110.92066	2340.3125
3113.28232	2356.0125
3115.64255	2358.2125
3118.00134	2348.7125
3120.35871	2321.1125
3122.71466	2307.2125
3125.06917	2311.1125
3127.42226	2305.0125
3129.77393	2298.9125
3132.12417	2300.0125
3134.47299	2311.0125
3136.82039	2292.0125
3139.16636	2263.6125
3141.51092	2282.1125
3143.85406	2294.3125
3146.19579	2271.8125
3148.53609	2272.6125
3150.87499	2269.8125
3153.21246	2275.0125
3155.54853	2283.0125
3157.88318	2283.4125
3160.21642	2278.7125
3162.54826	2260.6125
3164.87868	2280.7125
3167.2077	2236.5125
3169.5353	2248.0125
3171.86151	2272.4125
3174.18631	2241.0125
3176.5097	2246.9125
3178.83169	2239.0125
3181.15228	2242.4125
3183.47147	2211.5125
3185.78926	2208.9125
3188.10565	2231.9125
3190.42065	2194.8125
3192.73424	2212.4125
3195.04645	2197.3125
3197.35725	2186.0125
3199.66667	2193.2125
3201.97469	2190.9125
3204.28132	2181.1125
3206.58656	2194.7125
3208.8904	2196.0125
3211.19287	2189.8125
3213.49394	2179.3125
3215.79363	2173.1125
3218.09193	2192.6125
3220.38884	2187.8125
3222.68438	2175.4125
3224.97853	2158.8125
3227.2713	2184.2125
3229.56269	2166.1125
3231.8527	2173.3125
3234.14133	2156.8125
3236.42858	2142.2125
3238.71446	2127.4125
3240.99896	2142.3125
3243.28209	2129.9125
3245.56384	2128.9125
3247.84423	2118.9125
3250.12324	2128.6125
3252.40088	2127.6125
3254.67715	2107.6125
3256.95205	2106.0125
3259.22558	2109.4125
3261.49775	2115.5125
3263.76855	2103.0125
3266.03799	2108.9125
3268.30606	2111.0125
3270.57277	2102.8125
3272.83812	2083.5125
3275.10211	2080.9125
3277.36474	2107.3125
3279.62601	2086.7125
3281.88593	2073.3125
3284.14448	2056.4125
3286.40168	2076.6125
3288.65753	2058.1125
3290.91202	2051.0125
3293.16516	2034.8125
3295.41695	2057.0125
3297.66738	2059.6125
3299.91647	2041.4125
3302.16421	2027.7125
3304.4106	1995.8125
3306.65564	2013.1125
3308.89933	1981.6125
3311.14169	1970.1125
3313.38269	1976.4125
3315.62236	1953.1125
3317.86068	1930.8125
3320.09766	1927.1125
3322.3333	1898.3125
3324.5676	1884.8125
3326.80056	1857.6125
3329.03219	1855.2125
3331.26248	-0.4875
3333.49143	0.5125
3335.71905	-0.4875
