Data from AgNPs_UA_10uM_CRN_500uM_SU_RamanShift__108__13-23-20-275.txt Node

Date: Thu Aug 04 13:23:20 BST 2022
User: TCL
Spectrometer: QEP01345
Trigger mode: 4
Integration Time (sec): 1.000000E0
Scans to average: 10
Electric dark correction enabled: true
Nonlinearity correction enabled: false
Boxcar width: 0
XAxis mode: Raman Shifts
Number of Pixels in Spectrum: 1044
>>>>>Begin Spectral Data<<<<<
46.04893	1.8
50.45542	-1
54.85868	0.5
59.25871	-1.3
63.6555	19.3
68.04907	20.9
72.43941	21.6
76.82654	22.8
81.21044	22.8
85.59113	26.2
89.96862	25.4
94.34289	25.2
98.71396	28
103.08183	27.5
107.4465	28.4
111.80798	29.1
116.16626	32.7
120.52136	33
124.87327	35.5
129.222	37.1
133.56755	37.6
137.90993	42.1
142.24913	44.9
146.58517	54.2
150.91804	60.4
155.24774	79.8
159.57429	95.6
163.89768	127.7
168.21792	169.8
172.53501	234
176.84895	335.4
181.15975	477.3
185.46741	668.5
189.77193	929.5
194.07331	1254.4
198.37157	1616.7
202.6667	2002.8
206.9587	2383.4
211.24758	2760.3
215.53334	3154.3
219.81599	3561.3
224.09553	4037.2
228.37195	4546.7
232.64527	5060
236.91549	5619.2
241.18261	6113.5
245.44663	6516.5
249.70755	6834.5
253.96539	7137.3
258.22014	7375.2
262.4718	7594.6
266.72039	7721.2
270.96589	7783
275.20832	7755.6
279.44768	7644.7
283.68397	7518.2
287.91719	7448.2
292.14735	7467.4
296.37445	7570.2
300.59849	7756.8
304.81948	8067.8
309.03742	8306
313.25231	8417.8
317.46415	8326.7
321.67296	8060.5
325.87872	7734.9
330.08145	7576.9
334.28114	7579.3
338.47781	7663.9
342.67145	7807.2
346.86207	8028.5
351.04966	8305.1
355.23424	8647
359.4158	8860.6
363.59435	8963.9
367.76989	9042.6
371.94243	9029.1
376.11196	9002.9
380.27849	8983.7
384.44203	9032.3
388.60257	9044.9
392.76012	9138.5
396.91468	9258
401.06626	9398.1
405.21485	9456.6
409.36047	9335.1
413.50311	9058.9
417.64277	8798.9
421.77947	8649.5
425.9132	8578.9
430.04396	8556.6
434.17176	8586.4
438.2966	8715
442.41849	8881.9
446.53742	9099.7
450.6534	9288.5
454.76644	9405.4
458.87653	9471.3
462.98368	9459.8
467.08789	9376.9
471.18916	9244.2
475.2875	9036.5
479.38291	8867
483.4754	8754.4
487.56496	8669.6
491.6516	8661
495.73531	8619.4
499.81612	8696.9
503.89401	8735.2
507.96899	8807.7
512.04106	8849
516.11023	8900.3
520.1765	8918
524.23987	8959.5
528.30034	8942.2
532.35792	8936.9
536.41261	8865.3
540.46441	8744.1
544.51333	8726.9
548.55936	8790.6
552.60252	8915.9
556.64279	9059.3
560.6802	9184.9
564.71473	9251.4
568.7464	9386.8
572.7752	9384.1
576.80114	9132.9
580.82422	8971.8
584.84444	8918.5
588.86181	8970.8
592.87633	9062.4
596.888	9257.1
600.89682	9644.4
604.9028	10706.3
608.90594	12896.4
612.90624	14949.9
616.90371	13744.5
620.89834	10838.8
624.89015	9677.8
628.87913	9576.7
632.86528	9692.1
636.84862	9712.2
640.82913	9464.9
644.80683	9092.5
648.78172	8916.8
652.75379	8932.4
656.72306	9204.8
660.68952	9523.6
664.65319	9442.7
668.61405	9305.3
672.57211	9374
676.52738	9343.5
680.47986	9171.2
684.42955	8966.6
688.37646	8939.2
692.32058	9033.3
696.26192	9233.9
700.20048	9384.1
704.13626	9396.1
708.06928	9276.7
711.99952	9163.8
715.927	9171.5
719.85171	9245.8
723.77365	9250
727.69284	9158.9
731.60928	9095.8
735.52295	9079.9
739.43388	9128.7
743.34206	9176
747.24749	9205.9
751.15017	9182.6
755.05012	9308.5
758.94733	9619.2
762.8418	10418.4
766.73354	11550
770.62254	12485.3
774.50882	12698.5
778.39237	12229.9
782.27321	11435.4
786.15132	10483.2
790.02671	9821.6
793.89938	9485.7
797.76935	9349.3
801.6366	9268.3
805.50115	9184.7
809.36299	9138.4
813.22213	9128.1
817.07857	9113.8
820.93231	9119.7
824.78336	9125.2
828.63172	9143.5
832.47738	9167.3
836.32036	9139.6
840.16066	9156.1
843.99827	9154.8
847.8332	9155.9
851.66546	9154.1
855.49504	9166.4
859.32195	9158.9
863.1462	9178.9
866.96777	9135.2
870.78668	9137.2
874.60293	9150.7
878.41652	9211.2
882.22745	9268.7
886.03573	9322.7
889.84136	9353.7
893.64433	9307.6
897.44466	9253.5
901.24235	9229.9
905.0374	9233.6
908.8298	9184.3
912.61957	9183.6
916.40671	9200.2
920.19121	9246.1
923.97308	9309.1
927.75233	9426.2
931.52895	9481.4
935.30295	9414.6
939.07433	9269.2
942.84309	9135.6
946.60924	9141.8
950.37278	9106
954.13371	9069.7
957.89203	9059.7
961.64774	9046
965.40086	9046.5
969.15137	9008.4
972.89929	9026.8
976.64461	9046.5
980.38733	9057.6
984.12747	9072.5
987.86502	9136.2
991.59999	9197.8
995.33237	9306.8
999.06217	9481
1002.78939	9692.5
1006.51404	9839.1
1010.23611	9983.2
1013.95561	10068.8
1017.67255	10109.6
1021.38692	10088.6
1025.09872	10098.3
1028.80796	10087.5
1032.51465	10218.4
1036.21877	10324.4
1039.92035	10343.9
1043.61937	10272.4
1047.31584	10159.1
1051.00976	10060.9
1054.70114	9996.7
1058.38998	10030.5
1062.07627	10060.8
1065.76003	10098.5
1069.44126	10191.4
1073.11995	10374.7
1076.79611	10560.3
1080.46974	10691.5
1084.14085	10787.4
1087.80943	10919.6
1091.47549	10909.4
1095.13903	10863.1
1098.80005	10823.4
1102.45857	10857.9
1106.11456	10804.7
1109.76805	10740.7
1113.41903	10711.2
1117.06751	10835.3
1120.71348	11044.6
1124.35696	11246.8
1127.99793	11368.3
1131.63641	11214.9
1135.2724	10910.7
1138.90589	10643.5
1142.5369	10456.6
1146.16542	10352
1149.79145	10281.9
1153.415	10201.9
1157.03607	10166.8
1160.65467	10296.3
1164.27079	10503.9
1167.88443	10863.9
1171.49561	11389.1
1175.10432	12150.1
1178.71056	13163.5
1182.31434	14044
1185.91565	14437.7
1189.51451	14372.4
1193.11091	14034.7
1196.70485	13650.3
1200.29634	13236.1
1203.88538	12801.8
1207.47197	12302.4
1211.05612	11859.2
1214.63782	11473.8
1218.21708	11269.3
1221.79391	11171.1
1225.36829	11143.6
1228.94024	11122.9
1232.50976	11061.4
1236.07685	11022.7
1239.6415	11047.1
1243.20374	11091.1
1246.76355	11158.4
1250.32093	11294.4
1253.8759	11501.7
1257.42845	11812.1
1260.97859	12144
1264.52631	12466.3
1268.07163	12736.1
1271.61453	12910
1275.15503	13018
1278.69312	13071.7
1282.22882	13202
1285.76211	13327.2
1289.29301	13502.9
1292.82151	13751.9
1296.34761	14034.5
1299.87133	14522.1
1303.39266	15388.1
1306.9116	16608.4
1310.42815	17909.4
1313.94233	18434.4
1317.45412	17921.4
1320.96354	16939.4
1324.47058	15921.3
1327.97525	15068.7
1331.47754	14557.1
1334.97747	14405.3
1338.47502	14549.1
1341.97022	15003.7
1345.46305	15747.2
1348.95352	16756.7
1352.44163	17875.2
1355.92738	19075.5
1359.41078	20511.7
1362.89183	21495.1
1366.37053	20419.6
1369.84688	17749.8
1373.32088	15345.7
1376.79254	13964.3
1380.26186	13333.9
1383.72883	12954
1387.19347	12592.1
1390.65578	12251.2
1394.11575	11875.6
1397.57339	11673.1
1401.0287	11557.3
1404.48168	11584.2
1407.93234	11664.4
1411.38068	11836.9
1414.82669	12007.8
1418.27039	12044.1
1421.71177	12030.4
1425.15083	11954.1
1428.58758	11908.4
1432.02203	12006.9
1435.45416	12143.8
1438.88399	12128.7
1442.31151	12100.9
1445.73673	12064.6
1449.15965	12003.4
1452.58027	11955.6
1455.9986	11893.8
1459.41463	11842.8
1462.82837	11940.2
1466.23982	12124.3
1469.64898	12340
1473.05586	12499.9
1476.46045	12658.7
1479.86276	12773.4
1483.26279	12945.1
1486.66054	13143.9
1490.05602	13477.1
1493.44922	14010
1496.84016	14825.7
1500.22882	15961.2
1503.61521	17372.3
1506.99934	18761.9
1510.38121	19569.1
1513.76081	19294.5
1517.13816	17968.7
1520.51324	16220.8
1523.88607	14782.6
1527.25665	13913
1530.62498	13482
1533.99105	13251.7
1537.35488	13134
1540.71647	13013.7
1544.07581	12925.8
1547.4329	12828.1
1550.78776	12713.9
1554.14038	12578.5
1557.49077	12557.3
1560.83892	12681
1564.18484	12956.3
1567.52853	13227.3
1570.86999	13385.5
1574.20922	13417.7
1577.54624	13200.5
1580.88103	12719.4
1584.2136	12190.9
1587.54395	11995
1590.87208	12152.4
1594.19801	12671
1597.52172	13318.6
1600.84321	13596.6
1604.16251	13464.3
1607.47959	13103.3
1610.79447	12633.7
1614.10715	11985.3
1617.41763	11373.9
1620.7259	10907.8
1624.03199	10684.3
1627.33587	10652.8
1630.63757	10824.9
1633.93707	11241.6
1637.23439	11999.1
1640.52951	13067.5
1643.82246	14443.7
1647.11321	15659.3
1650.40179	16063.1
1653.68819	15128.4
1656.97241	13380.1
1660.25446	11725.8
1663.53433	10657.2
1666.81203	9968.7
1670.08756	9605.8
1673.36092	9376
1676.63211	9217.3
1679.90115	9091.9
1683.16801	8999.7
1686.43272	8907.2
1689.69527	8846.7
1692.95567	8798.5
1696.2139	8765.3
1699.46999	8787.6
1702.72392	8747.7
1705.97571	8735.9
1709.22535	8747.2
1712.47284	8731.3
1715.71819	8732.5
1718.96139	8719.8
1722.20246	8727.8
1725.44139	8675.8
1728.67818	8598.9
1731.91284	8575.5
1735.14537	8526.1
1738.37576	8502.4
1741.60403	8459.8
1744.83017	8447.9
1748.05418	8427.4
1751.27607	8417.7
1754.49584	8417.1
1757.71349	8420
1760.92903	8376.2
1764.14244	8371.9
1767.35375	8353.8
1770.56294	8355.7
1773.77002	8336.7
1776.97499	8293
1780.17785	8271.4
1783.37861	8228.9
1786.57727	8221.1
1789.77382	8225.2
1792.96828	8224.6
1796.16064	8199.7
1799.3509	8214.6
1802.53907	8201.6
1805.72514	8173.9
1808.90913	8155.3
1812.09102	8153.3
1815.27083	8115.9
1818.44856	8088.4
1821.6242	8075.7
1824.79776	8055.4
1827.96924	8045.1
1831.13864	8037.2
1834.30597	8010.6
1837.47122	7992.1
1840.6344	7968
1843.7955	7992.8
1846.95454	7976.1
1850.11151	7965.7
1853.26642	7977.5
1856.41926	7973.3
1859.57004	7971.2
1862.71876	7973.5
1865.86542	7965.2
1869.01003	7954.2
1872.15258	7948.4
1875.29308	7925.5
1878.43152	7929.8
1881.56792	7910.5
1884.70227	7901.6
1887.83457	7886.8
1890.96482	7868.3
1894.09304	7823
1897.21921	7849.2
1900.34335	7834
1903.46544	7817.1
1906.58551	7819
1909.70353	7808.6
1912.81953	7822.4
1915.93349	7816.1
1919.04543	7772.8
1922.15534	7763.9
1925.26322	7757.3
1928.36908	7741.7
1931.47292	7717.6
1934.57473	7720.2
1937.67453	7692
1940.77232	7681
1943.86808	7644.9
1946.96184	7605.8
1950.05358	7605.9
1953.14331	7588.3
1956.23103	7566.4
1959.31675	7544.8
1962.40046	7509.7
1965.48217	7498
1968.56188	7472.4
1971.63959	7459.3
1974.7153	7440
1977.78901	7438.1
1980.86073	7409.1
1983.93046	7389.9
1986.99819	7352.9
1990.06394	7328.5
1993.1277	7312.1
1996.18947	7272.5
1999.24925	7250.3
2002.30706	7213.1
2005.36288	7208.4
2008.41672	7191.1
2011.46859	7166.8
2014.51848	7134.5
2017.56639	7099.5
2020.61233	7085.6
2023.6563	7071.8
2026.6983	7060.4
2029.73833	7028.5
2032.7764	7020.6
2035.8125	7016.8
2038.84664	7008.7
2041.87881	6982.8
2044.90903	6970
2047.93729	6958.2
2050.96359	6964.5
2053.98794	6939.2
2057.01034	6937.8
2060.03078	6933.5
2063.04927	6919.1
2066.06582	6899.8
2069.08042	6887.9
2072.09307	6888.1
2075.10378	6881.8
2078.11255	6869.8
2081.11938	6863.2
2084.12426	6842.2
2087.12722	6849.6
2090.12824	6849.8
2093.12732	6849
2096.12447	6873.5
2099.11969	6856.7
2102.11299	6860.6
2105.10435	6841.1
2108.09379	6837.3
2111.08131	6855
2114.0669	6880.2
2117.05057	6880.3
2120.03233	6898.6
2123.01216	6884.1
2125.99008	6863
2128.96609	6885
2131.94018	6891.7
2134.91236	6887.9
2137.88263	6893.7
2140.851	6896.9
2143.81746	6897.4
2146.78201	6892.1
2149.74466	6881.6
2152.7054	6888.8
2155.66425	6886.2
2158.6212	6867
2161.57625	6852.2
2164.52941	6859.7
2167.48067	6845.6
2170.43004	6849.3
2173.37752	6834.9
2176.32311	6844.8
2179.26681	6859.7
2182.20863	6867.7
2185.14856	6866.7
2188.08661	6861
2191.02278	6846.3
2193.95707	6838
2196.88948	6840.3
2199.82001	6838.3
2202.74867	6833.2
2205.67545	6854.9
2208.60037	6828.1
2211.52341	6827.9
2214.44458	6778.8
2217.36388	6778.8
2220.28132	6779.5
2223.1969	6750.2
2226.11061	6732.6
2229.02246	6707.2
2231.93245	6700.5
2234.84058	6704.6
2237.74686	6682.5
2240.65128	6668.1
2243.55385	6646.6
2246.45456	6649.3
2249.35343	6641.7
2252.25044	6639.8
2255.14561	6620.2
2258.03893	6635.3
2260.93041	6620.8
2263.82004	6599.3
2266.70783	6583.2
2269.59378	6560.2
2272.4779	6553.8
2275.36017	6534.2
2278.24061	6517.1
2281.11922	6505.4
2283.996	6494.4
2286.87094	6489.5
2289.74405	6470.6
2292.61534	6483.4
2295.4848	6432
2298.35243	6456.7
2301.21824	6442.9
2304.08223	6437.6
2306.94439	6415.6
2309.80474	6437.3
2312.66327	6442.2
2315.51999	6444.9
2318.37489	6432.1
2321.22797	6414.1
2324.07925	6394.3
2326.92871	6392.9
2329.77637	6394.5
2332.62222	6378.5
2335.46626	6355.8
2338.3085	6358.2
2341.14893	6359.5
2343.98756	6362.7
2346.8244	6361.4
2349.65943	6350.5
2352.49267	6343
2355.32411	6345.3
2358.15376	6333.8
2360.98161	6348.4
2363.80768	6336.8
2366.63195	6331.3
2369.45444	6329.3
2372.27514	6318.3
2375.09405	6302.5
2377.91118	6278
2380.72652	6268.3
2383.54009	6264.3
2386.35187	6245.3
2389.16188	6229.8
2391.97011	6206.4
2394.77657	6186.5
2397.58125	6175.1
2400.38416	6181.9
2403.18529	6177.6
2405.98466	6159.2
2408.78226	6134.9
2411.57809	6125.4
2414.37216	6102.7
2417.16446	6100.2
2419.955	6111.8
2422.74378	6105.3
2425.5308	6092.4
2428.31606	6096.4
2431.09956	6096.7
2433.88131	6075.5
2436.6613	6072.3
2439.43954	6067
2442.21603	6060.9
2444.99077	6051.2
2447.76377	6065.9
2450.53501	6058.2
2453.30451	6064.7
2456.07226	6059.8
2458.83827	6049
2461.60254	6005.3
2464.36507	6028.3
2467.12586	6003.3
2469.88492	5998.1
2472.64224	6013.3
2475.39782	6018.8
2478.15167	6002.6
2480.90379	5990.6
2483.65417	5997.3
2486.40283	5984.8
2489.14976	6009.5
2491.89497	5996.5
2494.63845	5999.1
2497.3802	5988.7
2500.12024	5961.9
2502.85855	5960.8
2505.59514	5975.2
2508.33002	5952.9
2511.06318	5923.3
2513.79462	5918.8
2516.52435	5929.1
2519.25237	5899.4
2521.97867	5894.5
2524.70327	5878.7
2527.42616	5869.3
2530.14734	5870.7
2532.86681	5842.7
2535.58458	5885.5
2538.30065	5863.1
2541.01501	5861.9
2543.72768	5849.1
2546.43864	5842.3
2549.14791	5828
2551.85548	5841.4
2554.56136	5827.4
2557.26554	5828.9
2559.96803	5813
2562.66883	5780.4
2565.36794	5792.3
2568.06536	5761
2570.7611	5750.4
2573.45514	5739.8
2576.14751	5738.7
2578.83819	5718.5
2581.52719	5726.5
2584.21451	5712.9
2586.90015	5716.4
2589.58411	5702.1
2592.2664	5698.2
2594.94701	5691.2
2597.62594	5680.1
2600.30321	5671.5
2602.9788	5672.4
2605.65273	5670.6
2608.32498	5664.9
2610.99557	5645.1
2613.66449	5649.8
2616.33175	5647.3
2618.99734	5643
2621.66128	5656.2
2624.32355	5612.1
2626.98416	5617.8
2629.64311	5596.8
2632.30041	5608.7
2634.95605	5596.2
2637.61004	5578.3
2640.26238	5574
2642.91306	5562.4
2645.56209	5581.7
2648.20948	5563.1
2650.85521	5543.2
2653.4993	5565.8
2656.14175	5556.5
2658.78255	5515.2
2661.42171	5522.5
2664.05923	5539.5
2666.6951	5566.7
2669.32934	5566.3
2671.96194	5543.8
2674.59291	5569.4
2677.22224	5555.8
2679.84993	5545.5
2682.476	5542.5
2685.10043	5554
2687.72324	5549.3
2690.34441	5555.8
2692.96396	5536.5
2695.58188	5531.3
2698.19818	5505.7
2700.81285	5519.9
2703.4259	5514.1
2706.03733	5502.3
2708.64714	5489.7
2711.25533	5496.9
2713.86191	5490.8
2716.46687	5525.4
2719.07021	5515.9
2721.67194	5493.2
2724.27206	5502.7
2726.87057	5509.8
2729.46747	5515.2
2732.06276	5504.3
2734.65644	5499
2737.24852	5487.9
2739.83899	5478.3
2742.42786	5480.9
2745.01513	5447.8
2747.60079	5447.2
2750.18486	5427.4
2752.76733	5447.8
2755.3482	5422.7
2757.92747	5422.3
2760.50515	5413.4
2763.08123	5398.5
2765.65573	5388
2768.22863	5380.4
2770.79994	5373.5
2773.36967	5359.1
2775.9378	5367.4
2778.50435	5361.5
2781.06932	5373.4
2783.6327	5363.2
2786.1945	5358.6
2788.75471	5336.3
2791.31335	5331.3
2793.87041	5320
2796.42589	5306.7
2798.97979	5290.5
2801.53212	5285.8
2804.08288	5264.4
2806.63206	5260.2
2809.17967	5263.6
2811.72571	5267.5
2814.27018	5245.7
2816.81308	5223.4
2819.35442	5234.9
2821.89419	5234
2824.43239	5194.9
2826.96904	5219.1
2829.50412	5192.5
2832.03763	5174.9
2834.56959	5167.3
2837.1	5154.6
2839.62884	5152
2842.15613	5134
2844.68186	5149.1
2847.20604	5129.6
2849.72867	5138.8
2852.24974	5123.7
2854.76927	5112.2
2857.28724	5106.2
2859.80367	5100.3
2862.31855	5099.1
2864.83189	5094.8
2867.34368	5089
2869.85393	5085.3
2872.36264	5081.3
2874.8698	5067.1
2877.37543	5078.4
2879.87952	5060.4
2882.38207	5054.5
2884.88308	5044.6
2887.38256	5056.2
2889.88051	5031.7
2892.37692	5028.3
2894.8718	5038.9
2897.36515	5034.2
2899.85698	5031.3
2902.34727	5031.4
2904.83604	5033.1
2907.32328	5038.5
2909.809	5045.4
2912.29319	5058.7
2914.77587	5058.6
2917.25702	5060
2919.73665	5062.3
2922.21476	5049.1
2924.69136	5022.4
2927.16644	5041.3
2929.64	5025
2932.11205	5009.3
2934.58258	4972
2937.05161	5000.2
2939.51912	4997.6
2941.98513	4993.5
2944.44962	4977.6
2946.91261	4956.6
2949.37409	4972.3
2951.83407	4970.9
2954.29254	4977.3
2956.74951	4960.2
2959.20498	4988.9
2961.65895	4970.3
2964.11142	4957.2
2966.56239	4952.6
2969.01186	4965.1
2971.45984	4941.7
2973.90632	4953.8
2976.35131	4904.6
2978.7948	4922.2
2981.23681	4900.7
2983.67732	4899.4
2986.11635	4874.5
2988.55388	4871.1
2990.98993	4848.1
2993.4245	4836.2
2995.85758	4822.2
2998.28917	4816.7
3000.71928	4820.7
3003.14791	4802.1
3005.57506	4784.2
3008.00073	4782.1
3010.42493	4765.1
3012.84764	4750.3
3015.26888	4765.4
3017.68865	4748
3020.10694	4732.6
3022.52376	4702.8
3024.9391	4709.4
3027.35298	4685.9
3029.76539	4671.8
3032.17632	4663.8
3034.5858	4674.6
3036.9938	4655.6
3039.40034	4642.9
3041.80542	4622.8
3044.20903	4638.5
3046.61118	4625.6
3049.01187	4595.1
3051.4111	4596.8
3053.80888	4577.5
3056.20519	4563.8
3058.60005	4559.6
3060.99345	4557.3
3063.3854	4546.7
3065.7759	4524.5
3068.16494	4517.5
3070.55254	4504.8
3072.93868	4488.6
3075.32338	4472.4
3077.70662	4467.3
3080.08842	4466.7
3082.46878	4462.5
3084.84769	4460.2
3087.22515	4443.1
3089.60118	4442.4
3091.97576	4445.8
3094.3489	4431.1
3096.72061	4424.9
3099.09087	4401.3
3101.4597	4404.3
3103.82709	4420.6
3106.19305	4410.9
3108.55757	4402.7
3110.92066	4404.5
3113.28232	4379.4
3115.64255	4371.3
3118.00134	4369.6
3120.35871	4367.8
3122.71466	4348.7
3125.06917	4339.6
3127.42226	4335.7
3129.77393	4315.3
3132.12417	4301.6
3134.47299	4310.5
3136.82039	4296.9
3139.16636	4312.4
3141.51092	4297.9
3143.85406	4293.5
3146.19579	4298
3148.53609	4294.7
3150.87499	4295.7
3153.21246	4276.1
3155.54853	4282.7
3157.88318	4285.1
3160.21642	4270.2
3162.54826	4268.6
3164.87868	4268.9
3167.2077	4259.4
3169.5353	4243.7
3171.86151	4249.7
3174.18631	4253.9
3176.5097	4219.7
3178.83169	4222.7
3181.15228	4214.6
3183.47147	4201
3185.78926	4183.7
3188.10565	4170
3190.42065	4163.6
3192.73424	4167.1
3195.04645	4155.3
3197.35725	4153.4
3199.66667	4148.4
3201.97469	4141.6
3204.28132	4140.1
3206.58656	4160.1
3208.8904	4149
3211.19287	4154.2
3213.49394	4162.7
3215.79363	4151
3218.09193	4142.9
3220.38884	4155.9
3222.68438	4140.8
3224.97853	4146.8
3227.2713	4131.8
3229.56269	4116.7
3231.8527	4119.1
3234.14133	4115.9
3236.42858	4087.9
3238.71446	4098.5
3240.99896	4086.5
3243.28209	4066.4
3245.56384	4072.5
3247.84423	4069.9
3250.12324	4055.6
3252.40088	4053
3254.67715	4035.4
3256.95205	4035
3259.22558	4034.3
3261.49775	4020.7
3263.76855	4026.4
3266.03799	4034.7
3268.30606	4044.6
3270.57277	4024.2
3272.83812	4018.6
3275.10211	4005.4
3277.36474	3981.8
3279.62601	3990.6
3281.88593	3955.1
3284.14448	3969.2
3286.40168	3964.1
3288.65753	3970
3290.91202	3983.5
3293.16516	3950.6
3295.41695	3953.5
3297.66738	3932
3299.91647	3931.6
3302.16421	3899
3304.4106	3876.2
3306.65564	3851.5
3308.89933	3805.9
3311.14169	3777.1
3313.38269	3746.4
3315.62236	3731.5
3317.86068	3712.6
3320.09766	3681.2
3322.3333	3646.6
3324.5676	3629.6
3326.80056	3579.3
3329.03219	3553.5
3331.26248	1.2
3333.49143	-0.3
3335.71905	-0.3
