Data from AgNPs_UA_50uM_CRN_500uM_SU_RamanShift__35__14-01-40-320.txt Node

Date: Thu Aug 04 14:01:40 BST 2022
User: TCL
Spectrometer: QEP01345
Trigger mode: 4
Integration Time (sec): 1.000000E0
Scans to average: 10
Electric dark correction enabled: true
Nonlinearity correction enabled: false
Boxcar width: 0
XAxis mode: Raman Shifts
Number of Pixels in Spectrum: 1044
>>>>>Begin Spectral Data<<<<<
46.04893	1.725
50.45542	-0.275
54.85868	-0.275
59.25871	-1.075
63.6555	14.425
68.04907	13.425
72.43941	14.125
76.82654	15.025
81.21044	15.225
85.59113	17.225
89.96862	17.825
94.34289	17.625
98.71396	17.625
103.08183	17.225
107.4465	16.025
111.80798	17.125
116.16626	18.925
120.52136	19.625
124.87327	22.525
129.222	24.925
133.56755	27.225
137.90993	28.025
142.24913	29.725
146.58517	35.925
150.91804	40.225
155.24774	46.425
159.57429	59.025
163.89768	79.725
168.21792	103.625
172.53501	143.825
176.84895	204.825
181.15975	289.625
185.46741	411.825
189.77193	565.225
194.07331	764.425
198.37157	982.725
202.6667	1219.825
206.9587	1471.025
211.24758	1707.325
215.53334	1961.425
219.81599	2220.225
224.09553	2511.025
228.37195	2835.625
232.64527	3178.225
236.91549	3525.925
241.18261	3837.625
245.44663	4087.025
249.70755	4273.725
253.96539	4444.925
258.22014	4578.925
262.4718	4702.325
266.72039	4767.925
270.96589	4807.025
275.20832	4787.025
279.44768	4698.325
283.68397	4605.725
287.91719	4583.425
292.14735	4575.025
296.37445	4655.925
300.59849	4800.725
304.81948	4979.225
309.03742	5168.225
313.25231	5283.325
317.46415	5200.525
321.67296	5017.425
325.87872	4774.725
330.08145	4665.125
334.28114	4658.725
338.47781	4706.225
342.67145	4829.825
346.86207	4972.525
351.04966	5171.425
355.23424	5388.125
359.4158	5537.825
363.59435	5598.825
367.76989	5602.125
371.94243	5570.225
376.11196	5537.825
380.27849	5515.125
384.44203	5510.625
388.60257	5505.325
392.76012	5536.325
396.91468	5613.725
401.06626	5688.625
405.21485	5743.125
409.36047	5649.925
413.50311	5455.725
417.64277	5272.225
421.77947	5152.225
425.9132	5132.325
430.04396	5126.225
434.17176	5144.025
438.2966	5210.225
442.41849	5279.125
446.53742	5382.525
450.6534	5485.625
454.76644	5536.225
458.87653	5565.125
462.98368	5562.725
467.08789	5520.625
471.18916	5445.825
475.2875	5365.925
479.38291	5278.325
483.4754	5220.725
487.56496	5194.725
491.6516	5181.525
495.73531	5177.125
499.81612	5197.925
503.89401	5224.725
507.96899	5281.625
512.04106	5318.825
516.11023	5386.425
520.1765	5399.125
524.23987	5448.725
528.30034	5418.225
532.35792	5385.325
536.41261	5355.425
540.46441	5283.825
544.51333	5268.125
548.55936	5315.125
552.60252	5381.425
556.64279	5454.625
560.6802	5508.025
564.71473	5583.125
568.7464	5678.525
572.7752	5659.225
576.80114	5508.425
580.82422	5392.425
584.84444	5327.425
588.86181	5331.225
592.87633	5346.825
596.888	5447.525
600.89682	5713.725
604.9028	6338.225
608.90594	7683.625
612.90624	9058.425
616.90371	8385.125
620.89834	6490.325
624.89015	5698.325
628.87913	5588.025
632.86528	5709.025
636.84862	5781.925
640.82913	5702.825
644.80683	5502.625
648.78172	5378.725
652.75379	5399.225
656.72306	5560.125
660.68952	5722.025
664.65319	5685.125
668.61405	5538.125
672.57211	5556.325
676.52738	5543.625
680.47986	5491.725
684.42955	5392.925
688.37646	5366.125
692.32058	5394.425
696.26192	5480.125
700.20048	5556.625
704.13626	5569.325
708.06928	5561.625
711.99952	5504.925
715.927	5515.425
719.85171	5530.825
723.77365	5541.825
727.69284	5529.025
731.60928	5480.325
735.52295	5448.825
739.43388	5472.625
743.34206	5490.525
747.24749	5504.125
751.15017	5511.825
755.05012	5560.125
758.94733	5784.525
762.8418	6274.125
766.73354	7060.925
770.62254	7641.625
774.50882	7762.725
778.39237	7432.125
782.27321	6885.625
786.15132	6270.325
790.02671	5843.125
793.89938	5660.625
797.76935	5549.025
801.6366	5502.225
805.50115	5495.925
809.36299	5472.225
813.22213	5435.925
817.07857	5447.625
820.93231	5452.225
824.78336	5463.825
828.63172	5502.425
832.47738	5509.625
836.32036	5473.925
840.16066	5463.525
843.99827	5446.525
847.8332	5461.925
851.66546	5460.525
855.49504	5473.825
859.32195	5493.525
863.1462	5475.625
866.96777	5473.025
870.78668	5479.525
874.60293	5502.425
878.41652	5539.725
882.22745	5548.925
886.03573	5573.825
889.84136	5573.325
893.64433	5555.925
897.44466	5555.925
901.24235	5538.625
905.0374	5531.125
908.8298	5519.725
912.61957	5487.525
916.40671	5496.025
920.19121	5528.825
923.97308	5545.525
927.75233	5583.225
931.52895	5628.425
935.30295	5586.025
939.07433	5506.225
942.84309	5445.325
946.60924	5412.225
950.37278	5412.325
954.13371	5394.225
957.89203	5394.425
961.64774	5388.325
965.40086	5387.425
969.15137	5378.525
972.89929	5384.725
976.64461	5365.325
980.38733	5378.225
984.12747	5391.025
987.86502	5386.625
991.59999	5418.825
995.33237	5454.225
999.06217	5500.425
1002.78939	5559.125
1006.51404	5675.225
1010.23611	5751.025
1013.95561	5785.925
1017.67255	5797.225
1021.38692	5759.625
1025.09872	5688.125
1028.80796	5631.025
1032.51465	5614.925
1036.21877	5623.025
1039.92035	5656.625
1043.61937	5672.725
1047.31584	5695.325
1051.00976	5701.525
1054.70114	5713.525
1058.38998	5728.225
1062.07627	5750.325
1065.76003	5771.925
1069.44126	5857.125
1073.11995	5944.225
1076.79611	6066.725
1080.46974	6155.325
1084.14085	6228.025
1087.80943	6287.525
1091.47549	6323.225
1095.13903	6312.125
1098.80005	6255.425
1102.45857	6214.125
1106.11456	6186.525
1109.76805	6133.925
1113.41903	6147.325
1117.06751	6230.525
1120.71348	6355.425
1124.35696	6527.725
1127.99793	6635.825
1131.63641	6550.525
1135.2724	6335.225
1138.90589	6173.625
1142.5369	6065.425
1146.16542	6042.025
1149.79145	5991.425
1153.415	5931.025
1157.03607	5894.025
1160.65467	5937.025
1164.27079	6051.525
1167.88443	6210.625
1171.49561	6459.225
1175.10432	6894.125
1178.71056	7427.525
1182.31434	7880.625
1185.91565	8022.225
1189.51451	7906.725
1193.11091	7705.225
1196.70485	7517.625
1200.29634	7355.725
1203.88538	7192.825
1207.47197	6928.725
1211.05612	6704.525
1214.63782	6531.325
1218.21708	6383.525
1221.79391	6263.325
1225.36829	6212.025
1228.94024	6197.225
1232.50976	6175.625
1236.07685	6213.325
1239.6415	6235.725
1243.20374	6265.425
1246.76355	6280.125
1250.32093	6346.825
1253.8759	6423.025
1257.42845	6575.025
1260.97859	6750.425
1264.52631	6892.725
1268.07163	7008.125
1271.61453	7077.525
1275.15503	7097.425
1278.69312	7077.525
1282.22882	7081.725
1285.76211	7166.225
1289.29301	7308.625
1292.82151	7411.625
1296.34761	7547.325
1299.87133	7791.425
1303.39266	8199.225
1306.9116	8835.325
1310.42815	9506.625
1313.94233	9687.225
1317.45412	9275.725
1320.96354	8675.525
1324.47058	8161.425
1327.97525	7709.025
1331.47754	7461.625
1334.97747	7383.425
1338.47502	7475.525
1341.97022	7701.125
1345.46305	8165.025
1348.95352	8792.825
1352.44163	9498.925
1355.92738	10274.625
1359.41078	11184.825
1362.89183	11954.425
1366.37053	11498.125
1369.84688	9891.425
1373.32088	8430.925
1376.79254	7598.125
1380.26186	7212.425
1383.72883	6999.925
1387.19347	6763.325
1390.65578	6554.425
1394.11575	6387.825
1397.57339	6265.725
1401.0287	6180.825
1404.48168	6162.525
1407.93234	6169.525
1411.38068	6228.825
1414.82669	6309.425
1418.27039	6321.125
1421.71177	6317.225
1425.15083	6249.425
1428.58758	6211.825
1432.02203	6217.025
1435.45416	6250.725
1438.88399	6276.625
1442.31151	6266.925
1445.73673	6307.425
1449.15965	6333.325
1452.58027	6291.025
1455.9986	6275.725
1459.41463	6248.225
1462.82837	6282.225
1466.23982	6379.825
1469.64898	6520.125
1473.05586	6617.825
1476.46045	6682.125
1479.86276	6726.325
1483.26279	6819.625
1486.66054	6971.825
1490.05602	7165.125
1493.44922	7493.925
1496.84016	7991.525
1500.22882	8760.625
1503.61521	9726.825
1506.99934	10641.225
1510.38121	11220.825
1513.76081	11008.725
1517.13816	10160.725
1520.51324	9025.525
1523.88607	8078.125
1527.25665	7547.625
1530.62498	7269.825
1533.99105	7134.525
1537.35488	7050.725
1540.71647	6986.225
1544.07581	6912.125
1547.4329	6858.725
1550.78776	6812.725
1554.14038	6771.125
1557.49077	6765.625
1560.83892	6851.425
1564.18484	7028.025
1567.52853	7256.125
1570.86999	7430.625
1574.20922	7485.325
1577.54624	7394.025
1580.88103	7060.325
1584.2136	6685.225
1587.54395	6460.625
1590.87208	6446.225
1594.19801	6600.425
1597.52172	6795.825
1600.84321	6864.625
1604.16251	6813.525
1607.47959	6690.925
1610.79447	6531.625
1614.10715	6290.225
1617.41763	6060.425
1620.7259	5889.525
1624.03199	5793.425
1627.33587	5768.325
1630.63757	5801.125
1633.93707	5938.925
1637.23439	6237.425
1640.52951	6686.125
1643.82246	7337.825
1647.11321	8048.025
1650.40179	8468.025
1653.68819	8206.425
1656.97241	7415.225
1660.25446	6564.925
1663.53433	5971.025
1666.81203	5628.425
1670.08756	5426.125
1673.36092	5293.225
1676.63211	5223.825
1679.90115	5170.025
1683.16801	5114.225
1686.43272	5070.625
1689.69527	5038.625
1692.95567	4996.525
1696.2139	5008.225
1699.46999	4982.925
1702.72392	4989.025
1705.97571	4974.625
1709.22535	4984.225
1712.47284	4989.625
1715.71819	4978.725
1718.96139	4986.025
1722.20246	4962.125
1725.44139	4963.225
1728.67818	4919.025
1731.91284	4900.925
1735.14537	4865.425
1738.37576	4852.625
1741.60403	4836.525
1744.83017	4836.325
1748.05418	4823.525
1751.27607	4816.525
1754.49584	4795.725
1757.71349	4772.125
1760.92903	4785.525
1764.14244	4784.125
1767.35375	4784.725
1770.56294	4768.625
1773.77002	4751.625
1776.97499	4738.525
1780.17785	4729.325
1783.37861	4698.225
1786.57727	4701.525
1789.77382	4693.225
1792.96828	4694.425
1796.16064	4670.825
1799.3509	4666.125
1802.53907	4678.425
1805.72514	4667.625
1808.90913	4638.725
1812.09102	4621.925
1815.27083	4630.425
1818.44856	4601.325
1821.6242	4613.125
1824.79776	4604.825
1827.96924	4589.725
1831.13864	4556.325
1834.30597	4558.925
1837.47122	4559.025
1840.6344	4553.625
1843.7955	4548.225
1846.95454	4550.625
1850.11151	4570.625
1853.26642	4566.725
1856.41926	4542.425
1859.57004	4549.825
1862.71876	4528.425
1865.86542	4521.425
1869.01003	4522.225
1872.15258	4522.325
1875.29308	4522.425
1878.43152	4496.425
1881.56792	4509.025
1884.70227	4499.825
1887.83457	4486.325
1890.96482	4483.725
1894.09304	4480.425
1897.21921	4478.325
1900.34335	4449.625
1903.46544	4445.325
1906.58551	4438.925
1909.70353	4430.025
1912.81953	4425.225
1915.93349	4411.325
1919.04543	4416.525
1922.15534	4415.425
1925.26322	4400.225
1928.36908	4400.325
1931.47292	4395.125
1934.57473	4367.325
1937.67453	4349.225
1940.77232	4342.925
1943.86808	4325.625
1946.96184	4310.225
1950.05358	4308.425
1953.14331	4298.825
1956.23103	4280.425
1959.31675	4264.525
1962.40046	4257.825
1965.48217	4240.225
1968.56188	4242.925
1971.63959	4223.125
1974.7153	4226.925
1977.78901	4196.325
1980.86073	4203.325
1983.93046	4184.825
1986.99819	4164.325
1990.06394	4146.325
1993.1277	4129.725
1996.18947	4121.125
1999.24925	4106.625
2002.30706	4085.025
2005.36288	4059.725
2008.41672	4070.125
2011.46859	4046.525
2014.51848	4032.725
2017.56639	4036.925
2020.61233	4032.025
2023.6563	4022.025
2026.6983	4001.025
2029.73833	3967.425
2032.7764	3971.525
2035.8125	3963.325
2038.84664	3954.425
2041.87881	3948.625
2044.90903	3927.125
2047.93729	3921.625
2050.96359	3913.425
2053.98794	3917.225
2057.01034	3905.225
2060.03078	3896.325
2063.04927	3912.325
2066.06582	3899.325
2069.08042	3890.425
2072.09307	3879.325
2075.10378	3882.625
2078.11255	3875.125
2081.11938	3879.025
2084.12426	3890.625
2087.12722	3883.725
2090.12824	3883.425
2093.12732	3875.325
2096.12447	3878.325
2099.11969	3869.525
2102.11299	3875.125
2105.10435	3887.325
2108.09379	3869.125
2111.08131	3883.625
2114.0669	3869.325
2117.05057	3883.825
2120.03233	3873.825
2123.01216	3871.425
2125.99008	3881.925
2128.96609	3897.025
2131.94018	3879.225
2134.91236	3897.325
2137.88263	3887.225
2140.851	3886.525
2143.81746	3890.125
2146.78201	3890.425
2149.74466	3882.825
2152.7054	3886.325
2155.66425	3885.725
2158.6212	3884.025
2161.57625	3866.725
2164.52941	3877.925
2167.48067	3867.325
2170.43004	3872.925
2173.37752	3865.925
2176.32311	3862.425
2179.26681	3866.625
2182.20863	3867.625
2185.14856	3866.625
2188.08661	3857.225
2191.02278	3855.625
2193.95707	3842.725
2196.88948	3847.625
2199.82001	3848.425
2202.74867	3839.025
2205.67545	3835.925
2208.60037	3834.925
2211.52341	3816.225
2214.44458	3822.925
2217.36388	3807.025
2220.28132	3795.925
2223.1969	3774.225
2226.11061	3779.725
2229.02246	3763.725
2231.93245	3771.425
2234.84058	3767.325
2237.74686	3741.725
2240.65128	3752.325
2243.55385	3758.225
2246.45456	3723.825
2249.35343	3730.325
2252.25044	3743.625
2255.14561	3720.525
2258.03893	3719.825
2260.93041	3708.325
2263.82004	3714.325
2266.70783	3697.125
2269.59378	3687.525
2272.4779	3677.525
2275.36017	3657.225
2278.24061	3657.725
2281.11922	3640.525
2283.996	3638.225
2286.87094	3625.725
2289.74405	3618.925
2292.61534	3627.525
2295.4848	3630.925
2298.35243	3617.025
2301.21824	3614.825
2304.08223	3603.725
2306.94439	3604.325
2309.80474	3611.125
2312.66327	3597.425
2315.51999	3597.525
2318.37489	3580.725
2321.22797	3573.025
2324.07925	3578.925
2326.92871	3558.625
2329.77637	3562.825
2332.62222	3550.625
2335.46626	3529.225
2338.3085	3530.225
2341.14893	3549.825
2343.98756	3538.625
2346.8244	3524.825
2349.65943	3511.625
2352.49267	3509.325
2355.32411	3514.525
2358.15376	3516.825
2360.98161	3490.925
2363.80768	3523.925
2366.63195	3503.025
2369.45444	3515.125
2372.27514	3510.225
2375.09405	3515.525
2377.91118	3506.425
2380.72652	3487.125
2383.54009	3468.125
2386.35187	3467.725
2389.16188	3455.825
2391.97011	3456.525
2394.77657	3438.425
2397.58125	3417.925
2400.38416	3429.525
2403.18529	3427.425
2405.98466	3424.725
2408.78226	3411.125
2411.57809	3418.125
2414.37216	3395.725
2417.16446	3387.825
2419.955	3391.625
2422.74378	3401.525
2425.5308	3390.225
2428.31606	3389.425
2431.09956	3382.125
2433.88131	3382.525
2436.6613	3382.325
2439.43954	3358.325
2442.21603	3375.525
2444.99077	3361.025
2447.76377	3350.725
2450.53501	3345.725
2453.30451	3343.825
2456.07226	3355.025
2458.83827	3343.725
2461.60254	3344.325
2464.36507	3328.125
2467.12586	3330.625
2469.88492	3340.525
2472.64224	3333.225
2475.39782	3320.425
2478.15167	3328.125
2480.90379	3313.125
2483.65417	3315.525
2486.40283	3335.725
2489.14976	3319.725
2491.89497	3318.425
2494.63845	3314.425
2497.3802	3312.725
2500.12024	3312.825
2502.85855	3304.025
2505.59514	3295.925
2508.33002	3290.025
2511.06318	3282.825
2513.79462	3263.525
2516.52435	3265.925
2519.25237	3239.125
2521.97867	3230.925
2524.70327	3237.425
2527.42616	3242.625
2530.14734	3233.625
2532.86681	3228.525
2535.58458	3234.825
2538.30065	3216.125
2541.01501	3216.225
2543.72768	3220.925
2546.43864	3219.125
2549.14791	3205.925
2551.85548	3196.525
2554.56136	3197.825
2557.26554	3187.725
2559.96803	3194.325
2562.66883	3179.125
2565.36794	3180.825
2568.06536	3170.125
2570.7611	3150.125
2573.45514	3151.725
2576.14751	3147.625
2578.83819	3134.025
2581.52719	3112.825
2584.21451	3111.725
2586.90015	3113.025
2589.58411	3108.425
2592.2664	3091.425
2594.94701	3097.825
2597.62594	3099.825
2600.30321	3089.325
2602.9788	3098.125
2605.65273	3077.025
2608.32498	3080.625
2610.99557	3082.425
2613.66449	3075.525
2616.33175	3072.125
2618.99734	3068.025
2621.66128	3053.425
2624.32355	3043.925
2626.98416	3043.925
2629.64311	3028.925
2632.30041	3017.325
2634.95605	3010.325
2637.61004	2997.425
2640.26238	2982.925
2642.91306	2994.325
2645.56209	3001.025
2648.20948	2989.325
2650.85521	2978.325
2653.4993	2994.325
2656.14175	2983.225
2658.78255	2988.025
2661.42171	2990.225
2664.05923	2990.725
2666.6951	2984.825
2669.32934	2990.825
2671.96194	2988.625
2674.59291	2971.825
2677.22224	2977.825
2679.84993	2977.425
2682.476	2982.525
2685.10043	2971.325
2687.72324	2972.025
2690.34441	2977.125
2692.96396	2971.725
2695.58188	2957.125
2698.19818	2967.125
2700.81285	2964.025
2703.4259	2960.125
2706.03733	2969.825
2708.64714	2955.925
2711.25533	2952.225
2713.86191	2946.425
2716.46687	2947.725
2719.07021	2948.625
2721.67194	2948.925
2724.27206	2958.025
2726.87057	2953.525
2729.46747	2945.625
2732.06276	2934.125
2734.65644	2939.725
2737.24852	2951.925
2739.83899	2935.525
2742.42786	2939.025
2745.01513	2926.625
2747.60079	2924.125
2750.18486	2910.525
2752.76733	2917.825
2755.3482	2909.425
2757.92747	2906.825
2760.50515	2898.325
2763.08123	2895.925
2765.65573	2885.425
2768.22863	2877.625
2770.79994	2874.625
2773.36967	2863.425
2775.9378	2858.925
2778.50435	2869.825
2781.06932	2856.525
2783.6327	2861.325
2786.1945	2851.325
2788.75471	2839.425
2791.31335	2843.025
2793.87041	2835.225
2796.42589	2833.625
2798.97979	2830.125
2801.53212	2825.625
2804.08288	2810.125
2806.63206	2807.125
2809.17967	2794.725
2811.72571	2786.025
2814.27018	2804.025
2816.81308	2783.625
2819.35442	2787.425
2821.89419	2775.125
2824.43239	2762.625
2826.96904	2762.525
2829.50412	2758.925
2832.03763	2748.925
2834.56959	2742.925
2837.1	2738.025
2839.62884	2721.725
2842.15613	2726.625
2844.68186	2727.825
2847.20604	2721.825
2849.72867	2712.325
2852.24974	2720.325
2854.76927	2705.225
2857.28724	2699.925
2859.80367	2697.325
2862.31855	2700.525
2864.83189	2696.125
2867.34368	2689.025
2869.85393	2686.425
2872.36264	2686.125
2874.8698	2691.925
2877.37543	2684.725
2879.87952	2673.225
2882.38207	2665.425
2884.88308	2666.425
2887.38256	2664.025
2889.88051	2669.925
2892.37692	2660.625
2894.8718	2666.125
2897.36515	2644.425
2899.85698	2648.425
2902.34727	2652.425
2904.83604	2661.725
2907.32328	2658.425
2909.809	2670.325
2912.29319	2659.925
2914.77587	2665.925
2917.25702	2665.625
2919.73665	2652.225
2922.21476	2672.425
2924.69136	2652.125
2927.16644	2649.925
2929.64	2647.125
2932.11205	2636.825
2934.58258	2630.625
2937.05161	2638.425
2939.51912	2633.825
2941.98513	2619.725
2944.44962	2625.525
2946.91261	2609.825
2949.37409	2620.925
2951.83407	2617.325
2954.29254	2614.925
2956.74951	2610.525
2959.20498	2606.825
2961.65895	2590.225
2964.11142	2597.125
2966.56239	2593.125
2969.01186	2586.825
2971.45984	2593.725
2973.90632	2593.925
2976.35131	2574.125
2978.7948	2585.225
2981.23681	2586.525
2983.67732	2577.225
2986.11635	2571.625
2988.55388	2558.025
2990.98993	2549.225
2993.4245	2554.225
2995.85758	2548.625
2998.28917	2542.325
3000.71928	2539.425
3003.14791	2523.525
3005.57506	2521.025
3008.00073	2504.125
3010.42493	2511.825
3012.84764	2517.225
3015.26888	2508.625
3017.68865	2495.725
3020.10694	2487.625
3022.52376	2481.925
3024.9391	2471.825
3027.35298	2463.125
3029.76539	2457.225
3032.17632	2464.125
3034.5858	2447.925
3036.9938	2461.025
3039.40034	2442.725
3041.80542	2448.525
3044.20903	2435.725
3046.61118	2434.525
3049.01187	2429.825
3051.4111	2431.725
3053.80888	2424.125
3056.20519	2412.525
3058.60005	2403.625
3060.99345	2409.325
3063.3854	2388.625
3065.7759	2397.025
3068.16494	2386.025
3070.55254	2377.325
3072.93868	2367.025
3075.32338	2371.925
3077.70662	2356.525
3080.08842	2351.525
3082.46878	2355.025
3084.84769	2336.625
3087.22515	2345.225
3089.60118	2342.225
3091.97576	2339.325
3094.3489	2337.925
3096.72061	2336.625
3099.09087	2334.225
3101.4597	2346.625
3103.82709	2332.825
3106.19305	2319.325
3108.55757	2323.625
3110.92066	2306.525
3113.28232	2319.225
3115.64255	2312.325
3118.00134	2310.325
3120.35871	2302.725
3122.71466	2290.025
3125.06917	2283.525
3127.42226	2280.925
3129.77393	2281.525
3132.12417	2282.025
3134.47299	2265.625
3136.82039	2279.425
3139.16636	2266.525
3141.51092	2275.625
3143.85406	2254.225
3146.19579	2260.425
3148.53609	2250.425
3150.87499	2261.825
3153.21246	2254.825
3155.54853	2266.125
3157.88318	2257.925
3160.21642	2273.125
3162.54826	2265.025
3164.87868	2257.625
3167.2077	2261.725
3169.5353	2244.325
3171.86151	2246.825
3174.18631	2253.125
3176.5097	2245.125
3178.83169	2248.925
3181.15228	2242.825
3183.47147	2231.525
3185.78926	2238.425
3188.10565	2224.225
3190.42065	2221.025
3192.73424	2211.725
3195.04645	2203.125
3197.35725	2192.425
3199.66667	2208.025
3201.97469	2203.925
3204.28132	2202.625
3206.58656	2202.525
3208.8904	2202.925
3211.19287	2212.125
3213.49394	2207.925
3215.79363	2206.025
3218.09193	2196.925
3220.38884	2196.725
3222.68438	2193.225
3224.97853	2192.625
3227.2713	2200.025
3229.56269	2175.225
3231.8527	2191.825
3234.14133	2183.025
3236.42858	2173.325
3238.71446	2170.625
3240.99896	2143.925
3243.28209	2152.325
3245.56384	2158.525
3247.84423	2152.625
3250.12324	2147.425
3252.40088	2154.325
3254.67715	2134.825
3256.95205	2135.525
3259.22558	2143.725
3261.49775	2131.025
3263.76855	2135.325
3266.03799	2125.525
3268.30606	2127.825
3270.57277	2132.325
3272.83812	2113.425
3275.10211	2113.025
3277.36474	2104.125
3279.62601	2099.125
3281.88593	2109.725
3284.14448	2095.125
3286.40168	2100.925
3288.65753	2097.925
3290.91202	2093.125
3293.16516	2083.325
3295.41695	2085.325
3297.66738	2072.725
3299.91647	2070.325
3302.16421	2045.225
3304.4106	2037.625
3306.65564	2018.825
3308.89933	2013.925
3311.14169	1983.825
3313.38269	1978.125
3315.62236	1971.725
3317.86068	1940.325
3320.09766	1932.325
3322.3333	1916.525
3324.5676	1904.425
3326.80056	1867.225
3329.03219	1857.825
3331.26248	0.325
3333.49143	-0.375
3335.71905	0.225
