Data from AgNPs_UA_5uM_CRN_500uM_SU_RamanShift__226__12-07-03-185.txt Node

Date: Thu Aug 04 12:07:03 BST 2022
User: TCL
Spectrometer: QEP01345
Trigger mode: 4
Integration Time (sec): 1.000000E0
Scans to average: 10
Electric dark correction enabled: true
Nonlinearity correction enabled: false
Boxcar width: 0
XAxis mode: Raman Shifts
Number of Pixels in Spectrum: 1044
>>>>>Begin Spectral Data<<<<<
46.04893	-0.2
50.45542	0.2
54.85868	0.7
59.25871	-1.8
63.6555	-58.7
68.04907	-41.9
72.43941	-72.9
76.82654	-57.1
81.21044	-57.7
85.59113	-50.7
89.96862	-74.8
94.34289	-56.4
98.71396	-77.5
103.08183	-58.5
107.4465	-50.5
111.80798	-57.1
116.16626	-44.4
120.52136	-75.8
124.87327	-52.3
129.222	-64.4
133.56755	-50
137.90993	-64.4
142.24913	-51
146.58517	-44.5
150.91804	-41.5
155.24774	-30.6
159.57429	-8.8
163.89768	-4.7
168.21792	40
172.53501	56.4
176.84895	137.4
181.15975	271.4
185.46741	426.2
189.77193	598.3
194.07331	887
198.37157	1178.4
202.6667	1451.6
206.9587	1784.5
211.24758	2105.3
215.53334	2416
219.81599	2773
224.09553	3189.4
228.37195	3610.7
232.64527	4075
236.91549	4532.4
241.18261	4897.4
245.44663	5177.3
249.70755	5342.8
253.96539	5467.1
258.22014	5579.7
262.4718	5639.7
266.72039	5697.7
270.96589	5650.5
275.20832	5565.8
279.44768	5455.2
283.68397	5347.5
287.91719	5289.6
292.14735	5328.4
296.37445	5500.5
300.59849	5778.2
304.81948	6146.5
309.03742	6502.9
313.25231	6761.6
317.46415	6697.2
321.67296	6312.7
325.87872	5905.4
330.08145	5705.8
334.28114	5653.3
338.47781	5718
342.67145	5858.5
346.86207	6104.5
351.04966	6456.9
355.23424	6864.3
359.4158	7113.9
363.59435	7155.5
367.76989	7079.8
371.94243	6957
376.11196	6824
380.27849	6765.5
384.44203	6691.6
388.60257	6658.2
392.76012	6658.8
396.91468	6768.4
401.06626	6925.7
405.21485	6964.2
409.36047	6804
413.50311	6465.8
417.64277	6196.4
421.77947	5968.5
425.9132	5898.3
430.04396	5886.3
434.17176	5938.7
438.2966	6018.4
442.41849	6095.7
446.53742	6223.7
450.6534	6335.7
454.76644	6400.7
458.87653	6406.8
462.98368	6370.4
467.08789	6302.1
471.18916	6213.2
475.2875	6091.5
479.38291	5979.6
483.4754	5881.7
487.56496	5855.4
491.6516	5785
495.73531	5805.7
499.81612	5839.5
503.89401	5914.2
507.96899	5973.2
512.04106	6086.5
516.11023	6174.9
520.1765	6255.7
524.23987	6262.8
528.30034	6262.8
532.35792	6203.5
536.41261	6154.3
540.46441	6027
544.51333	5990.3
548.55936	6051.8
552.60252	6166.4
556.64279	6280.8
560.6802	6399
564.71473	6518.7
568.7464	6726.8
572.7752	6712.3
576.80114	6387.8
580.82422	6152.7
584.84444	6055
588.86181	6023.5
592.87633	6062.3
596.888	6184.9
600.89682	6543
604.9028	7524.5
608.90594	9635
612.90624	12008.5
616.90371	11160.6
620.89834	8040.3
624.89015	6696.8
628.87913	6472.6
632.86528	6627.1
636.84862	6761.7
640.82913	6683.3
644.80683	6308.7
648.78172	6102.6
652.75379	6161.4
656.72306	6389.1
660.68952	6639.1
664.65319	6532
668.61405	6295.7
672.57211	6225.2
676.52738	6236.9
680.47986	6134.3
684.42955	6021.5
688.37646	5971.2
692.32058	5992.2
696.26192	6070.8
700.20048	6167.3
704.13626	6219.6
708.06928	6158.6
711.99952	6136.2
715.927	6104.1
719.85171	6129.2
723.77365	6203
727.69284	6175.2
731.60928	6147.1
735.52295	6113.2
739.43388	6160.7
743.34206	6161.5
747.24749	6196.2
751.15017	6216.6
755.05012	6292.7
758.94733	6669
762.8418	7535.2
766.73354	8892.5
770.62254	9907.9
774.50882	9993.1
778.39237	9508.5
782.27321	8540
786.15132	7472
790.02671	6771.6
793.89938	6387.7
797.76935	6264.2
801.6366	6171.9
805.50115	6126.5
809.36299	6103.8
813.22213	6117.3
817.07857	6125
820.93231	6100.2
824.78336	6141.3
828.63172	6160.1
832.47738	6146.6
836.32036	6158.2
840.16066	6123
843.99827	6092.1
847.8332	6095.2
851.66546	6108.9
855.49504	6102.4
859.32195	6137.8
863.1462	6133.8
866.96777	6136
870.78668	6128.9
874.60293	6139.1
878.41652	6161
882.22745	6236.9
886.03573	6260.4
889.84136	6253.2
893.64433	6260.6
897.44466	6254
901.24235	6248.6
905.0374	6238.9
908.8298	6163.3
912.61957	6154.5
916.40671	6110.8
920.19121	6138.9
923.97308	6254.8
927.75233	6295.4
931.52895	6370.9
935.30295	6346.9
939.07433	6190.3
942.84309	6070.8
946.60924	6044
950.37278	6008.2
954.13371	5998.3
957.89203	5997.3
961.64774	5998
965.40086	5986.9
969.15137	5968
972.89929	5992
976.64461	6002
980.38733	6012.3
984.12747	6003.9
987.86502	6041.3
991.59999	6054.3
995.33237	6123.2
999.06217	6206.8
1002.78939	6258.9
1006.51404	6402.7
1010.23611	6499.7
1013.95561	6553.9
1017.67255	6571.9
1021.38692	6547.6
1025.09872	6477.2
1028.80796	6387.6
1032.51465	6393.1
1036.21877	6376.6
1039.92035	6441.5
1043.61937	6453
1047.31584	6511.1
1051.00976	6534.5
1054.70114	6554.6
1058.38998	6548.5
1062.07627	6550.1
1065.76003	6585.4
1069.44126	6665.4
1073.11995	6725.3
1076.79611	6873.6
1080.46974	7012.9
1084.14085	7192.6
1087.80943	7331.7
1091.47549	7377.2
1095.13903	7286.1
1098.80005	7138.4
1102.45857	7073.3
1106.11456	7016.9
1109.76805	6971.6
1113.41903	7091.3
1117.06751	7235.7
1120.71348	7530.2
1124.35696	7913.8
1127.99793	8189.4
1131.63641	8035.7
1135.2724	7632.3
1138.90589	7318.9
1142.5369	7114.4
1146.16542	7019
1149.79145	6901.4
1153.415	6864.8
1157.03607	6863.2
1160.65467	6949.8
1164.27079	7190
1167.88443	7422.1
1171.49561	7851
1175.10432	8490.3
1178.71056	9414.6
1182.31434	10216.1
1185.91565	10467
1189.51451	10318.5
1193.11091	10068.1
1196.70485	9798
1200.29634	9553.4
1203.88538	9293.9
1207.47197	8834.7
1211.05612	8321.1
1214.63782	7907
1218.21708	7672.1
1221.79391	7512.7
1225.36829	7416.5
1228.94024	7430.7
1232.50976	7439.5
1236.07685	7476.6
1239.6415	7514.8
1243.20374	7528.7
1246.76355	7542.8
1250.32093	7617.4
1253.8759	7697.5
1257.42845	7870.7
1260.97859	8070.4
1264.52631	8312.3
1268.07163	8492.6
1271.61453	8617.1
1275.15503	8671.5
1278.69312	8667.2
1282.22882	8743.3
1285.76211	8925.5
1289.29301	9185.9
1292.82151	9465.4
1296.34761	9656.2
1299.87133	10075.4
1303.39266	10812.1
1306.9116	11947.4
1310.42815	13213
1313.94233	13653.3
1317.45412	12874.3
1320.96354	11705.9
1324.47058	10691.9
1327.97525	9910.4
1331.47754	9503.8
1334.97747	9376.9
1338.47502	9505.4
1341.97022	9872.8
1345.46305	10616.1
1348.95352	11702.8
1352.44163	13065.2
1355.92738	14402.6
1359.41078	16117.3
1362.89183	17680.3
1366.37053	17064.8
1369.84688	14169.2
1373.32088	11422.4
1376.79254	9936.6
1380.26186	9281.4
1383.72883	8836
1387.19347	8455.9
1390.65578	8069.5
1394.11575	7826.1
1397.57339	7667.3
1401.0287	7553.8
1404.48168	7515.8
1407.93234	7531.2
1411.38068	7536.5
1414.82669	7612.6
1418.27039	7701.8
1421.71177	7705.4
1425.15083	7611.6
1428.58758	7501.7
1432.02203	7552.2
1435.45416	7641.5
1438.88399	7623.5
1442.31151	7607.3
1445.73673	7689.1
1449.15965	7739.6
1452.58027	7745.2
1455.9986	7736.6
1459.41463	7753.4
1462.82837	7857.2
1466.23982	8036.3
1469.64898	8273.8
1473.05586	8395
1476.46045	8515.1
1479.86276	8586.4
1483.26279	8677.7
1486.66054	8872.1
1490.05602	9189.5
1493.44922	9755.6
1496.84016	10627.7
1500.22882	12005.9
1503.61521	13763
1506.99934	15628
1510.38121	16862.7
1513.76081	16703
1517.13816	15152.5
1520.51324	12930
1523.88607	11195.7
1527.25665	10164.8
1530.62498	9674.6
1533.99105	9441.1
1537.35488	9325.7
1540.71647	9232.3
1544.07581	9117.2
1547.4329	8958.5
1550.78776	8836.5
1554.14038	8733
1557.49077	8735.9
1560.83892	8824.1
1564.18484	9035.6
1567.52853	9387.2
1570.86999	9728.2
1574.20922	9852.5
1577.54624	9767.3
1580.88103	9232
1584.2136	8527.7
1587.54395	8156.5
1590.87208	8080.9
1594.19801	8237.8
1597.52172	8604.5
1600.84321	8751.8
1604.16251	8595.5
1607.47959	8405
1610.79447	8221.1
1614.10715	7933
1617.41763	7638.5
1620.7259	7344.1
1624.03199	7185.1
1627.33587	7121.5
1630.63757	7172.8
1633.93707	7417.4
1637.23439	7827.6
1640.52951	8542
1643.82246	9512.9
1647.11321	10715.8
1650.40179	11449.6
1653.68819	11125.6
1656.97241	9842.6
1660.25446	8451.3
1663.53433	7413.8
1666.81203	6807.3
1670.08756	6456.4
1673.36092	6290.9
1676.63211	6130.6
1679.90115	6039.9
1683.16801	5954.5
1686.43272	5872.2
1689.69527	5815.8
1692.95567	5773.3
1696.2139	5753
1699.46999	5693.1
1702.72392	5685.2
1705.97571	5702.2
1709.22535	5693.8
1712.47284	5717.8
1715.71819	5716
1718.96139	5706.6
1722.20246	5698.7
1725.44139	5669.5
1728.67818	5645.7
1731.91284	5607.6
1735.14537	5566.9
1738.37576	5513.9
1741.60403	5514.8
1744.83017	5485.2
1748.05418	5484.6
1751.27607	5478.3
1754.49584	5446.6
1757.71349	5420.7
1760.92903	5429
1764.14244	5371.4
1767.35375	5366.7
1770.56294	5364.8
1773.77002	5320.9
1776.97499	5357.2
1780.17785	5343.1
1783.37861	5329.1
1786.57727	5334.6
1789.77382	5260.9
1792.96828	5309
1796.16064	5305.8
1799.3509	5274.9
1802.53907	5293.8
1805.72514	5252.7
1808.90913	5231
1812.09102	5226.1
1815.27083	5217.3
1818.44856	5207.1
1821.6242	5195.9
1824.79776	5165.8
1827.96924	5164.9
1831.13864	5142.3
1834.30597	5152.9
1837.47122	5139.3
1840.6344	5117.9
1843.7955	5102.9
1846.95454	5098.3
1850.11151	5125.4
1853.26642	5076.6
1856.41926	5100.5
1859.57004	5083.6
1862.71876	5078.3
1865.86542	5103.1
1869.01003	5071.5
1872.15258	5057.3
1875.29308	5076.1
1878.43152	5063.4
1881.56792	5043.1
1884.70227	5024.6
1887.83457	5028
1890.96482	5009.8
1894.09304	5000
1897.21921	5011
1900.34335	5008.6
1903.46544	4970.7
1906.58551	4991.8
1909.70353	4993.4
1912.81953	4996.4
1915.93349	4946.1
1919.04543	4938.6
1922.15534	4946.8
1925.26322	4940.9
1928.36908	4939.5
1931.47292	4922
1934.57473	4928
1937.67453	4894.1
1940.77232	4868.5
1943.86808	4876
1946.96184	4860.8
1950.05358	4828.9
1953.14331	4817.8
1956.23103	4806.8
1959.31675	4770.3
1962.40046	4744.3
1965.48217	4749.5
1968.56188	4757.4
1971.63959	4739.6
1974.7153	4718
1977.78901	4714.6
1980.86073	4707.5
1983.93046	4651.7
1986.99819	4585.8
1990.06394	4609.7
1993.1277	4638.3
1996.18947	4606.7
1999.24925	4572.9
2002.30706	4581.3
2005.36288	4559.6
2008.41672	4537.5
2011.46859	4526.3
2014.51848	4504.4
2017.56639	4481.3
2020.61233	4472.7
2023.6563	4472
2026.6983	4419.1
2029.73833	4449.8
2032.7764	4429.5
2035.8125	4384.8
2038.84664	4383.8
2041.87881	4393.7
2044.90903	4384.9
2047.93729	4377.2
2050.96359	4358.1
2053.98794	4356.2
2057.01034	4358.6
2060.03078	4331.5
2063.04927	4339.9
2066.06582	4344.8
2069.08042	4316.4
2072.09307	4321.2
2075.10378	4328.7
2078.11255	4292.4
2081.11938	4304.2
2084.12426	4294.3
2087.12722	4301.7
2090.12824	4291.2
2093.12732	4299.3
2096.12447	4310
2099.11969	4302
2102.11299	4281.1
2105.10435	4300.2
2108.09379	4296.1
2111.08131	4292.6
2114.0669	4300.5
2117.05057	4288.2
2120.03233	4275.6
2123.01216	4306
2125.99008	4312
2128.96609	4317.6
2131.94018	4316.4
2134.91236	4312.9
2137.88263	4300.9
2140.851	4313.9
2143.81746	4328.4
2146.78201	4312.3
2149.74466	4302.2
2152.7054	4318.2
2155.66425	4304.6
2158.6212	4277.1
2161.57625	4263.1
2164.52941	4241.5
2167.48067	4259
2170.43004	4259.8
2173.37752	4284.5
2176.32311	4266.7
2179.26681	4255.4
2182.20863	4261.6
2185.14856	4270.2
2188.08661	4246.8
2191.02278	4276.6
2193.95707	4248.3
2196.88948	4230.5
2199.82001	4256.8
2202.74867	4219.6
2205.67545	4224.1
2208.60037	4238.4
2211.52341	4220.7
2214.44458	4216.6
2217.36388	4185.2
2220.28132	4188.3
2223.1969	4149.4
2226.11061	4171.8
2229.02246	4134.5
2231.93245	4147
2234.84058	4138.6
2237.74686	4130
2240.65128	4124.9
2243.55385	4117
2246.45456	4089.1
2249.35343	4103.8
2252.25044	4096.4
2255.14561	4090.8
2258.03893	4085.4
2260.93041	4078
2263.82004	4073.7
2266.70783	4077.2
2269.59378	4050.9
2272.4779	4053.4
2275.36017	4039.1
2278.24061	4025.6
2281.11922	3996.9
2283.996	4003.8
2286.87094	3977.6
2289.74405	3994.7
2292.61534	3975.3
2295.4848	3976.6
2298.35243	3969.1
2301.21824	3951
2304.08223	3939
2306.94439	3960.8
2309.80474	3951.9
2312.66327	3943.3
2315.51999	3938.2
2318.37489	3912.6
2321.22797	3910.7
2324.07925	3912.5
2326.92871	3889.8
2329.77637	3873
2332.62222	3876.8
2335.46626	3865
2338.3085	3846.4
2341.14893	3863.3
2343.98756	3877.3
2346.8244	3844.5
2349.65943	3841
2352.49267	3840.2
2355.32411	3849.2
2358.15376	3832.7
2360.98161	3850.6
2363.80768	3826.4
2366.63195	3822.9
2369.45444	3837.1
2372.27514	3847.7
2375.09405	3838.6
2377.91118	3810.9
2380.72652	3821.1
2383.54009	3810.1
2386.35187	3804
2389.16188	3779.1
2391.97011	3770.5
2394.77657	3763.4
2397.58125	3756
2400.38416	3756.8
2403.18529	3732.7
2405.98466	3723.2
2408.78226	3722
2411.57809	3709.4
2414.37216	3697
2417.16446	3709.4
2419.955	3683.5
2422.74378	3699.1
2425.5308	3680
2428.31606	3691.9
2431.09956	3680.6
2433.88131	3655.4
2436.6613	3669.9
2439.43954	3659.4
2442.21603	3653.5
2444.99077	3654.9
2447.76377	3659.7
2450.53501	3643.3
2453.30451	3641.2
2456.07226	3653.5
2458.83827	3622.9
2461.60254	3576.9
2464.36507	3638.4
2467.12586	3614.7
2469.88492	3599.4
2472.64224	3624.4
2475.39782	3591.6
2478.15167	3606.9
2480.90379	3603.5
2483.65417	3603.9
2486.40283	3610.7
2489.14976	3617.1
2491.89497	3600.3
2494.63845	3607.3
2497.3802	3593
2500.12024	3589
2502.85855	3582.7
2505.59514	3581.9
2508.33002	3575.8
2511.06318	3545.4
2513.79462	3552.3
2516.52435	3514.4
2519.25237	3506.6
2521.97867	3496.6
2524.70327	3508.7
2527.42616	3500.9
2530.14734	3508.7
2532.86681	3480.4
2535.58458	3474.3
2538.30065	3468.5
2541.01501	3481.3
2543.72768	3466.7
2546.43864	3465.5
2549.14791	3461.9
2551.85548	3445.8
2554.56136	3438.8
2557.26554	3445.8
2559.96803	3453.6
2562.66883	3439.7
2565.36794	3409.2
2568.06536	3385.7
2570.7611	3402.9
2573.45514	3387.7
2576.14751	3393.3
2578.83819	3363.5
2581.52719	3364.3
2584.21451	3357.3
2586.90015	3346.3
2589.58411	3327.2
2592.2664	3343.7
2594.94701	3336.4
2597.62594	3335
2600.30321	3283.9
2602.9788	3299.5
2605.65273	3277.3
2608.32498	3289.6
2610.99557	3312
2613.66449	3268.1
2616.33175	3291.7
2618.99734	3285.8
2621.66128	3293.5
2624.32355	3272.3
2626.98416	3258
2629.64311	3256.6
2632.30041	3241.9
2634.95605	3221.5
2637.61004	3217
2640.26238	3185.5
2642.91306	3189.4
2645.56209	3226
2648.20948	3204.9
2650.85521	3206.8
2653.4993	3204.6
2656.14175	3199.4
2658.78255	3186.9
2661.42171	3158.6
2664.05923	3197.6
2666.6951	3205.7
2669.32934	3206.8
2671.96194	3235.4
2674.59291	3213.7
2677.22224	3209.9
2679.84993	3197.8
2682.476	3201.1
2685.10043	3187.4
2687.72324	3183.4
2690.34441	3168.4
2692.96396	3173.7
2695.58188	3189.2
2698.19818	3178.7
2700.81285	3184.9
2703.4259	3147.8
2706.03733	3134.6
2708.64714	3143.6
2711.25533	3162.7
2713.86191	3179.8
2716.46687	3156.8
2719.07021	3158.2
2721.67194	3152.1
2724.27206	3183.1
2726.87057	3146.4
2729.46747	3141.8
2732.06276	3152.8
2734.65644	3146.9
2737.24852	3142.7
2739.83899	3107.6
2742.42786	3132.6
2745.01513	3127
2747.60079	3119.2
2750.18486	3103.9
2752.76733	3101.7
2755.3482	3090.7
2757.92747	3092.4
2760.50515	3075.9
2763.08123	3075.8
2765.65573	3073.8
2768.22863	3061.7
2770.79994	3057.4
2773.36967	3051.6
2775.9378	3045
2778.50435	3041.8
2781.06932	3033.7
2783.6327	3032.4
2786.1945	3035.2
2788.75471	3018.7
2791.31335	3014
2793.87041	3006.9
2796.42589	3003.3
2798.97979	2989.4
2801.53212	2991.4
2804.08288	3009.8
2806.63206	2991.3
2809.17967	2968.9
2811.72571	2985
2814.27018	2984.5
2816.81308	2962.4
2819.35442	2927.6
2821.89419	2950.2
2824.43239	2924.5
2826.96904	2952.4
2829.50412	2929.1
2832.03763	2944.2
2834.56959	2942.6
2837.1	2928.3
2839.62884	2932.4
2842.15613	2931.3
2844.68186	2933.4
2847.20604	2899.5
2849.72867	2903.9
2852.24974	2907.2
2854.76927	2881.3
2857.28724	2832.2
2859.80367	2885.9
2862.31855	2891.8
2864.83189	2877.8
2867.34368	2889
2869.85393	2895.8
2872.36264	2874.9
2874.8698	2874.8
2877.37543	2865.7
2879.87952	2873.1
2882.38207	2851.6
2884.88308	2845.7
2887.38256	2861.3
2889.88051	2848.6
2892.37692	2840
2894.8718	2824.4
2897.36515	2849.5
2899.85698	2842.3
2902.34727	2823
2904.83604	2845.5
2907.32328	2854.4
2909.809	2849.4
2912.29319	2842.9
2914.77587	2854.1
2917.25702	2875.4
2919.73665	2874.2
2922.21476	2868.3
2924.69136	2870.1
2927.16644	2850.7
2929.64	2860.3
2932.11205	2841.8
2934.58258	2839.7
2937.05161	2814.1
2939.51912	2828.6
2941.98513	2838.8
2944.44962	2830.1
2946.91261	2794.2
2949.37409	2813.7
2951.83407	2793.8
2954.29254	2787.8
2956.74951	2797.7
2959.20498	2780.7
2961.65895	2788.6
2964.11142	2758.5
2966.56239	2757.8
2969.01186	2770
2971.45984	2761.5
2973.90632	2754.2
2976.35131	2757.5
2978.7948	2754
2981.23681	2727.3
2983.67732	2747.6
2986.11635	2742.1
2988.55388	2706
2990.98993	2717.5
2993.4245	2707.6
2995.85758	2683.3
2998.28917	2695.5
3000.71928	2683.9
3003.14791	2678.9
3005.57506	2667.2
3008.00073	2662.2
3010.42493	2596.5
3012.84764	2637.7
3015.26888	2658.1
3017.68865	2629.4
3020.10694	2593.8
3022.52376	2615.3
3024.9391	2599.3
3027.35298	2587
3029.76539	2571.2
3032.17632	2591.4
3034.5858	2579.8
3036.9938	2587.4
3039.40034	2572.2
3041.80542	2565.3
3044.20903	2552
3046.61118	2550.9
3049.01187	2549.9
3051.4111	2530.8
3053.80888	2519.5
3056.20519	2526.8
3058.60005	2499.1
3060.99345	2529.1
3063.3854	2496.4
3065.7759	2499.7
3068.16494	2478.8
3070.55254	2464.6
3072.93868	2482.4
3075.32338	2471.4
3077.70662	2468.1
3080.08842	2453.9
3082.46878	2451.8
3084.84769	2455.5
3087.22515	2443.7
3089.60118	2454.9
3091.97576	2438.9
3094.3489	2446.6
3096.72061	2430.8
3099.09087	2415.5
3101.4597	2435.3
3103.82709	2432.2
3106.19305	2414.6
3108.55757	2421.3
3110.92066	2398.9
3113.28232	2415
3115.64255	2397.4
3118.00134	2405.7
3120.35871	2383.4
3122.71466	2361.9
3125.06917	2358.3
3127.42226	2354.3
3129.77393	2343.6
3132.12417	2353.3
3134.47299	2359.4
3136.82039	2341
3139.16636	2316.5
3141.51092	2342.1
3143.85406	2344.1
3146.19579	2329.6
3148.53609	2325.1
3150.87499	2329.9
3153.21246	2313.6
3155.54853	2327.8
3157.88318	2327.1
3160.21642	2338.3
3162.54826	2319.5
3164.87868	2324.5
3167.2077	2285.9
3169.5353	2312.6
3171.86151	2321.6
3174.18631	2295.8
3176.5097	2293.4
3178.83169	2306.2
3181.15228	2296.1
3183.47147	2274
3185.78926	2260.7
3188.10565	2272.9
3190.42065	2248.7
3192.73424	2266.2
3195.04645	2247.9
3197.35725	2235.3
3199.66667	2241.2
3201.97469	2247.8
3204.28132	2222.2
3206.58656	2241.3
3208.8904	2245.5
3211.19287	2237
3213.49394	2227.8
3215.79363	2212.6
3218.09193	2237.1
3220.38884	2233.2
3222.68438	2229.1
3224.97853	2211.3
3227.2713	2228.5
3229.56269	2209.4
3231.8527	2212.1
3234.14133	2206.3
3236.42858	2203.1
3238.71446	2180.8
3240.99896	2198.5
3243.28209	2164.1
3245.56384	2176.8
3247.84423	2177.2
3250.12324	2170
3252.40088	2158.1
3254.67715	2167.9
3256.95205	2143.6
3259.22558	2148.9
3261.49775	2159.1
3263.76855	2151.1
3266.03799	2161.1
3268.30606	2153.3
3270.57277	2141.7
3272.83812	2122.5
3275.10211	2131.2
3277.36474	2145.7
3279.62601	2137.9
3281.88593	2115
3284.14448	2080.3
3286.40168	2121.5
3288.65753	2106.5
3290.91202	2099.3
3293.16516	2080.2
3295.41695	2115.1
3297.66738	2114.5
3299.91647	2083.7
3302.16421	2072.4
3304.4106	2029.6
3306.65564	2051.9
3308.89933	2018.6
3311.14169	2006.4
3313.38269	2006.3
3315.62236	1985.2
3317.86068	1966.8
3320.09766	1967.8
3322.3333	1924.9
3324.5676	1915
3326.80056	1900.2
3329.03219	1885.2
3331.26248	-0.2
3333.49143	-0.9
3335.71905	1.3
