Data from AgNPs_UA_10uM_CRN_500uM_SU_RamanShift__50__13-13-40-264.txt Node

Date: Thu Aug 04 13:13:40 BST 2022
User: TCL
Spectrometer: QEP01345
Trigger mode: 4
Integration Time (sec): 1.000000E0
Scans to average: 10
Electric dark correction enabled: true
Nonlinearity correction enabled: false
Boxcar width: 0
XAxis mode: Raman Shifts
Number of Pixels in Spectrum: 1044
>>>>>Begin Spectral Data<<<<<
46.04893	0.3
50.45542	-1.1
54.85868	1.3
59.25871	-0.2
63.6555	22
68.04907	21.9
72.43941	23
76.82654	24.2
81.21044	24.5
85.59113	27.2
89.96862	26.6
94.34289	26.1
98.71396	29.6
103.08183	30.8
107.4465	29.2
111.80798	31.1
116.16626	33
120.52136	36
124.87327	36.9
129.222	38.2
133.56755	37.8
137.90993	42.4
142.24913	49.8
146.58517	56.7
150.91804	66.9
155.24774	81.3
159.57429	99.3
163.89768	132.8
168.21792	174.6
172.53501	242.8
176.84895	347.4
181.15975	480.4
185.46741	680.6
189.77193	950.3
194.07331	1274
198.37157	1644.3
202.6667	2028.5
206.9587	2426.8
211.24758	2826.3
215.53334	3221.8
219.81599	3625.3
224.09553	4101
228.37195	4623.8
232.64527	5163.9
236.91549	5735.1
241.18261	6249.5
245.44663	6689.2
249.70755	7056
253.96539	7375.8
258.22014	7675.9
262.4718	7889.9
266.72039	8055.2
270.96589	8081.6
275.20832	8060.5
279.44768	7969.9
283.68397	7845.8
287.91719	7753
292.14735	7758
296.37445	7827.9
300.59849	7986.5
304.81948	8168.2
309.03742	8373.7
313.25231	8434.3
317.46415	8382.4
321.67296	8149.4
325.87872	7959.8
330.08145	7834.5
334.28114	7850.8
338.47781	7898.9
342.67145	8022.6
346.86207	8226.5
351.04966	8483.8
355.23424	8746.5
359.4158	8983.7
363.59435	9109.9
367.76989	9184.3
371.94243	9194.8
376.11196	9226.3
380.27849	9220
384.44203	9298.8
388.60257	9356.3
392.76012	9452.2
396.91468	9555.6
401.06626	9699.4
405.21485	9729.1
409.36047	9681.7
413.50311	9472.6
417.64277	9272
421.77947	9164.2
425.9132	9055
430.04396	9051.9
434.17176	9080.6
438.2966	9151.1
442.41849	9288.3
446.53742	9455.2
450.6534	9609.8
454.76644	9768.6
458.87653	9863.5
462.98368	9883.5
467.08789	9854.1
471.18916	9766.8
475.2875	9586.8
479.38291	9465
483.4754	9345.2
487.56496	9298.4
491.6516	9280.9
495.73531	9277.3
499.81612	9306.2
503.89401	9403.5
507.96899	9463.8
512.04106	9497.6
516.11023	9491.5
520.1765	9541.2
524.23987	9554.3
528.30034	9553.3
532.35792	9570.2
536.41261	9506.2
540.46441	9438.4
544.51333	9423.9
548.55936	9468.6
552.60252	9579.1
556.64279	9707
560.6802	9829.5
564.71473	9904.4
568.7464	9940.8
572.7752	9853.3
576.80114	9674.8
580.82422	9490.9
584.84444	9466.9
588.86181	9447.2
592.87633	9493.5
596.888	9660.6
600.89682	10040.3
604.9028	10988.8
608.90594	12812.1
612.90624	14544.7
616.90371	13572.9
620.89834	11125
624.89015	10113.4
628.87913	10027.9
632.86528	10246
636.84862	10356.6
640.82913	10195.2
644.80683	9910.2
648.78172	9724.6
652.75379	9717.1
656.72306	9934.1
660.68952	10221.8
664.65319	10165.4
668.61405	10117.1
672.57211	10246.5
676.52738	10267.3
680.47986	10033.2
684.42955	9815.9
688.37646	9778.7
692.32058	9850
696.26192	10033.8
700.20048	10229.9
704.13626	10266.8
708.06928	10139
711.99952	10021.1
715.927	10008.7
719.85171	10050.3
723.77365	10083.8
727.69284	10009.3
731.60928	9956.9
735.52295	9941.9
739.43388	9980.2
743.34206	10028
747.24749	10018.5
751.15017	9986.1
755.05012	10077.3
758.94733	10317.2
762.8418	10963.8
766.73354	11881.5
770.62254	12630.1
774.50882	12851.2
778.39237	12698.7
782.27321	12162.9
786.15132	11375.2
790.02671	10708.5
793.89938	10380.8
797.76935	10197
801.6366	10086.1
805.50115	10019.1
809.36299	10007.2
813.22213	10008.6
817.07857	9997.6
820.93231	9989.6
824.78336	10005.6
828.63172	10028.7
832.47738	10041.9
836.32036	10017.5
840.16066	10015.8
843.99827	10018.5
847.8332	10015.1
851.66546	10042.7
855.49504	10039.6
859.32195	10058.6
863.1462	10087.8
866.96777	10040.6
870.78668	10073.6
874.60293	10132.7
878.41652	10178.5
882.22745	10246.5
886.03573	10284.4
889.84136	10246.3
893.64433	10232.2
897.44466	10209.6
901.24235	10177
905.0374	10160.1
908.8298	10149.5
912.61957	10120.4
916.40671	10129.5
920.19121	10140.5
923.97308	10165.1
927.75233	10249.2
931.52895	10295.7
935.30295	10261.8
939.07433	10132
942.84309	10088
946.60924	10052.2
950.37278	10014.2
954.13371	10025.5
957.89203	10015.4
961.64774	10031.2
965.40086	10037.6
969.15137	10011.5
972.89929	9992.2
976.64461	10010.1
980.38733	10027.4
984.12747	10036.3
987.86502	10079.7
991.59999	10098.9
995.33237	10150.8
999.06217	10231.3
1002.78939	10325.3
1006.51404	10486.2
1010.23611	10626.9
1013.95561	10760.8
1017.67255	10801.6
1021.38692	10766.5
1025.09872	10718.9
1028.80796	10576.5
1032.51465	10527.8
1036.21877	10506.3
1039.92035	10543.1
1043.61937	10594.5
1047.31584	10656
1051.00976	10705.9
1054.70114	10714.1
1058.38998	10770.4
1062.07627	10774.8
1065.76003	10875.6
1069.44126	10974.3
1073.11995	11234.2
1076.79611	11433.8
1080.46974	11589.8
1084.14085	11631
1087.80943	11688
1091.47549	11755.3
1095.13903	11886.9
1098.80005	11991.5
1102.45857	12157.5
1106.11456	12077.6
1109.76805	11823.4
1113.41903	11728.4
1117.06751	11776.4
1120.71348	11869
1124.35696	11979.2
1127.99793	12025.2
1131.63641	11884
1135.2724	11631.3
1138.90589	11438.6
1142.5369	11327.7
1146.16542	11253
1149.79145	11209.2
1153.415	11062.9
1157.03607	10993.7
1160.65467	11010.2
1164.27079	11176.9
1167.88443	11424
1171.49561	11810.9
1175.10432	12381
1178.71056	13125.6
1182.31434	13755.3
1185.91565	14056.2
1189.51451	14111.6
1193.11091	14063.9
1196.70485	13923.2
1200.29634	13737.8
1203.88538	13434.9
1207.47197	13075.8
1211.05612	12694
1214.63782	12344.1
1218.21708	12049.9
1221.79391	11804.5
1225.36829	11701.9
1228.94024	11616.7
1232.50976	11594.5
1236.07685	11653.9
1239.6415	11706.6
1243.20374	11770.4
1246.76355	11806.5
1250.32093	11920.4
1253.8759	12075.9
1257.42845	12369.1
1260.97859	12673
1264.52631	12935.1
1268.07163	13088.4
1271.61453	13202.3
1275.15503	13181.9
1278.69312	13140.9
1282.22882	13095.4
1285.76211	13098.6
1289.29301	13234
1292.82151	13370
1296.34761	13564.4
1299.87133	13869.1
1303.39266	14401.6
1306.9116	15207.5
1310.42815	16032.5
1313.94233	16370.7
1317.45412	16031.3
1320.96354	15458.9
1324.47058	14830.4
1327.97525	14254.6
1331.47754	13832.6
1334.97747	13736.3
1338.47502	13880.8
1341.97022	14311.2
1345.46305	15121.1
1348.95352	16217.8
1352.44163	17307.9
1355.92738	18238.6
1359.41078	19094.6
1362.89183	19580.6
1366.37053	18636.7
1369.84688	16589.8
1373.32088	14691.2
1376.79254	13615
1380.26186	13091.2
1383.72883	12771.4
1387.19347	12382.1
1390.65578	12078
1394.11575	11797.2
1397.57339	11590.5
1401.0287	11465.9
1404.48168	11453.5
1407.93234	11512
1411.38068	11728
1414.82669	11901.7
1418.27039	11926.7
1421.71177	11892
1425.15083	11800.2
1428.58758	11710.3
1432.02203	11673.6
1435.45416	11676.8
1438.88399	11595.7
1442.31151	11604.9
1445.73673	11630.9
1449.15965	11699.9
1452.58027	11664.4
1455.9986	11623.8
1459.41463	11628.9
1462.82837	11743.3
1466.23982	11865.5
1469.64898	12069.2
1473.05586	12247.7
1476.46045	12357.4
1479.86276	12487
1483.26279	12627.4
1486.66054	12800.8
1490.05602	13154.8
1493.44922	13632
1496.84016	14389.2
1500.22882	15470.3
1503.61521	16634.7
1506.99934	17654
1510.38121	18134.2
1513.76081	17722
1517.13816	16639.1
1520.51324	15265.9
1523.88607	14198.2
1527.25665	13484.3
1530.62498	13134.4
1533.99105	12969.5
1537.35488	12876.5
1540.71647	12792.9
1544.07581	12728.9
1547.4329	12644.5
1550.78776	12517.9
1554.14038	12361.2
1557.49077	12324.2
1560.83892	12438.5
1564.18484	12637.7
1567.52853	12885.3
1570.86999	13031.4
1574.20922	13110.9
1577.54624	13006.8
1580.88103	12604.3
1584.2136	12119
1587.54395	11884.3
1590.87208	11882.1
1594.19801	12098.5
1597.52172	12453.9
1600.84321	12577.9
1604.16251	12542.3
1607.47959	12447.1
1610.79447	12165.6
1614.10715	11764.3
1617.41763	11328.5
1620.7259	11002.5
1624.03199	10795.2
1627.33587	10712.7
1630.63757	10787.1
1633.93707	11003.2
1637.23439	11445.4
1640.52951	12165.3
1643.82246	13178.6
1647.11321	14156.9
1650.40179	14575.1
1653.68819	14014.1
1656.97241	12816.1
1660.25446	11608.9
1663.53433	10801.4
1666.81203	10289.8
1670.08756	10041.4
1673.36092	9868.3
1676.63211	9769.7
1679.90115	9649.1
1683.16801	9573.2
1686.43272	9494.7
1689.69527	9444.2
1692.95567	9407.1
1696.2139	9359.4
1699.46999	9345.1
1702.72392	9329.7
1705.97571	9307.1
1709.22535	9293.6
1712.47284	9292.9
1715.71819	9314.3
1718.96139	9304.6
1722.20246	9297.8
1725.44139	9255.5
1728.67818	9232.8
1731.91284	9175.8
1735.14537	9136.7
1738.37576	9112.1
1741.60403	9076
1744.83017	9046.8
1748.05418	9042.1
1751.27607	9043.7
1754.49584	9007.5
1757.71349	8999.9
1760.92903	8998.2
1764.14244	8960.3
1767.35375	8937.5
1770.56294	8921.5
1773.77002	8914.4
1776.97499	8893.2
1780.17785	8857.9
1783.37861	8806.1
1786.57727	8830.6
1789.77382	8836.9
1792.96828	8816.4
1796.16064	8774.7
1799.3509	8789.5
1802.53907	8762.8
1805.72514	8751.6
1808.90913	8722.3
1812.09102	8690.2
1815.27083	8688.4
1818.44856	8641
1821.6242	8622.2
1824.79776	8601.9
1827.96924	8588.8
1831.13864	8581.4
1834.30597	8571
1837.47122	8547.4
1840.6344	8514.1
1843.7955	8517.8
1846.95454	8531.8
1850.11151	8533.7
1853.26642	8516.1
1856.41926	8503.5
1859.57004	8510.3
1862.71876	8514.7
1865.86542	8496.4
1869.01003	8472.4
1872.15258	8452.2
1875.29308	8446.5
1878.43152	8432.7
1881.56792	8404.6
1884.70227	8398.1
1887.83457	8386.9
1890.96482	8364.4
1894.09304	8339.3
1897.21921	8327.3
1900.34335	8325.3
1903.46544	8317.6
1906.58551	8312.7
1909.70353	8301.3
1912.81953	8280.6
1915.93349	8271.6
1919.04543	8239.7
1922.15534	8223.6
1925.26322	8220.9
1928.36908	8175.4
1931.47292	8158.4
1934.57473	8159.8
1937.67453	8136.7
1940.77232	8136.2
1943.86808	8085.5
1946.96184	8052.2
1950.05358	8052.4
1953.14331	8018.4
1956.23103	7996.4
1959.31675	7972.8
1962.40046	7945
1965.48217	7906.3
1968.56188	7882.7
1971.63959	7854.4
1974.7153	7848.5
1977.78901	7834.8
1980.86073	7811.4
1983.93046	7778.2
1986.99819	7759.6
1990.06394	7734.8
1993.1277	7701.5
1996.18947	7676.3
1999.24925	7633.8
2002.30706	7600.3
2005.36288	7593.7
2008.41672	7556.2
2011.46859	7529.5
2014.51848	7500.1
2017.56639	7481.6
2020.61233	7467.9
2023.6563	7427.4
2026.6983	7419.8
2029.73833	7384.3
2032.7764	7341.4
2035.8125	7366.3
2038.84664	7332.4
2041.87881	7307
2044.90903	7292.9
2047.93729	7282.6
2050.96359	7275.8
2053.98794	7251.4
2057.01034	7246.4
2060.03078	7234
2063.04927	7239.5
2066.06582	7207.5
2069.08042	7200.7
2072.09307	7199.7
2075.10378	7179.2
2078.11255	7172.9
2081.11938	7172.4
2084.12426	7156.8
2087.12722	7158.2
2090.12824	7159.9
2093.12732	7155
2096.12447	7151.9
2099.11969	7156.2
2102.11299	7160.3
2105.10435	7164.1
2108.09379	7161.6
2111.08131	7139.3
2114.0669	7164.8
2117.05057	7149.6
2120.03233	7161.1
2123.01216	7177.1
2125.99008	7164.2
2128.96609	7164.1
2131.94018	7174.9
2134.91236	7170.5
2137.88263	7161.7
2140.851	7161
2143.81746	7171.9
2146.78201	7163.1
2149.74466	7165.9
2152.7054	7157.2
2155.66425	7135.3
2158.6212	7132.3
2161.57625	7124.7
2164.52941	7143.1
2167.48067	7121.6
2170.43004	7098.9
2173.37752	7113.3
2176.32311	7111.8
2179.26681	7117.8
2182.20863	7107.4
2185.14856	7110.6
2188.08661	7120.1
2191.02278	7100.9
2193.95707	7092.8
2196.88948	7095.7
2199.82001	7067.5
2202.74867	7070.2
2205.67545	7068.6
2208.60037	7056.9
2211.52341	7045.4
2214.44458	7000.4
2217.36388	6986.4
2220.28132	6972.2
2223.1969	6930.6
2226.11061	6939.3
2229.02246	6915.2
2231.93245	6933.6
2234.84058	6889.7
2237.74686	6874.8
2240.65128	6872.2
2243.55385	6853.8
2246.45456	6842
2249.35343	6822.9
2252.25044	6842.8
2255.14561	6821
2258.03893	6819.9
2260.93041	6822.3
2263.82004	6771.7
2266.70783	6768
2269.59378	6747
2272.4779	6727
2275.36017	6703.6
2278.24061	6685.3
2281.11922	6675.7
2283.996	6651
2286.87094	6640.2
2289.74405	6635.1
2292.61534	6633.8
2295.4848	6587.4
2298.35243	6593.4
2301.21824	6597.1
2304.08223	6569.7
2306.94439	6570.6
2309.80474	6562.3
2312.66327	6555.6
2315.51999	6552.3
2318.37489	6536.6
2321.22797	6524.4
2324.07925	6513.7
2326.92871	6484.4
2329.77637	6484.1
2332.62222	6450.9
2335.46626	6436.9
2338.3085	6437.7
2341.14893	6431.9
2343.98756	6431.7
2346.8244	6420.9
2349.65943	6388.1
2352.49267	6408.1
2355.32411	6383.5
2358.15376	6387.7
2360.98161	6377.2
2363.80768	6393.7
2366.63195	6380.7
2369.45444	6360.7
2372.27514	6368.6
2375.09405	6356.9
2377.91118	6346.4
2380.72652	6322.6
2383.54009	6300
2386.35187	6298.7
2389.16188	6275.5
2391.97011	6264.5
2394.77657	6230.3
2397.58125	6208.5
2400.38416	6222.9
2403.18529	6226.3
2405.98466	6190.6
2408.78226	6195.4
2411.57809	6182.6
2414.37216	6164.9
2417.16446	6162.5
2419.955	6157
2422.74378	6145.1
2425.5308	6135.5
2428.31606	6130.6
2431.09956	6116.4
2433.88131	6104.5
2436.6613	6100.7
2439.43954	6100.2
2442.21603	6082.8
2444.99077	6091.7
2447.76377	6059.7
2450.53501	6079.9
2453.30451	6073.5
2456.07226	6055.1
2458.83827	6044
2461.60254	6023.2
2464.36507	6020.7
2467.12586	5998.9
2469.88492	5995.4
2472.64224	5998.5
2475.39782	5998.2
2478.15167	5985
2480.90379	5976
2483.65417	5969.9
2486.40283	5960.1
2489.14976	5960
2491.89497	5968.3
2494.63845	5956.9
2497.3802	5944.1
2500.12024	5937
2502.85855	5922.1
2505.59514	5920.4
2508.33002	5912.9
2511.06318	5874.2
2513.79462	5858.2
2516.52435	5859.2
2519.25237	5835.4
2521.97867	5853.7
2524.70327	5826.6
2527.42616	5811.8
2530.14734	5791.5
2532.86681	5794.3
2535.58458	5809.5
2538.30065	5804.1
2541.01501	5796.5
2543.72768	5773.4
2546.43864	5744.1
2549.14791	5740.3
2551.85548	5751.5
2554.56136	5738.6
2557.26554	5737.5
2559.96803	5721.7
2562.66883	5698.3
2565.36794	5669.7
2568.06536	5653.4
2570.7611	5641.1
2573.45514	5623.1
2576.14751	5629.9
2578.83819	5599.8
2581.52719	5590.3
2584.21451	5599.5
2586.90015	5584.7
2589.58411	5550.3
2592.2664	5562.2
2594.94701	5543.6
2597.62594	5517.2
2600.30321	5507.6
2602.9788	5538.7
2605.65273	5505.3
2608.32498	5514.3
2610.99557	5499.8
2613.66449	5486.7
2616.33175	5473.4
2618.99734	5472.3
2621.66128	5456.3
2624.32355	5435.3
2626.98416	5412.6
2629.64311	5399.5
2632.30041	5391
2634.95605	5375
2637.61004	5359.3
2640.26238	5343.9
2642.91306	5350.6
2645.56209	5354.1
2648.20948	5336.7
2650.85521	5349.3
2653.4993	5345
2656.14175	5338.2
2658.78255	5298.8
2661.42171	5306.6
2664.05923	5305.1
2666.6951	5329.9
2669.32934	5323.3
2671.96194	5311.2
2674.59291	5316.3
2677.22224	5317.9
2679.84993	5315.3
2682.476	5316.9
2685.10043	5310.8
2687.72324	5304.3
2690.34441	5279
2692.96396	5299.4
2695.58188	5282.3
2698.19818	5286.7
2700.81285	5273
2703.4259	5259.3
2706.03733	5254
2708.64714	5254.7
2711.25533	5262.4
2713.86191	5245.2
2716.46687	5262.9
2719.07021	5251.6
2721.67194	5243.1
2724.27206	5244.8
2726.87057	5233.6
2729.46747	5233.6
2732.06276	5240.2
2734.65644	5236.8
2737.24852	5216.7
2739.83899	5197.7
2742.42786	5199.6
2745.01513	5187.2
2747.60079	5173.4
2750.18486	5168
2752.76733	5163.3
2755.3482	5151.5
2757.92747	5142.7
2760.50515	5141.4
2763.08123	5115.2
2765.65573	5115.5
2768.22863	5107.8
2770.79994	5075.6
2773.36967	5062.3
2775.9378	5067.2
2778.50435	5054.8
2781.06932	5042
2783.6327	5053.3
2786.1945	5046
2788.75471	5038.1
2791.31335	5016.4
2793.87041	5000
2796.42589	4978.2
2798.97979	4979.7
2801.53212	4961.8
2804.08288	4945.3
2806.63206	4933.4
2809.17967	4934.6
2811.72571	4931.2
2814.27018	4910.9
2816.81308	4905.4
2819.35442	4883.8
2821.89419	4900.4
2824.43239	4878.9
2826.96904	4851.8
2829.50412	4829.7
2832.03763	4821.2
2834.56959	4816.8
2837.1	4805.3
2839.62884	4798
2842.15613	4794.8
2844.68186	4802.3
2847.20604	4774.7
2849.72867	4772.3
2852.24974	4760.5
2854.76927	4743.9
2857.28724	4732.2
2859.80367	4725.7
2862.31855	4717.5
2864.83189	4726.8
2867.34368	4718.9
2869.85393	4712.9
2872.36264	4712.9
2874.8698	4692.5
2877.37543	4690.5
2879.87952	4692.6
2882.38207	4664.3
2884.88308	4656.8
2887.38256	4665.3
2889.88051	4658.2
2892.37692	4637.3
2894.8718	4641.3
2897.36515	4648.3
2899.85698	4635
2902.34727	4649.5
2904.83604	4637.2
2907.32328	4634.8
2909.809	4623.6
2912.29319	4643.1
2914.77587	4636.6
2917.25702	4654.8
2919.73665	4638.9
2922.21476	4636.6
2924.69136	4632.4
2927.16644	4608.6
2929.64	4624.9
2932.11205	4587.5
2934.58258	4574.4
2937.05161	4583.5
2939.51912	4584.9
2941.98513	4584.5
2944.44962	4571.5
2946.91261	4551.5
2949.37409	4567.9
2951.83407	4548.5
2954.29254	4545.5
2956.74951	4521.8
2959.20498	4534.4
2961.65895	4539
2964.11142	4531.7
2966.56239	4531
2969.01186	4538.4
2971.45984	4529.5
2973.90632	4517.4
2976.35131	4503
2978.7948	4484.2
2981.23681	4491.5
2983.67732	4481.2
2986.11635	4449.7
2988.55388	4468.5
2990.98993	4439.9
2993.4245	4431
2995.85758	4412.7
2998.28917	4416
3000.71928	4401.2
3003.14791	4370.6
3005.57506	4385.7
3008.00073	4362
3010.42493	4363.8
3012.84764	4335.7
3015.26888	4340.2
3017.68865	4334.6
3020.10694	4320.9
3022.52376	4294.7
3024.9391	4287.6
3027.35298	4268.4
3029.76539	4250.8
3032.17632	4252.5
3034.5858	4244.2
3036.9938	4244.9
3039.40034	4228
3041.80542	4227.7
3044.20903	4189.1
3046.61118	4196.8
3049.01187	4194.4
3051.4111	4186.4
3053.80888	4180.7
3056.20519	4144.3
3058.60005	4141
3060.99345	4144.5
3063.3854	4129.2
3065.7759	4121.8
3068.16494	4099.4
3070.55254	4099.9
3072.93868	4071.4
3075.32338	4069
3077.70662	4062.4
3080.08842	4037.5
3082.46878	4048.7
3084.84769	4044
3087.22515	4023.5
3089.60118	4016.5
3091.97576	4022.1
3094.3489	4005.3
3096.72061	4008.6
3099.09087	4013
3101.4597	3985.2
3103.82709	3995.9
3106.19305	3989.9
3108.55757	3999.2
3110.92066	3969.7
3113.28232	3965
3115.64255	3955.9
3118.00134	3941
3120.35871	3949.8
3122.71466	3918.7
3125.06917	3925
3127.42226	3896.8
3129.77393	3893.7
3132.12417	3891.4
3134.47299	3886.5
3136.82039	3867.1
3139.16636	3873.8
3141.51092	3869.2
3143.85406	3870.8
3146.19579	3860.4
3148.53609	3867.7
3150.87499	3857.6
3153.21246	3860.4
3155.54853	3864.4
3157.88318	3841.7
3160.21642	3844.2
3162.54826	3840.7
3164.87868	3852
3167.2077	3838.2
3169.5353	3816.8
3171.86151	3812.3
3174.18631	3795.4
3176.5097	3789.6
3178.83169	3789.5
3181.15228	3789
3183.47147	3765.1
3185.78926	3767.5
3188.10565	3756.4
3190.42065	3738
3192.73424	3747.5
3195.04645	3748.3
3197.35725	3744.7
3199.66667	3723
3201.97469	3728.7
3204.28132	3723.2
3206.58656	3731.3
3208.8904	3721.9
3211.19287	3719.1
3213.49394	3719.5
3215.79363	3703.7
3218.09193	3703.5
3220.38884	3707.5
3222.68438	3705.8
3224.97853	3695.6
3227.2713	3705.7
3229.56269	3673.4
3231.8527	3694.1
3234.14133	3673.7
3236.42858	3655.7
3238.71446	3643.7
3240.99896	3634.5
3243.28209	3644.9
3245.56384	3605.9
3247.84423	3609.2
3250.12324	3589.3
3252.40088	3592.9
3254.67715	3610
3256.95205	3591.2
3259.22558	3591.4
3261.49775	3585.4
3263.76855	3583
3266.03799	3575.4
3268.30606	3584.2
3270.57277	3584.4
3272.83812	3569.1
3275.10211	3551.9
3277.36474	3533.3
3279.62601	3530.4
3281.88593	3522.5
3284.14448	3502.2
3286.40168	3518.8
3288.65753	3521.1
3290.91202	3506.8
3293.16516	3492.7
3295.41695	3493.6
3297.66738	3473.9
3299.91647	3475.6
3302.16421	3434.9
3304.4106	3416.3
3306.65564	3391.4
3308.89933	3354.6
3311.14169	3332.7
3313.38269	3308.4
3315.62236	3293.6
3317.86068	3267.5
3320.09766	3252.6
3322.3333	3206.1
3324.5676	3199.2
3326.80056	3135.9
3329.03219	3100.8
3331.26248	1.5
3333.49143	-0.8
3335.71905	-0.6
