Data from AgNPs_UA_10uM_CRN_500uM_SU_RamanShift__153__13-30-50-284.txt Node

Date: Thu Aug 04 13:30:50 BST 2022
User: TCL
Spectrometer: QEP01345
Trigger mode: 4
Integration Time (sec): 1.000000E0
Scans to average: 10
Electric dark correction enabled: true
Nonlinearity correction enabled: false
Boxcar width: 0
XAxis mode: Raman Shifts
Number of Pixels in Spectrum: 1044
>>>>>Begin Spectral Data<<<<<
46.04893	-0.0625
50.45542	1.3375
54.85868	1.0375
59.25871	0.3375
63.6555	16.5375
68.04907	15.1375
72.43941	16.6375
76.82654	15.5375
81.21044	17.1375
85.59113	18.3375
89.96862	19.5375
94.34289	18.4375
98.71396	18.1375
103.08183	20.3375
107.4465	20.1375
111.80798	19.8375
116.16626	22.4375
120.52136	22.8375
124.87327	25.3375
129.222	27.2375
133.56755	25.9375
137.90993	28.6375
142.24913	30.4375
146.58517	38.0375
150.91804	41.5375
155.24774	51.0375
159.57429	63.1375
163.89768	81.8375
168.21792	108.3375
172.53501	150.9375
176.84895	209.9375
181.15975	296.5375
185.46741	410.1375
189.77193	569.6375
194.07331	765.5375
198.37157	982.0375
202.6667	1206.2375
206.9587	1434.4375
211.24758	1664.3375
215.53334	1896.5375
219.81599	2123.7375
224.09553	2401.3375
228.37195	2700.2375
232.64527	3021.4375
236.91549	3338.6375
241.18261	3673.8375
245.44663	3944.4375
249.70755	4172.6375
253.96539	4376.8375
258.22014	4578.6375
262.4718	4724.5375
266.72039	4828.8375
270.96589	4886.7375
275.20832	4870.2375
279.44768	4829.8375
283.68397	4740.0375
287.91719	4704.6375
292.14735	4702.9375
296.37445	4729.3375
300.59849	4833.0375
304.81948	4949.1375
309.03742	5019.7375
313.25231	5038.7375
317.46415	4983.2375
321.67296	4861.4375
325.87872	4739.1375
330.08145	4701.4375
334.28114	4717.5375
338.47781	4784.8375
342.67145	4872.3375
346.86207	4986.5375
351.04966	5150.1375
355.23424	5299.3375
359.4158	5446.3375
363.59435	5536.6375
367.76989	5596.4375
371.94243	5654.6375
376.11196	5687.1375
380.27849	5724.1375
384.44203	5740.6375
388.60257	5783.2375
392.76012	5819.7375
396.91468	5901.6375
401.06626	5998.8375
405.21485	6095.2375
409.36047	6067.9375
413.50311	5920.3375
417.64277	5796.0375
421.77947	5735.3375
425.9132	5725.2375
430.04396	5770.9375
434.17176	5909.1375
438.2966	6064.1375
442.41849	6315.9375
446.53742	6614.1375
450.6534	6864.9375
454.76644	7009.8375
458.87653	7035.1375
462.98368	6851.4375
467.08789	6620.6375
471.18916	6386.3375
475.2875	6149.3375
479.38291	5986.7375
483.4754	5846.4375
487.56496	5763.6375
491.6516	5707.9375
495.73531	5666.7375
499.81612	5679.4375
503.89401	5712.5375
507.96899	5738.6375
512.04106	5764.3375
516.11023	5805.0375
520.1765	5854.2375
524.23987	5904.6375
528.30034	5918.9375
532.35792	5920.8375
536.41261	5821.9375
540.46441	5741.3375
544.51333	5737.6375
548.55936	5793.2375
552.60252	5881.0375
556.64279	5944.1375
560.6802	5977.7375
564.71473	5945.7375
568.7464	5968.4375
572.7752	5984.8375
576.80114	5942.0375
580.82422	5958.2375
584.84444	6087.1375
588.86181	6308.7375
592.87633	6549.2375
596.888	6703.8375
600.89682	6892.2375
604.9028	7468.6375
608.90594	8599.8375
612.90624	9510.4375
616.90371	8685.5375
620.89834	7109.7375
624.89015	6507.8375
628.87913	6435.5375
632.86528	6340.1375
636.84862	6229.0375
640.82913	6076.7375
644.80683	5870.6375
648.78172	5790.7375
652.75379	5833.2375
656.72306	6021.9375
660.68952	6185.0375
664.65319	6139.8375
668.61405	6063.2375
672.57211	6075.9375
676.52738	6062.7375
680.47986	5955.6375
684.42955	5886.2375
688.37646	5911.6375
692.32058	5965.2375
696.26192	6055.0375
700.20048	6151.0375
704.13626	6173.4375
708.06928	6061.0375
711.99952	5992.9375
715.927	6006.4375
719.85171	6060.5375
723.77365	6044.2375
727.69284	5949.7375
731.60928	5935.1375
735.52295	5977.2375
739.43388	6039.0375
743.34206	6108.2375
747.24749	6116.8375
751.15017	6136.4375
755.05012	6211.7375
758.94733	6419.4375
762.8418	6803.0375
766.73354	7421.9375
770.62254	7983.3375
774.50882	8203.1375
778.39237	7909.1375
782.27321	7285.2375
786.15132	6700.2375
790.02671	6352.3375
793.89938	6185.8375
797.76935	6115.6375
801.6366	6068.0375
805.50115	6049.7375
809.36299	6012.6375
813.22213	6001.3375
817.07857	5980.7375
820.93231	5980.4375
824.78336	5987.4375
828.63172	6018.9375
832.47738	6027.1375
836.32036	6024.1375
840.16066	6049.5375
843.99827	6060.1375
847.8332	6064.9375
851.66546	6038.6375
855.49504	6025.6375
859.32195	6028.4375
863.1462	6020.3375
866.96777	5998.3375
870.78668	6006.9375
874.60293	6015.4375
878.41652	6030.4375
882.22745	6095.4375
886.03573	6118.8375
889.84136	6116.1375
893.64433	6073.0375
897.44466	6065.2375
901.24235	6034.6375
905.0374	6037.3375
908.8298	6004.7375
912.61957	6013.1375
916.40671	6049.5375
920.19121	6090.5375
923.97308	6168.0375
927.75233	6235.6375
931.52895	6255.2375
935.30295	6210.0375
939.07433	6080.6375
942.84309	6025.1375
946.60924	6021.8375
950.37278	5981.1375
954.13371	5937.3375
957.89203	5914.5375
961.64774	5914.3375
965.40086	5897.1375
969.15137	5872.7375
972.89929	5871.3375
976.64461	5877.2375
980.38733	5900.1375
984.12747	5950.4375
987.86502	5988.4375
991.59999	6072.4375
995.33237	6209.0375
999.06217	6471.4375
1002.78939	6678.1375
1006.51404	6796.7375
1010.23611	6859.0375
1013.95561	6995.5375
1017.67255	7065.2375
1021.38692	7017.2375
1025.09872	6928.6375
1028.80796	6970.6375
1032.51465	7109.6375
1036.21877	7212.5375
1039.92035	7194.6375
1043.61937	7096.6375
1047.31584	6934.4375
1051.00976	6756.2375
1054.70114	6710.8375
1058.38998	6685.3375
1062.07627	6713.4375
1065.76003	6725.6375
1069.44126	6771.2375
1073.11995	6873.9375
1076.79611	6914.5375
1080.46974	7002.4375
1084.14085	7057.0375
1087.80943	7115.7375
1091.47549	7113.3375
1095.13903	7006.4375
1098.80005	6899.1375
1102.45857	6851.6375
1106.11456	6827.1375
1109.76805	6851.8375
1113.41903	6929.0375
1117.06751	7024.2375
1120.71348	7169.9375
1124.35696	7327.1375
1127.99793	7376.3375
1131.63641	7282.3375
1135.2724	7166.3375
1138.90589	7013.0375
1142.5369	6897.0375
1146.16542	6824.2375
1149.79145	6775.8375
1153.415	6793.7375
1157.03607	6842.1375
1160.65467	6947.9375
1164.27079	7124.0375
1167.88443	7398.4375
1171.49561	7821.7375
1175.10432	8463.5375
1178.71056	9279.1375
1182.31434	10090.1375
1185.91565	10607.6375
1189.51451	10720.3375
1193.11091	10406.2375
1196.70485	9863.0375
1200.29634	9279.0375
1203.88538	8762.8375
1207.47197	8340.4375
1211.05612	8045.0375
1214.63782	7880.2375
1218.21708	7873.3375
1221.79391	7909.8375
1225.36829	7962.8375
1228.94024	7946.7375
1232.50976	7921.0375
1236.07685	7904.6375
1239.6415	7965.4375
1243.20374	8014.9375
1246.76355	8032.1375
1250.32093	8151.8375
1253.8759	8315.7375
1257.42845	8580.2375
1260.97859	8866.7375
1264.52631	9089.3375
1268.07163	9253.5375
1271.61453	9371.5375
1275.15503	9502.2375
1278.69312	9650.1375
1282.22882	9865.0375
1285.76211	10100.1375
1289.29301	10353.8375
1292.82151	10614.0375
1296.34761	10869.4375
1299.87133	11227.2375
1303.39266	11782.6375
1306.9116	12570.8375
1310.42815	13353.5375
1313.94233	13707.8375
1317.45412	13470.2375
1320.96354	12953.4375
1324.47058	12453.8375
1327.97525	12177.0375
1331.47754	12207.3375
1334.97747	12448.5375
1338.47502	12693.6375
1341.97022	12893.5375
1345.46305	13090.8375
1348.95352	13434.1375
1352.44163	13936.1375
1355.92738	14531.1375
1359.41078	15285.0375
1362.89183	15500.1375
1366.37053	14652.7375
1369.84688	13132.5375
1373.32088	11725.1375
1376.79254	10861.9375
1380.26186	10436.3375
1383.72883	10182.1375
1387.19347	9898.9375
1390.65578	9539.4375
1394.11575	9211.5375
1397.57339	9090.0375
1401.0287	9144.8375
1404.48168	9354.0375
1407.93234	9636.1375
1411.38068	9925.9375
1414.82669	10000.5375
1418.27039	9817.6375
1421.71177	9643.8375
1425.15083	9606.7375
1428.58758	9727.6375
1432.02203	9988.0375
1435.45416	10136.2375
1438.88399	10107.4375
1442.31151	10004.5375
1445.73673	9968.0375
1449.15965	9888.1375
1452.58027	9701.6375
1455.9986	9545.0375
1459.41463	9489.5375
1462.82837	9570.9375
1466.23982	9785.8375
1469.64898	10052.4375
1473.05586	10233.6375
1476.46045	10400.7375
1479.86276	10532.1375
1483.26279	10553.4375
1486.66054	10641.9375
1490.05602	10774.5375
1493.44922	10985.2375
1496.84016	11319.8375
1500.22882	11748.6375
1503.61521	12328.4375
1506.99934	12880.9375
1510.38121	13070.7375
1513.76081	12759.8375
1517.13816	11991.0375
1520.51324	11209.8375
1523.88607	10703.9375
1527.25665	10462.9375
1530.62498	10454.6375
1533.99105	10493.7375
1537.35488	10536.2375
1540.71647	10544.6375
1544.07581	10458.4375
1547.4329	10286.9375
1550.78776	10001.1375
1554.14038	9724.8375
1557.49077	9518.0375
1560.83892	9429.8375
1564.18484	9460.9375
1567.52853	9537.2375
1570.86999	9582.0375
1574.20922	9571.9375
1577.54624	9477.8375
1580.88103	9216.1375
1584.2136	9048.4375
1587.54395	9077.6375
1590.87208	9507.9375
1594.19801	10314.5375
1597.52172	11317.0375
1600.84321	12008.0375
1604.16251	11974.4375
1607.47959	11305.7375
1610.79447	10306.9375
1614.10715	9349.1375
1617.41763	8603.3375
1620.7259	8154.0375
1624.03199	7935.7375
1627.33587	7935.8375
1630.63757	8124.5375
1633.93707	8604.6375
1637.23439	9332.1375
1640.52951	10320.2375
1643.82246	11338.2375
1647.11321	11942.9375
1650.40179	11696.9375
1653.68819	10599.4375
1656.97241	9215.2375
1660.25446	8106.9375
1663.53433	7402.0375
1666.81203	6933.6375
1670.08756	6690.5375
1673.36092	6511.2375
1676.63211	6381.4375
1679.90115	6282.0375
1683.16801	6199.4375
1686.43272	6135.4375
1689.69527	6106.0375
1692.95567	6061.6375
1696.2139	6057.2375
1699.46999	6028.1375
1702.72392	6023.0375
1705.97571	6010.8375
1709.22535	6007.5375
1712.47284	6010.6375
1715.71819	6011.3375
1718.96139	6002.4375
1722.20246	5978.9375
1725.44139	5977.1375
1728.67818	5930.2375
1731.91284	5889.9375
1735.14537	5895.2375
1738.37576	5859.7375
1741.60403	5842.5375
1744.83017	5814.9375
1748.05418	5820.5375
1751.27607	5794.7375
1754.49584	5770.6375
1757.71349	5775.1375
1760.92903	5796.1375
1764.14244	5776.7375
1767.35375	5753.0375
1770.56294	5739.2375
1773.77002	5740.3375
1776.97499	5744.3375
1780.17785	5722.4375
1783.37861	5709.5375
1786.57727	5716.9375
1789.77382	5718.7375
1792.96828	5694.2375
1796.16064	5685.7375
1799.3509	5691.4375
1802.53907	5688.7375
1805.72514	5698.1375
1808.90913	5660.0375
1812.09102	5641.4375
1815.27083	5640.5375
1818.44856	5627.3375
1821.6242	5592.7375
1824.79776	5600.8375
1827.96924	5592.7375
1831.13864	5586.4375
1834.30597	5579.9375
1837.47122	5577.3375
1840.6344	5556.2375
1843.7955	5575.0375
1846.95454	5558.3375
1850.11151	5576.1375
1853.26642	5563.9375
1856.41926	5583.5375
1859.57004	5598.4375
1862.71876	5596.5375
1865.86542	5578.8375
1869.01003	5575.8375
1872.15258	5553.8375
1875.29308	5545.9375
1878.43152	5550.6375
1881.56792	5558.8375
1884.70227	5536.5375
1887.83457	5523.6375
1890.96482	5527.9375
1894.09304	5517.4375
1897.21921	5503.2375
1900.34335	5520.5375
1903.46544	5499.2375
1906.58551	5505.8375
1909.70353	5502.1375
1912.81953	5511.8375
1915.93349	5499.7375
1919.04543	5488.8375
1922.15534	5480.3375
1925.26322	5488.8375
1928.36908	5465.4375
1931.47292	5453.1375
1934.57473	5441.4375
1937.67453	5465.5375
1940.77232	5448.7375
1943.86808	5407.2375
1946.96184	5400.1375
1950.05358	5388.1375
1953.14331	5383.8375
1956.23103	5370.2375
1959.31675	5337.1375
1962.40046	5329.2375
1965.48217	5304.1375
1968.56188	5290.9375
1971.63959	5262.1375
1974.7153	5266.2375
1977.78901	5278.4375
1980.86073	5255.9375
1983.93046	5238.6375
1986.99819	5195.2375
1990.06394	5199.4375
1993.1277	5190.2375
1996.18947	5173.9375
1999.24925	5141.8375
2002.30706	5117.6375
2005.36288	5117.6375
2008.41672	5104.5375
2011.46859	5095.2375
2014.51848	5072.8375
2017.56639	5069.0375
2020.61233	5054.4375
2023.6563	5056.3375
2026.6983	5036.8375
2029.73833	5015.2375
2032.7764	5006.5375
2035.8125	5006.5375
2038.84664	4998.3375
2041.87881	4983.2375
2044.90903	4971.4375
2047.93729	4966.6375
2050.96359	4957.8375
2053.98794	4942.7375
2057.01034	4972.2375
2060.03078	4951.9375
2063.04927	4941.9375
2066.06582	4921.5375
2069.08042	4939.9375
2072.09307	4929.6375
2075.10378	4913.9375
2078.11255	4916.2375
2081.11938	4926.0375
2084.12426	4911.3375
2087.12722	4888.5375
2090.12824	4912.3375
2093.12732	4912.2375
2096.12447	4903.0375
2099.11969	4893.9375
2102.11299	4911.8375
2105.10435	4912.7375
2108.09379	4901.1375
2111.08131	4899.6375
2114.0669	4910.7375
2117.05057	4923.8375
2120.03233	4918.8375
2123.01216	4914.6375
2125.99008	4910.6375
2128.96609	4916.8375
2131.94018	4925.0375
2134.91236	4921.4375
2137.88263	4911.7375
2140.851	4922.9375
2143.81746	4929.1375
2146.78201	4933.6375
2149.74466	4918.7375
2152.7054	4920.3375
2155.66425	4926.9375
2158.6212	4911.2375
2161.57625	4908.7375
2164.52941	4909.5375
2167.48067	4891.9375
2170.43004	4894.5375
2173.37752	4893.1375
2176.32311	4902.4375
2179.26681	4918.6375
2182.20863	4914.1375
2185.14856	4921.7375
2188.08661	4904.3375
2191.02278	4902.1375
2193.95707	4901.3375
2196.88948	4903.0375
2199.82001	4894.2375
2202.74867	4886.3375
2205.67545	4909.5375
2208.60037	4914.4375
2211.52341	4879.4375
2214.44458	4876.4375
2217.36388	4851.3375
2220.28132	4857.5375
2223.1969	4830.9375
2226.11061	4845.9375
2229.02246	4823.4375
2231.93245	4813.2375
2234.84058	4809.0375
2237.74686	4814.7375
2240.65128	4811.2375
2243.55385	4800.8375
2246.45456	4779.9375
2249.35343	4784.9375
2252.25044	4768.9375
2255.14561	4769.7375
2258.03893	4766.8375
2260.93041	4757.0375
2263.82004	4750.6375
2266.70783	4741.9375
2269.59378	4724.6375
2272.4779	4705.8375
2275.36017	4691.4375
2278.24061	4680.6375
2281.11922	4681.8375
2283.996	4661.0375
2286.87094	4656.0375
2289.74405	4645.6375
2292.61534	4653.4375
2295.4848	4636.8375
2298.35243	4637.5375
2301.21824	4631.1375
2304.08223	4616.4375
2306.94439	4631.1375
2309.80474	4641.5375
2312.66327	4647.7375
2315.51999	4654.7375
2318.37489	4645.0375
2321.22797	4637.0375
2324.07925	4627.5375
2326.92871	4628.1375
2329.77637	4603.8375
2332.62222	4605.6375
2335.46626	4605.0375
2338.3085	4596.4375
2341.14893	4609.9375
2343.98756	4622.6375
2346.8244	4641.6375
2349.65943	4610.3375
2352.49267	4622.6375
2355.32411	4606.6375
2358.15376	4620.4375
2360.98161	4595.5375
2363.80768	4621.0375
2366.63195	4597.4375
2369.45444	4588.1375
2372.27514	4580.8375
2375.09405	4582.5375
2377.91118	4550.7375
2380.72652	4567.9375
2383.54009	4535.5375
2386.35187	4527.5375
2389.16188	4529.5375
2391.97011	4509.4375
2394.77657	4499.3375
2397.58125	4503.6375
2400.38416	4489.9375
2403.18529	4468.0375
2405.98466	4486.0375
2408.78226	4461.1375
2411.57809	4457.1375
2414.37216	4428.6375
2417.16446	4426.5375
2419.955	4444.5375
2422.74378	4422.3375
2425.5308	4422.1375
2428.31606	4423.8375
2431.09956	4428.8375
2433.88131	4404.9375
2436.6613	4403.1375
2439.43954	4417.0375
2442.21603	4387.9375
2444.99077	4413.1375
2447.76377	4393.4375
2450.53501	4404.9375
2453.30451	4390.4375
2456.07226	4392.4375
2458.83827	4382.9375
2461.60254	4379.3375
2464.36507	4365.2375
2467.12586	4373.0375
2469.88492	4380.7375
2472.64224	4382.6375
2475.39782	4384.5375
2478.15167	4362.3375
2480.90379	4373.3375
2483.65417	4351.6375
2486.40283	4375.1375
2489.14976	4377.3375
2491.89497	4383.0375
2494.63845	4386.3375
2497.3802	4381.4375
2500.12024	4376.0375
2502.85855	4359.2375
2505.59514	4377.8375
2508.33002	4363.4375
2511.06318	4365.1375
2513.79462	4348.5375
2516.52435	4340.3375
2519.25237	4342.0375
2521.97867	4345.8375
2524.70327	4333.6375
2527.42616	4324.0375
2530.14734	4322.6375
2532.86681	4315.8375
2535.58458	4339.9375
2538.30065	4320.3375
2541.01501	4315.2375
2543.72768	4315.2375
2546.43864	4311.1375
2549.14791	4303.7375
2551.85548	4308.1375
2554.56136	4308.4375
2557.26554	4292.9375
2559.96803	4302.1375
2562.66883	4288.4375
2565.36794	4283.0375
2568.06536	4256.6375
2570.7611	4252.3375
2573.45514	4250.4375
2576.14751	4243.5375
2578.83819	4238.7375
2581.52719	4250.2375
2584.21451	4255.1375
2586.90015	4243.3375
2589.58411	4237.0375
2592.2664	4246.3375
2594.94701	4225.8375
2597.62594	4233.1375
2600.30321	4230.5375
2602.9788	4223.2375
2605.65273	4225.3375
2608.32498	4249.3375
2610.99557	4230.2375
2613.66449	4223.5375
2616.33175	4225.5375
2618.99734	4216.5375
2621.66128	4226.2375
2624.32355	4216.0375
2626.98416	4226.0375
2629.64311	4225.2375
2632.30041	4210.4375
2634.95605	4217.0375
2637.61004	4212.6375
2640.26238	4199.2375
2642.91306	4184.3375
2645.56209	4218.5375
2648.20948	4193.3375
2650.85521	4181.6375
2653.4993	4192.7375
2656.14175	4189.6375
2658.78255	4193.1375
2661.42171	4185.2375
2664.05923	4201.4375
2666.6951	4195.2375
2669.32934	4199.7375
2671.96194	4200.8375
2674.59291	4214.3375
2677.22224	4207.6375
2679.84993	4209.3375
2682.476	4209.8375
2685.10043	4201.4375
2687.72324	4208.5375
2690.34441	4215.4375
2692.96396	4190.8375
2695.58188	4193.4375
2698.19818	4193.6375
2700.81285	4187.5375
2703.4259	4187.2375
2706.03733	4188.8375
2708.64714	4191.3375
2711.25533	4177.5375
2713.86191	4179.4375
2716.46687	4192.8375
2719.07021	4193.5375
2721.67194	4198.3375
2724.27206	4194.4375
2726.87057	4201.2375
2729.46747	4203.1375
2732.06276	4193.6375
2734.65644	4195.7375
2737.24852	4195.4375
2739.83899	4186.7375
2742.42786	4184.4375
2745.01513	4172.0375
2747.60079	4172.0375
2750.18486	4172.5375
2752.76733	4170.6375
2755.3482	4154.8375
2757.92747	4151.4375
2760.50515	4163.2375
2763.08123	4151.1375
2765.65573	4145.3375
2768.22863	4135.3375
2770.79994	4140.0375
2773.36967	4134.8375
2775.9378	4143.8375
2778.50435	4131.8375
2781.06932	4134.2375
2783.6327	4156.6375
2786.1945	4146.9375
2788.75471	4141.4375
2791.31335	4130.8375
2793.87041	4114.0375
2796.42589	4101.4375
2798.97979	4103.6375
2801.53212	4110.6375
2804.08288	4098.9375
2806.63206	4084.3375
2809.17967	4090.6375
2811.72571	4072.8375
2814.27018	4073.9375
2816.81308	4055.0375
2819.35442	4043.5375
2821.89419	4051.5375
2824.43239	4039.6375
2826.96904	4041.6375
2829.50412	4040.9375
2832.03763	4019.7375
2834.56959	4020.2375
2837.1	4008.2375
2839.62884	4012.4375
2842.15613	4019.6375
2844.68186	4007.7375
2847.20604	4007.3375
2849.72867	4015.4375
2852.24974	4002.2375
2854.76927	3989.8375
2857.28724	3986.1375
2859.80367	3984.2375
2862.31855	3972.6375
2864.83189	3990.7375
2867.34368	3967.4375
2869.85393	3960.1375
2872.36264	3958.9375
2874.8698	3961.9375
2877.37543	3958.4375
2879.87952	3943.3375
2882.38207	3950.9375
2884.88308	3943.8375
2887.38256	3945.0375
2889.88051	3931.4375
2892.37692	3941.2375
2894.8718	3918.3375
2897.36515	3937.9375
2899.85698	3928.6375
2902.34727	3940.2375
2904.83604	3940.7375
2907.32328	3951.3375
2909.809	3943.1375
2912.29319	3964.0375
2914.77587	3955.3375
2917.25702	3953.4375
2919.73665	3959.1375
2922.21476	3942.5375
2924.69136	3938.7375
2927.16644	3931.3375
2929.64	3930.9375
2932.11205	3907.5375
2934.58258	3902.4375
2937.05161	3921.7375
2939.51912	3907.9375
2941.98513	3915.5375
2944.44962	3905.9375
2946.91261	3900.5375
2949.37409	3899.9375
2951.83407	3884.4375
2954.29254	3890.6375
2956.74951	3873.5375
2959.20498	3884.6375
2961.65895	3870.4375
2964.11142	3880.4375
2966.56239	3865.8375
2969.01186	3876.3375
2971.45984	3861.3375
2973.90632	3850.0375
2976.35131	3840.9375
2978.7948	3833.1375
2981.23681	3830.0375
2983.67732	3827.4375
2986.11635	3811.0375
2988.55388	3802.7375
2990.98993	3794.9375
2993.4245	3782.6375
2995.85758	3774.0375
2998.28917	3757.9375
3000.71928	3752.0375
3003.14791	3728.3375
3005.57506	3727.5375
3008.00073	3716.8375
3010.42493	3706.9375
3012.84764	3711.9375
3015.26888	3700.1375
3017.68865	3672.9375
3020.10694	3680.9375
3022.52376	3671.4375
3024.9391	3654.0375
3027.35298	3645.3375
3029.76539	3637.9375
3032.17632	3638.0375
3034.5858	3638.0375
3036.9938	3626.9375
3039.40034	3623.4375
3041.80542	3604.2375
3044.20903	3599.5375
3046.61118	3596.5375
3049.01187	3579.8375
3051.4111	3582.1375
3053.80888	3578.4375
3056.20519	3560.8375
3058.60005	3536.8375
3060.99345	3551.7375
3063.3854	3529.7375
3065.7759	3521.8375
3068.16494	3508.6375
3070.55254	3499.0375
3072.93868	3482.0375
3075.32338	3480.9375
3077.70662	3471.8375
3080.08842	3459.4375
3082.46878	3461.2375
3084.84769	3441.3375
3087.22515	3438.1375
3089.60118	3434.1375
3091.97576	3430.3375
3094.3489	3437.9375
3096.72061	3421.0375
3099.09087	3426.6375
3101.4597	3416.3375
3103.82709	3414.4375
3106.19305	3402.0375
3108.55757	3398.0375
3110.92066	3389.6375
3113.28232	3384.2375
3115.64255	3379.7375
3118.00134	3367.6375
3120.35871	3362.1375
3122.71466	3363.1375
3125.06917	3361.0375
3127.42226	3337.8375
3129.77393	3338.2375
3132.12417	3331.2375
3134.47299	3311.9375
3136.82039	3315.7375
3139.16636	3326.2375
3141.51092	3322.7375
3143.85406	3309.2375
3146.19579	3310.3375
3148.53609	3304.6375
3150.87499	3305.7375
3153.21246	3291.6375
3155.54853	3302.3375
3157.88318	3296.9375
3160.21642	3282.1375
3162.54826	3286.1375
3164.87868	3290.0375
3167.2077	3277.0375
3169.5353	3269.9375
3171.86151	3255.6375
3174.18631	3268.7375
3176.5097	3252.8375
3178.83169	3255.0375
3181.15228	3237.4375
3183.47147	3231.3375
3185.78926	3230.7375
3188.10565	3212.4375
3190.42065	3209.8375
3192.73424	3219.2375
3195.04645	3208.2375
3197.35725	3205.4375
3199.66667	3201.3375
3201.97469	3216.5375
3204.28132	3206.5375
3206.58656	3209.5375
3208.8904	3210.8375
3211.19287	3200.8375
3213.49394	3204.6375
3215.79363	3197.4375
3218.09193	3204.2375
3220.38884	3201.5375
3222.68438	3199.2375
3224.97853	3199.8375
3227.2713	3180.8375
3229.56269	3176.9375
3231.8527	3185.8375
3234.14133	3173.8375
3236.42858	3161.0375
3238.71446	3147.2375
3240.99896	3147.0375
3243.28209	3137.4375
3245.56384	3143.3375
3247.84423	3135.0375
3250.12324	3129.8375
3252.40088	3129.9375
3254.67715	3119.8375
3256.95205	3118.6375
3259.22558	3112.0375
3261.49775	3107.8375
3263.76855	3128.8375
3266.03799	3108.7375
3268.30606	3110.3375
3270.57277	3114.4375
3272.83812	3101.1375
3275.10211	3084.4375
3277.36474	3081.8375
3279.62601	3081.2375
3281.88593	3058.6375
3284.14448	3056.6375
3286.40168	3064.3375
3288.65753	3066.7375
3290.91202	3062.3375
3293.16516	3057.1375
3295.41695	3049.5375
3297.66738	3039.7375
3299.91647	3032.3375
3302.16421	3021.5375
3304.4106	2998.7375
3306.65564	2982.1375
3308.89933	2942.1375
3311.14169	2919.7375
3313.38269	2890.5375
3315.62236	2867.1375
3317.86068	2857.0375
3320.09766	2834.8375
3322.3333	2799.2375
3324.5676	2784.1375
3326.80056	2740.3375
3329.03219	2736.3375
3331.26248	-0.2625
3333.49143	-1.4625
3335.71905	0.4375
