Data from AgNPs_UA_10uM_CRN_500uM_SU_RamanShift__75__13-17-50-268.txt Node

Date: Thu Aug 04 13:17:50 BST 2022
User: TCL
Spectrometer: QEP01345
Trigger mode: 4
Integration Time (sec): 1.000000E0
Scans to average: 10
Electric dark correction enabled: true
Nonlinearity correction enabled: false
Boxcar width: 0
XAxis mode: Raman Shifts
Number of Pixels in Spectrum: 1044
>>>>>Begin Spectral Data<<<<<
46.04893	0.5
50.45542	-1.2
54.85868	0.2
59.25871	0
63.6555	23.8
68.04907	23.7
72.43941	24.5
76.82654	23.3
81.21044	25.3
85.59113	28.5
89.96862	29.7
94.34289	30.5
98.71396	28.7
103.08183	31
107.4465	30.3
111.80798	30.8
116.16626	33.9
120.52136	37.2
124.87327	38.8
129.222	38.3
133.56755	42.3
137.90993	46.5
142.24913	52.1
146.58517	57.1
150.91804	68.3
155.24774	83.5
159.57429	105.3
163.89768	137.9
168.21792	186.3
172.53501	250.3
176.84895	353.5
181.15975	500.8
185.46741	712.3
189.77193	984.3
194.07331	1324.3
198.37157	1702.7
202.6667	2111
206.9587	2516.1
211.24758	2922.4
215.53334	3322.9
219.81599	3756.2
224.09553	4249.6
228.37195	4762.7
232.64527	5337.1
236.91549	5901.6
241.18261	6458.5
245.44663	6904.5
249.70755	7267
253.96539	7593.1
258.22014	7897.3
262.4718	8130.8
266.72039	8318
270.96589	8378.5
275.20832	8341
279.44768	8237.3
283.68397	8114
287.91719	7994.5
292.14735	8020.3
296.37445	8109.8
300.59849	8257.4
304.81948	8487.5
309.03742	8653.9
313.25231	8756
317.46415	8680.7
321.67296	8464.4
325.87872	8216.8
330.08145	8087.6
334.28114	8117.2
338.47781	8206.9
342.67145	8336.1
346.86207	8520.5
351.04966	8807.9
355.23424	9090.5
359.4158	9315.9
363.59435	9449
367.76989	9500.4
371.94243	9538.9
376.11196	9583.6
380.27849	9603.2
384.44203	9680.9
388.60257	9726.3
392.76012	9822.2
396.91468	9950.8
401.06626	10113.1
405.21485	10166.6
409.36047	10101.1
413.50311	9869.1
417.64277	9654.6
421.77947	9501.8
425.9132	9433.3
430.04396	9423.8
434.17176	9449.9
438.2966	9562.7
442.41849	9742.2
446.53742	9944.9
450.6534	10143.9
454.76644	10302.6
458.87653	10401.7
462.98368	10396.5
467.08789	10343
471.18916	10182.3
475.2875	9992.1
479.38291	9813.8
483.4754	9698.4
487.56496	9618.3
491.6516	9580.5
495.73531	9573.8
499.81612	9614
503.89401	9695.4
507.96899	9738.2
512.04106	9782
516.11023	9817.4
520.1765	9830
524.23987	9848.2
528.30034	9853.4
532.35792	9860.4
536.41261	9760.2
540.46441	9668.6
544.51333	9664.1
548.55936	9734.4
552.60252	9867.1
556.64279	10001.1
560.6802	10120.8
564.71473	10178.6
568.7464	10217.9
572.7752	10187.8
576.80114	9981.3
580.82422	9871.4
584.84444	9834.4
588.86181	9848.4
592.87633	9907.7
596.888	10116
600.89682	10568
604.9028	11574.8
608.90594	13603.7
612.90624	15435.9
616.90371	14296.8
620.89834	11628.5
624.89015	10596.8
628.87913	10542.3
632.86528	10678.4
636.84862	10702.4
640.82913	10459.5
644.80683	10124.6
648.78172	9912.3
652.75379	9959.4
656.72306	10218.7
660.68952	10502
664.65319	10458.9
668.61405	10406.2
672.57211	10543.8
676.52738	10524.9
680.47986	10274.2
684.42955	10051.6
688.37646	10012.3
692.32058	10135.6
696.26192	10314.9
700.20048	10507.1
704.13626	10533.5
708.06928	10391.8
711.99952	10243.7
715.927	10238.4
719.85171	10313.2
723.77365	10336.8
727.69284	10228.2
731.60928	10164.4
735.52295	10182.6
739.43388	10206.4
743.34206	10262.9
747.24749	10235.8
751.15017	10278.9
755.05012	10364.7
758.94733	10642.6
762.8418	11380.1
766.73354	12377
770.62254	13218.3
774.50882	13508.2
778.39237	13193.8
782.27321	12531.2
786.15132	11655.5
790.02671	10972.4
793.89938	10630.8
797.76935	10446.4
801.6366	10351.7
805.50115	10283.7
809.36299	10257.6
813.22213	10244.8
817.07857	10256.6
820.93231	10222.4
824.78336	10252.6
828.63172	10274.8
832.47738	10296.4
836.32036	10270.3
840.16066	10274.3
843.99827	10284.2
847.8332	10294.5
851.66546	10301.3
855.49504	10320
859.32195	10326.6
863.1462	10282.2
866.96777	10293
870.78668	10274.7
874.60293	10325.8
878.41652	10374.8
882.22745	10455.8
886.03573	10483.6
889.84136	10497
893.64433	10465.3
897.44466	10425.4
901.24235	10390.2
905.0374	10371.8
908.8298	10350.7
912.61957	10334.6
916.40671	10363.4
920.19121	10377.3
923.97308	10438.5
927.75233	10532.8
931.52895	10604.4
935.30295	10553.7
939.07433	10399.3
942.84309	10325.9
946.60924	10303.9
950.37278	10279.1
954.13371	10257.2
957.89203	10245.1
961.64774	10238.4
965.40086	10240
969.15137	10210.9
972.89929	10208.9
976.64461	10185.8
980.38733	10241.9
984.12747	10243.9
987.86502	10314.4
991.59999	10355.7
995.33237	10479
999.06217	10627.8
1002.78939	10765.1
1006.51404	10934.1
1010.23611	11062.9
1013.95561	11218.8
1017.67255	11243.8
1021.38692	11253.4
1025.09872	11215
1028.80796	11176
1032.51465	11267.8
1036.21877	11305.1
1039.92035	11332.1
1043.61937	11296.2
1047.31584	11250.9
1051.00976	11205.5
1054.70114	11219
1058.38998	11231.1
1062.07627	11292.2
1065.76003	11370.5
1069.44126	11472.8
1073.11995	11697.1
1076.79611	11887
1080.46974	11994.2
1084.14085	12053.7
1087.80943	12136.4
1091.47549	12178.9
1095.13903	12193
1098.80005	12254.3
1102.45857	12401.9
1106.11456	12360.1
1109.76805	12196.4
1113.41903	12118.3
1117.06751	12212.8
1120.71348	12361.1
1124.35696	12469
1127.99793	12536.9
1131.63641	12368.2
1135.2724	12123.3
1138.90589	11889.2
1142.5369	11706.2
1146.16542	11622.5
1149.79145	11537.6
1153.415	11432.6
1157.03607	11434.7
1160.65467	11517.2
1164.27079	11750.7
1167.88443	12078.5
1171.49561	12582.4
1175.10432	13268.8
1178.71056	14174.9
1182.31434	15002.7
1185.91565	15432.7
1189.51451	15513.7
1193.11091	15424.8
1196.70485	15126.5
1200.29634	14752.8
1203.88538	14278.4
1207.47197	13777.3
1211.05612	13278.6
1214.63782	12857.9
1218.21708	12561.9
1221.79391	12438.4
1225.36829	12411.3
1228.94024	12386.6
1232.50976	12388.4
1236.07685	12404.5
1239.6415	12431.5
1243.20374	12479.3
1246.76355	12592.2
1250.32093	12674.2
1253.8759	12834.3
1257.42845	13170.5
1260.97859	13501.4
1264.52631	13805.5
1268.07163	14036.1
1271.61453	14200
1275.15503	14264.9
1278.69312	14312.8
1282.22882	14410.5
1285.76211	14494.3
1289.29301	14614.8
1292.82151	14847.6
1296.34761	15108.4
1299.87133	15498.5
1303.39266	16213.1
1306.9116	17248.6
1310.42815	18306.8
1313.94233	18795.5
1317.45412	18435.2
1320.96354	17654.6
1324.47058	16861.2
1327.97525	16184.9
1331.47754	15764.6
1334.97747	15711.7
1338.47502	15945.2
1341.97022	16500.5
1345.46305	17317.1
1348.95352	18351.4
1352.44163	19495.3
1355.92738	20525.2
1359.41078	21601
1362.89183	22132.7
1366.37053	20991.1
1369.84688	18576.9
1373.32088	16411.7
1376.79254	15117.5
1380.26186	14509.7
1383.72883	14133.1
1387.19347	13811.9
1390.65578	13435.1
1394.11575	13090.8
1397.57339	12813.1
1401.0287	12720
1404.48168	12748.7
1407.93234	12937.4
1411.38068	13164.9
1414.82669	13378.2
1418.27039	13458.9
1421.71177	13355.6
1425.15083	13279.6
1428.58758	13252.9
1432.02203	13276.4
1435.45416	13332.5
1438.88399	13304.2
1442.31151	13231.8
1445.73673	13178
1449.15965	13204.2
1452.58027	13145.7
1455.9986	13091.6
1459.41463	13056.8
1462.82837	13180
1466.23982	13358
1469.64898	13600.1
1473.05586	13768.3
1476.46045	13936
1479.86276	14097.4
1483.26279	14278.7
1486.66054	14491.1
1490.05602	14870.5
1493.44922	15400.3
1496.84016	16249.1
1500.22882	17310.5
1503.61521	18607.8
1506.99934	19704.3
1510.38121	20229.1
1513.76081	19887.7
1517.13816	18643.2
1520.51324	17073.1
1523.88607	15890.9
1527.25665	15129.2
1530.62498	14709.3
1533.99105	14578.4
1537.35488	14465.4
1540.71647	14359.9
1544.07581	14256.3
1547.4329	14156.2
1550.78776	13969.2
1554.14038	13819.6
1557.49077	13780.5
1560.83892	13882.1
1564.18484	14099.9
1567.52853	14332.2
1570.86999	14439.7
1574.20922	14479.1
1577.54624	14322.1
1580.88103	13888.7
1584.2136	13400.1
1587.54395	13196.6
1590.87208	13343.6
1594.19801	13784.2
1597.52172	14406.4
1600.84321	14669.2
1604.16251	14639.5
1607.47959	14346.4
1610.79447	13891.1
1614.10715	13259.5
1617.41763	12629.7
1620.7259	12176.9
1624.03199	11897.8
1627.33587	11838.7
1630.63757	11972.4
1633.93707	12394.2
1637.23439	13133.9
1640.52951	14145.9
1643.82246	15394.3
1647.11321	16526.2
1650.40179	16787.1
1653.68819	15839.1
1656.97241	14209.6
1660.25446	12686.8
1663.53433	11684.5
1666.81203	11106.4
1670.08756	10748.3
1673.36092	10510.9
1676.63211	10371.1
1679.90115	10238.8
1683.16801	10144.3
1686.43272	10079.6
1689.69527	9992.9
1692.95567	9938.9
1696.2139	9917.4
1699.46999	9913.6
1702.72392	9887.2
1705.97571	9873.7
1709.22535	9878.4
1712.47284	9873.5
1715.71819	9899.2
1718.96139	9854.8
1722.20246	9857.9
1725.44139	9839.6
1728.67818	9758.4
1731.91284	9713.3
1735.14537	9683.3
1738.37576	9635.6
1741.60403	9599
1744.83017	9579.5
1748.05418	9556.4
1751.27607	9562.7
1754.49584	9509.4
1757.71349	9528.8
1760.92903	9517.5
1764.14244	9488.4
1767.35375	9455.8
1770.56294	9433.5
1773.77002	9462.7
1776.97499	9410.4
1780.17785	9360.5
1783.37861	9363.3
1786.57727	9365.7
1789.77382	9350.1
1792.96828	9322
1796.16064	9316.1
1799.3509	9286.9
1802.53907	9285.4
1805.72514	9279.5
1808.90913	9233.3
1812.09102	9233.5
1815.27083	9204.2
1818.44856	9179.5
1821.6242	9149.8
1824.79776	9150.5
1827.96924	9129.7
1831.13864	9123.4
1834.30597	9116.6
1837.47122	9077.9
1840.6344	9052.1
1843.7955	9055.9
1846.95454	9066.6
1850.11151	9079.2
1853.26642	9065.4
1856.41926	9054
1859.57004	9046.9
1862.71876	9048.6
1865.86542	9039.3
1869.01003	9039.2
1872.15258	9019.1
1875.29308	8999.5
1878.43152	8998.6
1881.56792	8978.1
1884.70227	8981.1
1887.83457	8938.1
1890.96482	8933.6
1894.09304	8897.5
1897.21921	8875.8
1900.34335	8884.2
1903.46544	8869.9
1906.58551	8872.3
1909.70353	8860.8
1912.81953	8849.9
1915.93349	8838
1919.04543	8793.6
1922.15534	8811
1925.26322	8781.8
1928.36908	8761.6
1931.47292	8745.9
1934.57473	8710.1
1937.67453	8709.6
1940.77232	8699.7
1943.86808	8659.7
1946.96184	8624.2
1950.05358	8636.8
1953.14331	8592.8
1956.23103	8568.4
1959.31675	8549.3
1962.40046	8516.7
1965.48217	8503.9
1968.56188	8442.4
1971.63959	8435.9
1974.7153	8419.1
1977.78901	8408
1980.86073	8368.9
1983.93046	8340.5
1986.99819	8302
1990.06394	8297.5
1993.1277	8273.7
1996.18947	8205.1
1999.24925	8195.4
2002.30706	8159.3
2005.36288	8157.9
2008.41672	8090.8
2011.46859	8081.1
2014.51848	8059.3
2017.56639	8049.5
2020.61233	8003.2
2023.6563	8003.5
2026.6983	7981.1
2029.73833	7948.2
2032.7764	7939.6
2035.8125	7904.9
2038.84664	7900
2041.87881	7869.5
2044.90903	7868.7
2047.93729	7854
2050.96359	7840.6
2053.98794	7838.6
2057.01034	7817.6
2060.03078	7804.7
2063.04927	7774.1
2066.06582	7782.8
2069.08042	7773.3
2072.09307	7777.7
2075.10378	7765.6
2078.11255	7752.8
2081.11938	7761.1
2084.12426	7719.4
2087.12722	7737.1
2090.12824	7738.5
2093.12732	7727.8
2096.12447	7726
2099.11969	7739.4
2102.11299	7717.7
2105.10435	7733
2108.09379	7728.7
2111.08131	7728.6
2114.0669	7744
2117.05057	7732.6
2120.03233	7752.8
2123.01216	7752.2
2125.99008	7763
2128.96609	7749.1
2131.94018	7765.8
2134.91236	7760.1
2137.88263	7751.4
2140.851	7754.4
2143.81746	7757.2
2146.78201	7736
2149.74466	7728.1
2152.7054	7747
2155.66425	7750.8
2158.6212	7739
2161.57625	7728
2164.52941	7714.3
2167.48067	7707.9
2170.43004	7701.8
2173.37752	7703.1
2176.32311	7698.1
2179.26681	7718.8
2182.20863	7717.7
2185.14856	7707.2
2188.08661	7696.3
2191.02278	7697.9
2193.95707	7713.2
2196.88948	7687.6
2199.82001	7674.8
2202.74867	7637.9
2205.67545	7693
2208.60037	7666.3
2211.52341	7661.1
2214.44458	7626.7
2217.36388	7601.6
2220.28132	7577.5
2223.1969	7553
2226.11061	7536.3
2229.02246	7520.8
2231.93245	7530.2
2234.84058	7512.8
2237.74686	7483.1
2240.65128	7479.1
2243.55385	7482.6
2246.45456	7459.6
2249.35343	7430.6
2252.25044	7437.1
2255.14561	7399.7
2258.03893	7417.1
2260.93041	7403.9
2263.82004	7400.2
2266.70783	7370.6
2269.59378	7363
2272.4779	7332.5
2275.36017	7312
2278.24061	7289.2
2281.11922	7284.8
2283.996	7261.8
2286.87094	7247.7
2289.74405	7239.5
2292.61534	7227.7
2295.4848	7210.5
2298.35243	7209.4
2301.21824	7199.3
2304.08223	7183.9
2306.94439	7197.7
2309.80474	7208.5
2312.66327	7187.4
2315.51999	7174.8
2318.37489	7166.2
2321.22797	7144.6
2324.07925	7129.7
2326.92871	7118.6
2329.77637	7115
2332.62222	7098.4
2335.46626	7070.9
2338.3085	7063.7
2341.14893	7084.6
2343.98756	7064.7
2346.8244	7081.8
2349.65943	7048.2
2352.49267	7055.4
2355.32411	7033.8
2358.15376	7032.1
2360.98161	7011.2
2363.80768	7042.3
2366.63195	7023.4
2369.45444	7024.3
2372.27514	7002.4
2375.09405	6995
2377.91118	6975
2380.72652	6958.6
2383.54009	6950.8
2386.35187	6936.3
2389.16188	6918.8
2391.97011	6902.6
2394.77657	6872.9
2397.58125	6844.6
2400.38416	6863.2
2403.18529	6838
2405.98466	6846.4
2408.78226	6831.7
2411.57809	6807.3
2414.37216	6777.3
2417.16446	6786.5
2419.955	6785.6
2422.74378	6765.5
2425.5308	6769.9
2428.31606	6762.7
2431.09956	6757.1
2433.88131	6741.1
2436.6613	6742.6
2439.43954	6725.8
2442.21603	6718.3
2444.99077	6727.1
2447.76377	6711.2
2450.53501	6722.7
2453.30451	6712.1
2456.07226	6697.1
2458.83827	6677.6
2461.60254	6668.5
2464.36507	6631.2
2467.12586	6643.2
2469.88492	6637.4
2472.64224	6659.9
2475.39782	6637.9
2478.15167	6630.4
2480.90379	6611.7
2483.65417	6607.1
2486.40283	6607.9
2489.14976	6619.4
2491.89497	6621
2494.63845	6629.4
2497.3802	6596.2
2500.12024	6586.6
2502.85855	6581.9
2505.59514	6566.2
2508.33002	6584.9
2511.06318	6561.1
2513.79462	6534.6
2516.52435	6530.3
2519.25237	6510.4
2521.97867	6505
2524.70327	6505.8
2527.42616	6490.8
2530.14734	6471.5
2532.86681	6453.3
2535.58458	6468.9
2538.30065	6473.4
2541.01501	6473
2543.72768	6468
2546.43864	6435.8
2549.14791	6437.1
2551.85548	6416.9
2554.56136	6410.5
2557.26554	6416.1
2559.96803	6386
2562.66883	6355
2565.36794	6360
2568.06536	6347.5
2570.7611	6313.7
2573.45514	6320.4
2576.14751	6295.4
2578.83819	6285.1
2581.52719	6276.8
2584.21451	6261.1
2586.90015	6266.3
2589.58411	6261.5
2592.2664	6240.8
2594.94701	6235.4
2597.62594	6228.3
2600.30321	6233.1
2602.9788	6213.8
2605.65273	6196.3
2608.32498	6211
2610.99557	6184.4
2613.66449	6171.6
2616.33175	6156.5
2618.99734	6184.9
2621.66128	6146.1
2624.32355	6121.5
2626.98416	6132.5
2629.64311	6118.4
2632.30041	6099.2
2634.95605	6098.6
2637.61004	6084.5
2640.26238	6078.8
2642.91306	6079.8
2645.56209	6072.4
2648.20948	6062.6
2650.85521	6061.8
2653.4993	6058.6
2656.14175	6055.2
2658.78255	6044.6
2661.42171	6034.8
2664.05923	6042.2
2666.6951	6049
2669.32934	6069.9
2671.96194	6056.9
2674.59291	6070.7
2677.22224	6058.3
2679.84993	6062
2682.476	6053.9
2685.10043	6051.8
2687.72324	6035.1
2690.34441	6068.6
2692.96396	6041.9
2695.58188	6030.4
2698.19818	6035
2700.81285	6030.5
2703.4259	6005.5
2706.03733	6001.7
2708.64714	6008.6
2711.25533	5997.6
2713.86191	5994.1
2716.46687	6005.9
2719.07021	6004.7
2721.67194	6003.5
2724.27206	6004.9
2726.87057	6012
2729.46747	5975.8
2732.06276	6003.5
2734.65644	6005.3
2737.24852	5973.7
2739.83899	5958
2742.42786	5969
2745.01513	5946
2747.60079	5911.4
2750.18486	5931.3
2752.76733	5925.2
2755.3482	5922.7
2757.92747	5909.8
2760.50515	5892.2
2763.08123	5891.3
2765.65573	5878.9
2768.22863	5852.4
2770.79994	5868.8
2773.36967	5860.4
2775.9378	5853.3
2778.50435	5829.1
2781.06932	5838.1
2783.6327	5836.5
2786.1945	5840.6
2788.75471	5794.2
2791.31335	5789.8
2793.87041	5797.2
2796.42589	5769
2798.97979	5759.3
2801.53212	5748.2
2804.08288	5734.5
2806.63206	5716.7
2809.17967	5724.8
2811.72571	5709.6
2814.27018	5686.7
2816.81308	5674.3
2819.35442	5664.2
2821.89419	5647.3
2824.43239	5638.9
2826.96904	5661.5
2829.50412	5650.1
2832.03763	5609.6
2834.56959	5600
2837.1	5599.7
2839.62884	5586.5
2842.15613	5578.8
2844.68186	5588.7
2847.20604	5576.3
2849.72867	5567.9
2852.24974	5536.1
2854.76927	5552.3
2857.28724	5513.3
2859.80367	5518.5
2862.31855	5506.2
2864.83189	5509.4
2867.34368	5502.9
2869.85393	5507.5
2872.36264	5473
2874.8698	5483.5
2877.37543	5479.6
2879.87952	5472.4
2882.38207	5454.9
2884.88308	5447.9
2887.38256	5466.6
2889.88051	5450.1
2892.37692	5444.6
2894.8718	5439.1
2897.36515	5438.5
2899.85698	5436.2
2902.34727	5424.1
2904.83604	5426.9
2907.32328	5449
2909.809	5437.1
2912.29319	5466.5
2914.77587	5448.6
2917.25702	5464.2
2919.73665	5444.6
2922.21476	5433.9
2924.69136	5417
2927.16644	5429
2929.64	5410.2
2932.11205	5383.7
2934.58258	5365.3
2937.05161	5397.5
2939.51912	5387.9
2941.98513	5399.7
2944.44962	5361.1
2946.91261	5353.6
2949.37409	5367.9
2951.83407	5354.4
2954.29254	5350.7
2956.74951	5357
2959.20498	5345.9
2961.65895	5338.9
2964.11142	5327.3
2966.56239	5326.4
2969.01186	5322.1
2971.45984	5330.6
2973.90632	5317.6
2976.35131	5297.2
2978.7948	5297
2981.23681	5290.8
2983.67732	5263.6
2986.11635	5265.1
2988.55388	5254.6
2990.98993	5220
2993.4245	5219.1
2995.85758	5199.7
2998.28917	5194
3000.71928	5182.5
3003.14791	5169.8
3005.57506	5168.1
3008.00073	5129
3010.42493	5114.9
3012.84764	5115.1
3015.26888	5118.1
3017.68865	5110.7
3020.10694	5099.8
3022.52376	5070.2
3024.9391	5040.6
3027.35298	5026
3029.76539	5027
3032.17632	5023.1
3034.5858	5010.3
3036.9938	5005.7
3039.40034	4989
3041.80542	4971.6
3044.20903	4968.3
3046.61118	4957.2
3049.01187	4942.6
3051.4111	4943.8
3053.80888	4929.3
3056.20519	4902.9
3058.60005	4881.8
3060.99345	4903.2
3063.3854	4874.3
3065.7759	4847.6
3068.16494	4864.6
3070.55254	4811.1
3072.93868	4803.3
3075.32338	4800.1
3077.70662	4802.6
3080.08842	4779.7
3082.46878	4788.4
3084.84769	4752.1
3087.22515	4745.7
3089.60118	4752.2
3091.97576	4738.8
3094.3489	4732.6
3096.72061	4747.7
3099.09087	4735.6
3101.4597	4715.1
3103.82709	4723.2
3106.19305	4713.6
3108.55757	4716.2
3110.92066	4698.3
3113.28232	4692
3115.64255	4684.2
3118.00134	4663.8
3120.35871	4650.2
3122.71466	4655.1
3125.06917	4638.5
3127.42226	4610.1
3129.77393	4607.1
3132.12417	4601.5
3134.47299	4603.5
3136.82039	4592.1
3139.16636	4586.6
3141.51092	4577.5
3143.85406	4588.7
3146.19579	4571.9
3148.53609	4573.1
3150.87499	4566.6
3153.21246	4570.2
3155.54853	4570.3
3157.88318	4560.9
3160.21642	4547.4
3162.54826	4551.2
3164.87868	4550.3
3167.2077	4532.7
3169.5353	4520.7
3171.86151	4534.5
3174.18631	4499.6
3176.5097	4499.3
3178.83169	4492.8
3181.15228	4486.1
3183.47147	4471.7
3185.78926	4464.3
3188.10565	4440
3190.42065	4434
3192.73424	4435.1
3195.04645	4423
3197.35725	4423.8
3199.66667	4422.8
3201.97469	4416.9
3204.28132	4407.4
3206.58656	4423.1
3208.8904	4418.8
3211.19287	4420.1
3213.49394	4414
3215.79363	4411.3
3218.09193	4409.2
3220.38884	4397.6
3222.68438	4400
3224.97853	4396.9
3227.2713	4382.5
3229.56269	4388.2
3231.8527	4369.1
3234.14133	4368.6
3236.42858	4346.6
3238.71446	4336.8
3240.99896	4318.3
3243.28209	4330.7
3245.56384	4308.8
3247.84423	4308
3250.12324	4299.8
3252.40088	4291.2
3254.67715	4284.5
3256.95205	4273.4
3259.22558	4284.3
3261.49775	4276.5
3263.76855	4277.4
3266.03799	4269.1
3268.30606	4276.7
3270.57277	4261
3272.83812	4250.4
3275.10211	4225.2
3277.36474	4231.3
3279.62601	4228.1
3281.88593	4215.2
3284.14448	4218.9
3286.40168	4209.9
3288.65753	4213.5
3290.91202	4200.7
3293.16516	4174.5
3295.41695	4178.6
3297.66738	4157
3299.91647	4151.3
3302.16421	4110.3
3304.4106	4088.5
3306.65564	4060.4
3308.89933	4027
3311.14169	3990.1
3313.38269	3954.8
3315.62236	3938.1
3317.86068	3908.9
3320.09766	3883.1
3322.3333	3851.7
3324.5676	3822.7
3326.80056	3766.2
3329.03219	3742.4
3331.26248	0.4
3333.49143	-1.8
3335.71905	0.7
