Data from AgNPs_UA_10uM_CRN_500uM_SU_RamanShift__117__13-24-50-277.txt Node

Date: Thu Aug 04 13:24:50 BST 2022
User: TCL
Spectrometer: QEP01345
Trigger mode: 4
Integration Time (sec): 1.000000E0
Scans to average: 10
Electric dark correction enabled: true
Nonlinearity correction enabled: false
Boxcar width: 0
XAxis mode: Raman Shifts
Number of Pixels in Spectrum: 1044
>>>>>Begin Spectral Data<<<<<
46.04893	0.5
50.45542	-0.7
54.85868	0.9
59.25871	-0.2
63.6555	22.8
68.04907	21.6
72.43941	21.2
76.82654	23.2
81.21044	24.2
85.59113	26.9
89.96862	27.6
94.34289	25.9
98.71396	27.2
103.08183	30.3
107.4465	29.2
111.80798	29.3
116.16626	33.4
120.52136	35.1
124.87327	35.3
129.222	38.2
133.56755	39.2
137.90993	44.9
142.24913	51.1
146.58517	55.2
150.91804	67.2
155.24774	83.1
159.57429	102
163.89768	131.4
168.21792	177.9
172.53501	244.4
176.84895	349.9
181.15975	492.8
185.46741	694
189.77193	970.2
194.07331	1306.6
198.37157	1683.4
202.6667	2079.2
206.9587	2491.5
211.24758	2886.5
215.53334	3282.3
219.81599	3728
224.09553	4206.5
228.37195	4737.6
232.64527	5319.3
236.91549	5899
241.18261	6399.2
245.44663	6811.8
249.70755	7112
253.96539	7405.9
258.22014	7670.1
262.4718	7881
266.72039	8059
270.96589	8078.3
275.20832	8037.5
279.44768	7915.2
283.68397	7810.4
287.91719	7739.8
292.14735	7755.5
296.37445	7867.8
300.59849	8108.9
304.81948	8420.3
309.03742	8683.4
313.25231	8838.1
317.46415	8724.2
321.67296	8386.4
325.87872	8078
330.08145	7911.2
334.28114	7910
338.47781	7977.9
342.67145	8135
346.86207	8358.4
351.04966	8722.5
355.23424	9060.3
359.4158	9293.8
363.59435	9412.7
367.76989	9419.6
371.94243	9437.6
376.11196	9395.8
380.27849	9373.1
384.44203	9383.7
388.60257	9409.2
392.76012	9504.6
396.91468	9626.1
401.06626	9788.7
405.21485	9841.1
409.36047	9725.4
413.50311	9399.7
417.64277	9124.5
421.77947	8944.7
425.9132	8858.7
430.04396	8839.2
434.17176	8896.6
438.2966	8981.7
442.41849	9171.6
446.53742	9397.4
450.6534	9587.4
454.76644	9743.2
458.87653	9803.1
462.98368	9764.8
467.08789	9681.9
471.18916	9521
475.2875	9324.9
479.38291	9131.6
483.4754	8994.2
487.56496	8928.4
491.6516	8922.3
495.73531	8916.9
499.81612	8937.4
503.89401	9005.3
507.96899	9083
512.04106	9119.2
516.11023	9187
520.1765	9235.4
524.23987	9235.3
528.30034	9246.8
532.35792	9217.1
536.41261	9163.4
540.46441	9000.8
544.51333	8989.4
548.55936	9053
552.60252	9182.6
556.64279	9343.9
560.6802	9475.3
564.71473	9592.4
568.7464	9717.8
572.7752	9684.2
576.80114	9438.1
580.82422	9232.2
584.84444	9206.6
588.86181	9217.3
592.87633	9308.9
596.888	9489.1
600.89682	9936.5
604.9028	11077.3
608.90594	13460.2
612.90624	15740
616.90371	14450.8
620.89834	11220.5
624.89015	9908.5
628.87913	9840.1
632.86528	9990.8
636.84862	10038.3
640.82913	9757.4
644.80683	9366.8
648.78172	9153.6
652.75379	9205.7
656.72306	9479.5
660.68952	9810.7
664.65319	9716.4
668.61405	9573
672.57211	9637.5
676.52738	9611.2
680.47986	9412.9
684.42955	9229.8
688.37646	9194.7
692.32058	9281.2
696.26192	9456.3
700.20048	9625.6
704.13626	9669.6
708.06928	9549.9
711.99952	9396.8
715.927	9404.1
719.85171	9501.5
723.77365	9502.3
727.69284	9413.7
731.60928	9316.2
735.52295	9313.9
739.43388	9374
743.34206	9430.5
747.24749	9418.3
751.15017	9429
755.05012	9531.2
758.94733	9895.7
762.8418	10764.3
766.73354	12045.7
770.62254	13049
774.50882	13249.6
778.39237	12759
782.27321	11845.6
786.15132	10829.6
790.02671	10117
793.89938	9749.5
797.76935	9593.9
801.6366	9477.5
805.50115	9409.2
809.36299	9405.7
813.22213	9353.3
817.07857	9365.9
820.93231	9349.1
824.78336	9339.1
828.63172	9379.6
832.47738	9397.4
836.32036	9368.1
840.16066	9378.2
843.99827	9358
847.8332	9366
851.66546	9374.9
855.49504	9376.7
859.32195	9394.5
863.1462	9371.8
866.96777	9362.1
870.78668	9358.2
874.60293	9412.1
878.41652	9443.5
882.22745	9511.4
886.03573	9556.1
889.84136	9556.6
893.64433	9540.1
897.44466	9510.6
901.24235	9463.6
905.0374	9424.1
908.8298	9396.4
912.61957	9382.8
916.40671	9393.9
920.19121	9461.7
923.97308	9510.6
927.75233	9639
931.52895	9724.8
935.30295	9645.9
939.07433	9470.9
942.84309	9362.1
946.60924	9305
950.37278	9316.1
954.13371	9265.8
957.89203	9252.6
961.64774	9249.7
965.40086	9237.9
969.15137	9203.5
972.89929	9208
976.64461	9230.8
980.38733	9254.2
984.12747	9262.6
987.86502	9339.3
991.59999	9409.1
995.33237	9494.1
999.06217	9658.2
1002.78939	9876.7
1006.51404	10037.7
1010.23611	10183.4
1013.95561	10290.6
1017.67255	10278.5
1021.38692	10304.6
1025.09872	10245.1
1028.80796	10256.5
1032.51465	10337.8
1036.21877	10421.8
1039.92035	10437.2
1043.61937	10407.8
1047.31584	10325.3
1051.00976	10238.9
1054.70114	10211.7
1058.38998	10229.6
1062.07627	10286.7
1065.76003	10336.2
1069.44126	10423.2
1073.11995	10612.7
1076.79611	10840.1
1080.46974	10942.2
1084.14085	11060.1
1087.80943	11185
1091.47549	11214.7
1095.13903	11173.4
1098.80005	11105.8
1102.45857	11103.5
1106.11456	11105.5
1109.76805	10954.3
1113.41903	10984.7
1117.06751	11143.7
1120.71348	11351.9
1124.35696	11584.3
1127.99793	11724.5
1131.63641	11565.2
1135.2724	11217.9
1138.90589	10920.8
1142.5369	10716.4
1146.16542	10621.9
1149.79145	10517.2
1153.415	10434.3
1157.03607	10440.7
1160.65467	10525.9
1164.27079	10759.7
1167.88443	11103.3
1171.49561	11652.6
1175.10432	12491.3
1178.71056	13567.2
1182.31434	14481.1
1185.91565	14876.4
1189.51451	14782.4
1193.11091	14478.5
1196.70485	14042.8
1200.29634	13615.2
1203.88538	13172.6
1207.47197	12642.1
1211.05612	12152.5
1214.63782	11734.7
1218.21708	11498.9
1221.79391	11380.2
1225.36829	11384
1228.94024	11340.1
1232.50976	11265
1236.07685	11258.5
1239.6415	11283.4
1243.20374	11328.9
1246.76355	11440.3
1250.32093	11573.5
1253.8759	11763.6
1257.42845	12082
1260.97859	12436.3
1264.52631	12742.7
1268.07163	13048.8
1271.61453	13231.9
1275.15503	13340.6
1278.69312	13376.9
1282.22882	13484.4
1285.76211	13614.7
1289.29301	13843.2
1292.82151	14142
1296.34761	14408.3
1299.87133	14927.6
1303.39266	15829.1
1306.9116	17123.7
1310.42815	18481.2
1313.94233	19027.3
1317.45412	18447.1
1320.96354	17368.2
1324.47058	16313.7
1327.97525	15405.8
1331.47754	14860.6
1334.97747	14705.7
1338.47502	14884.4
1341.97022	15347.2
1345.46305	16139.7
1348.95352	17282.6
1352.44163	18483.1
1355.92738	19818.3
1359.41078	21354.4
1362.89183	22441.2
1366.37053	21388.8
1369.84688	18459.1
1373.32088	15867
1376.79254	14397.1
1380.26186	13701.8
1383.72883	13293.3
1387.19347	12918.9
1390.65578	12541.7
1394.11575	12154.6
1397.57339	11874.8
1401.0287	11754.3
1404.48168	11764.1
1407.93234	11877.7
1411.38068	12059.9
1414.82669	12253.4
1418.27039	12293.4
1421.71177	12293.7
1425.15083	12211.9
1428.58758	12182.2
1432.02203	12294.9
1435.45416	12396.4
1438.88399	12395.4
1442.31151	12318.6
1445.73673	12280.1
1449.15965	12279.6
1452.58027	12195.5
1455.9986	12131.2
1459.41463	12107.7
1462.82837	12183.6
1466.23982	12387.6
1469.64898	12609.5
1473.05586	12775.4
1476.46045	12917.4
1479.86276	13063.8
1483.26279	13228.9
1486.66054	13468.7
1490.05602	13842.2
1493.44922	14436.1
1496.84016	15294.8
1500.22882	16561.5
1503.61521	18136.2
1506.99934	19695
1510.38121	20576.1
1513.76081	20310.1
1517.13816	18844.4
1520.51324	16882.3
1523.88607	15309.3
1527.25665	14349.9
1530.62498	13856.9
1533.99105	13603.3
1537.35488	13470.2
1540.71647	13343.9
1544.07581	13232.4
1547.4329	13128.3
1550.78776	12982.1
1554.14038	12888.2
1557.49077	12878.1
1560.83892	13040.9
1564.18484	13336.3
1567.52853	13653.2
1570.86999	13827.4
1574.20922	13880.1
1577.54624	13673.6
1580.88103	13110.9
1584.2136	12505
1587.54395	12245.9
1590.87208	12394.7
1594.19801	12908.3
1597.52172	13555.2
1600.84321	13798.2
1604.16251	13687.3
1607.47959	13369.7
1610.79447	12882.8
1614.10715	12266.9
1617.41763	11589
1620.7259	11131.6
1624.03199	10877.3
1627.33587	10828.6
1630.63757	11015.5
1633.93707	11494.2
1637.23439	12259.6
1640.52951	13394.3
1643.82246	14873.2
1647.11321	16251.6
1650.40179	16743.8
1653.68819	15784.1
1656.97241	13910.6
1660.25446	12110
1663.53433	10931.4
1666.81203	10210.5
1670.08756	9812.1
1673.36092	9544
1676.63211	9381.6
1679.90115	9250
1683.16801	9154.3
1686.43272	9089.1
1689.69527	9014.2
1692.95567	8957.8
1696.2139	8931.4
1699.46999	8908.3
1702.72392	8902.1
1705.97571	8883.6
1709.22535	8883
1712.47284	8870.5
1715.71819	8897
1718.96139	8886.5
1722.20246	8863.9
1725.44139	8822.7
1728.67818	8767.7
1731.91284	8721.7
1735.14537	8679.1
1738.37576	8648.7
1741.60403	8600.4
1744.83017	8579.7
1748.05418	8586
1751.27607	8568.9
1754.49584	8531.2
1757.71349	8549.9
1760.92903	8515.2
1764.14244	8500
1767.35375	8489
1770.56294	8466.5
1773.77002	8432.1
1776.97499	8412.4
1780.17785	8363.8
1783.37861	8379.8
1786.57727	8356
1789.77382	8363.4
1792.96828	8346.6
1796.16064	8318.9
1799.3509	8332
1802.53907	8312.5
1805.72514	8279
1808.90913	8258.2
1812.09102	8247.7
1815.27083	8237.2
1818.44856	8180.4
1821.6242	8167.8
1824.79776	8148.1
1827.96924	8173.1
1831.13864	8148.6
1834.30597	8150.3
1837.47122	8112
1840.6344	8086.9
1843.7955	8100.6
1846.95454	8098.7
1850.11151	8087.7
1853.26642	8076.7
1856.41926	8072.1
1859.57004	8090.1
1862.71876	8075.4
1865.86542	8074.1
1869.01003	8050.2
1872.15258	8039.8
1875.29308	8028.3
1878.43152	8025.6
1881.56792	8021.8
1884.70227	7998.4
1887.83457	7987.7
1890.96482	7974.3
1894.09304	7937.9
1897.21921	7942.3
1900.34335	7936.2
1903.46544	7921.8
1906.58551	7921.4
1909.70353	7907.5
1912.81953	7912.4
1915.93349	7892.3
1919.04543	7872
1922.15534	7865.8
1925.26322	7867.8
1928.36908	7847.5
1931.47292	7819.1
1934.57473	7801.4
1937.67453	7778
1940.77232	7754.4
1943.86808	7742.5
1946.96184	7719.9
1950.05358	7691.9
1953.14331	7692.2
1956.23103	7643.8
1959.31675	7647.9
1962.40046	7606.9
1965.48217	7603.9
1968.56188	7565.3
1971.63959	7533.8
1974.7153	7527.1
1977.78901	7540.3
1980.86073	7489.4
1983.93046	7464
1986.99819	7427.6
1990.06394	7419.7
1993.1277	7387
1996.18947	7365.9
1999.24925	7342.1
2002.30706	7295.8
2005.36288	7285.3
2008.41672	7249.2
2011.46859	7260.9
2014.51848	7211.9
2017.56639	7181.1
2020.61233	7166.6
2023.6563	7178.5
2026.6983	7146.4
2029.73833	7115.8
2032.7764	7099.3
2035.8125	7095.1
2038.84664	7071.6
2041.87881	7055.7
2044.90903	7041.9
2047.93729	7030.1
2050.96359	7017.8
2053.98794	7004.7
2057.01034	6999.8
2060.03078	6983
2063.04927	6991.7
2066.06582	6991.1
2069.08042	6974.4
2072.09307	6971.7
2075.10378	6962
2078.11255	6956.6
2081.11938	6950
2084.12426	6951.6
2087.12722	6908.9
2090.12824	6920.2
2093.12732	6933.5
2096.12447	6939.1
2099.11969	6926.8
2102.11299	6935.1
2105.10435	6945.4
2108.09379	6935.6
2111.08131	6934.7
2114.0669	6939.4
2117.05057	6950.6
2120.03233	6962.7
2123.01216	6966.8
2125.99008	6961
2128.96609	6962.5
2131.94018	6968.5
2134.91236	6958.5
2137.88263	6959
2140.851	6963.2
2143.81746	6958.7
2146.78201	6956.8
2149.74466	6960
2152.7054	6945.3
2155.66425	6943.7
2158.6212	6946.6
2161.57625	6925.5
2164.52941	6928.3
2167.48067	6924.4
2170.43004	6927
2173.37752	6909.2
2176.32311	6928.7
2179.26681	6927.8
2182.20863	6921.1
2185.14856	6934.9
2188.08661	6933.3
2191.02278	6932.3
2193.95707	6911.5
2196.88948	6909.1
2199.82001	6900.8
2202.74867	6893.8
2205.67545	6906.9
2208.60037	6887
2211.52341	6878
2214.44458	6867.3
2217.36388	6849.4
2220.28132	6824.8
2223.1969	6808.8
2226.11061	6787.3
2229.02246	6764.7
2231.93245	6771.9
2234.84058	6767.6
2237.74686	6741.5
2240.65128	6723.7
2243.55385	6710.2
2246.45456	6717
2249.35343	6694.7
2252.25044	6691.6
2255.14561	6689.7
2258.03893	6702.1
2260.93041	6657.5
2263.82004	6676.4
2266.70783	6640.8
2269.59378	6632.3
2272.4779	6599.2
2275.36017	6596.1
2278.24061	6577.7
2281.11922	6580.1
2283.996	6553.2
2286.87094	6548.5
2289.74405	6526.2
2292.61534	6523.5
2295.4848	6500.3
2298.35243	6515.2
2301.21824	6510.3
2304.08223	6497.3
2306.94439	6494.8
2309.80474	6488.4
2312.66327	6493.4
2315.51999	6480.1
2318.37489	6478.3
2321.22797	6453.9
2324.07925	6470.5
2326.92871	6435.4
2329.77637	6445.3
2332.62222	6414.2
2335.46626	6416.8
2338.3085	6417.5
2341.14893	6412.7
2343.98756	6414.8
2346.8244	6417.9
2349.65943	6396.4
2352.49267	6402.3
2355.32411	6371.6
2358.15376	6398.3
2360.98161	6378.3
2363.80768	6387.9
2366.63195	6385.6
2369.45444	6365.7
2372.27514	6359.2
2375.09405	6359.9
2377.91118	6332.9
2380.72652	6332.6
2383.54009	6303.2
2386.35187	6295.8
2389.16188	6284.5
2391.97011	6269.8
2394.77657	6247.9
2397.58125	6225.3
2400.38416	6211.6
2403.18529	6206.2
2405.98466	6208.4
2408.78226	6194.4
2411.57809	6191.3
2414.37216	6164.2
2417.16446	6166.4
2419.955	6148.5
2422.74378	6157.8
2425.5308	6147
2428.31606	6147.3
2431.09956	6133.8
2433.88131	6119.2
2436.6613	6129.1
2439.43954	6122.4
2442.21603	6110.2
2444.99077	6111.2
2447.76377	6122.4
2450.53501	6114.2
2453.30451	6118.1
2456.07226	6096
2458.83827	6090.5
2461.60254	6059.8
2464.36507	6049.6
2467.12586	6044.4
2469.88492	6059.1
2472.64224	6055
2475.39782	6054.7
2478.15167	6044.9
2480.90379	6037.9
2483.65417	6023.4
2486.40283	6040.6
2489.14976	6035.8
2491.89497	6043.7
2494.63845	6053.1
2497.3802	6036.4
2500.12024	6029.1
2502.85855	6004.2
2505.59514	6005.5
2508.33002	6016.4
2511.06318	5978.4
2513.79462	5971.9
2516.52435	5967.3
2519.25237	5945.6
2521.97867	5928.8
2524.70327	5933.8
2527.42616	5927.3
2530.14734	5910.6
2532.86681	5897.7
2535.58458	5922.7
2538.30065	5913.5
2541.01501	5901.5
2543.72768	5902.2
2546.43864	5873.3
2549.14791	5868.6
2551.85548	5856.9
2554.56136	5853
2557.26554	5862.9
2559.96803	5839.3
2562.66883	5835.1
2565.36794	5815.1
2568.06536	5804.6
2570.7611	5791.4
2573.45514	5787
2576.14751	5764.7
2578.83819	5757.2
2581.52719	5757.7
2584.21451	5749.3
2586.90015	5745.4
2589.58411	5744.6
2592.2664	5737.2
2594.94701	5719.7
2597.62594	5739.7
2600.30321	5709.5
2602.9788	5704.8
2605.65273	5693.9
2608.32498	5694
2610.99557	5681.9
2613.66449	5675.3
2616.33175	5685.5
2618.99734	5676.3
2621.66128	5663.3
2624.32355	5653.9
2626.98416	5633.9
2629.64311	5624.6
2632.30041	5632.4
2634.95605	5619.4
2637.61004	5604.3
2640.26238	5585.8
2642.91306	5605.9
2645.56209	5587.2
2648.20948	5571.8
2650.85521	5582.5
2653.4993	5591.7
2656.14175	5573.4
2658.78255	5562.1
2661.42171	5566.2
2664.05923	5570.7
2666.6951	5599.1
2669.32934	5578.4
2671.96194	5585
2674.59291	5598.3
2677.22224	5582.8
2679.84993	5589.1
2682.476	5580.6
2685.10043	5571.3
2687.72324	5584.4
2690.34441	5565.9
2692.96396	5552.2
2695.58188	5566.9
2698.19818	5550.9
2700.81285	5531.1
2703.4259	5553
2706.03733	5536.8
2708.64714	5519.2
2711.25533	5530.4
2713.86191	5531.8
2716.46687	5536
2719.07021	5531.5
2721.67194	5543.7
2724.27206	5534.7
2726.87057	5530.3
2729.46747	5525.9
2732.06276	5529.2
2734.65644	5534.8
2737.24852	5521.5
2739.83899	5505.5
2742.42786	5497.4
2745.01513	5476.8
2747.60079	5472.6
2750.18486	5478.7
2752.76733	5466.8
2755.3482	5453.8
2757.92747	5436.9
2760.50515	5439.2
2763.08123	5438.9
2765.65573	5415.6
2768.22863	5404.2
2770.79994	5415.5
2773.36967	5403.2
2775.9378	5403.9
2778.50435	5381.3
2781.06932	5400.4
2783.6327	5390.4
2786.1945	5389.8
2788.75471	5363.8
2791.31335	5369.4
2793.87041	5350.7
2796.42589	5347.7
2798.97979	5331.1
2801.53212	5307.3
2804.08288	5300.8
2806.63206	5285.8
2809.17967	5277.7
2811.72571	5284.1
2814.27018	5278.1
2816.81308	5257.9
2819.35442	5256.1
2821.89419	5224
2824.43239	5229
2826.96904	5208.9
2829.50412	5215.9
2832.03763	5192
2834.56959	5202.8
2837.1	5171.5
2839.62884	5172.6
2842.15613	5162.8
2844.68186	5178.9
2847.20604	5172.1
2849.72867	5163
2852.24974	5134.4
2854.76927	5136.3
2857.28724	5128.5
2859.80367	5110.9
2862.31855	5115
2864.83189	5102
2867.34368	5109
2869.85393	5091.1
2872.36264	5098.5
2874.8698	5077.5
2877.37543	5097.2
2879.87952	5079.7
2882.38207	5065.3
2884.88308	5068.5
2887.38256	5068.9
2889.88051	5055.8
2892.37692	5053.5
2894.8718	5047.5
2897.36515	5061.4
2899.85698	5046.2
2902.34727	5061.3
2904.83604	5067.2
2907.32328	5077.2
2909.809	5075.2
2912.29319	5071.7
2914.77587	5088.7
2917.25702	5091
2919.73665	5094.8
2922.21476	5075.1
2924.69136	5056.1
2927.16644	5054.8
2929.64	5040.5
2932.11205	5022.5
2934.58258	5004.6
2937.05161	5013.3
2939.51912	5035.5
2941.98513	5025
2944.44962	5002.8
2946.91261	4988.5
2949.37409	4997.3
2951.83407	4976.9
2954.29254	4983.9
2956.74951	4992.5
2959.20498	4985
2961.65895	4975.5
2964.11142	4980.1
2966.56239	4954.8
2969.01186	4973.6
2971.45984	4962.2
2973.90632	4938.1
2976.35131	4926.5
2978.7948	4934.8
2981.23681	4932.3
2983.67732	4915.6
2986.11635	4906.2
2988.55388	4893.8
2990.98993	4857.4
2993.4245	4874.2
2995.85758	4853.1
2998.28917	4852.8
3000.71928	4835
3003.14791	4807.7
3005.57506	4806
3008.00073	4790.2
3010.42493	4775.3
3012.84764	4778.2
3015.26888	4767.6
3017.68865	4788.5
3020.10694	4764.4
3022.52376	4733.9
3024.9391	4707.1
3027.35298	4702.6
3029.76539	4689.5
3032.17632	4681.3
3034.5858	4679.2
3036.9938	4670.2
3039.40034	4655.7
3041.80542	4647
3044.20903	4636.4
3046.61118	4626.2
3049.01187	4617.6
3051.4111	4609.3
3053.80888	4609.3
3056.20519	4594
3058.60005	4571
3060.99345	4572.7
3063.3854	4564.2
3065.7759	4550
3068.16494	4528.2
3070.55254	4516.8
3072.93868	4504
3075.32338	4485.8
3077.70662	4481.9
3080.08842	4471.9
3082.46878	4473
3084.84769	4453.8
3087.22515	4463
3089.60118	4440.8
3091.97576	4433.9
3094.3489	4448.1
3096.72061	4412.7
3099.09087	4437.3
3101.4597	4432.8
3103.82709	4420.2
3106.19305	4416.4
3108.55757	4419.3
3110.92066	4407.5
3113.28232	4399.8
3115.64255	4380.1
3118.00134	4374.6
3120.35871	4378.2
3122.71466	4358.5
3125.06917	4350.7
3127.42226	4329
3129.77393	4321.2
3132.12417	4311.4
3134.47299	4304.7
3136.82039	4310.5
3139.16636	4296.9
3141.51092	4294.9
3143.85406	4305.7
3146.19579	4298.1
3148.53609	4295.7
3150.87499	4287.2
3153.21246	4297.6
3155.54853	4306
3157.88318	4284.9
3160.21642	4281.2
3162.54826	4292.7
3164.87868	4274.3
3167.2077	4266.8
3169.5353	4255.2
3171.86151	4259.5
3174.18631	4238.9
3176.5097	4227.9
3178.83169	4221.9
3181.15228	4224.7
3183.47147	4217.1
3185.78926	4205.6
3188.10565	4184.4
3190.42065	4167.7
3192.73424	4178.5
3195.04645	4190.5
3197.35725	4164.6
3199.66667	4147.1
3201.97469	4153.1
3204.28132	4155.3
3206.58656	4167.4
3208.8904	4167.9
3211.19287	4160.6
3213.49394	4161.3
3215.79363	4159.4
3218.09193	4150.7
3220.38884	4149.3
3222.68438	4160.1
3224.97853	4153.4
3227.2713	4145.7
3229.56269	4123
3231.8527	4122.8
3234.14133	4104.4
3236.42858	4109.3
3238.71446	4097.3
3240.99896	4085.5
3243.28209	4067.7
3245.56384	4066.2
3247.84423	4067.7
3250.12324	4044.1
3252.40088	4057.2
3254.67715	4056
3256.95205	4044.6
3259.22558	4034
3261.49775	4045.3
3263.76855	4026.6
3266.03799	4032.8
3268.30606	4043.1
3270.57277	4025.3
3272.83812	4023.7
3275.10211	4007.5
3277.36474	3982.9
3279.62601	3985.3
3281.88593	3987.5
3284.14448	3976
3286.40168	3977.6
3288.65753	3983.4
3290.91202	3969.9
3293.16516	3951.5
3295.41695	3956.8
3297.66738	3936.7
3299.91647	3936.3
3302.16421	3904.8
3304.4106	3876
3306.65564	3864.8
3308.89933	3825.3
3311.14169	3793.1
3313.38269	3748.9
3315.62236	3732.6
3317.86068	3689.4
3320.09766	3692.9
3322.3333	3643.6
3324.5676	3640
3326.80056	3578.2
3329.03219	3545.1
3331.26248	1
3333.49143	-0.1
3335.71905	-1.2
