Data from AgNPs_UA_5uM_CRN_500uM_SU_RamanShift__141__11-52-53-163.txt Node

Date: Thu Aug 04 11:52:53 BST 2022
User: TCL
Spectrometer: QEP01345
Trigger mode: 4
Integration Time (sec): 1.000000E0
Scans to average: 10
Electric dark correction enabled: true
Nonlinearity correction enabled: false
Boxcar width: 0
XAxis mode: Raman Shifts
Number of Pixels in Spectrum: 1044
>>>>>Begin Spectral Data<<<<<
46.04893	0.0125
50.45542	-0.2875
54.85868	0.1125
59.25871	-0.8875
63.6555	-58.1875
68.04907	-39.5875
72.43941	-70.7875
76.82654	-55.7875
81.21044	-54.0875
85.59113	-48.0875
89.96862	-75.6875
94.34289	-54.8875
98.71396	-76.4875
103.08183	-58.8875
107.4465	-48.9875
111.80798	-55.4875
116.16626	-42.8875
120.52136	-73.3875
124.87327	-49.8875
129.222	-62.6875
133.56755	-49.5875
137.90993	-63.6875
142.24913	-50.6875
146.58517	-45.2875
150.91804	-41.3875
155.24774	-29.8875
159.57429	-7.7875
163.89768	-2.3875
168.21792	36.3125
172.53501	53.3125
176.84895	141.9125
181.15975	269.9125
185.46741	421.5125
189.77193	608.0125
194.07331	894.4125
198.37157	1181.8125
202.6667	1464.9125
206.9587	1794.8125
211.24758	2111.3125
215.53334	2414.1125
219.81599	2778.8125
224.09553	3178.7125
228.37195	3620.6125
232.64527	4085.3125
236.91549	4558.6125
241.18261	4931.8125
245.44663	5221.5125
249.70755	5434.4125
253.96539	5572.2125
258.22014	5669.3125
262.4718	5748.1125
266.72039	5747.5125
270.96589	5723.3125
275.20832	5622.6125
279.44768	5492.5125
283.68397	5387.2125
287.91719	5327.7125
292.14735	5346.8125
296.37445	5483.7125
300.59849	5750.5125
304.81948	6051.0125
309.03742	6388.4125
313.25231	6615.8125
317.46415	6558.5125
321.67296	6190.6125
325.87872	5826.8125
330.08145	5654.4125
334.28114	5618.5125
338.47781	5682.2125
342.67145	5814.3125
346.86207	6057.6125
351.04966	6389.8125
355.23424	6764.3125
359.4158	7032.1125
363.59435	7065.0125
367.76989	7014.5125
371.94243	6886.9125
376.11196	6789.4125
380.27849	6731.3125
384.44203	6657.6125
388.60257	6642.2125
392.76012	6639.0125
396.91468	6767.8125
401.06626	6920.9125
405.21485	6941.6125
409.36047	6815.2125
413.50311	6527.3125
417.64277	6245.5125
421.77947	6065.3125
425.9132	6001.8125
430.04396	5985.2125
434.17176	6046.5125
438.2966	6148.3125
442.41849	6219.6125
446.53742	6350.1125
450.6534	6438.7125
454.76644	6508.3125
458.87653	6538.4125
462.98368	6498.1125
467.08789	6457.4125
471.18916	6396.0125
475.2875	6295.9125
479.38291	6182.4125
483.4754	6076.0125
487.56496	6051.1125
491.6516	5995.4125
495.73531	5992.6125
499.81612	6037.1125
503.89401	6108.1125
507.96899	6185.4125
512.04106	6265.4125
516.11023	6353.2125
520.1765	6434.6125
524.23987	6476.2125
528.30034	6467.7125
532.35792	6378.6125
536.41261	6358.4125
540.46441	6268.8125
544.51333	6205.6125
548.55936	6269.3125
552.60252	6377.6125
556.64279	6464.0125
560.6802	6603.4125
564.71473	6713.7125
568.7464	6893.1125
572.7752	6865.8125
576.80114	6550.0125
580.82422	6345.8125
584.84444	6238.5125
588.86181	6223.1125
592.87633	6262.4125
596.888	6384.5125
600.89682	6711.9125
604.9028	7609.9125
608.90594	9523.7125
612.90624	11694.6125
616.90371	10886.9125
620.89834	8111.6125
624.89015	6893.4125
628.87913	6702.9125
632.86528	6843.7125
636.84862	7007.5125
640.82913	6885.4125
644.80683	6554.5125
648.78172	6393.5125
652.75379	6438.1125
656.72306	6641.0125
660.68952	6885.8125
664.65319	6810.9125
668.61405	6575.5125
672.57211	6536.9125
676.52738	6546.8125
680.47986	6470.5125
684.42955	6356.0125
688.37646	6335.8125
692.32058	6311.8125
696.26192	6395.5125
700.20048	6483.9125
704.13626	6536.6125
708.06928	6482.8125
711.99952	6448.0125
715.927	6434.1125
719.85171	6451.3125
723.77365	6510.4125
727.69284	6478.7125
731.60928	6499.6125
735.52295	6452.9125
739.43388	6491.1125
743.34206	6524.2125
747.24749	6536.4125
751.15017	6540.2125
755.05012	6601.4125
758.94733	6959.9125
762.8418	7682.1125
766.73354	8899.6125
770.62254	9778.7125
774.50882	9889.0125
778.39237	9414.1125
782.27321	8596.0125
786.15132	7661.0125
790.02671	7037.7125
793.89938	6656.7125
797.76935	6590.7125
801.6366	6522.2125
805.50115	6474.0125
809.36299	6477.0125
813.22213	6452.9125
817.07857	6467.6125
820.93231	6473.7125
824.78336	6478.8125
828.63172	6507.8125
832.47738	6506.5125
836.32036	6519.7125
840.16066	6498.0125
843.99827	6481.6125
847.8332	6488.4125
851.66546	6503.6125
855.49504	6494.6125
859.32195	6519.4125
863.1462	6515.8125
866.96777	6529.5125
870.78668	6523.6125
874.60293	6556.7125
878.41652	6568.2125
882.22745	6636.3125
886.03573	6642.2125
889.84136	6658.3125
893.64433	6648.3125
897.44466	6647.8125
901.24235	6628.0125
905.0374	6648.8125
908.8298	6563.7125
912.61957	6548.2125
916.40671	6527.0125
920.19121	6568.5125
923.97308	6635.2125
927.75233	6689.8125
931.52895	6752.8125
935.30295	6733.8125
939.07433	6606.5125
942.84309	6496.6125
946.60924	6472.6125
950.37278	6431.0125
954.13371	6434.3125
957.89203	6428.9125
961.64774	6437.6125
965.40086	6445.3125
969.15137	6401.4125
972.89929	6445.3125
976.64461	6434.7125
980.38733	6444.4125
984.12747	6453.7125
987.86502	6464.7125
991.59999	6484.0125
995.33237	6590.7125
999.06217	6652.9125
1002.78939	6740.5125
1006.51404	6861.0125
1010.23611	6991.7125
1013.95561	7017.4125
1017.67255	7055.4125
1021.38692	6995.8125
1025.09872	6961.3125
1028.80796	6875.7125
1032.51465	6880.7125
1036.21877	6845.7125
1039.92035	6887.6125
1043.61937	6922.8125
1047.31584	6980.9125
1051.00976	7005.7125
1054.70114	6988.6125
1058.38998	7008.8125
1062.07627	7025.4125
1065.76003	7080.2125
1069.44126	7140.4125
1073.11995	7209.4125
1076.79611	7353.3125
1080.46974	7483.0125
1084.14085	7647.4125
1087.80943	7731.0125
1091.47549	7777.1125
1095.13903	7717.7125
1098.80005	7623.7125
1102.45857	7546.8125
1106.11456	7464.9125
1109.76805	7403.4125
1113.41903	7541.4125
1117.06751	7637.9125
1120.71348	7845.4125
1124.35696	8199.8125
1127.99793	8455.8125
1131.63641	8327.8125
1135.2724	7946.3125
1138.90589	7708.8125
1142.5369	7533.1125
1146.16542	7472.8125
1149.79145	7365.7125
1153.415	7290.9125
1157.03607	7277.0125
1160.65467	7360.5125
1164.27079	7517.0125
1167.88443	7751.8125
1171.49561	8112.5125
1175.10432	8671.4125
1178.71056	9447.2125
1182.31434	10136.3125
1185.91565	10390.3125
1189.51451	10254.6125
1193.11091	10077.9125
1196.70485	9878.1125
1200.29634	9681.1125
1203.88538	9469.9125
1207.47197	9084.4125
1211.05612	8668.0125
1214.63782	8359.8125
1218.21708	8106.9125
1221.79391	7967.6125
1225.36829	7881.2125
1228.94024	7840.9125
1232.50976	7856.4125
1236.07685	7901.2125
1239.6415	7905.0125
1243.20374	7910.4125
1246.76355	7972.4125
1250.32093	8068.6125
1253.8759	8134.0125
1257.42845	8319.7125
1260.97859	8527.9125
1264.52631	8742.6125
1268.07163	8862.8125
1271.61453	8966.6125
1275.15503	8996.8125
1278.69312	9016.8125
1282.22882	9063.7125
1285.76211	9255.5125
1289.29301	9464.8125
1292.82151	9716.3125
1296.34761	9901.2125
1299.87133	10269.0125
1303.39266	10902.0125
1306.9116	11930.4125
1310.42815	13052.9125
1313.94233	13407.3125
1317.45412	12705.4125
1320.96354	11697.7125
1324.47058	10778.6125
1327.97525	10143.5125
1331.47754	9786.2125
1334.97747	9704.0125
1338.47502	9790.7125
1341.97022	10148.0125
1345.46305	10821.6125
1348.95352	11790.9125
1352.44163	12885.8125
1355.92738	14004.5125
1359.41078	15446.1125
1362.89183	16745.1125
1366.37053	16092.9125
1369.84688	13546.4125
1373.32088	11236.0125
1376.79254	10017.3125
1380.26186	9461.5125
1383.72883	9093.6125
1387.19347	8739.7125
1390.65578	8429.2125
1394.11575	8224.2125
1397.57339	8090.5125
1401.0287	7963.5125
1404.48168	7949.9125
1407.93234	7972.2125
1411.38068	7987.8125
1414.82669	8066.7125
1418.27039	8126.9125
1421.71177	8149.5125
1425.15083	8057.8125
1428.58758	7980.2125
1432.02203	7989.6125
1435.45416	8098.9125
1438.88399	8085.9125
1442.31151	8097.8125
1445.73673	8134.3125
1449.15965	8213.5125
1452.58027	8248.1125
1455.9986	8218.2125
1459.41463	8221.7125
1462.82837	8316.4125
1466.23982	8504.4125
1469.64898	8692.7125
1473.05586	8819.6125
1476.46045	8892.5125
1479.86276	8947.8125
1483.26279	9013.2125
1486.66054	9164.9125
1490.05602	9390.3125
1493.44922	9881.7125
1496.84016	10661.7125
1500.22882	11857.0125
1503.61521	13362.3125
1506.99934	14897.5125
1510.38121	15922.5125
1513.76081	15839.9125
1517.13816	14497.5125
1520.51324	12607.7125
1523.88607	11086.3125
1527.25665	10212.8125
1530.62498	9765.2125
1533.99105	9588.5125
1537.35488	9505.8125
1540.71647	9437.5125
1544.07581	9340.9125
1547.4329	9263.2125
1550.78776	9113.4125
1554.14038	9014.9125
1557.49077	8999.5125
1560.83892	9079.7125
1564.18484	9274.0125
1567.52853	9522.4125
1570.86999	9802.3125
1574.20922	9921.0125
1577.54624	9832.0125
1580.88103	9368.7125
1584.2136	8796.1125
1587.54395	8481.5125
1590.87208	8435.1125
1594.19801	8611.0125
1597.52172	8954.6125
1600.84321	9111.1125
1604.16251	9016.0125
1607.47959	8857.3125
1610.79447	8643.2125
1614.10715	8364.4125
1617.41763	8072.2125
1620.7259	7785.6125
1624.03199	7643.3125
1627.33587	7588.9125
1630.63757	7617.9125
1633.93707	7837.6125
1637.23439	8221.2125
1640.52951	8870.5125
1643.82246	9767.8125
1647.11321	10784.5125
1650.40179	11377.6125
1653.68819	11066.1125
1656.97241	9937.5125
1660.25446	8680.4125
1663.53433	7788.3125
1666.81203	7245.1125
1670.08756	6951.1125
1673.36092	6767.2125
1676.63211	6633.2125
1679.90115	6550.5125
1683.16801	6484.1125
1686.43272	6354.4125
1689.69527	6338.5125
1692.95567	6297.3125
1696.2139	6262.4125
1699.46999	6210.4125
1702.72392	6197.6125
1705.97571	6219.9125
1709.22535	6201.8125
1712.47284	6205.1125
1715.71819	6248.8125
1718.96139	6231.6125
1722.20246	6210.0125
1725.44139	6178.1125
1728.67818	6159.8125
1731.91284	6129.9125
1735.14537	6098.7125
1738.37576	6062.1125
1741.60403	6057.4125
1744.83017	6020.4125
1748.05418	6032.5125
1751.27607	6025.0125
1754.49584	5970.1125
1757.71349	5959.5125
1760.92903	5950.3125
1764.14244	5926.5125
1767.35375	5927.0125
1770.56294	5913.3125
1773.77002	5891.6125
1776.97499	5896.9125
1780.17785	5885.9125
1783.37861	5863.8125
1786.57727	5888.5125
1789.77382	5829.7125
1792.96828	5858.9125
1796.16064	5869.3125
1799.3509	5829.6125
1802.53907	5845.4125
1805.72514	5825.6125
1808.90913	5784.1125
1812.09102	5775.5125
1815.27083	5772.2125
1818.44856	5769.6125
1821.6242	5756.9125
1824.79776	5740.2125
1827.96924	5717.6125
1831.13864	5709.1125
1834.30597	5712.1125
1837.47122	5699.6125
1840.6344	5674.8125
1843.7955	5668.5125
1846.95454	5657.6125
1850.11151	5673.5125
1853.26642	5653.3125
1856.41926	5649.2125
1859.57004	5648.6125
1862.71876	5645.1125
1865.86542	5663.6125
1869.01003	5624.7125
1872.15258	5594.6125
1875.29308	5623.1125
1878.43152	5632.5125
1881.56792	5612.1125
1884.70227	5583.6125
1887.83457	5598.3125
1890.96482	5551.0125
1894.09304	5569.1125
1897.21921	5544.9125
1900.34335	5549.2125
1903.46544	5535.2125
1906.58551	5566.7125
1909.70353	5543.9125
1912.81953	5535.8125
1915.93349	5512.5125
1919.04543	5512.3125
1922.15534	5498.7125
1925.26322	5497.9125
1928.36908	5482.8125
1931.47292	5474.0125
1934.57473	5487.9125
1937.67453	5445.0125
1940.77232	5417.3125
1943.86808	5411.9125
1946.96184	5414.7125
1950.05358	5376.1125
1953.14331	5360.9125
1956.23103	5367.3125
1959.31675	5340.3125
1962.40046	5296.6125
1965.48217	5301.1125
1968.56188	5306.0125
1971.63959	5273.4125
1974.7153	5278.6125
1977.78901	5261.8125
1980.86073	5230.0125
1983.93046	5196.0125
1986.99819	5108.7125
1990.06394	5146.1125
1993.1277	5147.4125
1996.18947	5117.9125
1999.24925	5094.3125
2002.30706	5111.6125
2005.36288	5107.7125
2008.41672	5079.0125
2011.46859	5038.8125
2014.51848	5032.5125
2017.56639	5016.1125
2020.61233	4993.8125
2023.6563	5001.8125
2026.6983	4931.5125
2029.73833	4956.1125
2032.7764	4951.2125
2035.8125	4927.6125
2038.84664	4907.7125
2041.87881	4908.7125
2044.90903	4915.7125
2047.93729	4892.1125
2050.96359	4869.3125
2053.98794	4882.5125
2057.01034	4878.8125
2060.03078	4870.5125
2063.04927	4846.8125
2066.06582	4864.5125
2069.08042	4823.4125
2072.09307	4855.1125
2075.10378	4840.0125
2078.11255	4829.3125
2081.11938	4825.6125
2084.12426	4819.4125
2087.12722	4823.3125
2090.12824	4808.4125
2093.12732	4818.2125
2096.12447	4830.2125
2099.11969	4805.1125
2102.11299	4812.6125
2105.10435	4833.8125
2108.09379	4832.8125
2111.08131	4808.8125
2114.0669	4823.1125
2117.05057	4812.7125
2120.03233	4812.1125
2123.01216	4836.5125
2125.99008	4826.0125
2128.96609	4820.1125
2131.94018	4834.4125
2134.91236	4828.1125
2137.88263	4828.4125
2140.851	4832.7125
2143.81746	4839.3125
2146.78201	4838.4125
2149.74466	4833.1125
2152.7054	4834.9125
2155.66425	4829.7125
2158.6212	4819.9125
2161.57625	4781.0125
2164.52941	4765.3125
2167.48067	4785.5125
2170.43004	4790.3125
2173.37752	4806.2125
2176.32311	4776.5125
2179.26681	4793.1125
2182.20863	4790.1125
2185.14856	4784.6125
2188.08661	4800.3125
2191.02278	4807.2125
2193.95707	4761.5125
2196.88948	4755.5125
2199.82001	4776.2125
2202.74867	4761.2125
2205.67545	4768.7125
2208.60037	4775.9125
2211.52341	4739.7125
2214.44458	4733.6125
2217.36388	4713.6125
2220.28132	4709.5125
2223.1969	4696.1125
2226.11061	4688.5125
2229.02246	4674.5125
2231.93245	4674.3125
2234.84058	4645.9125
2237.74686	4649.5125
2240.65128	4637.0125
2243.55385	4634.1125
2246.45456	4619.1125
2249.35343	4635.0125
2252.25044	4606.6125
2255.14561	4602.1125
2258.03893	4613.4125
2260.93041	4594.6125
2263.82004	4596.7125
2266.70783	4584.8125
2269.59378	4560.7125
2272.4779	4537.9125
2275.36017	4556.9125
2278.24061	4526.7125
2281.11922	4495.3125
2283.996	4499.2125
2286.87094	4480.7125
2289.74405	4506.7125
2292.61534	4479.3125
2295.4848	4492.9125
2298.35243	4472.0125
2301.21824	4462.4125
2304.08223	4458.2125
2306.94439	4473.9125
2309.80474	4459.2125
2312.66327	4458.4125
2315.51999	4439.5125
2318.37489	4429.9125
2321.22797	4421.8125
2324.07925	4411.4125
2326.92871	4417.3125
2329.77637	4380.1125
2332.62222	4378.4125
2335.46626	4353.4125
2338.3085	4343.5125
2341.14893	4371.6125
2343.98756	4368.6125
2346.8244	4337.0125
2349.65943	4330.6125
2352.49267	4339.6125
2355.32411	4337.2125
2358.15376	4343.4125
2360.98161	4336.1125
2363.80768	4324.3125
2366.63195	4324.2125
2369.45444	4331.9125
2372.27514	4322.1125
2375.09405	4337.7125
2377.91118	4294.4125
2380.72652	4292.4125
2383.54009	4295.8125
2386.35187	4291.1125
2389.16188	4271.0125
2391.97011	4264.3125
2394.77657	4233.8125
2397.58125	4245.6125
2400.38416	4239.0125
2403.18529	4217.1125
2405.98466	4205.9125
2408.78226	4205.2125
2411.57809	4199.8125
2414.37216	4173.2125
2417.16446	4179.7125
2419.955	4161.3125
2422.74378	4180.7125
2425.5308	4165.8125
2428.31606	4167.0125
2431.09956	4169.6125
2433.88131	4144.1125
2436.6613	4156.5125
2439.43954	4125.6125
2442.21603	4129.4125
2444.99077	4118.5125
2447.76377	4134.9125
2450.53501	4119.9125
2453.30451	4104.4125
2456.07226	4117.5125
2458.83827	4118.3125
2461.60254	4060.4125
2464.36507	4089.9125
2467.12586	4089.3125
2469.88492	4080.9125
2472.64224	4091.1125
2475.39782	4062.4125
2478.15167	4066.3125
2480.90379	4060.1125
2483.65417	4080.3125
2486.40283	4078.3125
2489.14976	4087.9125
2491.89497	4061.9125
2494.63845	4063.6125
2497.3802	4047.6125
2500.12024	4052.5125
2502.85855	4043.4125
2505.59514	4050.2125
2508.33002	4034.0125
2511.06318	4001.7125
2513.79462	4025.1125
2516.52435	3972.2125
2519.25237	3960.9125
2521.97867	3965.2125
2524.70327	3967.9125
2527.42616	3957.0125
2530.14734	3955.3125
2532.86681	3945.3125
2535.58458	3945.2125
2538.30065	3948.0125
2541.01501	3960.7125
2543.72768	3940.9125
2546.43864	3933.5125
2549.14791	3914.8125
2551.85548	3890.4125
2554.56136	3907.9125
2557.26554	3910.4125
2559.96803	3898.5125
2562.66883	3882.7125
2565.36794	3867.4125
2568.06536	3837.4125
2570.7611	3866.0125
2573.45514	3831.1125
2576.14751	3829.1125
2578.83819	3816.0125
2581.52719	3809.9125
2584.21451	3805.7125
2586.90015	3784.6125
2589.58411	3762.5125
2592.2664	3779.0125
2594.94701	3775.4125
2597.62594	3782.2125
2600.30321	3700.5125
2602.9788	3723.6125
2605.65273	3726.4125
2608.32498	3729.2125
2610.99557	3743.5125
2613.66449	3714.4125
2616.33175	3721.9125
2618.99734	3723.8125
2621.66128	3707.7125
2624.32355	3700.1125
2626.98416	3692.4125
2629.64311	3685.0125
2632.30041	3677.3125
2634.95605	3655.6125
2637.61004	3639.2125
2640.26238	3623.5125
2642.91306	3635.2125
2645.56209	3642.3125
2648.20948	3642.8125
2650.85521	3619.7125
2653.4993	3657.0125
2656.14175	3632.7125
2658.78255	3620.7125
2661.42171	3593.3125
2664.05923	3628.8125
2666.6951	3643.1125
2669.32934	3637.8125
2671.96194	3655.3125
2674.59291	3628.4125
2677.22224	3641.6125
2679.84993	3628.6125
2682.476	3616.5125
2685.10043	3603.7125
2687.72324	3604.8125
2690.34441	3599.0125
2692.96396	3591.9125
2695.58188	3628.7125
2698.19818	3602.3125
2700.81285	3588.3125
2703.4259	3579.8125
2706.03733	3569.3125
2708.64714	3571.1125
2711.25533	3593.0125
2713.86191	3594.7125
2716.46687	3582.1125
2719.07021	3582.7125
2721.67194	3579.8125
2724.27206	3599.8125
2726.87057	3589.2125
2729.46747	3587.1125
2732.06276	3592.0125
2734.65644	3565.9125
2737.24852	3573.0125
2739.83899	3539.1125
2742.42786	3556.9125
2745.01513	3564.9125
2747.60079	3537.3125
2750.18486	3526.4125
2752.76733	3519.6125
2755.3482	3515.4125
2757.92747	3530.6125
2760.50515	3501.1125
2763.08123	3501.3125
2765.65573	3486.3125
2768.22863	3494.8125
2770.79994	3476.2125
2773.36967	3454.8125
2775.9378	3458.0125
2778.50435	3456.6125
2781.06932	3443.2125
2783.6327	3440.8125
2786.1945	3459.4125
2788.75471	3443.7125
2791.31335	3435.6125
2793.87041	3431.9125
2796.42589	3404.3125
2798.97979	3397.1125
2801.53212	3409.5125
2804.08288	3424.0125
2806.63206	3393.0125
2809.17967	3366.3125
2811.72571	3391.0125
2814.27018	3383.9125
2816.81308	3363.4125
2819.35442	3322.7125
2821.89419	3350.0125
2824.43239	3332.5125
2826.96904	3367.1125
2829.50412	3327.3125
2832.03763	3326.5125
2834.56959	3325.6125
2837.1	3318.8125
2839.62884	3322.9125
2842.15613	3310.8125
2844.68186	3338.1125
2847.20604	3286.4125
2849.72867	3286.7125
2852.24974	3297.7125
2854.76927	3247.7125
2857.28724	3206.9125
2859.80367	3273.5125
2862.31855	3280.6125
2864.83189	3269.1125
2867.34368	3263.2125
2869.85393	3265.9125
2872.36264	3233.6125
2874.8698	3247.5125
2877.37543	3259.9125
2879.87952	3249.0125
2882.38207	3225.9125
2884.88308	3228.7125
2887.38256	3232.6125
2889.88051	3222.1125
2892.37692	3213.3125
2894.8718	3199.5125
2897.36515	3218.1125
2899.85698	3213.7125
2902.34727	3218.4125
2904.83604	3215.0125
2907.32328	3221.1125
2909.809	3212.6125
2912.29319	3215.1125
2914.77587	3226.4125
2917.25702	3244.1125
2919.73665	3241.2125
2922.21476	3231.1125
2924.69136	3239.2125
2927.16644	3227.4125
2929.64	3213.8125
2932.11205	3202.1125
2934.58258	3206.4125
2937.05161	3183.6125
2939.51912	3199.1125
2941.98513	3210.1125
2944.44962	3192.1125
2946.91261	3150.0125
2949.37409	3181.1125
2951.83407	3167.0125
2954.29254	3146.7125
2956.74951	3167.0125
2959.20498	3139.0125
2961.65895	3151.2125
2964.11142	3133.7125
2966.56239	3130.8125
2969.01186	3137.3125
2971.45984	3125.2125
2973.90632	3117.8125
2976.35131	3144.9125
2978.7948	3111.8125
2981.23681	3093.2125
2983.67732	3110.1125
2986.11635	3101.6125
2988.55388	3066.9125
2990.98993	3077.7125
2993.4245	3061.7125
2995.85758	3047.6125
2998.28917	3044.9125
3000.71928	3034.9125
3003.14791	3021.0125
3005.57506	3019.8125
3008.00073	3006.0125
3010.42493	2948.5125
3012.84764	3007.6125
3015.26888	3000.6125
3017.68865	2972.7125
3020.10694	2931.4125
3022.52376	2958.1125
3024.9391	2954.9125
3027.35298	2937.6125
3029.76539	2928.1125
3032.17632	2920.5125
3034.5858	2912.1125
3036.9938	2921.6125
3039.40034	2921.3125
3041.80542	2911.3125
3044.20903	2895.4125
3046.61118	2888.4125
3049.01187	2908.9125
3051.4111	2879.8125
3053.80888	2878.1125
3056.20519	2859.9125
3058.60005	2849.2125
3060.99345	2869.9125
3063.3854	2827.8125
3065.7759	2831.4125
3068.16494	2821.7125
3070.55254	2811.8125
3072.93868	2819.7125
3075.32338	2804.6125
3077.70662	2784.6125
3080.08842	2781.2125
3082.46878	2770.6125
3084.84769	2776.1125
3087.22515	2778.1125
3089.60118	2772.2125
3091.97576	2752.5125
3094.3489	2770.3125
3096.72061	2762.5125
3099.09087	2742.5125
3101.4597	2770.9125
3103.82709	2748.7125
3106.19305	2738.3125
3108.55757	2737.7125
3110.92066	2728.9125
3113.28232	2741.9125
3115.64255	2729.8125
3118.00134	2725.8125
3120.35871	2704.2125
3122.71466	2696.5125
3125.06917	2687.9125
3127.42226	2687.7125
3129.77393	2666.0125
3132.12417	2679.6125
3134.47299	2676.2125
3136.82039	2652.2125
3139.16636	2636.4125
3141.51092	2651.1125
3143.85406	2665.7125
3146.19579	2655.9125
3148.53609	2640.8125
3150.87499	2659.3125
3153.21246	2636.2125
3155.54853	2644.7125
3157.88318	2651.2125
3160.21642	2650.2125
3162.54826	2640.1125
3164.87868	2652.8125
3167.2077	2606.2125
3169.5353	2627.6125
3171.86151	2631.2125
3174.18631	2617.6125
3176.5097	2603.0125
3178.83169	2617.8125
3181.15228	2609.5125
3183.47147	2588.4125
3185.78926	2569.1125
3188.10565	2589.3125
3190.42065	2565.4125
3192.73424	2578.2125
3195.04645	2557.2125
3197.35725	2552.1125
3199.66667	2565.1125
3201.97469	2549.2125
3204.28132	2537.0125
3206.58656	2546.4125
3208.8904	2553.8125
3211.19287	2547.3125
3213.49394	2526.5125
3215.79363	2531.7125
3218.09193	2535.9125
3220.38884	2543.4125
3222.68438	2529.2125
3224.97853	2510.7125
3227.2713	2527.3125
3229.56269	2517.2125
3231.8527	2507.5125
3234.14133	2496.0125
3236.42858	2497.2125
3238.71446	2475.5125
3240.99896	2490.2125
3243.28209	2473.7125
3245.56384	2478.2125
3247.84423	2467.6125
3250.12324	2476.9125
3252.40088	2467.7125
3254.67715	2451.1125
3256.95205	2441.6125
3259.22558	2466.2125
3261.49775	2453.0125
3263.76855	2455.8125
3266.03799	2464.3125
3268.30606	2450.3125
3270.57277	2454.5125
3272.83812	2432.8125
3275.10211	2432.8125
3277.36474	2439.9125
3279.62601	2428.3125
3281.88593	2400.8125
3284.14448	2388.7125
3286.40168	2400.2125
3288.65753	2388.6125
3290.91202	2392.6125
3293.16516	2388.0125
3295.41695	2391.4125
3297.66738	2389.4125
3299.91647	2361.1125
3302.16421	2366.4125
3304.4106	2318.3125
3306.65564	2336.2125
3308.89933	2289.3125
3311.14169	2288.9125
3313.38269	2269.4125
3315.62236	2243.8125
3317.86068	2227.1125
3320.09766	2229.2125
3322.3333	2191.6125
3324.5676	2185.7125
3326.80056	2149.6125
3329.03219	2147.9125
3331.26248	0.6125
3333.49143	0.1125
3335.71905	1.0125
