Data from AgNPs_UA_20uM_CRN_500uM_SU_RamanShift__73__13-48-40-304.txt Node

Date: Thu Aug 04 13:48:40 BST 2022
User: TCL
Spectrometer: QEP01345
Trigger mode: 4
Integration Time (sec): 1.000000E0
Scans to average: 10
Electric dark correction enabled: true
Nonlinearity correction enabled: false
Boxcar width: 0
XAxis mode: Raman Shifts
Number of Pixels in Spectrum: 1044
>>>>>Begin Spectral Data<<<<<
46.04893	-1.4125
50.45542	0.5875
54.85868	0.8875
59.25871	-0.2125
63.6555	11.9875
68.04907	8.5875
72.43941	13.3875
76.82654	12.4875
81.21044	11.6875
85.59113	13.5875
89.96862	12.8875
94.34289	16.1875
98.71396	14.8875
103.08183	16.9875
107.4465	13.2875
111.80798	16.4875
116.16626	16.3875
120.52136	19.1875
124.87327	18.5875
129.222	20.5875
133.56755	19.9875
137.90993	19.9875
142.24913	24.6875
146.58517	27.7875
150.91804	30.7875
155.24774	39.4875
159.57429	49.1875
163.89768	63.3875
168.21792	82.2875
172.53501	113.0875
176.84895	157.9875
181.15975	224.5875
185.46741	312.2875
189.77193	433.7875
194.07331	588.2875
198.37157	755.3875
202.6667	934.7875
206.9587	1117.1875
211.24758	1305.0875
215.53334	1485.4875
219.81599	1681.8875
224.09553	1895.3875
228.37195	2140.0875
232.64527	2394.6875
236.91549	2657.5875
241.18261	2889.7875
245.44663	3082.4875
249.70755	3205.2875
253.96539	3349.5875
258.22014	3467.2875
262.4718	3552.9875
266.72039	3650.7875
270.96589	3684.9875
275.20832	3669.4875
279.44768	3605.5875
283.68397	3549.3875
287.91719	3510.5875
292.14735	3507.1875
296.37445	3584.9875
300.59849	3685.8875
304.81948	3828.4875
309.03742	3955.7875
313.25231	4004.9875
317.46415	3954.1875
321.67296	3796.8875
325.87872	3643.9875
330.08145	3558.2875
334.28114	3559.7875
338.47781	3606.5875
342.67145	3689.3875
346.86207	3807.4875
351.04966	3957.1875
355.23424	4115.5875
359.4158	4226.1875
363.59435	4283.3875
367.76989	4321.9875
371.94243	4323.0875
376.11196	4324.1875
380.27849	4320.5875
384.44203	4318.1875
388.60257	4330.1875
392.76012	4360.6875
396.91468	4426.4875
401.06626	4496.6875
405.21485	4540.7875
409.36047	4466.0875
413.50311	4336.8875
417.64277	4183.5875
421.77947	4104.7875
425.9132	4080.3875
430.04396	4090.7875
434.17176	4123.5875
438.2966	4228.9875
442.41849	4348.0875
446.53742	4496.1875
450.6534	4627.2875
454.76644	4720.7875
458.87653	4711.2875
462.98368	4650.9875
467.08789	4576.4875
471.18916	4464.6875
475.2875	4339.6875
479.38291	4235.2875
483.4754	4178.4875
487.56496	4130.8875
491.6516	4105.9875
495.73531	4082.3875
499.81612	4072.4875
503.89401	4106.1875
507.96899	4135.1875
512.04106	4184.4875
516.11023	4221.9875
520.1765	4267.1875
524.23987	4289.6875
528.30034	4288.7875
532.35792	4260.0875
536.41261	4209.0875
540.46441	4144.3875
544.51333	4129.1875
548.55936	4161.4875
552.60252	4228.5875
556.64279	4300.6875
560.6802	4326.6875
564.71473	4367.9875
568.7464	4441.4875
572.7752	4445.7875
576.80114	4373.9875
580.82422	4299.5875
584.84444	4302.5875
588.86181	4386.2875
592.87633	4495.4875
596.888	4597.7875
600.89682	4801.9875
604.9028	5326.2875
608.90594	6442.8875
612.90624	7527.7875
616.90371	6873.5875
620.89834	5283.2875
624.89015	4648.1875
628.87913	4555.9875
632.86528	4558.8875
636.84862	4551.6875
640.82913	4443.2875
644.80683	4290.5875
648.78172	4195.8875
652.75379	4231.4875
656.72306	4399.3875
660.68952	4546.8875
664.65319	4495.5875
668.61405	4366.6875
672.57211	4327.9875
676.52738	4319.5875
680.47986	4291.6875
684.42955	4242.3875
688.37646	4240.3875
692.32058	4264.0875
696.26192	4333.7875
700.20048	4390.9875
704.13626	4421.2875
708.06928	4371.5875
711.99952	4334.6875
715.927	4345.4875
719.85171	4345.9875
723.77365	4346.9875
727.69284	4305.6875
731.60928	4270.7875
735.52295	4285.8875
739.43388	4322.8875
743.34206	4369.7875
747.24749	4371.3875
751.15017	4386.9875
755.05012	4453.0875
758.94733	4639.3875
762.8418	5035.5875
766.73354	5643.2875
770.62254	6220.5875
774.50882	6378.0875
778.39237	6043.7875
782.27321	5457.9875
786.15132	4920.8875
790.02671	4592.4875
793.89938	4439.3875
797.76935	4388.1875
801.6366	4380.8875
805.50115	4332.0875
809.36299	4332.2875
813.22213	4313.5875
817.07857	4307.0875
820.93231	4314.4875
824.78336	4338.5875
828.63172	4336.2875
832.47738	4352.7875
836.32036	4364.8875
840.16066	4355.6875
843.99827	4375.2875
847.8332	4359.4875
851.66546	4340.9875
855.49504	4366.8875
859.32195	4366.0875
863.1462	4367.1875
866.96777	4345.1875
870.78668	4347.5875
874.60293	4360.7875
878.41652	4355.4875
882.22745	4390.0875
886.03573	4420.3875
889.84136	4402.5875
893.64433	4383.0875
897.44466	4364.3875
901.24235	4361.7875
905.0374	4356.8875
908.8298	4350.0875
912.61957	4319.9875
916.40671	4363.7875
920.19121	4388.4875
923.97308	4438.3875
927.75233	4483.0875
931.52895	4515.6875
935.30295	4473.3875
939.07433	4384.3875
942.84309	4313.5875
946.60924	4290.7875
950.37278	4279.4875
954.13371	4272.2875
957.89203	4261.4875
961.64774	4245.0875
965.40086	4225.8875
969.15137	4204.2875
972.89929	4221.1875
976.64461	4223.9875
980.38733	4235.8875
984.12747	4249.2875
987.86502	4277.8875
991.59999	4337.6875
995.33237	4413.7875
999.06217	4515.4875
1002.78939	4624.9875
1006.51404	4704.5875
1010.23611	4752.5875
1013.95561	4808.9875
1017.67255	4839.3875
1021.38692	4799.2875
1025.09872	4757.9875
1028.80796	4750.4875
1032.51465	4817.5875
1036.21877	4880.0875
1039.92035	4882.6875
1043.61937	4835.7875
1047.31584	4807.2875
1051.00976	4737.8875
1054.70114	4730.4875
1058.38998	4736.5875
1062.07627	4762.2875
1065.76003	4823.2875
1069.44126	4866.7875
1073.11995	4919.3875
1076.79611	4949.3875
1080.46974	4988.8875
1084.14085	5043.0875
1087.80943	5122.4875
1091.47549	5133.5875
1095.13903	5060.1875
1098.80005	4947.5875
1102.45857	4870.4875
1106.11456	4845.8875
1109.76805	4869.4875
1113.41903	4933.2875
1117.06751	5033.4875
1120.71348	5162.5875
1124.35696	5322.4875
1127.99793	5421.8875
1131.63641	5352.8875
1135.2724	5190.3875
1138.90589	5034.7875
1142.5369	4918.0875
1146.16542	4853.4875
1149.79145	4837.0875
1153.415	4811.0875
1157.03607	4817.5875
1160.65467	4889.6875
1164.27079	5025.0875
1167.88443	5204.8875
1171.49561	5480.7875
1175.10432	5921.8875
1178.71056	6488.9875
1182.31434	7035.8875
1185.91565	7256.4875
1189.51451	7230.4875
1193.11091	7011.6875
1196.70485	6651.3875
1200.29634	6339.3875
1203.88538	6030.3875
1207.47197	5749.5875
1211.05612	5487.0875
1214.63782	5356.6875
1218.21708	5289.0875
1221.79391	5311.8875
1225.36829	5337.5875
1228.94024	5349.3875
1232.50976	5359.4875
1236.07685	5360.0875
1239.6415	5388.5875
1243.20374	5418.8875
1246.76355	5433.9875
1250.32093	5493.6875
1253.8759	5584.2875
1257.42845	5735.2875
1260.97859	5912.1875
1264.52631	6079.8875
1268.07163	6188.0875
1271.61453	6275.0875
1275.15503	6347.1875
1278.69312	6409.2875
1282.22882	6484.5875
1285.76211	6637.1875
1289.29301	6825.1875
1292.82151	7028.9875
1296.34761	7233.7875
1299.87133	7511.3875
1303.39266	7971.1875
1306.9116	8563.0875
1310.42815	9169.9875
1313.94233	9366.4875
1317.45412	9053.4875
1320.96354	8571.8875
1324.47058	8121.7875
1327.97525	7745.2875
1331.47754	7590.2875
1334.97747	7623.6875
1338.47502	7753.2875
1341.97022	7968.2875
1345.46305	8196.2875
1348.95352	8587.5875
1352.44163	9069.7875
1355.92738	9705.5875
1359.41078	10587.6875
1362.89183	11187.1875
1366.37053	10627.1875
1369.84688	9139.2875
1373.32088	7800.0875
1376.79254	7005.3875
1380.26186	6702.5875
1383.72883	6561.8875
1387.19347	6386.8875
1390.65578	6183.5875
1394.11575	5971.2875
1397.57339	5844.6875
1401.0287	5800.3875
1404.48168	5834.7875
1407.93234	5958.1875
1411.38068	6092.4875
1414.82669	6171.3875
1418.27039	6164.6875
1421.71177	6137.8875
1425.15083	6093.8875
1428.58758	6153.0875
1432.02203	6271.3875
1435.45416	6323.3875
1438.88399	6329.8875
1442.31151	6252.4875
1445.73673	6204.4875
1449.15965	6141.1875
1452.58027	6061.5875
1455.9986	5991.7875
1459.41463	5965.2875
1462.82837	6011.3875
1466.23982	6088.8875
1469.64898	6183.1875
1473.05586	6264.0875
1476.46045	6349.1875
1479.86276	6415.7875
1483.26279	6504.2875
1486.66054	6625.8875
1490.05602	6847.1875
1493.44922	7172.3875
1496.84016	7623.0875
1500.22882	8291.0875
1503.61521	9073.9875
1506.99934	9852.0875
1510.38121	10293.1875
1513.76081	10070.1875
1517.13816	9293.4875
1520.51324	8301.7875
1523.88607	7586.5875
1527.25665	7201.3875
1530.62498	7010.3875
1533.99105	6905.8875
1537.35488	6798.8875
1540.71647	6737.0875
1544.07581	6651.4875
1547.4329	6587.7875
1550.78776	6498.4875
1554.14038	6417.8875
1557.49077	6391.7875
1560.83892	6436.7875
1564.18484	6529.6875
1567.52853	6664.9875
1570.86999	6772.9875
1574.20922	6785.8875
1577.54624	6662.1875
1580.88103	6396.3875
1584.2136	6129.0875
1587.54395	6023.1875
1590.87208	6162.1875
1594.19801	6527.7875
1597.52172	7004.2875
1600.84321	7283.4875
1604.16251	7252.6875
1607.47959	6984.9875
1610.79447	6579.3875
1614.10715	6123.6875
1617.41763	5722.3875
1620.7259	5461.9875
1624.03199	5356.1875
1627.33587	5330.7875
1630.63757	5465.2875
1633.93707	5735.0875
1637.23439	6179.2875
1640.52951	6824.7875
1643.82246	7612.1875
1647.11321	8237.2875
1650.40179	8333.6875
1653.68819	7715.4875
1656.97241	6673.8875
1660.25446	5766.7875
1663.53433	5167.8875
1666.81203	4837.5875
1670.08756	4626.7875
1673.36092	4485.2875
1676.63211	4421.7875
1679.90115	4333.0875
1683.16801	4307.1875
1686.43272	4255.0875
1689.69527	4235.5875
1692.95567	4232.2875
1696.2139	4212.0875
1699.46999	4199.5875
1702.72392	4190.8875
1705.97571	4195.5875
1709.22535	4185.8875
1712.47284	4190.1875
1715.71819	4173.4875
1718.96139	4184.5875
1722.20246	4185.8875
1725.44139	4155.3875
1728.67818	4142.4875
1731.91284	4103.4875
1735.14537	4103.5875
1738.37576	4070.5875
1741.60403	4067.2875
1744.83017	4065.5875
1748.05418	4049.7875
1751.27607	4045.2875
1754.49584	4025.1875
1757.71349	4011.5875
1760.92903	4022.4875
1764.14244	4010.3875
1767.35375	4011.4875
1770.56294	3994.8875
1773.77002	3992.1875
1776.97499	3987.7875
1780.17785	3971.7875
1783.37861	3966.7875
1786.57727	3957.9875
1789.77382	3956.6875
1792.96828	3948.5875
1796.16064	3938.6875
1799.3509	3941.1875
1802.53907	3941.0875
1805.72514	3944.4875
1808.90913	3931.9875
1812.09102	3917.8875
1815.27083	3917.9875
1818.44856	3912.6875
1821.6242	3891.8875
1824.79776	3894.0875
1827.96924	3899.5875
1831.13864	3874.8875
1834.30597	3881.1875
1837.47122	3865.9875
1840.6344	3856.7875
1843.7955	3862.6875
1846.95454	3863.1875
1850.11151	3860.6875
1853.26642	3855.5875
1856.41926	3870.2875
1859.57004	3850.6875
1862.71876	3847.7875
1865.86542	3851.3875
1869.01003	3845.5875
1872.15258	3838.0875
1875.29308	3848.2875
1878.43152	3843.2875
1881.56792	3837.4875
1884.70227	3834.0875
1887.83457	3843.5875
1890.96482	3818.0875
1894.09304	3826.2875
1897.21921	3811.5875
1900.34335	3820.3875
1903.46544	3814.2875
1906.58551	3810.6875
1909.70353	3811.0875
1912.81953	3815.1875
1915.93349	3811.6875
1919.04543	3788.5875
1922.15534	3799.3875
1925.26322	3793.8875
1928.36908	3765.7875
1931.47292	3778.6875
1934.57473	3764.9875
1937.67453	3757.8875
1940.77232	3768.9875
1943.86808	3747.3875
1946.96184	3739.0875
1950.05358	3722.9875
1953.14331	3722.3875
1956.23103	3704.5875
1959.31675	3697.1875
1962.40046	3681.6875
1965.48217	3670.7875
1968.56188	3656.9875
1971.63959	3659.6875
1974.7153	3665.6875
1977.78901	3654.3875
1980.86073	3618.1875
1983.93046	3625.1875
1986.99819	3612.9875
1990.06394	3586.7875
1993.1277	3590.7875
1996.18947	3573.3875
1999.24925	3570.1875
2002.30706	3554.2875
2005.36288	3534.0875
2008.41672	3528.9875
2011.46859	3525.9875
2014.51848	3512.2875
2017.56639	3510.3875
2020.61233	3498.6875
2023.6563	3477.0875
2026.6983	3463.5875
2029.73833	3472.1875
2032.7764	3453.2875
2035.8125	3462.4875
2038.84664	3440.4875
2041.87881	3437.9875
2044.90903	3437.9875
2047.93729	3436.2875
2050.96359	3432.6875
2053.98794	3426.9875
2057.01034	3422.9875
2060.03078	3418.6875
2063.04927	3417.9875
2066.06582	3400.6875
2069.08042	3405.3875
2072.09307	3410.2875
2075.10378	3402.7875
2078.11255	3396.8875
2081.11938	3405.1875
2084.12426	3395.3875
2087.12722	3380.1875
2090.12824	3394.4875
2093.12732	3392.4875
2096.12447	3400.8875
2099.11969	3401.9875
2102.11299	3390.9875
2105.10435	3398.9875
2108.09379	3399.2875
2111.08131	3397.5875
2114.0669	3396.9875
2117.05057	3395.8875
2120.03233	3393.7875
2123.01216	3392.4875
2125.99008	3398.1875
2128.96609	3407.3875
2131.94018	3419.0875
2134.91236	3396.8875
2137.88263	3417.2875
2140.851	3404.4875
2143.81746	3402.8875
2146.78201	3404.7875
2149.74466	3421.5875
2152.7054	3404.6875
2155.66425	3403.1875
2158.6212	3412.6875
2161.57625	3413.3875
2164.52941	3406.0875
2167.48067	3397.9875
2170.43004	3390.9875
2173.37752	3395.5875
2176.32311	3395.3875
2179.26681	3400.0875
2182.20863	3393.7875
2185.14856	3404.6875
2188.08661	3404.1875
2191.02278	3410.3875
2193.95707	3385.2875
2196.88948	3412.8875
2199.82001	3396.3875
2202.74867	3402.5875
2205.67545	3405.6875
2208.60037	3391.9875
2211.52341	3383.5875
2214.44458	3379.5875
2217.36388	3373.4875
2220.28132	3363.6875
2223.1969	3351.9875
2226.11061	3358.1875
2229.02246	3336.8875
2231.93245	3327.9875
2234.84058	3340.4875
2237.74686	3322.1875
2240.65128	3316.9875
2243.55385	3333.8875
2246.45456	3315.1875
2249.35343	3305.3875
2252.25044	3310.0875
2255.14561	3320.2875
2258.03893	3307.2875
2260.93041	3299.8875
2263.82004	3290.5875
2266.70783	3280.9875
2269.59378	3268.4875
2272.4779	3276.7875
2275.36017	3261.9875
2278.24061	3248.3875
2281.11922	3241.1875
2283.996	3243.1875
2286.87094	3234.8875
2289.74405	3224.7875
2292.61534	3223.8875
2295.4848	3221.0875
2298.35243	3220.8875
2301.21824	3208.2875
2304.08223	3217.5875
2306.94439	3217.6875
2309.80474	3221.6875
2312.66327	3208.4875
2315.51999	3206.0875
2318.37489	3210.1875
2321.22797	3220.1875
2324.07925	3205.7875
2326.92871	3201.1875
2329.77637	3188.5875
2332.62222	3183.1875
2335.46626	3200.2875
2338.3085	3182.6875
2341.14893	3190.4875
2343.98756	3193.8875
2346.8244	3177.8875
2349.65943	3192.7875
2352.49267	3194.6875
2355.32411	3188.7875
2358.15376	3180.5875
2360.98161	3180.3875
2363.80768	3195.4875
2366.63195	3174.2875
2369.45444	3180.5875
2372.27514	3159.6875
2375.09405	3163.4875
2377.91118	3145.1875
2380.72652	3152.4875
2383.54009	3141.2875
2386.35187	3140.9875
2389.16188	3136.1875
2391.97011	3110.4875
2394.77657	3118.0875
2397.58125	3110.6875
2400.38416	3101.0875
2403.18529	3099.8875
2405.98466	3087.6875
2408.78226	3095.2875
2411.57809	3085.6875
2414.37216	3074.8875
2417.16446	3075.8875
2419.955	3076.3875
2422.74378	3068.9875
2425.5308	3052.1875
2428.31606	3053.4875
2431.09956	3063.6875
2433.88131	3047.6875
2436.6613	3056.4875
2439.43954	3058.1875
2442.21603	3053.5875
2444.99077	3054.6875
2447.76377	3063.3875
2450.53501	3034.6875
2453.30451	3043.4875
2456.07226	3043.6875
2458.83827	3038.7875
2461.60254	3034.0875
2464.36507	3036.8875
2467.12586	3027.8875
2469.88492	3030.5875
2472.64224	3027.5875
2475.39782	3028.7875
2478.15167	3041.4875
2480.90379	3032.2875
2483.65417	3032.2875
2486.40283	3039.0875
2489.14976	3035.2875
2491.89497	3040.6875
2494.63845	3030.6875
2497.3802	3045.2875
2500.12024	3040.3875
2502.85855	3015.1875
2505.59514	3010.1875
2508.33002	2999.1875
2511.06318	3008.9875
2513.79462	2988.8875
2516.52435	2998.0875
2519.25237	2988.5875
2521.97867	2980.4875
2524.70327	2992.7875
2527.42616	2982.1875
2530.14734	2984.9875
2532.86681	2966.4875
2535.58458	2976.4875
2538.30065	2972.6875
2541.01501	2973.1875
2543.72768	2976.8875
2546.43864	2973.8875
2549.14791	2968.1875
2551.85548	2963.3875
2554.56136	2962.0875
2557.26554	2944.4875
2559.96803	2950.5875
2562.66883	2941.0875
2565.36794	2935.3875
2568.06536	2924.4875
2570.7611	2929.6875
2573.45514	2909.0875
2576.14751	2917.2875
2578.83819	2909.6875
2581.52719	2913.3875
2584.21451	2913.6875
2586.90015	2900.9875
2589.58411	2893.6875
2592.2664	2905.4875
2594.94701	2895.3875
2597.62594	2890.6875
2600.30321	2894.9875
2602.9788	2892.7875
2605.65273	2895.2875
2608.32498	2889.6875
2610.99557	2878.9875
2613.66449	2875.8875
2616.33175	2883.0875
2618.99734	2890.8875
2621.66128	2874.7875
2624.32355	2889.0875
2626.98416	2881.9875
2629.64311	2879.9875
2632.30041	2874.8875
2634.95605	2875.0875
2637.61004	2859.8875
2640.26238	2861.3875
2642.91306	2864.1875
2645.56209	2852.9875
2648.20948	2848.4875
2650.85521	2849.1875
2653.4993	2868.9875
2656.14175	2852.5875
2658.78255	2869.5875
2661.42171	2856.8875
2664.05923	2865.4875
2666.6951	2865.5875
2669.32934	2869.9875
2671.96194	2865.3875
2674.59291	2855.8875
2677.22224	2851.6875
2679.84993	2862.7875
2682.476	2874.5875
2685.10043	2856.0875
2687.72324	2850.1875
2690.34441	2852.5875
2692.96396	2860.1875
2695.58188	2858.2875
2698.19818	2841.6875
2700.81285	2864.2875
2703.4259	2859.6875
2706.03733	2848.4875
2708.64714	2844.0875
2711.25533	2841.5875
2713.86191	2836.4875
2716.46687	2843.9875
2719.07021	2849.0875
2721.67194	2857.2875
2724.27206	2846.9875
2726.87057	2855.0875
2729.46747	2860.7875
2732.06276	2856.1875
2734.65644	2852.4875
2737.24852	2852.3875
2739.83899	2825.7875
2742.42786	2849.8875
2745.01513	2840.4875
2747.60079	2838.6875
2750.18486	2833.6875
2752.76733	2827.9875
2755.3482	2835.5875
2757.92747	2814.9875
2760.50515	2806.9875
2763.08123	2811.8875
2765.65573	2810.0875
2768.22863	2812.1875
2770.79994	2810.1875
2773.36967	2807.7875
2775.9378	2815.7875
2778.50435	2806.8875
2781.06932	2806.7875
2783.6327	2799.2875
2786.1945	2798.3875
2788.75471	2796.8875
2791.31335	2792.2875
2793.87041	2780.8875
2796.42589	2786.5875
2798.97979	2769.1875
2801.53212	2778.8875
2804.08288	2780.1875
2806.63206	2769.2875
2809.17967	2772.1875
2811.72571	2764.7875
2814.27018	2766.6875
2816.81308	2750.2875
2819.35442	2741.4875
2821.89419	2731.4875
2824.43239	2740.1875
2826.96904	2724.7875
2829.50412	2743.1875
2832.03763	2723.2875
2834.56959	2728.1875
2837.1	2718.2875
2839.62884	2713.6875
2842.15613	2719.3875
2844.68186	2722.1875
2847.20604	2720.2875
2849.72867	2716.4875
2852.24974	2705.4875
2854.76927	2704.7875
2857.28724	2685.2875
2859.80367	2688.3875
2862.31855	2698.2875
2864.83189	2678.8875
2867.34368	2680.5875
2869.85393	2689.8875
2872.36264	2682.7875
2874.8698	2674.0875
2877.37543	2674.4875
2879.87952	2665.2875
2882.38207	2674.5875
2884.88308	2662.8875
2887.38256	2649.8875
2889.88051	2662.5875
2892.37692	2658.8875
2894.8718	2657.6875
2897.36515	2652.5875
2899.85698	2662.4875
2902.34727	2666.9875
2904.83604	2662.1875
2907.32328	2667.3875
2909.809	2672.7875
2912.29319	2662.6875
2914.77587	2665.8875
2917.25702	2667.8875
2919.73665	2664.9875
2922.21476	2661.7875
2924.69136	2667.4875
2927.16644	2659.7875
2929.64	2664.7875
2932.11205	2651.4875
2934.58258	2658.4875
2937.05161	2654.7875
2939.51912	2649.9875
2941.98513	2648.6875
2944.44962	2638.0875
2946.91261	2633.3875
2949.37409	2640.3875
2951.83407	2640.9875
2954.29254	2630.9875
2956.74951	2635.1875
2959.20498	2624.6875
2961.65895	2624.0875
2964.11142	2616.0875
2966.56239	2623.9875
2969.01186	2626.2875
2971.45984	2631.9875
2973.90632	2613.3875
2976.35131	2606.0875
2978.7948	2596.0875
2981.23681	2595.2875
2983.67732	2601.0875
2986.11635	2582.8875
2988.55388	2587.9875
2990.98993	2581.9875
2993.4245	2569.5875
2995.85758	2571.1875
2998.28917	2573.4875
3000.71928	2558.4875
3003.14791	2552.3875
3005.57506	2549.1875
3008.00073	2537.3875
3010.42493	2532.3875
3012.84764	2508.4875
3015.26888	2515.7875
3017.68865	2507.1875
3020.10694	2510.0875
3022.52376	2495.7875
3024.9391	2498.1875
3027.35298	2489.2875
3029.76539	2483.7875
3032.17632	2473.7875
3034.5858	2487.0875
3036.9938	2486.4875
3039.40034	2471.1875
3041.80542	2457.9875
3044.20903	2464.5875
3046.61118	2457.4875
3049.01187	2448.6875
3051.4111	2454.4875
3053.80888	2442.5875
3056.20519	2437.4875
3058.60005	2428.6875
3060.99345	2433.2875
3063.3854	2415.5875
3065.7759	2415.4875
3068.16494	2419.8875
3070.55254	2408.0875
3072.93868	2400.7875
3075.32338	2382.8875
3077.70662	2377.8875
3080.08842	2370.7875
3082.46878	2368.9875
3084.84769	2360.7875
3087.22515	2356.4875
3089.60118	2373.4875
3091.97576	2357.8875
3094.3489	2360.9875
3096.72061	2349.5875
3099.09087	2346.8875
3101.4597	2348.1875
3103.82709	2348.4875
3106.19305	2346.6875
3108.55757	2350.3875
3110.92066	2340.3875
3113.28232	2334.1875
3115.64255	2314.7875
3118.00134	2315.9875
3120.35871	2312.2875
3122.71466	2311.3875
3125.06917	2319.5875
3127.42226	2310.6875
3129.77393	2293.0875
3132.12417	2296.2875
3134.47299	2296.9875
3136.82039	2292.6875
3139.16636	2283.6875
3141.51092	2288.4875
3143.85406	2295.2875
3146.19579	2296.2875
3148.53609	2296.7875
3150.87499	2282.4875
3153.21246	2276.5875
3155.54853	2292.9875
3157.88318	2294.8875
3160.21642	2297.0875
3162.54826	2284.6875
3164.87868	2273.8875
3167.2077	2273.8875
3169.5353	2272.9875
3171.86151	2277.4875
3174.18631	2265.7875
3176.5097	2265.2875
3178.83169	2258.3875
3181.15228	2252.6875
3183.47147	2248.0875
3185.78926	2243.3875
3188.10565	2233.5875
3190.42065	2236.3875
3192.73424	2238.1875
3195.04645	2222.1875
3197.35725	2221.3875
3199.66667	2227.9875
3201.97469	2230.4875
3204.28132	2226.6875
3206.58656	2216.8875
3208.8904	2225.4875
3211.19287	2229.7875
3213.49394	2236.2875
3215.79363	2233.9875
3218.09193	2224.6875
3220.38884	2228.1875
3222.68438	2225.1875
3224.97853	2214.4875
3227.2713	2220.9875
3229.56269	2222.7875
3231.8527	2227.8875
3234.14133	2221.2875
3236.42858	2204.9875
3238.71446	2206.8875
3240.99896	2201.5875
3243.28209	2191.9875
3245.56384	2188.6875
3247.84423	2184.0875
3250.12324	2182.5875
3252.40088	2180.3875
3254.67715	2185.4875
3256.95205	2181.9875
3259.22558	2172.4875
3261.49775	2175.7875
3263.76855	2176.1875
3266.03799	2176.6875
3268.30606	2169.0875
3270.57277	2170.4875
3272.83812	2168.9875
3275.10211	2160.7875
3277.36474	2160.1875
3279.62601	2149.2875
3281.88593	2151.6875
3284.14448	2152.7875
3286.40168	2147.8875
3288.65753	2147.0875
3290.91202	2135.1875
3293.16516	2124.4875
3295.41695	2128.9875
3297.66738	2113.9875
3299.91647	2104.7875
3302.16421	2101.2875
3304.4106	2086.8875
3306.65564	2070.9875
3308.89933	2054.3875
3311.14169	2035.0875
3313.38269	2023.1875
3315.62236	2014.6875
3317.86068	1987.9875
3320.09766	1977.6875
3322.3333	1956.2875
3324.5676	1948.4875
3326.80056	1918.7875
3329.03219	1906.5875
3331.26248	2.1875
3333.49143	-0.8125
3335.71905	-1.4125
