Data from AgNPs_UA_20uM_CRN_500uM_SU_RamanShift__65__13-47-20-303.txt Node

Date: Thu Aug 04 13:47:20 BST 2022
User: TCL
Spectrometer: QEP01345
Trigger mode: 4
Integration Time (sec): 1.000000E0
Scans to average: 10
Electric dark correction enabled: true
Nonlinearity correction enabled: false
Boxcar width: 0
XAxis mode: Raman Shifts
Number of Pixels in Spectrum: 1044
>>>>>Begin Spectral Data<<<<<
46.04893	-0.725
50.45542	-0.125
54.85868	1.275
59.25871	0.075
63.6555	12.075
68.04907	9.975
72.43941	13.375
76.82654	13.475
81.21044	12.475
85.59113	15.175
89.96862	14.175
94.34289	14.575
98.71396	14.575
103.08183	16.075
107.4465	14.775
111.80798	16.775
116.16626	17.975
120.52136	20.375
124.87327	17.675
129.222	21.475
133.56755	19.275
137.90993	19.575
142.24913	23.475
146.58517	26.175
150.91804	30.875
155.24774	36.275
159.57429	44.875
163.89768	60.975
168.21792	77.975
172.53501	106.875
176.84895	145.575
181.15975	208.575
185.46741	288.575
189.77193	395.175
194.07331	527.375
198.37157	678.575
202.6667	845.075
206.9587	1005.375
211.24758	1160.875
215.53334	1322.575
219.81599	1481.875
224.09553	1668.275
228.37195	1877.975
232.64527	2100.875
236.91549	2317.075
241.18261	2545.775
245.44663	2740.375
249.70755	2902.475
253.96539	3064.975
258.22014	3197.975
262.4718	3298.175
266.72039	3384.675
270.96589	3423.875
275.20832	3424.475
279.44768	3384.575
283.68397	3325.975
287.91719	3290.375
292.14735	3276.675
296.37445	3312.375
300.59849	3349.875
304.81948	3423.475
309.03742	3492.375
313.25231	3491.475
317.46415	3469.875
321.67296	3401.775
325.87872	3328.375
330.08145	3290.175
334.28114	3307.475
338.47781	3357.775
342.67145	3443.475
346.86207	3505.575
351.04966	3584.975
355.23424	3706.475
359.4158	3799.675
363.59435	3863.375
367.76989	3896.075
371.94243	3940.475
376.11196	3955.775
380.27849	3997.575
384.44203	4022.375
388.60257	4052.075
392.76012	4094.975
396.91468	4132.175
401.06626	4215.575
405.21485	4262.075
409.36047	4258.075
413.50311	4182.675
417.64277	4104.275
421.77947	4039.875
425.9132	4054.075
430.04396	4095.775
434.17176	4189.175
438.2966	4316.475
442.41849	4499.475
446.53742	4715.075
450.6534	4950.375
454.76644	5085.775
458.87653	5053.475
462.98368	4924.975
467.08789	4762.375
471.18916	4569.275
475.2875	4392.975
479.38291	4260.975
483.4754	4163.975
487.56496	4090.375
491.6516	4060.175
495.73531	3997.975
499.81612	4006.875
503.89401	4008.075
507.96899	4046.275
512.04106	4057.775
516.11023	4098.075
520.1765	4144.775
524.23987	4166.375
528.30034	4169.675
532.35792	4169.475
536.41261	4135.775
540.46441	4067.275
544.51333	4051.075
548.55936	4082.975
552.60252	4151.875
556.64279	4189.775
560.6802	4210.575
564.71473	4188.375
568.7464	4184.575
572.7752	4207.475
576.80114	4184.175
580.82422	4207.775
584.84444	4301.075
588.86181	4477.675
592.87633	4684.275
596.888	4788.975
600.89682	4911.475
604.9028	5279.375
608.90594	6014.275
612.90624	6614.375
616.90371	6031.575
620.89834	4983.375
624.89015	4585.575
628.87913	4526.475
632.86528	4470.275
636.84862	4375.875
640.82913	4272.675
644.80683	4140.875
648.78172	4083.775
652.75379	4112.175
656.72306	4263.575
660.68952	4367.875
664.65319	4330.575
668.61405	4276.675
672.57211	4298.675
676.52738	4277.375
680.47986	4214.675
684.42955	4160.675
688.37646	4172.075
692.32058	4204.275
696.26192	4277.575
700.20048	4354.075
704.13626	4371.775
708.06928	4302.075
711.99952	4246.875
715.927	4265.275
719.85171	4284.575
723.77365	4259.675
727.69284	4223.075
731.60928	4196.775
735.52295	4212.275
739.43388	4255.875
743.34206	4294.175
747.24749	4328.275
751.15017	4345.475
755.05012	4382.875
758.94733	4532.775
762.8418	4797.575
766.73354	5185.075
770.62254	5536.275
774.50882	5673.975
778.39237	5462.675
782.27321	5070.175
786.15132	4682.975
790.02671	4451.375
793.89938	4352.475
797.76935	4298.775
801.6366	4287.075
805.50115	4263.075
809.36299	4240.975
813.22213	4230.475
817.07857	4236.175
820.93231	4230.175
824.78336	4240.975
828.63172	4249.775
832.47738	4260.975
836.32036	4263.975
840.16066	4268.575
843.99827	4275.275
847.8332	4272.475
851.66546	4263.175
855.49504	4258.875
859.32195	4270.375
863.1462	4245.675
866.96777	4229.475
870.78668	4229.675
874.60293	4253.375
878.41652	4266.475
882.22745	4298.275
886.03573	4302.275
889.84136	4284.175
893.64433	4277.075
897.44466	4249.975
901.24235	4244.875
905.0374	4239.475
908.8298	4236.475
912.61957	4215.175
916.40671	4253.675
920.19121	4292.575
923.97308	4339.175
927.75233	4383.575
931.52895	4399.275
935.30295	4348.675
939.07433	4273.775
942.84309	4224.975
946.60924	4206.975
950.37278	4194.575
954.13371	4185.075
957.89203	4161.675
961.64774	4142.175
965.40086	4138.475
969.15137	4114.775
972.89929	4115.875
976.64461	4136.775
980.38733	4137.675
984.12747	4166.775
987.86502	4197.675
991.59999	4261.375
995.33237	4379.775
999.06217	4540.475
1002.78939	4695.175
1006.51404	4779.675
1010.23611	4815.175
1013.95561	4932.375
1017.67255	4985.275
1021.38692	4943.475
1025.09872	4856.875
1028.80796	4857.975
1032.51465	4946.575
1036.21877	5016.875
1039.92035	4995.675
1043.61937	4935.675
1047.31584	4815.375
1051.00976	4717.175
1054.70114	4671.575
1058.38998	4662.175
1062.07627	4676.775
1065.76003	4721.575
1069.44126	4760.975
1073.11995	4802.075
1076.79611	4830.775
1080.46974	4857.575
1084.14085	4915.275
1087.80943	4964.975
1091.47549	4948.875
1095.13903	4895.875
1098.80005	4799.075
1102.45857	4753.975
1106.11456	4739.175
1109.76805	4751.575
1113.41903	4813.975
1117.06751	4885.675
1120.71348	4964.475
1124.35696	5075.675
1127.99793	5113.175
1131.63641	5066.675
1135.2724	4991.475
1138.90589	4869.275
1142.5369	4814.875
1146.16542	4750.875
1149.79145	4736.575
1153.415	4743.775
1157.03607	4789.075
1160.65467	4854.475
1164.27079	4957.075
1167.88443	5153.475
1171.49561	5433.475
1175.10432	5845.675
1178.71056	6416.675
1182.31434	6959.975
1185.91565	7362.075
1189.51451	7505.875
1193.11091	7318.375
1196.70485	6875.375
1200.29634	6447.675
1203.88538	6053.475
1207.47197	5762.975
1211.05612	5558.475
1214.63782	5460.875
1218.21708	5414.075
1221.79391	5463.675
1225.36829	5492.275
1228.94024	5510.775
1232.50976	5499.875
1236.07685	5541.075
1239.6415	5613.975
1243.20374	5625.875
1246.76355	5646.175
1250.32093	5710.375
1253.8759	5804.275
1257.42845	6025.775
1260.97859	6200.575
1264.52631	6376.475
1268.07163	6458.375
1271.61453	6550.375
1275.15503	6624.875
1278.69312	6706.575
1282.22882	6841.875
1285.76211	6993.075
1289.29301	7199.675
1292.82151	7442.475
1296.34761	7601.475
1299.87133	7817.075
1303.39266	8123.675
1306.9116	8584.275
1310.42815	9052.075
1313.94233	9261.675
1317.45412	9127.975
1320.96354	8896.475
1324.47058	8648.675
1327.97525	8574.075
1331.47754	8706.975
1334.97747	8934.475
1338.47502	9129.975
1341.97022	9215.575
1345.46305	9273.075
1348.95352	9434.175
1352.44163	9719.275
1355.92738	10096.175
1359.41078	10543.375
1362.89183	10686.775
1366.37053	10167.975
1369.84688	9154.275
1373.32088	8200.875
1376.79254	7631.275
1380.26186	7332.475
1383.72883	7194.575
1387.19347	6994.675
1390.65578	6685.375
1394.11575	6458.775
1397.57339	6312.675
1401.0287	6351.775
1404.48168	6547.875
1407.93234	6785.775
1411.38068	6995.975
1414.82669	7025.775
1418.27039	6904.975
1421.71177	6771.475
1425.15083	6760.875
1428.58758	6848.575
1432.02203	7052.175
1435.45416	7135.575
1438.88399	7142.775
1442.31151	7099.175
1445.73673	7023.375
1449.15965	6928.175
1452.58027	6783.675
1455.9986	6635.775
1459.41463	6601.675
1462.82837	6653.075
1466.23982	6821.375
1469.64898	6977.875
1473.05586	7149.975
1476.46045	7248.775
1479.86276	7334.875
1483.26279	7375.075
1486.66054	7429.675
1490.05602	7508.475
1493.44922	7620.675
1496.84016	7843.975
1500.22882	8128.175
1503.61521	8494.275
1506.99934	8820.475
1510.38121	8925.575
1513.76081	8705.075
1517.13816	8227.875
1520.51324	7775.175
1523.88607	7430.875
1527.25665	7304.975
1530.62498	7312.275
1533.99105	7338.175
1537.35488	7378.675
1540.71647	7367.875
1544.07581	7300.475
1547.4329	7146.175
1550.78776	6926.975
1554.14038	6719.175
1557.49077	6573.575
1560.83892	6499.275
1564.18484	6493.175
1567.52853	6512.675
1570.86999	6551.475
1574.20922	6554.775
1577.54624	6474.875
1580.88103	6307.675
1584.2136	6219.275
1587.54395	6270.175
1590.87208	6591.375
1594.19801	7155.775
1597.52172	7929.875
1600.84321	8458.575
1604.16251	8472.475
1607.47959	7966.275
1610.79447	7230.375
1614.10715	6515.175
1617.41763	5981.875
1620.7259	5663.375
1624.03199	5514.975
1627.33587	5531.275
1630.63757	5676.375
1633.93707	5969.375
1637.23439	6512.275
1640.52951	7195.475
1643.82246	7912.375
1647.11321	8342.475
1650.40179	8121.575
1653.68819	7369.075
1656.97241	6395.875
1660.25446	5609.075
1663.53433	5113.175
1666.81203	4792.875
1670.08756	4617.575
1673.36092	4486.675
1676.63211	4402.575
1679.90115	4334.575
1683.16801	4282.975
1686.43272	4249.875
1689.69527	4217.375
1692.95567	4209.475
1696.2139	4198.375
1699.46999	4170.175
1702.72392	4178.675
1705.97571	4184.975
1709.22535	4177.475
1712.47284	4169.375
1715.71819	4161.475
1718.96139	4153.275
1722.20246	4143.175
1725.44139	4118.275
1728.67818	4113.575
1731.91284	4079.575
1735.14537	4080.675
1738.37576	4046.075
1741.60403	4043.775
1744.83017	4031.275
1748.05418	4033.875
1751.27607	4011.975
1754.49584	4012.475
1757.71349	4010.975
1760.92903	3999.275
1764.14244	3984.275
1767.35375	3977.975
1770.56294	3982.775
1773.77002	3978.475
1776.97499	3974.175
1780.17785	3967.075
1783.37861	3959.375
1786.57727	3957.575
1789.77382	3956.375
1792.96828	3938.975
1796.16064	3945.775
1799.3509	3931.275
1802.53907	3926.175
1805.72514	3935.475
1808.90913	3915.675
1812.09102	3910.975
1815.27083	3902.775
1818.44856	3872.675
1821.6242	3878.475
1824.79776	3866.075
1827.96924	3873.075
1831.13864	3865.975
1834.30597	3861.675
1837.47122	3860.575
1840.6344	3839.475
1843.7955	3839.275
1846.95454	3839.475
1850.11151	3846.575
1853.26642	3838.675
1856.41926	3839.875
1859.57004	3855.475
1862.71876	3835.275
1865.86542	3838.775
1869.01003	3827.275
1872.15258	3824.775
1875.29308	3830.775
1878.43152	3825.075
1881.56792	3837.575
1884.70227	3827.175
1887.83457	3821.175
1890.96482	3824.975
1894.09304	3804.875
1897.21921	3808.175
1900.34335	3805.775
1903.46544	3800.275
1906.58551	3805.775
1909.70353	3805.475
1912.81953	3802.275
1915.93349	3797.875
1919.04543	3788.675
1922.15534	3788.575
1925.26322	3786.075
1928.36908	3760.775
1931.47292	3760.075
1934.57473	3765.075
1937.67453	3772.575
1940.77232	3757.475
1943.86808	3744.075
1946.96184	3729.675
1950.05358	3732.275
1953.14331	3722.475
1956.23103	3703.275
1959.31675	3687.175
1962.40046	3668.575
1965.48217	3667.375
1968.56188	3641.775
1971.63959	3651.075
1974.7153	3634.875
1977.78901	3621.275
1980.86073	3610.975
1983.93046	3597.275
1986.99819	3603.075
1990.06394	3581.075
1993.1277	3572.075
1996.18947	3557.375
1999.24925	3546.075
2002.30706	3544.375
2005.36288	3523.875
2008.41672	3515.075
2011.46859	3526.375
2014.51848	3496.375
2017.56639	3481.775
2020.61233	3482.775
2023.6563	3483.975
2026.6983	3476.675
2029.73833	3467.575
2032.7764	3450.775
2035.8125	3444.375
2038.84664	3438.675
2041.87881	3441.075
2044.90903	3428.375
2047.93729	3421.475
2050.96359	3416.475
2053.98794	3415.475
2057.01034	3414.875
2060.03078	3416.675
2063.04927	3398.675
2066.06582	3400.875
2069.08042	3398.475
2072.09307	3394.575
2075.10378	3379.775
2078.11255	3377.175
2081.11938	3382.275
2084.12426	3368.975
2087.12722	3377.475
2090.12824	3373.175
2093.12732	3369.675
2096.12447	3387.175
2099.11969	3379.975
2102.11299	3376.175
2105.10435	3367.675
2108.09379	3371.175
2111.08131	3363.475
2114.0669	3369.475
2117.05057	3377.875
2120.03233	3366.275
2123.01216	3364.575
2125.99008	3381.175
2128.96609	3391.375
2131.94018	3375.375
2134.91236	3375.275
2137.88263	3380.475
2140.851	3366.175
2143.81746	3376.575
2146.78201	3372.775
2149.74466	3383.875
2152.7054	3365.075
2155.66425	3369.575
2158.6212	3376.375
2161.57625	3373.775
2164.52941	3370.275
2167.48067	3365.775
2170.43004	3361.375
2173.37752	3367.475
2176.32311	3359.775
2179.26681	3358.675
2182.20863	3361.675
2185.14856	3364.375
2188.08661	3357.475
2191.02278	3357.875
2193.95707	3367.475
2196.88948	3357.075
2199.82001	3357.575
2202.74867	3358.175
2205.67545	3366.675
2208.60037	3366.475
2211.52341	3340.075
2214.44458	3332.575
2217.36388	3331.475
2220.28132	3313.075
2223.1969	3307.775
2226.11061	3302.475
2229.02246	3294.175
2231.93245	3289.575
2234.84058	3289.475
2237.74686	3278.375
2240.65128	3278.875
2243.55385	3275.875
2246.45456	3287.375
2249.35343	3268.875
2252.25044	3255.175
2255.14561	3282.175
2258.03893	3265.075
2260.93041	3262.575
2263.82004	3258.975
2266.70783	3242.475
2269.59378	3220.775
2272.4779	3215.175
2275.36017	3216.475
2278.24061	3192.775
2281.11922	3189.875
2283.996	3180.175
2286.87094	3174.975
2289.74405	3172.675
2292.61534	3172.275
2295.4848	3162.175
2298.35243	3176.175
2301.21824	3163.775
2304.08223	3173.175
2306.94439	3192.175
2309.80474	3166.375
2312.66327	3173.475
2315.51999	3165.175
2318.37489	3170.175
2321.22797	3177.175
2324.07925	3150.275
2326.92871	3159.175
2329.77637	3149.875
2332.62222	3142.775
2335.46626	3153.375
2338.3085	3128.475
2341.14893	3153.775
2343.98756	3149.375
2346.8244	3158.175
2349.65943	3142.375
2352.49267	3152.075
2355.32411	3146.275
2358.15376	3138.775
2360.98161	3132.075
2363.80768	3133.075
2366.63195	3133.475
2369.45444	3113.675
2372.27514	3109.175
2375.09405	3122.975
2377.91118	3108.575
2380.72652	3107.375
2383.54009	3094.175
2386.35187	3082.775
2389.16188	3079.275
2391.97011	3071.975
2394.77657	3062.475
2397.58125	3069.175
2400.38416	3053.875
2403.18529	3045.175
2405.98466	3046.775
2408.78226	3042.575
2411.57809	3027.775
2414.37216	3036.975
2417.16446	3030.275
2419.955	3012.275
2422.74378	3018.075
2425.5308	3019.475
2428.31606	3012.175
2431.09956	3010.075
2433.88131	2998.475
2436.6613	3009.775
2439.43954	3010.575
2442.21603	2988.175
2444.99077	3001.275
2447.76377	2987.275
2450.53501	2996.975
2453.30451	2996.675
2456.07226	2982.375
2458.83827	2977.175
2461.60254	2980.175
2464.36507	2962.475
2467.12586	2966.975
2469.88492	2967.475
2472.64224	2974.475
2475.39782	2964.575
2478.15167	2974.175
2480.90379	2980.175
2483.65417	2973.875
2486.40283	2972.875
2489.14976	2980.775
2491.89497	2979.675
2494.63845	2981.175
2497.3802	2981.975
2500.12024	2972.275
2502.85855	2952.875
2505.59514	2956.975
2508.33002	2948.775
2511.06318	2955.375
2513.79462	2940.875
2516.52435	2948.575
2519.25237	2938.575
2521.97867	2947.175
2524.70327	2944.975
2527.42616	2931.575
2530.14734	2941.975
2532.86681	2937.875
2535.58458	2947.575
2538.30065	2930.475
2541.01501	2928.375
2543.72768	2938.575
2546.43864	2935.075
2549.14791	2928.375
2551.85548	2927.175
2554.56136	2925.475
2557.26554	2914.275
2559.96803	2910.775
2562.66883	2900.975
2565.36794	2898.475
2568.06536	2888.475
2570.7611	2876.775
2573.45514	2881.575
2576.14751	2891.175
2578.83819	2877.975
2581.52719	2874.175
2584.21451	2867.975
2586.90015	2862.175
2589.58411	2857.675
2592.2664	2872.775
2594.94701	2856.275
2597.62594	2866.875
2600.30321	2853.075
2602.9788	2857.575
2605.65273	2862.675
2608.32498	2861.675
2610.99557	2858.375
2613.66449	2866.575
2616.33175	2847.975
2618.99734	2858.875
2621.66128	2853.475
2624.32355	2849.475
2626.98416	2862.075
2629.64311	2858.875
2632.30041	2854.475
2634.95605	2864.575
2637.61004	2843.775
2640.26238	2836.275
2642.91306	2844.075
2645.56209	2817.875
2648.20948	2825.375
2650.85521	2840.675
2653.4993	2829.575
2656.14175	2829.875
2658.78255	2838.175
2661.42171	2838.075
2664.05923	2854.275
2666.6951	2856.875
2669.32934	2857.275
2671.96194	2848.375
2674.59291	2845.575
2677.22224	2853.175
2679.84993	2854.875
2682.476	2845.075
2685.10043	2833.575
2687.72324	2841.875
2690.34441	2848.175
2692.96396	2843.775
2695.58188	2841.775
2698.19818	2835.875
2700.81285	2851.275
2703.4259	2834.975
2706.03733	2836.275
2708.64714	2833.275
2711.25533	2821.675
2713.86191	2835.275
2716.46687	2832.675
2719.07021	2824.275
2721.67194	2833.575
2724.27206	2840.675
2726.87057	2842.375
2729.46747	2840.475
2732.06276	2846.575
2734.65644	2831.475
2737.24852	2835.675
2739.83899	2829.575
2742.42786	2837.675
2745.01513	2829.075
2747.60079	2843.475
2750.18486	2831.275
2752.76733	2830.375
2755.3482	2822.275
2757.92747	2813.375
2760.50515	2818.575
2763.08123	2817.275
2765.65573	2801.175
2768.22863	2815.875
2770.79994	2806.075
2773.36967	2813.175
2775.9378	2798.475
2778.50435	2815.075
2781.06932	2816.575
2783.6327	2824.675
2786.1945	2806.475
2788.75471	2799.275
2791.31335	2791.175
2793.87041	2791.975
2796.42589	2786.475
2798.97979	2789.475
2801.53212	2773.675
2804.08288	2773.375
2806.63206	2767.275
2809.17967	2768.175
2811.72571	2753.375
2814.27018	2761.875
2816.81308	2751.975
2819.35442	2757.075
2821.89419	2740.375
2824.43239	2735.775
2826.96904	2730.875
2829.50412	2750.175
2832.03763	2727.175
2834.56959	2722.475
2837.1	2720.875
2839.62884	2717.375
2842.15613	2718.375
2844.68186	2716.775
2847.20604	2724.975
2849.72867	2714.175
2852.24974	2713.075
2854.76927	2699.775
2857.28724	2692.975
2859.80367	2689.275
2862.31855	2676.175
2864.83189	2675.175
2867.34368	2670.575
2869.85393	2678.475
2872.36264	2665.175
2874.8698	2681.375
2877.37543	2659.475
2879.87952	2653.175
2882.38207	2647.475
2884.88308	2655.875
2887.38256	2656.475
2889.88051	2646.175
2892.37692	2643.575
2894.8718	2643.175
2897.36515	2660.475
2899.85698	2655.075
2902.34727	2662.275
2904.83604	2645.075
2907.32328	2642.475
2909.809	2650.875
2912.29319	2660.575
2914.77587	2652.475
2917.25702	2654.475
2919.73665	2660.675
2922.21476	2660.775
2924.69136	2650.275
2927.16644	2652.075
2929.64	2646.975
2932.11205	2643.675
2934.58258	2629.875
2937.05161	2640.875
2939.51912	2630.075
2941.98513	2621.975
2944.44962	2631.075
2946.91261	2628.975
2949.37409	2624.075
2951.83407	2620.875
2954.29254	2617.975
2956.74951	2616.675
2959.20498	2598.075
2961.65895	2607.075
2964.11142	2600.575
2966.56239	2611.375
2969.01186	2601.875
2971.45984	2600.275
2973.90632	2583.775
2976.35131	2584.775
2978.7948	2578.075
2981.23681	2563.875
2983.67732	2565.075
2986.11635	2554.175
2988.55388	2551.475
2990.98993	2540.975
2993.4245	2539.075
2995.85758	2530.975
2998.28917	2526.475
3000.71928	2514.075
3003.14791	2516.575
3005.57506	2511.175
3008.00073	2494.075
3010.42493	2493.775
3012.84764	2480.575
3015.26888	2470.675
3017.68865	2464.975
3020.10694	2467.575
3022.52376	2473.075
3024.9391	2462.975
3027.35298	2449.075
3029.76539	2437.575
3032.17632	2448.275
3034.5858	2444.575
3036.9938	2434.475
3039.40034	2419.775
3041.80542	2418.775
3044.20903	2417.675
3046.61118	2418.875
3049.01187	2394.575
3051.4111	2403.875
3053.80888	2409.475
3056.20519	2393.575
3058.60005	2374.875
3060.99345	2377.375
3063.3854	2374.775
3065.7759	2365.475
3068.16494	2354.475
3070.55254	2348.075
3072.93868	2338.275
3075.32338	2337.275
3077.70662	2317.075
3080.08842	2312.975
3082.46878	2304.375
3084.84769	2310.875
3087.22515	2291.975
3089.60118	2306.375
3091.97576	2301.475
3094.3489	2298.575
3096.72061	2294.675
3099.09087	2287.075
3101.4597	2281.475
3103.82709	2276.075
3106.19305	2279.575
3108.55757	2275.175
3110.92066	2276.375
3113.28232	2275.075
3115.64255	2258.675
3118.00134	2245.975
3120.35871	2250.675
3122.71466	2248.775
3125.06917	2243.575
3127.42226	2233.675
3129.77393	2227.775
3132.12417	2226.975
3134.47299	2237.275
3136.82039	2230.775
3139.16636	2219.775
3141.51092	2219.375
3143.85406	2216.875
3146.19579	2219.175
3148.53609	2212.675
3150.87499	2212.875
3153.21246	2211.475
3155.54853	2200.575
3157.88318	2205.275
3160.21642	2212.875
3162.54826	2200.375
3164.87868	2198.975
3167.2077	2194.375
3169.5353	2196.675
3171.86151	2190.475
3174.18631	2176.375
3176.5097	2189.675
3178.83169	2176.675
3181.15228	2169.075
3183.47147	2172.075
3185.78926	2166.975
3188.10565	2161.775
3190.42065	2153.275
3192.73424	2149.375
3195.04645	2145.675
3197.35725	2144.275
3199.66667	2142.475
3201.97469	2138.575
3204.28132	2136.875
3206.58656	2136.675
3208.8904	2137.275
3211.19287	2144.175
3213.49394	2150.675
3215.79363	2137.975
3218.09193	2135.275
3220.38884	2129.375
3222.68438	2137.675
3224.97853	2124.075
3227.2713	2138.475
3229.56269	2125.675
3231.8527	2127.375
3234.14133	2116.275
3236.42858	2111.775
3238.71446	2108.575
3240.99896	2109.975
3243.28209	2101.575
3245.56384	2101.975
3247.84423	2088.175
3250.12324	2094.975
3252.40088	2100.275
3254.67715	2091.775
3256.95205	2087.375
3259.22558	2072.375
3261.49775	2084.475
3263.76855	2076.075
3266.03799	2081.175
3268.30606	2073.975
3270.57277	2081.875
3272.83812	2063.175
3275.10211	2066.275
3277.36474	2050.975
3279.62601	2067.575
3281.88593	2046.975
3284.14448	2045.075
3286.40168	2052.675
3288.65753	2038.075
3290.91202	2028.475
3293.16516	2036.075
3295.41695	2033.375
3297.66738	2022.275
3299.91647	2005.075
3302.16421	1994.975
3304.4106	1999.675
3306.65564	1970.675
3308.89933	1952.075
3311.14169	1938.075
3313.38269	1926.575
3315.62236	1908.775
3317.86068	1892.375
3320.09766	1863.375
3322.3333	1856.875
3324.5676	1854.575
3326.80056	1827.775
3329.03219	1801.475
3331.26248	1.475
3333.49143	-1.925
3335.71905	-0.725
