Data from AgNPs_UA_20uM_CRN_500uM_SU_RamanShift__71__13-48-20-305.txt Node

Date: Thu Aug 04 13:48:20 BST 2022
User: TCL
Spectrometer: QEP01345
Trigger mode: 4
Integration Time (sec): 1.000000E0
Scans to average: 10
Electric dark correction enabled: true
Nonlinearity correction enabled: false
Boxcar width: 0
XAxis mode: Raman Shifts
Number of Pixels in Spectrum: 1044
>>>>>Begin Spectral Data<<<<<
46.04893	-2.8125
50.45542	0.5875
54.85868	0.2875
59.25871	-0.8125
63.6555	12.5875
68.04907	10.2875
72.43941	14.2875
76.82654	10.3875
81.21044	12.1875
85.59113	14.0875
89.96862	13.6875
94.34289	12.3875
98.71396	14.7875
103.08183	15.0875
107.4465	13.9875
111.80798	15.4875
116.16626	17.6875
120.52136	17.6875
124.87327	15.4875
129.222	19.5875
133.56755	18.8875
137.90993	19.5875
142.24913	22.8875
146.58517	25.2875
150.91804	28.3875
155.24774	35.3875
159.57429	44.8875
163.89768	56.5875
168.21792	72.9875
172.53501	98.9875
176.84895	138.5875
181.15975	197.3875
185.46741	275.7875
189.77193	381.5875
194.07331	518.8875
198.37157	662.1875
202.6667	817.4875
206.9587	977.5875
211.24758	1131.5875
215.53334	1284.0875
219.81599	1456.0875
224.09553	1635.3875
228.37195	1837.7875
232.64527	2045.0875
236.91549	2273.5875
241.18261	2472.4875
245.44663	2652.4875
249.70755	2800.3875
253.96539	2928.2875
258.22014	3032.5875
262.4718	3138.5875
266.72039	3204.1875
270.96589	3246.5875
275.20832	3245.3875
279.44768	3184.6875
283.68397	3139.6875
287.91719	3105.1875
292.14735	3098.2875
296.37445	3139.5875
300.59849	3205.7875
304.81948	3307.6875
309.03742	3394.3875
313.25231	3415.5875
317.46415	3370.3875
321.67296	3276.9875
325.87872	3170.5875
330.08145	3127.0875
334.28114	3137.9875
338.47781	3185.7875
342.67145	3252.1875
346.86207	3331.9875
351.04966	3433.2875
355.23424	3561.1875
359.4158	3648.3875
363.59435	3718.3875
367.76989	3751.0875
371.94243	3767.8875
376.11196	3774.5875
380.27849	3816.6875
384.44203	3805.8875
388.60257	3843.8875
392.76012	3867.3875
396.91468	3919.2875
401.06626	3979.3875
405.21485	4029.3875
409.36047	3988.5875
413.50311	3896.3875
417.64277	3781.4875
421.77947	3705.2875
425.9132	3690.7875
430.04396	3724.4875
434.17176	3769.9875
438.2966	3881.4875
442.41849	4008.3875
446.53742	4179.4875
450.6534	4350.6875
454.76644	4410.4875
458.87653	4434.8875
462.98368	4363.7875
467.08789	4249.7875
471.18916	4119.7875
475.2875	3975.4875
479.38291	3858.0875
483.4754	3781.0875
487.56496	3741.3875
491.6516	3684.7875
495.73531	3666.2875
499.81612	3663.1875
503.89401	3693.7875
507.96899	3721.4875
512.04106	3762.5875
516.11023	3791.7875
520.1765	3840.5875
524.23987	3855.1875
528.30034	3862.5875
532.35792	3849.0875
536.41261	3778.5875
540.46441	3738.1875
544.51333	3708.8875
548.55936	3747.3875
552.60252	3806.9875
556.64279	3829.6875
560.6802	3876.9875
564.71473	3890.6875
568.7464	3925.8875
572.7752	3938.1875
576.80114	3902.7875
580.82422	3877.8875
584.84444	3925.3875
588.86181	4047.3875
592.87633	4215.8875
596.888	4352.2875
600.89682	4478.5875
604.9028	4884.3875
608.90594	5730.8875
612.90624	6466.8875
616.90371	5882.6875
620.89834	4676.2875
624.89015	4198.0875
628.87913	4111.0875
632.86528	4096.7875
636.84862	4070.4875
640.82913	3984.6875
644.80683	3853.2875
648.78172	3791.7875
652.75379	3830.7875
656.72306	3955.3875
660.68952	4075.7875
664.65319	4040.1875
668.61405	3955.7875
672.57211	3935.6875
676.52738	3937.6875
680.47986	3894.9875
684.42955	3849.9875
688.37646	3840.7875
692.32058	3864.3875
696.26192	3927.8875
700.20048	3994.4875
704.13626	3995.4875
708.06928	3952.6875
711.99952	3906.0875
715.927	3911.7875
719.85171	3931.3875
723.77365	3940.3875
727.69284	3897.4875
731.60928	3881.8875
735.52295	3884.8875
739.43388	3920.8875
743.34206	3941.5875
747.24749	3980.7875
751.15017	3988.3875
755.05012	4033.0875
758.94733	4171.1875
762.8418	4477.8875
766.73354	4966.5875
770.62254	5389.3875
774.50882	5528.4875
778.39237	5290.5875
782.27321	4819.0875
786.15132	4391.2875
790.02671	4122.5875
793.89938	4020.3875
797.76935	3967.5875
801.6366	3935.8875
805.50115	3925.1875
809.36299	3918.8875
813.22213	3903.6875
817.07857	3904.9875
820.93231	3890.4875
824.78336	3909.0875
828.63172	3925.7875
832.47738	3926.8875
836.32036	3938.9875
840.16066	3934.9875
843.99827	3940.2875
847.8332	3931.2875
851.66546	3943.3875
855.49504	3945.0875
859.32195	3937.5875
863.1462	3947.0875
866.96777	3918.9875
870.78668	3915.3875
874.60293	3923.1875
878.41652	3939.4875
882.22745	3967.1875
886.03573	3978.8875
889.84136	3978.2875
893.64433	3944.1875
897.44466	3952.0875
901.24235	3943.0875
905.0374	3934.8875
908.8298	3904.1875
912.61957	3912.3875
916.40671	3944.9875
920.19121	3959.9875
923.97308	3994.5875
927.75233	4035.2875
931.52895	4040.4875
935.30295	4010.6875
939.07433	3956.7875
942.84309	3892.2875
946.60924	3884.5875
950.37278	3877.8875
954.13371	3852.1875
957.89203	3833.6875
961.64774	3821.1875
965.40086	3823.4875
969.15137	3815.5875
972.89929	3800.7875
976.64461	3816.2875
980.38733	3826.2875
984.12747	3834.6875
987.86502	3867.1875
991.59999	3910.2875
995.33237	3988.0875
999.06217	4105.2875
1002.78939	4220.6875
1006.51404	4282.3875
1010.23611	4320.7875
1013.95561	4381.2875
1017.67255	4431.5875
1021.38692	4401.9875
1025.09872	4337.4875
1028.80796	4313.6875
1032.51465	4366.7875
1036.21877	4415.8875
1039.92035	4412.7875
1043.61937	4377.7875
1047.31584	4315.6875
1051.00976	4280.0875
1054.70114	4249.5875
1058.38998	4251.8875
1062.07627	4281.6875
1065.76003	4299.8875
1069.44126	4345.1875
1073.11995	4398.5875
1076.79611	4424.7875
1080.46974	4464.4875
1084.14085	4505.0875
1087.80943	4574.8875
1091.47549	4575.7875
1095.13903	4506.9875
1098.80005	4423.9875
1102.45857	4362.6875
1106.11456	4350.4875
1109.76805	4368.2875
1113.41903	4421.7875
1117.06751	4511.8875
1120.71348	4594.3875
1124.35696	4707.2875
1127.99793	4779.8875
1131.63641	4725.5875
1135.2724	4610.7875
1138.90589	4502.1875
1142.5369	4421.4875
1146.16542	4373.8875
1149.79145	4322.9875
1153.415	4342.8875
1157.03607	4366.5875
1160.65467	4423.1875
1164.27079	4560.3875
1167.88443	4711.5875
1171.49561	4975.3875
1175.10432	5329.5875
1178.71056	5850.2875
1182.31434	6346.0875
1185.91565	6633.5875
1189.51451	6707.8875
1193.11091	6521.0875
1196.70485	6164.8875
1200.29634	5805.5875
1203.88538	5498.3875
1207.47197	5219.0875
1211.05612	5003.7875
1214.63782	4894.7875
1218.21708	4845.9875
1221.79391	4870.5875
1225.36829	4916.9875
1228.94024	4935.0875
1232.50976	4954.4875
1236.07685	4981.0875
1239.6415	5032.8875
1243.20374	5052.8875
1246.76355	5058.1875
1250.32093	5091.6875
1253.8759	5169.6875
1257.42845	5328.9875
1260.97859	5501.4875
1264.52631	5639.9875
1268.07163	5747.0875
1271.61453	5831.7875
1275.15503	5876.3875
1278.69312	5930.4875
1282.22882	6029.6875
1285.76211	6145.2875
1289.29301	6291.8875
1292.82151	6477.6875
1296.34761	6652.1875
1299.87133	6868.7875
1303.39266	7173.9875
1306.9116	7629.3875
1310.42815	8088.1875
1313.94233	8277.8875
1317.45412	8132.4875
1320.96354	7885.9875
1324.47058	7625.1875
1327.97525	7465.0875
1331.47754	7462.0875
1334.97747	7526.4875
1338.47502	7597.6875
1341.97022	7693.6875
1345.46305	7803.9875
1348.95352	8063.3875
1352.44163	8421.6875
1355.92738	8937.6875
1359.41078	9546.3875
1362.89183	9982.2875
1366.37053	9515.7875
1369.84688	8335.4875
1373.32088	7226.3875
1376.79254	6617.1875
1380.26186	6372.3875
1383.72883	6253.7875
1387.19347	6117.6875
1390.65578	5867.1875
1394.11575	5649.2875
1397.57339	5508.9875
1401.0287	5519.1875
1404.48168	5610.6875
1407.93234	5775.3875
1411.38068	5942.5875
1414.82669	6000.0875
1418.27039	5941.4875
1421.71177	5856.3875
1425.15083	5828.0875
1428.58758	5879.0875
1432.02203	5978.7875
1435.45416	6066.7875
1438.88399	6089.0875
1442.31151	6010.5875
1445.73673	5961.2875
1449.15965	5903.0875
1452.58027	5809.6875
1455.9986	5722.4875
1459.41463	5686.8875
1462.82837	5728.2875
1466.23982	5825.6875
1469.64898	5920.5875
1473.05586	6006.5875
1476.46045	6093.9875
1479.86276	6156.1875
1483.26279	6206.3875
1486.66054	6308.0875
1490.05602	6444.0875
1493.44922	6677.3875
1496.84016	6986.7875
1500.22882	7423.5875
1503.61521	7943.4875
1506.99934	8408.8875
1510.38121	8692.9875
1513.76081	8549.5875
1517.13816	8008.3875
1520.51324	7360.1875
1523.88607	6867.8875
1527.25665	6643.0875
1530.62498	6522.3875
1533.99105	6480.5875
1537.35488	6423.9875
1540.71647	6352.4875
1544.07581	6257.6875
1547.4329	6141.7875
1550.78776	6027.3875
1554.14038	5913.7875
1557.49077	5859.6875
1560.83892	5854.2875
1564.18484	5903.1875
1567.52853	5967.5875
1570.86999	6047.4875
1574.20922	6067.1875
1577.54624	5992.2875
1580.88103	5797.6875
1584.2136	5603.6875
1587.54395	5572.8875
1590.87208	5757.7875
1594.19801	6158.2875
1597.52172	6671.4875
1600.84321	7035.1875
1604.16251	7005.3875
1607.47959	6671.7875
1610.79447	6203.2875
1614.10715	5679.7875
1617.41763	5311.9875
1620.7259	5056.7875
1624.03199	4944.3875
1627.33587	4927.6875
1630.63757	5053.9875
1633.93707	5325.3875
1637.23439	5757.4875
1640.52951	6344.4875
1643.82246	7051.6875
1647.11321	7558.1875
1650.40179	7520.8875
1653.68819	6889.0875
1656.97241	5974.9875
1660.25446	5181.8875
1663.53433	4678.4875
1666.81203	4369.3875
1670.08756	4203.5875
1673.36092	4075.5875
1676.63211	4011.1875
1679.90115	3944.6875
1683.16801	3898.5875
1686.43272	3883.4875
1689.69527	3842.9875
1692.95567	3835.5875
1696.2139	3832.0875
1699.46999	3807.5875
1702.72392	3793.3875
1705.97571	3789.7875
1709.22535	3799.5875
1712.47284	3803.7875
1715.71819	3786.1875
1718.96139	3784.0875
1722.20246	3785.3875
1725.44139	3766.3875
1728.67818	3752.9875
1731.91284	3719.7875
1735.14537	3701.5875
1738.37576	3683.0875
1741.60403	3679.6875
1744.83017	3680.2875
1748.05418	3659.0875
1751.27607	3662.6875
1754.49584	3643.5875
1757.71349	3641.9875
1760.92903	3632.1875
1764.14244	3617.0875
1767.35375	3618.4875
1770.56294	3615.2875
1773.77002	3621.2875
1776.97499	3627.8875
1780.17785	3608.1875
1783.37861	3601.1875
1786.57727	3581.2875
1789.77382	3576.3875
1792.96828	3594.0875
1796.16064	3575.1875
1799.3509	3579.3875
1802.53907	3588.0875
1805.72514	3570.8875
1808.90913	3573.6875
1812.09102	3556.0875
1815.27083	3537.2875
1818.44856	3524.7875
1821.6242	3526.0875
1824.79776	3518.1875
1827.96924	3529.9875
1831.13864	3524.4875
1834.30597	3513.5875
1837.47122	3508.3875
1840.6344	3509.8875
1843.7955	3493.5875
1846.95454	3485.7875
1850.11151	3492.4875
1853.26642	3487.3875
1856.41926	3482.1875
1859.57004	3494.9875
1862.71876	3500.3875
1865.86542	3499.6875
1869.01003	3498.7875
1872.15258	3474.8875
1875.29308	3486.5875
1878.43152	3484.9875
1881.56792	3463.6875
1884.70227	3460.9875
1887.83457	3464.4875
1890.96482	3484.5875
1894.09304	3464.5875
1897.21921	3445.3875
1900.34335	3456.2875
1903.46544	3445.0875
1906.58551	3457.4875
1909.70353	3448.1875
1912.81953	3448.7875
1915.93349	3450.5875
1919.04543	3434.4875
1922.15534	3429.4875
1925.26322	3423.0875
1928.36908	3423.3875
1931.47292	3417.0875
1934.57473	3423.0875
1937.67453	3408.8875
1940.77232	3415.0875
1943.86808	3402.5875
1946.96184	3382.9875
1950.05358	3381.3875
1953.14331	3369.6875
1956.23103	3353.3875
1959.31675	3341.1875
1962.40046	3330.1875
1965.48217	3311.3875
1968.56188	3304.7875
1971.63959	3312.2875
1974.7153	3287.6875
1977.78901	3284.8875
1980.86073	3289.9875
1983.93046	3266.7875
1986.99819	3269.1875
1990.06394	3234.2875
1993.1277	3236.5875
1996.18947	3236.5875
1999.24925	3218.7875
2002.30706	3205.5875
2005.36288	3197.3875
2008.41672	3196.7875
2011.46859	3178.8875
2014.51848	3164.0875
2017.56639	3157.0875
2020.61233	3160.8875
2023.6563	3146.9875
2026.6983	3148.8875
2029.73833	3136.1875
2032.7764	3120.4875
2035.8125	3113.9875
2038.84664	3118.9875
2041.87881	3116.5875
2044.90903	3107.1875
2047.93729	3097.8875
2050.96359	3099.3875
2053.98794	3091.1875
2057.01034	3077.6875
2060.03078	3092.4875
2063.04927	3079.1875
2066.06582	3083.7875
2069.08042	3083.1875
2072.09307	3075.1875
2075.10378	3079.5875
2078.11255	3071.0875
2081.11938	3066.9875
2084.12426	3065.7875
2087.12722	3062.1875
2090.12824	3065.7875
2093.12732	3056.9875
2096.12447	3059.5875
2099.11969	3067.2875
2102.11299	3064.4875
2105.10435	3056.9875
2108.09379	3056.2875
2111.08131	3059.6875
2114.0669	3059.4875
2117.05057	3060.8875
2120.03233	3073.7875
2123.01216	3059.4875
2125.99008	3061.0875
2128.96609	3067.1875
2131.94018	3074.2875
2134.91236	3073.4875
2137.88263	3076.5875
2140.851	3068.8875
2143.81746	3068.3875
2146.78201	3060.9875
2149.74466	3070.2875
2152.7054	3044.7875
2155.66425	3060.2875
2158.6212	3064.9875
2161.57625	3067.4875
2164.52941	3049.4875
2167.48067	3059.4875
2170.43004	3050.9875
2173.37752	3040.7875
2176.32311	3051.8875
2179.26681	3060.2875
2182.20863	3049.6875
2185.14856	3062.0875
2188.08661	3053.1875
2191.02278	3048.5875
2193.95707	3054.0875
2196.88948	3044.8875
2199.82001	3051.5875
2202.74867	3047.1875
2205.67545	3063.1875
2208.60037	3043.6875
2211.52341	3052.6875
2214.44458	3044.0875
2217.36388	3022.2875
2220.28132	3024.0875
2223.1969	2990.6875
2226.11061	3001.1875
2229.02246	2995.7875
2231.93245	2990.3875
2234.84058	2979.7875
2237.74686	2974.8875
2240.65128	2983.7875
2243.55385	2988.5875
2246.45456	2986.4875
2249.35343	2975.5875
2252.25044	2961.8875
2255.14561	2966.7875
2258.03893	2951.5875
2260.93041	2959.3875
2263.82004	2965.3875
2266.70783	2942.6875
2269.59378	2935.3875
2272.4779	2928.7875
2275.36017	2913.2875
2278.24061	2904.3875
2281.11922	2907.7875
2283.996	2882.7875
2286.87094	2880.2875
2289.74405	2883.6875
2292.61534	2884.1875
2295.4848	2882.9875
2298.35243	2874.7875
2301.21824	2876.8875
2304.08223	2877.7875
2306.94439	2875.2875
2309.80474	2873.3875
2312.66327	2872.9875
2315.51999	2868.3875
2318.37489	2867.1875
2321.22797	2873.7875
2324.07925	2861.6875
2326.92871	2853.7875
2329.77637	2851.2875
2332.62222	2850.0875
2335.46626	2851.5875
2338.3085	2842.4875
2341.14893	2849.8875
2343.98756	2842.9875
2346.8244	2850.1875
2349.65943	2844.8875
2352.49267	2846.5875
2355.32411	2834.8875
2358.15376	2838.9875
2360.98161	2824.6875
2363.80768	2831.9875
2366.63195	2835.1875
2369.45444	2828.7875
2372.27514	2819.0875
2375.09405	2808.7875
2377.91118	2812.8875
2380.72652	2812.7875
2383.54009	2798.6875
2386.35187	2790.1875
2389.16188	2796.0875
2391.97011	2786.4875
2394.77657	2772.3875
2397.58125	2770.1875
2400.38416	2764.8875
2403.18529	2765.7875
2405.98466	2767.1875
2408.78226	2745.0875
2411.57809	2739.1875
2414.37216	2738.2875
2417.16446	2729.5875
2419.955	2749.4875
2422.74378	2722.2875
2425.5308	2719.8875
2428.31606	2719.0875
2431.09956	2717.2875
2433.88131	2725.7875
2436.6613	2721.7875
2439.43954	2723.0875
2442.21603	2730.5875
2444.99077	2705.4875
2447.76377	2716.6875
2450.53501	2704.6875
2453.30451	2714.2875
2456.07226	2700.2875
2458.83827	2703.1875
2461.60254	2692.4875
2464.36507	2693.1875
2467.12586	2687.2875
2469.88492	2684.9875
2472.64224	2699.4875
2475.39782	2695.5875
2478.15167	2697.0875
2480.90379	2692.2875
2483.65417	2692.3875
2486.40283	2705.2875
2489.14976	2709.0875
2491.89497	2697.6875
2494.63845	2692.0875
2497.3802	2703.0875
2500.12024	2697.7875
2502.85855	2686.9875
2505.59514	2665.3875
2508.33002	2670.7875
2511.06318	2664.2875
2513.79462	2659.3875
2516.52435	2658.8875
2519.25237	2666.9875
2521.97867	2664.8875
2524.70327	2664.7875
2527.42616	2657.7875
2530.14734	2657.8875
2532.86681	2641.5875
2535.58458	2648.7875
2538.30065	2644.9875
2541.01501	2629.7875
2543.72768	2639.8875
2546.43864	2649.1875
2549.14791	2644.0875
2551.85548	2635.6875
2554.56136	2634.4875
2557.26554	2638.6875
2559.96803	2628.1875
2562.66883	2620.1875
2565.36794	2611.7875
2568.06536	2592.9875
2570.7611	2595.4875
2573.45514	2601.2875
2576.14751	2598.1875
2578.83819	2596.9875
2581.52719	2593.0875
2584.21451	2581.3875
2586.90015	2582.8875
2589.58411	2565.4875
2592.2664	2573.2875
2594.94701	2579.0875
2597.62594	2583.7875
2600.30321	2583.5875
2602.9788	2560.0875
2605.65273	2570.6875
2608.32498	2572.0875
2610.99557	2563.8875
2613.66449	2564.2875
2616.33175	2561.0875
2618.99734	2555.6875
2621.66128	2547.0875
2624.32355	2560.2875
2626.98416	2557.3875
2629.64311	2562.7875
2632.30041	2556.8875
2634.95605	2563.0875
2637.61004	2543.4875
2640.26238	2543.6875
2642.91306	2538.0875
2645.56209	2544.4875
2648.20948	2526.7875
2650.85521	2541.3875
2653.4993	2544.3875
2656.14175	2542.0875
2658.78255	2537.0875
2661.42171	2539.8875
2664.05923	2550.2875
2666.6951	2551.1875
2669.32934	2552.5875
2671.96194	2541.0875
2674.59291	2546.2875
2677.22224	2543.7875
2679.84993	2546.0875
2682.476	2550.8875
2685.10043	2541.0875
2687.72324	2541.3875
2690.34441	2546.6875
2692.96396	2541.7875
2695.58188	2536.9875
2698.19818	2540.5875
2700.81285	2534.0875
2703.4259	2529.2875
2706.03733	2544.6875
2708.64714	2539.8875
2711.25533	2538.1875
2713.86191	2531.7875
2716.46687	2545.2875
2719.07021	2543.5875
2721.67194	2547.6875
2724.27206	2542.4875
2726.87057	2537.9875
2729.46747	2536.1875
2732.06276	2537.7875
2734.65644	2533.6875
2737.24852	2535.9875
2739.83899	2541.0875
2742.42786	2540.5875
2745.01513	2533.2875
2747.60079	2531.5875
2750.18486	2522.3875
2752.76733	2520.7875
2755.3482	2528.3875
2757.92747	2516.5875
2760.50515	2515.7875
2763.08123	2514.0875
2765.65573	2514.1875
2768.22863	2506.6875
2770.79994	2513.2875
2773.36967	2505.5875
2775.9378	2518.7875
2778.50435	2497.6875
2781.06932	2498.6875
2783.6327	2510.2875
2786.1945	2512.5875
2788.75471	2489.5875
2791.31335	2485.7875
2793.87041	2482.9875
2796.42589	2486.0875
2798.97979	2480.9875
2801.53212	2476.8875
2804.08288	2480.0875
2806.63206	2482.6875
2809.17967	2474.3875
2811.72571	2453.6875
2814.27018	2460.2875
2816.81308	2457.0875
2819.35442	2448.5875
2821.89419	2444.8875
2824.43239	2442.0875
2826.96904	2436.9875
2829.50412	2440.5875
2832.03763	2438.9875
2834.56959	2437.3875
2837.1	2424.4875
2839.62884	2425.9875
2842.15613	2422.5875
2844.68186	2429.5875
2847.20604	2422.5875
2849.72867	2426.5875
2852.24974	2412.4875
2854.76927	2420.9875
2857.28724	2403.2875
2859.80367	2396.9875
2862.31855	2388.5875
2864.83189	2396.8875
2867.34368	2397.9875
2869.85393	2396.0875
2872.36264	2390.0875
2874.8698	2380.9875
2877.37543	2384.7875
2879.87952	2387.4875
2882.38207	2369.1875
2884.88308	2370.4875
2887.38256	2373.4875
2889.88051	2365.7875
2892.37692	2374.8875
2894.8718	2360.3875
2897.36515	2364.1875
2899.85698	2372.3875
2902.34727	2371.8875
2904.83604	2347.7875
2907.32328	2370.4875
2909.809	2372.0875
2912.29319	2381.8875
2914.77587	2371.7875
2917.25702	2373.3875
2919.73665	2380.0875
2922.21476	2380.5875
2924.69136	2374.2875
2927.16644	2376.9875
2929.64	2367.8875
2932.11205	2363.0875
2934.58258	2351.5875
2937.05161	2362.8875
2939.51912	2348.0875
2941.98513	2362.5875
2944.44962	2360.5875
2946.91261	2342.6875
2949.37409	2344.6875
2951.83407	2346.0875
2954.29254	2343.2875
2956.74951	2341.4875
2959.20498	2330.0875
2961.65895	2319.3875
2964.11142	2322.1875
2966.56239	2316.2875
2969.01186	2328.3875
2971.45984	2321.8875
2973.90632	2329.3875
2976.35131	2315.5875
2978.7948	2310.1875
2981.23681	2307.0875
2983.67732	2294.0875
2986.11635	2296.3875
2988.55388	2286.1875
2990.98993	2270.3875
2993.4245	2281.5875
2995.85758	2287.3875
2998.28917	2263.0875
3000.71928	2257.3875
3003.14791	2257.1875
3005.57506	2250.0875
3008.00073	2247.9875
3010.42493	2227.9875
3012.84764	2225.8875
3015.26888	2223.6875
3017.68865	2226.5875
3020.10694	2220.7875
3022.52376	2215.8875
3024.9391	2209.5875
3027.35298	2202.3875
3029.76539	2194.7875
3032.17632	2198.8875
3034.5858	2187.3875
3036.9938	2191.6875
3039.40034	2176.0875
3041.80542	2174.8875
3044.20903	2171.1875
3046.61118	2177.0875
3049.01187	2162.7875
3051.4111	2160.2875
3053.80888	2160.3875
3056.20519	2156.4875
3058.60005	2145.0875
3060.99345	2137.7875
3063.3854	2138.8875
3065.7759	2133.1875
3068.16494	2129.6875
3070.55254	2121.8875
3072.93868	2113.0875
3075.32338	2105.8875
3077.70662	2098.9875
3080.08842	2085.0875
3082.46878	2081.7875
3084.84769	2073.3875
3087.22515	2070.4875
3089.60118	2081.6875
3091.97576	2067.7875
3094.3489	2079.1875
3096.72061	2069.9875
3099.09087	2069.9875
3101.4597	2076.0875
3103.82709	2079.0875
3106.19305	2054.1875
3108.55757	2057.4875
3110.92066	2054.6875
3113.28232	2048.8875
3115.64255	2045.2875
3118.00134	2042.4875
3120.35871	2028.7875
3122.71466	2036.3875
3125.06917	2032.0875
3127.42226	2026.9875
3129.77393	2020.9875
3132.12417	2018.5875
3134.47299	2011.2875
3136.82039	2002.9875
3139.16636	2002.0875
3141.51092	1999.0875
3143.85406	2006.3875
3146.19579	1998.8875
3148.53609	2013.6875
3150.87499	2006.1875
3153.21246	2007.3875
3155.54853	2009.5875
3157.88318	2004.9875
3160.21642	2007.3875
3162.54826	2003.2875
3164.87868	1988.5875
3167.2077	1998.6875
3169.5353	1989.9875
3171.86151	1997.8875
3174.18631	1991.3875
3176.5097	1988.5875
3178.83169	1981.2875
3181.15228	1981.8875
3183.47147	1966.1875
3185.78926	1962.1875
3188.10565	1955.6875
3190.42065	1955.5875
3192.73424	1952.7875
3195.04645	1954.8875
3197.35725	1944.0875
3199.66667	1940.4875
3201.97469	1945.1875
3204.28132	1936.0875
3206.58656	1939.2875
3208.8904	1945.3875
3211.19287	1942.7875
3213.49394	1964.6875
3215.79363	1947.7875
3218.09193	1946.9875
3220.38884	1934.2875
3222.68438	1944.5875
3224.97853	1944.6875
3227.2713	1942.5875
3229.56269	1934.6875
3231.8527	1936.8875
3234.14133	1936.0875
3236.42858	1914.2875
3238.71446	1928.1875
3240.99896	1914.8875
3243.28209	1923.4875
3245.56384	1924.8875
3247.84423	1913.7875
3250.12324	1908.4875
3252.40088	1891.6875
3254.67715	1905.8875
3256.95205	1897.5875
3259.22558	1896.1875
3261.49775	1896.7875
3263.76855	1894.1875
3266.03799	1900.2875
3268.30606	1887.7875
3270.57277	1896.2875
3272.83812	1891.7875
3275.10211	1865.8875
3277.36474	1872.9875
3279.62601	1871.3875
3281.88593	1867.4875
3284.14448	1870.9875
3286.40168	1861.1875
3288.65753	1868.7875
3290.91202	1859.4875
3293.16516	1850.3875
3295.41695	1848.0875
3297.66738	1837.9875
3299.91647	1829.6875
3302.16421	1819.3875
3304.4106	1817.8875
3306.65564	1794.6875
3308.89933	1792.2875
3311.14169	1777.5875
3313.38269	1762.7875
3315.62236	1752.5875
3317.86068	1736.2875
3320.09766	1716.1875
3322.3333	1702.0875
3324.5676	1688.0875
3326.80056	1662.5875
3329.03219	1648.8875
3331.26248	1.6875
3333.49143	1.0875
3335.71905	-0.8125
