Data from AgNPs_UA_5uM_CRN_500uM_SU_RamanShift__86__11-43-43-156.txt Node

Date: Thu Aug 04 11:43:43 BST 2022
User: TCL
Spectrometer: QEP01345
Trigger mode: 4
Integration Time (sec): 1.000000E0
Scans to average: 10
Electric dark correction enabled: true
Nonlinearity correction enabled: false
Boxcar width: 0
XAxis mode: Raman Shifts
Number of Pixels in Spectrum: 1044
>>>>>Begin Spectral Data<<<<<
46.04893	-0.3875
50.45542	-1.4875
54.85868	1.2125
59.25871	-1.2875
63.6555	-63.6875
68.04907	-44.7875
72.43941	-77.8875
76.82654	-63.1875
81.21044	-63.6875
85.59113	-55.6875
89.96862	-82.4875
94.34289	-62.7875
98.71396	-84.5875
103.08183	-64.3875
107.4465	-58.5875
111.80798	-63.4875
116.16626	-52.4875
120.52136	-84.2875
124.87327	-61.3875
129.222	-75.1875
133.56755	-61.8875
137.90993	-74.5875
142.24913	-64.8875
146.58517	-61.8875
150.91804	-62.8875
155.24774	-56.5875
159.57429	-43.2875
163.89768	-51.7875
168.21792	-24.7875
172.53501	-31.2875
176.84895	14.5125
181.15975	88.5125
185.46741	158.0125
189.77193	234.4125
194.07331	394.7125
198.37157	529.1125
202.6667	657.2125
206.9587	812.8125
211.24758	966.6125
215.53334	1113.3125
219.81599	1263.2125
224.09553	1444.4125
228.37195	1637.5125
232.64527	1826.1125
236.91549	2059.4125
241.18261	2234.6125
245.44663	2412.2125
249.70755	2583.0125
253.96539	2714.1125
258.22014	2837.9125
262.4718	2944.9125
266.72039	3000.0125
270.96589	3019.4125
275.20832	2995.2125
279.44768	2962.4125
283.68397	2909.4125
287.91719	2867.8125
292.14735	2829.9125
296.37445	2862.6125
300.59849	2924.3125
304.81948	2970.5125
309.03742	3048.8125
313.25231	3111.5125
317.46415	3144.3125
321.67296	3025.1125
325.87872	2933.9125
330.08145	2889.5125
334.28114	2894.9125
338.47781	2930.3125
342.67145	2988.7125
346.86207	3077.7125
351.04966	3190.9125
355.23424	3312.6125
359.4158	3417.0125
363.59435	3408.9125
367.76989	3401.8125
371.94243	3369.6125
376.11196	3369.1125
380.27849	3371.9125
384.44203	3372.8125
388.60257	3389.8125
392.76012	3412.4125
396.91468	3476.6125
401.06626	3542.1125
405.21485	3535.5125
409.36047	3530.6125
413.50311	3477.4125
417.64277	3436.3125
421.77947	3399.7125
425.9132	3395.1125
430.04396	3387.7125
434.17176	3428.4125
438.2966	3485.9125
442.41849	3513.3125
446.53742	3546.4125
450.6534	3576.4125
454.76644	3619.5125
458.87653	3653.4125
462.98368	3642.6125
467.08789	3620.9125
471.18916	3635.5125
475.2875	3647.6125
479.38291	3649.2125
483.4754	3625.0125
487.56496	3648.6125
491.6516	3625.9125
495.73531	3644.9125
499.81612	3648.8125
503.89401	3703.7125
507.96899	3720.6125
512.04106	3747.9125
516.11023	3771.8125
520.1765	3795.9125
524.23987	3812.2125
528.30034	3836.8125
532.35792	3817.0125
536.41261	3825.1125
540.46441	3812.3125
544.51333	3810.8125
548.55936	3833.9125
552.60252	3880.0125
556.64279	3903.2125
560.6802	3964.5125
564.71473	4006.8125
568.7464	4079.2125
572.7752	4080.7125
576.80114	3999.8125
580.82422	3957.3125
584.84444	3917.5125
588.86181	3921.5125
592.87633	3946.5125
596.888	3972.2125
600.89682	4081.1125
604.9028	4308.5125
608.90594	4794.0125
612.90624	5366.9125
616.90371	5178.0125
620.89834	4472.3125
624.89015	4198.2125
628.87913	4147.6125
632.86528	4204.4125
636.84862	4254.2125
640.82913	4228.8125
644.80683	4145.7125
648.78172	4128.0125
652.75379	4152.4125
656.72306	4227.7125
660.68952	4293.5125
664.65319	4296.5125
668.61405	4220.7125
672.57211	4218.1125
676.52738	4259.1125
680.47986	4249.5125
684.42955	4234.6125
688.37646	4250.4125
692.32058	4249.6125
696.26192	4259.3125
700.20048	4309.3125
704.13626	4327.3125
708.06928	4324.5125
711.99952	4349.6125
715.927	4327.2125
719.85171	4359.8125
723.77365	4391.2125
727.69284	4372.9125
731.60928	4402.5125
735.52295	4382.0125
739.43388	4414.3125
743.34206	4429.5125
747.24749	4456.1125
751.15017	4482.9125
755.05012	4481.3125
758.94733	4581.4125
762.8418	4771.8125
766.73354	5067.8125
770.62254	5241.6125
774.50882	5215.0125
778.39237	5117.2125
782.27321	4975.7125
786.15132	4779.6125
790.02671	4672.4125
793.89938	4538.8125
797.76935	4560.1125
801.6366	4530.9125
805.50115	4546.3125
809.36299	4531.5125
813.22213	4564.9125
817.07857	4566.6125
820.93231	4561.1125
824.78336	4569.6125
828.63172	4595.4125
832.47738	4584.1125
836.32036	4618.7125
840.16066	4643.7125
843.99827	4621.4125
847.8332	4623.3125
851.66546	4640.0125
855.49504	4627.5125
859.32195	4665.6125
863.1462	4674.4125
866.96777	4683.6125
870.78668	4677.7125
874.60293	4691.9125
878.41652	4701.8125
882.22745	4752.8125
886.03573	4737.3125
889.84136	4738.4125
893.64433	4761.4125
897.44466	4778.3125
901.24235	4769.9125
905.0374	4799.4125
908.8298	4755.2125
912.61957	4743.8125
916.40671	4714.7125
920.19121	4747.3125
923.97308	4799.6125
927.75233	4778.9125
931.52895	4788.4125
935.30295	4828.9125
939.07433	4786.7125
942.84309	4747.8125
946.60924	4739.4125
950.37278	4750.7125
954.13371	4720.9125
957.89203	4722.9125
961.64774	4759.1125
965.40086	4731.1125
969.15137	4728.0125
972.89929	4750.3125
976.64461	4751.2125
980.38733	4758.2125
984.12747	4745.0125
987.86502	4756.1125
991.59999	4769.4125
995.33237	4788.3125
999.06217	4817.1125
1002.78939	4828.1125
1006.51404	4878.3125
1010.23611	4887.6125
1013.95561	4909.6125
1017.67255	4912.4125
1021.38692	4902.6125
1025.09872	4909.6125
1028.80796	4861.7125
1032.51465	4909.6125
1036.21877	4875.0125
1039.92035	4912.0125
1043.61937	4935.9125
1047.31584	4931.3125
1051.00976	4988.6125
1054.70114	4997.3125
1058.38998	4994.3125
1062.07627	4980.1125
1065.76003	4984.5125
1069.44126	5028.5125
1073.11995	5044.3125
1076.79611	5101.1125
1080.46974	5146.5125
1084.14085	5187.8125
1087.80943	5198.1125
1091.47549	5227.9125
1095.13903	5209.8125
1098.80005	5195.4125
1102.45857	5161.1125
1106.11456	5162.7125
1109.76805	5099.4125
1113.41903	5134.9125
1117.06751	5206.7125
1120.71348	5240.6125
1124.35696	5335.0125
1127.99793	5392.9125
1131.63641	5362.3125
1135.2724	5290.1125
1138.90589	5184.5125
1142.5369	5142.8125
1146.16542	5122.5125
1149.79145	5074.3125
1153.415	5090.5125
1157.03607	5069.4125
1160.65467	5078.1125
1164.27079	5122.4125
1167.88443	5164.3125
1171.49561	5281.8125
1175.10432	5398.6125
1178.71056	5609.0125
1182.31434	5790.9125
1185.91565	5814.7125
1189.51451	5748.9125
1193.11091	5672.8125
1196.70485	5630.2125
1200.29634	5587.4125
1203.88538	5523.5125
1207.47197	5433.7125
1211.05612	5333.1125
1214.63782	5276.8125
1218.21708	5248.0125
1221.79391	5244.9125
1225.36829	5215.0125
1228.94024	5203.7125
1232.50976	5206.5125
1236.07685	5227.9125
1239.6415	5245.5125
1243.20374	5263.1125
1246.76355	5288.9125
1250.32093	5313.3125
1253.8759	5341.3125
1257.42845	5405.0125
1260.97859	5447.8125
1264.52631	5515.7125
1268.07163	5535.3125
1271.61453	5556.4125
1275.15503	5554.4125
1278.69312	5530.5125
1282.22882	5543.7125
1285.76211	5604.1125
1289.29301	5642.3125
1292.82151	5696.8125
1296.34761	5739.5125
1299.87133	5812.0125
1303.39266	5947.9125
1306.9116	6204.8125
1310.42815	6497.7125
1313.94233	6637.7125
1317.45412	6440.0125
1320.96354	6193.4125
1324.47058	5955.0125
1327.97525	5735.4125
1331.47754	5651.2125
1334.97747	5609.6125
1338.47502	5601.6125
1341.97022	5702.1125
1345.46305	5851.6125
1348.95352	6094.1125
1352.44163	6315.1125
1355.92738	6515.5125
1359.41078	6871.9125
1362.89183	7239.1125
1366.37053	7147.3125
1369.84688	6539.0125
1373.32088	5966.1125
1376.79254	5704.7125
1380.26186	5537.0125
1383.72883	5430.4125
1387.19347	5322.3125
1390.65578	5212.0125
1394.11575	5177.6125
1397.57339	5139.3125
1401.0287	5127.6125
1404.48168	5118.6125
1407.93234	5127.8125
1411.38068	5128.6125
1414.82669	5135.5125
1418.27039	5186.1125
1421.71177	5180.2125
1425.15083	5147.1125
1428.58758	5141.3125
1432.02203	5161.1125
1435.45416	5184.8125
1438.88399	5158.3125
1442.31151	5099.5125
1445.73673	5115.7125
1449.15965	5100.7125
1452.58027	5093.7125
1455.9986	5093.1125
1459.41463	5082.3125
1462.82837	5117.7125
1466.23982	5149.9125
1469.64898	5188.5125
1473.05586	5182.9125
1476.46045	5215.6125
1479.86276	5225.0125
1483.26279	5247.2125
1486.66054	5332.5125
1490.05602	5401.7125
1493.44922	5525.5125
1496.84016	5686.5125
1500.22882	5970.0125
1503.61521	6311.8125
1506.99934	6722.5125
1510.38121	7088.9125
1513.76081	7229.3125
1517.13816	6927.7125
1520.51324	6439.8125
1523.88607	6010.6125
1527.25665	5733.4125
1530.62498	5555.9125
1533.99105	5498.3125
1537.35488	5441.0125
1540.71647	5429.7125
1544.07581	5420.2125
1547.4329	5439.6125
1550.78776	5427.3125
1554.14038	5413.6125
1557.49077	5439.7125
1560.83892	5503.6125
1564.18484	5597.8125
1567.52853	5659.5125
1570.86999	5763.1125
1574.20922	5752.0125
1577.54624	5740.6125
1580.88103	5615.4125
1584.2136	5434.7125
1587.54395	5408.6125
1590.87208	5385.3125
1594.19801	5420.0125
1597.52172	5497.4125
1600.84321	5515.4125
1604.16251	5478.5125
1607.47959	5405.0125
1610.79447	5377.8125
1614.10715	5310.3125
1617.41763	5257.6125
1620.7259	5213.7125
1624.03199	5195.7125
1627.33587	5192.1125
1630.63757	5170.1125
1633.93707	5236.3125
1637.23439	5341.7125
1640.52951	5512.3125
1643.82246	5723.5125
1647.11321	6044.6125
1650.40179	6229.0125
1653.68819	6159.2125
1656.97241	5867.5125
1660.25446	5544.3125
1663.53433	5280.2125
1666.81203	5145.1125
1670.08756	5095.9125
1673.36092	5064.6125
1676.63211	5019.2125
1679.90115	4996.3125
1683.16801	4988.5125
1686.43272	4940.3125
1689.69527	4932.8125
1692.95567	4920.6125
1696.2139	4913.3125
1699.46999	4876.0125
1702.72392	4898.1125
1705.97571	4914.7125
1709.22535	4912.3125
1712.47284	4940.2125
1715.71819	4968.1125
1718.96139	4946.1125
1722.20246	4956.4125
1725.44139	4959.4125
1728.67818	4961.7125
1731.91284	4946.4125
1735.14537	4930.1125
1738.37576	4919.2125
1741.60403	4903.2125
1744.83017	4877.8125
1748.05418	4902.2125
1751.27607	4905.2125
1754.49584	4888.7125
1757.71349	4851.8125
1760.92903	4871.9125
1764.14244	4829.6125
1767.35375	4837.4125
1770.56294	4847.4125
1773.77002	4834.8125
1776.97499	4850.1125
1780.17785	4860.6125
1783.37861	4862.3125
1786.57727	4871.6125
1789.77382	4817.1125
1792.96828	4858.2125
1796.16064	4856.5125
1799.3509	4856.4125
1802.53907	4862.0125
1805.72514	4834.2125
1808.90913	4832.2125
1812.09102	4820.4125
1815.27083	4827.1125
1818.44856	4818.3125
1821.6242	4820.1125
1824.79776	4800.8125
1827.96924	4800.0125
1831.13864	4775.4125
1834.30597	4809.7125
1837.47122	4780.7125
1840.6344	4773.3125
1843.7955	4764.6125
1846.95454	4765.1125
1850.11151	4777.5125
1853.26642	4763.7125
1856.41926	4772.3125
1859.57004	4757.2125
1862.71876	4767.8125
1865.86542	4771.2125
1869.01003	4763.5125
1872.15258	4738.6125
1875.29308	4763.2125
1878.43152	4764.2125
1881.56792	4734.8125
1884.70227	4725.7125
1887.83457	4722.8125
1890.96482	4693.6125
1894.09304	4707.3125
1897.21921	4713.0125
1900.34335	4729.7125
1903.46544	4682.9125
1906.58551	4711.5125
1909.70353	4694.1125
1912.81953	4694.9125
1915.93349	4675.1125
1919.04543	4688.0125
1922.15534	4668.5125
1925.26322	4669.5125
1928.36908	4651.4125
1931.47292	4670.5125
1934.57473	4662.5125
1937.67453	4636.4125
1940.77232	4624.5125
1943.86808	4611.9125
1946.96184	4612.2125
1950.05358	4599.3125
1953.14331	4580.6125
1956.23103	4588.6125
1959.31675	4540.3125
1962.40046	4517.7125
1965.48217	4525.9125
1968.56188	4512.0125
1971.63959	4509.6125
1974.7153	4506.2125
1977.78901	4495.4125
1980.86073	4489.6125
1983.93046	4438.7125
1986.99819	4386.8125
1990.06394	4398.7125
1993.1277	4418.9125
1996.18947	4414.0125
1999.24925	4376.5125
2002.30706	4387.6125
2005.36288	4391.5125
2008.41672	4376.9125
2011.46859	4349.0125
2014.51848	4342.4125
2017.56639	4313.6125
2020.61233	4309.5125
2023.6563	4318.7125
2026.6983	4283.6125
2029.73833	4270.0125
2032.7764	4286.2125
2035.8125	4236.6125
2038.84664	4254.5125
2041.87881	4231.9125
2044.90903	4247.7125
2047.93729	4244.1125
2050.96359	4199.4125
2053.98794	4232.3125
2057.01034	4222.6125
2060.03078	4214.4125
2063.04927	4198.3125
2066.06582	4229.4125
2069.08042	4203.5125
2072.09307	4209.6125
2075.10378	4200.3125
2078.11255	4198.2125
2081.11938	4208.9125
2084.12426	4213.8125
2087.12722	4193.2125
2090.12824	4189.6125
2093.12732	4194.3125
2096.12447	4211.7125
2099.11969	4207.6125
2102.11299	4202.1125
2105.10435	4220.5125
2108.09379	4199.0125
2111.08131	4199.0125
2114.0669	4209.0125
2117.05057	4201.2125
2120.03233	4194.4125
2123.01216	4222.4125
2125.99008	4219.3125
2128.96609	4203.7125
2131.94018	4242.4125
2134.91236	4239.0125
2137.88263	4233.8125
2140.851	4245.6125
2143.81746	4255.7125
2146.78201	4250.8125
2149.74466	4242.6125
2152.7054	4248.4125
2155.66425	4253.2125
2158.6212	4242.8125
2161.57625	4217.8125
2164.52941	4207.0125
2167.48067	4218.4125
2170.43004	4230.8125
2173.37752	4236.2125
2176.32311	4239.7125
2179.26681	4238.9125
2182.20863	4239.6125
2185.14856	4235.1125
2188.08661	4235.8125
2191.02278	4260.9125
2193.95707	4231.8125
2196.88948	4221.4125
2199.82001	4227.0125
2202.74867	4209.8125
2205.67545	4227.4125
2208.60037	4217.0125
2211.52341	4220.1125
2214.44458	4188.2125
2217.36388	4190.5125
2220.28132	4161.0125
2223.1969	4163.0125
2226.11061	4153.0125
2229.02246	4156.6125
2231.93245	4156.2125
2234.84058	4140.3125
2237.74686	4129.0125
2240.65128	4115.8125
2243.55385	4110.7125
2246.45456	4115.9125
2249.35343	4121.1125
2252.25044	4106.8125
2255.14561	4103.3125
2258.03893	4091.2125
2260.93041	4086.4125
2263.82004	4079.7125
2266.70783	4065.5125
2269.59378	4049.4125
2272.4779	4040.7125
2275.36017	4061.1125
2278.24061	4025.7125
2281.11922	3993.8125
2283.996	4015.4125
2286.87094	3996.5125
2289.74405	4012.4125
2292.61534	4008.6125
2295.4848	4005.4125
2298.35243	4002.8125
2301.21824	3998.2125
2304.08223	3986.6125
2306.94439	4005.9125
2309.80474	3986.7125
2312.66327	3992.2125
2315.51999	3954.8125
2318.37489	3961.1125
2321.22797	3950.0125
2324.07925	3941.1125
2326.92871	3953.5125
2329.77637	3918.7125
2332.62222	3932.3125
2335.46626	3907.5125
2338.3085	3903.5125
2341.14893	3913.0125
2343.98756	3921.9125
2346.8244	3874.6125
2349.65943	3873.3125
2352.49267	3879.8125
2355.32411	3885.9125
2358.15376	3871.6125
2360.98161	3880.6125
2363.80768	3841.8125
2366.63195	3861.0125
2369.45444	3861.9125
2372.27514	3852.4125
2375.09405	3868.4125
2377.91118	3826.7125
2380.72652	3820.2125
2383.54009	3822.1125
2386.35187	3833.8125
2389.16188	3809.6125
2391.97011	3815.8125
2394.77657	3810.3125
2397.58125	3808.2125
2400.38416	3812.6125
2403.18529	3772.8125
2405.98466	3768.9125
2408.78226	3773.6125
2411.57809	3756.7125
2414.37216	3754.4125
2417.16446	3764.6125
2419.955	3730.9125
2422.74378	3737.9125
2425.5308	3740.9125
2428.31606	3739.5125
2431.09956	3746.2125
2433.88131	3715.7125
2436.6613	3723.3125
2439.43954	3708.4125
2442.21603	3727.3125
2444.99077	3696.4125
2447.76377	3732.5125
2450.53501	3684.4125
2453.30451	3688.8125
2456.07226	3682.0125
2458.83827	3677.5125
2461.60254	3647.9125
2464.36507	3672.8125
2467.12586	3651.8125
2469.88492	3657.8125
2472.64224	3658.4125
2475.39782	3630.4125
2478.15167	3649.8125
2480.90379	3632.7125
2483.65417	3652.5125
2486.40283	3651.0125
2489.14976	3649.6125
2491.89497	3624.2125
2494.63845	3628.5125
2497.3802	3601.8125
2500.12024	3602.3125
2502.85855	3604.1125
2505.59514	3608.6125
2508.33002	3604.8125
2511.06318	3567.0125
2513.79462	3591.9125
2516.52435	3556.0125
2519.25237	3544.0125
2521.97867	3561.8125
2524.70327	3549.8125
2527.42616	3546.8125
2530.14734	3567.3125
2532.86681	3527.7125
2535.58458	3550.1125
2538.30065	3542.1125
2541.01501	3546.0125
2543.72768	3529.9125
2546.43864	3522.1125
2549.14791	3513.1125
2551.85548	3491.7125
2554.56136	3495.4125
2557.26554	3501.7125
2559.96803	3468.7125
2562.66883	3484.4125
2565.36794	3453.7125
2568.06536	3446.1125
2570.7611	3463.2125
2573.45514	3434.5125
2576.14751	3441.9125
2578.83819	3408.1125
2581.52719	3410.1125
2584.21451	3411.8125
2586.90015	3395.2125
2589.58411	3376.8125
2592.2664	3391.9125
2594.94701	3392.6125
2597.62594	3386.5125
2600.30321	3316.0125
2602.9788	3343.4125
2605.65273	3329.6125
2608.32498	3335.8125
2610.99557	3352.2125
2613.66449	3319.6125
2616.33175	3334.0125
2618.99734	3333.4125
2621.66128	3339.9125
2624.32355	3310.9125
2626.98416	3297.4125
2629.64311	3287.9125
2632.30041	3287.7125
2634.95605	3276.6125
2637.61004	3277.9125
2640.26238	3238.0125
2642.91306	3251.2125
2645.56209	3280.3125
2648.20948	3278.1125
2650.85521	3248.9125
2653.4993	3252.5125
2656.14175	3246.0125
2658.78255	3241.3125
2661.42171	3214.3125
2664.05923	3247.6125
2666.6951	3255.9125
2669.32934	3241.0125
2671.96194	3256.1125
2674.59291	3233.8125
2677.22224	3240.8125
2679.84993	3248.1125
2682.476	3233.3125
2685.10043	3224.5125
2687.72324	3205.1125
2690.34441	3211.3125
2692.96396	3196.9125
2695.58188	3237.3125
2698.19818	3218.8125
2700.81285	3211.8125
2703.4259	3208.3125
2706.03733	3175.2125
2708.64714	3171.0125
2711.25533	3219.6125
2713.86191	3209.6125
2716.46687	3196.6125
2719.07021	3184.9125
2721.67194	3183.2125
2724.27206	3208.6125
2726.87057	3196.8125
2729.46747	3187.5125
2732.06276	3200.2125
2734.65644	3190.6125
2737.24852	3190.4125
2739.83899	3154.4125
2742.42786	3182.2125
2745.01513	3190.3125
2747.60079	3174.0125
2750.18486	3154.4125
2752.76733	3164.9125
2755.3482	3152.8125
2757.92747	3158.3125
2760.50515	3130.6125
2763.08123	3129.0125
2765.65573	3134.1125
2768.22863	3112.7125
2770.79994	3109.2125
2773.36967	3098.5125
2775.9378	3096.8125
2778.50435	3088.2125
2781.06932	3087.9125
2783.6327	3059.6125
2786.1945	3080.5125
2788.75471	3072.8125
2791.31335	3068.3125
2793.87041	3066.6125
2796.42589	3038.2125
2798.97979	3026.9125
2801.53212	3027.9125
2804.08288	3039.1125
2806.63206	3013.5125
2809.17967	2993.3125
2811.72571	3017.5125
2814.27018	3006.4125
2816.81308	2971.4125
2819.35442	2954.8125
2821.89419	2966.1125
2824.43239	2953.2125
2826.96904	2990.2125
2829.50412	2973.1125
2832.03763	2942.7125
2834.56959	2958.9125
2837.1	2949.6125
2839.62884	2949.8125
2842.15613	2934.8125
2844.68186	2957.0125
2847.20604	2926.8125
2849.72867	2912.3125
2852.24974	2911.0125
2854.76927	2890.4125
2857.28724	2843.0125
2859.80367	2892.2125
2862.31855	2904.8125
2864.83189	2885.7125
2867.34368	2888.7125
2869.85393	2897.6125
2872.36264	2859.5125
2874.8698	2871.1125
2877.37543	2864.0125
2879.87952	2867.3125
2882.38207	2849.9125
2884.88308	2854.2125
2887.38256	2851.5125
2889.88051	2872.4125
2892.37692	2849.2125
2894.8718	2845.1125
2897.36515	2861.4125
2899.85698	2843.2125
2902.34727	2836.9125
2904.83604	2830.4125
2907.32328	2846.8125
2909.809	2854.0125
2912.29319	2829.5125
2914.77587	2852.5125
2917.25702	2850.8125
2919.73665	2848.1125
2922.21476	2863.2125
2924.69136	2851.0125
2927.16644	2840.0125
2929.64	2840.6125
2932.11205	2835.8125
2934.58258	2818.3125
2937.05161	2821.2125
2939.51912	2827.7125
2941.98513	2836.6125
2944.44962	2831.2125
2946.91261	2802.1125
2949.37409	2808.4125
2951.83407	2818.7125
2954.29254	2802.2125
2956.74951	2805.5125
2959.20498	2793.6125
2961.65895	2797.2125
2964.11142	2786.0125
2966.56239	2798.8125
2969.01186	2799.4125
2971.45984	2798.9125
2973.90632	2779.9125
2976.35131	2794.5125
2978.7948	2793.0125
2981.23681	2774.9125
2983.67732	2786.4125
2986.11635	2769.5125
2988.55388	2755.6125
2990.98993	2758.4125
2993.4245	2744.4125
2995.85758	2745.3125
2998.28917	2726.7125
3000.71928	2718.4125
3003.14791	2719.4125
3005.57506	2711.8125
3008.00073	2707.9125
3010.42493	2640.2125
3012.84764	2708.7125
3015.26888	2707.6125
3017.68865	2685.9125
3020.10694	2656.6125
3022.52376	2666.8125
3024.9391	2667.9125
3027.35298	2677.7125
3029.76539	2647.7125
3032.17632	2648.9125
3034.5858	2644.0125
3036.9938	2652.5125
3039.40034	2658.2125
3041.80542	2651.7125
3044.20903	2633.2125
3046.61118	2623.7125
3049.01187	2638.2125
3051.4111	2620.9125
3053.80888	2606.6125
3056.20519	2607.3125
3058.60005	2594.2125
3060.99345	2608.7125
3063.3854	2593.0125
3065.7759	2564.6125
3068.16494	2571.5125
3070.55254	2547.8125
3072.93868	2566.4125
3075.32338	2556.8125
3077.70662	2544.0125
3080.08842	2546.4125
3082.46878	2536.3125
3084.84769	2556.1125
3087.22515	2536.4125
3089.60118	2547.2125
3091.97576	2539.8125
3094.3489	2556.6125
3096.72061	2539.0125
3099.09087	2525.1125
3101.4597	2540.9125
3103.82709	2534.4125
3106.19305	2510.5125
3108.55757	2529.4125
3110.92066	2511.1125
3113.28232	2529.8125
3115.64255	2527.8125
3118.00134	2518.9125
3120.35871	2496.2125
3122.71466	2473.7125
3125.06917	2495.9125
3127.42226	2471.0125
3129.77393	2462.1125
3132.12417	2471.5125
3134.47299	2478.5125
3136.82039	2468.1125
3139.16636	2437.8125
3141.51092	2464.2125
3143.85406	2482.6125
3146.19579	2436.0125
3148.53609	2453.0125
3150.87499	2446.2125
3153.21246	2450.4125
3155.54853	2461.7125
3157.88318	2471.4125
3160.21642	2459.2125
3162.54826	2457.2125
3164.87868	2463.1125
3167.2077	2417.8125
3169.5353	2440.7125
3171.86151	2450.5125
3174.18631	2444.6125
3176.5097	2439.1125
3178.83169	2426.3125
3181.15228	2453.1125
3183.47147	2421.6125
3185.78926	2407.6125
3188.10565	2424.8125
3190.42065	2387.0125
3192.73424	2408.5125
3195.04645	2401.0125
3197.35725	2387.0125
3199.66667	2401.5125
3201.97469	2405.2125
3204.28132	2385.2125
3206.58656	2399.1125
3208.8904	2399.8125
3211.19287	2400.9125
3213.49394	2383.6125
3215.79363	2379.4125
3218.09193	2404.9125
3220.38884	2375.8125
3222.68438	2391.2125
3224.97853	2372.3125
3227.2713	2387.6125
3229.56269	2384.4125
3231.8527	2367.4125
3234.14133	2365.2125
3236.42858	2359.4125
3238.71446	2328.1125
3240.99896	2369.9125
3243.28209	2337.0125
3245.56384	2338.4125
3247.84423	2331.4125
3250.12324	2328.5125
3252.40088	2329.7125
3254.67715	2318.9125
3256.95205	2319.4125
3259.22558	2332.0125
3261.49775	2321.4125
3263.76855	2321.0125
3266.03799	2330.1125
3268.30606	2327.4125
3270.57277	2325.6125
3272.83812	2306.5125
3275.10211	2298.4125
3277.36474	2322.4125
3279.62601	2298.1125
3281.88593	2272.8125
3284.14448	2259.8125
3286.40168	2280.3125
3288.65753	2259.3125
3290.91202	2272.7125
3293.16516	2247.3125
3295.41695	2277.0125
3297.66738	2274.1125
3299.91647	2240.2125
3302.16421	2234.4125
3304.4106	2196.4125
3306.65564	2220.2125
3308.89933	2179.3125
3311.14169	2171.3125
3313.38269	2155.8125
3315.62236	2140.1125
3317.86068	2128.2125
3320.09766	2112.7125
3322.3333	2068.6125
3324.5676	2064.7125
3326.80056	2037.0125
3329.03219	2032.9125
3331.26248	0.0125
3333.49143	0.2125
3335.71905	0.8125
