Data from AgNPs_UA_20uM_CRN_500uM_SU_RamanShift__87__13-51-00-308.txt Node

Date: Thu Aug 04 13:51:00 BST 2022
User: TCL
Spectrometer: QEP01345
Trigger mode: 4
Integration Time (sec): 1.000000E0
Scans to average: 10
Electric dark correction enabled: true
Nonlinearity correction enabled: false
Boxcar width: 0
XAxis mode: Raman Shifts
Number of Pixels in Spectrum: 1044
>>>>>Begin Spectral Data<<<<<
46.04893	-2.725
50.45542	0.875
54.85868	1.275
59.25871	0.575
63.6555	12.575
68.04907	10.375
72.43941	14.475
76.82654	12.775
81.21044	14.175
85.59113	14.075
89.96862	14.675
94.34289	14.675
98.71396	17.075
103.08183	17.375
107.4465	16.675
111.80798	19.275
116.16626	20.475
120.52136	21.475
124.87327	20.875
129.222	24.075
133.56755	20.175
137.90993	23.975
142.24913	28.775
146.58517	30.875
150.91804	35.675
155.24774	43.875
159.57429	54.275
163.89768	73.575
168.21792	95.975
172.53501	129.775
176.84895	179.875
181.15975	255.575
185.46741	359.375
189.77193	500.375
194.07331	677.975
198.37157	874.275
202.6667	1081.275
206.9587	1292.175
211.24758	1499.075
215.53334	1707.075
219.81599	1937.575
224.09553	2208.175
228.37195	2492.175
232.64527	2797.375
236.91549	3111.775
241.18261	3376.175
245.44663	3580.175
249.70755	3723.775
253.96539	3874.175
258.22014	3970.475
262.4718	4078.775
266.72039	4163.275
270.96589	4191.175
275.20832	4168.475
279.44768	4107.875
283.68397	4029.775
287.91719	3970.375
292.14735	3981.575
296.37445	4059.975
300.59849	4218.675
304.81948	4394.775
309.03742	4561.575
313.25231	4675.375
317.46415	4621.975
321.67296	4433.175
325.87872	4213.875
330.08145	4114.175
334.28114	4093.375
338.47781	4160.275
342.67145	4248.475
346.86207	4398.175
351.04966	4552.975
355.23424	4728.375
359.4158	4855.075
363.59435	4926.375
367.76989	4927.775
371.94243	4913.875
376.11196	4897.375
380.27849	4884.975
384.44203	4858.175
388.60257	4876.675
392.76012	4900.375
396.91468	4986.775
401.06626	5055.475
405.21485	5064.975
409.36047	4982.175
413.50311	4767.375
417.64277	4601.675
421.77947	4502.875
425.9132	4456.875
430.04396	4486.075
434.17176	4529.275
438.2966	4601.775
442.41849	4723.075
446.53742	4890.975
450.6534	5026.475
454.76644	5079.375
458.87653	5072.175
462.98368	5007.275
467.08789	4949.375
471.18916	4847.675
475.2875	4725.075
479.38291	4614.775
483.4754	4546.775
487.56496	4488.075
491.6516	4459.775
495.73531	4443.275
499.81612	4440.275
503.89401	4476.875
507.96899	4511.575
512.04106	4559.175
516.11023	4622.275
520.1765	4665.575
524.23987	4687.775
528.30034	4682.475
532.35792	4674.175
536.41261	4625.275
540.46441	4536.275
544.51333	4500.275
548.55936	4537.075
552.60252	4623.375
556.64279	4711.175
560.6802	4757.675
564.71473	4806.075
568.7464	4909.275
572.7752	4915.275
576.80114	4806.275
580.82422	4702.275
584.84444	4704.675
588.86181	4802.475
592.87633	4913.375
596.888	5034.675
600.89682	5204.375
604.9028	5777.675
608.90594	7099.975
612.90624	8440.475
616.90371	7730.275
620.89834	5818.275
624.89015	5053.775
628.87913	4952.475
632.86528	4988.275
636.84862	4967.575
640.82913	4839.775
644.80683	4646.375
648.78172	4528.975
652.75379	4561.075
656.72306	4730.075
660.68952	4901.575
664.65319	4829.375
668.61405	4690.375
672.57211	4648.975
676.52738	4635.675
680.47986	4575.375
684.42955	4524.375
688.37646	4504.475
692.32058	4550.075
696.26192	4604.275
700.20048	4684.975
704.13626	4696.275
708.06928	4652.475
711.99952	4638.375
715.927	4630.375
719.85171	4662.275
723.77365	4646.975
727.69284	4587.275
731.60928	4557.075
735.52295	4574.375
739.43388	4601.775
743.34206	4626.375
747.24749	4646.975
751.15017	4648.775
755.05012	4722.575
758.94733	4950.075
762.8418	5432.875
766.73354	6216.575
770.62254	6877.875
774.50882	6982.475
778.39237	6554.975
782.27321	5896.975
786.15132	5280.575
790.02671	4915.675
793.89938	4747.875
797.76935	4657.575
801.6366	4629.675
805.50115	4602.375
809.36299	4566.175
813.22213	4565.975
817.07857	4548.575
820.93231	4557.375
824.78336	4570.875
828.63172	4584.475
832.47738	4574.975
836.32036	4592.475
840.16066	4599.075
843.99827	4602.775
847.8332	4601.675
851.66546	4587.075
855.49504	4589.175
859.32195	4605.175
863.1462	4591.175
866.96777	4579.375
870.78668	4565.775
874.60293	4582.675
878.41652	4587.075
882.22745	4622.275
886.03573	4643.975
889.84136	4630.775
893.64433	4616.975
897.44466	4610.575
901.24235	4594.175
905.0374	4584.475
908.8298	4561.775
912.61957	4538.475
916.40671	4563.675
920.19121	4629.175
923.97308	4698.175
927.75233	4766.375
931.52895	4793.575
935.30295	4739.975
939.07433	4615.675
942.84309	4550.375
946.60924	4527.575
950.37278	4520.275
954.13371	4482.975
957.89203	4459.375
961.64774	4452.775
965.40086	4442.775
969.15137	4427.175
972.89929	4433.475
976.64461	4432.675
980.38733	4446.375
984.12747	4478.075
987.86502	4504.875
991.59999	4565.675
995.33237	4673.075
999.06217	4807.975
1002.78939	4964.775
1006.51404	5041.975
1010.23611	5117.075
1013.95561	5144.975
1017.67255	5192.675
1021.38692	5157.175
1025.09872	5137.375
1028.80796	5176.275
1032.51465	5265.475
1036.21877	5365.175
1039.92035	5348.575
1043.61937	5300.275
1047.31584	5166.875
1051.00976	5068.875
1054.70114	5006.575
1058.38998	4983.175
1062.07627	5000.875
1065.76003	5030.575
1069.44126	5052.875
1073.11995	5128.675
1076.79611	5224.175
1080.46974	5285.075
1084.14085	5365.775
1087.80943	5465.275
1091.47549	5466.275
1095.13903	5411.075
1098.80005	5311.575
1102.45857	5209.975
1106.11456	5158.375
1109.76805	5177.075
1113.41903	5230.575
1117.06751	5327.675
1120.71348	5491.975
1124.35696	5687.675
1127.99793	5785.075
1131.63641	5692.375
1135.2724	5497.875
1138.90589	5361.075
1142.5369	5250.975
1146.16542	5214.375
1149.79145	5163.175
1153.415	5132.875
1157.03607	5132.575
1160.65467	5166.275
1164.27079	5311.375
1167.88443	5533.875
1171.49561	5860.875
1175.10432	6382.675
1178.71056	7079.975
1182.31434	7671.775
1185.91565	7870.375
1189.51451	7745.375
1193.11091	7435.875
1196.70485	7071.575
1200.29634	6775.575
1203.88538	6520.275
1207.47197	6246.575
1211.05612	5997.975
1214.63782	5848.075
1218.21708	5769.275
1221.79391	5763.975
1225.36829	5789.675
1228.94024	5779.875
1232.50976	5684.875
1236.07685	5625.875
1239.6415	5602.175
1243.20374	5612.175
1246.76355	5676.675
1250.32093	5750.975
1253.8759	5901.075
1257.42845	6088.275
1260.97859	6298.675
1264.52631	6458.475
1268.07163	6597.275
1271.61453	6718.875
1275.15503	6843.975
1278.69312	6942.075
1282.22882	7023.575
1285.76211	7165.575
1289.29301	7324.875
1292.82151	7536.375
1296.34761	7738.975
1299.87133	8130.875
1303.39266	8731.175
1306.9116	9542.975
1310.42815	10389.175
1313.94233	10681.975
1317.45412	10346.275
1320.96354	9633.075
1324.47058	8916.175
1327.97525	8302.975
1331.47754	7911.075
1334.97747	7791.975
1338.47502	7848.275
1341.97022	8056.975
1345.46305	8402.275
1348.95352	8920.875
1352.44163	9574.275
1355.92738	10438.475
1359.41078	11531.375
1362.89183	12356.975
1366.37053	11743.775
1369.84688	10011.275
1373.32088	8399.175
1376.79254	7484.875
1380.26186	7087.975
1383.72883	6848.975
1387.19347	6693.775
1390.65578	6460.075
1394.11575	6287.875
1397.57339	6185.375
1401.0287	6156.775
1404.48168	6136.075
1407.93234	6129.475
1411.38068	6187.675
1414.82669	6226.075
1418.27039	6252.175
1421.71177	6203.375
1425.15083	6160.675
1428.58758	6145.475
1432.02203	6238.775
1435.45416	6356.175
1438.88399	6392.175
1442.31151	6389.875
1445.73673	6362.575
1449.15965	6358.375
1452.58027	6291.175
1455.9986	6233.075
1459.41463	6213.475
1462.82837	6261.775
1466.23982	6369.275
1469.64898	6488.775
1473.05586	6594.975
1476.46045	6666.875
1479.86276	6700.775
1483.26279	6776.675
1486.66054	6874.775
1490.05602	7072.775
1493.44922	7374.675
1496.84016	7865.975
1500.22882	8612.075
1503.61521	9559.675
1506.99934	10526.875
1510.38121	11056.675
1513.76081	10868.475
1517.13816	10003.075
1520.51324	8909.775
1523.88607	8039.475
1527.25665	7527.875
1530.62498	7295.175
1533.99105	7142.775
1537.35488	7077.775
1540.71647	7027.975
1544.07581	6927.475
1547.4329	6852.475
1550.78776	6777.775
1554.14038	6689.575
1557.49077	6652.775
1560.83892	6695.075
1564.18484	6841.675
1567.52853	7021.675
1570.86999	7161.175
1574.20922	7175.875
1577.54624	7041.875
1580.88103	6731.675
1584.2136	6404.375
1587.54395	6274.975
1590.87208	6417.975
1594.19801	6821.075
1597.52172	7310.775
1600.84321	7564.075
1604.16251	7474.675
1607.47959	7158.075
1610.79447	6721.875
1614.10715	6279.275
1617.41763	5866.175
1620.7259	5603.875
1624.03199	5469.475
1627.33587	5487.075
1630.63757	5626.875
1633.93707	5904.675
1637.23439	6373.175
1640.52951	7036.975
1643.82246	7865.975
1647.11321	8593.775
1650.40179	8802.375
1653.68819	8221.275
1656.97241	7133.375
1660.25446	6111.175
1663.53433	5428.575
1666.81203	5020.175
1670.08756	4776.575
1673.36092	4640.575
1676.63211	4544.575
1679.90115	4482.175
1683.16801	4404.375
1686.43272	4387.375
1689.69527	4366.275
1692.95567	4347.175
1696.2139	4334.975
1699.46999	4314.075
1702.72392	4313.975
1705.97571	4309.575
1709.22535	4311.675
1712.47284	4306.375
1715.71819	4304.375
1718.96139	4288.075
1722.20246	4291.975
1725.44139	4269.175
1728.67818	4240.875
1731.91284	4224.275
1735.14537	4205.275
1738.37576	4180.175
1741.60403	4177.775
1744.83017	4154.775
1748.05418	4159.975
1751.27607	4132.675
1754.49584	4123.875
1757.71349	4116.475
1760.92903	4121.475
1764.14244	4113.475
1767.35375	4101.275
1770.56294	4087.175
1773.77002	4107.675
1776.97499	4081.575
1780.17785	4065.375
1783.37861	4068.075
1786.57727	4069.775
1789.77382	4048.375
1792.96828	4031.475
1796.16064	4032.775
1799.3509	4019.075
1802.53907	4021.875
1805.72514	4022.075
1808.90913	4011.575
1812.09102	4001.175
1815.27083	3981.975
1818.44856	3979.575
1821.6242	3962.675
1824.79776	3960.375
1827.96924	3965.575
1831.13864	3971.875
1834.30597	3960.475
1837.47122	3954.075
1840.6344	3929.975
1843.7955	3920.975
1846.95454	3931.375
1850.11151	3930.475
1853.26642	3912.075
1856.41926	3920.575
1859.57004	3927.575
1862.71876	3919.175
1865.86542	3926.775
1869.01003	3903.475
1872.15258	3919.975
1875.29308	3915.875
1878.43152	3913.275
1881.56792	3900.875
1884.70227	3880.775
1887.83457	3911.375
1890.96482	3899.575
1894.09304	3886.575
1897.21921	3873.875
1900.34335	3885.175
1903.46544	3869.375
1906.58551	3872.775
1909.70353	3872.175
1912.81953	3878.075
1915.93349	3866.875
1919.04543	3849.275
1922.15534	3855.475
1925.26322	3856.575
1928.36908	3846.075
1931.47292	3849.775
1934.57473	3832.575
1937.67453	3824.075
1940.77232	3813.875
1943.86808	3818.975
1946.96184	3790.575
1950.05358	3779.775
1953.14331	3777.975
1956.23103	3762.175
1959.31675	3743.975
1962.40046	3734.075
1965.48217	3721.775
1968.56188	3722.875
1971.63959	3722.675
1974.7153	3711.675
1977.78901	3701.275
1980.86073	3680.175
1983.93046	3670.375
1986.99819	3665.075
1990.06394	3642.775
1993.1277	3638.575
1996.18947	3631.775
1999.24925	3623.175
2002.30706	3606.275
2005.36288	3606.175
2008.41672	3575.675
2011.46859	3570.475
2014.51848	3559.775
2017.56639	3554.575
2020.61233	3553.375
2023.6563	3521.075
2026.6983	3531.775
2029.73833	3527.175
2032.7764	3533.675
2035.8125	3507.575
2038.84664	3507.075
2041.87881	3505.775
2044.90903	3485.475
2047.93729	3488.675
2050.96359	3483.975
2053.98794	3478.975
2057.01034	3485.375
2060.03078	3478.475
2063.04927	3463.375
2066.06582	3467.775
2069.08042	3465.275
2072.09307	3467.975
2075.10378	3459.075
2078.11255	3444.575
2081.11938	3455.775
2084.12426	3447.975
2087.12722	3446.275
2090.12824	3461.175
2093.12732	3455.975
2096.12447	3460.775
2099.11969	3448.775
2102.11299	3457.075
2105.10435	3464.675
2108.09379	3451.475
2111.08131	3457.975
2114.0669	3462.175
2117.05057	3458.975
2120.03233	3453.575
2123.01216	3450.075
2125.99008	3456.175
2128.96609	3473.475
2131.94018	3475.175
2134.91236	3474.675
2137.88263	3477.375
2140.851	3460.275
2143.81746	3480.375
2146.78201	3476.375
2149.74466	3482.275
2152.7054	3477.475
2155.66425	3471.975
2158.6212	3479.975
2161.57625	3484.375
2164.52941	3469.275
2167.48067	3483.675
2170.43004	3463.775
2173.37752	3465.675
2176.32311	3469.675
2179.26681	3476.575
2182.20863	3479.475
2185.14856	3462.775
2188.08661	3486.675
2191.02278	3466.875
2193.95707	3480.975
2196.88948	3459.375
2199.82001	3464.875
2202.74867	3472.075
2205.67545	3482.275
2208.60037	3477.675
2211.52341	3464.475
2214.44458	3467.275
2217.36388	3447.475
2220.28132	3443.375
2223.1969	3426.875
2226.11061	3418.875
2229.02246	3420.775
2231.93245	3419.075
2234.84058	3418.975
2237.74686	3397.775
2240.65128	3390.575
2243.55385	3399.575
2246.45456	3398.975
2249.35343	3397.775
2252.25044	3378.875
2255.14561	3387.575
2258.03893	3385.675
2260.93041	3379.275
2263.82004	3384.375
2266.70783	3375.675
2269.59378	3350.975
2272.4779	3342.175
2275.36017	3348.375
2278.24061	3333.475
2281.11922	3329.475
2283.996	3315.875
2286.87094	3308.375
2289.74405	3314.075
2292.61534	3311.375
2295.4848	3306.975
2298.35243	3303.975
2301.21824	3314.875
2304.08223	3306.875
2306.94439	3311.575
2309.80474	3312.375
2312.66327	3308.675
2315.51999	3296.975
2318.37489	3317.175
2321.22797	3312.375
2324.07925	3293.675
2326.92871	3284.575
2329.77637	3302.375
2332.62222	3291.375
2335.46626	3280.675
2338.3085	3292.675
2341.14893	3287.975
2343.98756	3281.275
2346.8244	3296.575
2349.65943	3305.675
2352.49267	3304.375
2355.32411	3297.875
2358.15376	3288.675
2360.98161	3292.575
2363.80768	3295.175
2366.63195	3283.675
2369.45444	3275.675
2372.27514	3271.975
2375.09405	3262.875
2377.91118	3269.075
2380.72652	3264.475
2383.54009	3246.175
2386.35187	3236.375
2389.16188	3239.975
2391.97011	3223.875
2394.77657	3223.475
2397.58125	3215.775
2400.38416	3206.475
2403.18529	3211.175
2405.98466	3212.375
2408.78226	3191.475
2411.57809	3197.375
2414.37216	3176.775
2417.16446	3182.575
2419.955	3168.875
2422.74378	3165.475
2425.5308	3153.375
2428.31606	3161.375
2431.09956	3146.275
2433.88131	3161.675
2436.6613	3168.175
2439.43954	3159.975
2442.21603	3158.775
2444.99077	3156.875
2447.76377	3164.675
2450.53501	3152.975
2453.30451	3137.775
2456.07226	3136.975
2458.83827	3138.075
2461.60254	3132.575
2464.36507	3151.875
2467.12586	3142.775
2469.88492	3145.075
2472.64224	3141.875
2475.39782	3152.075
2478.15167	3154.475
2480.90379	3136.275
2483.65417	3142.375
2486.40283	3147.475
2489.14976	3159.175
2491.89497	3154.775
2494.63845	3155.075
2497.3802	3152.375
2500.12024	3152.575
2502.85855	3133.875
2505.59514	3126.475
2508.33002	3118.475
2511.06318	3110.775
2513.79462	3107.475
2516.52435	3123.875
2519.25237	3116.175
2521.97867	3105.975
2524.70327	3091.375
2527.42616	3098.875
2530.14734	3096.375
2532.86681	3094.775
2535.58458	3084.475
2538.30065	3087.875
2541.01501	3084.175
2543.72768	3103.675
2546.43864	3100.875
2549.14791	3093.775
2551.85548	3103.075
2554.56136	3092.275
2557.26554	3092.875
2559.96803	3070.575
2562.66883	3081.075
2565.36794	3068.075
2568.06536	3056.975
2570.7611	3055.275
2573.45514	3043.175
2576.14751	3041.575
2578.83819	3036.775
2581.52719	3043.775
2584.21451	3042.075
2586.90015	3031.375
2589.58411	3017.975
2592.2664	3031.475
2594.94701	3024.175
2597.62594	3023.775
2600.30321	3023.475
2602.9788	3023.175
2605.65273	3014.875
2608.32498	3017.475
2610.99557	3016.475
2613.66449	3017.175
2616.33175	3008.775
2618.99734	3007.475
2621.66128	3010.975
2624.32355	3014.775
2626.98416	3020.275
2629.64311	3016.175
2632.30041	3023.875
2634.95605	3005.675
2637.61004	2985.075
2640.26238	2988.475
2642.91306	2987.875
2645.56209	2976.975
2648.20948	2988.375
2650.85521	2975.775
2653.4993	2978.275
2656.14175	2979.075
2658.78255	2979.775
2661.42171	2976.275
2664.05923	2986.375
2666.6951	3001.575
2669.32934	2992.375
2671.96194	2989.875
2674.59291	2994.875
2677.22224	2983.275
2679.84993	2992.075
2682.476	2984.975
2685.10043	2981.775
2687.72324	2960.375
2690.34441	2972.075
2692.96396	2979.275
2695.58188	2956.075
2698.19818	2964.375
2700.81285	2968.875
2703.4259	2977.975
2706.03733	2964.075
2708.64714	2961.575
2711.25533	2957.575
2713.86191	2942.375
2716.46687	2959.275
2719.07021	2970.075
2721.67194	2976.575
2724.27206	2974.675
2726.87057	2968.175
2729.46747	2972.075
2732.06276	2976.375
2734.65644	2964.775
2737.24852	2946.875
2739.83899	2952.075
2742.42786	2962.575
2745.01513	2958.975
2747.60079	2957.875
2750.18486	2952.475
2752.76733	2951.075
2755.3482	2945.675
2757.92747	2932.375
2760.50515	2938.975
2763.08123	2933.675
2765.65573	2921.175
2768.22863	2913.375
2770.79994	2922.075
2773.36967	2931.175
2775.9378	2926.375
2778.50435	2914.675
2781.06932	2913.375
2783.6327	2913.975
2786.1945	2911.775
2788.75471	2913.975
2791.31335	2895.875
2793.87041	2913.175
2796.42589	2895.275
2798.97979	2884.775
2801.53212	2886.575
2804.08288	2894.475
2806.63206	2877.275
2809.17967	2876.775
2811.72571	2872.875
2814.27018	2866.175
2816.81308	2866.475
2819.35442	2865.075
2821.89419	2836.875
2824.43239	2844.975
2826.96904	2832.475
2829.50412	2832.475
2832.03763	2842.475
2834.56959	2835.775
2837.1	2829.875
2839.62884	2823.675
2842.15613	2819.775
2844.68186	2827.675
2847.20604	2826.975
2849.72867	2812.375
2852.24974	2811.775
2854.76927	2804.675
2857.28724	2792.675
2859.80367	2799.275
2862.31855	2792.475
2864.83189	2791.375
2867.34368	2785.375
2869.85393	2799.775
2872.36264	2790.075
2874.8698	2781.875
2877.37543	2786.375
2879.87952	2774.775
2882.38207	2782.375
2884.88308	2790.175
2887.38256	2782.375
2889.88051	2771.775
2892.37692	2775.875
2894.8718	2764.275
2897.36515	2772.075
2899.85698	2773.775
2902.34727	2776.175
2904.83604	2779.175
2907.32328	2801.275
2909.809	2793.075
2912.29319	2793.475
2914.77587	2805.875
2917.25702	2808.275
2919.73665	2801.475
2922.21476	2795.175
2924.69136	2785.375
2927.16644	2782.575
2929.64	2781.075
2932.11205	2779.575
2934.58258	2761.975
2937.05161	2768.075
2939.51912	2753.175
2941.98513	2757.575
2944.44962	2755.675
2946.91261	2752.475
2949.37409	2760.275
2951.83407	2766.675
2954.29254	2755.475
2956.74951	2757.675
2959.20498	2754.075
2961.65895	2746.175
2964.11142	2745.575
2966.56239	2744.475
2969.01186	2743.575
2971.45984	2745.875
2973.90632	2733.175
2976.35131	2731.375
2978.7948	2728.875
2981.23681	2702.775
2983.67732	2710.375
2986.11635	2701.675
2988.55388	2700.675
2990.98993	2696.975
2993.4245	2707.075
2995.85758	2687.975
2998.28917	2682.375
3000.71928	2688.275
3003.14791	2678.575
3005.57506	2663.375
3008.00073	2657.575
3010.42493	2655.475
3012.84764	2622.875
3015.26888	2643.875
3017.68865	2637.075
3020.10694	2642.775
3022.52376	2623.175
3024.9391	2632.275
3027.35298	2612.875
3029.76539	2608.175
3032.17632	2606.975
3034.5858	2604.175
3036.9938	2595.675
3039.40034	2594.475
3041.80542	2572.775
3044.20903	2596.975
3046.61118	2568.975
3049.01187	2575.575
3051.4111	2567.175
3053.80888	2565.475
3056.20519	2563.475
3058.60005	2557.975
3060.99345	2546.275
3063.3854	2537.875
3065.7759	2534.775
3068.16494	2545.575
3070.55254	2530.875
3072.93868	2526.575
3075.32338	2512.275
3077.70662	2507.475
3080.08842	2495.475
3082.46878	2498.475
3084.84769	2489.675
3087.22515	2485.675
3089.60118	2497.075
3091.97576	2480.875
3094.3489	2495.575
3096.72061	2488.875
3099.09087	2487.675
3101.4597	2476.175
3103.82709	2480.975
3106.19305	2489.675
3108.55757	2492.975
3110.92066	2477.675
3113.28232	2472.175
3115.64255	2462.275
3118.00134	2447.175
3120.35871	2459.275
3122.71466	2456.875
3125.06917	2462.975
3127.42226	2451.575
3129.77393	2439.275
3132.12417	2433.275
3134.47299	2425.675
3136.82039	2435.075
3139.16636	2431.175
3141.51092	2433.075
3143.85406	2445.975
3146.19579	2436.075
3148.53609	2432.275
3150.87499	2429.975
3153.21246	2418.675
3155.54853	2432.875
3157.88318	2446.875
3160.21642	2432.675
3162.54826	2441.475
3164.87868	2421.875
3167.2077	2425.775
3169.5353	2418.075
3171.86151	2427.475
3174.18631	2424.075
3176.5097	2418.275
3178.83169	2406.275
3181.15228	2421.475
3183.47147	2404.175
3185.78926	2399.275
3188.10565	2389.675
3190.42065	2387.775
3192.73424	2396.375
3195.04645	2391.275
3197.35725	2379.575
3199.66667	2373.875
3201.97469	2382.475
3204.28132	2377.975
3206.58656	2377.875
3208.8904	2382.875
3211.19287	2387.475
3213.49394	2392.875
3215.79363	2382.675
3218.09193	2394.875
3220.38884	2382.675
3222.68438	2386.675
3224.97853	2384.275
3227.2713	2379.575
3229.56269	2387.875
3231.8527	2375.875
3234.14133	2372.275
3236.42858	2369.675
3238.71446	2370.575
3240.99896	2348.975
3243.28209	2353.775
3245.56384	2352.575
3247.84423	2354.175
3250.12324	2341.475
3252.40088	2348.075
3254.67715	2343.875
3256.95205	2346.575
3259.22558	2334.975
3261.49775	2341.375
3263.76855	2340.675
3266.03799	2342.175
3268.30606	2339.775
3270.57277	2345.675
3272.83812	2336.275
3275.10211	2327.475
3277.36474	2315.075
3279.62601	2323.675
3281.88593	2318.575
3284.14448	2315.675
3286.40168	2307.475
3288.65753	2311.375
3290.91202	2301.975
3293.16516	2299.475
3295.41695	2294.875
3297.66738	2286.775
3299.91647	2270.575
3302.16421	2266.275
3304.4106	2248.175
3306.65564	2244.875
3308.89933	2211.675
3311.14169	2213.775
3313.38269	2187.875
3315.62236	2179.175
3317.86068	2157.175
3320.09766	2152.775
3322.3333	2127.575
3324.5676	2111.075
3326.80056	2069.375
3329.03219	2058.475
3331.26248	1.975
3333.49143	-1.025
3335.71905	-1.025
