Data from AgNPs_UA_5uM_CRN_500uM_SU_RamanShift__71__11-41-13-153.txt Node

Date: Thu Aug 04 11:41:13 BST 2022
User: TCL
Spectrometer: QEP01345
Trigger mode: 4
Integration Time (sec): 1.000000E0
Scans to average: 10
Electric dark correction enabled: true
Nonlinearity correction enabled: false
Boxcar width: 0
XAxis mode: Raman Shifts
Number of Pixels in Spectrum: 1044
>>>>>Begin Spectral Data<<<<<
46.04893	-0.2
50.45542	-1.2
54.85868	-0
59.25871	-0.5
63.6555	-58.9
68.04907	-38.2
72.43941	-69.4
76.82654	-55.1
81.21044	-54.5
85.59113	-47.8
89.96862	-71.2
94.34289	-53.9
98.71396	-75.3
103.08183	-56.1
107.4465	-47.5
111.80798	-52.5
116.16626	-40.6
120.52136	-69.2
124.87327	-48.1
129.222	-58.1
133.56755	-45.3
137.90993	-56
142.24913	-43.5
146.58517	-35.8
150.91804	-29.4
155.24774	-15.5
159.57429	11.2
163.89768	21.9
168.21792	76.1
172.53501	108.3
176.84895	214.2
181.15975	379
185.46741	572.8
189.77193	814.8
194.07331	1171.6
198.37157	1541.2
202.6667	1928.1
206.9587	2363.3
211.24758	2800.1
215.53334	3262.6
219.81599	3802.4
224.09553	4442.6
228.37195	5083.9
232.64527	5708.8
236.91549	6250.7
241.18261	6594
245.44663	6777.1
249.70755	6852.6
253.96539	6951
258.22014	7063
262.4718	7183.7
266.72039	7218.2
270.96589	7113.2
275.20832	6912.6
279.44768	6683.8
283.68397	6497.6
287.91719	6417.5
292.14735	6507.6
296.37445	6859.1
300.59849	7456.8
304.81948	8269.6
309.03742	9218.1
313.25231	9920.8
317.46415	9852
321.67296	8847.5
325.87872	7720.3
330.08145	7074.9
334.28114	6927.4
338.47781	7138.8
342.67145	7502.2
346.86207	8081
351.04966	9027.3
355.23424	9954.8
359.4158	10387.1
363.59435	10102.3
367.76989	9585.8
371.94243	9097.8
376.11196	8696.3
380.27849	8423
384.44203	8187.5
388.60257	8092.2
392.76012	8124.1
396.91468	8360.2
401.06626	8589.6
405.21485	8608.3
409.36047	8248.5
413.50311	7571.1
417.64277	6950.6
421.77947	6522.4
425.9132	6329.5
430.04396	6229.2
434.17176	6230.8
438.2966	6344.7
442.41849	6465.5
446.53742	6617.6
450.6534	6743.2
454.76644	6806.8
458.87653	6775.3
462.98368	6714
467.08789	6605.4
471.18916	6457.7
475.2875	6255.4
479.38291	6081.8
483.4754	5973.5
487.56496	5950.7
491.6516	5891.3
495.73531	5885.1
499.81612	5943
503.89401	6057.1
507.96899	6177.4
512.04106	6347.9
516.11023	6535.4
520.1765	6667.9
524.23987	6723.1
528.30034	6710.1
532.35792	6600.3
536.41261	6504.5
540.46441	6337.3
544.51333	6238.6
548.55936	6234.5
552.60252	6381.3
556.64279	6524.5
560.6802	6825.3
564.71473	7416.5
568.7464	8160.4
572.7752	8098.1
576.80114	7088
580.82422	6323
584.84444	5976.4
588.86181	5862.9
592.87633	5887.2
596.888	6045.4
600.89682	6613.8
604.9028	8407.5
608.90594	12813.3
612.90624	18098.7
616.90371	16521.5
620.89834	9951.6
624.89015	7117.7
628.87913	6769.6
632.86528	7200.1
636.84862	7433.8
640.82913	6932.3
644.80683	6209.9
648.78172	5870.6
652.75379	5971.5
656.72306	6503.9
660.68952	7029.8
664.65319	6790.7
668.61405	6181.8
672.57211	5985.5
676.52738	6006
680.47986	5891.4
684.42955	5730.6
688.37646	5681.3
692.32058	5703
696.26192	5798.6
700.20048	5919.8
704.13626	5970.2
708.06928	5883
711.99952	5832.2
715.927	5853
719.85171	5998.8
723.77365	6089.9
727.69284	5978
731.60928	5888.4
735.52295	5847.8
739.43388	5894.6
743.34206	5928.5
747.24749	5960.2
751.15017	5952.5
755.05012	6166.7
758.94733	7024.4
762.8418	8905.6
766.73354	11404.4
770.62254	12747.4
774.50882	12306.7
778.39237	11423.5
782.27321	10049.8
786.15132	8165.6
790.02671	6853.2
793.89938	6203.2
797.76935	6011.6
801.6366	5881.8
805.50115	5811.7
809.36299	5785.5
813.22213	5771.6
817.07857	5770.7
820.93231	5799.4
824.78336	5871.4
828.63172	5949.4
832.47738	5954.9
836.32036	5932.2
840.16066	5790.9
843.99827	5715.8
847.8332	5680.6
851.66546	5680.8
855.49504	5664.3
859.32195	5709
863.1462	5657.6
866.96777	5653.8
870.78668	5651.3
874.60293	5688
878.41652	5717.2
882.22745	5851.3
886.03573	5904.4
889.84136	5875.3
893.64433	5856.4
897.44466	5856.7
901.24235	5861.6
905.0374	5807.9
908.8298	5704.6
912.61957	5605.8
916.40671	5544.8
920.19121	5594.5
923.97308	5734.9
927.75233	5973.3
931.52895	6223.1
935.30295	6081.7
939.07433	5720.1
942.84309	5459.2
946.60924	5381.3
950.37278	5324
954.13371	5324.6
957.89203	5318.6
961.64774	5324.8
965.40086	5301.1
969.15137	5285.1
972.89929	5298.5
976.64461	5296.1
980.38733	5300.6
984.12747	5288.5
987.86502	5298.9
991.59999	5319.3
995.33237	5399.6
999.06217	5480.8
1002.78939	5602.5
1006.51404	5780.9
1010.23611	5905.8
1013.95561	5862.1
1017.67255	5752.9
1021.38692	5648.2
1025.09872	5570.6
1028.80796	5474.9
1032.51465	5506.4
1036.21877	5538.7
1039.92035	5580.1
1043.61937	5627
1047.31584	5673.2
1051.00976	5721.9
1054.70114	5691.9
1058.38998	5668.9
1062.07627	5670.5
1065.76003	5677.3
1069.44126	5754.9
1073.11995	5851.1
1076.79611	6086.4
1080.46974	6427.3
1084.14085	6872.7
1087.80943	7251.4
1091.47549	7238
1095.13903	6914.5
1098.80005	6599.5
1102.45857	6471.5
1106.11456	6453.1
1109.76805	6406.8
1113.41903	6627.2
1117.06751	7030.7
1120.71348	7636.1
1124.35696	8575.8
1127.99793	9228.5
1131.63641	8735
1135.2724	7662.5
1138.90589	6985.1
1142.5369	6537.2
1146.16542	6321.8
1149.79145	6141.4
1153.415	6054
1157.03607	6062.5
1160.65467	6215.6
1164.27079	6487.6
1167.88443	6865.8
1171.49561	7565.2
1175.10432	8691.3
1178.71056	10295.5
1182.31434	11490.2
1185.91565	11385.6
1189.51451	10443.3
1193.11091	9432.1
1196.70485	8763.9
1200.29634	8474.9
1203.88538	8082
1207.47197	7424.8
1211.05612	6794.8
1214.63782	6350.8
1218.21708	6144.1
1221.79391	6046.4
1225.36829	5994.2
1228.94024	6007.1
1232.50976	6037
1236.07685	6045.7
1239.6415	6080.8
1243.20374	6155.8
1246.76355	6250.4
1250.32093	6401.5
1253.8759	6571
1257.42845	6939.2
1260.97859	7374.1
1264.52631	7838.6
1268.07163	8074.2
1271.61453	8138.2
1275.15503	7985.1
1278.69312	7847.5
1282.22882	7946.4
1285.76211	8487.4
1289.29301	9216.7
1292.82151	9782.5
1296.34761	9961.8
1299.87133	10521.6
1303.39266	11851.8
1306.9116	14363.3
1310.42815	17417.3
1313.94233	18453.6
1317.45412	16180.5
1320.96354	12913.1
1324.47058	10447.1
1327.97525	8922.3
1331.47754	8100.1
1334.97747	7811
1338.47502	7941.1
1341.97022	8572.2
1345.46305	9998.6
1348.95352	12033.5
1352.44163	14017.7
1355.92738	16434.2
1359.41078	20467.1
1362.89183	24816
1366.37053	23822.5
1369.84688	17550.8
1373.32088	12210.8
1376.79254	9883.9
1380.26186	8825
1383.72883	8038.2
1387.19347	7281.2
1390.65578	6709.1
1394.11575	6345.1
1397.57339	6152.7
1401.0287	6030.2
1404.48168	5966
1407.93234	5938.2
1411.38068	6028.8
1414.82669	6297.3
1418.27039	6580.3
1421.71177	6637.8
1425.15083	6516.1
1428.58758	6481.1
1432.02203	6723.7
1435.45416	6935.4
1438.88399	6735.2
1442.31151	6511.6
1445.73673	6465.2
1449.15965	6447.7
1452.58027	6385.5
1455.9986	6264.8
1459.41463	6180.2
1462.82837	6211.7
1466.23982	6347.4
1469.64898	6581.7
1473.05586	6713.8
1476.46045	6731.3
1479.86276	6776.4
1483.26279	6981.6
1486.66054	7397.1
1490.05602	8041.8
1493.44922	9120.3
1496.84016	10731.4
1500.22882	13291.2
1503.61521	16779.1
1506.99934	21071
1510.38121	25173.2
1513.76081	26582.6
1517.13816	23633.1
1520.51324	18362.3
1523.88607	13700.9
1527.25665	10739
1530.62498	9066.2
1533.99105	8104.2
1537.35488	7495.7
1540.71647	7138.8
1544.07581	6993.4
1547.4329	6983.9
1550.78776	7063.6
1554.14038	7263.7
1557.49077	7600.1
1560.83892	8161.4
1564.18484	9033.2
1567.52853	10018.2
1570.86999	10679.8
1574.20922	10752.6
1577.54624	10363.5
1580.88103	9197.5
1584.2136	7762.1
1587.54395	6963.3
1590.87208	6747.8
1594.19801	6992.2
1597.52172	7488
1600.84321	7508.2
1604.16251	7005.7
1607.47959	6528
1610.79447	6257.4
1614.10715	5971.6
1617.41763	5748.5
1620.7259	5626.9
1624.03199	5633.9
1627.33587	5708.8
1630.63757	5918.6
1633.93707	6367.4
1637.23439	7151.2
1640.52951	8565.1
1643.82246	10973.4
1647.11321	14157
1650.40179	16623
1653.68819	16290.6
1656.97241	13352.6
1660.25446	9945.8
1663.53433	7601.2
1666.81203	6323.4
1670.08756	5659.3
1673.36092	5320.9
1676.63211	5089.8
1679.90115	4946.1
1683.16801	4833.8
1686.43272	4721.7
1689.69527	4676.9
1692.95567	4616.3
1696.2139	4597
1699.46999	4554
1702.72392	4524
1705.97571	4548.5
1709.22535	4536
1712.47284	4585.6
1715.71819	4593.5
1718.96139	4595.8
1722.20246	4592.5
1725.44139	4539
1728.67818	4509.9
1731.91284	4426.8
1735.14537	4398
1738.37576	4366.5
1741.60403	4350
1744.83017	4325
1748.05418	4324.1
1751.27607	4311.7
1754.49584	4255.9
1757.71349	4218.6
1760.92903	4209
1764.14244	4153.7
1767.35375	4139.3
1770.56294	4117.9
1773.77002	4078.6
1776.97499	4090.7
1780.17785	4055.9
1783.37861	4030.5
1786.57727	4044.9
1789.77382	3989.2
1792.96828	4017.3
1796.16064	4014.8
1799.3509	4008.6
1802.53907	4015.2
1805.72514	3978.3
1808.90913	3953.5
1812.09102	3951.2
1815.27083	3943.8
1818.44856	3932.6
1821.6242	3925.1
1824.79776	3905.6
1827.96924	3889.4
1831.13864	3872.5
1834.30597	3870
1837.47122	3834
1840.6344	3828.7
1843.7955	3806.8
1846.95454	3788.2
1850.11151	3802.6
1853.26642	3758.1
1856.41926	3767.7
1859.57004	3755.5
1862.71876	3780.2
1865.86542	3787
1869.01003	3770.2
1872.15258	3754.7
1875.29308	3788.7
1878.43152	3785
1881.56792	3767.1
1884.70227	3728.3
1887.83457	3741
1890.96482	3711
1894.09304	3700.2
1897.21921	3702.2
1900.34335	3707.6
1903.46544	3682.1
1906.58551	3692.4
1909.70353	3696.2
1912.81953	3696.4
1915.93349	3663.8
1919.04543	3663.2
1922.15534	3641.2
1925.26322	3645.6
1928.36908	3612.5
1931.47292	3602.5
1934.57473	3598.5
1937.67453	3571.4
1940.77232	3525.2
1943.86808	3537
1946.96184	3516.2
1950.05358	3507.2
1953.14331	3475.5
1956.23103	3483
1959.31675	3464.4
1962.40046	3420.6
1965.48217	3467.8
1968.56188	3457.5
1971.63959	3452
1974.7153	3463.5
1977.78901	3438.8
1980.86073	3425.3
1983.93046	3369.3
1986.99819	3285.6
1990.06394	3321.1
1993.1277	3325.8
1996.18947	3324.1
1999.24925	3287.5
2002.30706	3264.5
2005.36288	3272.7
2008.41672	3255
2011.46859	3231.1
2014.51848	3216.9
2017.56639	3206.1
2020.61233	3195.6
2023.6563	3189.5
2026.6983	3149.2
2029.73833	3155.1
2032.7764	3173.2
2035.8125	3118.2
2038.84664	3134
2041.87881	3128.1
2044.90903	3132.1
2047.93729	3125.5
2050.96359	3089.1
2053.98794	3090.9
2057.01034	3094.4
2060.03078	3066.6
2063.04927	3068.5
2066.06582	3075
2069.08042	3038.9
2072.09307	3048.8
2075.10378	3050.8
2078.11255	3026.3
2081.11938	3045.4
2084.12426	3034.1
2087.12722	3029.3
2090.12824	3040.6
2093.12732	3043.6
2096.12447	3046.5
2099.11969	3033.8
2102.11299	3025.8
2105.10435	3041
2108.09379	3036.8
2111.08131	3030.4
2114.0669	3022.9
2117.05057	3048.5
2120.03233	3030.2
2123.01216	3057.6
2125.99008	3060
2128.96609	3062.8
2131.94018	3081.6
2134.91236	3062.6
2137.88263	3046.5
2140.851	3046.8
2143.81746	3049.3
2146.78201	3033
2149.74466	3008.4
2152.7054	3013.1
2155.66425	2989.2
2158.6212	2991.4
2161.57625	2972.1
2164.52941	2947.2
2167.48067	2984.8
2170.43004	2970.3
2173.37752	2985.4
2176.32311	2982.7
2179.26681	2986.7
2182.20863	2992.4
2185.14856	2992.3
2188.08661	2983.8
2191.02278	2994.5
2193.95707	2958.9
2196.88948	2947.7
2199.82001	2959.2
2202.74867	2949.4
2205.67545	2943.2
2208.60037	2953.2
2211.52341	2938
2214.44458	2920.4
2217.36388	2921.5
2220.28132	2902.3
2223.1969	2889.3
2226.11061	2894.6
2229.02246	2876.7
2231.93245	2888.4
2234.84058	2863.2
2237.74686	2862.2
2240.65128	2857.4
2243.55385	2856.5
2246.45456	2828.9
2249.35343	2861.1
2252.25044	2860.9
2255.14561	2868.5
2258.03893	2872.4
2260.93041	2868.7
2263.82004	2874.9
2266.70783	2879.1
2269.59378	2871.6
2272.4779	2849.3
2275.36017	2865.8
2278.24061	2830.8
2281.11922	2805.5
2283.996	2817.1
2286.87094	2796.5
2289.74405	2803.3
2292.61534	2776.4
2295.4848	2775
2298.35243	2767.8
2301.21824	2748.4
2304.08223	2748.8
2306.94439	2756.2
2309.80474	2753.4
2312.66327	2747.3
2315.51999	2733.9
2318.37489	2735.6
2321.22797	2714.9
2324.07925	2708.4
2326.92871	2709
2329.77637	2684.2
2332.62222	2690.2
2335.46626	2681.5
2338.3085	2683
2341.14893	2692.3
2343.98756	2699.6
2346.8244	2670.8
2349.65943	2671.7
2352.49267	2685
2355.32411	2687.6
2358.15376	2690.7
2360.98161	2706.2
2363.80768	2686.2
2366.63195	2721.2
2369.45444	2721.1
2372.27514	2731
2375.09405	2733.1
2377.91118	2690.1
2380.72652	2697.6
2383.54009	2685.5
2386.35187	2679
2389.16188	2655.4
2391.97011	2646.8
2394.77657	2638.8
2397.58125	2622.3
2400.38416	2610.6
2403.18529	2596.9
2405.98466	2585.2
2408.78226	2580.3
2411.57809	2575.7
2414.37216	2558.3
2417.16446	2563.1
2419.955	2543.2
2422.74378	2578.8
2425.5308	2550
2428.31606	2564.3
2431.09956	2559.9
2433.88131	2561.6
2436.6613	2566.8
2439.43954	2562.8
2442.21603	2549.4
2444.99077	2550.1
2447.76377	2569.6
2450.53501	2565.6
2453.30451	2562.5
2456.07226	2579.7
2458.83827	2561.2
2461.60254	2525.3
2464.36507	2549.7
2467.12586	2537.6
2469.88492	2541.7
2472.64224	2539.6
2475.39782	2528.8
2478.15167	2535.3
2480.90379	2538.2
2483.65417	2555.9
2486.40283	2577.4
2489.14976	2588.9
2491.89497	2574.5
2494.63845	2564.7
2497.3802	2563.2
2500.12024	2551.5
2502.85855	2546
2505.59514	2546.9
2508.33002	2523.5
2511.06318	2480.1
2513.79462	2486
2516.52435	2427.5
2519.25237	2407.1
2521.97867	2415.1
2524.70327	2407
2527.42616	2398.7
2530.14734	2403.7
2532.86681	2385
2535.58458	2386.6
2538.30065	2371.2
2541.01501	2384.1
2543.72768	2384.2
2546.43864	2379.5
2549.14791	2384.7
2551.85548	2373.6
2554.56136	2369.8
2557.26554	2383.2
2559.96803	2374.9
2562.66883	2373.4
2565.36794	2367.3
2568.06536	2341.4
2570.7611	2364.4
2573.45514	2360.3
2576.14751	2341.8
2578.83819	2317.9
2581.52719	2333.6
2584.21451	2326.6
2586.90015	2300.8
2589.58411	2295.5
2592.2664	2292.4
2594.94701	2297.5
2597.62594	2298.4
2600.30321	2245.2
2602.9788	2268.7
2605.65273	2259.2
2608.32498	2261.8
2610.99557	2275.6
2613.66449	2243.7
2616.33175	2270.3
2618.99734	2263.4
2621.66128	2274.3
2624.32355	2236.8
2626.98416	2232.8
2629.64311	2223.5
2632.30041	2213.2
2634.95605	2202.9
2637.61004	2183.1
2640.26238	2171.8
2642.91306	2166.3
2645.56209	2179.7
2648.20948	2182.8
2650.85521	2160.1
2653.4993	2179.6
2656.14175	2178.4
2658.78255	2167.7
2661.42171	2151.1
2664.05923	2182.9
2666.6951	2190.8
2669.32934	2196.9
2671.96194	2210.3
2674.59291	2191.4
2677.22224	2199.4
2679.84993	2199.2
2682.476	2181.2
2685.10043	2172.8
2687.72324	2170.4
2690.34441	2166.4
2692.96396	2161.9
2695.58188	2170.3
2698.19818	2169.4
2700.81285	2152.7
2703.4259	2145.9
2706.03733	2126.3
2708.64714	2120.1
2711.25533	2157.2
2713.86191	2156.6
2716.46687	2162.7
2719.07021	2148.2
2721.67194	2139.3
2724.27206	2153.7
2726.87057	2130
2729.46747	2126.2
2732.06276	2128.1
2734.65644	2115
2737.24852	2125.5
2739.83899	2092.6
2742.42786	2107
2745.01513	2105.4
2747.60079	2081
2750.18486	2067.3
2752.76733	2085.1
2755.3482	2066
2757.92747	2070.1
2760.50515	2050.5
2763.08123	2040
2765.65573	2037
2768.22863	2038
2770.79994	2034
2773.36967	2023.2
2775.9378	2012.2
2778.50435	2019.2
2781.06932	2018.3
2783.6327	1994.2
2786.1945	2013.8
2788.75471	2011.7
2791.31335	2007.8
2793.87041	2012.1
2796.42589	1999.7
2798.97979	1980
2801.53212	1991.3
2804.08288	2012.3
2806.63206	2003.5
2809.17967	1989
2811.72571	2024
2814.27018	2006.8
2816.81308	2002.8
2819.35442	1980.1
2821.89419	2014.1
2824.43239	2002.9
2826.96904	2031.2
2829.50412	2010.1
2832.03763	2000.1
2834.56959	1993.3
2837.1	1981
2839.62884	1975.2
2842.15613	1978.6
2844.68186	1992.9
2847.20604	1957.4
2849.72867	1963.8
2852.24974	1977.4
2854.76927	1943.6
2857.28724	1919.2
2859.80367	1980
2862.31855	1984
2864.83189	1998.2
2867.34368	1994.6
2869.85393	2013
2872.36264	1987.5
2874.8698	2001.7
2877.37543	1994.1
2879.87952	1982.9
2882.38207	1957.6
2884.88308	1959.4
2887.38256	1959.5
2889.88051	1937
2892.37692	1941.3
2894.8718	1918.8
2897.36515	1941.4
2899.85698	1931.8
2902.34727	1931.7
2904.83604	1936.7
2907.32328	1968.4
2909.809	1975.1
2912.29319	1961.5
2914.77587	1976.8
2917.25702	1981.9
2919.73665	1986.2
2922.21476	1976.8
2924.69136	1970.4
2927.16644	1940.7
2929.64	1930
2932.11205	1915.2
2934.58258	1916.5
2937.05161	1901.9
2939.51912	1902
2941.98513	1922.9
2944.44962	1896.1
2946.91261	1878.8
2949.37409	1890.9
2951.83407	1887.1
2954.29254	1875.2
2956.74951	1898.6
2959.20498	1872.8
2961.65895	1878.8
2964.11142	1866.2
2966.56239	1876.9
2969.01186	1875.5
2971.45984	1866.5
2973.90632	1853.1
2976.35131	1876.1
2978.7948	1880.9
2981.23681	1856
2983.67732	1865.3
2986.11635	1866.4
2988.55388	1841.7
2990.98993	1854.2
2993.4245	1841.2
2995.85758	1831.8
2998.28917	1841
3000.71928	1831.8
3003.14791	1835.6
3005.57506	1830.3
3008.00073	1803.1
3010.42493	1756
3012.84764	1807.1
3015.26888	1804.9
3017.68865	1800.2
3020.10694	1758.8
3022.52376	1773.8
3024.9391	1760.7
3027.35298	1754.1
3029.76539	1745.1
3032.17632	1738.5
3034.5858	1724.5
3036.9938	1733.9
3039.40034	1711.6
3041.80542	1698.7
3044.20903	1688.6
3046.61118	1683.3
3049.01187	1689.1
3051.4111	1670.4
3053.80888	1657.4
3056.20519	1661.9
3058.60005	1649.8
3060.99345	1676
3063.3854	1640
3065.7759	1639.4
3068.16494	1623.7
3070.55254	1614.5
3072.93868	1635.5
3075.32338	1622.3
3077.70662	1630
3080.08842	1613.5
3082.46878	1600.2
3084.84769	1616.3
3087.22515	1593.7
3089.60118	1614.5
3091.97576	1595.6
3094.3489	1596.3
3096.72061	1589.1
3099.09087	1579.6
3101.4597	1590
3103.82709	1569.2
3106.19305	1575.3
3108.55757	1581
3110.92066	1566.5
3113.28232	1582.2
3115.64255	1590.3
3118.00134	1583.5
3120.35871	1555.5
3122.71466	1548.3
3125.06917	1554.2
3127.42226	1553.1
3129.77393	1538
3132.12417	1558.8
3134.47299	1552.1
3136.82039	1538.8
3139.16636	1524.4
3141.51092	1539.6
3143.85406	1537.4
3146.19579	1522.7
3148.53609	1527.2
3150.87499	1536.3
3153.21246	1531.8
3155.54853	1539
3157.88318	1538.1
3160.21642	1540.6
3162.54826	1540.9
3164.87868	1540.8
3167.2077	1510.7
3169.5353	1521.5
3171.86151	1533.1
3174.18631	1514.2
3176.5097	1494.6
3178.83169	1511.3
3181.15228	1504.7
3183.47147	1483
3185.78926	1457.1
3188.10565	1475.9
3190.42065	1460.9
3192.73424	1464.4
3195.04645	1453.5
3197.35725	1450.2
3199.66667	1468.6
3201.97469	1455.3
3204.28132	1449.9
3206.58656	1463.6
3208.8904	1469.3
3211.19287	1460.1
3213.49394	1463.7
3215.79363	1451.1
3218.09193	1466.1
3220.38884	1474.4
3222.68438	1460.6
3224.97853	1443.7
3227.2713	1456.9
3229.56269	1449.5
3231.8527	1442
3234.14133	1431.6
3236.42858	1437.6
3238.71446	1408.7
3240.99896	1434.6
3243.28209	1405.1
3245.56384	1420.9
3247.84423	1416.4
3250.12324	1414.7
3252.40088	1416.1
3254.67715	1405.6
3256.95205	1393.8
3259.22558	1412.9
3261.49775	1398.9
3263.76855	1404.7
3266.03799	1400.8
3268.30606	1401.8
3270.57277	1406.4
3272.83812	1391.4
3275.10211	1390.9
3277.36474	1410.3
3279.62601	1403
3281.88593	1383
3284.14448	1370.9
3286.40168	1404.1
3288.65753	1386.6
3290.91202	1394.9
3293.16516	1383.4
3295.41695	1415.5
3297.66738	1416.9
3299.91647	1401.1
3302.16421	1397.2
3304.4106	1361.2
3306.65564	1390.6
3308.89933	1355
3311.14169	1360.4
3313.38269	1343.2
3315.62236	1332
3317.86068	1328.5
3320.09766	1335.1
3322.3333	1293.4
3324.5676	1301.3
3326.80056	1292
3329.03219	1291.3
3331.26248	-0.8
3333.49143	0.4
3335.71905	2
