Data from AgNPs_UA_20uM_CRN_500uM_SU_RamanShift__54__13-45-30-301.txt Node

Date: Thu Aug 04 13:45:30 BST 2022
User: TCL
Spectrometer: QEP01345
Trigger mode: 4
Integration Time (sec): 1.000000E0
Scans to average: 10
Electric dark correction enabled: true
Nonlinearity correction enabled: false
Boxcar width: 0
XAxis mode: Raman Shifts
Number of Pixels in Spectrum: 1044
>>>>>Begin Spectral Data<<<<<
46.04893	-2.1125
50.45542	0.3875
54.85868	0.7875
59.25871	0.0875
63.6555	17.4875
68.04907	16.0875
72.43941	20.2875
76.82654	18.8875
81.21044	19.3875
85.59113	19.5875
89.96862	19.6875
94.34289	21.3875
98.71396	21.4875
103.08183	20.2875
107.4465	21.7875
111.80798	23.1875
116.16626	23.9875
120.52136	29.3875
124.87327	25.7875
129.222	28.8875
133.56755	29.9875
137.90993	32.4875
142.24913	34.9875
146.58517	40.1875
150.91804	46.9875
155.24774	57.8875
159.57429	70.5875
163.89768	91.9875
168.21792	120.9875
172.53501	168.4875
176.84895	232.8875
181.15975	339.0875
185.46741	469.7875
189.77193	652.7875
194.07331	876.0875
198.37157	1120.6875
202.6667	1398.1875
206.9587	1658.4875
211.24758	1922.4875
215.53334	2189.8875
219.81599	2464.7875
224.09553	2783.1875
228.37195	3138.9875
232.64527	3494.4875
236.91549	3885.9875
241.18261	4235.5875
245.44663	4525.2875
249.70755	4790.7875
253.96539	5035.9875
258.22014	5208.0875
262.4718	5386.6875
266.72039	5491.5875
270.96589	5548.3875
275.20832	5529.3875
279.44768	5485.3875
283.68397	5382.6875
287.91719	5332.7875
292.14735	5306.8875
296.37445	5366.0875
300.59849	5466.5875
304.81948	5643.9875
309.03742	5750.1875
313.25231	5806.1875
317.46415	5746.2875
321.67296	5584.4875
325.87872	5399.3875
330.08145	5351.6875
334.28114	5357.7875
338.47781	5428.6875
342.67145	5533.2875
346.86207	5685.1875
351.04966	5858.4875
355.23424	6061.5875
359.4158	6209.6875
363.59435	6335.3875
367.76989	6385.1875
371.94243	6412.0875
376.11196	6459.3875
380.27849	6453.6875
384.44203	6489.3875
388.60257	6521.0875
392.76012	6583.9875
396.91468	6672.3875
401.06626	6782.2875
405.21485	6811.0875
409.36047	6766.2875
413.50311	6592.5875
417.64277	6435.1875
421.77947	6338.4875
425.9132	6301.4875
430.04396	6312.0875
434.17176	6369.9875
438.2966	6475.9875
442.41849	6665.6875
446.53742	6858.6875
450.6534	7063.2875
454.76644	7204.1875
458.87653	7198.9875
462.98368	7146.4875
467.08789	7048.4875
471.18916	6897.1875
475.2875	6687.6875
479.38291	6553.9875
483.4754	6476.6875
487.56496	6414.6875
491.6516	6365.5875
495.73531	6335.9875
499.81612	6336.1875
503.89401	6366.6875
507.96899	6437.5875
512.04106	6447.8875
516.11023	6540.0875
520.1765	6563.4875
524.23987	6573.3875
528.30034	6564.8875
532.35792	6537.6875
536.41261	6468.9875
540.46441	6404.9875
544.51333	6374.0875
548.55936	6410.4875
552.60252	6517.0875
556.64279	6608.7875
560.6802	6652.5875
564.71473	6687.6875
568.7464	6754.2875
572.7752	6743.4875
576.80114	6638.2875
580.82422	6580.8875
584.84444	6593.4875
588.86181	6713.7875
592.87633	6867.6875
596.888	7055.8875
600.89682	7308.0875
604.9028	7999.5875
608.90594	9410.8875
612.90624	10675.7875
616.90371	9824.2875
620.89834	7914.6875
624.89015	7266.6875
628.87913	7192.1875
632.86528	7173.8875
636.84862	7074.9875
640.82913	6872.5875
644.80683	6641.6875
648.78172	6510.8875
652.75379	6559.3875
656.72306	6764.1875
660.68952	6960.3875
664.65319	6926.8875
668.61405	6834.1875
672.57211	6816.1875
676.52738	6817.6875
680.47986	6688.5875
684.42955	6625.3875
688.37646	6624.2875
692.32058	6685.2875
696.26192	6791.1875
700.20048	6896.8875
704.13626	6910.8875
708.06928	6828.8875
711.99952	6757.1875
715.927	6754.9875
719.85171	6793.3875
723.77365	6782.9875
727.69284	6712.3875
731.60928	6691.8875
735.52295	6696.0875
739.43388	6732.2875
743.34206	6764.5875
747.24749	6807.1875
751.15017	6834.8875
755.05012	6901.7875
758.94733	7135.1875
762.8418	7616.8875
766.73354	8333.0875
770.62254	9002.5875
774.50882	9179.9875
778.39237	8841.0875
782.27321	8211.4875
786.15132	7562.2875
790.02671	7151.1875
793.89938	6946.9875
797.76935	6881.6875
801.6366	6839.3875
805.50115	6799.2875
809.36299	6753.1875
813.22213	6729.1875
817.07857	6747.4875
820.93231	6756.1875
824.78336	6741.5875
828.63172	6782.6875
832.47738	6781.9875
836.32036	6794.4875
840.16066	6794.0875
843.99827	6836.9875
847.8332	6833.8875
851.66546	6822.7875
855.49504	6807.5875
859.32195	6825.3875
863.1462	6804.0875
866.96777	6774.1875
870.78668	6757.2875
874.60293	6766.2875
878.41652	6785.7875
882.22745	6829.9875
886.03573	6870.0875
889.84136	6861.5875
893.64433	6824.2875
897.44466	6796.8875
901.24235	6802.3875
905.0374	6773.4875
908.8298	6760.2875
912.61957	6744.0875
916.40671	6791.7875
920.19121	6851.4875
923.97308	6954.2875
927.75233	7021.2875
931.52895	7075.3875
935.30295	7019.7875
939.07433	6901.9875
942.84309	6798.6875
946.60924	6770.0875
950.37278	6744.5875
954.13371	6692.7875
957.89203	6667.1875
961.64774	6644.2875
965.40086	6636.3875
969.15137	6616.6875
972.89929	6624.1875
976.64461	6632.2875
980.38733	6655.6875
984.12747	6657.6875
987.86502	6725.2875
991.59999	6820.0875
995.33237	6957.4875
999.06217	7193.8875
1002.78939	7428.6875
1006.51404	7506.1875
1010.23611	7570.1875
1013.95561	7633.0875
1017.67255	7727.6875
1021.38692	7714.4875
1025.09872	7709.8875
1028.80796	7830.0875
1032.51465	8051.6875
1036.21877	8197.5875
1039.92035	8138.5875
1043.61937	8004.3875
1047.31584	7801.9875
1051.00976	7585.4875
1054.70114	7515.4875
1058.38998	7499.7875
1062.07627	7510.9875
1065.76003	7531.3875
1069.44126	7564.7875
1073.11995	7627.5875
1076.79611	7705.8875
1080.46974	7796.9875
1084.14085	7877.3875
1087.80943	7945.9875
1091.47549	7952.4875
1095.13903	7872.7875
1098.80005	7789.6875
1102.45857	7738.1875
1106.11456	7690.3875
1109.76805	7702.4875
1113.41903	7750.1875
1117.06751	7864.3875
1120.71348	7981.3875
1124.35696	8138.2875
1127.99793	8217.9875
1131.63641	8099.7875
1135.2724	7925.5875
1138.90589	7763.6875
1142.5369	7597.2875
1146.16542	7539.1875
1149.79145	7501.5875
1153.415	7500.0875
1157.03607	7526.4875
1160.65467	7579.3875
1164.27079	7780.1875
1167.88443	8035.8875
1171.49561	8425.1875
1175.10432	9052.4875
1178.71056	9855.0875
1182.31434	10616.5875
1185.91565	10975.8875
1189.51451	10977.2875
1193.11091	10660.7875
1196.70485	10135.6875
1200.29634	9726.2875
1203.88538	9290.0875
1207.47197	8949.2875
1211.05612	8615.4875
1214.63782	8392.7875
1218.21708	8354.5875
1221.79391	8360.5875
1225.36829	8439.7875
1228.94024	8425.6875
1232.50976	8356.4875
1236.07685	8283.2875
1239.6415	8313.5875
1243.20374	8334.1875
1246.76355	8412.8875
1250.32093	8516.0875
1253.8759	8682.6875
1257.42845	8955.6875
1260.97859	9190.2875
1264.52631	9391.9875
1268.07163	9574.9875
1271.61453	9738.1875
1275.15503	9897.5875
1278.69312	10075.0875
1282.22882	10223.4875
1285.76211	10349.6875
1289.29301	10484.5875
1292.82151	10669.5875
1296.34761	10922.7875
1299.87133	11334.1875
1303.39266	11986.4875
1306.9116	12923.8875
1310.42815	13830.0875
1313.94233	14219.5875
1317.45412	13909.6875
1320.96354	13194.6875
1324.47058	12462.5875
1327.97525	11881.0875
1331.47754	11638.4875
1334.97747	11641.1875
1338.47502	11868.3875
1341.97022	12200.4875
1345.46305	12603.4875
1348.95352	13096.1875
1352.44163	13680.9875
1355.92738	14414.9875
1359.41078	15381.4875
1362.89183	15983.4875
1366.37053	15174.7875
1369.84688	13342.7875
1373.32088	11690.2875
1376.79254	10718.0875
1380.26186	10239.8875
1383.72883	9982.5875
1387.19347	9766.0875
1390.65578	9465.0875
1394.11575	9243.4875
1397.57339	9092.4875
1401.0287	9083.2875
1404.48168	9175.8875
1407.93234	9307.6875
1411.38068	9485.5875
1414.82669	9627.9875
1418.27039	9570.1875
1421.71177	9451.1875
1425.15083	9388.8875
1428.58758	9406.2875
1432.02203	9537.2875
1435.45416	9664.2875
1438.88399	9668.7875
1442.31151	9618.8875
1445.73673	9540.8875
1449.15965	9513.8875
1452.58027	9413.6875
1455.9986	9296.5875
1459.41463	9256.5875
1462.82837	9357.1875
1466.23982	9520.0875
1469.64898	9674.1875
1473.05586	9810.8875
1476.46045	9931.2875
1479.86276	10057.5875
1483.26279	10143.3875
1486.66054	10303.8875
1490.05602	10498.3875
1493.44922	10838.5875
1496.84016	11291.1875
1500.22882	11973.1875
1503.61521	12797.6875
1506.99934	13562.3875
1510.38121	13948.6875
1513.76081	13724.8875
1517.13816	12900.9875
1520.51324	11901.6875
1523.88607	11079.7875
1527.25665	10650.9875
1530.62498	10393.5875
1533.99105	10254.9875
1537.35488	10206.4875
1540.71647	10147.6875
1544.07581	10056.5875
1547.4329	9929.6875
1550.78776	9782.2875
1554.14038	9679.3875
1557.49077	9612.7875
1560.83892	9618.9875
1564.18484	9741.6875
1567.52853	9850.1875
1570.86999	9921.0875
1574.20922	9895.3875
1577.54624	9754.2875
1580.88103	9484.9875
1584.2136	9214.1875
1587.54395	9168.7875
1590.87208	9477.2875
1594.19801	10079.4875
1597.52172	10851.0875
1600.84321	11298.3875
1604.16251	11188.1875
1607.47959	10641.2875
1610.79447	9981.0875
1614.10715	9256.0875
1617.41763	8678.0875
1620.7259	8304.6875
1624.03199	8130.9875
1627.33587	8121.9875
1630.63757	8342.2875
1633.93707	8762.9875
1637.23439	9391.4875
1640.52951	10216.3875
1643.82246	11100.6875
1647.11321	11783.5875
1650.40179	11750.0875
1653.68819	10894.8875
1656.97241	9653.3875
1660.25446	8520.7875
1663.53433	7786.6875
1666.81203	7343.5875
1670.08756	7088.5875
1673.36092	6931.1875
1676.63211	6806.0875
1679.90115	6712.1875
1683.16801	6649.6875
1686.43272	6598.2875
1689.69527	6566.7875
1692.95567	6542.9875
1696.2139	6517.6875
1699.46999	6489.0875
1702.72392	6503.5875
1705.97571	6504.7875
1709.22535	6505.2875
1712.47284	6484.4875
1715.71819	6489.0875
1718.96139	6463.6875
1722.20246	6462.4875
1725.44139	6436.8875
1728.67818	6407.0875
1731.91284	6374.7875
1735.14537	6338.5875
1738.37576	6333.9875
1741.60403	6303.2875
1744.83017	6290.3875
1748.05418	6302.7875
1751.27607	6274.8875
1754.49584	6252.7875
1757.71349	6252.8875
1760.92903	6228.9875
1764.14244	6238.4875
1767.35375	6229.2875
1770.56294	6209.8875
1773.77002	6226.7875
1776.97499	6187.4875
1780.17785	6194.1875
1783.37861	6171.2875
1786.57727	6169.4875
1789.77382	6149.9875
1792.96828	6138.9875
1796.16064	6127.3875
1799.3509	6127.2875
1802.53907	6107.9875
1805.72514	6106.9875
1808.90913	6094.0875
1812.09102	6088.8875
1815.27083	6061.2875
1818.44856	6051.8875
1821.6242	6042.5875
1824.79776	6042.0875
1827.96924	6046.6875
1831.13864	6024.2875
1834.30597	6023.2875
1837.47122	5990.6875
1840.6344	5995.7875
1843.7955	5988.4875
1846.95454	5980.1875
1850.11151	5988.8875
1853.26642	5972.2875
1856.41926	5982.1875
1859.57004	5973.2875
1862.71876	5964.6875
1865.86542	5974.7875
1869.01003	5953.6875
1872.15258	5952.5875
1875.29308	5969.8875
1878.43152	5951.0875
1881.56792	5941.2875
1884.70227	5947.4875
1887.83457	5949.7875
1890.96482	5950.8875
1894.09304	5908.6875
1897.21921	5880.2875
1900.34335	5892.4875
1903.46544	5890.6875
1906.58551	5902.9875
1909.70353	5886.9875
1912.81953	5891.4875
1915.93349	5882.9875
1919.04543	5870.0875
1922.15534	5871.0875
1925.26322	5852.2875
1928.36908	5845.6875
1931.47292	5829.9875
1934.57473	5824.8875
1937.67453	5826.6875
1940.77232	5806.4875
1943.86808	5790.7875
1946.96184	5782.7875
1950.05358	5780.4875
1953.14331	5745.7875
1956.23103	5735.3875
1959.31675	5698.6875
1962.40046	5671.9875
1965.48217	5652.5875
1968.56188	5651.8875
1971.63959	5642.1875
1974.7153	5606.7875
1977.78901	5598.6875
1980.86073	5591.7875
1983.93046	5575.9875
1986.99819	5569.2875
1990.06394	5535.5875
1993.1277	5514.4875
1996.18947	5505.7875
1999.24925	5473.3875
2002.30706	5468.8875
2005.36288	5457.7875
2008.41672	5414.2875
2011.46859	5400.2875
2014.51848	5402.0875
2017.56639	5385.7875
2020.61233	5375.9875
2023.6563	5374.8875
2026.6983	5354.3875
2029.73833	5334.2875
2032.7764	5331.9875
2035.8125	5315.7875
2038.84664	5312.5875
2041.87881	5308.5875
2044.90903	5289.6875
2047.93729	5285.8875
2050.96359	5297.1875
2053.98794	5289.0875
2057.01034	5268.4875
2060.03078	5281.2875
2063.04927	5250.4875
2066.06582	5251.9875
2069.08042	5240.4875
2072.09307	5245.4875
2075.10378	5252.6875
2078.11255	5239.6875
2081.11938	5216.8875
2084.12426	5208.5875
2087.12722	5214.9875
2090.12824	5225.4875
2093.12732	5218.0875
2096.12447	5207.0875
2099.11969	5215.9875
2102.11299	5210.0875
2105.10435	5222.3875
2108.09379	5207.8875
2111.08131	5215.6875
2114.0669	5191.8875
2117.05057	5207.3875
2120.03233	5225.2875
2123.01216	5210.3875
2125.99008	5219.1875
2128.96609	5233.6875
2131.94018	5233.7875
2134.91236	5229.7875
2137.88263	5229.7875
2140.851	5236.0875
2143.81746	5236.8875
2146.78201	5227.5875
2149.74466	5229.5875
2152.7054	5235.1875
2155.66425	5224.4875
2158.6212	5225.8875
2161.57625	5239.6875
2164.52941	5218.9875
2167.48067	5218.1875
2170.43004	5204.9875
2173.37752	5215.4875
2176.32311	5214.1875
2179.26681	5214.3875
2182.20863	5211.0875
2185.14856	5216.8875
2188.08661	5220.0875
2191.02278	5224.2875
2193.95707	5224.6875
2196.88948	5212.8875
2199.82001	5208.5875
2202.74867	5199.4875
2205.67545	5225.7875
2208.60037	5229.8875
2211.52341	5201.6875
2214.44458	5200.9875
2217.36388	5169.6875
2220.28132	5156.9875
2223.1969	5155.3875
2226.11061	5146.5875
2229.02246	5129.0875
2231.93245	5118.0875
2234.84058	5092.4875
2237.74686	5103.7875
2240.65128	5097.6875
2243.55385	5093.5875
2246.45456	5093.9875
2249.35343	5090.5875
2252.25044	5069.5875
2255.14561	5069.4875
2258.03893	5074.6875
2260.93041	5049.9875
2263.82004	5048.0875
2266.70783	5032.1875
2269.59378	5028.5875
2272.4779	5002.2875
2275.36017	4989.4875
2278.24061	4973.3875
2281.11922	4962.2875
2283.996	4960.4875
2286.87094	4939.0875
2289.74405	4935.0875
2292.61534	4930.8875
2295.4848	4934.4875
2298.35243	4930.7875
2301.21824	4930.0875
2304.08223	4918.9875
2306.94439	4944.8875
2309.80474	4943.5875
2312.66327	4947.7875
2315.51999	4933.8875
2318.37489	4925.8875
2321.22797	4931.1875
2324.07925	4929.9875
2326.92871	4920.4875
2329.77637	4897.3875
2332.62222	4905.9875
2335.46626	4901.7875
2338.3085	4898.1875
2341.14893	4893.6875
2343.98756	4910.8875
2346.8244	4906.8875
2349.65943	4906.5875
2352.49267	4898.6875
2355.32411	4890.5875
2358.15376	4884.1875
2360.98161	4886.8875
2363.80768	4865.5875
2366.63195	4872.4875
2369.45444	4860.2875
2372.27514	4846.7875
2375.09405	4835.0875
2377.91118	4834.9875
2380.72652	4836.6875
2383.54009	4816.0875
2386.35187	4816.2875
2389.16188	4794.2875
2391.97011	4788.6875
2394.77657	4774.2875
2397.58125	4764.0875
2400.38416	4761.1875
2403.18529	4756.3875
2405.98466	4743.2875
2408.78226	4734.9875
2411.57809	4719.1875
2414.37216	4693.8875
2417.16446	4699.4875
2419.955	4700.5875
2422.74378	4691.5875
2425.5308	4674.9875
2428.31606	4676.8875
2431.09956	4669.1875
2433.88131	4677.7875
2436.6613	4670.6875
2439.43954	4662.0875
2442.21603	4673.8875
2444.99077	4680.4875
2447.76377	4660.0875
2450.53501	4654.6875
2453.30451	4638.3875
2456.07226	4650.4875
2458.83827	4636.0875
2461.60254	4634.1875
2464.36507	4626.8875
2467.12586	4621.1875
2469.88492	4617.3875
2472.64224	4637.3875
2475.39782	4621.7875
2478.15167	4612.2875
2480.90379	4625.4875
2483.65417	4617.1875
2486.40283	4622.7875
2489.14976	4643.0875
2491.89497	4632.5875
2494.63845	4632.1875
2497.3802	4643.1875
2500.12024	4630.1875
2502.85855	4607.0875
2505.59514	4597.9875
2508.33002	4601.6875
2511.06318	4572.5875
2513.79462	4566.8875
2516.52435	4568.6875
2519.25237	4564.5875
2521.97867	4557.2875
2524.70327	4548.2875
2527.42616	4549.2875
2530.14734	4556.6875
2532.86681	4543.9875
2535.58458	4545.1875
2538.30065	4541.8875
2541.01501	4542.7875
2543.72768	4546.7875
2546.43864	4538.1875
2549.14791	4536.6875
2551.85548	4523.5875
2554.56136	4517.7875
2557.26554	4529.8875
2559.96803	4512.9875
2562.66883	4501.2875
2565.36794	4494.2875
2568.06536	4463.1875
2570.7611	4460.1875
2573.45514	4462.3875
2576.14751	4471.7875
2578.83819	4451.1875
2581.52719	4449.7875
2584.21451	4455.9875
2586.90015	4442.6875
2589.58411	4422.1875
2592.2664	4434.1875
2594.94701	4443.1875
2597.62594	4434.2875
2600.30321	4438.7875
2602.9788	4416.7875
2605.65273	4421.9875
2608.32498	4401.4875
2610.99557	4411.5875
2613.66449	4417.3875
2616.33175	4407.3875
2618.99734	4402.7875
2621.66128	4398.2875
2624.32355	4412.0875
2626.98416	4410.7875
2629.64311	4426.6875
2632.30041	4413.7875
2634.95605	4384.0875
2637.61004	4381.1875
2640.26238	4384.8875
2642.91306	4376.3875
2645.56209	4366.4875
2648.20948	4364.7875
2650.85521	4378.3875
2653.4993	4342.9875
2656.14175	4355.0875
2658.78255	4359.5875
2661.42171	4360.4875
2664.05923	4362.7875
2666.6951	4385.6875
2669.32934	4381.4875
2671.96194	4371.6875
2674.59291	4358.6875
2677.22224	4353.3875
2679.84993	4352.6875
2682.476	4351.4875
2685.10043	4341.1875
2687.72324	4346.8875
2690.34441	4342.7875
2692.96396	4343.9875
2695.58188	4329.8875
2698.19818	4323.5875
2700.81285	4324.6875
2703.4259	4333.0875
2706.03733	4334.6875
2708.64714	4303.8875
2711.25533	4321.2875
2713.86191	4294.9875
2716.46687	4313.9875
2719.07021	4315.5875
2721.67194	4337.6875
2724.27206	4329.2875
2726.87057	4332.0875
2729.46747	4330.2875
2732.06276	4315.8875
2734.65644	4316.9875
2737.24852	4308.4875
2739.83899	4298.7875
2742.42786	4305.8875
2745.01513	4294.6875
2747.60079	4291.5875
2750.18486	4291.5875
2752.76733	4300.8875
2755.3482	4282.5875
2757.92747	4276.8875
2760.50515	4272.9875
2763.08123	4269.5875
2765.65573	4258.1875
2768.22863	4266.8875
2770.79994	4256.9875
2773.36967	4267.4875
2775.9378	4263.2875
2778.50435	4242.4875
2781.06932	4235.7875
2783.6327	4246.7875
2786.1945	4242.7875
2788.75471	4237.8875
2791.31335	4225.7875
2793.87041	4223.3875
2796.42589	4202.7875
2798.97979	4200.0875
2801.53212	4201.9875
2804.08288	4188.7875
2806.63206	4181.6875
2809.17967	4168.6875
2811.72571	4151.5875
2814.27018	4168.4875
2816.81308	4160.2875
2819.35442	4151.6875
2821.89419	4131.4875
2824.43239	4131.4875
2826.96904	4110.2875
2829.50412	4121.3875
2832.03763	4117.9875
2834.56959	4119.7875
2837.1	4101.6875
2839.62884	4115.0875
2842.15613	4099.5875
2844.68186	4107.5875
2847.20604	4103.4875
2849.72867	4091.3875
2852.24974	4083.1875
2854.76927	4062.1875
2857.28724	4054.3875
2859.80367	4052.7875
2862.31855	4039.0875
2864.83189	4047.6875
2867.34368	4040.6875
2869.85393	4034.1875
2872.36264	4035.4875
2874.8698	4020.2875
2877.37543	4021.8875
2879.87952	4021.8875
2882.38207	4012.0875
2884.88308	4012.4875
2887.38256	4002.3875
2889.88051	4009.7875
2892.37692	3999.0875
2894.8718	3987.2875
2897.36515	4014.9875
2899.85698	4007.2875
2902.34727	4001.7875
2904.83604	4004.7875
2907.32328	4022.8875
2909.809	4015.7875
2912.29319	4015.9875
2914.77587	4019.0875
2917.25702	4010.7875
2919.73665	4012.8875
2922.21476	4022.4875
2924.69136	4011.9875
2927.16644	3999.9875
2929.64	3991.0875
2932.11205	3984.9875
2934.58258	3986.4875
2937.05161	3972.7875
2939.51912	3972.8875
2941.98513	3966.9875
2944.44962	3959.1875
2946.91261	3954.2875
2949.37409	3958.0875
2951.83407	3958.3875
2954.29254	3965.1875
2956.74951	3953.4875
2959.20498	3944.4875
2961.65895	3942.0875
2964.11142	3932.7875
2966.56239	3922.9875
2969.01186	3944.3875
2971.45984	3940.1875
2973.90632	3919.6875
2976.35131	3904.3875
2978.7948	3897.3875
2981.23681	3879.2875
2983.67732	3889.4875
2986.11635	3873.6875
2988.55388	3869.7875
2990.98993	3869.0875
2993.4245	3848.7875
2995.85758	3850.4875
2998.28917	3834.9875
3000.71928	3823.2875
3003.14791	3813.0875
3005.57506	3802.6875
3008.00073	3778.5875
3010.42493	3779.7875
3012.84764	3765.3875
3015.26888	3762.1875
3017.68865	3755.1875
3020.10694	3752.9875
3022.52376	3736.6875
3024.9391	3735.7875
3027.35298	3712.2875
3029.76539	3700.8875
3032.17632	3693.9875
3034.5858	3700.2875
3036.9938	3716.8875
3039.40034	3692.5875
3041.80542	3691.4875
3044.20903	3679.1875
3046.61118	3672.6875
3049.01187	3663.4875
3051.4111	3666.5875
3053.80888	3656.6875
3056.20519	3642.7875
3058.60005	3631.2875
3060.99345	3624.5875
3063.3854	3624.3875
3065.7759	3596.8875
3068.16494	3599.8875
3070.55254	3585.4875
3072.93868	3577.1875
3075.32338	3554.8875
3077.70662	3549.7875
3080.08842	3536.4875
3082.46878	3524.5875
3084.84769	3518.4875
3087.22515	3515.9875
3089.60118	3510.3875
3091.97576	3520.8875
3094.3489	3524.6875
3096.72061	3500.8875
3099.09087	3497.7875
3101.4597	3514.5875
3103.82709	3505.0875
3106.19305	3489.5875
3108.55757	3477.5875
3110.92066	3497.4875
3113.28232	3477.8875
3115.64255	3461.7875
3118.00134	3458.0875
3120.35871	3447.4875
3122.71466	3435.8875
3125.06917	3466.8875
3127.42226	3431.9875
3129.77393	3417.6875
3132.12417	3426.2875
3134.47299	3422.4875
3136.82039	3400.7875
3139.16636	3404.6875
3141.51092	3395.8875
3143.85406	3413.7875
3146.19579	3401.1875
3148.53609	3403.7875
3150.87499	3398.3875
3153.21246	3391.0875
3155.54853	3396.9875
3157.88318	3395.6875
3160.21642	3385.4875
3162.54826	3389.2875
3164.87868	3384.1875
3167.2077	3373.3875
3169.5353	3372.8875
3171.86151	3373.9875
3174.18631	3372.6875
3176.5097	3351.5875
3178.83169	3343.4875
3181.15228	3355.0875
3183.47147	3347.8875
3185.78926	3342.4875
3188.10565	3325.2875
3190.42065	3312.2875
3192.73424	3328.4875
3195.04645	3311.5875
3197.35725	3301.1875
3199.66667	3303.4875
3201.97469	3304.3875
3204.28132	3293.2875
3206.58656	3300.5875
3208.8904	3287.9875
3211.19287	3305.0875
3213.49394	3318.9875
3215.79363	3322.2875
3218.09193	3301.2875
3220.38884	3286.9875
3222.68438	3294.5875
3224.97853	3289.7875
3227.2713	3290.4875
3229.56269	3290.4875
3231.8527	3271.1875
3234.14133	3276.5875
3236.42858	3267.0875
3238.71446	3265.4875
3240.99896	3250.5875
3243.28209	3248.0875
3245.56384	3240.8875
3247.84423	3250.8875
3250.12324	3235.1875
3252.40088	3228.4875
3254.67715	3222.1875
3256.95205	3210.4875
3259.22558	3213.4875
3261.49775	3210.7875
3263.76855	3215.1875
3266.03799	3230.0875
3268.30606	3207.1875
3270.57277	3222.8875
3272.83812	3211.3875
3275.10211	3193.1875
3277.36474	3189.0875
3279.62601	3178.0875
3281.88593	3172.8875
3284.14448	3168.6875
3286.40168	3164.2875
3288.65753	3171.1875
3290.91202	3163.6875
3293.16516	3159.4875
3295.41695	3148.0875
3297.66738	3131.9875
3299.91647	3123.1875
3302.16421	3086.4875
3304.4106	3084.6875
3306.65564	3058.0875
3308.89933	3033.6875
3311.14169	3017.6875
3313.38269	2991.3875
3315.62236	2978.0875
3317.86068	2927.8875
3320.09766	2919.0875
3322.3333	2894.9875
3324.5676	2882.4875
3326.80056	2835.5875
3329.03219	2828.2875
3331.26248	1.3875
3333.49143	-1.2125
3335.71905	-0.6125
