Data from AgNPs_UA_5uM_CRN_500uM_SU_RamanShift__165__11-56-53-172.txt Node

Date: Thu Aug 04 11:56:53 BST 2022
User: TCL
Spectrometer: QEP01345
Trigger mode: 4
Integration Time (sec): 1.000000E0
Scans to average: 10
Electric dark correction enabled: true
Nonlinearity correction enabled: false
Boxcar width: 0
XAxis mode: Raman Shifts
Number of Pixels in Spectrum: 1044
>>>>>Begin Spectral Data<<<<<
46.04893	0.025
50.45542	0.525
54.85868	0.725
59.25871	-1.175
63.6555	-57.375
68.04907	-39.475
72.43941	-72.175
76.82654	-56.975
81.21044	-56.475
85.59113	-47.875
89.96862	-76.375
94.34289	-55.875
98.71396	-77.975
103.08183	-58.075
107.4465	-49.075
111.80798	-56.775
116.16626	-44.175
120.52136	-73.875
124.87327	-48.375
129.222	-64.575
133.56755	-50.575
137.90993	-62.775
142.24913	-50.875
146.58517	-42.775
150.91804	-39.475
155.24774	-28.275
159.57429	-9.275
163.89768	-6.775
168.21792	41.125
172.53501	61.225
176.84895	141.525
181.15975	274.425
185.46741	424.425
189.77193	611.425
194.07331	901.625
198.37157	1188.925
202.6667	1477.425
206.9587	1805.425
211.24758	2114.025
215.53334	2434.625
219.81599	2802.125
224.09553	3215.925
228.37195	3653.725
232.64527	4095.925
236.91549	4593.925
241.18261	4942.425
245.44663	5230.025
249.70755	5417.725
253.96539	5563.325
258.22014	5662.825
262.4718	5728.225
266.72039	5764.225
270.96589	5715.225
275.20832	5636.625
279.44768	5535.825
283.68397	5422.525
287.91719	5332.625
292.14735	5385.225
296.37445	5545.525
300.59849	5808.625
304.81948	6156.925
309.03742	6532.525
313.25231	6751.025
317.46415	6700.025
321.67296	6306.525
325.87872	5915.225
330.08145	5710.525
334.28114	5684.425
338.47781	5748.825
342.67145	5903.425
346.86207	6133.425
351.04966	6519.325
355.23424	6888.725
359.4158	7174.625
363.59435	7207.525
367.76989	7156.925
371.94243	7009.825
376.11196	6903.025
380.27849	6826.725
384.44203	6750.825
388.60257	6707.225
392.76012	6724.325
396.91468	6842.125
401.06626	7003.125
405.21485	7012.625
409.36047	6889.325
413.50311	6548.625
417.64277	6264.825
421.77947	6084.125
425.9132	5995.525
430.04396	6006.325
434.17176	6029.125
438.2966	6126.525
442.41849	6220.125
446.53742	6333.325
450.6534	6447.625
454.76644	6503.025
458.87653	6518.625
462.98368	6493.725
467.08789	6442.425
471.18916	6335.425
475.2875	6253.125
479.38291	6147.525
483.4754	6034.025
487.56496	6007.325
491.6516	5955.625
495.73531	5972.625
499.81612	5995.125
503.89401	6098.625
507.96899	6123.125
512.04106	6230.025
516.11023	6330.225
520.1765	6398.825
524.23987	6442.425
528.30034	6437.925
532.35792	6355.625
536.41261	6294.425
540.46441	6207.125
544.51333	6175.525
548.55936	6209.325
552.60252	6333.825
556.64279	6444.525
560.6802	6542.225
564.71473	6708.525
568.7464	6916.625
572.7752	6865.325
576.80114	6554.825
580.82422	6284.525
584.84444	6184.625
588.86181	6180.225
592.87633	6218.925
596.888	6346.525
600.89682	6728.025
604.9028	7643.125
608.90594	9718.225
612.90624	12054.825
616.90371	11177.025
620.89834	8161.525
624.89015	6863.025
628.87913	6661.725
632.86528	6800.025
636.84862	6982.125
640.82913	6852.625
644.80683	6493.725
648.78172	6338.325
652.75379	6356.625
656.72306	6594.225
660.68952	6828.525
664.65319	6750.325
668.61405	6508.325
672.57211	6444.225
676.52738	6455.925
680.47986	6354.625
684.42955	6260.525
688.37646	6214.725
692.32058	6243.425
696.26192	6304.125
700.20048	6404.325
704.13626	6439.025
708.06928	6380.225
711.99952	6340.625
715.927	6323.825
719.85171	6361.725
723.77365	6424.325
727.69284	6402.225
731.60928	6394.525
735.52295	6345.925
739.43388	6399.125
743.34206	6412.225
747.24749	6441.625
751.15017	6437.925
755.05012	6526.125
758.94733	6883.125
762.8418	7729.525
766.73354	9014.525
770.62254	9971.125
774.50882	10067.825
778.39237	9591.525
782.27321	8692.725
786.15132	7648.625
790.02671	6994.325
793.89938	6618.225
797.76935	6497.225
801.6366	6404.525
805.50115	6382.625
809.36299	6356.825
813.22213	6334.325
817.07857	6359.625
820.93231	6367.025
824.78336	6374.525
828.63172	6422.425
832.47738	6415.625
836.32036	6423.325
840.16066	6386.525
843.99827	6372.625
847.8332	6354.425
851.66546	6378.425
855.49504	6378.125
859.32195	6429.225
863.1462	6388.125
866.96777	6402.325
870.78668	6381.825
874.60293	6415.125
878.41652	6424.625
882.22745	6502.525
886.03573	6554.425
889.84136	6534.325
893.64433	6534.025
897.44466	6516.225
901.24235	6528.025
905.0374	6517.725
908.8298	6457.825
912.61957	6414.025
916.40671	6395.325
920.19121	6436.125
923.97308	6516.425
927.75233	6571.925
931.52895	6656.525
935.30295	6631.825
939.07433	6472.525
942.84309	6343.725
946.60924	6329.025
950.37278	6300.625
954.13371	6285.125
957.89203	6269.425
961.64774	6293.025
965.40086	6287.425
969.15137	6254.125
972.89929	6286.825
976.64461	6281.425
980.38733	6303.525
984.12747	6312.725
987.86502	6303.425
991.59999	6340.425
995.33237	6419.525
999.06217	6487.025
1002.78939	6563.225
1006.51404	6720.525
1010.23611	6819.425
1013.95561	6861.925
1017.67255	6875.925
1021.38692	6841.925
1025.09872	6777.725
1028.80796	6685.825
1032.51465	6698.925
1036.21877	6685.925
1039.92035	6726.025
1043.61937	6761.825
1047.31584	6805.425
1051.00976	6859.725
1054.70114	6837.925
1058.38998	6840.125
1062.07627	6867.425
1065.76003	6895.725
1069.44126	6959.125
1073.11995	7032.325
1076.79611	7180.025
1080.46974	7334.525
1084.14085	7482.425
1087.80943	7609.525
1091.47549	7639.825
1095.13903	7578.825
1098.80005	7478.625
1102.45857	7346.225
1106.11456	7314.825
1109.76805	7279.025
1113.41903	7363.425
1117.06751	7532.725
1120.71348	7800.425
1124.35696	8149.825
1127.99793	8424.525
1131.63641	8285.825
1135.2724	7903.325
1138.90589	7578.925
1142.5369	7401.825
1146.16542	7293.325
1149.79145	7201.725
1153.415	7142.525
1157.03607	7136.825
1160.65467	7210.425
1164.27079	7409.725
1167.88443	7658.125
1171.49561	8071.325
1175.10432	8648.225
1178.71056	9501.425
1182.31434	10263.025
1185.91565	10511.325
1189.51451	10369.125
1193.11091	10127.825
1196.70485	9905.425
1200.29634	9687.725
1203.88538	9427.025
1207.47197	8989.325
1211.05612	8567.725
1214.63782	8186.825
1218.21708	7943.525
1221.79391	7796.625
1225.36829	7715.025
1228.94024	7677.925
1232.50976	7697.525
1236.07685	7736.025
1239.6415	7754.825
1243.20374	7787.325
1246.76355	7831.425
1250.32093	7898.525
1253.8759	7983.125
1257.42845	8155.825
1260.97859	8366.225
1264.52631	8603.025
1268.07163	8743.825
1271.61453	8856.525
1275.15503	8899.925
1278.69312	8899.625
1282.22882	8964.525
1285.76211	9160.825
1289.29301	9409.725
1292.82151	9679.625
1296.34761	9884.425
1299.87133	10269.125
1303.39266	10965.025
1306.9116	12084.225
1310.42815	13297.925
1313.94233	13731.725
1317.45412	12936.025
1320.96354	11804.525
1324.47058	10820.325
1327.97525	10080.425
1331.47754	9692.825
1334.97747	9609.025
1338.47502	9735.225
1341.97022	10086.725
1345.46305	10784.025
1348.95352	11804.525
1352.44163	13053.925
1355.92738	14350.525
1359.41078	15978.525
1362.89183	17409.325
1366.37053	16754.525
1369.84688	13958.025
1373.32088	11366.425
1376.79254	10051.025
1380.26186	9430.725
1383.72883	9051.525
1387.19347	8644.125
1390.65578	8330.225
1394.11575	8080.625
1397.57339	7936.525
1401.0287	7842.825
1404.48168	7816.325
1407.93234	7798.925
1411.38068	7824.225
1414.82669	7917.725
1418.27039	7993.725
1421.71177	7981.025
1425.15083	7879.125
1428.58758	7809.325
1432.02203	7856.725
1435.45416	7941.825
1438.88399	7924.225
1442.31151	7921.425
1445.73673	8000.025
1449.15965	8043.525
1452.58027	8063.725
1455.9986	8058.225
1459.41463	8062.025
1462.82837	8151.325
1466.23982	8328.425
1469.64898	8552.525
1473.05586	8705.425
1476.46045	8780.425
1479.86276	8828.225
1483.26279	8921.325
1486.66054	9115.625
1490.05602	9385.925
1493.44922	9890.325
1496.84016	10721.525
1500.22882	12072.725
1503.61521	13700.325
1506.99934	15412.525
1510.38121	16624.025
1513.76081	16506.025
1517.13816	14978.525
1520.51324	12889.025
1523.88607	11245.325
1527.25665	10276.025
1530.62498	9786.025
1533.99105	9575.725
1537.35488	9464.925
1540.71647	9373.225
1544.07581	9274.925
1547.4329	9153.925
1550.78776	9048.925
1554.14038	8955.825
1557.49077	8909.825
1560.83892	9027.725
1564.18484	9230.625
1567.52853	9529.825
1570.86999	9858.325
1574.20922	10000.025
1577.54624	9863.425
1580.88103	9389.925
1584.2136	8757.525
1587.54395	8399.425
1590.87208	8333.925
1594.19801	8489.625
1597.52172	8859.025
1600.84321	9012.525
1604.16251	8893.825
1607.47959	8675.125
1610.79447	8487.925
1614.10715	8218.225
1617.41763	7918.025
1620.7259	7646.325
1624.03199	7488.025
1627.33587	7444.925
1630.63757	7470.225
1633.93707	7700.725
1637.23439	8113.925
1640.52951	8781.825
1643.82246	9792.025
1647.11321	10882.825
1650.40179	11565.225
1653.68819	11215.325
1656.97241	10004.425
1660.25446	8650.825
1663.53433	7680.125
1666.81203	7101.025
1670.08756	6765.425
1673.36092	6580.525
1676.63211	6442.325
1679.90115	6364.425
1683.16801	6273.325
1686.43272	6207.925
1689.69527	6143.125
1692.95567	6067.625
1696.2139	6061.525
1699.46999	6010.325
1702.72392	6006.825
1705.97571	6009.525
1709.22535	5997.125
1712.47284	6038.025
1715.71819	6029.725
1718.96139	6037.425
1722.20246	6016.825
1725.44139	5985.825
1728.67818	5962.125
1731.91284	5929.025
1735.14537	5914.425
1738.37576	5865.625
1741.60403	5852.625
1744.83017	5816.825
1748.05418	5816.525
1751.27607	5821.525
1754.49584	5775.625
1757.71349	5758.225
1760.92903	5757.825
1764.14244	5703.325
1767.35375	5710.225
1770.56294	5701.325
1773.77002	5668.725
1776.97499	5707.825
1780.17785	5676.225
1783.37861	5665.125
1786.57727	5682.525
1789.77382	5611.825
1792.96828	5636.725
1796.16064	5650.225
1799.3509	5629.925
1802.53907	5635.525
1805.72514	5594.925
1808.90913	5556.125
1812.09102	5555.025
1815.27083	5557.725
1818.44856	5543.425
1821.6242	5540.925
1824.79776	5510.625
1827.96924	5513.025
1831.13864	5508.625
1834.30597	5474.825
1837.47122	5474.725
1840.6344	5456.725
1843.7955	5451.425
1846.95454	5440.425
1850.11151	5461.825
1853.26642	5411.725
1856.41926	5432.625
1859.57004	5437.825
1862.71876	5433.425
1865.86542	5448.925
1869.01003	5416.125
1872.15258	5384.425
1875.29308	5428.425
1878.43152	5409.925
1881.56792	5391.725
1884.70227	5361.925
1887.83457	5373.325
1890.96482	5327.725
1894.09304	5347.025
1897.21921	5334.125
1900.34335	5331.425
1903.46544	5327.425
1906.58551	5338.725
1909.70353	5332.625
1912.81953	5299.225
1915.93349	5322.825
1919.04543	5291.425
1922.15534	5285.025
1925.26322	5282.925
1928.36908	5244.325
1931.47292	5277.525
1934.57473	5274.325
1937.67453	5216.225
1940.77232	5201.625
1943.86808	5211.825
1946.96184	5204.025
1950.05358	5162.425
1953.14331	5146.625
1956.23103	5150.025
1959.31675	5113.425
1962.40046	5068.025
1965.48217	5078.825
1968.56188	5076.325
1971.63959	5062.225
1974.7153	5060.625
1977.78901	5047.925
1980.86073	5003.725
1983.93046	4980.225
1986.99819	4919.625
1990.06394	4933.025
1993.1277	4936.825
1996.18947	4929.625
1999.24925	4881.525
2002.30706	4897.725
2005.36288	4879.125
2008.41672	4859.525
2011.46859	4845.425
2014.51848	4824.125
2017.56639	4824.725
2020.61233	4791.825
2023.6563	4789.825
2026.6983	4745.125
2029.73833	4746.925
2032.7764	4753.025
2035.8125	4710.625
2038.84664	4699.125
2041.87881	4684.225
2044.90903	4708.425
2047.93729	4689.225
2050.96359	4674.125
2053.98794	4678.125
2057.01034	4675.225
2060.03078	4657.625
2063.04927	4644.825
2066.06582	4639.525
2069.08042	4650.625
2072.09307	4637.525
2075.10378	4649.025
2078.11255	4620.825
2081.11938	4622.725
2084.12426	4631.625
2087.12722	4618.925
2090.12824	4610.325
2093.12732	4630.225
2096.12447	4623.525
2099.11969	4608.525
2102.11299	4610.925
2105.10435	4639.225
2108.09379	4607.725
2111.08131	4600.525
2114.0669	4606.525
2117.05057	4606.425
2120.03233	4595.925
2123.01216	4618.625
2125.99008	4625.725
2128.96609	4617.625
2131.94018	4646.725
2134.91236	4631.625
2137.88263	4627.925
2140.851	4629.925
2143.81746	4661.625
2146.78201	4641.225
2149.74466	4624.025
2152.7054	4641.825
2155.66425	4619.225
2158.6212	4611.725
2161.57625	4579.425
2164.52941	4568.125
2167.48067	4571.425
2170.43004	4584.925
2173.37752	4599.925
2176.32311	4588.525
2179.26681	4577.025
2182.20863	4599.225
2185.14856	4576.325
2188.08661	4587.225
2191.02278	4585.525
2193.95707	4573.125
2196.88948	4545.325
2199.82001	4565.425
2202.74867	4558.025
2205.67545	4547.525
2208.60037	4552.425
2211.52341	4537.225
2214.44458	4545.225
2217.36388	4516.925
2220.28132	4506.525
2223.1969	4466.625
2226.11061	4466.125
2229.02246	4461.725
2231.93245	4463.725
2234.84058	4435.225
2237.74686	4433.925
2240.65128	4421.425
2243.55385	4422.525
2246.45456	4415.425
2249.35343	4418.025
2252.25044	4408.925
2255.14561	4418.625
2258.03893	4411.925
2260.93041	4387.825
2263.82004	4370.725
2266.70783	4393.825
2269.59378	4353.725
2272.4779	4341.525
2275.36017	4339.825
2278.24061	4327.425
2281.11922	4290.625
2283.996	4301.325
2286.87094	4283.825
2289.74405	4283.025
2292.61534	4283.125
2295.4848	4273.425
2298.35243	4274.125
2301.21824	4266.625
2304.08223	4255.925
2306.94439	4257.925
2309.80474	4254.725
2312.66327	4243.825
2315.51999	4243.825
2318.37489	4241.225
2321.22797	4216.725
2324.07925	4219.225
2326.92871	4199.725
2329.77637	4186.225
2332.62222	4170.925
2335.46626	4156.125
2338.3085	4159.125
2341.14893	4174.725
2343.98756	4176.025
2346.8244	4150.825
2349.65943	4125.825
2352.49267	4153.325
2355.32411	4147.325
2358.15376	4131.325
2360.98161	4151.225
2363.80768	4137.525
2366.63195	4134.225
2369.45444	4123.525
2372.27514	4137.225
2375.09405	4134.425
2377.91118	4094.625
2380.72652	4103.825
2383.54009	4086.925
2386.35187	4107.125
2389.16188	4090.425
2391.97011	4066.825
2394.77657	4065.725
2397.58125	4060.225
2400.38416	4046.225
2403.18529	4035.025
2405.98466	4019.025
2408.78226	4021.125
2411.57809	3987.225
2414.37216	3981.525
2417.16446	3993.025
2419.955	3956.725
2422.74378	3982.325
2425.5308	3961.425
2428.31606	3972.625
2431.09956	3974.525
2433.88131	3954.025
2436.6613	3941.825
2439.43954	3940.025
2442.21603	3939.025
2444.99077	3925.825
2447.76377	3947.725
2450.53501	3927.725
2453.30451	3928.025
2456.07226	3923.525
2458.83827	3924.125
2461.60254	3872.025
2464.36507	3901.325
2467.12586	3896.825
2469.88492	3898.325
2472.64224	3895.525
2475.39782	3854.525
2478.15167	3893.725
2480.90379	3887.425
2483.65417	3880.225
2486.40283	3910.225
2489.14976	3896.725
2491.89497	3881.725
2494.63845	3886.825
2497.3802	3868.825
2500.12024	3869.725
2502.85855	3873.525
2505.59514	3861.225
2508.33002	3860.625
2511.06318	3814.825
2513.79462	3833.025
2516.52435	3797.325
2519.25237	3780.025
2521.97867	3778.825
2524.70327	3771.325
2527.42616	3773.925
2530.14734	3794.525
2532.86681	3761.725
2535.58458	3764.525
2538.30065	3739.925
2541.01501	3772.725
2543.72768	3732.825
2546.43864	3747.425
2549.14791	3743.025
2551.85548	3720.725
2554.56136	3720.025
2557.26554	3708.325
2559.96803	3704.125
2562.66883	3710.925
2565.36794	3689.425
2568.06536	3650.725
2570.7611	3676.225
2573.45514	3669.425
2576.14751	3653.525
2578.83819	3639.325
2581.52719	3635.325
2584.21451	3636.325
2586.90015	3611.625
2589.58411	3601.225
2592.2664	3610.525
2594.94701	3605.425
2597.62594	3607.025
2600.30321	3532.425
2602.9788	3557.725
2605.65273	3550.025
2608.32498	3557.525
2610.99557	3556.925
2613.66449	3536.625
2616.33175	3538.825
2618.99734	3560.425
2621.66128	3551.425
2624.32355	3525.125
2626.98416	3518.025
2629.64311	3497.625
2632.30041	3497.225
2634.95605	3483.925
2637.61004	3476.525
2640.26238	3452.225
2642.91306	3449.925
2645.56209	3480.925
2648.20948	3462.925
2650.85521	3446.825
2653.4993	3475.325
2656.14175	3458.425
2658.78255	3455.425
2661.42171	3431.325
2664.05923	3454.925
2666.6951	3462.725
2669.32934	3464.625
2671.96194	3479.925
2674.59291	3465.525
2677.22224	3476.325
2679.84993	3464.925
2682.476	3447.225
2685.10043	3440.425
2687.72324	3439.925
2690.34441	3428.725
2692.96396	3427.025
2695.58188	3448.525
2698.19818	3436.325
2700.81285	3433.225
2703.4259	3422.525
2706.03733	3389.925
2708.64714	3397.725
2711.25533	3427.725
2713.86191	3413.525
2716.46687	3413.725
2719.07021	3411.425
2721.67194	3407.825
2724.27206	3426.725
2726.87057	3414.725
2729.46747	3405.125
2732.06276	3422.025
2734.65644	3392.625
2737.24852	3389.525
2739.83899	3363.025
2742.42786	3381.825
2745.01513	3387.625
2747.60079	3361.825
2750.18486	3356.825
2752.76733	3360.025
2755.3482	3353.225
2757.92747	3335.525
2760.50515	3317.925
2763.08123	3332.625
2765.65573	3325.725
2768.22863	3321.725
2770.79994	3301.125
2773.36967	3300.025
2775.9378	3291.725
2778.50435	3291.025
2781.06932	3281.725
2783.6327	3274.425
2786.1945	3290.725
2788.75471	3274.925
2791.31335	3270.825
2793.87041	3263.825
2796.42589	3248.725
2798.97979	3233.725
2801.53212	3235.925
2804.08288	3260.725
2806.63206	3234.525
2809.17967	3205.025
2811.72571	3225.725
2814.27018	3213.725
2816.81308	3210.925
2819.35442	3168.625
2821.89419	3182.325
2824.43239	3166.425
2826.96904	3180.125
2829.50412	3183.625
2832.03763	3174.925
2834.56959	3156.925
2837.1	3160.825
2839.62884	3160.025
2842.15613	3152.425
2844.68186	3176.225
2847.20604	3140.325
2849.72867	3124.625
2852.24974	3143.725
2854.76927	3091.525
2857.28724	3062.325
2859.80367	3123.525
2862.31855	3126.225
2864.83189	3101.725
2867.34368	3122.625
2869.85393	3120.725
2872.36264	3096.125
2874.8698	3081.025
2877.37543	3103.725
2879.87952	3093.425
2882.38207	3061.425
2884.88308	3095.325
2887.38256	3077.125
2889.88051	3070.125
2892.37692	3071.525
2894.8718	3064.825
2897.36515	3071.725
2899.85698	3069.125
2902.34727	3052.425
2904.83604	3069.625
2907.32328	3086.925
2909.809	3072.825
2912.29319	3073.625
2914.77587	3086.325
2917.25702	3099.325
2919.73665	3091.425
2922.21476	3094.425
2924.69136	3092.225
2927.16644	3071.425
2929.64	3057.825
2932.11205	3057.625
2934.58258	3062.125
2937.05161	3050.125
2939.51912	3041.925
2941.98513	3066.425
2944.44962	3048.425
2946.91261	3011.125
2949.37409	3015.525
2951.83407	3010.225
2954.29254	3012.625
2956.74951	3013.725
2959.20498	2991.725
2961.65895	2993.225
2964.11142	2990.025
2966.56239	2990.825
2969.01186	2991.725
2971.45984	2985.625
2973.90632	2982.325
2976.35131	2988.125
2978.7948	2967.225
2981.23681	2946.425
2983.67732	2955.025
2986.11635	2953.025
2988.55388	2925.925
2990.98993	2929.125
2993.4245	2922.825
2995.85758	2908.925
2998.28917	2902.525
3000.71928	2882.725
3003.14791	2881.525
3005.57506	2881.725
3008.00073	2854.825
3010.42493	2803.825
3012.84764	2847.425
3015.26888	2855.825
3017.68865	2841.425
3020.10694	2797.225
3022.52376	2814.225
3024.9391	2803.425
3027.35298	2791.525
3029.76539	2793.525
3032.17632	2797.225
3034.5858	2782.625
3036.9938	2782.525
3039.40034	2782.025
3041.80542	2764.025
3044.20903	2749.925
3046.61118	2749.925
3049.01187	2759.525
3051.4111	2744.725
3053.80888	2722.425
3056.20519	2728.825
3058.60005	2704.925
3060.99345	2734.025
3063.3854	2701.325
3065.7759	2692.825
3068.16494	2675.425
3070.55254	2663.925
3072.93868	2688.225
3075.32338	2667.725
3077.70662	2664.025
3080.08842	2657.025
3082.46878	2627.525
3084.84769	2655.025
3087.22515	2638.625
3089.60118	2642.125
3091.97576	2627.125
3094.3489	2627.525
3096.72061	2633.025
3099.09087	2613.725
3101.4597	2628.025
3103.82709	2624.625
3106.19305	2609.725
3108.55757	2608.325
3110.92066	2588.825
3113.28232	2609.025
3115.64255	2604.725
3118.00134	2589.225
3120.35871	2566.325
3122.71466	2557.725
3125.06917	2567.425
3127.42226	2550.525
3129.77393	2526.525
3132.12417	2540.925
3134.47299	2552.225
3136.82039	2529.225
3139.16636	2506.625
3141.51092	2527.225
3143.85406	2534.625
3146.19579	2526.925
3148.53609	2502.125
3150.87499	2525.225
3153.21246	2512.425
3155.54853	2518.225
3157.88318	2525.925
3160.21642	2517.025
3162.54826	2510.325
3164.87868	2520.325
3167.2077	2476.425
3169.5353	2496.125
3171.86151	2518.125
3174.18631	2486.325
3176.5097	2493.225
3178.83169	2476.425
3181.15228	2473.625
3183.47147	2457.925
3185.78926	2448.425
3188.10565	2457.125
3190.42065	2437.725
3192.73424	2445.725
3195.04645	2431.225
3197.35725	2419.625
3199.66667	2434.625
3201.97469	2439.725
3204.28132	2414.925
3206.58656	2421.025
3208.8904	2428.725
3211.19287	2419.725
3213.49394	2407.425
3215.79363	2406.925
3218.09193	2421.725
3220.38884	2401.825
3222.68438	2410.525
3224.97853	2395.425
3227.2713	2407.525
3229.56269	2389.125
3231.8527	2394.925
3234.14133	2385.625
3236.42858	2379.725
3238.71446	2347.725
3240.99896	2370.525
3243.28209	2355.925
3245.56384	2360.025
3247.84423	2341.025
3250.12324	2358.325
3252.40088	2354.725
3254.67715	2332.625
3256.95205	2324.725
3259.22558	2335.925
3261.49775	2335.225
3263.76855	2332.525
3266.03799	2324.225
3268.30606	2335.725
3270.57277	2334.925
3272.83812	2308.625
3275.10211	2303.425
3277.36474	2322.625
3279.62601	2309.725
3281.88593	2277.425
3284.14448	2269.725
3286.40168	2276.625
3288.65753	2285.525
3290.91202	2276.825
3293.16516	2256.725
3295.41695	2276.125
3297.66738	2283.525
3299.91647	2247.025
3302.16421	2246.425
3304.4106	2195.225
3306.65564	2222.425
3308.89933	2184.625
3311.14169	2182.325
3313.38269	2166.925
3315.62236	2140.425
3317.86068	2133.625
3320.09766	2125.425
3322.3333	2088.325
3324.5676	2086.525
3326.80056	2039.425
3329.03219	2039.825
3331.26248	-0.475
3333.49143	-0.075
3335.71905	-0.075
