Data from AgNPs_UA_5uM_CRN_500uM_SU_RamanShift__295__12-18-33-199.txt Node

Date: Thu Aug 04 12:18:33 BST 2022
User: TCL
Spectrometer: QEP01345
Trigger mode: 4
Integration Time (sec): 1.000000E0
Scans to average: 10
Electric dark correction enabled: true
Nonlinearity correction enabled: false
Boxcar width: 0
XAxis mode: Raman Shifts
Number of Pixels in Spectrum: 1044
>>>>>Begin Spectral Data<<<<<
46.04893	-0.0875
50.45542	0.0125
54.85868	-0.0875
59.25871	-0.4875
63.6555	-56.9875
68.04907	-39.0875
72.43941	-74.1875
76.82654	-57.7875
81.21044	-55.4875
85.59113	-50.9875
89.96862	-75.2875
94.34289	-57.4875
98.71396	-77.3875
103.08183	-58.3875
107.4465	-49.9875
111.80798	-56.3875
116.16626	-46.2875
120.52136	-73.7875
124.87327	-51.0875
129.222	-63.1875
133.56755	-51.2875
137.90993	-63.8875
142.24913	-52.2875
146.58517	-44.7875
150.91804	-43.6875
155.24774	-33.0875
159.57429	-8.4875
163.89768	-8.4875
168.21792	35.0125
172.53501	52.3125
176.84895	132.8125
181.15975	261.6125
185.46741	409.8125
189.77193	581.5125
194.07331	861.7125
198.37157	1137.7125
202.6667	1425.5125
206.9587	1731.9125
211.24758	2022.8125
215.53334	2346.0125
219.81599	2683.8125
224.09553	3085.0125
228.37195	3505.2125
232.64527	3969.8125
236.91549	4425.9125
241.18261	4763.7125
245.44663	5011.2125
249.70755	5170.1125
253.96539	5302.3125
258.22014	5402.4125
262.4718	5476.0125
266.72039	5529.3125
270.96589	5496.3125
275.20832	5397.6125
279.44768	5296.8125
283.68397	5187.8125
287.91719	5135.3125
292.14735	5188.0125
296.37445	5361.3125
300.59849	5634.0125
304.81948	5983.7125
309.03742	6352.7125
313.25231	6573.5125
317.46415	6546.2125
321.67296	6176.4125
325.87872	5776.3125
330.08145	5576.1125
334.28114	5517.8125
338.47781	5579.6125
342.67145	5711.7125
346.86207	5939.1125
351.04966	6292.8125
355.23424	6668.1125
359.4158	6921.9125
363.59435	6952.9125
367.76989	6876.5125
371.94243	6764.3125
376.11196	6653.4125
380.27849	6580.4125
384.44203	6496.9125
388.60257	6460.9125
392.76012	6493.3125
396.91468	6585.6125
401.06626	6736.6125
405.21485	6763.6125
409.36047	6604.3125
413.50311	6278.6125
417.64277	5970.8125
421.77947	5792.3125
425.9132	5719.6125
430.04396	5696.7125
434.17176	5760.9125
438.2966	5823.4125
442.41849	5915.8125
446.53742	6014.9125
450.6534	6113.8125
454.76644	6180.4125
458.87653	6196.4125
462.98368	6155.1125
467.08789	6067.7125
471.18916	5978.6125
475.2875	5870.7125
479.38291	5755.1125
483.4754	5646.3125
487.56496	5615.4125
491.6516	5571.2125
495.73531	5592.6125
499.81612	5629.0125
503.89401	5700.8125
507.96899	5766.3125
512.04106	5855.9125
516.11023	5954.6125
520.1765	6029.8125
524.23987	6053.5125
528.30034	6048.7125
532.35792	5963.6125
536.41261	5915.4125
540.46441	5811.4125
544.51333	5759.5125
548.55936	5798.7125
552.60252	5934.8125
556.64279	6041.6125
560.6802	6159.8125
564.71473	6271.0125
568.7464	6469.2125
572.7752	6438.8125
576.80114	6155.1125
580.82422	5931.1125
584.84444	5831.9125
588.86181	5827.5125
592.87633	5843.7125
596.888	5964.3125
600.89682	6323.5125
604.9028	7300.2125
608.90594	9371.0125
612.90624	11703.9125
616.90371	10850.0125
620.89834	7751.1125
624.89015	6420.4125
628.87913	6219.6125
632.86528	6359.4125
636.84862	6542.4125
640.82913	6405.8125
644.80683	6053.2125
648.78172	5848.5125
652.75379	5891.3125
656.72306	6142.2125
660.68952	6339.5125
664.65319	6272.8125
668.61405	6013.2125
672.57211	5965.7125
676.52738	5969.9125
680.47986	5863.6125
684.42955	5760.9125
688.37646	5735.4125
692.32058	5720.2125
696.26192	5815.3125
700.20048	5899.1125
704.13626	5924.6125
708.06928	5899.6125
711.99952	5851.7125
715.927	5834.6125
719.85171	5868.1125
723.77365	5937.7125
727.69284	5881.6125
731.60928	5872.3125
735.52295	5831.3125
739.43388	5889.0125
743.34206	5899.9125
747.24749	5929.0125
751.15017	5942.9125
755.05012	6001.4125
758.94733	6397.3125
762.8418	7265.9125
766.73354	8615.7125
770.62254	9657.7125
774.50882	9710.0125
778.39237	9174.0125
782.27321	8234.1125
786.15132	7169.5125
790.02671	6491.7125
793.89938	6118.0125
797.76935	6001.9125
801.6366	5894.4125
805.50115	5844.2125
809.36299	5830.5125
813.22213	5820.0125
817.07857	5828.8125
820.93231	5810.8125
824.78336	5845.1125
828.63172	5859.9125
832.47738	5851.7125
836.32036	5860.7125
840.16066	5843.5125
843.99827	5810.5125
847.8332	5811.4125
851.66546	5802.4125
855.49504	5815.5125
859.32195	5838.9125
863.1462	5842.5125
866.96777	5820.2125
870.78668	5814.4125
874.60293	5840.7125
878.41652	5860.5125
882.22745	5945.0125
886.03573	5969.0125
889.84136	5966.7125
893.64433	5964.5125
897.44466	5936.3125
901.24235	5958.4125
905.0374	5942.9125
908.8298	5887.6125
912.61957	5855.7125
916.40671	5800.6125
920.19121	5860.8125
923.97308	5959.0125
927.75233	6009.8125
931.52895	6088.6125
935.30295	6045.0125
939.07433	5868.6125
942.84309	5761.2125
946.60924	5740.1125
950.37278	5696.6125
954.13371	5691.9125
957.89203	5682.7125
961.64774	5701.4125
965.40086	5677.7125
969.15137	5661.1125
972.89929	5693.6125
976.64461	5690.1125
980.38733	5706.7125
984.12747	5697.9125
987.86502	5717.3125
991.59999	5743.2125
995.33237	5818.7125
999.06217	5857.9125
1002.78939	5935.1125
1006.51404	6062.6125
1010.23611	6166.0125
1013.95561	6242.4125
1017.67255	6232.5125
1021.38692	6206.8125
1025.09872	6133.5125
1028.80796	6056.6125
1032.51465	6056.2125
1036.21877	6050.4125
1039.92035	6098.1125
1043.61937	6144.5125
1047.31584	6186.4125
1051.00976	6227.9125
1054.70114	6215.1125
1058.38998	6230.5125
1062.07627	6230.9125
1065.76003	6266.8125
1069.44126	6339.0125
1073.11995	6399.2125
1076.79611	6534.5125
1080.46974	6695.9125
1084.14085	6873.4125
1087.80943	6973.7125
1091.47549	7034.3125
1095.13903	6921.4125
1098.80005	6801.2125
1102.45857	6713.4125
1106.11456	6684.3125
1109.76805	6631.7125
1113.41903	6739.5125
1117.06751	6908.8125
1120.71348	7186.1125
1124.35696	7590.4125
1127.99793	7852.6125
1131.63641	7690.1125
1135.2724	7275.3125
1138.90589	6987.1125
1142.5369	6810.6125
1146.16542	6659.8125
1149.79145	6581.1125
1153.415	6516.9125
1157.03607	6516.6125
1160.65467	6651.0125
1164.27079	6860.7125
1167.88443	7111.1125
1171.49561	7559.7125
1175.10432	8179.4125
1178.71056	9102.9125
1182.31434	9935.7125
1185.91565	10192.1125
1189.51451	10037.0125
1193.11091	9783.8125
1196.70485	9524.1125
1200.29634	9266.4125
1203.88538	8951.2125
1207.47197	8510.1125
1211.05612	8015.8125
1214.63782	7577.4125
1218.21708	7308.3125
1221.79391	7162.8125
1225.36829	7119.1125
1228.94024	7098.6125
1232.50976	7114.8125
1236.07685	7162.4125
1239.6415	7168.3125
1243.20374	7172.4125
1246.76355	7224.0125
1250.32093	7278.0125
1253.8759	7340.8125
1257.42845	7511.6125
1260.97859	7727.1125
1264.52631	7972.9125
1268.07163	8125.8125
1271.61453	8272.0125
1275.15503	8317.6125
1278.69312	8326.1125
1282.22882	8382.7125
1285.76211	8590.8125
1289.29301	8846.2125
1292.82151	9088.8125
1296.34761	9310.8125
1299.87133	9728.8125
1303.39266	10445.7125
1306.9116	11587.3125
1310.42815	12804.7125
1313.94233	13295.2125
1317.45412	12500.4125
1320.96354	11377.7125
1324.47058	10327.2125
1327.97525	9579.2125
1331.47754	9154.4125
1334.97747	9025.1125
1338.47502	9148.4125
1341.97022	9522.5125
1345.46305	10283.8125
1348.95352	11390.4125
1352.44163	12721.2125
1355.92738	14136.5125
1359.41078	15860.4125
1362.89183	17394.0125
1366.37053	16786.2125
1369.84688	13925.6125
1373.32088	11166.4125
1376.79254	9639.8125
1380.26186	8962.5125
1383.72883	8526.2125
1387.19347	8124.7125
1390.65578	7753.6125
1394.11575	7497.3125
1397.57339	7330.5125
1401.0287	7219.8125
1404.48168	7190.4125
1407.93234	7167.6125
1411.38068	7189.9125
1414.82669	7267.8125
1418.27039	7343.6125
1421.71177	7335.1125
1425.15083	7225.8125
1428.58758	7149.4125
1432.02203	7171.4125
1435.45416	7257.5125
1438.88399	7260.4125
1442.31151	7239.1125
1445.73673	7310.4125
1449.15965	7360.3125
1452.58027	7370.8125
1455.9986	7378.7125
1459.41463	7384.4125
1462.82837	7484.6125
1466.23982	7667.3125
1469.64898	7906.2125
1473.05586	8022.4125
1476.46045	8138.2125
1479.86276	8214.2125
1483.26279	8333.3125
1486.66054	8545.3125
1490.05602	8845.0125
1493.44922	9437.2125
1496.84016	10313.5125
1500.22882	11711.5125
1503.61521	13501.0125
1506.99934	15371.8125
1510.38121	16534.2125
1513.76081	16363.3125
1517.13816	14738.1125
1520.51324	12579.0125
1523.88607	10851.8125
1527.25665	9866.1125
1530.62498	9353.8125
1533.99105	9168.6125
1537.35488	9042.2125
1540.71647	8935.3125
1544.07581	8781.7125
1547.4329	8638.3125
1550.78776	8491.2125
1554.14038	8430.3125
1557.49077	8377.5125
1560.83892	8488.0125
1564.18484	8723.2125
1567.52853	9064.9125
1570.86999	9396.7125
1574.20922	9570.3125
1577.54624	9442.9125
1580.88103	8917.0125
1584.2136	8200.6125
1587.54395	7791.6125
1590.87208	7722.8125
1594.19801	7857.2125
1597.52172	8251.3125
1600.84321	8384.2125
1604.16251	8225.9125
1607.47959	8038.2125
1610.79447	7844.6125
1614.10715	7558.3125
1617.41763	7281.7125
1620.7259	7007.8125
1624.03199	6830.9125
1627.33587	6774.3125
1630.63757	6824.8125
1633.93707	7052.5125
1637.23439	7439.7125
1640.52951	8151.6125
1643.82246	9126.5125
1647.11321	10340.9125
1650.40179	11076.6125
1653.68819	10769.4125
1656.97241	9512.7125
1660.25446	8078.7125
1663.53433	7051.8125
1666.81203	6435.1125
1670.08756	6115.3125
1673.36092	5928.9125
1676.63211	5787.2125
1679.90115	5681.9125
1683.16801	5616.7125
1686.43272	5522.8125
1689.69527	5459.5125
1692.95567	5415.1125
1696.2139	5392.2125
1699.46999	5345.7125
1702.72392	5355.8125
1705.97571	5363.3125
1709.22535	5335.7125
1712.47284	5370.0125
1715.71819	5388.9125
1718.96139	5397.7125
1722.20246	5349.7125
1725.44139	5321.9125
1728.67818	5309.6125
1731.91284	5251.0125
1735.14537	5217.6125
1738.37576	5195.0125
1741.60403	5170.1125
1744.83017	5142.5125
1748.05418	5138.9125
1751.27607	5126.6125
1754.49584	5121.0125
1757.71349	5072.9125
1760.92903	5084.3125
1764.14244	5024.0125
1767.35375	5039.0125
1770.56294	5027.5125
1773.77002	5014.2125
1776.97499	5027.2125
1780.17785	4991.9125
1783.37861	4990.6125
1786.57727	5000.0125
1789.77382	4938.6125
1792.96828	4957.6125
1796.16064	4954.5125
1799.3509	4939.7125
1802.53907	4947.9125
1805.72514	4914.3125
1808.90913	4897.1125
1812.09102	4886.5125
1815.27083	4886.5125
1818.44856	4871.4125
1821.6242	4865.2125
1824.79776	4839.5125
1827.96924	4831.3125
1831.13864	4815.1125
1834.30597	4832.4125
1837.47122	4816.2125
1840.6344	4804.6125
1843.7955	4777.8125
1846.95454	4769.2125
1850.11151	4801.3125
1853.26642	4743.0125
1856.41926	4765.4125
1859.57004	4759.5125
1862.71876	4746.9125
1865.86542	4747.4125
1869.01003	4758.7125
1872.15258	4720.3125
1875.29308	4755.3125
1878.43152	4746.3125
1881.56792	4727.4125
1884.70227	4709.5125
1887.83457	4698.9125
1890.96482	4672.2125
1894.09304	4671.8125
1897.21921	4672.3125
1900.34335	4668.9125
1903.46544	4657.4125
1906.58551	4666.3125
1909.70353	4657.8125
1912.81953	4651.5125
1915.93349	4636.3125
1919.04543	4619.2125
1922.15534	4626.7125
1925.26322	4623.0125
1928.36908	4609.8125
1931.47292	4599.4125
1934.57473	4598.5125
1937.67453	4565.1125
1940.77232	4550.3125
1943.86808	4546.5125
1946.96184	4541.4125
1950.05358	4489.4125
1953.14331	4498.1125
1956.23103	4494.2125
1959.31675	4465.8125
1962.40046	4420.2125
1965.48217	4445.7125
1968.56188	4428.6125
1971.63959	4439.4125
1974.7153	4413.4125
1977.78901	4420.0125
1980.86073	4405.8125
1983.93046	4357.4125
1986.99819	4277.1125
1990.06394	4298.0125
1993.1277	4318.6125
1996.18947	4306.0125
1999.24925	4268.2125
2002.30706	4265.3125
2005.36288	4257.9125
2008.41672	4238.9125
2011.46859	4202.0125
2014.51848	4197.3125
2017.56639	4181.1125
2020.61233	4176.5125
2023.6563	4173.5125
2026.6983	4127.2125
2029.73833	4133.5125
2032.7764	4145.5125
2035.8125	4096.8125
2038.84664	4100.8125
2041.87881	4081.8125
2044.90903	4089.5125
2047.93729	4091.6125
2050.96359	4056.1125
2053.98794	4065.6125
2057.01034	4079.1125
2060.03078	4044.3125
2063.04927	4044.2125
2066.06582	4033.5125
2069.08042	4035.4125
2072.09307	4043.3125
2075.10378	4033.4125
2078.11255	4010.5125
2081.11938	4017.7125
2084.12426	4018.4125
2087.12722	4005.2125
2090.12824	3997.0125
2093.12732	4005.7125
2096.12447	4007.7125
2099.11969	4024.3125
2102.11299	3994.1125
2105.10435	4022.0125
2108.09379	4008.5125
2111.08131	4009.4125
2114.0669	4000.7125
2117.05057	3999.0125
2120.03233	3977.3125
2123.01216	4017.0125
2125.99008	4030.8125
2128.96609	4021.3125
2131.94018	4040.4125
2134.91236	4025.0125
2137.88263	4011.3125
2140.851	4017.7125
2143.81746	4032.6125
2146.78201	4020.0125
2149.74466	4013.8125
2152.7054	4015.3125
2155.66425	4016.2125
2158.6212	4004.7125
2161.57625	3963.4125
2164.52941	3967.9125
2167.48067	3963.8125
2170.43004	3975.3125
2173.37752	3998.1125
2176.32311	3981.3125
2179.26681	3981.6125
2182.20863	3984.0125
2185.14856	3979.2125
2188.08661	3957.0125
2191.02278	3993.1125
2193.95707	3959.3125
2196.88948	3939.7125
2199.82001	3964.2125
2202.74867	3942.7125
2205.67545	3955.2125
2208.60037	3954.9125
2211.52341	3930.3125
2214.44458	3923.0125
2217.36388	3914.7125
2220.28132	3898.2125
2223.1969	3873.6125
2226.11061	3875.9125
2229.02246	3859.5125
2231.93245	3859.9125
2234.84058	3850.1125
2237.74686	3846.5125
2240.65128	3831.6125
2243.55385	3831.9125
2246.45456	3805.6125
2249.35343	3844.2125
2252.25044	3817.5125
2255.14561	3811.4125
2258.03893	3812.1125
2260.93041	3796.5125
2263.82004	3794.2125
2266.70783	3796.8125
2269.59378	3770.5125
2272.4779	3758.0125
2275.36017	3773.5125
2278.24061	3758.3125
2281.11922	3721.3125
2283.996	3734.6125
2286.87094	3707.0125
2289.74405	3717.8125
2292.61534	3715.8125
2295.4848	3696.0125
2298.35243	3699.8125
2301.21824	3686.3125
2304.08223	3673.8125
2306.94439	3681.1125
2309.80474	3682.9125
2312.66327	3673.9125
2315.51999	3667.0125
2318.37489	3662.0125
2321.22797	3653.0125
2324.07925	3641.4125
2326.92871	3634.7125
2329.77637	3609.7125
2332.62222	3611.3125
2335.46626	3594.5125
2338.3085	3597.6125
2341.14893	3615.4125
2343.98756	3597.0125
2346.8244	3587.0125
2349.65943	3563.2125
2352.49267	3586.9125
2355.32411	3578.1125
2358.15376	3589.9125
2360.98161	3596.0125
2363.80768	3583.1125
2366.63195	3574.3125
2369.45444	3590.4125
2372.27514	3584.4125
2375.09405	3584.2125
2377.91118	3543.6125
2380.72652	3561.8125
2383.54009	3540.0125
2386.35187	3545.9125
2389.16188	3524.5125
2391.97011	3522.5125
2394.77657	3508.1125
2397.58125	3499.0125
2400.38416	3501.9125
2403.18529	3492.4125
2405.98466	3472.9125
2408.78226	3475.3125
2411.57809	3465.4125
2414.37216	3449.8125
2417.16446	3440.4125
2419.955	3421.5125
2422.74378	3437.7125
2425.5308	3419.4125
2428.31606	3435.9125
2431.09956	3433.4125
2433.88131	3414.0125
2436.6613	3429.7125
2439.43954	3402.7125
2442.21603	3409.4125
2444.99077	3391.2125
2447.76377	3413.0125
2450.53501	3415.8125
2453.30451	3398.1125
2456.07226	3406.1125
2458.83827	3387.2125
2461.60254	3341.6125
2464.36507	3388.4125
2467.12586	3357.4125
2469.88492	3374.5125
2472.64224	3364.7125
2475.39782	3347.3125
2478.15167	3379.9125
2480.90379	3348.4125
2483.65417	3367.2125
2486.40283	3367.6125
2489.14976	3384.5125
2491.89497	3361.8125
2494.63845	3374.2125
2497.3802	3351.1125
2500.12024	3354.9125
2502.85855	3348.2125
2505.59514	3322.7125
2508.33002	3332.6125
2511.06318	3304.7125
2513.79462	3316.7125
2516.52435	3275.2125
2519.25237	3248.8125
2521.97867	3268.4125
2524.70327	3259.0125
2527.42616	3260.9125
2530.14734	3272.0125
2532.86681	3237.3125
2535.58458	3242.8125
2538.30065	3227.2125
2541.01501	3253.2125
2543.72768	3228.8125
2546.43864	3231.6125
2549.14791	3223.1125
2551.85548	3208.8125
2554.56136	3205.7125
2557.26554	3219.0125
2559.96803	3195.7125
2562.66883	3191.3125
2565.36794	3173.3125
2568.06536	3156.8125
2570.7611	3172.2125
2573.45514	3176.1125
2576.14751	3155.3125
2578.83819	3135.2125
2581.52719	3129.1125
2584.21451	3129.9125
2586.90015	3106.2125
2589.58411	3101.3125
2592.2664	3109.1125
2594.94701	3112.5125
2597.62594	3127.9125
2600.30321	3044.6125
2602.9788	3064.8125
2605.65273	3055.8125
2608.32498	3063.0125
2610.99557	3081.2125
2613.66449	3047.4125
2616.33175	3058.4125
2618.99734	3075.0125
2621.66128	3068.8125
2624.32355	3049.3125
2626.98416	3023.8125
2629.64311	3020.8125
2632.30041	3021.7125
2634.95605	3010.3125
2637.61004	2986.2125
2640.26238	2980.1125
2642.91306	2986.7125
2645.56209	2995.1125
2648.20948	2992.2125
2650.85521	2974.4125
2653.4993	2989.7125
2656.14175	2984.0125
2658.78255	2976.3125
2661.42171	2953.7125
2664.05923	2982.8125
2666.6951	2983.0125
2669.32934	2987.3125
2671.96194	3000.4125
2674.59291	2984.7125
2677.22224	2982.9125
2679.84993	2996.6125
2682.476	2984.6125
2685.10043	2968.4125
2687.72324	2965.7125
2690.34441	2961.9125
2692.96396	2951.8125
2695.58188	2979.1125
2698.19818	2958.9125
2700.81285	2952.4125
2703.4259	2949.2125
2706.03733	2921.0125
2708.64714	2927.4125
2711.25533	2947.9125
2713.86191	2943.0125
2716.46687	2950.7125
2719.07021	2944.2125
2721.67194	2948.5125
2724.27206	2961.4125
2726.87057	2946.6125
2729.46747	2939.1125
2732.06276	2943.3125
2734.65644	2919.5125
2737.24852	2916.2125
2739.83899	2893.6125
2742.42786	2907.9125
2745.01513	2920.4125
2747.60079	2904.2125
2750.18486	2888.4125
2752.76733	2897.8125
2755.3482	2881.9125
2757.92747	2882.2125
2760.50515	2862.1125
2763.08123	2861.7125
2765.65573	2874.7125
2768.22863	2846.8125
2770.79994	2847.6125
2773.36967	2848.7125
2775.9378	2835.2125
2778.50435	2833.5125
2781.06932	2818.8125
2783.6327	2814.6125
2786.1945	2841.4125
2788.75471	2812.4125
2791.31335	2806.9125
2793.87041	2813.3125
2796.42589	2792.5125
2798.97979	2778.6125
2801.53212	2786.8125
2804.08288	2803.3125
2806.63206	2793.0125
2809.17967	2762.2125
2811.72571	2779.2125
2814.27018	2774.1125
2816.81308	2762.5125
2819.35442	2719.1125
2821.89419	2751.4125
2824.43239	2738.1125
2826.96904	2765.3125
2829.50412	2738.3125
2832.03763	2749.2125
2834.56959	2740.9125
2837.1	2730.2125
2839.62884	2727.8125
2842.15613	2731.5125
2844.68186	2732.1125
2847.20604	2699.0125
2849.72867	2709.2125
2852.24974	2713.3125
2854.76927	2684.2125
2857.28724	2647.8125
2859.80367	2689.0125
2862.31855	2699.2125
2864.83189	2684.9125
2867.34368	2693.5125
2869.85393	2706.4125
2872.36264	2670.9125
2874.8698	2682.6125
2877.37543	2688.7125
2879.87952	2672.2125
2882.38207	2662.8125
2884.88308	2674.0125
2887.38256	2661.7125
2889.88051	2662.0125
2892.37692	2667.1125
2894.8718	2638.8125
2897.36515	2672.6125
2899.85698	2649.4125
2902.34727	2651.8125
2904.83604	2665.9125
2907.32328	2670.8125
2909.809	2670.1125
2912.29319	2665.6125
2914.77587	2670.1125
2917.25702	2672.8125
2919.73665	2681.6125
2922.21476	2683.3125
2924.69136	2696.6125
2927.16644	2656.5125
2929.64	2676.6125
2932.11205	2650.5125
2934.58258	2652.6125
2937.05161	2634.3125
2939.51912	2635.9125
2941.98513	2653.7125
2944.44962	2642.2125
2946.91261	2597.7125
2949.37409	2627.4125
2951.83407	2608.9125
2954.29254	2606.9125
2956.74951	2623.4125
2959.20498	2585.5125
2961.65895	2593.5125
2964.11142	2579.5125
2966.56239	2573.0125
2969.01186	2585.0125
2971.45984	2572.4125
2973.90632	2573.1125
2976.35131	2581.4125
2978.7948	2574.2125
2981.23681	2552.8125
2983.67732	2561.3125
2986.11635	2553.3125
2988.55388	2527.2125
2990.98993	2538.8125
2993.4245	2524.1125
2995.85758	2519.0125
2998.28917	2519.5125
3000.71928	2498.5125
3003.14791	2491.6125
3005.57506	2489.8125
3008.00073	2470.8125
3010.42493	2399.2125
3012.84764	2466.8125
3015.26888	2463.8125
3017.68865	2449.4125
3020.10694	2417.7125
3022.52376	2431.6125
3024.9391	2429.4125
3027.35298	2425.0125
3029.76539	2413.9125
3032.17632	2422.4125
3034.5858	2396.8125
3036.9938	2416.6125
3039.40034	2408.9125
3041.80542	2391.6125
3044.20903	2371.2125
3046.61118	2379.4125
3049.01187	2394.0125
3051.4111	2361.5125
3053.80888	2337.5125
3056.20519	2348.3125
3058.60005	2332.6125
3060.99345	2364.0125
3063.3854	2332.9125
3065.7759	2318.2125
3068.16494	2305.6125
3070.55254	2311.1125
3072.93868	2314.6125
3075.32338	2322.7125
3077.70662	2299.2125
3080.08842	2291.7125
3082.46878	2272.9125
3084.84769	2294.9125
3087.22515	2275.0125
3089.60118	2289.4125
3091.97576	2271.7125
3094.3489	2276.1125
3096.72061	2264.8125
3099.09087	2249.2125
3101.4597	2259.9125
3103.82709	2262.2125
3106.19305	2250.8125
3108.55757	2258.9125
3110.92066	2245.1125
3113.28232	2242.5125
3115.64255	2241.1125
3118.00134	2248.7125
3120.35871	2215.4125
3122.71466	2206.5125
3125.06917	2209.4125
3127.42226	2204.7125
3129.77393	2188.9125
3132.12417	2202.9125
3134.47299	2199.7125
3136.82039	2190.3125
3139.16636	2170.4125
3141.51092	2192.3125
3143.85406	2180.1125
3146.19579	2177.0125
3148.53609	2165.1125
3150.87499	2168.0125
3153.21246	2168.3125
3155.54853	2176.7125
3157.88318	2170.0125
3160.21642	2168.6125
3162.54826	2177.4125
3164.87868	2179.2125
3167.2077	2138.7125
3169.5353	2159.1125
3171.86151	2161.0125
3174.18631	2141.5125
3176.5097	2151.1125
3178.83169	2147.3125
3181.15228	2138.0125
3183.47147	2115.6125
3185.78926	2099.3125
3188.10565	2118.7125
3190.42065	2086.6125
3192.73424	2108.4125
3195.04645	2092.7125
3197.35725	2088.9125
3199.66667	2094.0125
3201.97469	2096.2125
3204.28132	2081.5125
3206.58656	2106.3125
3208.8904	2095.1125
3211.19287	2084.2125
3213.49394	2082.8125
3215.79363	2068.2125
3218.09193	2078.2125
3220.38884	2088.8125
3222.68438	2074.5125
3224.97853	2060.8125
3227.2713	2077.8125
3229.56269	2062.7125
3231.8527	2074.8125
3234.14133	2055.1125
3236.42858	2057.0125
3238.71446	2025.9125
3240.99896	2046.8125
3243.28209	2034.7125
3245.56384	2032.0125
3247.84423	2023.2125
3250.12324	2027.8125
3252.40088	2019.7125
3254.67715	2008.8125
3256.95205	2005.4125
3259.22558	2020.0125
3261.49775	2020.5125
3263.76855	2007.1125
3266.03799	2017.0125
3268.30606	2017.5125
3270.57277	2002.9125
3272.83812	1986.1125
3275.10211	1992.1125
3277.36474	1997.7125
3279.62601	1996.8125
3281.88593	1967.2125
3284.14448	1951.9125
3286.40168	1971.6125
3288.65753	1963.7125
3290.91202	1963.3125
3293.16516	1947.0125
3295.41695	1962.1125
3297.66738	1965.7125
3299.91647	1946.4125
3302.16421	1950.3125
3304.4106	1915.8125
3306.65564	1922.8125
3308.89933	1883.9125
3311.14169	1883.1125
3313.38269	1875.4125
3315.62236	1866.7125
3317.86068	1839.2125
3320.09766	1845.1125
3322.3333	1803.3125
3324.5676	1808.7125
3326.80056	1775.9125
3329.03219	1755.4125
3331.26248	0.7125
3333.49143	-0.4875
3335.71905	0.7125
