Data from AgNPs_UA_50uM_CRN_500uM_SU_RamanShift__86__14-10-10-330.txt Node

Date: Thu Aug 04 14:10:10 BST 2022
User: TCL
Spectrometer: QEP01345
Trigger mode: 4
Integration Time (sec): 1.000000E0
Scans to average: 10
Electric dark correction enabled: true
Nonlinearity correction enabled: false
Boxcar width: 0
XAxis mode: Raman Shifts
Number of Pixels in Spectrum: 1044
>>>>>Begin Spectral Data<<<<<
46.04893	1.025
50.45542	1.025
54.85868	0.325
59.25871	-1.875
63.6555	13.825
68.04907	13.125
72.43941	14.225
76.82654	14.825
81.21044	14.025
85.59113	15.825
89.96862	14.825
94.34289	17.325
98.71396	16.825
103.08183	17.325
107.4465	17.625
111.80798	16.425
116.16626	18.325
120.52136	20.025
124.87327	21.025
129.222	25.125
133.56755	24.325
137.90993	24.725
142.24913	26.925
146.58517	30.325
150.91804	36.625
155.24774	39.525
159.57429	53.425
163.89768	71.525
168.21792	93.625
172.53501	128.425
176.84895	179.625
181.15975	253.825
185.46741	354.525
189.77193	493.025
194.07331	653.525
198.37157	844.125
202.6667	1030.025
206.9587	1231.625
211.24758	1421.625
215.53334	1630.025
219.81599	1839.625
224.09553	2067.725
228.37195	2332.025
232.64527	2612.325
236.91549	2888.625
241.18261	3150.425
245.44663	3359.525
249.70755	3570.425
253.96539	3737.125
258.22014	3887.125
262.4718	4020.425
266.72039	4121.425
270.96589	4176.325
275.20832	4156.825
279.44768	4104.425
283.68397	4044.125
287.91719	3998.425
292.14735	3997.225
296.37445	4047.625
300.59849	4140.125
304.81948	4265.125
309.03742	4368.025
313.25231	4418.225
317.46415	4356.125
321.67296	4212.225
325.87872	4073.425
330.08145	4015.625
334.28114	4049.825
338.47781	4114.325
342.67145	4197.125
346.86207	4308.025
351.04966	4467.425
355.23424	4624.225
359.4158	4733.925
363.59435	4820.925
367.76989	4853.525
371.94243	4877.725
376.11196	4918.525
380.27849	4923.925
384.44203	4937.525
388.60257	4959.525
392.76012	4980.825
396.91468	5042.625
401.06626	5150.725
405.21485	5199.025
409.36047	5171.325
413.50311	5038.825
417.64277	4897.125
421.77947	4813.825
425.9132	4814.625
430.04396	4908.625
434.17176	4994.625
438.2966	5167.425
442.41849	5427.125
446.53742	5710.225
450.6534	5972.025
454.76644	6132.025
458.87653	6097.425
462.98368	5925.225
467.08789	5714.525
471.18916	5474.125
475.2875	5233.225
479.38291	5023.425
483.4754	4883.625
487.56496	4820.725
491.6516	4744.125
495.73531	4717.025
499.81612	4691.225
503.89401	4738.825
507.96899	4758.525
512.04106	4786.725
516.11023	4840.425
520.1765	4915.525
524.23987	4979.425
528.30034	4990.825
532.35792	4988.125
536.41261	4907.525
540.46441	4824.125
544.51333	4789.125
548.55936	4823.925
552.60252	4893.725
556.64279	4985.625
560.6802	5012.825
564.71473	4985.825
568.7464	5022.925
572.7752	5022.025
576.80114	4982.325
580.82422	4979.925
584.84444	5109.425
588.86181	5338.425
592.87633	5622.925
596.888	5768.325
600.89682	5894.025
604.9028	6405.625
608.90594	7486.325
612.90624	8395.425
616.90371	7613.125
620.89834	6044.625
624.89015	5474.925
628.87913	5387.825
632.86528	5292.725
636.84862	5185.925
640.82913	5036.625
644.80683	4832.725
648.78172	4757.225
652.75379	4795.725
656.72306	4957.825
660.68952	5115.325
664.65319	5072.925
668.61405	4965.225
672.57211	4958.025
676.52738	4940.425
680.47986	4868.125
684.42955	4822.225
688.37646	4828.525
692.32058	4877.325
696.26192	4959.325
700.20048	5034.325
704.13626	5052.725
708.06928	4966.225
711.99952	4914.025
715.927	4925.925
719.85171	4973.225
723.77365	4954.325
727.69284	4905.025
731.60928	4890.825
735.52295	4909.125
739.43388	4964.025
743.34206	4988.925
747.24749	5033.625
751.15017	5059.025
755.05012	5117.825
758.94733	5300.125
762.8418	5696.525
766.73354	6274.525
770.62254	6809.325
774.50882	7011.625
778.39237	6716.125
782.27321	6090.325
786.15132	5528.625
790.02671	5196.125
793.89938	5049.425
797.76935	4997.525
801.6366	4979.325
805.50115	4948.625
809.36299	4927.325
813.22213	4910.625
817.07857	4894.325
820.93231	4875.125
824.78336	4895.725
828.63172	4912.825
832.47738	4921.725
836.32036	4941.025
840.16066	4945.725
843.99827	4976.725
847.8332	4949.625
851.66546	4915.025
855.49504	4901.625
859.32195	4924.925
863.1462	4891.225
866.96777	4894.625
870.78668	4867.725
874.60293	4884.425
878.41652	4901.925
882.22745	4957.925
886.03573	4957.225
889.84136	4945.225
893.64433	4916.625
897.44466	4903.525
901.24235	4885.525
905.0374	4894.225
908.8298	4870.725
912.61957	4868.225
916.40671	4889.125
920.19121	4958.925
923.97308	5031.425
927.75233	5092.725
931.52895	5106.325
935.30295	5038.325
939.07433	4930.025
942.84309	4847.825
946.60924	4840.425
950.37278	4817.225
954.13371	4792.925
957.89203	4759.325
961.64774	4739.725
965.40086	4722.725
969.15137	4702.025
972.89929	4701.125
976.64461	4704.425
980.38733	4737.425
984.12747	4765.725
987.86502	4811.925
991.59999	4889.225
995.33237	5030.225
999.06217	5263.425
1002.78939	5485.225
1006.51404	5565.225
1010.23611	5608.425
1013.95561	5754.525
1017.67255	5806.025
1021.38692	5730.525
1025.09872	5642.325
1028.80796	5675.825
1032.51465	5806.525
1036.21877	5928.225
1039.92035	5902.125
1043.61937	5793.425
1047.31584	5593.525
1051.00976	5443.725
1054.70114	5393.625
1058.38998	5368.925
1062.07627	5383.525
1065.76003	5380.025
1069.44126	5418.725
1073.11995	5472.825
1076.79611	5511.425
1080.46974	5584.125
1084.14085	5661.125
1087.80943	5734.125
1091.47549	5688.025
1095.13903	5598.925
1098.80005	5477.325
1102.45857	5412.325
1106.11456	5421.125
1109.76805	5453.725
1113.41903	5536.725
1117.06751	5663.425
1120.71348	5801.725
1124.35696	5960.625
1127.99793	6045.825
1131.63641	5967.325
1135.2724	5806.925
1138.90589	5676.325
1142.5369	5578.725
1146.16542	5487.925
1149.79145	5491.925
1153.415	5469.525
1157.03607	5506.225
1160.65467	5595.525
1164.27079	5785.925
1167.88443	6028.225
1171.49561	6415.425
1175.10432	7039.625
1178.71056	7847.625
1182.31434	8583.925
1185.91565	9044.825
1189.51451	9108.625
1193.11091	8757.925
1196.70485	8147.025
1200.29634	7580.325
1203.88538	7075.825
1207.47197	6702.925
1211.05612	6425.425
1214.63782	6324.625
1218.21708	6324.025
1221.79391	6371.725
1225.36829	6421.525
1228.94024	6419.325
1232.50976	6382.525
1236.07685	6392.825
1239.6415	6473.225
1243.20374	6510.825
1246.76355	6504.325
1250.32093	6597.825
1253.8759	6760.225
1257.42845	6997.525
1260.97859	7261.125
1264.52631	7439.625
1268.07163	7614.625
1271.61453	7701.925
1275.15503	7795.725
1278.69312	7924.425
1282.22882	8117.925
1285.76211	8358.225
1289.29301	8633.225
1292.82151	8851.725
1296.34761	9092.425
1299.87133	9425.525
1303.39266	9927.225
1306.9116	10659.625
1310.42815	11406.525
1313.94233	11752.925
1317.45412	11531.025
1320.96354	11013.725
1324.47058	10533.125
1327.97525	10249.025
1331.47754	10254.525
1334.97747	10509.025
1338.47502	10714.525
1341.97022	10881.125
1345.46305	10961.725
1348.95352	11275.725
1352.44163	11739.225
1355.92738	12363.625
1359.41078	13183.825
1362.89183	13486.625
1366.37053	12749.225
1369.84688	11317.125
1373.32088	9958.325
1376.79254	9127.725
1380.26186	8700.425
1383.72883	8493.925
1387.19347	8215.525
1390.65578	7825.125
1394.11575	7546.225
1397.57339	7414.925
1401.0287	7480.925
1404.48168	7689.925
1407.93234	7951.725
1411.38068	8201.725
1414.82669	8255.425
1418.27039	8091.625
1421.71177	7905.625
1425.15083	7848.725
1428.58758	7967.625
1432.02203	8195.825
1435.45416	8359.325
1438.88399	8371.425
1442.31151	8306.025
1445.73673	8242.425
1449.15965	8180.125
1452.58027	8001.425
1455.9986	7792.025
1459.41463	7725.525
1462.82837	7808.525
1466.23982	8019.825
1469.64898	8270.125
1473.05586	8455.825
1476.46045	8614.425
1479.86276	8736.225
1483.26279	8787.225
1486.66054	8843.625
1490.05602	8925.625
1493.44922	9091.725
1496.84016	9315.025
1500.22882	9712.425
1503.61521	10300.325
1506.99934	10857.825
1510.38121	11108.525
1513.76081	10852.425
1517.13816	10166.525
1520.51324	9406.325
1523.88607	8900.525
1527.25665	8653.025
1530.62498	8608.925
1533.99105	8634.425
1537.35488	8679.925
1540.71647	8677.925
1544.07581	8593.725
1547.4329	8412.325
1550.78776	8148.825
1554.14038	7913.325
1557.49077	7706.925
1560.83892	7637.425
1564.18484	7650.025
1567.52853	7725.925
1570.86999	7793.525
1574.20922	7793.125
1577.54624	7711.725
1580.88103	7454.125
1584.2136	7307.725
1587.54395	7340.325
1590.87208	7747.625
1594.19801	8509.125
1597.52172	9487.425
1600.84321	10141.225
1604.16251	10120.725
1607.47959	9421.725
1610.79447	8481.725
1614.10715	7578.825
1617.41763	6922.525
1620.7259	6527.825
1624.03199	6368.225
1627.33587	6362.325
1630.63757	6560.525
1633.93707	6983.525
1637.23439	7663.725
1640.52951	8517.225
1643.82246	9449.525
1647.11321	10093.925
1650.40179	9920.125
1653.68819	8950.925
1656.97241	7742.325
1660.25446	6671.025
1663.53433	6008.025
1666.81203	5615.225
1670.08756	5331.025
1673.36092	5174.325
1676.63211	5061.925
1679.90115	4964.625
1683.16801	4908.025
1686.43272	4860.425
1689.69527	4826.925
1692.95567	4806.225
1696.2139	4792.225
1699.46999	4763.025
1702.72392	4783.325
1705.97571	4780.925
1709.22535	4769.125
1712.47284	4774.525
1715.71819	4770.625
1718.96139	4764.525
1722.20246	4745.425
1725.44139	4730.525
1728.67818	4714.625
1731.91284	4662.725
1735.14537	4647.725
1738.37576	4627.425
1741.60403	4623.525
1744.83017	4616.925
1748.05418	4602.325
1751.27607	4577.525
1754.49584	4561.925
1757.71349	4567.025
1760.92903	4567.325
1764.14244	4564.525
1767.35375	4560.625
1770.56294	4561.925
1773.77002	4539.825
1776.97499	4529.825
1780.17785	4533.925
1783.37861	4506.525
1786.57727	4496.025
1789.77382	4517.325
1792.96828	4490.725
1796.16064	4497.125
1799.3509	4493.125
1802.53907	4496.625
1805.72514	4498.925
1808.90913	4467.425
1812.09102	4457.825
1815.27083	4442.425
1818.44856	4437.025
1821.6242	4432.625
1824.79776	4426.325
1827.96924	4389.925
1831.13864	4398.525
1834.30597	4402.525
1837.47122	4379.825
1840.6344	4388.325
1843.7955	4380.325
1846.95454	4383.125
1850.11151	4403.625
1853.26642	4388.125
1856.41926	4408.525
1859.57004	4406.525
1862.71876	4402.425
1865.86542	4399.625
1869.01003	4376.125
1872.15258	4400.825
1875.29308	4393.225
1878.43152	4399.425
1881.56792	4397.725
1884.70227	4380.425
1887.83457	4387.125
1890.96482	4376.525
1894.09304	4380.325
1897.21921	4361.225
1900.34335	4360.825
1903.46544	4351.125
1906.58551	4340.425
1909.70353	4332.425
1912.81953	4334.925
1915.93349	4334.025
1919.04543	4326.325
1922.15534	4335.925
1925.26322	4325.425
1928.36908	4332.625
1931.47292	4309.525
1934.57473	4317.025
1937.67453	4310.625
1940.77232	4292.425
1943.86808	4278.425
1946.96184	4263.625
1950.05358	4263.525
1953.14331	4252.525
1956.23103	4230.325
1959.31675	4209.225
1962.40046	4216.225
1965.48217	4193.725
1968.56188	4175.925
1971.63959	4180.225
1974.7153	4167.825
1977.78901	4149.525
1980.86073	4150.625
1983.93046	4120.825
1986.99819	4105.125
1990.06394	4109.225
1993.1277	4096.625
1996.18947	4089.625
1999.24925	4054.325
2002.30706	4051.125
2005.36288	4049.825
2008.41672	4021.925
2011.46859	4012.225
2014.51848	4000.325
2017.56639	4011.825
2020.61233	3987.825
2023.6563	3964.325
2026.6983	3952.725
2029.73833	3948.225
2032.7764	3948.925
2035.8125	3927.825
2038.84664	3943.725
2041.87881	3929.325
2044.90903	3926.925
2047.93729	3920.625
2050.96359	3912.125
2053.98794	3915.325
2057.01034	3905.525
2060.03078	3927.925
2063.04927	3909.525
2066.06582	3905.225
2069.08042	3895.725
2072.09307	3885.525
2075.10378	3881.425
2078.11255	3881.625
2081.11938	3879.525
2084.12426	3873.425
2087.12722	3878.425
2090.12824	3876.325
2093.12732	3874.225
2096.12447	3865.225
2099.11969	3880.625
2102.11299	3877.225
2105.10435	3875.025
2108.09379	3870.825
2111.08131	3880.225
2114.0669	3884.025
2117.05057	3864.425
2120.03233	3862.825
2123.01216	3863.725
2125.99008	3880.425
2128.96609	3868.325
2131.94018	3879.925
2134.91236	3869.925
2137.88263	3870.325
2140.851	3866.025
2143.81746	3881.625
2146.78201	3893.425
2149.74466	3873.625
2152.7054	3864.425
2155.66425	3869.425
2158.6212	3876.525
2161.57625	3868.625
2164.52941	3860.025
2167.48067	3857.325
2170.43004	3874.025
2173.37752	3873.525
2176.32311	3865.025
2179.26681	3859.225
2182.20863	3866.925
2185.14856	3870.625
2188.08661	3850.925
2191.02278	3871.625
2193.95707	3874.725
2196.88948	3854.725
2199.82001	3861.225
2202.74867	3863.825
2205.67545	3854.525
2208.60037	3860.625
2211.52341	3851.525
2214.44458	3844.525
2217.36388	3850.525
2220.28132	3845.425
2223.1969	3824.125
2226.11061	3801.225
2229.02246	3803.125
2231.93245	3817.325
2234.84058	3790.925
2237.74686	3797.625
2240.65128	3796.025
2243.55385	3780.125
2246.45456	3769.125
2249.35343	3774.125
2252.25044	3779.425
2255.14561	3763.425
2258.03893	3753.225
2260.93041	3749.725
2263.82004	3753.825
2266.70783	3732.325
2269.59378	3712.425
2272.4779	3712.625
2275.36017	3699.025
2278.24061	3694.725
2281.11922	3681.325
2283.996	3679.725
2286.87094	3680.225
2289.74405	3659.425
2292.61534	3673.025
2295.4848	3657.625
2298.35243	3672.225
2301.21824	3664.825
2304.08223	3662.425
2306.94439	3669.225
2309.80474	3669.425
2312.66327	3670.625
2315.51999	3660.925
2318.37489	3668.225
2321.22797	3671.525
2324.07925	3667.025
2326.92871	3641.925
2329.77637	3652.925
2332.62222	3646.225
2335.46626	3634.125
2338.3085	3638.625
2341.14893	3645.325
2343.98756	3664.425
2346.8244	3662.625
2349.65943	3637.825
2352.49267	3650.225
2355.32411	3656.825
2358.15376	3632.225
2360.98161	3634.725
2363.80768	3632.625
2366.63195	3621.525
2369.45444	3613.925
2372.27514	3620.525
2375.09405	3612.825
2377.91118	3615.025
2380.72652	3588.325
2383.54009	3582.725
2386.35187	3586.525
2389.16188	3570.325
2391.97011	3583.525
2394.77657	3568.325
2397.58125	3557.125
2400.38416	3557.425
2403.18529	3523.025
2405.98466	3537.525
2408.78226	3516.425
2411.57809	3496.225
2414.37216	3500.025
2417.16446	3502.825
2419.955	3497.725
2422.74378	3499.225
2425.5308	3500.025
2428.31606	3482.925
2431.09956	3496.625
2433.88131	3473.225
2436.6613	3480.425
2439.43954	3472.825
2442.21603	3484.525
2444.99077	3472.025
2447.76377	3463.425
2450.53501	3455.225
2453.30451	3467.425
2456.07226	3471.125
2458.83827	3458.625
2461.60254	3456.525
2464.36507	3456.225
2467.12586	3455.525
2469.88492	3450.725
2472.64224	3462.825
2475.39782	3444.725
2478.15167	3451.925
2480.90379	3448.925
2483.65417	3458.125
2486.40283	3468.025
2489.14976	3474.525
2491.89497	3478.725
2494.63845	3480.525
2497.3802	3460.025
2500.12024	3464.925
2502.85855	3463.225
2505.59514	3448.725
2508.33002	3438.125
2511.06318	3443.025
2513.79462	3435.725
2516.52435	3425.525
2519.25237	3416.325
2521.97867	3429.125
2524.70327	3416.525
2527.42616	3422.325
2530.14734	3428.225
2532.86681	3418.625
2535.58458	3441.325
2538.30065	3436.825
2541.01501	3408.625
2543.72768	3422.525
2546.43864	3414.125
2549.14791	3394.925
2551.85548	3401.725
2554.56136	3411.525
2557.26554	3400.325
2559.96803	3386.525
2562.66883	3387.425
2565.36794	3378.925
2568.06536	3393.225
2570.7611	3377.825
2573.45514	3375.225
2576.14751	3368.025
2578.83819	3354.125
2581.52719	3357.525
2584.21451	3352.725
2586.90015	3352.125
2589.58411	3362.025
2592.2664	3352.125
2594.94701	3354.225
2597.62594	3356.925
2600.30321	3367.025
2602.9788	3363.325
2605.65273	3344.425
2608.32498	3348.825
2610.99557	3347.525
2613.66449	3354.625
2616.33175	3355.825
2618.99734	3355.025
2621.66128	3355.825
2624.32355	3351.225
2626.98416	3346.825
2629.64311	3339.125
2632.30041	3343.825
2634.95605	3338.225
2637.61004	3338.225
2640.26238	3333.525
2642.91306	3326.525
2645.56209	3331.425
2648.20948	3344.225
2650.85521	3330.725
2653.4993	3329.225
2656.14175	3323.225
2658.78255	3321.325
2661.42171	3327.425
2664.05923	3338.625
2666.6951	3331.925
2669.32934	3337.025
2671.96194	3334.425
2674.59291	3321.425
2677.22224	3320.725
2679.84993	3343.425
2682.476	3311.325
2685.10043	3321.425
2687.72324	3335.125
2690.34441	3325.625
2692.96396	3319.525
2695.58188	3314.225
2698.19818	3312.325
2700.81285	3316.225
2703.4259	3317.725
2706.03733	3328.325
2708.64714	3312.525
2711.25533	3316.625
2713.86191	3299.325
2716.46687	3310.325
2719.07021	3307.925
2721.67194	3323.125
2724.27206	3315.525
2726.87057	3325.625
2729.46747	3318.425
2732.06276	3328.825
2734.65644	3321.425
2737.24852	3317.825
2739.83899	3313.025
2742.42786	3317.825
2745.01513	3315.325
2747.60079	3309.125
2750.18486	3321.325
2752.76733	3305.025
2755.3482	3296.725
2757.92747	3289.025
2760.50515	3288.825
2763.08123	3299.325
2765.65573	3281.625
2768.22863	3292.325
2770.79994	3278.825
2773.36967	3284.025
2775.9378	3290.725
2778.50435	3285.525
2781.06932	3284.425
2783.6327	3289.025
2786.1945	3289.925
2788.75471	3287.225
2791.31335	3281.325
2793.87041	3275.425
2796.42589	3262.425
2798.97979	3263.625
2801.53212	3264.325
2804.08288	3259.425
2806.63206	3244.225
2809.17967	3227.025
2811.72571	3228.125
2814.27018	3224.525
2816.81308	3220.425
2819.35442	3228.625
2821.89419	3217.225
2824.43239	3208.025
2826.96904	3204.525
2829.50412	3204.125
2832.03763	3200.425
2834.56959	3199.325
2837.1	3186.725
2839.62884	3184.225
2842.15613	3183.625
2844.68186	3189.225
2847.20604	3180.025
2849.72867	3186.325
2852.24974	3169.025
2854.76927	3168.325
2857.28724	3152.425
2859.80367	3149.025
2862.31855	3147.325
2864.83189	3156.325
2867.34368	3143.325
2869.85393	3135.925
2872.36264	3138.025
2874.8698	3145.425
2877.37543	3123.725
2879.87952	3134.025
2882.38207	3133.925
2884.88308	3130.525
2887.38256	3133.025
2889.88051	3122.825
2892.37692	3119.925
2894.8718	3113.425
2897.36515	3122.625
2899.85698	3109.225
2902.34727	3124.325
2904.83604	3125.725
2907.32328	3132.125
2909.809	3140.425
2912.29319	3128.925
2914.77587	3124.125
2917.25702	3140.825
2919.73665	3127.025
2922.21476	3125.625
2924.69136	3121.025
2927.16644	3116.725
2929.64	3120.425
2932.11205	3111.025
2934.58258	3110.125
2937.05161	3112.825
2939.51912	3108.625
2941.98513	3104.125
2944.44962	3082.825
2946.91261	3094.325
2949.37409	3082.825
2951.83407	3090.325
2954.29254	3080.725
2956.74951	3088.325
2959.20498	3087.625
2961.65895	3072.825
2964.11142	3066.325
2966.56239	3069.125
2969.01186	3061.425
2971.45984	3059.325
2973.90632	3065.225
2976.35131	3039.425
2978.7948	3049.025
2981.23681	3021.725
2983.67732	3033.425
2986.11635	3021.825
2988.55388	2999.825
2990.98993	2999.325
2993.4245	2979.325
2995.85758	2981.825
2998.28917	2971.325
3000.71928	2964.125
3003.14791	2973.625
3005.57506	2965.125
3008.00073	2944.625
3010.42493	2930.325
3012.84764	2926.025
3015.26888	2934.025
3017.68865	2919.225
3020.10694	2914.125
3022.52376	2904.425
3024.9391	2900.925
3027.35298	2889.025
3029.76539	2878.025
3032.17632	2880.725
3034.5858	2872.425
3036.9938	2866.825
3039.40034	2872.425
3041.80542	2862.725
3044.20903	2860.925
3046.61118	2854.725
3049.01187	2850.525
3051.4111	2842.425
3053.80888	2823.825
3056.20519	2822.525
3058.60005	2823.525
3060.99345	2813.325
3063.3854	2795.925
3065.7759	2788.525
3068.16494	2768.225
3070.55254	2773.225
3072.93868	2750.425
3075.32338	2756.325
3077.70662	2746.925
3080.08842	2735.125
3082.46878	2719.125
3084.84769	2713.025
3087.22515	2730.725
3089.60118	2728.425
3091.97576	2726.725
3094.3489	2721.725
3096.72061	2720.525
3099.09087	2713.025
3101.4597	2707.925
3103.82709	2712.625
3106.19305	2692.025
3108.55757	2687.425
3110.92066	2688.325
3113.28232	2693.625
3115.64255	2679.625
3118.00134	2681.325
3120.35871	2664.325
3122.71466	2655.625
3125.06917	2648.025
3127.42226	2642.925
3129.77393	2645.525
3132.12417	2645.925
3134.47299	2646.625
3136.82039	2637.425
3139.16636	2639.525
3141.51092	2631.125
3143.85406	2616.025
3146.19579	2613.125
3148.53609	2616.525
3150.87499	2603.125
3153.21246	2629.725
3155.54853	2624.925
3157.88318	2614.825
3160.21642	2625.525
3162.54826	2617.725
3164.87868	2618.325
3167.2077	2603.725
3169.5353	2594.125
3171.86151	2591.425
3174.18631	2590.525
3176.5097	2589.725
3178.83169	2582.625
3181.15228	2582.925
3183.47147	2582.125
3185.78926	2580.625
3188.10565	2563.225
3190.42065	2570.725
3192.73424	2558.925
3195.04645	2552.425
3197.35725	2557.725
3199.66667	2559.425
3201.97469	2552.525
3204.28132	2547.425
3206.58656	2552.625
3208.8904	2556.525
3211.19287	2553.325
3213.49394	2558.225
3215.79363	2538.525
3218.09193	2540.025
3220.38884	2547.325
3222.68438	2544.125
3224.97853	2549.125
3227.2713	2545.925
3229.56269	2526.525
3231.8527	2530.725
3234.14133	2522.425
3236.42858	2506.825
3238.71446	2513.725
3240.99896	2509.325
3243.28209	2511.525
3245.56384	2505.325
3247.84423	2502.225
3250.12324	2501.925
3252.40088	2507.225
3254.67715	2492.125
3256.95205	2481.525
3259.22558	2483.425
3261.49775	2481.925
3263.76855	2486.925
3266.03799	2481.025
3268.30606	2472.025
3270.57277	2466.825
3272.83812	2467.525
3275.10211	2453.625
3277.36474	2443.625
3279.62601	2457.025
3281.88593	2443.425
3284.14448	2444.625
3286.40168	2441.925
3288.65753	2446.725
3290.91202	2439.725
3293.16516	2434.025
3295.41695	2443.125
3297.66738	2420.225
3299.91647	2404.125
3302.16421	2383.725
3304.4106	2381.225
3306.65564	2344.625
3308.89933	2342.325
3311.14169	2326.225
3313.38269	2296.425
3315.62236	2295.025
3317.86068	2266.825
3320.09766	2249.025
3322.3333	2227.625
3324.5676	2208.125
3326.80056	2180.725
3329.03219	2166.325
3331.26248	0.025
3333.49143	0.425
3335.71905	-0.775
