Data from AgNPs_UA_10uM_CRN_500uM_SU_RamanShift__30__13-10-20-260.txt Node

Date: Thu Aug 04 13:10:20 BST 2022
User: TCL
Spectrometer: QEP01345
Trigger mode: 4
Integration Time (sec): 1.000000E0
Scans to average: 10
Electric dark correction enabled: true
Nonlinearity correction enabled: false
Boxcar width: 0
XAxis mode: Raman Shifts
Number of Pixels in Spectrum: 1044
>>>>>Begin Spectral Data<<<<<
46.04893	0.7875
50.45542	-1.3125
54.85868	1.1875
59.25871	-1.2125
63.6555	17.9875
68.04907	19.1875
72.43941	19.3875
76.82654	18.4875
81.21044	18.7875
85.59113	21.9875
89.96862	20.7875
94.34289	23.0875
98.71396	23.1875
103.08183	24.6875
107.4465	24.6875
111.80798	22.6875
116.16626	23.6875
120.52136	25.9875
124.87327	28.9875
129.222	29.3875
133.56755	31.0875
137.90993	33.2875
142.24913	37.2875
146.58517	42.3875
150.91804	50.2875
155.24774	62.7875
159.57429	77.1875
163.89768	100.9875
168.21792	135.4875
172.53501	184.4875
176.84895	257.9875
181.15975	368.8875
185.46741	523.1875
189.77193	722.9875
194.07331	984.3875
198.37157	1264.1875
202.6667	1576.2875
206.9587	1870.7875
211.24758	2182.5875
215.53334	2494.9875
219.81599	2840.9875
224.09553	3212.8875
228.37195	3620.2875
232.64527	4052.2875
236.91549	4503.5875
241.18261	4887.5875
245.44663	5194.6875
249.70755	5438.8875
253.96539	5647.2875
258.22014	5832.2875
262.4718	5965.4875
266.72039	6035.3875
270.96589	6036.7875
275.20832	6005.7875
279.44768	5918.8875
283.68397	5809.0875
287.91719	5764.4875
292.14735	5767.5875
296.37445	5853.3875
300.59849	6029.8875
304.81948	6264.7875
309.03742	6485.2875
313.25231	6635.6875
317.46415	6592.4875
321.67296	6348.9875
325.87872	6086.4875
330.08145	5949.5875
334.28114	5918.1875
338.47781	5974.7875
342.67145	6087.1875
346.86207	6290.5875
351.04966	6551.3875
355.23424	6811.6875
359.4158	7017.2875
363.59435	7047.4875
367.76989	7054.4875
371.94243	7007.9875
376.11196	6983.2875
380.27849	6973.6875
384.44203	6972.2875
388.60257	7016.3875
392.76012	7066.2875
396.91468	7166.4875
401.06626	7283.6875
405.21485	7332.4875
409.36047	7246.2875
413.50311	7035.5875
417.64277	6828.5875
421.77947	6712.2875
425.9132	6644.8875
430.04396	6612.5875
434.17176	6634.0875
438.2966	6705.4875
442.41849	6781.2875
446.53742	6927.0875
450.6534	7039.9875
454.76644	7158.0875
458.87653	7210.2875
462.98368	7206.1875
467.08789	7157.7875
471.18916	7075.0875
475.2875	6927.2875
479.38291	6814.5875
483.4754	6743.4875
487.56496	6679.1875
491.6516	6667.1875
495.73531	6670.2875
499.81612	6701.0875
503.89401	6762.9875
507.96899	6813.4875
512.04106	6844.5875
516.11023	6899.3875
520.1765	6919.7875
524.23987	6955.6875
528.30034	6927.6875
532.35792	6926.2875
536.41261	6868.6875
540.46441	6780.8875
544.51333	6770.7875
548.55936	6823.9875
552.60252	6905.3875
556.64279	6987.0875
560.6802	7095.3875
564.71473	7193.6875
568.7464	7271.0875
572.7752	7229.5875
576.80114	7030.3875
580.82422	6867.7875
584.84444	6813.9875
588.86181	6804.3875
592.87633	6814.6875
596.888	6933.6875
600.89682	7266.9875
604.9028	8071.0875
608.90594	9777.4875
612.90624	11423.3875
616.90371	10629.4875
620.89834	8284.3875
624.89015	7329.6875
628.87913	7229.6875
632.86528	7389.1875
636.84862	7486.2875
640.82913	7342.5875
644.80683	7063.9875
648.78172	6910.1875
652.75379	6907.9875
656.72306	7136.0875
660.68952	7340.8875
664.65319	7300.7875
668.61405	7212.3875
672.57211	7253.9875
676.52738	7253.4875
680.47986	7111.5875
684.42955	6934.0875
688.37646	6891.1875
692.32058	6936.4875
696.26192	7073.8875
700.20048	7190.5875
704.13626	7227.6875
708.06928	7155.6875
711.99952	7081.9875
715.927	7043.4875
719.85171	7106.4875
723.77365	7121.0875
727.69284	7091.0875
731.60928	7020.6875
735.52295	7031.0875
739.43388	7048.8875
743.34206	7070.2875
747.24749	7070.8875
751.15017	7064.0875
755.05012	7141.2875
758.94733	7408.6875
762.8418	8046.9875
766.73354	8990.7875
770.62254	9708.7875
774.50882	9816.5875
778.39237	9551.9875
782.27321	8964.9875
786.15132	8217.4875
790.02671	7661.3875
793.89938	7344.5875
797.76935	7174.1875
801.6366	7119.6875
805.50115	7077.1875
809.36299	7046.2875
813.22213	7035.8875
817.07857	7048.5875
820.93231	7041.7875
824.78336	7048.1875
828.63172	7052.1875
832.47738	7084.3875
836.32036	7047.5875
840.16066	7043.1875
843.99827	7028.7875
847.8332	7030.9875
851.66546	7043.1875
855.49504	7037.3875
859.32195	7076.1875
863.1462	7055.8875
866.96777	7053.9875
870.78668	7056.0875
874.60293	7098.3875
878.41652	7117.7875
882.22745	7179.0875
886.03573	7231.3875
889.84136	7217.5875
893.64433	7196.0875
897.44466	7180.4875
901.24235	7171.3875
905.0374	7161.0875
908.8298	7103.2875
912.61957	7108.3875
916.40671	7119.1875
920.19121	7118.1875
923.97308	7160.4875
927.75233	7226.4875
931.52895	7286.2875
935.30295	7233.7875
939.07433	7118.0875
942.84309	7063.5875
946.60924	7020.5875
950.37278	7022.9875
954.13371	6986.9875
957.89203	7017.9875
961.64774	7001.5875
965.40086	7005.3875
969.15137	6982.2875
972.89929	6998.6875
976.64461	6991.4875
980.38733	6984.3875
984.12747	7016.2875
987.86502	7024.2875
991.59999	7056.7875
995.33237	7108.2875
999.06217	7137.0875
1002.78939	7260.2875
1006.51404	7354.9875
1010.23611	7481.6875
1013.95561	7545.5875
1017.67255	7539.7875
1021.38692	7544.4875
1025.09872	7474.2875
1028.80796	7419.8875
1032.51465	7382.9875
1036.21877	7400.9875
1039.92035	7406.1875
1043.61937	7454.2875
1047.31584	7500.4875
1051.00976	7510.8875
1054.70114	7529.0875
1058.38998	7540.2875
1062.07627	7594.3875
1065.76003	7627.8875
1069.44126	7725.5875
1073.11995	7870.5875
1076.79611	8035.0875
1080.46974	8145.9875
1084.14085	8214.3875
1087.80943	8338.1875
1091.47549	8355.6875
1095.13903	8371.3875
1098.80005	8398.0875
1102.45857	8469.0875
1106.11456	8466.0875
1109.76805	8313.5875
1113.41903	8249.6875
1117.06751	8367.1875
1120.71348	8500.9875
1124.35696	8655.5875
1127.99793	8792.0875
1131.63641	8640.0875
1135.2724	8364.2875
1138.90589	8128.8875
1142.5369	8024.8875
1146.16542	7960.3875
1149.79145	7891.0875
1153.415	7809.1875
1157.03607	7791.0875
1160.65467	7853.1875
1164.27079	8034.0875
1167.88443	8268.0875
1171.49561	8614.1875
1175.10432	9129.1875
1178.71056	9818.0875
1182.31434	10436.2875
1185.91565	10659.7875
1189.51451	10648.1875
1193.11091	10518.4875
1196.70485	10379.2875
1200.29634	10182.6875
1203.88538	9942.0875
1207.47197	9609.0875
1211.05612	9214.3875
1214.63782	8850.3875
1218.21708	8571.3875
1221.79391	8403.3875
1225.36829	8333.3875
1228.94024	8321.2875
1232.50976	8354.2875
1236.07685	8385.0875
1239.6415	8424.5875
1243.20374	8476.2875
1246.76355	8532.0875
1250.32093	8576.7875
1253.8759	8685.3875
1257.42845	8874.4875
1260.97859	9113.0875
1264.52631	9331.7875
1268.07163	9469.5875
1271.61453	9569.9875
1275.15503	9578.4875
1278.69312	9548.4875
1282.22882	9564.4875
1285.76211	9632.1875
1289.29301	9790.3875
1292.82151	9969.2875
1296.34761	10140.3875
1299.87133	10422.0875
1303.39266	10958.0875
1306.9116	11760.6875
1310.42815	12609.9875
1313.94233	12920.1875
1317.45412	12458.9875
1320.96354	11754.9875
1324.47058	11123.9875
1327.97525	10572.9875
1331.47754	10252.2875
1334.97747	10160.3875
1338.47502	10266.1875
1341.97022	10603.8875
1345.46305	11268.4875
1348.95352	12276.3875
1352.44163	13312.7875
1355.92738	14357.4875
1359.41078	15451.3875
1362.89183	16216.6875
1366.37053	15493.7875
1369.84688	13378.7875
1373.32088	11415.8875
1376.79254	10359.4875
1380.26186	9837.8875
1383.72883	9490.0875
1387.19347	9167.2875
1390.65578	8852.5875
1394.11575	8634.7875
1397.57339	8438.6875
1401.0287	8365.3875
1404.48168	8358.1875
1407.93234	8394.2875
1411.38068	8523.9875
1414.82669	8628.7875
1418.27039	8673.5875
1421.71177	8649.2875
1425.15083	8573.5875
1428.58758	8479.4875
1432.02203	8452.6875
1435.45416	8472.7875
1438.88399	8435.8875
1442.31151	8416.7875
1445.73673	8458.5875
1449.15965	8490.5875
1452.58027	8483.3875
1455.9986	8476.2875
1459.41463	8459.2875
1462.82837	8558.1875
1466.23982	8712.8875
1469.64898	8904.2875
1473.05586	9034.8875
1476.46045	9156.8875
1479.86276	9272.6875
1483.26279	9383.1875
1486.66054	9554.1875
1490.05602	9814.4875
1493.44922	10275.9875
1496.84016	10955.7875
1500.22882	11947.9875
1503.61521	13134.5875
1506.99934	14283.3875
1510.38121	14960.1875
1513.76081	14771.7875
1517.13816	13669.4875
1520.51324	12251.4875
1523.88607	11065.0875
1527.25665	10331.8875
1530.62498	10010.5875
1533.99105	9838.4875
1537.35488	9780.5875
1540.71647	9674.6875
1544.07581	9577.2875
1547.4329	9487.6875
1550.78776	9337.2875
1554.14038	9261.1875
1557.49077	9211.4875
1560.83892	9319.7875
1564.18484	9541.5875
1567.52853	9764.5875
1570.86999	9955.7875
1574.20922	10059.3875
1577.54624	9949.5875
1580.88103	9566.9875
1584.2136	9056.8875
1587.54395	8766.7875
1590.87208	8743.8875
1594.19801	8963.2875
1597.52172	9245.6875
1600.84321	9334.3875
1604.16251	9249.7875
1607.47959	9100.1875
1610.79447	8924.1875
1614.10715	8632.8875
1617.41763	8297.4875
1620.7259	8055.2875
1624.03199	7884.3875
1627.33587	7827.9875
1630.63757	7840.5875
1633.93707	8066.5875
1637.23439	8464.5875
1640.52951	9081.1875
1643.82246	9996.6875
1647.11321	10921.9875
1650.40179	11439.7875
1653.68819	11035.4875
1656.97241	9937.6875
1660.25446	8783.0875
1663.53433	7979.1875
1666.81203	7503.4875
1670.08756	7232.3875
1673.36092	7056.9875
1676.63211	6939.8875
1679.90115	6856.6875
1683.16801	6791.2875
1686.43272	6726.5875
1689.69527	6697.6875
1692.95567	6635.7875
1696.2139	6632.8875
1699.46999	6597.8875
1702.72392	6573.8875
1705.97571	6580.5875
1709.22535	6566.0875
1712.47284	6578.2875
1715.71819	6584.3875
1718.96139	6564.8875
1722.20246	6562.5875
1725.44139	6558.4875
1728.67818	6506.9875
1731.91284	6474.4875
1735.14537	6428.7875
1738.37576	6414.4875
1741.60403	6387.0875
1744.83017	6365.6875
1748.05418	6363.7875
1751.27607	6345.0875
1754.49584	6332.8875
1757.71349	6330.2875
1760.92903	6327.5875
1764.14244	6286.3875
1767.35375	6280.9875
1770.56294	6273.6875
1773.77002	6244.7875
1776.97499	6224.7875
1780.17785	6205.8875
1783.37861	6182.4875
1786.57727	6178.1875
1789.77382	6182.4875
1792.96828	6173.6875
1796.16064	6150.3875
1799.3509	6151.4875
1802.53907	6124.6875
1805.72514	6110.0875
1808.90913	6093.1875
1812.09102	6094.0875
1815.27083	6072.6875
1818.44856	6047.6875
1821.6242	6037.1875
1824.79776	6031.0875
1827.96924	6023.5875
1831.13864	5987.5875
1834.30597	5999.8875
1837.47122	5980.9875
1840.6344	5947.9875
1843.7955	5958.4875
1846.95454	5964.2875
1850.11151	5955.1875
1853.26642	5955.0875
1856.41926	5950.7875
1859.57004	5957.2875
1862.71876	5962.8875
1865.86542	5952.8875
1869.01003	5924.9875
1872.15258	5911.4875
1875.29308	5904.0875
1878.43152	5891.5875
1881.56792	5894.9875
1884.70227	5883.5875
1887.83457	5855.8875
1890.96482	5850.2875
1894.09304	5827.3875
1897.21921	5827.9875
1900.34335	5829.3875
1903.46544	5825.6875
1906.58551	5811.8875
1909.70353	5810.6875
1912.81953	5814.7875
1915.93349	5781.8875
1919.04543	5773.2875
1922.15534	5754.0875
1925.26322	5766.2875
1928.36908	5724.2875
1931.47292	5718.0875
1934.57473	5695.6875
1937.67453	5696.4875
1940.77232	5680.9875
1943.86808	5659.7875
1946.96184	5645.6875
1950.05358	5627.2875
1953.14331	5605.8875
1956.23103	5592.7875
1959.31675	5560.9875
1962.40046	5562.9875
1965.48217	5527.9875
1968.56188	5527.0875
1971.63959	5501.7875
1974.7153	5486.4875
1977.78901	5496.9875
1980.86073	5481.8875
1983.93046	5444.5875
1986.99819	5409.2875
1990.06394	5414.6875
1993.1277	5395.0875
1996.18947	5360.4875
1999.24925	5343.3875
2002.30706	5316.1875
2005.36288	5299.9875
2008.41672	5289.2875
2011.46859	5277.1875
2014.51848	5245.9875
2017.56639	5227.6875
2020.61233	5230.1875
2023.6563	5188.5875
2026.6983	5193.3875
2029.73833	5178.5875
2032.7764	5160.0875
2035.8125	5133.1875
2038.84664	5131.6875
2041.87881	5125.7875
2044.90903	5104.0875
2047.93729	5084.0875
2050.96359	5076.8875
2053.98794	5065.1875
2057.01034	5068.4875
2060.03078	5062.6875
2063.04927	5067.1875
2066.06582	5035.6875
2069.08042	5044.2875
2072.09307	5030.9875
2075.10378	5018.6875
2078.11255	5007.8875
2081.11938	5017.8875
2084.12426	5003.9875
2087.12722	5000.6875
2090.12824	5008.4875
2093.12732	4990.7875
2096.12447	5007.5875
2099.11969	5000.5875
2102.11299	5013.9875
2105.10435	5000.9875
2108.09379	4997.6875
2111.08131	5025.5875
2114.0669	5001.0875
2117.05057	5016.2875
2120.03233	5021.6875
2123.01216	5014.3875
2125.99008	5021.3875
2128.96609	5008.9875
2131.94018	5023.4875
2134.91236	5004.6875
2137.88263	5016.0875
2140.851	5010.6875
2143.81746	5003.4875
2146.78201	5025.2875
2149.74466	5010.1875
2152.7054	5000.5875
2155.66425	5000.9875
2158.6212	5000.5875
2161.57625	4967.5875
2164.52941	4977.8875
2167.48067	4993.1875
2170.43004	4971.0875
2173.37752	4974.6875
2176.32311	4966.3875
2179.26681	4976.3875
2182.20863	4970.1875
2185.14856	4990.5875
2188.08661	4967.7875
2191.02278	4957.8875
2193.95707	4981.4875
2196.88948	4949.6875
2199.82001	4940.9875
2202.74867	4942.6875
2205.67545	4927.7875
2208.60037	4940.2875
2211.52341	4915.5875
2214.44458	4892.3875
2217.36388	4883.4875
2220.28132	4868.7875
2223.1969	4855.4875
2226.11061	4847.5875
2229.02246	4837.5875
2231.93245	4834.7875
2234.84058	4813.0875
2237.74686	4806.7875
2240.65128	4795.8875
2243.55385	4792.6875
2246.45456	4788.5875
2249.35343	4773.9875
2252.25044	4771.3875
2255.14561	4756.6875
2258.03893	4775.2875
2260.93041	4762.1875
2263.82004	4747.3875
2266.70783	4749.0875
2269.59378	4725.3875
2272.4779	4688.2875
2275.36017	4702.9875
2278.24061	4701.3875
2281.11922	4670.3875
2283.996	4661.2875
2286.87094	4660.8875
2289.74405	4646.7875
2292.61534	4648.1875
2295.4848	4602.9875
2298.35243	4603.2875
2301.21824	4601.5875
2304.08223	4605.8875
2306.94439	4592.0875
2309.80474	4591.9875
2312.66327	4599.4875
2315.51999	4555.7875
2318.37489	4574.2875
2321.22797	4576.4875
2324.07925	4545.5875
2326.92871	4538.0875
2329.77637	4527.0875
2332.62222	4518.3875
2335.46626	4524.4875
2338.3085	4504.8875
2341.14893	4481.6875
2343.98756	4504.5875
2346.8244	4491.5875
2349.65943	4470.9875
2352.49267	4478.9875
2355.32411	4461.0875
2358.15376	4472.4875
2360.98161	4476.2875
2363.80768	4480.4875
2366.63195	4456.4875
2369.45444	4450.5875
2372.27514	4455.9875
2375.09405	4461.1875
2377.91118	4438.3875
2380.72652	4432.7875
2383.54009	4416.4875
2386.35187	4416.5875
2389.16188	4396.0875
2391.97011	4375.7875
2394.77657	4366.9875
2397.58125	4348.5875
2400.38416	4350.4875
2403.18529	4348.5875
2405.98466	4345.4875
2408.78226	4329.5875
2411.57809	4324.8875
2414.37216	4313.4875
2417.16446	4300.5875
2419.955	4298.7875
2422.74378	4287.7875
2425.5308	4290.0875
2428.31606	4288.1875
2431.09956	4281.3875
2433.88131	4280.6875
2436.6613	4272.4875
2439.43954	4261.1875
2442.21603	4244.1875
2444.99077	4257.0875
2447.76377	4276.0875
2450.53501	4246.7875
2453.30451	4260.8875
2456.07226	4253.5875
2458.83827	4233.0875
2461.60254	4230.7875
2464.36507	4218.8875
2467.12586	4198.0875
2469.88492	4200.6875
2472.64224	4211.5875
2475.39782	4212.9875
2478.15167	4196.0875
2480.90379	4198.5875
2483.65417	4184.6875
2486.40283	4190.6875
2489.14976	4189.5875
2491.89497	4194.4875
2494.63845	4181.2875
2497.3802	4170.2875
2500.12024	4171.7875
2502.85855	4175.6875
2505.59514	4154.0875
2508.33002	4140.5875
2511.06318	4126.1875
2513.79462	4115.9875
2516.52435	4117.4875
2519.25237	4105.8875
2521.97867	4086.1875
2524.70327	4090.9875
2527.42616	4076.6875
2530.14734	4053.1875
2532.86681	4064.0875
2535.58458	4077.5875
2538.30065	4070.7875
2541.01501	4056.3875
2543.72768	4047.2875
2546.43864	4038.8875
2549.14791	4027.5875
2551.85548	4032.9875
2554.56136	4024.8875
2557.26554	4008.8875
2559.96803	4009.2875
2562.66883	3992.7875
2565.36794	3983.1875
2568.06536	3974.8875
2570.7611	3955.3875
2573.45514	3951.7875
2576.14751	3950.2875
2578.83819	3935.3875
2581.52719	3924.5875
2584.21451	3922.8875
2586.90015	3925.0875
2589.58411	3907.4875
2592.2664	3900.3875
2594.94701	3879.4875
2597.62594	3885.9875
2600.30321	3868.3875
2602.9788	3877.1875
2605.65273	3857.3875
2608.32498	3862.5875
2610.99557	3845.9875
2613.66449	3854.9875
2616.33175	3831.5875
2618.99734	3845.0875
2621.66128	3819.0875
2624.32355	3802.8875
2626.98416	3801.7875
2629.64311	3796.5875
2632.30041	3771.3875
2634.95605	3776.9875
2637.61004	3766.5875
2640.26238	3748.2875
2642.91306	3748.9875
2645.56209	3763.3875
2648.20948	3749.0875
2650.85521	3738.0875
2653.4993	3746.9875
2656.14175	3728.4875
2658.78255	3737.1875
2661.42171	3730.5875
2664.05923	3729.2875
2666.6951	3733.3875
2669.32934	3754.0875
2671.96194	3734.5875
2674.59291	3729.4875
2677.22224	3736.5875
2679.84993	3744.3875
2682.476	3732.1875
2685.10043	3731.7875
2687.72324	3728.1875
2690.34441	3728.4875
2692.96396	3712.2875
2695.58188	3711.5875
2698.19818	3705.5875
2700.81285	3708.1875
2703.4259	3700.4875
2706.03733	3688.0875
2708.64714	3697.9875
2711.25533	3708.2875
2713.86191	3693.7875
2716.46687	3712.4875
2719.07021	3702.5875
2721.67194	3691.3875
2724.27206	3687.6875
2726.87057	3686.8875
2729.46747	3687.2875
2732.06276	3682.9875
2734.65644	3667.4875
2737.24852	3668.5875
2739.83899	3661.1875
2742.42786	3647.4875
2745.01513	3661.2875
2747.60079	3637.1875
2750.18486	3636.1875
2752.76733	3636.0875
2755.3482	3625.2875
2757.92747	3608.8875
2760.50515	3619.6875
2763.08123	3610.1875
2765.65573	3581.2875
2768.22863	3579.8875
2770.79994	3576.8875
2773.36967	3573.4875
2775.9378	3566.9875
2778.50435	3552.4875
2781.06932	3540.0875
2783.6327	3559.4875
2786.1945	3556.0875
2788.75471	3543.9875
2791.31335	3525.9875
2793.87041	3519.2875
2796.42589	3501.1875
2798.97979	3493.4875
2801.53212	3497.2875
2804.08288	3483.4875
2806.63206	3471.0875
2809.17967	3488.5875
2811.72571	3470.1875
2814.27018	3468.7875
2816.81308	3472.1875
2819.35442	3450.9875
2821.89419	3446.6875
2824.43239	3435.0875
2826.96904	3426.3875
2829.50412	3427.7875
2832.03763	3407.9875
2834.56959	3418.0875
2837.1	3388.7875
2839.62884	3390.0875
2842.15613	3386.9875
2844.68186	3395.3875
2847.20604	3391.0875
2849.72867	3388.4875
2852.24974	3365.7875
2854.76927	3359.2875
2857.28724	3357.8875
2859.80367	3348.4875
2862.31855	3333.0875
2864.83189	3335.2875
2867.34368	3342.0875
2869.85393	3341.1875
2872.36264	3333.8875
2874.8698	3323.0875
2877.37543	3329.6875
2879.87952	3314.7875
2882.38207	3305.3875
2884.88308	3295.0875
2887.38256	3306.0875
2889.88051	3290.9875
2892.37692	3298.2875
2894.8718	3291.3875
2897.36515	3313.8875
2899.85698	3285.6875
2902.34727	3300.6875
2904.83604	3300.0875
2907.32328	3298.2875
2909.809	3296.7875
2912.29319	3301.9875
2914.77587	3290.7875
2917.25702	3314.4875
2919.73665	3310.1875
2922.21476	3303.4875
2924.69136	3294.6875
2927.16644	3292.9875
2929.64	3282.2875
2932.11205	3272.4875
2934.58258	3242.0875
2937.05161	3256.8875
2939.51912	3253.8875
2941.98513	3265.1875
2944.44962	3239.9875
2946.91261	3224.0875
2949.37409	3230.6875
2951.83407	3219.4875
2954.29254	3227.7875
2956.74951	3220.3875
2959.20498	3214.8875
2961.65895	3218.8875
2964.11142	3218.7875
2966.56239	3213.0875
2969.01186	3202.0875
2971.45984	3204.8875
2973.90632	3201.5875
2976.35131	3185.7875
2978.7948	3186.8875
2981.23681	3183.3875
2983.67732	3170.3875
2986.11635	3180.3875
2988.55388	3160.5875
2990.98993	3144.0875
2993.4245	3142.6875
2995.85758	3143.5875
2998.28917	3115.1875
3000.71928	3128.0875
3003.14791	3104.2875
3005.57506	3099.0875
3008.00073	3088.3875
3010.42493	3083.5875
3012.84764	3080.4875
3015.26888	3080.5875
3017.68865	3071.2875
3020.10694	3054.8875
3022.52376	3049.5875
3024.9391	3035.0875
3027.35298	3019.2875
3029.76539	3022.1875
3032.17632	3019.2875
3034.5858	3007.2875
3036.9938	3008.8875
3039.40034	2983.3875
3041.80542	2987.1875
3044.20903	2980.9875
3046.61118	2975.1875
3049.01187	2971.2875
3051.4111	2975.7875
3053.80888	2943.6875
3056.20519	2940.6875
3058.60005	2935.4875
3060.99345	2931.0875
3063.3854	2934.3875
3065.7759	2912.3875
3068.16494	2915.3875
3070.55254	2909.9875
3072.93868	2887.4875
3075.32338	2890.7875
3077.70662	2864.6875
3080.08842	2864.9875
3082.46878	2857.1875
3084.84769	2855.7875
3087.22515	2845.5875
3089.60118	2858.2875
3091.97576	2845.6875
3094.3489	2849.4875
3096.72061	2833.5875
3099.09087	2834.6875
3101.4597	2829.5875
3103.82709	2825.1875
3106.19305	2819.4875
3108.55757	2835.1875
3110.92066	2810.8875
3113.28232	2808.4875
3115.64255	2805.2875
3118.00134	2786.3875
3120.35871	2784.1875
3122.71466	2787.4875
3125.06917	2778.6875
3127.42226	2772.5875
3129.77393	2766.4875
3132.12417	2757.6875
3134.47299	2748.8875
3136.82039	2748.9875
3139.16636	2751.5875
3141.51092	2740.0875
3143.85406	2744.1875
3146.19579	2740.0875
3148.53609	2739.5875
3150.87499	2740.9875
3153.21246	2729.6875
3155.54853	2733.2875
3157.88318	2732.6875
3160.21642	2747.2875
3162.54826	2727.8875
3164.87868	2725.9875
3167.2077	2703.8875
3169.5353	2705.9875
3171.86151	2711.1875
3174.18631	2697.6875
3176.5097	2686.3875
3178.83169	2695.0875
3181.15228	2687.9875
3183.47147	2672.8875
3185.78926	2679.3875
3188.10565	2655.2875
3190.42065	2640.4875
3192.73424	2642.5875
3195.04645	2643.3875
3197.35725	2638.2875
3199.66667	2633.4875
3201.97469	2633.1875
3204.28132	2635.8875
3206.58656	2635.5875
3208.8904	2632.5875
3211.19287	2624.3875
3213.49394	2638.5875
3215.79363	2634.8875
3218.09193	2621.4875
3220.38884	2640.6875
3222.68438	2629.2875
3224.97853	2624.0875
3227.2713	2620.0875
3229.56269	2610.7875
3231.8527	2615.9875
3234.14133	2600.1875
3236.42858	2586.6875
3238.71446	2600.7875
3240.99896	2583.5875
3243.28209	2577.8875
3245.56384	2564.6875
3247.84423	2552.9875
3250.12324	2559.5875
3252.40088	2553.9875
3254.67715	2546.2875
3256.95205	2532.4875
3259.22558	2534.3875
3261.49775	2540.0875
3263.76855	2533.9875
3266.03799	2535.2875
3268.30606	2541.3875
3270.57277	2538.1875
3272.83812	2533.6875
3275.10211	2517.1875
3277.36474	2511.2875
3279.62601	2512.1875
3281.88593	2498.7875
3284.14448	2497.1875
3286.40168	2479.6875
3288.65753	2488.5875
3290.91202	2483.9875
3293.16516	2488.7875
3295.41695	2474.9875
3297.66738	2466.2875
3299.91647	2460.6875
3302.16421	2441.7875
3304.4106	2426.9875
3306.65564	2408.8875
3308.89933	2385.8875
3311.14169	2371.3875
3313.38269	2345.6875
3315.62236	2323.3875
3317.86068	2315.5875
3320.09766	2292.5875
3322.3333	2280.7875
3324.5676	2254.3875
3326.80056	2220.6875
3329.03219	2210.5875
3331.26248	0.2875
3333.49143	0.0875
3335.71905	-0.0125
