Data from AgNPs_UA_20uM_CRN_500uM_SU_RamanShift__7__13-37-40-292.txt Node

Date: Thu Aug 04 13:37:40 BST 2022
User: TCL
Spectrometer: QEP01345
Trigger mode: 4
Integration Time (sec): 1.000000E0
Scans to average: 10
Electric dark correction enabled: true
Nonlinearity correction enabled: false
Boxcar width: 0
XAxis mode: Raman Shifts
Number of Pixels in Spectrum: 1044
>>>>>Begin Spectral Data<<<<<
46.04893	-1.025
50.45542	-0.625
54.85868	1.475
59.25871	-0.825
63.6555	18.175
68.04907	15.475
72.43941	19.575
76.82654	18.475
81.21044	19.375
85.59113	18.575
89.96862	20.675
94.34289	20.475
98.71396	22.375
103.08183	24.375
107.4465	22.675
111.80798	25.675
116.16626	27.775
120.52136	29.975
124.87327	27.375
129.222	31.775
133.56755	31.875
137.90993	34.775
142.24913	38.375
146.58517	44.675
150.91804	53.975
155.24774	65.075
159.57429	80.675
163.89768	105.775
168.21792	137.475
172.53501	190.575
176.84895	270.675
181.15975	387.775
185.46741	541.975
189.77193	748.375
194.07331	1012.875
198.37157	1309.875
202.6667	1622.375
206.9587	1949.175
211.24758	2264.975
215.53334	2590.375
219.81599	2945.175
224.09553	3349.875
228.37195	3794.075
232.64527	4265.175
236.91549	4753.675
241.18261	5126.975
245.44663	5409.675
249.70755	5638.775
253.96539	5815.275
258.22014	5948.175
262.4718	6105.575
266.72039	6213.075
270.96589	6225.475
275.20832	6173.675
279.44768	6076.475
283.68397	5940.075
287.91719	5903.875
292.14735	5931.875
296.37445	6080.375
300.59849	6355.875
304.81948	6689.775
309.03742	7035.375
313.25231	7220.275
317.46415	7120.775
321.67296	6769.775
325.87872	6377.875
330.08145	6165.975
334.28114	6140.675
338.47781	6234.875
342.67145	6392.475
346.86207	6612.975
351.04966	6911.275
355.23424	7228.375
359.4158	7461.875
363.59435	7515.675
367.76989	7520.975
371.94243	7456.675
376.11196	7393.375
380.27849	7324.075
384.44203	7247.975
388.60257	7276.575
392.76012	7322.375
396.91468	7412.375
401.06626	7547.875
405.21485	7595.375
409.36047	7410.775
413.50311	7087.775
417.64277	6814.375
421.77947	6593.675
425.9132	6549.875
430.04396	6555.075
434.17176	6608.775
438.2966	6690.575
442.41849	6813.275
446.53742	6999.975
450.6534	7099.875
454.76644	7165.775
458.87653	7147.175
462.98368	7115.475
467.08789	7065.375
471.18916	6962.375
475.2875	6806.875
479.38291	6687.275
483.4754	6600.275
487.56496	6513.175
491.6516	6477.375
495.73531	6479.975
499.81612	6488.475
503.89401	6551.375
507.96899	6630.375
512.04106	6705.675
516.11023	6789.675
520.1765	6882.575
524.23987	6904.875
528.30034	6879.375
532.35792	6850.175
536.41261	6783.375
540.46441	6646.775
544.51333	6609.475
548.55936	6668.675
552.60252	6780.375
556.64279	6897.575
560.6802	6992.575
564.71473	7109.075
568.7464	7261.075
572.7752	7253.975
576.80114	7006.275
580.82422	6775.675
584.84444	6698.775
588.86181	6675.475
592.87633	6719.275
596.888	6865.975
600.89682	7238.175
604.9028	8244.175
608.90594	10475.075
612.90624	12788.075
616.90371	11688.175
620.89834	8527.875
624.89015	7186.875
628.87913	6996.875
632.86528	7202.275
636.84862	7318.575
640.82913	7187.875
644.80683	6898.775
648.78172	6690.875
652.75379	6723.375
656.72306	6972.775
660.68952	7197.875
664.65319	7084.975
668.61405	6837.775
672.57211	6765.275
676.52738	6776.775
680.47986	6708.475
684.42955	6589.575
688.37646	6538.775
692.32058	6567.975
696.26192	6675.975
700.20048	6806.175
704.13626	6849.675
708.06928	6800.975
711.99952	6736.075
715.927	6729.175
719.85171	6761.075
723.77365	6804.875
727.69284	6751.475
731.60928	6676.675
735.52295	6682.175
739.43388	6698.175
743.34206	6713.075
747.24749	6746.675
751.15017	6724.475
755.05012	6830.975
758.94733	7189.075
762.8418	8063.575
766.73354	9373.775
770.62254	10402.775
774.50882	10550.875
778.39237	9931.875
782.27321	8894.575
786.15132	7881.275
790.02671	7216.375
793.89938	6888.875
797.76935	6756.275
801.6366	6701.175
805.50115	6613.475
809.36299	6593.975
813.22213	6584.975
817.07857	6590.975
820.93231	6597.075
824.78336	6629.275
828.63172	6646.475
832.47738	6649.275
836.32036	6622.775
840.16066	6593.575
843.99827	6569.775
847.8332	6590.875
851.66546	6598.875
855.49504	6615.675
859.32195	6627.975
863.1462	6617.175
866.96777	6617.075
870.78668	6620.675
874.60293	6635.675
878.41652	6689.475
882.22745	6722.175
886.03573	6768.875
889.84136	6768.275
893.64433	6745.375
897.44466	6730.675
901.24235	6690.275
905.0374	6679.475
908.8298	6618.975
912.61957	6600.275
916.40671	6610.975
920.19121	6656.175
923.97308	6716.775
927.75233	6827.875
931.52895	6868.975
935.30295	6816.675
939.07433	6640.175
942.84309	6516.875
946.60924	6487.275
950.37278	6467.275
954.13371	6461.275
957.89203	6467.175
961.64774	6473.975
965.40086	6461.075
969.15137	6419.975
972.89929	6427.975
976.64461	6427.475
980.38733	6443.875
984.12747	6482.475
987.86502	6486.175
991.59999	6540.675
995.33237	6614.175
999.06217	6705.175
1002.78939	6863.175
1006.51404	7030.475
1010.23611	7184.175
1013.95561	7233.575
1017.67255	7245.575
1021.38692	7143.975
1025.09872	7050.575
1028.80796	6945.875
1032.51465	6916.975
1036.21877	6940.575
1039.92035	6976.475
1043.61937	7026.675
1047.31584	7046.975
1051.00976	7070.875
1054.70114	7039.975
1058.38998	7054.875
1062.07627	7079.975
1065.76003	7132.875
1069.44126	7236.475
1073.11995	7412.775
1076.79611	7636.875
1080.46974	7775.575
1084.14085	7891.475
1087.80943	8028.075
1091.47549	8117.275
1095.13903	8114.875
1098.80005	7993.275
1102.45857	7792.775
1106.11456	7657.275
1109.76805	7562.475
1113.41903	7617.775
1117.06751	7765.375
1120.71348	8029.175
1124.35696	8338.275
1127.99793	8590.875
1131.63641	8416.375
1135.2724	8070.375
1138.90589	7786.375
1142.5369	7677.375
1146.16542	7642.475
1149.79145	7609.475
1153.415	7493.075
1157.03607	7397.775
1160.65467	7434.275
1164.27079	7593.275
1167.88443	7848.775
1171.49561	8293.975
1175.10432	8976.475
1178.71056	9932.675
1182.31434	10723.875
1185.91565	10975.375
1189.51451	10815.375
1193.11091	10525.275
1196.70485	10203.075
1200.29634	9951.275
1203.88538	9653.775
1207.47197	9272.975
1211.05612	8917.775
1214.63782	8649.675
1218.21708	8390.475
1221.79391	8175.275
1225.36829	8051.275
1228.94024	7968.075
1232.50976	7934.275
1236.07685	7941.075
1239.6415	8001.875
1243.20374	8011.575
1246.76355	8083.075
1250.32093	8222.475
1253.8759	8427.675
1257.42845	8739.375
1260.97859	9049.475
1264.52631	9291.475
1268.07163	9433.575
1271.61453	9537.775
1275.15503	9615.175
1278.69312	9595.975
1282.22882	9604.975
1285.76211	9739.275
1289.29301	9969.375
1292.82151	10228.675
1296.34761	10502.775
1299.87133	10928.375
1303.39266	11657.075
1306.9116	12735.975
1310.42815	13855.975
1313.94233	14190.275
1317.45412	13543.875
1320.96354	12529.375
1324.47058	11567.375
1327.97525	10760.875
1331.47754	10286.675
1334.97747	10209.275
1338.47502	10396.275
1341.97022	10849.275
1345.46305	11609.375
1348.95352	12680.675
1352.44163	13895.575
1355.92738	15196.275
1359.41078	16858.775
1362.89183	18201.175
1366.37053	17311.475
1369.84688	14481.275
1373.32088	11897.975
1376.79254	10481.975
1380.26186	9831.375
1383.72883	9436.175
1387.19347	9102.675
1390.65578	8798.875
1394.11575	8542.175
1397.57339	8328.175
1401.0287	8196.175
1404.48168	8136.175
1407.93234	8118.175
1411.38068	8228.375
1414.82669	8303.775
1418.27039	8356.975
1421.71177	8302.075
1425.15083	8253.375
1428.58758	8214.175
1432.02203	8253.675
1435.45416	8381.275
1438.88399	8448.475
1442.31151	8504.775
1445.73673	8549.175
1449.15965	8591.475
1452.58027	8565.275
1455.9986	8491.875
1459.41463	8496.875
1462.82837	8584.075
1466.23982	8746.875
1469.64898	8959.975
1473.05586	9104.375
1476.46045	9158.875
1479.86276	9234.575
1483.26279	9342.575
1486.66054	9580.575
1490.05602	9903.475
1493.44922	10436.675
1496.84016	11339.875
1500.22882	12686.275
1503.61521	14406.175
1506.99934	16120.675
1510.38121	17117.075
1513.76081	16865.675
1517.13816	15310.375
1520.51324	13312.775
1523.88607	11726.875
1527.25665	10776.175
1530.62498	10325.175
1533.99105	10078.575
1537.35488	9956.275
1540.71647	9862.175
1544.07581	9788.675
1547.4329	9694.775
1550.78776	9595.275
1554.14038	9469.175
1557.49077	9401.075
1560.83892	9461.275
1564.18484	9719.175
1567.52853	10056.475
1570.86999	10363.175
1574.20922	10464.775
1577.54624	10290.075
1580.88103	9724.775
1584.2136	9092.775
1587.54395	8705.975
1590.87208	8710.075
1594.19801	8985.275
1597.52172	9439.675
1600.84321	9682.075
1604.16251	9640.675
1607.47959	9455.375
1610.79447	9140.175
1614.10715	8638.275
1617.41763	8132.775
1620.7259	7790.675
1624.03199	7618.875
1627.33587	7551.675
1630.63757	7641.475
1633.93707	7923.775
1637.23439	8404.075
1640.52951	9209.175
1643.82246	10368.975
1647.11321	11637.175
1650.40179	12343.475
1653.68819	11823.575
1656.97241	10346.775
1660.25446	8851.275
1663.53433	7791.675
1666.81203	7170.275
1670.08756	6821.075
1673.36092	6626.575
1676.63211	6469.375
1679.90115	6371.375
1683.16801	6291.675
1686.43272	6237.775
1689.69527	6184.775
1692.95567	6159.975
1696.2139	6147.475
1699.46999	6116.075
1702.72392	6091.075
1705.97571	6104.775
1709.22535	6097.175
1712.47284	6101.475
1715.71819	6082.475
1718.96139	6087.875
1722.20246	6071.175
1725.44139	6046.775
1728.67818	6011.975
1731.91284	5966.975
1735.14537	5932.875
1738.37576	5915.475
1741.60403	5904.875
1744.83017	5870.375
1748.05418	5877.475
1751.27607	5863.675
1754.49584	5825.275
1757.71349	5804.275
1760.92903	5801.075
1764.14244	5795.875
1767.35375	5776.375
1770.56294	5782.575
1773.77002	5764.175
1776.97499	5740.975
1780.17785	5711.875
1783.37861	5689.475
1786.57727	5698.675
1789.77382	5671.475
1792.96828	5674.975
1796.16064	5644.675
1799.3509	5633.475
1802.53907	5638.775
1805.72514	5627.675
1808.90913	5624.275
1812.09102	5592.375
1815.27083	5590.375
1818.44856	5579.175
1821.6242	5557.575
1824.79776	5556.875
1827.96924	5545.075
1831.13864	5537.775
1834.30597	5507.875
1837.47122	5517.275
1840.6344	5500.575
1843.7955	5487.275
1846.95454	5473.775
1850.11151	5464.775
1853.26642	5470.975
1856.41926	5468.875
1859.57004	5471.675
1862.71876	5459.475
1865.86542	5474.375
1869.01003	5460.875
1872.15258	5441.475
1875.29308	5429.975
1878.43152	5447.275
1881.56792	5424.775
1884.70227	5407.075
1887.83457	5415.375
1890.96482	5410.175
1894.09304	5405.075
1897.21921	5391.975
1900.34335	5376.375
1903.46544	5378.875
1906.58551	5374.475
1909.70353	5381.875
1912.81953	5341.575
1915.93349	5356.275
1919.04543	5342.075
1922.15534	5336.675
1925.26322	5318.275
1928.36908	5319.375
1931.47292	5285.575
1934.57473	5277.875
1937.67453	5283.575
1940.77232	5265.775
1943.86808	5249.775
1946.96184	5225.675
1950.05358	5199.375
1953.14331	5206.675
1956.23103	5171.275
1959.31675	5162.475
1962.40046	5138.975
1965.48217	5139.275
1968.56188	5125.075
1971.63959	5138.775
1974.7153	5103.775
1977.78901	5090.675
1980.86073	5061.975
1983.93046	5054.175
1986.99819	5031.175
1990.06394	5015.175
1993.1277	4980.875
1996.18947	4992.275
1999.24925	4968.775
2002.30706	4956.675
2005.36288	4917.975
2008.41672	4918.075
2011.46859	4903.075
2014.51848	4896.075
2017.56639	4877.675
2020.61233	4853.475
2023.6563	4859.675
2026.6983	4832.975
2029.73833	4818.475
2032.7764	4807.975
2035.8125	4780.075
2038.84664	4790.875
2041.87881	4781.075
2044.90903	4780.075
2047.93729	4769.075
2050.96359	4745.975
2053.98794	4736.375
2057.01034	4745.375
2060.03078	4724.275
2063.04927	4720.175
2066.06582	4715.975
2069.08042	4691.475
2072.09307	4726.375
2075.10378	4702.075
2078.11255	4710.675
2081.11938	4700.075
2084.12426	4685.475
2087.12722	4693.375
2090.12824	4693.275
2093.12732	4717.375
2096.12447	4701.075
2099.11969	4699.475
2102.11299	4690.275
2105.10435	4708.775
2108.09379	4706.975
2111.08131	4700.075
2114.0669	4703.075
2117.05057	4698.475
2120.03233	4700.975
2123.01216	4703.875
2125.99008	4716.175
2128.96609	4717.275
2131.94018	4729.675
2134.91236	4717.275
2137.88263	4719.075
2140.851	4712.075
2143.81746	4715.575
2146.78201	4706.775
2149.74466	4714.475
2152.7054	4696.575
2155.66425	4705.175
2158.6212	4714.675
2161.57625	4714.375
2164.52941	4702.275
2167.48067	4698.775
2170.43004	4710.775
2173.37752	4682.975
2176.32311	4691.875
2179.26681	4681.975
2182.20863	4703.875
2185.14856	4699.875
2188.08661	4694.475
2191.02278	4686.175
2193.95707	4696.075
2196.88948	4671.075
2199.82001	4684.175
2202.74867	4667.175
2205.67545	4657.775
2208.60037	4670.775
2211.52341	4664.575
2214.44458	4628.475
2217.36388	4635.675
2220.28132	4607.475
2223.1969	4611.375
2226.11061	4592.075
2229.02246	4577.075
2231.93245	4572.075
2234.84058	4577.375
2237.74686	4563.375
2240.65128	4559.275
2243.55385	4565.975
2246.45456	4548.675
2249.35343	4548.875
2252.25044	4543.775
2255.14561	4562.875
2258.03893	4538.675
2260.93041	4534.975
2263.82004	4519.775
2266.70783	4518.775
2269.59378	4492.975
2272.4779	4491.175
2275.36017	4477.775
2278.24061	4454.475
2281.11922	4455.375
2283.996	4456.575
2286.87094	4437.275
2289.74405	4436.175
2292.61534	4429.575
2295.4848	4425.875
2298.35243	4410.875
2301.21824	4401.875
2304.08223	4408.075
2306.94439	4417.975
2309.80474	4410.175
2312.66327	4409.275
2315.51999	4386.575
2318.37489	4380.775
2321.22797	4365.375
2324.07925	4366.675
2326.92871	4356.775
2329.77637	4365.675
2332.62222	4350.475
2335.46626	4340.575
2338.3085	4334.475
2341.14893	4352.175
2343.98756	4332.075
2346.8244	4336.175
2349.65943	4333.375
2352.49267	4347.275
2355.32411	4341.875
2358.15376	4339.675
2360.98161	4353.975
2363.80768	4343.975
2366.63195	4328.675
2369.45444	4334.675
2372.27514	4331.975
2375.09405	4324.575
2377.91118	4318.275
2380.72652	4309.075
2383.54009	4293.375
2386.35187	4279.375
2389.16188	4266.675
2391.97011	4258.775
2394.77657	4247.675
2397.58125	4246.975
2400.38416	4227.675
2403.18529	4217.175
2405.98466	4225.875
2408.78226	4200.275
2411.57809	4193.975
2414.37216	4201.175
2417.16446	4213.975
2419.955	4202.775
2422.74378	4195.375
2425.5308	4175.375
2428.31606	4180.275
2431.09956	4199.675
2433.88131	4180.475
2436.6613	4182.975
2439.43954	4170.275
2442.21603	4177.575
2444.99077	4173.675
2447.76377	4184.975
2450.53501	4174.675
2453.30451	4175.575
2456.07226	4153.675
2458.83827	4153.475
2461.60254	4148.575
2464.36507	4147.075
2467.12586	4141.075
2469.88492	4137.875
2472.64224	4148.975
2475.39782	4141.375
2478.15167	4152.675
2480.90379	4141.575
2483.65417	4133.175
2486.40283	4153.375
2489.14976	4165.875
2491.89497	4158.575
2494.63845	4158.075
2497.3802	4151.975
2500.12024	4151.975
2502.85855	4125.275
2505.59514	4117.275
2508.33002	4090.975
2511.06318	4078.575
2513.79462	4072.975
2516.52435	4071.075
2519.25237	4069.175
2521.97867	4068.475
2524.70327	4047.775
2527.42616	4045.475
2530.14734	4044.475
2532.86681	4031.475
2535.58458	4039.575
2538.30065	4028.875
2541.01501	4028.975
2543.72768	4040.375
2546.43864	4036.875
2549.14791	4038.275
2551.85548	4037.375
2554.56136	4034.975
2557.26554	4032.775
2559.96803	4019.375
2562.66883	4011.875
2565.36794	3991.675
2568.06536	3981.475
2570.7611	3959.775
2573.45514	3964.675
2576.14751	3960.775
2578.83819	3945.875
2581.52719	3934.275
2584.21451	3919.775
2586.90015	3912.875
2589.58411	3908.775
2592.2664	3909.175
2594.94701	3900.775
2597.62594	3897.475
2600.30321	3886.175
2602.9788	3887.075
2605.65273	3894.075
2608.32498	3879.175
2610.99557	3870.475
2613.66449	3877.975
2616.33175	3868.075
2618.99734	3882.075
2621.66128	3847.775
2624.32355	3862.075
2626.98416	3843.775
2629.64311	3849.675
2632.30041	3828.075
2634.95605	3816.375
2637.61004	3815.575
2640.26238	3791.775
2642.91306	3799.875
2645.56209	3795.975
2648.20948	3796.175
2650.85521	3803.575
2653.4993	3785.275
2656.14175	3795.975
2658.78255	3799.275
2661.42171	3788.275
2664.05923	3805.675
2666.6951	3828.175
2669.32934	3822.775
2671.96194	3798.675
2674.59291	3810.275
2677.22224	3807.075
2679.84993	3808.175
2682.476	3794.675
2685.10043	3794.775
2687.72324	3789.575
2690.34441	3806.875
2692.96396	3796.875
2695.58188	3781.475
2698.19818	3787.175
2700.81285	3799.275
2703.4259	3785.575
2706.03733	3791.675
2708.64714	3774.975
2711.25533	3772.675
2713.86191	3771.175
2716.46687	3783.875
2719.07021	3784.575
2721.67194	3785.475
2724.27206	3778.075
2726.87057	3777.475
2729.46747	3789.675
2732.06276	3764.075
2734.65644	3768.575
2737.24852	3764.775
2739.83899	3756.575
2742.42786	3776.675
2745.01513	3760.275
2747.60079	3764.675
2750.18486	3749.675
2752.76733	3744.075
2755.3482	3721.875
2757.92747	3725.275
2760.50515	3716.475
2763.08123	3706.975
2765.65573	3699.275
2768.22863	3685.275
2770.79994	3673.475
2773.36967	3698.775
2775.9378	3685.075
2778.50435	3675.775
2781.06932	3678.275
2783.6327	3678.975
2786.1945	3663.875
2788.75471	3644.675
2791.31335	3652.675
2793.87041	3647.775
2796.42589	3644.875
2798.97979	3638.075
2801.53212	3620.075
2804.08288	3638.175
2806.63206	3638.475
2809.17967	3621.075
2811.72571	3617.175
2814.27018	3622.275
2816.81308	3597.675
2819.35442	3595.375
2821.89419	3577.275
2824.43239	3584.175
2826.96904	3570.175
2829.50412	3592.775
2832.03763	3560.375
2834.56959	3556.775
2837.1	3535.275
2839.62884	3536.275
2842.15613	3532.375
2844.68186	3531.975
2847.20604	3519.175
2849.72867	3517.575
2852.24974	3505.475
2854.76927	3504.275
2857.28724	3490.975
2859.80367	3491.175
2862.31855	3497.375
2864.83189	3501.775
2867.34368	3491.975
2869.85393	3496.975
2872.36264	3493.575
2874.8698	3466.175
2877.37543	3475.775
2879.87952	3476.575
2882.38207	3467.175
2884.88308	3467.975
2887.38256	3454.275
2889.88051	3456.875
2892.37692	3448.975
2894.8718	3441.175
2897.36515	3447.775
2899.85698	3454.075
2902.34727	3454.175
2904.83604	3439.075
2907.32328	3453.275
2909.809	3457.375
2912.29319	3461.675
2914.77587	3475.675
2917.25702	3458.175
2919.73665	3457.175
2922.21476	3459.175
2924.69136	3463.975
2927.16644	3453.575
2929.64	3438.775
2932.11205	3433.375
2934.58258	3427.375
2937.05161	3424.375
2939.51912	3417.875
2941.98513	3403.075
2944.44962	3412.575
2946.91261	3402.875
2949.37409	3417.975
2951.83407	3416.275
2954.29254	3385.975
2956.74951	3383.275
2959.20498	3392.675
2961.65895	3381.875
2964.11142	3372.075
2966.56239	3367.775
2969.01186	3374.875
2971.45984	3372.375
2973.90632	3384.575
2976.35131	3361.975
2978.7948	3344.575
2981.23681	3354.775
2983.67732	3346.075
2986.11635	3337.175
2988.55388	3345.475
2990.98993	3320.075
2993.4245	3318.075
2995.85758	3318.275
2998.28917	3308.375
3000.71928	3303.075
3003.14791	3280.775
3005.57506	3277.075
3008.00073	3273.075
3010.42493	3258.375
3012.84764	3249.075
3015.26888	3237.675
3017.68865	3239.675
3020.10694	3238.975
3022.52376	3239.275
3024.9391	3216.475
3027.35298	3204.775
3029.76539	3195.375
3032.17632	3195.375
3034.5858	3188.375
3036.9938	3189.075
3039.40034	3166.075
3041.80542	3163.875
3044.20903	3155.875
3046.61118	3154.975
3049.01187	3136.375
3051.4111	3123.875
3053.80888	3127.675
3056.20519	3136.675
3058.60005	3127.675
3060.99345	3106.275
3063.3854	3108.675
3065.7759	3105.275
3068.16494	3106.775
3070.55254	3089.575
3072.93868	3074.975
3075.32338	3062.675
3077.70662	3066.575
3080.08842	3045.375
3082.46878	3036.775
3084.84769	3025.075
3087.22515	3036.775
3089.60118	3023.475
3091.97576	3028.375
3094.3489	3032.775
3096.72061	3015.075
3099.09087	3027.875
3101.4597	3018.375
3103.82709	3002.275
3106.19305	3012.875
3108.55757	2995.775
3110.92066	2995.675
3113.28232	2993.375
3115.64255	2971.375
3118.00134	2968.375
3120.35871	2963.675
3122.71466	2968.375
3125.06917	2969.775
3127.42226	2954.075
3129.77393	2940.975
3132.12417	2938.875
3134.47299	2930.875
3136.82039	2913.975
3139.16636	2921.775
3141.51092	2918.375
3143.85406	2919.775
3146.19579	2920.575
3148.53609	2926.075
3150.87499	2918.375
3153.21246	2916.075
3155.54853	2915.975
3157.88318	2907.375
3160.21642	2927.075
3162.54826	2921.575
3164.87868	2893.275
3167.2077	2897.475
3169.5353	2898.075
3171.86151	2892.175
3174.18631	2892.575
3176.5097	2887.475
3178.83169	2870.375
3181.15228	2880.375
3183.47147	2862.875
3185.78926	2866.575
3188.10565	2844.275
3190.42065	2848.375
3192.73424	2848.975
3195.04645	2834.075
3197.35725	2823.875
3199.66667	2815.675
3201.97469	2821.475
3204.28132	2817.775
3206.58656	2832.575
3208.8904	2819.075
3211.19287	2831.475
3213.49394	2837.375
3215.79363	2829.475
3218.09193	2825.675
3220.38884	2826.675
3222.68438	2831.775
3224.97853	2823.475
3227.2713	2814.475
3229.56269	2808.175
3231.8527	2802.875
3234.14133	2805.275
3236.42858	2796.275
3238.71446	2784.275
3240.99896	2781.075
3243.28209	2778.075
3245.56384	2763.575
3247.84423	2762.875
3250.12324	2754.475
3252.40088	2757.075
3254.67715	2760.375
3256.95205	2746.975
3259.22558	2740.475
3261.49775	2731.875
3263.76855	2742.375
3266.03799	2737.975
3268.30606	2742.175
3270.57277	2749.175
3272.83812	2726.275
3275.10211	2723.175
3277.36474	2721.775
3279.62601	2712.675
3281.88593	2702.075
3284.14448	2698.175
3286.40168	2708.075
3288.65753	2695.975
3290.91202	2693.375
3293.16516	2676.275
3295.41695	2686.575
3297.66738	2665.075
3299.91647	2645.175
3302.16421	2647.975
3304.4106	2627.275
3306.65564	2607.375
3308.89933	2590.575
3311.14169	2579.775
3313.38269	2545.175
3315.62236	2534.375
3317.86068	2507.375
3320.09766	2490.175
3322.3333	2469.175
3324.5676	2458.575
3326.80056	2424.375
3329.03219	2409.775
3331.26248	2.475
3333.49143	-0.725
3335.71905	-1.125
