Data from AgNPs_UA_20uM_CRN_500uM_SU_RamanShift__42__13-43-30-299.txt Node

Date: Thu Aug 04 13:43:30 BST 2022
User: TCL
Spectrometer: QEP01345
Trigger mode: 4
Integration Time (sec): 1.000000E0
Scans to average: 10
Electric dark correction enabled: true
Nonlinearity correction enabled: false
Boxcar width: 0
XAxis mode: Raman Shifts
Number of Pixels in Spectrum: 1044
>>>>>Begin Spectral Data<<<<<
46.04893	-1.475
50.45542	0.225
54.85868	0.025
59.25871	-0.175
63.6555	18.125
68.04907	16.725
72.43941	22.125
76.82654	18.725
81.21044	20.325
85.59113	22.925
89.96862	21.025
94.34289	22.125
98.71396	23.425
103.08183	25.825
107.4465	24.225
111.80798	26.825
116.16626	28.125
120.52136	30.625
124.87327	29.625
129.222	34.625
133.56755	34.825
137.90993	40.125
142.24913	41.525
146.58517	46.525
150.91804	54.325
155.24774	65.925
159.57429	85.425
163.89768	106.925
168.21792	148.825
172.53501	203.625
176.84895	287.525
181.15975	409.225
185.46741	574.625
189.77193	795.325
194.07331	1076.925
198.37157	1371.825
202.6667	1717.825
206.9587	2039.225
211.24758	2371.225
215.53334	2704.525
219.81599	3064.225
224.09553	3460.225
228.37195	3889.725
232.64527	4361.525
236.91549	4837.725
241.18261	5266.225
245.44663	5603.625
249.70755	5924.125
253.96539	6196.425
258.22014	6400.325
262.4718	6599.225
266.72039	6727.625
270.96589	6759.925
275.20832	6754.425
279.44768	6667.725
283.68397	6538.825
287.91719	6456.625
292.14735	6458.825
296.37445	6520.425
300.59849	6697.925
304.81948	6908.225
309.03742	7106.325
313.25231	7185.525
317.46415	7109.825
321.67296	6897.425
325.87872	6659.225
330.08145	6513.325
334.28114	6533.625
338.47781	6605.225
342.67145	6755.025
346.86207	6923.925
351.04966	7152.825
355.23424	7424.225
359.4158	7610.925
363.59435	7722.325
367.76989	7773.925
371.94243	7790.125
376.11196	7797.625
380.27849	7780.325
384.44203	7795.225
388.60257	7831.225
392.76012	7909.025
396.91468	8001.725
401.06626	8099.725
405.21485	8153.725
409.36047	8060.225
413.50311	7832.925
417.64277	7643.725
421.77947	7510.925
425.9132	7443.625
430.04396	7447.425
434.17176	7462.825
438.2966	7554.225
442.41849	7690.125
446.53742	7853.825
450.6534	8036.325
454.76644	8123.325
458.87653	8187.425
462.98368	8167.125
467.08789	8116.825
471.18916	8022.825
475.2875	7859.425
479.38291	7709.625
483.4754	7649.025
487.56496	7599.425
491.6516	7548.925
495.73531	7529.125
499.81612	7560.625
503.89401	7612.925
507.96899	7660.225
512.04106	7698.725
516.11023	7769.525
520.1765	7796.325
524.23987	7808.725
528.30034	7790.125
532.35792	7772.025
536.41261	7717.825
540.46441	7656.825
544.51333	7624.225
548.55936	7683.825
552.60252	7777.225
556.64279	7870.825
560.6802	7978.225
564.71473	8085.425
568.7464	8141.925
572.7752	8100.425
576.80114	7930.025
580.82422	7780.925
584.84444	7716.925
588.86181	7771.025
592.87633	7810.825
596.888	7974.725
600.89682	8314.525
604.9028	9188.925
608.90594	10959.125
612.90624	12662.325
616.90371	11727.925
620.89834	9290.625
624.89015	8332.625
628.87913	8254.825
632.86528	8387.625
636.84862	8434.225
640.82913	8235.125
644.80683	7962.925
648.78172	7784.925
652.75379	7812.325
656.72306	8044.125
660.68952	8286.725
664.65319	8236.825
668.61405	8120.225
672.57211	8162.425
676.52738	8181.425
680.47986	8026.125
684.42955	7882.325
688.37646	7824.525
692.32058	7914.725
696.26192	8038.225
700.20048	8213.525
704.13626	8228.725
708.06928	8128.925
711.99952	8038.925
715.927	8040.925
719.85171	8101.725
723.77365	8098.825
727.69284	8029.125
731.60928	7967.625
735.52295	7958.425
739.43388	7983.225
743.34206	8031.825
747.24749	8044.225
751.15017	8051.525
755.05012	8138.225
758.94733	8384.425
762.8418	9017.825
766.73354	9935.725
770.62254	10724.525
774.50882	10911.025
778.39237	10537.225
782.27321	9881.325
786.15132	9083.825
790.02671	8548.025
793.89938	8277.225
797.76935	8144.325
801.6366	8064.925
805.50115	8020.825
809.36299	7997.325
813.22213	7996.025
817.07857	7990.525
820.93231	8009.625
824.78336	8020.025
828.63172	8039.825
832.47738	8047.325
836.32036	8007.525
840.16066	8021.325
843.99827	8025.625
847.8332	8016.225
851.66546	8037.025
855.49504	8050.325
859.32195	8054.025
863.1462	8047.925
866.96777	8036.225
870.78668	8026.925
874.60293	8061.325
878.41652	8087.225
882.22745	8129.625
886.03573	8185.925
889.84136	8167.025
893.64433	8125.225
897.44466	8104.325
901.24235	8112.325
905.0374	8088.525
908.8298	8052.625
912.61957	8014.625
916.40671	8038.725
920.19121	8059.725
923.97308	8142.425
927.75233	8211.525
931.52895	8254.325
935.30295	8233.925
939.07433	8091.825
942.84309	7976.925
946.60924	7950.525
950.37278	7935.825
954.13371	7934.825
957.89203	7918.325
961.64774	7927.925
965.40086	7898.725
969.15137	7889.425
972.89929	7894.425
976.64461	7906.625
980.38733	7899.625
984.12747	7914.525
987.86502	7971.925
991.59999	8000.725
995.33237	8084.025
999.06217	8176.125
1002.78939	8325.225
1006.51404	8448.925
1010.23611	8576.625
1013.95561	8625.525
1017.67255	8662.525
1021.38692	8633.425
1025.09872	8602.525
1028.80796	8551.825
1032.51465	8601.825
1036.21877	8663.225
1039.92035	8668.125
1043.61937	8660.125
1047.31584	8620.325
1051.00976	8577.725
1054.70114	8575.125
1058.38998	8572.825
1062.07627	8617.725
1065.76003	8708.825
1069.44126	8783.625
1073.11995	8933.825
1076.79611	9070.425
1080.46974	9195.225
1084.14085	9288.525
1087.80943	9363.425
1091.47549	9388.025
1095.13903	9367.525
1098.80005	9342.825
1102.45857	9330.825
1106.11456	9282.325
1109.76805	9176.225
1113.41903	9201.525
1117.06751	9281.725
1120.71348	9439.925
1124.35696	9594.225
1127.99793	9713.325
1131.63641	9582.025
1135.2724	9342.525
1138.90589	9143.625
1142.5369	8981.825
1146.16542	8912.925
1149.79145	8840.425
1153.415	8758.325
1157.03607	8746.325
1160.65467	8821.825
1164.27079	8980.825
1167.88443	9209.325
1171.49561	9615.025
1175.10432	10183.725
1178.71056	10970.325
1182.31434	11627.625
1185.91565	11924.625
1189.51451	11904.425
1193.11091	11673.325
1196.70485	11380.025
1200.29634	11071.425
1203.88538	10741.325
1207.47197	10361.025
1211.05612	9987.425
1214.63782	9694.525
1218.21708	9515.625
1221.79391	9386.525
1225.36829	9360.125
1228.94024	9353.825
1232.50976	9317.825
1236.07685	9345.225
1239.6415	9352.525
1243.20374	9397.025
1246.76355	9441.925
1250.32093	9556.925
1253.8759	9695.225
1257.42845	9960.425
1260.97859	10202.625
1264.52631	10469.225
1268.07163	10609.625
1271.61453	10710.025
1275.15503	10774.425
1278.69312	10826.125
1282.22882	10847.025
1285.76211	10952.525
1289.29301	11113.025
1292.82151	11295.225
1296.34761	11540.625
1299.87133	11896.625
1303.39266	12511.525
1306.9116	13392.925
1310.42815	14264.225
1313.94233	14580.425
1317.45412	14150.925
1320.96354	13461.125
1324.47058	12720.325
1327.97525	12112.925
1331.47754	11768.725
1334.97747	11697.925
1338.47502	11922.225
1341.97022	12321.625
1345.46305	12924.725
1348.95352	13729.525
1352.44163	14622.025
1355.92738	15475.725
1359.41078	16545.625
1362.89183	17320.925
1366.37053	16571.825
1369.84688	14494.125
1373.32088	12584.025
1376.79254	11496.225
1380.26186	10952.925
1383.72883	10650.625
1387.19347	10374.425
1390.65578	10078.325
1394.11575	9842.125
1397.57339	9631.325
1401.0287	9543.225
1404.48168	9535.325
1407.93234	9586.225
1411.38068	9739.625
1414.82669	9896.625
1418.27039	9939.325
1421.71177	9895.125
1425.15083	9846.525
1428.58758	9821.525
1432.02203	9863.425
1435.45416	9934.025
1438.88399	9963.625
1442.31151	9902.925
1445.73673	9869.325
1449.15965	9843.225
1452.58027	9803.125
1455.9986	9734.325
1459.41463	9703.625
1462.82837	9793.125
1466.23982	9949.225
1469.64898	10100.325
1473.05586	10250.425
1476.46045	10372.425
1479.86276	10479.625
1483.26279	10602.925
1486.66054	10794.425
1490.05602	11103.625
1493.44922	11547.225
1496.84016	12239.725
1500.22882	13215.325
1503.61521	14403.625
1506.99934	15495.725
1510.38121	16101.925
1513.76081	15813.225
1517.13816	14699.225
1520.51324	13317.725
1523.88607	12153.725
1527.25665	11458.725
1530.62498	11068.925
1533.99105	10883.525
1537.35488	10752.525
1540.71647	10681.125
1544.07581	10608.125
1547.4329	10523.225
1550.78776	10418.625
1554.14038	10328.125
1557.49077	10324.225
1560.83892	10441.225
1564.18484	10650.425
1567.52853	10851.625
1570.86999	11042.825
1574.20922	11054.725
1577.54624	10915.625
1580.88103	10550.425
1584.2136	10092.825
1587.54395	9890.725
1590.87208	9957.525
1594.19801	10286.325
1597.52172	10760.225
1600.84321	10988.325
1604.16251	10921.125
1607.47959	10684.725
1610.79447	10309.925
1614.10715	9842.025
1617.41763	9375.325
1620.7259	9026.325
1624.03199	8874.625
1627.33587	8835.725
1630.63757	8945.825
1633.93707	9247.625
1637.23439	9759.125
1640.52951	10531.725
1643.82246	11552.425
1647.11321	12525.725
1650.40179	12863.725
1653.68819	12259.725
1656.97241	10952.125
1660.25446	9738.825
1663.53433	8885.125
1666.81203	8382.925
1670.08756	8088.225
1673.36092	7931.325
1676.63211	7786.925
1679.90115	7707.525
1683.16801	7601.425
1686.43272	7573.325
1689.69527	7536.525
1692.95567	7497.725
1696.2139	7487.825
1699.46999	7446.925
1702.72392	7446.025
1705.97571	7461.725
1709.22535	7467.325
1712.47284	7434.825
1715.71819	7425.925
1718.96139	7411.925
1722.20246	7419.825
1725.44139	7388.325
1728.67818	7349.525
1731.91284	7295.725
1735.14537	7257.025
1738.37576	7267.725
1741.60403	7229.325
1744.83017	7217.425
1748.05418	7185.425
1751.27607	7209.725
1754.49584	7146.925
1757.71349	7149.725
1760.92903	7133.425
1764.14244	7130.125
1767.35375	7117.525
1770.56294	7101.725
1773.77002	7104.125
1776.97499	7086.225
1780.17785	7060.025
1783.37861	7046.325
1786.57727	7021.625
1789.77382	7018.325
1792.96828	7007.725
1796.16064	6990.325
1799.3509	6975.425
1802.53907	6978.825
1805.72514	6968.225
1808.90913	6938.625
1812.09102	6955.525
1815.27083	6918.325
1818.44856	6893.025
1821.6242	6889.325
1824.79776	6866.825
1827.96924	6867.525
1831.13864	6857.225
1834.30597	6836.525
1837.47122	6828.225
1840.6344	6800.625
1843.7955	6788.725
1846.95454	6797.625
1850.11151	6790.125
1853.26642	6796.425
1856.41926	6798.825
1859.57004	6793.625
1862.71876	6757.225
1865.86542	6768.125
1869.01003	6749.025
1872.15258	6740.425
1875.29308	6743.725
1878.43152	6737.825
1881.56792	6736.325
1884.70227	6717.725
1887.83457	6714.925
1890.96482	6712.625
1894.09304	6684.025
1897.21921	6672.225
1900.34335	6652.925
1903.46544	6667.825
1906.58551	6666.725
1909.70353	6659.425
1912.81953	6645.125
1915.93349	6617.525
1919.04543	6602.925
1922.15534	6605.525
1925.26322	6599.025
1928.36908	6578.725
1931.47292	6572.625
1934.57473	6556.525
1937.67453	6538.725
1940.77232	6524.725
1943.86808	6491.825
1946.96184	6485.725
1950.05358	6458.325
1953.14331	6460.925
1956.23103	6430.425
1959.31675	6386.625
1962.40046	6380.125
1965.48217	6355.125
1968.56188	6336.925
1971.63959	6328.325
1974.7153	6323.125
1977.78901	6296.525
1980.86073	6293.725
1983.93046	6254.225
1986.99819	6245.525
1990.06394	6216.825
1993.1277	6196.725
1996.18947	6189.225
1999.24925	6165.525
2002.30706	6126.925
2005.36288	6092.225
2008.41672	6081.925
2011.46859	6071.425
2014.51848	6054.025
2017.56639	6035.225
2020.61233	6015.025
2023.6563	6032.925
2026.6983	5992.525
2029.73833	5990.625
2032.7764	5969.325
2035.8125	5946.625
2038.84664	5930.725
2041.87881	5924.825
2044.90903	5926.325
2047.93729	5890.425
2050.96359	5903.825
2053.98794	5876.025
2057.01034	5863.025
2060.03078	5867.225
2063.04927	5857.425
2066.06582	5852.025
2069.08042	5825.125
2072.09307	5827.625
2075.10378	5819.825
2078.11255	5828.725
2081.11938	5824.525
2084.12426	5819.125
2087.12722	5807.125
2090.12824	5793.425
2093.12732	5823.925
2096.12447	5829.725
2099.11969	5784.225
2102.11299	5810.125
2105.10435	5824.625
2108.09379	5821.325
2111.08131	5807.725
2114.0669	5804.925
2117.05057	5835.525
2120.03233	5815.925
2123.01216	5808.125
2125.99008	5828.625
2128.96609	5827.025
2131.94018	5834.625
2134.91236	5838.225
2137.88263	5823.325
2140.851	5851.725
2143.81746	5826.525
2146.78201	5821.025
2149.74466	5834.625
2152.7054	5801.925
2155.66425	5815.525
2158.6212	5828.325
2161.57625	5826.825
2164.52941	5813.225
2167.48067	5819.825
2170.43004	5791.425
2173.37752	5780.625
2176.32311	5804.525
2179.26681	5795.325
2182.20863	5802.225
2185.14856	5797.225
2188.08661	5790.425
2191.02278	5789.725
2193.95707	5798.625
2196.88948	5778.525
2199.82001	5783.125
2202.74867	5772.925
2205.67545	5775.325
2208.60037	5768.925
2211.52341	5745.325
2214.44458	5749.525
2217.36388	5722.025
2220.28132	5711.725
2223.1969	5672.825
2226.11061	5671.925
2229.02246	5659.725
2231.93245	5649.125
2234.84058	5645.925
2237.74686	5625.025
2240.65128	5641.825
2243.55385	5627.125
2246.45456	5632.225
2249.35343	5620.625
2252.25044	5612.725
2255.14561	5610.325
2258.03893	5583.525
2260.93041	5592.225
2263.82004	5570.925
2266.70783	5574.725
2269.59378	5543.325
2272.4779	5532.925
2275.36017	5497.425
2278.24061	5502.225
2281.11922	5488.325
2283.996	5468.825
2286.87094	5473.025
2289.74405	5449.325
2292.61534	5442.425
2295.4848	5449.225
2298.35243	5447.925
2301.21824	5432.825
2304.08223	5431.925
2306.94439	5419.025
2309.80474	5420.025
2312.66327	5410.025
2315.51999	5385.225
2318.37489	5400.525
2321.22797	5383.425
2324.07925	5375.825
2326.92871	5363.125
2329.77637	5361.725
2332.62222	5353.225
2335.46626	5335.625
2338.3085	5334.925
2341.14893	5329.425
2343.98756	5334.225
2346.8244	5312.325
2349.65943	5339.725
2352.49267	5325.725
2355.32411	5319.025
2358.15376	5325.525
2360.98161	5315.225
2363.80768	5317.825
2366.63195	5279.925
2369.45444	5301.025
2372.27514	5288.425
2375.09405	5284.025
2377.91118	5268.525
2380.72652	5272.825
2383.54009	5265.125
2386.35187	5234.625
2389.16188	5225.625
2391.97011	5205.025
2394.77657	5189.825
2397.58125	5177.825
2400.38416	5168.125
2403.18529	5173.725
2405.98466	5157.625
2408.78226	5152.825
2411.57809	5143.625
2414.37216	5120.225
2417.16446	5135.225
2419.955	5115.325
2422.74378	5121.225
2425.5308	5101.225
2428.31606	5090.725
2431.09956	5090.225
2433.88131	5073.925
2436.6613	5086.825
2439.43954	5085.325
2442.21603	5086.525
2444.99077	5082.425
2447.76377	5073.525
2450.53501	5072.225
2453.30451	5054.425
2456.07226	5055.625
2458.83827	5058.425
2461.60254	5036.525
2464.36507	5019.825
2467.12586	5014.825
2469.88492	5025.025
2472.64224	5025.425
2475.39782	5004.425
2478.15167	5004.925
2480.90379	4999.025
2483.65417	5017.825
2486.40283	5026.225
2489.14976	5017.925
2491.89497	5005.325
2494.63845	5001.225
2497.3802	5007.925
2500.12024	4997.125
2502.85855	4990.725
2505.59514	4979.725
2508.33002	4950.625
2511.06318	4940.725
2513.79462	4925.925
2516.52435	4937.725
2519.25237	4920.325
2521.97867	4912.425
2524.70327	4911.225
2527.42616	4893.425
2530.14734	4903.325
2532.86681	4888.125
2535.58458	4880.425
2538.30065	4874.625
2541.01501	4884.425
2543.72768	4867.725
2546.43864	4877.225
2549.14791	4855.025
2551.85548	4860.525
2554.56136	4852.625
2557.26554	4847.725
2559.96803	4835.025
2562.66883	4836.925
2565.36794	4808.125
2568.06536	4806.525
2570.7611	4774.225
2573.45514	4771.625
2576.14751	4764.725
2578.83819	4763.725
2581.52719	4743.425
2584.21451	4741.725
2586.90015	4730.525
2589.58411	4708.725
2592.2664	4719.925
2594.94701	4712.425
2597.62594	4711.025
2600.30321	4691.225
2602.9788	4675.925
2605.65273	4681.925
2608.32498	4677.625
2610.99557	4660.625
2613.66449	4659.525
2616.33175	4667.425
2618.99734	4667.825
2621.66128	4646.425
2624.32355	4638.325
2626.98416	4640.125
2629.64311	4629.625
2632.30041	4626.425
2634.95605	4615.525
2637.61004	4607.725
2640.26238	4607.125
2642.91306	4597.425
2645.56209	4594.325
2648.20948	4577.825
2650.85521	4586.425
2653.4993	4585.725
2656.14175	4574.425
2658.78255	4569.925
2661.42171	4562.725
2664.05923	4587.025
2666.6951	4598.025
2669.32934	4593.025
2671.96194	4573.225
2674.59291	4561.425
2677.22224	4567.825
2679.84993	4585.825
2682.476	4579.625
2685.10043	4572.525
2687.72324	4556.725
2690.34441	4554.325
2692.96396	4563.225
2695.58188	4556.125
2698.19818	4542.625
2700.81285	4560.025
2703.4259	4538.925
2706.03733	4551.825
2708.64714	4537.525
2711.25533	4528.025
2713.86191	4539.325
2716.46687	4555.125
2719.07021	4528.325
2721.67194	4538.125
2724.27206	4568.925
2726.87057	4546.525
2729.46747	4545.725
2732.06276	4541.125
2734.65644	4522.625
2737.24852	4527.825
2739.83899	4515.225
2742.42786	4515.725
2745.01513	4516.925
2747.60079	4501.825
2750.18486	4491.725
2752.76733	4494.325
2755.3482	4489.425
2757.92747	4469.425
2760.50515	4460.125
2763.08123	4453.525
2765.65573	4446.025
2768.22863	4446.125
2770.79994	4424.725
2773.36967	4436.025
2775.9378	4440.325
2778.50435	4416.925
2781.06932	4409.925
2783.6327	4396.325
2786.1945	4392.725
2788.75471	4384.125
2791.31335	4389.325
2793.87041	4371.225
2796.42589	4373.425
2798.97979	4362.325
2801.53212	4353.225
2804.08288	4349.925
2806.63206	4349.225
2809.17967	4344.725
2811.72571	4315.225
2814.27018	4342.225
2816.81308	4307.625
2819.35442	4298.925
2821.89419	4268.325
2824.43239	4273.925
2826.96904	4261.025
2829.50412	4261.425
2832.03763	4257.525
2834.56959	4269.225
2837.1	4244.825
2839.62884	4227.325
2842.15613	4231.425
2844.68186	4238.225
2847.20604	4243.725
2849.72867	4224.625
2852.24974	4203.325
2854.76927	4195.325
2857.28724	4165.925
2859.80367	4174.825
2862.31855	4182.825
2864.83189	4168.625
2867.34368	4177.925
2869.85393	4170.325
2872.36264	4156.925
2874.8698	4145.725
2877.37543	4151.925
2879.87952	4121.525
2882.38207	4147.025
2884.88308	4145.225
2887.38256	4130.725
2889.88051	4133.925
2892.37692	4115.025
2894.8718	4120.225
2897.36515	4115.125
2899.85698	4115.825
2902.34727	4124.025
2904.83604	4107.625
2907.32328	4123.625
2909.809	4129.425
2912.29319	4112.325
2914.77587	4119.225
2917.25702	4126.125
2919.73665	4123.625
2922.21476	4111.925
2924.69136	4127.825
2927.16644	4123.125
2929.64	4087.925
2932.11205	4095.725
2934.58258	4072.725
2937.05161	4070.525
2939.51912	4059.425
2941.98513	4082.125
2944.44962	4066.725
2946.91261	4052.025
2949.37409	4073.325
2951.83407	4060.225
2954.29254	4055.525
2956.74951	4050.225
2959.20498	4039.825
2961.65895	4038.425
2964.11142	4036.725
2966.56239	4028.625
2969.01186	4042.225
2971.45984	4029.625
2973.90632	4039.125
2976.35131	4024.625
2978.7948	4010.525
2981.23681	3997.925
2983.67732	3965.825
2986.11635	3990.325
2988.55388	3987.425
2990.98993	3974.425
2993.4245	3957.925
2995.85758	3952.825
2998.28917	3948.325
3000.71928	3939.025
3003.14791	3911.925
3005.57506	3904.525
3008.00073	3902.525
3010.42493	3890.125
3012.84764	3882.225
3015.26888	3868.925
3017.68865	3865.825
3020.10694	3866.125
3022.52376	3855.225
3024.9391	3840.025
3027.35298	3825.325
3029.76539	3817.425
3032.17632	3820.125
3034.5858	3810.825
3036.9938	3818.325
3039.40034	3785.725
3041.80542	3770.525
3044.20903	3759.625
3046.61118	3783.125
3049.01187	3749.425
3051.4111	3749.525
3053.80888	3761.225
3056.20519	3738.025
3058.60005	3727.025
3060.99345	3720.825
3063.3854	3694.225
3065.7759	3705.125
3068.16494	3685.125
3070.55254	3687.625
3072.93868	3670.825
3075.32338	3667.525
3077.70662	3648.125
3080.08842	3631.925
3082.46878	3622.625
3084.84769	3611.325
3087.22515	3610.925
3089.60118	3612.025
3091.97576	3617.225
3094.3489	3616.825
3096.72061	3607.125
3099.09087	3608.425
3101.4597	3619.325
3103.82709	3600.925
3106.19305	3587.925
3108.55757	3601.925
3110.92066	3589.225
3113.28232	3573.425
3115.64255	3559.225
3118.00134	3545.725
3120.35871	3535.125
3122.71466	3538.725
3125.06917	3539.925
3127.42226	3530.625
3129.77393	3521.525
3132.12417	3522.425
3134.47299	3516.025
3136.82039	3499.225
3139.16636	3500.825
3141.51092	3497.225
3143.85406	3493.825
3146.19579	3497.725
3148.53609	3483.225
3150.87499	3490.625
3153.21246	3478.525
3155.54853	3483.025
3157.88318	3492.725
3160.21642	3486.425
3162.54826	3481.125
3164.87868	3475.225
3167.2077	3451.525
3169.5353	3459.225
3171.86151	3450.525
3174.18631	3456.425
3176.5097	3456.025
3178.83169	3431.325
3181.15228	3451.525
3183.47147	3422.025
3185.78926	3417.525
3188.10565	3410.525
3190.42065	3397.925
3192.73424	3401.025
3195.04645	3395.125
3197.35725	3380.925
3199.66667	3373.125
3201.97469	3365.225
3204.28132	3372.225
3206.58656	3360.925
3208.8904	3369.425
3211.19287	3385.125
3213.49394	3383.925
3215.79363	3379.125
3218.09193	3373.025
3220.38884	3361.825
3222.68438	3370.825
3224.97853	3369.925
3227.2713	3368.525
3229.56269	3366.425
3231.8527	3354.025
3234.14133	3343.925
3236.42858	3328.825
3238.71446	3320.425
3240.99896	3314.125
3243.28209	3313.525
3245.56384	3298.825
3247.84423	3299.225
3250.12324	3302.025
3252.40088	3293.625
3254.67715	3284.125
3256.95205	3279.425
3259.22558	3268.525
3261.49775	3278.325
3263.76855	3273.025
3266.03799	3285.925
3268.30606	3269.225
3270.57277	3274.725
3272.83812	3264.725
3275.10211	3252.025
3277.36474	3240.525
3279.62601	3231.925
3281.88593	3215.125
3284.14448	3230.525
3286.40168	3221.625
3288.65753	3236.425
3290.91202	3216.625
3293.16516	3195.925
3295.41695	3201.725
3297.66738	3169.925
3299.91647	3164.825
3302.16421	3156.225
3304.4106	3136.025
3306.65564	3106.125
3308.89933	3079.525
3311.14169	3059.725
3313.38269	3037.925
3315.62236	3019.225
3317.86068	2983.425
3320.09766	2950.625
3322.3333	2936.925
3324.5676	2924.125
3326.80056	2887.925
3329.03219	2862.025
3331.26248	2.525
3333.49143	-0.375
3335.71905	-1.275
