Data from AgNPs_UA_50uM_CRN_500uM_SU_RamanShift__0__13-55-50-314.txt Node

Date: Thu Aug 04 13:55:50 BST 2022
User: TCL
Spectrometer: QEP01345
Trigger mode: 4
Integration Time (sec): 1.000000E0
Scans to average: 10
Electric dark correction enabled: true
Nonlinearity correction enabled: false
Boxcar width: 0
XAxis mode: Raman Shifts
Number of Pixels in Spectrum: 1044
>>>>>Begin Spectral Data<<<<<
46.04893	0.5125
50.45542	-0.4875
54.85868	0.8125
59.25871	-1.1875
63.6555	15.3125
68.04907	13.0125
72.43941	15.0125
76.82654	15.9125
81.21044	16.8125
85.59113	17.5125
89.96862	20.7125
94.34289	19.9125
98.71396	19.8125
103.08183	20.2125
107.4465	20.1125
111.80798	21.7125
116.16626	21.3125
120.52136	22.9125
124.87327	23.0125
129.222	26.9125
133.56755	29.3125
137.90993	31.0125
142.24913	33.5125
146.58517	37.3125
150.91804	43.0125
155.24774	51.4125
159.57429	67.7125
163.89768	86.5125
168.21792	118.0125
172.53501	160.3125
176.84895	231.1125
181.15975	318.7125
185.46741	452.9125
189.77193	634.3125
194.07331	854.1125
198.37157	1098.5125
202.6667	1362.6125
206.9587	1632.4125
211.24758	1892.8125
215.53334	2167.3125
219.81599	2463.9125
224.09553	2814.8125
228.37195	3188.1125
232.64527	3599.5125
236.91549	3971.7125
241.18261	4313.7125
245.44663	4566.9125
249.70755	4752.8125
253.96539	4895.6125
258.22014	5037.1125
262.4718	5144.0125
266.72039	5240.1125
270.96589	5256.8125
275.20832	5216.8125
279.44768	5118.6125
283.68397	5038.5125
287.91719	4976.4125
292.14735	4994.1125
296.37445	5106.9125
300.59849	5331.7125
304.81948	5587.2125
309.03742	5862.9125
313.25231	6027.2125
317.46415	5959.1125
321.67296	5670.3125
325.87872	5351.4125
330.08145	5162.1125
334.28114	5158.1125
338.47781	5234.6125
342.67145	5340.8125
346.86207	5522.8125
351.04966	5809.2125
355.23424	6047.0125
359.4158	6225.6125
363.59435	6308.9125
367.76989	6264.2125
371.94243	6212.3125
376.11196	6162.2125
380.27849	6118.4125
384.44203	6074.8125
388.60257	6043.5125
392.76012	6085.1125
396.91468	6187.3125
401.06626	6286.4125
405.21485	6327.3125
409.36047	6189.8125
413.50311	5933.1125
417.64277	5655.9125
421.77947	5528.0125
425.9132	5477.2125
430.04396	5498.0125
434.17176	5545.3125
438.2966	5601.1125
442.41849	5729.0125
446.53742	5825.5125
450.6534	5936.5125
454.76644	5989.4125
458.87653	6012.7125
462.98368	5952.3125
467.08789	5906.9125
471.18916	5811.0125
475.2875	5701.9125
479.38291	5584.5125
483.4754	5510.2125
487.56496	5464.7125
491.6516	5440.4125
495.73531	5426.9125
499.81612	5473.1125
503.89401	5497.6125
507.96899	5534.9125
512.04106	5608.3125
516.11023	5701.4125
520.1765	5743.9125
524.23987	5782.6125
528.30034	5778.9125
532.35792	5756.8125
536.41261	5689.4125
540.46441	5596.8125
544.51333	5559.3125
548.55936	5594.8125
552.60252	5685.9125
556.64279	5805.8125
560.6802	5867.7125
564.71473	5946.6125
568.7464	6071.5125
572.7752	6075.0125
576.80114	5865.9125
580.82422	5704.2125
584.84444	5627.0125
588.86181	5636.0125
592.87633	5637.6125
596.888	5769.3125
600.89682	6042.0125
604.9028	6836.2125
608.90594	8612.0125
612.90624	10462.4125
616.90371	9617.5125
620.89834	7084.0125
624.89015	6003.9125
628.87913	5876.0125
632.86528	6014.0125
636.84862	6104.2125
640.82913	5995.6125
644.80683	5776.9125
648.78172	5620.8125
652.75379	5642.3125
656.72306	5804.9125
660.68952	5996.2125
664.65319	5925.9125
668.61405	5711.6125
672.57211	5680.8125
676.52738	5655.9125
680.47986	5612.1125
684.42955	5537.6125
688.37646	5493.1125
692.32058	5524.1125
696.26192	5599.6125
700.20048	5681.3125
704.13626	5726.0125
708.06928	5675.1125
711.99952	5618.4125
715.927	5640.9125
719.85171	5656.2125
723.77365	5669.4125
727.69284	5644.5125
731.60928	5598.0125
735.52295	5591.9125
739.43388	5587.8125
743.34206	5626.9125
747.24749	5620.2125
751.15017	5645.0125
755.05012	5706.0125
758.94733	5985.7125
762.8418	6676.8125
766.73354	7694.1125
770.62254	8488.8125
774.50882	8603.0125
778.39237	8092.6125
782.27321	7296.8125
786.15132	6476.9125
790.02671	5983.9125
793.89938	5710.5125
797.76935	5610.2125
801.6366	5576.3125
805.50115	5521.0125
809.36299	5505.2125
813.22213	5488.3125
817.07857	5481.9125
820.93231	5490.7125
824.78336	5521.7125
828.63172	5523.9125
832.47738	5528.3125
836.32036	5525.1125
840.16066	5503.3125
843.99827	5499.2125
847.8332	5489.6125
851.66546	5485.1125
855.49504	5502.1125
859.32195	5509.8125
863.1462	5506.8125
866.96777	5500.8125
870.78668	5517.4125
874.60293	5527.5125
878.41652	5538.7125
882.22745	5565.8125
886.03573	5616.3125
889.84136	5609.1125
893.64433	5575.0125
897.44466	5564.1125
901.24235	5576.7125
905.0374	5550.5125
908.8298	5520.3125
912.61957	5493.9125
916.40671	5491.4125
920.19121	5523.9125
923.97308	5605.7125
927.75233	5657.0125
931.52895	5690.9125
935.30295	5649.8125
939.07433	5521.5125
942.84309	5427.4125
946.60924	5387.1125
950.37278	5390.8125
954.13371	5382.1125
957.89203	5363.6125
961.64774	5346.8125
965.40086	5355.5125
969.15137	5339.1125
972.89929	5334.5125
976.64461	5332.5125
980.38733	5326.9125
984.12747	5365.7125
987.86502	5375.6125
991.59999	5422.0125
995.33237	5494.4125
999.06217	5553.6125
1002.78939	5698.9125
1006.51404	5832.8125
1010.23611	5966.2125
1013.95561	6012.9125
1017.67255	6010.5125
1021.38692	5957.8125
1025.09872	5836.6125
1028.80796	5742.0125
1032.51465	5715.4125
1036.21877	5752.2125
1039.92035	5788.1125
1043.61937	5819.2125
1047.31584	5809.3125
1051.00976	5827.2125
1054.70114	5809.6125
1058.38998	5792.9125
1062.07627	5798.0125
1065.76003	5860.9125
1069.44126	5958.8125
1073.11995	6086.5125
1076.79611	6264.1125
1080.46974	6398.8125
1084.14085	6489.2125
1087.80943	6559.6125
1091.47549	6625.3125
1095.13903	6642.6125
1098.80005	6525.5125
1102.45857	6357.4125
1106.11456	6224.4125
1109.76805	6156.3125
1113.41903	6202.2125
1117.06751	6295.8125
1120.71348	6503.5125
1124.35696	6796.3125
1127.99793	6979.3125
1131.63641	6844.6125
1135.2724	6572.1125
1138.90589	6363.9125
1142.5369	6284.1125
1146.16542	6276.4125
1149.79145	6266.6125
1153.415	6141.5125
1157.03607	6056.6125
1160.65467	6076.0125
1164.27079	6199.3125
1167.88443	6374.2125
1171.49561	6717.2125
1175.10432	7218.0125
1178.71056	7967.8125
1182.31434	8589.1125
1185.91565	8769.5125
1189.51451	8618.0125
1193.11091	8365.7125
1196.70485	8117.6125
1200.29634	7956.3125
1203.88538	7755.5125
1207.47197	7472.2125
1211.05612	7228.9125
1214.63782	7059.1125
1218.21708	6874.2125
1221.79391	6688.6125
1225.36829	6557.7125
1228.94024	6500.8125
1232.50976	6463.7125
1236.07685	6459.8125
1239.6415	6486.8125
1243.20374	6514.6125
1246.76355	6571.2125
1250.32093	6673.9125
1253.8759	6835.6125
1257.42845	7123.9125
1260.97859	7350.7125
1264.52631	7548.0125
1268.07163	7654.3125
1271.61453	7721.4125
1275.15503	7742.6125
1278.69312	7740.4125
1282.22882	7732.7125
1285.76211	7858.4125
1289.29301	8023.6125
1292.82151	8218.3125
1296.34761	8412.6125
1299.87133	8749.4125
1303.39266	9284.0125
1306.9116	10122.0125
1310.42815	10994.8125
1313.94233	11240.4125
1317.45412	10682.8125
1320.96354	9931.7125
1324.47058	9218.7125
1327.97525	8587.3125
1331.47754	8231.8125
1334.97747	8158.9125
1338.47502	8296.7125
1341.97022	8665.5125
1345.46305	9249.4125
1348.95352	10027.8125
1352.44163	10930.4125
1355.92738	11914.0125
1359.41078	13131.9125
1362.89183	14151.6125
1366.37053	13460.4125
1369.84688	11358.2125
1373.32088	9406.3125
1376.79254	8314.5125
1380.26186	7825.4125
1383.72883	7552.5125
1387.19347	7276.5125
1390.65578	7034.0125
1394.11575	6843.0125
1397.57339	6682.3125
1401.0287	6582.7125
1404.48168	6511.5125
1407.93234	6539.6125
1411.38068	6620.5125
1414.82669	6692.8125
1418.27039	6711.0125
1421.71177	6665.1125
1425.15083	6603.6125
1428.58758	6571.0125
1432.02203	6630.0125
1435.45416	6707.5125
1438.88399	6767.9125
1442.31151	6807.7125
1445.73673	6868.6125
1449.15965	6928.8125
1452.58027	6888.9125
1455.9986	6831.0125
1459.41463	6801.8125
1462.82837	6873.2125
1466.23982	7019.7125
1469.64898	7188.4125
1473.05586	7283.7125
1476.46045	7318.5125
1479.86276	7347.4125
1483.26279	7445.1125
1486.66054	7611.3125
1490.05602	7860.6125
1493.44922	8246.7125
1496.84016	8913.3125
1500.22882	9913.1125
1503.61521	11179.5125
1506.99934	12495.1125
1510.38121	13265.6125
1513.76081	13065.5125
1517.13816	11922.1125
1520.51324	10445.0125
1523.88607	9230.2125
1527.25665	8515.8125
1530.62498	8126.5125
1533.99105	7955.4125
1537.35488	7843.4125
1540.71647	7810.5125
1544.07581	7775.4125
1547.4329	7719.8125
1550.78776	7637.8125
1554.14038	7537.2125
1557.49077	7499.2125
1560.83892	7531.9125
1564.18484	7711.2125
1567.52853	7993.3125
1570.86999	8217.1125
1574.20922	8262.7125
1577.54624	8137.3125
1580.88103	7688.9125
1584.2136	7246.9125
1587.54395	6972.0125
1590.87208	6939.0125
1594.19801	7207.3125
1597.52172	7498.9125
1600.84321	7682.3125
1604.16251	7673.3125
1607.47959	7518.2125
1610.79447	7264.2125
1614.10715	6885.5125
1617.41763	6484.8125
1620.7259	6218.3125
1624.03199	6069.8125
1627.33587	6039.0125
1630.63757	6102.7125
1633.93707	6315.6125
1637.23439	6677.6125
1640.52951	7278.8125
1643.82246	8153.0125
1647.11321	9066.4125
1650.40179	9625.7125
1653.68819	9242.3125
1656.97241	8149.4125
1660.25446	7000.3125
1663.53433	6231.0125
1666.81203	5774.5125
1670.08756	5497.6125
1673.36092	5327.4125
1676.63211	5230.4125
1679.90115	5143.1125
1683.16801	5098.6125
1686.43272	5042.1125
1689.69527	5015.5125
1692.95567	4978.4125
1696.2139	4966.1125
1699.46999	4950.7125
1702.72392	4943.2125
1705.97571	4953.6125
1709.22535	4958.3125
1712.47284	4943.4125
1715.71819	4943.0125
1718.96139	4920.1125
1722.20246	4925.8125
1725.44139	4914.1125
1728.67818	4874.7125
1731.91284	4848.2125
1735.14537	4829.1125
1738.37576	4806.1125
1741.60403	4782.1125
1744.83017	4772.1125
1748.05418	4750.3125
1751.27607	4756.2125
1754.49584	4737.9125
1757.71349	4736.9125
1760.92903	4718.8125
1764.14244	4715.1125
1767.35375	4702.7125
1770.56294	4697.8125
1773.77002	4684.2125
1776.97499	4660.0125
1780.17785	4654.9125
1783.37861	4645.2125
1786.57727	4636.0125
1789.77382	4611.5125
1792.96828	4613.3125
1796.16064	4601.3125
1799.3509	4598.2125
1802.53907	4577.3125
1805.72514	4579.7125
1808.90913	4568.2125
1812.09102	4549.1125
1815.27083	4544.2125
1818.44856	4528.9125
1821.6242	4514.9125
1824.79776	4498.4125
1827.96924	4497.6125
1831.13864	4480.5125
1834.30597	4465.4125
1837.47122	4464.2125
1840.6344	4470.0125
1843.7955	4472.1125
1846.95454	4475.4125
1850.11151	4470.6125
1853.26642	4465.3125
1856.41926	4479.8125
1859.57004	4455.9125
1862.71876	4469.8125
1865.86542	4441.1125
1869.01003	4436.0125
1872.15258	4453.0125
1875.29308	4456.6125
1878.43152	4427.5125
1881.56792	4420.7125
1884.70227	4411.2125
1887.83457	4409.3125
1890.96482	4399.9125
1894.09304	4402.1125
1897.21921	4392.5125
1900.34335	4383.0125
1903.46544	4372.3125
1906.58551	4374.7125
1909.70353	4361.1125
1912.81953	4361.2125
1915.93349	4351.2125
1919.04543	4358.8125
1922.15534	4329.5125
1925.26322	4327.5125
1928.36908	4319.5125
1931.47292	4319.7125
1934.57473	4294.5125
1937.67453	4296.3125
1940.77232	4265.9125
1943.86808	4264.0125
1946.96184	4265.3125
1950.05358	4241.2125
1953.14331	4214.2125
1956.23103	4218.4125
1959.31675	4187.1125
1962.40046	4196.5125
1965.48217	4176.1125
1968.56188	4184.3125
1971.63959	4171.9125
1974.7153	4145.1125
1977.78901	4144.6125
1980.86073	4134.2125
1983.93046	4105.5125
1986.99819	4091.6125
1990.06394	4099.4125
1993.1277	4081.4125
1996.18947	4059.5125
1999.24925	4042.4125
2002.30706	4030.0125
2005.36288	4012.2125
2008.41672	4017.7125
2011.46859	3999.1125
2014.51848	3973.1125
2017.56639	3978.6125
2020.61233	3965.2125
2023.6563	3935.4125
2026.6983	3925.4125
2029.73833	3911.6125
2032.7764	3906.6125
2035.8125	3902.3125
2038.84664	3892.8125
2041.87881	3871.4125
2044.90903	3870.3125
2047.93729	3858.0125
2050.96359	3855.6125
2053.98794	3851.0125
2057.01034	3841.4125
2060.03078	3848.3125
2063.04927	3851.1125
2066.06582	3855.5125
2069.08042	3838.3125
2072.09307	3825.1125
2075.10378	3830.4125
2078.11255	3828.4125
2081.11938	3843.4125
2084.12426	3823.0125
2087.12722	3839.3125
2090.12824	3831.2125
2093.12732	3822.7125
2096.12447	3822.3125
2099.11969	3827.2125
2102.11299	3829.3125
2105.10435	3835.5125
2108.09379	3833.3125
2111.08131	3831.1125
2114.0669	3852.3125
2117.05057	3831.4125
2120.03233	3829.6125
2123.01216	3838.9125
2125.99008	3824.9125
2128.96609	3858.5125
2131.94018	3844.3125
2134.91236	3847.9125
2137.88263	3842.4125
2140.851	3842.0125
2143.81746	3838.8125
2146.78201	3828.7125
2149.74466	3854.2125
2152.7054	3830.3125
2155.66425	3820.9125
2158.6212	3825.6125
2161.57625	3833.4125
2164.52941	3821.3125
2167.48067	3830.1125
2170.43004	3815.5125
2173.37752	3824.7125
2176.32311	3837.5125
2179.26681	3822.1125
2182.20863	3816.1125
2185.14856	3819.7125
2188.08661	3822.1125
2191.02278	3815.8125
2193.95707	3825.3125
2196.88948	3805.0125
2199.82001	3798.9125
2202.74867	3812.4125
2205.67545	3805.5125
2208.60037	3789.6125
2211.52341	3799.5125
2214.44458	3790.2125
2217.36388	3786.2125
2220.28132	3774.7125
2223.1969	3751.8125
2226.11061	3733.0125
2229.02246	3742.2125
2231.93245	3736.4125
2234.84058	3729.2125
2237.74686	3730.5125
2240.65128	3725.2125
2243.55385	3729.8125
2246.45456	3704.8125
2249.35343	3698.5125
2252.25044	3702.2125
2255.14561	3699.3125
2258.03893	3707.0125
2260.93041	3694.1125
2263.82004	3688.2125
2266.70783	3667.7125
2269.59378	3668.9125
2272.4779	3661.9125
2275.36017	3654.4125
2278.24061	3640.4125
2281.11922	3638.8125
2283.996	3627.0125
2286.87094	3612.9125
2289.74405	3622.2125
2292.61534	3630.6125
2295.4848	3615.5125
2298.35243	3605.8125
2301.21824	3610.8125
2304.08223	3610.5125
2306.94439	3601.1125
2309.80474	3603.7125
2312.66327	3608.0125
2315.51999	3586.7125
2318.37489	3594.6125
2321.22797	3591.1125
2324.07925	3577.4125
2326.92871	3570.9125
2329.77637	3554.9125
2332.62222	3565.1125
2335.46626	3540.7125
2338.3085	3548.3125
2341.14893	3535.1125
2343.98756	3540.0125
2346.8244	3540.7125
2349.65943	3541.3125
2352.49267	3521.6125
2355.32411	3537.8125
2358.15376	3542.3125
2360.98161	3546.1125
2363.80768	3559.8125
2366.63195	3544.2125
2369.45444	3543.3125
2372.27514	3546.3125
2375.09405	3543.1125
2377.91118	3524.2125
2380.72652	3508.4125
2383.54009	3502.0125
2386.35187	3496.7125
2389.16188	3482.1125
2391.97011	3469.3125
2394.77657	3472.4125
2397.58125	3451.6125
2400.38416	3452.7125
2403.18529	3443.8125
2405.98466	3444.9125
2408.78226	3429.6125
2411.57809	3435.4125
2414.37216	3423.6125
2417.16446	3421.6125
2419.955	3424.2125
2422.74378	3435.1125
2425.5308	3416.7125
2428.31606	3428.1125
2431.09956	3415.1125
2433.88131	3422.0125
2436.6613	3411.2125
2439.43954	3420.4125
2442.21603	3401.8125
2444.99077	3412.1125
2447.76377	3404.5125
2450.53501	3401.1125
2453.30451	3400.1125
2456.07226	3393.1125
2458.83827	3396.5125
2461.60254	3383.4125
2464.36507	3382.7125
2467.12586	3384.3125
2469.88492	3390.5125
2472.64224	3392.1125
2475.39782	3375.8125
2478.15167	3373.1125
2480.90379	3387.9125
2483.65417	3375.9125
2486.40283	3383.7125
2489.14976	3382.6125
2491.89497	3392.3125
2494.63845	3386.8125
2497.3802	3372.8125
2500.12024	3372.0125
2502.85855	3356.1125
2505.59514	3380.3125
2508.33002	3360.3125
2511.06318	3360.3125
2513.79462	3348.8125
2516.52435	3334.0125
2519.25237	3319.2125
2521.97867	3315.1125
2524.70327	3305.2125
2527.42616	3312.5125
2530.14734	3312.7125
2532.86681	3305.2125
2535.58458	3320.5125
2538.30065	3308.1125
2541.01501	3296.7125
2543.72768	3317.2125
2546.43864	3305.0125
2549.14791	3286.7125
2551.85548	3298.4125
2554.56136	3287.4125
2557.26554	3293.6125
2559.96803	3292.9125
2562.66883	3277.2125
2565.36794	3270.9125
2568.06536	3268.8125
2570.7611	3256.2125
2573.45514	3248.8125
2576.14751	3253.2125
2578.83819	3227.4125
2581.52719	3226.3125
2584.21451	3210.2125
2586.90015	3209.9125
2589.58411	3205.8125
2592.2664	3200.6125
2594.94701	3195.9125
2597.62594	3195.4125
2600.30321	3190.6125
2602.9788	3183.7125
2605.65273	3178.3125
2608.32498	3179.9125
2610.99557	3187.3125
2613.66449	3179.4125
2616.33175	3187.8125
2618.99734	3170.8125
2621.66128	3179.7125
2624.32355	3167.1125
2626.98416	3151.3125
2629.64311	3144.9125
2632.30041	3134.5125
2634.95605	3126.8125
2637.61004	3126.6125
2640.26238	3111.8125
2642.91306	3115.8125
2645.56209	3114.0125
2648.20948	3118.4125
2650.85521	3110.9125
2653.4993	3122.1125
2656.14175	3112.8125
2658.78255	3112.7125
2661.42171	3114.0125
2664.05923	3119.3125
2666.6951	3119.4125
2669.32934	3111.1125
2671.96194	3109.4125
2674.59291	3113.4125
2677.22224	3110.1125
2679.84993	3109.1125
2682.476	3097.0125
2685.10043	3098.6125
2687.72324	3103.7125
2690.34441	3114.3125
2692.96396	3095.6125
2695.58188	3093.3125
2698.19818	3100.8125
2700.81285	3097.0125
2703.4259	3093.5125
2706.03733	3092.8125
2708.64714	3101.6125
2711.25533	3099.3125
2713.86191	3075.1125
2716.46687	3091.3125
2719.07021	3102.4125
2721.67194	3086.6125
2724.27206	3103.7125
2726.87057	3098.2125
2729.46747	3079.2125
2732.06276	3102.8125
2734.65644	3081.8125
2737.24852	3080.4125
2739.83899	3087.9125
2742.42786	3074.5125
2745.01513	3075.5125
2747.60079	3066.1125
2750.18486	3060.8125
2752.76733	3064.5125
2755.3482	3061.0125
2757.92747	3055.0125
2760.50515	3042.5125
2763.08123	3025.1125
2765.65573	3019.3125
2768.22863	3010.1125
2770.79994	3001.7125
2773.36967	3009.9125
2775.9378	3011.6125
2778.50435	2998.8125
2781.06932	3001.0125
2783.6327	2993.1125
2786.1945	2995.8125
2788.75471	2987.1125
2791.31335	2996.6125
2793.87041	2983.3125
2796.42589	2974.2125
2798.97979	2976.7125
2801.53212	2981.4125
2804.08288	2969.6125
2806.63206	2963.0125
2809.17967	2958.0125
2811.72571	2942.7125
2814.27018	2945.4125
2816.81308	2934.7125
2819.35442	2949.7125
2821.89419	2940.6125
2824.43239	2917.6125
2826.96904	2915.9125
2829.50412	2913.6125
2832.03763	2909.5125
2834.56959	2900.9125
2837.1	2889.6125
2839.62884	2882.9125
2842.15613	2866.6125
2844.68186	2881.0125
2847.20604	2872.4125
2849.72867	2856.7125
2852.24974	2864.5125
2854.76927	2875.7125
2857.28724	2854.1125
2859.80367	2863.5125
2862.31855	2854.5125
2864.83189	2851.4125
2867.34368	2857.7125
2869.85393	2847.5125
2872.36264	2856.1125
2874.8698	2855.4125
2877.37543	2844.8125
2879.87952	2848.5125
2882.38207	2845.3125
2884.88308	2839.5125
2887.38256	2833.4125
2889.88051	2822.1125
2892.37692	2812.5125
2894.8718	2805.3125
2897.36515	2815.0125
2899.85698	2809.5125
2902.34727	2817.9125
2904.83604	2814.7125
2907.32328	2830.0125
2909.809	2818.3125
2912.29319	2829.2125
2914.77587	2821.1125
2917.25702	2830.3125
2919.73665	2830.6125
2922.21476	2817.6125
2924.69136	2819.6125
2927.16644	2810.3125
2929.64	2809.4125
2932.11205	2805.2125
2934.58258	2794.0125
2937.05161	2805.0125
2939.51912	2799.4125
2941.98513	2796.1125
2944.44962	2776.9125
2946.91261	2778.5125
2949.37409	2775.7125
2951.83407	2788.3125
2954.29254	2781.8125
2956.74951	2773.9125
2959.20498	2777.4125
2961.65895	2757.0125
2964.11142	2763.0125
2966.56239	2749.4125
2969.01186	2751.6125
2971.45984	2759.2125
2973.90632	2750.2125
2976.35131	2751.0125
2978.7948	2743.7125
2981.23681	2739.5125
2983.67732	2728.2125
2986.11635	2733.6125
2988.55388	2738.4125
2990.98993	2717.4125
2993.4245	2708.3125
2995.85758	2711.0125
2998.28917	2705.9125
3000.71928	2716.3125
3003.14791	2692.0125
3005.57506	2689.5125
3008.00073	2674.4125
3010.42493	2674.8125
3012.84764	2671.9125
3015.26888	2669.1125
3017.68865	2663.6125
3020.10694	2649.9125
3022.52376	2636.1125
3024.9391	2635.0125
3027.35298	2621.7125
3029.76539	2623.1125
3032.17632	2617.1125
3034.5858	2612.5125
3036.9938	2604.0125
3039.40034	2599.0125
3041.80542	2600.4125
3044.20903	2595.2125
3046.61118	2583.1125
3049.01187	2576.5125
3051.4111	2582.0125
3053.80888	2583.1125
3056.20519	2566.7125
3058.60005	2563.7125
3060.99345	2567.0125
3063.3854	2554.3125
3065.7759	2555.9125
3068.16494	2545.1125
3070.55254	2525.6125
3072.93868	2522.1125
3075.32338	2526.3125
3077.70662	2529.2125
3080.08842	2521.1125
3082.46878	2510.1125
3084.84769	2499.6125
3087.22515	2494.5125
3089.60118	2488.1125
3091.97576	2495.2125
3094.3489	2484.7125
3096.72061	2492.5125
3099.09087	2485.0125
3101.4597	2476.6125
3103.82709	2485.5125
3106.19305	2472.1125
3108.55757	2477.9125
3110.92066	2463.9125
3113.28232	2464.0125
3115.64255	2453.7125
3118.00134	2450.1125
3120.35871	2443.7125
3122.71466	2439.3125
3125.06917	2430.3125
3127.42226	2428.4125
3129.77393	2423.4125
3132.12417	2427.3125
3134.47299	2423.9125
3136.82039	2421.6125
3139.16636	2428.1125
3141.51092	2417.7125
3143.85406	2407.2125
3146.19579	2405.1125
3148.53609	2409.3125
3150.87499	2407.7125
3153.21246	2407.8125
3155.54853	2417.8125
3157.88318	2419.9125
3160.21642	2411.3125
3162.54826	2405.6125
3164.87868	2416.5125
3167.2077	2406.7125
3169.5353	2407.5125
3171.86151	2389.2125
3174.18631	2388.9125
3176.5097	2394.8125
3178.83169	2383.5125
3181.15228	2394.8125
3183.47147	2373.7125
3185.78926	2371.3125
3188.10565	2356.2125
3190.42065	2356.8125
3192.73424	2358.9125
3195.04645	2353.8125
3197.35725	2345.7125
3199.66667	2351.0125
3201.97469	2348.8125
3204.28132	2337.6125
3206.58656	2350.1125
3208.8904	2344.2125
3211.19287	2347.9125
3213.49394	2346.8125
3215.79363	2346.3125
3218.09193	2342.2125
3220.38884	2346.9125
3222.68438	2348.3125
3224.97853	2343.2125
3227.2713	2340.7125
3229.56269	2334.7125
3231.8527	2326.7125
3234.14133	2331.9125
3236.42858	2318.8125
3238.71446	2308.1125
3240.99896	2295.7125
3243.28209	2304.8125
3245.56384	2303.1125
3247.84423	2303.2125
3250.12324	2294.1125
3252.40088	2287.5125
3254.67715	2284.0125
3256.95205	2274.1125
3259.22558	2284.8125
3261.49775	2287.1125
3263.76855	2290.0125
3266.03799	2271.1125
3268.30606	2275.6125
3270.57277	2275.6125
3272.83812	2254.8125
3275.10211	2268.3125
3277.36474	2244.8125
3279.62601	2254.1125
3281.88593	2241.0125
3284.14448	2242.8125
3286.40168	2239.1125
3288.65753	2238.1125
3290.91202	2230.6125
3293.16516	2236.2125
3295.41695	2235.1125
3297.66738	2224.5125
3299.91647	2214.9125
3302.16421	2178.7125
3304.4106	2172.7125
3306.65564	2175.1125
3308.89933	2149.6125
3311.14169	2132.7125
3313.38269	2112.3125
3315.62236	2105.3125
3317.86068	2093.0125
3320.09766	2072.5125
3322.3333	2049.9125
3324.5676	2046.1125
3326.80056	2006.8125
3329.03219	1995.4125
3331.26248	0.3125
3333.49143	0.5125
3335.71905	-0.8875
