Data from AgNPs_UA_50uM_CRN_500uM_SU_RamanShift__26__14-00-10-318.txt Node

Date: Thu Aug 04 14:00:10 BST 2022
User: TCL
Spectrometer: QEP01345
Trigger mode: 4
Integration Time (sec): 1.000000E0
Scans to average: 10
Electric dark correction enabled: true
Nonlinearity correction enabled: false
Boxcar width: 0
XAxis mode: Raman Shifts
Number of Pixels in Spectrum: 1044
>>>>>Begin Spectral Data<<<<<
46.04893	0.1375
50.45542	-0.3625
54.85868	-0.1625
59.25871	-0.9625
63.6555	14.9375
68.04907	12.0375
72.43941	14.0375
76.82654	16.3375
81.21044	16.4375
85.59113	17.4375
89.96862	18.1375
94.34289	18.0375
98.71396	17.8375
103.08183	18.6375
107.4465	19.0375
111.80798	19.9375
116.16626	19.0375
120.52136	23.5375
124.87327	23.5375
129.222	26.2375
133.56755	29.6375
137.90993	30.3375
142.24913	29.1375
146.58517	36.7375
150.91804	42.9375
155.24774	48.1375
159.57429	65.1375
163.89768	82.7375
168.21792	109.3375
172.53501	152.6375
176.84895	213.9375
181.15975	299.4375
185.46741	423.6375
189.77193	590.3375
194.07331	801.4375
198.37157	1033.1375
202.6667	1277.8375
206.9587	1542.5375
211.24758	1782.8375
215.53334	2047.4375
219.81599	2336.9375
224.09553	2645.6375
228.37195	3024.1375
232.64527	3385.8375
236.91549	3755.3375
241.18261	4073.1375
245.44663	4302.3375
249.70755	4481.4375
253.96539	4617.0375
258.22014	4737.4375
262.4718	4838.5375
266.72039	4905.2375
270.96589	4928.7375
275.20832	4861.2375
279.44768	4780.8375
283.68397	4706.7375
287.91719	4656.9375
292.14735	4656.6375
296.37445	4797.1375
300.59849	4968.7375
304.81948	5237.4375
309.03742	5485.5375
313.25231	5644.8375
317.46415	5592.4375
321.67296	5333.5375
325.87872	5019.7375
330.08145	4855.2375
334.28114	4858.7375
338.47781	4913.1375
342.67145	5014.7375
346.86207	5189.2375
351.04966	5439.9375
355.23424	5701.9375
359.4158	5859.5375
363.59435	5911.5375
367.76989	5883.9375
371.94243	5826.9375
376.11196	5747.7375
380.27849	5709.0375
384.44203	5697.6375
388.60257	5669.7375
392.76012	5693.2375
396.91468	5784.2375
401.06626	5889.4375
405.21485	5919.3375
409.36047	5778.3375
413.50311	5540.6375
417.64277	5307.5375
421.77947	5178.2375
425.9132	5134.3375
430.04396	5132.7375
434.17176	5176.2375
438.2966	5231.8375
442.41849	5310.4375
446.53742	5431.1375
450.6534	5516.1375
454.76644	5563.9375
458.87653	5585.8375
462.98368	5563.8375
467.08789	5513.8375
471.18916	5423.0375
475.2875	5307.6375
479.38291	5218.8375
483.4754	5123.1375
487.56496	5104.0375
491.6516	5091.4375
495.73531	5080.8375
499.81612	5113.7375
503.89401	5143.4375
507.96899	5195.9375
512.04106	5248.3375
516.11023	5318.7375
520.1765	5355.5375
524.23987	5390.4375
528.30034	5377.8375
532.35792	5340.2375
536.41261	5297.3375
540.46441	5208.5375
544.51333	5173.8375
548.55936	5207.5375
552.60252	5284.1375
556.64279	5393.7375
560.6802	5463.2375
564.71473	5536.8375
568.7464	5668.1375
572.7752	5645.6375
576.80114	5450.8375
580.82422	5304.0375
584.84444	5237.3375
588.86181	5231.1375
592.87633	5256.2375
596.888	5356.7375
600.89682	5666.7375
604.9028	6383.9375
608.90594	8005.4375
612.90624	9732.6375
616.90371	8937.4375
620.89834	6585.4375
624.89015	5611.7375
628.87913	5468.2375
632.86528	5600.6375
636.84862	5710.3375
640.82913	5596.4375
644.80683	5361.3375
648.78172	5210.2375
652.75379	5225.3375
656.72306	5422.7375
660.68952	5608.8375
664.65319	5515.3375
668.61405	5333.2375
672.57211	5295.8375
676.52738	5315.0375
680.47986	5244.4375
684.42955	5146.3375
688.37646	5114.3375
692.32058	5144.5375
696.26192	5223.8375
700.20048	5318.2375
704.13626	5339.6375
708.06928	5308.8375
711.99952	5265.5375
715.927	5265.3375
719.85171	5290.0375
723.77365	5305.5375
727.69284	5274.8375
731.60928	5224.7375
735.52295	5212.3375
739.43388	5219.5375
743.34206	5265.2375
747.24749	5251.8375
751.15017	5264.3375
755.05012	5339.5375
758.94733	5590.5375
762.8418	6246.4375
766.73354	7190.0375
770.62254	7937.5375
774.50882	7997.7375
778.39237	7587.8375
782.27321	6849.4375
786.15132	6097.8375
790.02671	5610.4375
793.89938	5366.2375
797.76935	5261.3375
801.6366	5211.7375
805.50115	5167.9375
809.36299	5170.0375
813.22213	5146.8375
817.07857	5130.6375
820.93231	5137.3375
824.78336	5154.3375
828.63172	5175.7375
832.47738	5192.7375
836.32036	5155.0375
840.16066	5144.5375
843.99827	5126.2375
847.8332	5106.4375
851.66546	5117.0375
855.49504	5150.5375
859.32195	5143.7375
863.1462	5143.5375
866.96777	5129.0375
870.78668	5148.0375
874.60293	5151.0375
878.41652	5164.2375
882.22745	5222.8375
886.03573	5241.2375
889.84136	5227.4375
893.64433	5224.6375
897.44466	5229.6375
901.24235	5197.8375
905.0374	5165.6375
908.8298	5167.0375
912.61957	5129.1375
916.40671	5120.0375
920.19121	5177.3375
923.97308	5216.1375
927.75233	5259.2375
931.52895	5314.7375
935.30295	5261.9375
939.07433	5139.2375
942.84309	5076.5375
946.60924	5027.2375
950.37278	5027.2375
954.13371	5022.6375
957.89203	5008.2375
961.64774	5009.6375
965.40086	5006.6375
969.15137	5007.0375
972.89929	4978.2375
976.64461	4972.8375
980.38733	4994.1375
984.12747	4997.0375
987.86502	5013.4375
991.59999	5070.9375
995.33237	5070.2375
999.06217	5143.3375
1002.78939	5208.0375
1006.51404	5341.5375
1010.23611	5436.7375
1013.95561	5483.7375
1017.67255	5479.7375
1021.38692	5419.5375
1025.09872	5345.5375
1028.80796	5267.4375
1032.51465	5245.7375
1036.21877	5257.4375
1039.92035	5284.4375
1043.61937	5307.9375
1047.31584	5348.3375
1051.00976	5349.6375
1054.70114	5354.8375
1058.38998	5339.7375
1062.07627	5367.4375
1065.76003	5413.4375
1069.44126	5470.9375
1073.11995	5585.4375
1076.79611	5716.2375
1080.46974	5821.4375
1084.14085	5929.2375
1087.80943	6012.1375
1091.47549	6031.7375
1095.13903	5998.2375
1098.80005	5901.6375
1102.45857	5826.5375
1106.11456	5758.3375
1109.76805	5705.6375
1113.41903	5752.0375
1117.06751	5854.0375
1120.71348	6054.2375
1124.35696	6277.4375
1127.99793	6441.8375
1131.63641	6322.4375
1135.2724	6061.0375
1138.90589	5864.9375
1142.5369	5766.6375
1146.16542	5714.4375
1149.79145	5678.5375
1153.415	5605.5375
1157.03607	5573.4375
1160.65467	5610.2375
1164.27079	5720.9375
1167.88443	5899.5375
1171.49561	6207.6375
1175.10432	6716.3375
1178.71056	7385.6375
1182.31434	7933.9375
1185.91565	8076.2375
1189.51451	7925.5375
1193.11091	7679.9375
1196.70485	7434.8375
1200.29634	7265.0375
1203.88538	7066.3375
1207.47197	6771.8375
1211.05612	6474.6375
1214.63782	6284.6375
1218.21708	6116.8375
1221.79391	5983.5375
1225.36829	5918.9375
1228.94024	5882.1375
1232.50976	5880.0375
1236.07685	5902.9375
1239.6415	5923.2375
1243.20374	5940.4375
1246.76355	5969.5375
1250.32093	6036.6375
1253.8759	6185.8375
1257.42845	6349.9375
1260.97859	6538.0375
1264.52631	6708.5375
1268.07163	6831.4375
1271.61453	6900.9375
1275.15503	6935.1375
1278.69312	6913.6375
1282.22882	6932.3375
1285.76211	7054.6375
1289.29301	7236.5375
1292.82151	7407.2375
1296.34761	7579.4375
1299.87133	7836.3375
1303.39266	8351.1375
1306.9116	9125.7375
1310.42815	9938.7375
1313.94233	10164.7375
1317.45412	9619.1375
1320.96354	8852.5375
1324.47058	8194.0375
1327.97525	7660.2375
1331.47754	7336.8375
1334.97747	7298.5375
1338.47502	7389.5375
1341.97022	7693.7375
1345.46305	8207.7375
1348.95352	8963.8375
1352.44163	9829.2375
1355.92738	10758.4375
1359.41078	11981.8375
1362.89183	12995.8375
1366.37053	12461.0375
1369.84688	10501.2375
1373.32088	8657.1375
1376.79254	7635.6375
1380.26186	7161.7375
1383.72883	6870.3375
1387.19347	6635.8375
1390.65578	6389.7375
1394.11575	6182.2375
1397.57339	6048.7375
1401.0287	5958.7375
1404.48168	5903.2375
1407.93234	5908.8375
1411.38068	5962.9375
1414.82669	6041.9375
1418.27039	6072.6375
1421.71177	6039.2375
1425.15083	5984.4375
1428.58758	5926.9375
1432.02203	5958.7375
1435.45416	6017.5375
1438.88399	6051.1375
1442.31151	6064.6375
1445.73673	6118.7375
1449.15965	6158.2375
1452.58027	6127.0375
1455.9986	6074.9375
1459.41463	6042.3375
1462.82837	6110.5375
1466.23982	6232.7375
1469.64898	6385.9375
1473.05586	6498.9375
1476.46045	6553.8375
1479.86276	6599.3375
1483.26279	6718.6375
1486.66054	6875.7375
1490.05602	7113.6375
1493.44922	7494.9375
1496.84016	8110.7375
1500.22882	9033.2375
1503.61521	10242.9375
1506.99934	11436.6375
1510.38121	12164.0375
1513.76081	11956.9375
1517.13816	10882.6375
1520.51324	9451.3375
1523.88607	8312.1375
1527.25665	7653.1375
1530.62498	7326.2375
1533.99105	7150.4375
1537.35488	7068.3375
1540.71647	7007.5375
1544.07581	6935.4375
1547.4329	6845.2375
1550.78776	6751.6375
1554.14038	6696.0375
1557.49077	6694.2375
1560.83892	6786.6375
1564.18484	6979.8375
1567.52853	7247.4375
1570.86999	7491.3375
1574.20922	7542.3375
1577.54624	7437.3375
1580.88103	7034.9375
1584.2136	6578.5375
1587.54395	6287.9375
1590.87208	6253.7375
1594.19801	6424.5375
1597.52172	6689.4375
1600.84321	6793.4375
1604.16251	6730.9375
1607.47959	6597.7375
1610.79447	6383.6375
1614.10715	6108.1375
1617.41763	5820.3375
1620.7259	5609.6375
1624.03199	5479.4375
1627.33587	5448.0375
1630.63757	5513.9375
1633.93707	5686.6375
1637.23439	5991.7375
1640.52951	6518.5375
1643.82246	7308.7375
1647.11321	8176.1375
1650.40179	8728.1375
1653.68819	8438.4375
1656.97241	7496.7375
1660.25446	6454.5375
1663.53433	5733.0375
1666.81203	5302.2375
1670.08756	5064.3375
1673.36092	4886.3375
1676.63211	4793.7375
1679.90115	4741.7375
1683.16801	4683.3375
1686.43272	4640.6375
1689.69527	4593.7375
1692.95567	4573.2375
1696.2139	4547.9375
1699.46999	4535.7375
1702.72392	4534.5375
1705.97571	4542.4375
1709.22535	4548.7375
1712.47284	4524.3375
1715.71819	4540.1375
1718.96139	4530.0375
1722.20246	4513.8375
1725.44139	4509.4375
1728.67818	4479.2375
1731.91284	4444.4375
1735.14537	4414.4375
1738.37576	4399.6375
1741.60403	4394.9375
1744.83017	4364.1375
1748.05418	4363.9375
1751.27607	4350.4375
1754.49584	4338.6375
1757.71349	4329.3375
1760.92903	4330.4375
1764.14244	4326.2375
1767.35375	4312.3375
1770.56294	4306.6375
1773.77002	4280.8375
1776.97499	4271.6375
1780.17785	4256.9375
1783.37861	4263.2375
1786.57727	4231.7375
1789.77382	4225.0375
1792.96828	4219.2375
1796.16064	4214.2375
1799.3509	4218.8375
1802.53907	4192.5375
1805.72514	4201.1375
1808.90913	4180.7375
1812.09102	4156.3375
1815.27083	4163.0375
1818.44856	4144.1375
1821.6242	4136.6375
1824.79776	4126.3375
1827.96924	4111.2375
1831.13864	4085.8375
1834.30597	4095.3375
1837.47122	4091.2375
1840.6344	4086.6375
1843.7955	4081.9375
1846.95454	4084.5375
1850.11151	4087.3375
1853.26642	4071.9375
1856.41926	4066.4375
1859.57004	4081.2375
1862.71876	4066.2375
1865.86542	4059.0375
1869.01003	4063.3375
1872.15258	4058.0375
1875.29308	4050.8375
1878.43152	4051.4375
1881.56792	4045.4375
1884.70227	4026.0375
1887.83457	4017.9375
1890.96482	4023.6375
1894.09304	4014.9375
1897.21921	4002.3375
1900.34335	3998.8375
1903.46544	3979.0375
1906.58551	3977.5375
1909.70353	3969.9375
1912.81953	3962.4375
1915.93349	3958.4375
1919.04543	3960.3375
1922.15534	3960.7375
1925.26322	3949.1375
1928.36908	3943.2375
1931.47292	3915.9375
1934.57473	3919.4375
1937.67453	3913.3375
1940.77232	3892.2375
1943.86808	3866.8375
1946.96184	3873.9375
1950.05358	3859.7375
1953.14331	3832.2375
1956.23103	3830.5375
1959.31675	3823.7375
1962.40046	3808.5375
1965.48217	3808.1375
1968.56188	3792.0375
1971.63959	3789.8375
1974.7153	3789.7375
1977.78901	3762.2375
1980.86073	3762.7375
1983.93046	3738.5375
1986.99819	3732.9375
1990.06394	3721.1375
1993.1277	3692.1375
1996.18947	3686.2375
1999.24925	3670.2375
2002.30706	3664.4375
2005.36288	3639.4375
2008.41672	3632.9375
2011.46859	3617.1375
2014.51848	3626.1375
2017.56639	3603.0375
2020.61233	3587.7375
2023.6563	3577.5375
2026.6983	3562.0375
2029.73833	3550.9375
2032.7764	3545.9375
2035.8125	3532.7375
2038.84664	3533.6375
2041.87881	3530.6375
2044.90903	3513.9375
2047.93729	3506.8375
2050.96359	3516.2375
2053.98794	3491.3375
2057.01034	3492.0375
2060.03078	3488.7375
2063.04927	3489.7375
2066.06582	3498.5375
2069.08042	3479.5375
2072.09307	3473.1375
2075.10378	3460.0375
2078.11255	3472.3375
2081.11938	3472.2375
2084.12426	3464.0375
2087.12722	3463.7375
2090.12824	3463.5375
2093.12732	3472.0375
2096.12447	3464.7375
2099.11969	3466.3375
2102.11299	3469.2375
2105.10435	3473.1375
2108.09379	3458.3375
2111.08131	3455.6375
2114.0669	3446.7375
2117.05057	3459.8375
2120.03233	3463.3375
2123.01216	3458.4375
2125.99008	3467.4375
2128.96609	3472.3375
2131.94018	3473.8375
2134.91236	3471.1375
2137.88263	3468.7375
2140.851	3472.2375
2143.81746	3462.1375
2146.78201	3475.3375
2149.74466	3468.8375
2152.7054	3449.2375
2155.66425	3478.2375
2158.6212	3460.8375
2161.57625	3445.1375
2164.52941	3452.6375
2167.48067	3464.6375
2170.43004	3438.9375
2173.37752	3447.6375
2176.32311	3442.8375
2179.26681	3450.1375
2182.20863	3447.9375
2185.14856	3449.2375
2188.08661	3443.1375
2191.02278	3441.5375
2193.95707	3440.7375
2196.88948	3427.5375
2199.82001	3434.5375
2202.74867	3426.0375
2205.67545	3426.6375
2208.60037	3417.9375
2211.52341	3419.3375
2214.44458	3416.2375
2217.36388	3398.1375
2220.28132	3386.1375
2223.1969	3366.6375
2226.11061	3362.2375
2229.02246	3349.5375
2231.93245	3354.1375
2234.84058	3348.4375
2237.74686	3343.3375
2240.65128	3346.3375
2243.55385	3344.3375
2246.45456	3335.1375
2249.35343	3327.7375
2252.25044	3332.4375
2255.14561	3316.4375
2258.03893	3318.8375
2260.93041	3309.1375
2263.82004	3301.0375
2266.70783	3305.3375
2269.59378	3315.2375
2272.4779	3289.2375
2275.36017	3269.0375
2278.24061	3269.2375
2281.11922	3258.2375
2283.996	3251.7375
2286.87094	3253.2375
2289.74405	3251.7375
2292.61534	3244.6375
2295.4848	3238.3375
2298.35243	3235.2375
2301.21824	3233.8375
2304.08223	3226.3375
2306.94439	3219.0375
2309.80474	3224.9375
2312.66327	3208.6375
2315.51999	3210.9375
2318.37489	3218.2375
2321.22797	3199.5375
2324.07925	3194.5375
2326.92871	3190.8375
2329.77637	3182.5375
2332.62222	3165.3375
2335.46626	3167.0375
2338.3085	3158.8375
2341.14893	3160.7375
2343.98756	3173.6375
2346.8244	3155.0375
2349.65943	3158.7375
2352.49267	3136.1375
2355.32411	3154.8375
2358.15376	3153.0375
2360.98161	3163.7375
2363.80768	3161.1375
2366.63195	3162.2375
2369.45444	3149.9375
2372.27514	3161.5375
2375.09405	3143.7375
2377.91118	3140.6375
2380.72652	3126.8375
2383.54009	3125.7375
2386.35187	3108.0375
2389.16188	3117.1375
2391.97011	3092.7375
2394.77657	3089.4375
2397.58125	3078.3375
2400.38416	3062.9375
2403.18529	3058.6375
2405.98466	3063.9375
2408.78226	3056.8375
2411.57809	3037.0375
2414.37216	3045.2375
2417.16446	3029.8375
2419.955	3036.2375
2422.74378	3053.9375
2425.5308	3034.5375
2428.31606	3026.9375
2431.09956	3030.3375
2433.88131	3035.3375
2436.6613	3034.4375
2439.43954	3022.8375
2442.21603	3011.1375
2444.99077	3019.2375
2447.76377	3019.0375
2450.53501	3017.8375
2453.30451	3021.5375
2456.07226	3017.2375
2458.83827	3016.6375
2461.60254	3002.5375
2464.36507	3005.8375
2467.12586	3001.5375
2469.88492	2982.2375
2472.64224	2991.8375
2475.39782	3002.7375
2478.15167	2989.5375
2480.90379	2984.9375
2483.65417	2997.7375
2486.40283	2995.5375
2489.14976	3003.5375
2491.89497	3006.7375
2494.63845	3009.2375
2497.3802	2992.4375
2500.12024	2980.1375
2502.85855	2988.2375
2505.59514	2973.2375
2508.33002	2968.2375
2511.06318	2956.6375
2513.79462	2963.1375
2516.52435	2939.9375
2519.25237	2935.2375
2521.97867	2928.4375
2524.70327	2917.9375
2527.42616	2922.3375
2530.14734	2914.2375
2532.86681	2905.0375
2535.58458	2913.7375
2538.30065	2925.4375
2541.01501	2915.6375
2543.72768	2903.6375
2546.43864	2893.7375
2549.14791	2881.6375
2551.85548	2894.3375
2554.56136	2904.8375
2557.26554	2890.7375
2559.96803	2875.8375
2562.66883	2862.8375
2565.36794	2864.8375
2568.06536	2860.5375
2570.7611	2854.6375
2573.45514	2849.1375
2576.14751	2852.4375
2578.83819	2828.2375
2581.52719	2813.9375
2584.21451	2824.3375
2586.90015	2810.0375
2589.58411	2806.0375
2592.2664	2799.8375
2594.94701	2808.8375
2597.62594	2793.8375
2600.30321	2796.2375
2602.9788	2790.2375
2605.65273	2781.7375
2608.32498	2779.5375
2610.99557	2780.7375
2613.66449	2783.5375
2616.33175	2771.2375
2618.99734	2775.2375
2621.66128	2756.2375
2624.32355	2762.6375
2626.98416	2749.1375
2629.64311	2738.6375
2632.30041	2743.3375
2634.95605	2731.6375
2637.61004	2715.4375
2640.26238	2710.8375
2642.91306	2707.8375
2645.56209	2722.2375
2648.20948	2715.5375
2650.85521	2713.1375
2653.4993	2712.2375
2656.14175	2706.3375
2658.78255	2712.3375
2661.42171	2716.4375
2664.05923	2716.8375
2666.6951	2710.7375
2669.32934	2703.7375
2671.96194	2699.5375
2674.59291	2704.7375
2677.22224	2702.6375
2679.84993	2712.1375
2682.476	2700.5375
2685.10043	2700.4375
2687.72324	2696.5375
2690.34441	2698.5375
2692.96396	2694.2375
2695.58188	2692.2375
2698.19818	2690.5375
2700.81285	2698.9375
2703.4259	2699.3375
2706.03733	2687.7375
2708.64714	2696.8375
2711.25533	2684.6375
2713.86191	2690.0375
2716.46687	2683.2375
2719.07021	2695.7375
2721.67194	2684.1375
2724.27206	2694.2375
2726.87057	2684.0375
2729.46747	2685.5375
2732.06276	2685.9375
2734.65644	2680.9375
2737.24852	2675.4375
2739.83899	2660.7375
2742.42786	2665.4375
2745.01513	2664.9375
2747.60079	2662.3375
2750.18486	2662.5375
2752.76733	2654.1375
2755.3482	2640.1375
2757.92747	2648.2375
2760.50515	2624.4375
2763.08123	2635.1375
2765.65573	2615.5375
2768.22863	2615.7375
2770.79994	2600.5375
2773.36967	2611.5375
2775.9378	2608.8375
2778.50435	2606.3375
2781.06932	2602.1375
2783.6327	2607.3375
2786.1945	2600.4375
2788.75471	2590.4375
2791.31335	2584.9375
2793.87041	2590.4375
2796.42589	2580.7375
2798.97979	2577.5375
2801.53212	2579.0375
2804.08288	2575.7375
2806.63206	2563.8375
2809.17967	2551.4375
2811.72571	2551.0375
2814.27018	2548.7375
2816.81308	2531.8375
2819.35442	2544.6375
2821.89419	2542.5375
2824.43239	2523.6375
2826.96904	2514.9375
2829.50412	2525.4375
2832.03763	2506.3375
2834.56959	2505.9375
2837.1	2507.2375
2839.62884	2496.7375
2842.15613	2480.2375
2844.68186	2481.4375
2847.20604	2484.4375
2849.72867	2477.6375
2852.24974	2484.4375
2854.76927	2472.7375
2857.28724	2476.1375
2859.80367	2466.3375
2862.31855	2470.9375
2864.83189	2475.6375
2867.34368	2469.5375
2869.85393	2460.9375
2872.36264	2459.3375
2874.8698	2460.0375
2877.37543	2457.1375
2879.87952	2460.1375
2882.38207	2447.4375
2884.88308	2446.0375
2887.38256	2441.5375
2889.88051	2437.3375
2892.37692	2426.5375
2894.8718	2431.7375
2897.36515	2435.3375
2899.85698	2435.4375
2902.34727	2440.9375
2904.83604	2423.9375
2907.32328	2428.0375
2909.809	2443.1375
2912.29319	2446.1375
2914.77587	2444.3375
2917.25702	2452.6375
2919.73665	2450.3375
2922.21476	2442.2375
2924.69136	2439.4375
2927.16644	2421.8375
2929.64	2418.4375
2932.11205	2424.4375
2934.58258	2410.0375
2937.05161	2411.5375
2939.51912	2421.8375
2941.98513	2402.2375
2944.44962	2398.4375
2946.91261	2394.6375
2949.37409	2392.9375
2951.83407	2397.8375
2954.29254	2401.0375
2956.74951	2399.6375
2959.20498	2387.3375
2961.65895	2374.2375
2964.11142	2375.8375
2966.56239	2366.0375
2969.01186	2364.4375
2971.45984	2367.6375
2973.90632	2377.4375
2976.35131	2378.5375
2978.7948	2363.1375
2981.23681	2358.6375
2983.67732	2365.5375
2986.11635	2346.3375
2988.55388	2348.0375
2990.98993	2339.5375
2993.4245	2331.5375
2995.85758	2322.9375
2998.28917	2333.4375
3000.71928	2325.6375
3003.14791	2321.8375
3005.57506	2310.7375
3008.00073	2300.7375
3010.42493	2304.2375
3012.84764	2311.6375
3015.26888	2296.1375
3017.68865	2280.0375
3020.10694	2287.4375
3022.52376	2280.8375
3024.9391	2259.9375
3027.35298	2260.7375
3029.76539	2253.4375
3032.17632	2252.5375
3034.5858	2237.0375
3036.9938	2239.3375
3039.40034	2245.0375
3041.80542	2228.5375
3044.20903	2227.5375
3046.61118	2216.3375
3049.01187	2217.2375
3051.4111	2218.4375
3053.80888	2206.1375
3056.20519	2210.3375
3058.60005	2200.5375
3060.99345	2207.2375
3063.3854	2192.0375
3065.7759	2192.7375
3068.16494	2177.1375
3070.55254	2172.2375
3072.93868	2174.4375
3075.32338	2163.7375
3077.70662	2160.2375
3080.08842	2162.9375
3082.46878	2139.4375
3084.84769	2141.0375
3087.22515	2139.2375
3089.60118	2146.5375
3091.97576	2131.1375
3094.3489	2140.3375
3096.72061	2143.4375
3099.09087	2133.2375
3101.4597	2136.6375
3103.82709	2130.2375
3106.19305	2121.6375
3108.55757	2115.5375
3110.92066	2112.7375
3113.28232	2122.0375
3115.64255	2117.9375
3118.00134	2110.3375
3120.35871	2091.1375
3122.71466	2095.6375
3125.06917	2076.4375
3127.42226	2078.4375
3129.77393	2085.8375
3132.12417	2078.7375
3134.47299	2074.9375
3136.82039	2085.2375
3139.16636	2079.1375
3141.51092	2067.3375
3143.85406	2066.6375
3146.19579	2059.7375
3148.53609	2053.7375
3150.87499	2070.1375
3153.21246	2074.1375
3155.54853	2071.2375
3157.88318	2070.5375
3160.21642	2062.1375
3162.54826	2071.8375
3164.87868	2071.4375
3167.2077	2064.1375
3169.5353	2053.4375
3171.86151	2050.9375
3174.18631	2038.0375
3176.5097	2050.0375
3178.83169	2047.6375
3181.15228	2046.4375
3183.47147	2033.2375
3185.78926	2042.7375
3188.10565	2020.1375
3190.42065	2023.7375
3192.73424	2015.1375
3195.04645	2011.9375
3197.35725	2016.1375
3199.66667	2006.9375
3201.97469	2009.6375
3204.28132	2008.8375
3206.58656	2007.5375
3208.8904	2013.4375
3211.19287	2006.2375
3213.49394	2011.9375
3215.79363	2008.8375
3218.09193	2002.8375
3220.38884	2007.2375
3222.68438	2008.1375
3224.97853	2011.5375
3227.2713	1993.9375
3229.56269	1993.0375
3231.8527	1987.3375
3234.14133	1985.2375
3236.42858	1980.5375
3238.71446	1976.7375
3240.99896	1973.2375
3243.28209	1963.1375
3245.56384	1951.5375
3247.84423	1967.2375
3250.12324	1954.8375
3252.40088	1955.7375
3254.67715	1951.1375
3256.95205	1946.4375
3259.22558	1950.6375
3261.49775	1954.1375
3263.76855	1952.8375
3266.03799	1941.2375
3268.30606	1947.9375
3270.57277	1943.3375
3272.83812	1931.9375
3275.10211	1922.5375
3277.36474	1922.2375
3279.62601	1923.5375
3281.88593	1919.3375
3284.14448	1916.4375
3286.40168	1917.9375
3288.65753	1917.4375
3290.91202	1916.5375
3293.16516	1906.0375
3295.41695	1904.9375
3297.66738	1897.7375
3299.91647	1884.3375
3302.16421	1870.0375
3304.4106	1858.4375
3306.65564	1858.7375
3308.89933	1838.8375
3311.14169	1818.1375
3313.38269	1795.2375
3315.62236	1794.7375
3317.86068	1776.6375
3320.09766	1771.4375
3322.3333	1756.9375
3324.5676	1742.9375
3326.80056	1710.8375
3329.03219	1703.8375
3331.26248	-0.0625
3333.49143	0.9375
3335.71905	0.4375
