Data from AgNPs_UA_5uM_CRN_500uM_SU_RamanShift__117__11-48-53-162.txt Node

Date: Thu Aug 04 11:48:53 BST 2022
User: TCL
Spectrometer: QEP01345
Trigger mode: 4
Integration Time (sec): 1.000000E0
Scans to average: 10
Electric dark correction enabled: true
Nonlinearity correction enabled: false
Boxcar width: 0
XAxis mode: Raman Shifts
Number of Pixels in Spectrum: 1044
>>>>>Begin Spectral Data<<<<<
46.04893	-0.8125
50.45542	0.1875
54.85868	0.2875
59.25871	-0.6125
63.6555	-58.5125
68.04907	-40.4125
72.43941	-73.2125
76.82654	-58.4125
81.21044	-58.5125
85.59113	-49.6125
89.96862	-75.7125
94.34289	-56.9125
98.71396	-78.5125
103.08183	-59.8125
107.4465	-51.0125
111.80798	-60.0125
116.16626	-46.6125
120.52136	-76.4125
124.87327	-51.0125
129.222	-66.7125
133.56755	-51.7125
137.90993	-66.7125
142.24913	-54.9125
146.58517	-49.3125
150.91804	-48.1125
155.24774	-39.0125
159.57429	-19.5125
163.89768	-19.1125
168.21792	20.6875
172.53501	35.3875
176.84895	106.9875
181.15975	219.1875
185.46741	344.4875
189.77193	494.2875
194.07331	745.9875
198.37157	992.3875
202.6667	1226.8875
206.9587	1502.0875
211.24758	1764.5875
215.53334	2042.5875
219.81599	2333.6875
224.09553	2662.8875
228.37195	3030.2875
232.64527	3413.5875
236.91549	3832.3875
241.18261	4192.2875
245.44663	4506.5875
249.70755	4693.1875
253.96539	4863.8875
258.22014	4976.1875
262.4718	5019.4875
266.72039	5030.1875
270.96589	4989.4875
275.20832	4905.2875
279.44768	4808.7875
283.68397	4702.0875
287.91719	4638.3875
292.14735	4626.4875
296.37445	4686.1875
300.59849	4833.3875
304.81948	4994.7875
309.03742	5172.3875
313.25231	5276.0875
317.46415	5270.4875
321.67296	5024.7875
325.87872	4832.9875
330.08145	4772.0875
334.28114	4737.1875
338.47781	4804.3875
342.67145	4901.0875
346.86207	5048.9875
351.04966	5258.3875
355.23424	5468.5875
359.4158	5623.0875
363.59435	5660.1875
367.76989	5668.5875
371.94243	5658.3875
376.11196	5612.0875
380.27849	5623.7875
384.44203	5609.5875
388.60257	5607.4875
392.76012	5636.7875
396.91468	5718.9875
401.06626	5828.1875
405.21485	5873.1875
409.36047	5785.9875
413.50311	5641.9875
417.64277	5494.3875
421.77947	5387.9875
425.9132	5364.0875
430.04396	5378.7875
434.17176	5411.6875
438.2966	5505.6875
442.41849	5585.7875
446.53742	5695.7875
450.6534	5766.6875
454.76644	5831.6875
458.87653	5879.5875
462.98368	5889.6875
467.08789	5863.5875
471.18916	5851.8875
475.2875	5791.7875
479.38291	5726.3875
483.4754	5644.1875
487.56496	5607.2875
491.6516	5545.2875
495.73531	5553.8875
499.81612	5548.4875
503.89401	5618.5875
507.96899	5646.1875
512.04106	5689.2875
516.11023	5766.7875
520.1765	5809.3875
524.23987	5855.2875
528.30034	5884.5875
532.35792	5832.6875
536.41261	5816.2875
540.46441	5763.2875
544.51333	5740.2875
548.55936	5776.0875
552.60252	5875.5875
556.64279	5944.3875
560.6802	6019.2875
564.71473	6078.0875
568.7464	6142.1875
572.7752	6120.9875
576.80114	5951.1875
580.82422	5855.7875
584.84444	5810.1875
588.86181	5803.4875
592.87633	5839.1875
596.888	5915.7875
600.89682	6151.2875
604.9028	6732.0875
608.90594	7900.7875
612.90624	9140.3875
616.90371	8617.4875
620.89834	6954.8875
624.89015	6268.3875
628.87913	6155.8875
632.86528	6236.0875
636.84862	6357.6875
640.82913	6301.7875
644.80683	6137.1875
648.78172	6083.2875
652.75379	6051.0875
656.72306	6191.5875
660.68952	6317.7875
664.65319	6264.6875
668.61405	6161.0875
672.57211	6134.0875
676.52738	6164.7875
680.47986	6115.9875
684.42955	6060.0875
688.37646	6036.6875
692.32058	6030.0875
696.26192	6074.0875
700.20048	6147.1875
704.13626	6173.6875
708.06928	6152.4875
711.99952	6133.7875
715.927	6080.6875
719.85171	6107.5875
723.77365	6140.4875
727.69284	6119.3875
731.60928	6144.5875
735.52295	6126.3875
739.43388	6162.1875
743.34206	6174.9875
747.24749	6182.0875
751.15017	6192.1875
755.05012	6236.8875
758.94733	6447.7875
762.8418	6872.0875
766.73354	7528.5875
770.62254	8128.6875
774.50882	8196.6875
778.39237	7930.2875
782.27321	7416.1875
786.15132	6889.7875
790.02671	6498.0875
793.89938	6270.8875
797.76935	6226.1875
801.6366	6178.0875
805.50115	6152.8875
809.36299	6168.1875
813.22213	6173.6875
817.07857	6164.1875
820.93231	6165.4875
824.78336	6177.6875
828.63172	6174.4875
832.47738	6176.6875
836.32036	6211.0875
840.16066	6204.8875
843.99827	6207.2875
847.8332	6220.4875
851.66546	6243.4875
855.49504	6240.6875
859.32195	6277.0875
863.1462	6263.5875
866.96777	6277.3875
870.78668	6264.0875
874.60293	6289.8875
878.41652	6302.6875
882.22745	6345.9875
886.03573	6372.4875
889.84136	6357.0875
893.64433	6394.0875
897.44466	6365.9875
901.24235	6346.1875
905.0374	6347.2875
908.8298	6325.9875
912.61957	6297.0875
916.40671	6268.3875
920.19121	6304.8875
923.97308	6389.0875
927.75233	6394.7875
931.52895	6453.9875
935.30295	6426.4875
939.07433	6364.1875
942.84309	6285.2875
946.60924	6273.5875
950.37278	6259.3875
954.13371	6235.7875
957.89203	6234.1875
961.64774	6276.4875
965.40086	6241.8875
969.15137	6204.0875
972.89929	6238.2875
976.64461	6225.1875
980.38733	6270.5875
984.12747	6259.4875
987.86502	6301.0875
991.59999	6318.7875
995.33237	6402.5875
999.06217	6480.3875
1002.78939	6595.6875
1006.51404	6719.5875
1010.23611	6834.5875
1013.95561	6900.3875
1017.67255	6945.7875
1021.38692	6926.8875
1025.09872	6844.3875
1028.80796	6745.4875
1032.51465	6727.6875
1036.21877	6708.9875
1039.92035	6753.6875
1043.61937	6783.5875
1047.31584	6805.6875
1051.00976	6845.9875
1054.70114	6850.3875
1058.38998	6850.6875
1062.07627	6844.1875
1065.76003	6885.0875
1069.44126	6999.3875
1073.11995	7081.7875
1076.79611	7215.6875
1080.46974	7322.9875
1084.14085	7382.0875
1087.80943	7417.6875
1091.47549	7490.8875
1095.13903	7516.1875
1098.80005	7502.1875
1102.45857	7374.8875
1106.11456	7261.8875
1109.76805	7137.8875
1113.41903	7182.7875
1117.06751	7225.2875
1120.71348	7348.8875
1124.35696	7552.3875
1127.99793	7698.6875
1131.63641	7630.2875
1135.2724	7473.1875
1138.90589	7336.4875
1142.5369	7261.9875
1146.16542	7269.2875
1149.79145	7233.7875
1153.415	7156.8875
1157.03607	7075.2875
1160.65467	7095.0875
1164.27079	7195.2875
1167.88443	7343.7875
1171.49561	7570.3875
1175.10432	7887.5875
1178.71056	8373.6875
1182.31434	8844.3875
1185.91565	9052.9875
1189.51451	9082.8875
1193.11091	9032.1875
1196.70485	8979.6875
1200.29634	8904.8875
1203.88538	8837.0875
1207.47197	8624.8875
1211.05612	8412.1875
1214.63782	8256.0875
1218.21708	8067.9875
1221.79391	7892.5875
1225.36829	7729.4875
1228.94024	7655.3875
1232.50976	7663.5875
1236.07685	7667.6875
1239.6415	7700.6875
1243.20374	7738.6875
1246.76355	7793.0875
1250.32093	7875.1875
1253.8759	8001.8875
1257.42845	8218.0875
1260.97859	8383.9875
1264.52631	8523.4875
1268.07163	8587.5875
1271.61453	8627.5875
1275.15503	8633.4875
1278.69312	8628.0875
1282.22882	8708.8875
1285.76211	8784.2875
1289.29301	8880.9875
1292.82151	9032.3875
1296.34761	9195.9875
1299.87133	9480.5875
1303.39266	9863.2875
1306.9116	10480.9875
1310.42815	11056.9875
1313.94233	11295.0875
1317.45412	10944.9875
1320.96354	10424.5875
1324.47058	9947.3875
1327.97525	9558.3875
1331.47754	9342.2875
1334.97747	9296.7875
1338.47502	9431.1875
1341.97022	9723.4875
1345.46305	10221.6875
1348.95352	10858.6875
1352.44163	11562.2875
1355.92738	12158.9875
1359.41078	12853.3875
1362.89183	13385.9875
1366.37053	12809.7875
1369.84688	11247.7875
1373.32088	9860.9875
1376.79254	9114.8875
1380.26186	8748.7875
1383.72883	8525.6875
1387.19347	8301.3875
1390.65578	8126.1875
1394.11575	7990.0875
1397.57339	7891.7875
1401.0287	7823.7875
1404.48168	7797.1875
1407.93234	7828.8875
1411.38068	7874.8875
1414.82669	7919.1875
1418.27039	7934.7875
1421.71177	7910.7875
1425.15083	7863.0875
1428.58758	7795.3875
1432.02203	7821.6875
1435.45416	7887.3875
1438.88399	7939.8875
1442.31151	7989.1875
1445.73673	8064.7875
1449.15965	8151.1875
1452.58027	8166.9875
1455.9986	8154.5875
1459.41463	8167.4875
1462.82837	8255.2875
1466.23982	8400.6875
1469.64898	8545.8875
1473.05586	8639.9875
1476.46045	8689.5875
1479.86276	8683.3875
1483.26279	8700.0875
1486.66054	8774.1875
1490.05602	8880.4875
1493.44922	9147.7875
1496.84016	9630.8875
1500.22882	10359.4875
1503.61521	11240.9875
1506.99934	12068.9875
1510.38121	12575.6875
1513.76081	12431.2875
1517.13816	11638.6875
1520.51324	10603.5875
1523.88607	9801.3875
1527.25665	9325.8875
1530.62498	9089.2875
1533.99105	8990.5875
1537.35488	9009.2875
1540.71647	8974.9875
1544.07581	9006.4875
1547.4329	8974.1875
1550.78776	8860.9875
1554.14038	8691.6875
1557.49077	8567.7875
1560.83892	8540.9875
1564.18484	8601.3875
1567.52853	8744.3875
1570.86999	8863.2875
1574.20922	8899.9875
1577.54624	8866.9875
1580.88103	8596.9875
1584.2136	8268.2875
1587.54395	8140.1875
1590.87208	8171.3875
1594.19801	8303.4875
1597.52172	8610.7875
1600.84321	8812.7875
1604.16251	8826.2875
1607.47959	8751.7875
1610.79447	8584.4875
1614.10715	8251.2875
1617.41763	7936.8875
1620.7259	7668.1875
1624.03199	7505.0875
1627.33587	7438.1875
1630.63757	7454.5875
1633.93707	7637.0875
1637.23439	7927.7875
1640.52951	8407.3875
1643.82246	8986.1875
1647.11321	9634.0875
1650.40179	9895.7875
1653.68819	9586.8875
1656.97241	8794.7875
1660.25446	7964.2875
1663.53433	7408.0875
1666.81203	6997.8875
1670.08756	6803.0875
1673.36092	6690.3875
1676.63211	6583.0875
1679.90115	6502.1875
1683.16801	6456.1875
1686.43272	6366.0875
1689.69527	6337.2875
1692.95567	6264.0875
1696.2139	6263.3875
1699.46999	6214.2875
1702.72392	6187.9875
1705.97571	6208.7875
1709.22535	6200.5875
1712.47284	6230.7875
1715.71819	6209.1875
1718.96139	6228.9875
1722.20246	6210.8875
1725.44139	6183.7875
1728.67818	6184.8875
1731.91284	6133.6875
1735.14537	6135.0875
1738.37576	6107.3875
1741.60403	6094.8875
1744.83017	6065.9875
1748.05418	6075.1875
1751.27607	6081.3875
1754.49584	6051.7875
1757.71349	6015.6875
1760.92903	6044.9875
1764.14244	5989.0875
1767.35375	6001.8875
1770.56294	5993.4875
1773.77002	5968.3875
1776.97499	5985.3875
1780.17785	5956.7875
1783.37861	5963.9875
1786.57727	5973.2875
1789.77382	5905.0875
1792.96828	5934.8875
1796.16064	5953.2875
1799.3509	5930.6875
1802.53907	5940.9875
1805.72514	5899.0875
1808.90913	5890.5875
1812.09102	5891.4875
1815.27083	5882.3875
1818.44856	5858.2875
1821.6242	5857.5875
1824.79776	5852.3875
1827.96924	5837.3875
1831.13864	5812.9875
1834.30597	5803.7875
1837.47122	5799.3875
1840.6344	5790.3875
1843.7955	5778.2875
1846.95454	5767.1875
1850.11151	5792.4875
1853.26642	5746.5875
1856.41926	5764.0875
1859.57004	5774.5875
1862.71876	5745.5875
1865.86542	5762.8875
1869.01003	5733.0875
1872.15258	5720.3875
1875.29308	5749.1875
1878.43152	5739.4875
1881.56792	5714.2875
1884.70227	5689.9875
1887.83457	5693.3875
1890.96482	5679.4875
1894.09304	5679.3875
1897.21921	5687.9875
1900.34335	5678.1875
1903.46544	5642.6875
1906.58551	5669.1875
1909.70353	5677.2875
1912.81953	5643.6875
1915.93349	5635.6875
1919.04543	5644.6875
1922.15534	5619.7875
1925.26322	5629.0875
1928.36908	5608.0875
1931.47292	5623.4875
1934.57473	5606.7875
1937.67453	5567.9875
1940.77232	5548.3875
1943.86808	5551.9875
1946.96184	5537.9875
1950.05358	5499.8875
1953.14331	5486.7875
1956.23103	5509.3875
1959.31675	5471.8875
1962.40046	5419.7875
1965.48217	5445.3875
1968.56188	5431.0875
1971.63959	5420.9875
1974.7153	5420.4875
1977.78901	5378.7875
1980.86073	5364.8875
1983.93046	5309.5875
1986.99819	5265.8875
1990.06394	5280.5875
1993.1277	5298.2875
1996.18947	5289.7875
1999.24925	5256.0875
2002.30706	5249.5875
2005.36288	5237.8875
2008.41672	5217.5875
2011.46859	5190.2875
2014.51848	5180.4875
2017.56639	5168.0875
2020.61233	5143.7875
2023.6563	5136.9875
2026.6983	5088.3875
2029.73833	5096.9875
2032.7764	5104.2875
2035.8125	5060.0875
2038.84664	5064.7875
2041.87881	5042.0875
2044.90903	5053.7875
2047.93729	5055.6875
2050.96359	5016.3875
2053.98794	5026.2875
2057.01034	5029.9875
2060.03078	5021.6875
2063.04927	4995.0875
2066.06582	5018.4875
2069.08042	4998.2875
2072.09307	4988.6875
2075.10378	4981.8875
2078.11255	4985.0875
2081.11938	5001.5875
2084.12426	4968.4875
2087.12722	4978.6875
2090.12824	4971.9875
2093.12732	4975.9875
2096.12447	4978.6875
2099.11969	4973.7875
2102.11299	4955.5875
2105.10435	5002.8875
2108.09379	4968.8875
2111.08131	4971.9875
2114.0669	4975.8875
2117.05057	4969.4875
2120.03233	4964.9875
2123.01216	4994.9875
2125.99008	4994.2875
2128.96609	4990.4875
2131.94018	5010.8875
2134.91236	4996.3875
2137.88263	4975.7875
2140.851	4997.9875
2143.81746	5016.7875
2146.78201	5015.4875
2149.74466	5000.8875
2152.7054	5019.0875
2155.66425	4988.3875
2158.6212	4992.4875
2161.57625	4945.6875
2164.52941	4957.7875
2167.48067	4970.7875
2170.43004	4968.1875
2173.37752	4977.2875
2176.32311	4968.3875
2179.26681	4974.6875
2182.20863	4990.8875
2185.14856	4961.6875
2188.08661	4978.0875
2191.02278	4967.3875
2193.95707	4950.8875
2196.88948	4940.4875
2199.82001	4958.6875
2202.74867	4934.1875
2205.67545	4959.5875
2208.60037	4941.1875
2211.52341	4923.7875
2214.44458	4918.7875
2217.36388	4903.5875
2220.28132	4876.8875
2223.1969	4859.1875
2226.11061	4861.8875
2229.02246	4855.0875
2231.93245	4859.3875
2234.84058	4827.4875
2237.74686	4828.7875
2240.65128	4824.7875
2243.55385	4815.4875
2246.45456	4796.2875
2249.35343	4817.4875
2252.25044	4793.3875
2255.14561	4799.3875
2258.03893	4778.8875
2260.93041	4764.4875
2263.82004	4763.7875
2266.70783	4762.4875
2269.59378	4733.9875
2272.4779	4705.9875
2275.36017	4726.1875
2278.24061	4708.0875
2281.11922	4663.4875
2283.996	4679.0875
2286.87094	4670.7875
2289.74405	4672.9875
2292.61534	4678.7875
2295.4848	4662.6875
2298.35243	4660.2875
2301.21824	4641.8875
2304.08223	4635.1875
2306.94439	4646.6875
2309.80474	4648.8875
2312.66327	4637.4875
2315.51999	4617.9875
2318.37489	4619.1875
2321.22797	4606.7875
2324.07925	4591.0875
2326.92871	4590.8875
2329.77637	4564.1875
2332.62222	4569.1875
2335.46626	4538.5875
2338.3085	4528.7875
2341.14893	4559.3875
2343.98756	4571.8875
2346.8244	4540.8875
2349.65943	4533.5875
2352.49267	4537.8875
2355.32411	4528.5875
2358.15376	4542.1875
2360.98161	4531.5875
2363.80768	4516.8875
2366.63195	4512.5875
2369.45444	4526.4875
2372.27514	4499.4875
2375.09405	4512.9875
2377.91118	4472.8875
2380.72652	4481.0875
2383.54009	4470.5875
2386.35187	4477.6875
2389.16188	4456.9875
2391.97011	4448.9875
2394.77657	4435.4875
2397.58125	4432.0875
2400.38416	4428.0875
2403.18529	4417.9875
2405.98466	4413.5875
2408.78226	4404.9875
2411.57809	4397.8875
2414.37216	4385.4875
2417.16446	4382.5875
2419.955	4345.0875
2422.74378	4374.9875
2425.5308	4347.9875
2428.31606	4358.3875
2431.09956	4352.4875
2433.88131	4338.6875
2436.6613	4363.3875
2439.43954	4349.7875
2442.21603	4323.7875
2444.99077	4332.8875
2447.76377	4337.4875
2450.53501	4325.6875
2453.30451	4307.0875
2456.07226	4315.2875
2458.83827	4302.3875
2461.60254	4253.5875
2464.36507	4288.3875
2467.12586	4268.8875
2469.88492	4289.3875
2472.64224	4280.7875
2475.39782	4249.1875
2478.15167	4278.1875
2480.90379	4253.3875
2483.65417	4264.7875
2486.40283	4267.0875
2489.14976	4286.0875
2491.89497	4258.3875
2494.63845	4258.8875
2497.3802	4244.4875
2500.12024	4232.3875
2502.85855	4242.0875
2505.59514	4238.2875
2508.33002	4214.6875
2511.06318	4187.6875
2513.79462	4205.8875
2516.52435	4181.3875
2519.25237	4165.9875
2521.97867	4177.6875
2524.70327	4181.2875
2527.42616	4168.5875
2530.14734	4192.5875
2532.86681	4168.3875
2535.58458	4161.7875
2538.30065	4153.6875
2541.01501	4161.2875
2543.72768	4141.2875
2546.43864	4137.4875
2549.14791	4130.6875
2551.85548	4115.5875
2554.56136	4121.0875
2557.26554	4117.6875
2559.96803	4108.2875
2562.66883	4098.3875
2565.36794	4083.6875
2568.06536	4058.4875
2570.7611	4072.4875
2573.45514	4051.5875
2576.14751	4044.9875
2578.83819	4032.1875
2581.52719	4018.0875
2584.21451	4011.8875
2586.90015	4004.8875
2589.58411	3977.7875
2592.2664	3986.0875
2594.94701	3983.0875
2597.62594	3992.9875
2600.30321	3913.1875
2602.9788	3942.1875
2605.65273	3949.6875
2608.32498	3949.3875
2610.99557	3951.4875
2613.66449	3918.7875
2616.33175	3944.5875
2618.99734	3934.8875
2621.66128	3936.9875
2624.32355	3926.8875
2626.98416	3894.6875
2629.64311	3903.2875
2632.30041	3884.7875
2634.95605	3872.3875
2637.61004	3867.6875
2640.26238	3848.0875
2642.91306	3835.3875
2645.56209	3863.6875
2648.20948	3852.2875
2650.85521	3838.4875
2653.4993	3873.6875
2656.14175	3846.8875
2658.78255	3844.0875
2661.42171	3812.9875
2664.05923	3851.1875
2666.6951	3852.2875
2669.32934	3860.6875
2671.96194	3860.1875
2674.59291	3843.6875
2677.22224	3856.3875
2679.84993	3846.6875
2682.476	3830.7875
2685.10043	3830.2875
2687.72324	3809.4875
2690.34441	3810.3875
2692.96396	3815.4875
2695.58188	3827.6875
2698.19818	3825.8875
2700.81285	3835.6875
2703.4259	3803.7875
2706.03733	3785.6875
2708.64714	3778.6875
2711.25533	3793.4875
2713.86191	3806.8875
2716.46687	3810.9875
2719.07021	3793.4875
2721.67194	3788.4875
2724.27206	3815.8875
2726.87057	3785.8875
2729.46747	3775.4875
2732.06276	3796.9875
2734.65644	3784.6875
2737.24852	3787.0875
2739.83899	3753.3875
2742.42786	3767.8875
2745.01513	3767.7875
2747.60079	3749.3875
2750.18486	3740.7875
2752.76733	3735.6875
2755.3482	3728.9875
2757.92747	3733.1875
2760.50515	3724.7875
2763.08123	3712.6875
2765.65573	3716.7875
2768.22863	3706.0875
2770.79994	3693.0875
2773.36967	3672.9875
2775.9378	3674.7875
2778.50435	3671.3875
2781.06932	3659.7875
2783.6327	3650.1875
2786.1945	3671.6875
2788.75471	3657.4875
2791.31335	3651.7875
2793.87041	3650.9875
2796.42589	3630.0875
2798.97979	3614.0875
2801.53212	3612.6875
2804.08288	3617.5875
2806.63206	3594.3875
2809.17967	3595.7875
2811.72571	3586.2875
2814.27018	3585.7875
2816.81308	3563.7875
2819.35442	3526.2875
2821.89419	3550.6875
2824.43239	3533.1875
2826.96904	3551.4875
2829.50412	3538.3875
2832.03763	3531.6875
2834.56959	3537.3875
2837.1	3508.4875
2839.62884	3518.2875
2842.15613	3507.7875
2844.68186	3513.0875
2847.20604	3480.6875
2849.72867	3490.3875
2852.24974	3478.6875
2854.76927	3449.2875
2857.28724	3398.4875
2859.80367	3450.8875
2862.31855	3456.8875
2864.83189	3440.3875
2867.34368	3446.3875
2869.85393	3453.3875
2872.36264	3420.0875
2874.8698	3424.7875
2877.37543	3429.8875
2879.87952	3424.3875
2882.38207	3399.2875
2884.88308	3404.4875
2887.38256	3417.3875
2889.88051	3418.3875
2892.37692	3397.3875
2894.8718	3389.1875
2897.36515	3413.6875
2899.85698	3402.5875
2902.34727	3386.7875
2904.83604	3410.8875
2907.32328	3411.0875
2909.809	3395.1875
2912.29319	3406.0875
2914.77587	3399.2875
2917.25702	3409.3875
2919.73665	3404.3875
2922.21476	3409.2875
2924.69136	3411.7875
2927.16644	3406.9875
2929.64	3400.9875
2932.11205	3383.2875
2934.58258	3381.0875
2937.05161	3369.2875
2939.51912	3383.4875
2941.98513	3395.0875
2944.44962	3374.7875
2946.91261	3340.6875
2949.37409	3358.6875
2951.83407	3346.2875
2954.29254	3350.8875
2956.74951	3349.2875
2959.20498	3332.8875
2961.65895	3318.9875
2964.11142	3316.0875
2966.56239	3317.5875
2969.01186	3325.1875
2971.45984	3326.2875
2973.90632	3299.9875
2976.35131	3313.6875
2978.7948	3307.8875
2981.23681	3283.0875
2983.67732	3295.5875
2986.11635	3277.5875
2988.55388	3258.5875
2990.98993	3259.0875
2993.4245	3240.8875
2995.85758	3226.7875
2998.28917	3218.3875
3000.71928	3223.4875
3003.14791	3218.9875
3005.57506	3202.5875
3008.00073	3183.4875
3010.42493	3134.9875
3012.84764	3172.6875
3015.26888	3168.7875
3017.68865	3164.4875
3020.10694	3114.8875
3022.52376	3132.3875
3024.9391	3120.2875
3027.35298	3122.0875
3029.76539	3090.3875
3032.17632	3105.3875
3034.5858	3091.5875
3036.9938	3111.5875
3039.40034	3101.9875
3041.80542	3077.7875
3044.20903	3070.0875
3046.61118	3053.5875
3049.01187	3079.2875
3051.4111	3053.9875
3053.80888	3049.3875
3056.20519	3039.0875
3058.60005	3009.9875
3060.99345	3036.3875
3063.3854	3009.4875
3065.7759	3000.3875
3068.16494	2989.8875
3070.55254	2985.4875
3072.93868	2983.6875
3075.32338	2973.7875
3077.70662	2962.0875
3080.08842	2951.5875
3082.46878	2934.8875
3084.84769	2965.6875
3087.22515	2948.3875
3089.60118	2944.9875
3091.97576	2932.3875
3094.3489	2940.5875
3096.72061	2944.5875
3099.09087	2921.2875
3101.4597	2938.4875
3103.82709	2924.2875
3106.19305	2892.8875
3108.55757	2916.6875
3110.92066	2894.9875
3113.28232	2907.3875
3115.64255	2902.3875
3118.00134	2895.2875
3120.35871	2876.8875
3122.71466	2873.1875
3125.06917	2856.4875
3127.42226	2855.7875
3129.77393	2834.3875
3132.12417	2843.1875
3134.47299	2855.1875
3136.82039	2828.7875
3139.16636	2812.7875
3141.51092	2822.5875
3143.85406	2819.9875
3146.19579	2807.8875
3148.53609	2807.4875
3150.87499	2815.4875
3153.21246	2795.0875
3155.54853	2808.9875
3157.88318	2806.6875
3160.21642	2814.7875
3162.54826	2807.1875
3164.87868	2803.7875
3167.2077	2773.6875
3169.5353	2781.6875
3171.86151	2786.9875
3174.18631	2771.5875
3176.5097	2777.9875
3178.83169	2769.5875
3181.15228	2774.1875
3183.47147	2741.8875
3185.78926	2732.7875
3188.10565	2746.1875
3190.42065	2725.3875
3192.73424	2735.9875
3195.04645	2729.0875
3197.35725	2712.1875
3199.66667	2712.2875
3201.97469	2710.8875
3204.28132	2696.7875
3206.58656	2704.6875
3208.8904	2720.2875
3211.19287	2706.0875
3213.49394	2697.5875
3215.79363	2679.4875
3218.09193	2708.0875
3220.38884	2689.2875
3222.68438	2702.4875
3224.97853	2671.1875
3227.2713	2706.5875
3229.56269	2678.0875
3231.8527	2677.0875
3234.14133	2669.0875
3236.42858	2658.1875
3238.71446	2634.5875
3240.99896	2645.1875
3243.28209	2629.2875
3245.56384	2642.3875
3247.84423	2622.4875
3250.12324	2640.3875
3252.40088	2622.0875
3254.67715	2614.1875
3256.95205	2600.6875
3259.22558	2622.7875
3261.49775	2608.2875
3263.76855	2610.2875
3266.03799	2618.3875
3268.30606	2606.7875
3270.57277	2596.3875
3272.83812	2573.5875
3275.10211	2576.3875
3277.36474	2588.6875
3279.62601	2575.2875
3281.88593	2554.7875
3284.14448	2534.9875
3286.40168	2552.2875
3288.65753	2537.9875
3290.91202	2543.1875
3293.16516	2533.1875
3295.41695	2543.5875
3297.66738	2538.9875
3299.91647	2503.7875
3302.16421	2501.9875
3304.4106	2444.3875
3306.65564	2464.6875
3308.89933	2429.2875
3311.14169	2422.9875
3313.38269	2416.2875
3315.62236	2393.5875
3317.86068	2375.3875
3320.09766	2362.8875
3322.3333	2333.1875
3324.5676	2313.9875
3326.80056	2283.3875
3329.03219	2270.7875
3331.26248	-0.9125
3333.49143	-0.0125
3335.71905	1.0875
