Data from AgNPs_UA_50uM_CRN_500uM_SU_RamanShift__32__14-01-10-320.txt Node

Date: Thu Aug 04 14:01:10 BST 2022
User: TCL
Spectrometer: QEP01345
Trigger mode: 4
Integration Time (sec): 1.000000E0
Scans to average: 10
Electric dark correction enabled: true
Nonlinearity correction enabled: false
Boxcar width: 0
XAxis mode: Raman Shifts
Number of Pixels in Spectrum: 1044
>>>>>Begin Spectral Data<<<<<
46.04893	0.7875
50.45542	0.0875
54.85868	-0.4125
59.25871	-0.7125
63.6555	13.5875
68.04907	12.8875
72.43941	15.4875
76.82654	16.7875
81.21044	14.1875
85.59113	17.5875
89.96862	16.6875
94.34289	18.5875
98.71396	19.1875
103.08183	19.2875
107.4465	16.9875
111.80798	19.5875
116.16626	20.2875
120.52136	20.7875
124.87327	23.5875
129.222	24.6875
133.56755	26.7875
137.90993	28.8875
142.24913	29.4875
146.58517	33.1875
150.91804	39.0875
155.24774	49.5875
159.57429	61.3875
163.89768	79.6875
168.21792	103.1875
172.53501	144.7875
176.84895	205.4875
181.15975	287.3875
185.46741	401.0875
189.77193	566.9875
194.07331	763.6875
198.37157	994.9875
202.6667	1223.4875
206.9587	1468.1875
211.24758	1713.7875
215.53334	1941.5875
219.81599	2206.7875
224.09553	2504.8875
228.37195	2841.0875
232.64527	3178.5875
236.91549	3526.7875
241.18261	3836.2875
245.44663	4065.3875
249.70755	4262.7875
253.96539	4414.3875
258.22014	4561.0875
262.4718	4670.3875
266.72039	4733.2875
270.96589	4778.2875
275.20832	4744.1875
279.44768	4659.3875
283.68397	4587.5875
287.91719	4524.6875
292.14735	4534.4875
296.37445	4612.6875
300.59849	4765.2875
304.81948	4965.8875
309.03742	5154.3875
313.25231	5292.0875
317.46415	5213.6875
321.67296	5017.8875
325.87872	4762.5875
330.08145	4641.8875
334.28114	4633.4875
338.47781	4691.9875
342.67145	4807.1875
346.86207	4956.5875
351.04966	5156.5875
355.23424	5371.1875
359.4158	5527.1875
363.59435	5584.3875
367.76989	5587.3875
371.94243	5564.4875
376.11196	5519.6875
380.27849	5483.8875
384.44203	5468.1875
388.60257	5472.5875
392.76012	5507.8875
396.91468	5571.1875
401.06626	5659.0875
405.21485	5689.3875
409.36047	5611.6875
413.50311	5390.0875
417.64277	5223.5875
421.77947	5114.8875
425.9132	5075.1875
430.04396	5074.2875
434.17176	5110.6875
438.2966	5161.6875
442.41849	5244.1875
446.53742	5338.2875
450.6534	5443.6875
454.76644	5482.5875
458.87653	5505.2875
462.98368	5499.2875
467.08789	5457.6875
471.18916	5396.3875
475.2875	5307.6875
479.38291	5196.3875
483.4754	5149.1875
487.56496	5116.4875
491.6516	5097.7875
495.73531	5101.7875
499.81612	5130.2875
503.89401	5156.8875
507.96899	5222.7875
512.04106	5243.5875
516.11023	5300.3875
520.1765	5359.9875
524.23987	5351.3875
528.30034	5351.8875
532.35792	5329.4875
536.41261	5285.7875
540.46441	5224.4875
544.51333	5205.8875
548.55936	5229.8875
552.60252	5302.2875
556.64279	5388.5875
560.6802	5433.5875
564.71473	5507.2875
568.7464	5625.1875
572.7752	5598.1875
576.80114	5443.1875
580.82422	5297.1875
584.84444	5262.1875
588.86181	5266.0875
592.87633	5295.4875
596.888	5386.5875
600.89682	5634.1875
604.9028	6260.9875
608.90594	7636.0875
612.90624	9052.0875
616.90371	8379.1875
620.89834	6431.8875
624.89015	5614.1875
628.87913	5506.5875
632.86528	5633.1875
636.84862	5722.1875
640.82913	5605.4875
644.80683	5417.9875
648.78172	5308.4875
652.75379	5311.4875
656.72306	5465.5875
660.68952	5650.4875
664.65319	5588.8875
668.61405	5448.4875
672.57211	5466.4875
676.52738	5465.9875
680.47986	5383.8875
684.42955	5303.2875
688.37646	5270.8875
692.32058	5304.8875
696.26192	5377.3875
700.20048	5465.9875
704.13626	5467.8875
708.06928	5415.8875
711.99952	5410.8875
715.927	5413.6875
719.85171	5427.4875
723.77365	5464.8875
727.69284	5434.9875
731.60928	5383.3875
735.52295	5368.0875
739.43388	5377.8875
743.34206	5399.0875
747.24749	5403.0875
751.15017	5406.8875
755.05012	5481.9875
758.94733	5687.5875
762.8418	6196.0875
766.73354	7000.6875
770.62254	7623.1875
774.50882	7724.2875
778.39237	7384.8875
782.27321	6784.5875
786.15132	6178.5875
790.02671	5749.9875
793.89938	5522.7875
797.76935	5431.5875
801.6366	5404.3875
805.50115	5368.4875
809.36299	5346.6875
813.22213	5345.0875
817.07857	5355.5875
820.93231	5347.0875
824.78336	5361.7875
828.63172	5394.4875
832.47738	5382.7875
836.32036	5370.4875
840.16066	5361.9875
843.99827	5330.0875
847.8332	5334.3875
851.66546	5357.2875
855.49504	5364.3875
859.32195	5365.8875
863.1462	5370.9875
866.96777	5361.1875
870.78668	5375.4875
874.60293	5374.6875
878.41652	5406.2875
882.22745	5451.4875
886.03573	5482.6875
889.84136	5463.4875
893.64433	5454.9875
897.44466	5440.3875
901.24235	5428.0875
905.0374	5406.5875
908.8298	5397.7875
912.61957	5371.4875
916.40671	5383.0875
920.19121	5409.8875
923.97308	5434.3875
927.75233	5500.1875
931.52895	5507.7875
935.30295	5475.4875
939.07433	5388.6875
942.84309	5329.8875
946.60924	5285.6875
950.37278	5300.8875
954.13371	5270.5875
957.89203	5273.0875
961.64774	5268.4875
965.40086	5262.7875
969.15137	5257.0875
972.89929	5256.0875
976.64461	5262.1875
980.38733	5262.7875
984.12747	5282.6875
987.86502	5280.3875
991.59999	5301.8875
995.33237	5343.0875
999.06217	5396.9875
1002.78939	5467.2875
1006.51404	5538.0875
1010.23611	5642.1875
1013.95561	5657.5875
1017.67255	5666.3875
1021.38692	5642.0875
1025.09872	5586.8875
1028.80796	5508.7875
1032.51465	5482.1875
1036.21877	5516.6875
1039.92035	5533.6875
1043.61937	5546.0875
1047.31584	5580.0875
1051.00976	5588.4875
1054.70114	5593.2875
1058.38998	5605.1875
1062.07627	5649.8875
1065.76003	5651.8875
1069.44126	5735.7875
1073.11995	5826.8875
1076.79611	5919.4875
1080.46974	6018.4875
1084.14085	6097.9875
1087.80943	6175.4875
1091.47549	6189.8875
1095.13903	6175.4875
1098.80005	6108.0875
1102.45857	6096.1875
1106.11456	6027.3875
1109.76805	5962.7875
1113.41903	5998.8875
1117.06751	6088.2875
1120.71348	6243.0875
1124.35696	6417.5875
1127.99793	6538.6875
1131.63641	6440.6875
1135.2724	6232.0875
1138.90589	6058.4875
1142.5369	5951.9875
1146.16542	5918.2875
1149.79145	5885.0875
1153.415	5819.5875
1157.03607	5795.5875
1160.65467	5804.9875
1164.27079	5920.3875
1167.88443	6076.6875
1171.49561	6348.0875
1175.10432	6763.4875
1178.71056	7343.0875
1182.31434	7827.3875
1185.91565	7939.3875
1189.51451	7801.1875
1193.11091	7621.5875
1196.70485	7413.1875
1200.29634	7253.0875
1203.88538	7093.3875
1207.47197	6828.9875
1211.05612	6606.5875
1214.63782	6423.1875
1218.21708	6273.3875
1221.79391	6166.5875
1225.36829	6100.5875
1228.94024	6077.0875
1232.50976	6080.7875
1236.07685	6087.4875
1239.6415	6111.6875
1243.20374	6148.1875
1246.76355	6173.2875
1250.32093	6216.9875
1253.8759	6321.3875
1257.42845	6491.0875
1260.97859	6656.5875
1264.52631	6783.8875
1268.07163	6933.9875
1271.61453	6956.4875
1275.15503	6995.0875
1278.69312	6963.0875
1282.22882	6963.4875
1285.76211	7065.1875
1289.29301	7204.8875
1292.82151	7326.7875
1296.34761	7493.1875
1299.87133	7746.9875
1303.39266	8147.3875
1306.9116	8796.2875
1310.42815	9488.7875
1313.94233	9679.0875
1317.45412	9216.5875
1320.96354	8615.7875
1324.47058	8070.2875
1327.97525	7633.4875
1331.47754	7354.2875
1334.97747	7291.3875
1338.47502	7361.5875
1341.97022	7645.8875
1345.46305	8086.3875
1348.95352	8722.5875
1352.44163	9447.7875
1355.92738	10205.2875
1359.41078	11201.4875
1362.89183	11989.3875
1366.37053	11538.8875
1369.84688	9911.4875
1373.32088	8394.3875
1376.79254	7543.7875
1380.26186	7120.6875
1383.72883	6902.8875
1387.19347	6675.7875
1390.65578	6462.7875
1394.11575	6279.3875
1397.57339	6150.7875
1401.0287	6079.4875
1404.48168	6065.9875
1407.93234	6065.0875
1411.38068	6107.0875
1414.82669	6183.3875
1418.27039	6200.8875
1421.71177	6190.1875
1425.15083	6134.1875
1428.58758	6100.8875
1432.02203	6108.6875
1435.45416	6133.9875
1438.88399	6194.2875
1442.31151	6185.7875
1445.73673	6213.7875
1449.15965	6243.3875
1452.58027	6217.3875
1455.9986	6177.4875
1459.41463	6158.2875
1462.82837	6212.0875
1466.23982	6322.5875
1469.64898	6457.9875
1473.05586	6551.8875
1476.46045	6597.7875
1479.86276	6650.6875
1483.26279	6732.8875
1486.66054	6896.0875
1490.05602	7073.3875
1493.44922	7407.7875
1496.84016	7931.0875
1500.22882	8702.1875
1503.61521	9705.3875
1506.99934	10697.2875
1510.38121	11242.1875
1513.76081	11063.2875
1517.13816	10166.5875
1520.51324	9006.5875
1523.88607	8037.6875
1527.25665	7499.9875
1530.62498	7224.2875
1533.99105	7072.9875
1537.35488	7003.2875
1540.71647	6940.4875
1544.07581	6891.1875
1547.4329	6820.9875
1550.78776	6756.3875
1554.14038	6688.7875
1557.49077	6719.7875
1560.83892	6777.6875
1564.18484	6952.1875
1567.52853	7177.3875
1570.86999	7365.2875
1574.20922	7425.0875
1577.54624	7319.9875
1580.88103	6996.0875
1584.2136	6615.2875
1587.54395	6380.2875
1590.87208	6351.6875
1594.19801	6512.5875
1597.52172	6720.9875
1600.84321	6820.4875
1604.16251	6752.5875
1607.47959	6625.1875
1610.79447	6470.7875
1614.10715	6203.9875
1617.41763	5968.8875
1620.7259	5801.2875
1624.03199	5688.2875
1627.33587	5657.7875
1630.63757	5707.5875
1633.93707	5847.1875
1637.23439	6121.9875
1640.52951	6570.3875
1643.82246	7255.7875
1647.11321	7986.7875
1650.40179	8434.1875
1653.68819	8150.3875
1656.97241	7332.8875
1660.25446	6476.1875
1663.53433	5887.2875
1666.81203	5504.6875
1670.08756	5307.8875
1673.36092	5184.7875
1676.63211	5097.8875
1679.90115	5044.5875
1683.16801	4995.2875
1686.43272	4946.5875
1689.69527	4921.7875
1692.95567	4899.7875
1696.2139	4886.5875
1699.46999	4855.6875
1702.72392	4862.3875
1705.97571	4860.6875
1709.22535	4844.8875
1712.47284	4866.2875
1715.71819	4856.4875
1718.96139	4844.1875
1722.20246	4835.4875
1725.44139	4844.6875
1728.67818	4800.7875
1731.91284	4759.6875
1735.14537	4766.4875
1738.37576	4737.6875
1741.60403	4721.3875
1744.83017	4708.1875
1748.05418	4695.9875
1751.27607	4687.8875
1754.49584	4692.4875
1757.71349	4681.5875
1760.92903	4659.7875
1764.14244	4663.1875
1767.35375	4662.4875
1770.56294	4661.7875
1773.77002	4639.0875
1776.97499	4616.9875
1780.17785	4603.3875
1783.37861	4596.7875
1786.57727	4571.1875
1789.77382	4581.7875
1792.96828	4572.5875
1796.16064	4557.5875
1799.3509	4569.1875
1802.53907	4543.8875
1805.72514	4525.6875
1808.90913	4531.5875
1812.09102	4527.4875
1815.27083	4502.1875
1818.44856	4500.7875
1821.6242	4481.1875
1824.79776	4479.5875
1827.96924	4464.0875
1831.13864	4444.8875
1834.30597	4446.7875
1837.47122	4418.8875
1840.6344	4435.8875
1843.7955	4441.2875
1846.95454	4447.7875
1850.11151	4433.3875
1853.26642	4424.7875
1856.41926	4417.2875
1859.57004	4431.6875
1862.71876	4423.7875
1865.86542	4411.8875
1869.01003	4406.0875
1872.15258	4419.2875
1875.29308	4409.0875
1878.43152	4405.3875
1881.56792	4393.8875
1884.70227	4389.2875
1887.83457	4368.0875
1890.96482	4373.7875
1894.09304	4351.9875
1897.21921	4362.2875
1900.34335	4343.3875
1903.46544	4331.1875
1906.58551	4321.4875
1909.70353	4326.0875
1912.81953	4312.8875
1915.93349	4301.8875
1919.04543	4301.2875
1922.15534	4293.6875
1925.26322	4267.9875
1928.36908	4297.9875
1931.47292	4286.6875
1934.57473	4255.1875
1937.67453	4259.0875
1940.77232	4240.7875
1943.86808	4235.0875
1946.96184	4209.0875
1950.05358	4195.8875
1953.14331	4185.9875
1956.23103	4177.1875
1959.31675	4157.6875
1962.40046	4158.2875
1965.48217	4140.5875
1968.56188	4123.5875
1971.63959	4123.4875
1974.7153	4124.2875
1977.78901	4094.1875
1980.86073	4092.5875
1983.93046	4068.0875
1986.99819	4056.6875
1990.06394	4049.7875
1993.1277	4029.6875
1996.18947	4010.2875
1999.24925	4006.6875
2002.30706	3973.8875
2005.36288	3973.5875
2008.41672	3949.6875
2011.46859	3954.3875
2014.51848	3952.2875
2017.56639	3946.5875
2020.61233	3930.8875
2023.6563	3915.1875
2026.6983	3887.4875
2029.73833	3868.2875
2032.7764	3859.9875
2035.8125	3866.9875
2038.84664	3847.4875
2041.87881	3841.5875
2044.90903	3819.5875
2047.93729	3814.6875
2050.96359	3820.9875
2053.98794	3801.5875
2057.01034	3817.0875
2060.03078	3818.4875
2063.04927	3804.7875
2066.06582	3809.8875
2069.08042	3803.1875
2072.09307	3777.4875
2075.10378	3772.6875
2078.11255	3773.2875
2081.11938	3776.7875
2084.12426	3785.7875
2087.12722	3790.0875
2090.12824	3782.4875
2093.12732	3785.0875
2096.12447	3791.5875
2099.11969	3788.7875
2102.11299	3796.9875
2105.10435	3776.3875
2108.09379	3783.4875
2111.08131	3778.3875
2114.0669	3776.2875
2117.05057	3784.8875
2120.03233	3772.8875
2123.01216	3778.9875
2125.99008	3790.0875
2128.96609	3788.4875
2131.94018	3784.4875
2134.91236	3777.2875
2137.88263	3779.5875
2140.851	3792.3875
2143.81746	3799.9875
2146.78201	3797.3875
2149.74466	3793.7875
2152.7054	3784.8875
2155.66425	3785.3875
2158.6212	3779.3875
2161.57625	3760.2875
2164.52941	3782.7875
2167.48067	3783.1875
2170.43004	3769.5875
2173.37752	3776.7875
2176.32311	3773.5875
2179.26681	3767.8875
2182.20863	3781.1875
2185.14856	3775.8875
2188.08661	3766.3875
2191.02278	3756.1875
2193.95707	3757.8875
2196.88948	3737.9875
2199.82001	3742.7875
2202.74867	3749.1875
2205.67545	3734.4875
2208.60037	3750.7875
2211.52341	3733.7875
2214.44458	3727.4875
2217.36388	3721.3875
2220.28132	3706.6875
2223.1969	3682.7875
2226.11061	3674.8875
2229.02246	3676.9875
2231.93245	3679.8875
2234.84058	3670.9875
2237.74686	3655.6875
2240.65128	3671.4875
2243.55385	3643.3875
2246.45456	3650.7875
2249.35343	3643.6875
2252.25044	3650.8875
2255.14561	3641.4875
2258.03893	3626.4875
2260.93041	3622.3875
2263.82004	3626.6875
2266.70783	3614.1875
2269.59378	3591.6875
2272.4779	3591.8875
2275.36017	3572.1875
2278.24061	3546.8875
2281.11922	3563.6875
2283.996	3567.8875
2286.87094	3544.4875
2289.74405	3541.1875
2292.61534	3533.9875
2295.4848	3538.2875
2298.35243	3531.0875
2301.21824	3525.7875
2304.08223	3515.7875
2306.94439	3528.3875
2309.80474	3514.6875
2312.66327	3518.6875
2315.51999	3497.3875
2318.37489	3507.4875
2321.22797	3493.6875
2324.07925	3484.7875
2326.92871	3480.8875
2329.77637	3480.5875
2332.62222	3464.2875
2335.46626	3450.3875
2338.3085	3455.0875
2341.14893	3448.0875
2343.98756	3442.8875
2346.8244	3437.0875
2349.65943	3440.9875
2352.49267	3441.9875
2355.32411	3435.6875
2358.15376	3438.7875
2360.98161	3441.8875
2363.80768	3446.4875
2366.63195	3428.1875
2369.45444	3438.1875
2372.27514	3432.5875
2375.09405	3429.9875
2377.91118	3412.4875
2380.72652	3410.0875
2383.54009	3397.1875
2386.35187	3398.1875
2389.16188	3379.6875
2391.97011	3377.3875
2394.77657	3363.1875
2397.58125	3343.7875
2400.38416	3343.8875
2403.18529	3346.5875
2405.98466	3341.5875
2408.78226	3339.8875
2411.57809	3323.6875
2414.37216	3324.5875
2417.16446	3314.6875
2419.955	3315.5875
2422.74378	3314.9875
2425.5308	3316.5875
2428.31606	3303.9875
2431.09956	3294.4875
2433.88131	3303.3875
2436.6613	3298.7875
2439.43954	3288.8875
2442.21603	3297.4875
2444.99077	3283.1875
2447.76377	3278.6875
2450.53501	3279.1875
2453.30451	3288.8875
2456.07226	3284.3875
2458.83827	3281.4875
2461.60254	3274.7875
2464.36507	3264.9875
2467.12586	3258.5875
2469.88492	3252.7875
2472.64224	3250.5875
2475.39782	3256.8875
2478.15167	3243.9875
2480.90379	3248.0875
2483.65417	3240.7875
2486.40283	3252.7875
2489.14976	3253.8875
2491.89497	3260.4875
2494.63845	3247.2875
2497.3802	3244.4875
2500.12024	3227.2875
2502.85855	3227.8875
2505.59514	3221.2875
2508.33002	3226.7875
2511.06318	3201.7875
2513.79462	3205.3875
2516.52435	3182.0875
2519.25237	3182.1875
2521.97867	3173.5875
2524.70327	3162.5875
2527.42616	3167.0875
2530.14734	3169.8875
2532.86681	3156.4875
2535.58458	3168.1875
2538.30065	3158.5875
2541.01501	3144.2875
2543.72768	3149.7875
2546.43864	3147.3875
2549.14791	3123.8875
2551.85548	3130.8875
2554.56136	3130.9875
2557.26554	3128.4875
2559.96803	3117.1875
2562.66883	3112.9875
2565.36794	3091.3875
2568.06536	3090.3875
2570.7611	3096.7875
2573.45514	3080.2875
2576.14751	3085.2875
2578.83819	3065.2875
2581.52719	3040.7875
2584.21451	3057.9875
2586.90015	3047.0875
2589.58411	3043.8875
2592.2664	3039.2875
2594.94701	3042.6875
2597.62594	3022.1875
2600.30321	3040.2875
2602.9788	3027.6875
2605.65273	3014.5875
2608.32498	3014.0875
2610.99557	3018.1875
2613.66449	2994.1875
2616.33175	2997.5875
2618.99734	3000.4875
2621.66128	2991.8875
2624.32355	2982.2875
2626.98416	2972.8875
2629.64311	2954.3875
2632.30041	2957.6875
2634.95605	2944.5875
2637.61004	2942.6875
2640.26238	2936.2875
2642.91306	2935.0875
2645.56209	2936.1875
2648.20948	2934.4875
2650.85521	2925.6875
2653.4993	2927.8875
2656.14175	2926.1875
2658.78255	2928.1875
2661.42171	2931.6875
2664.05923	2926.8875
2666.6951	2936.0875
2669.32934	2933.9875
2671.96194	2926.5875
2674.59291	2916.7875
2677.22224	2922.4875
2679.84993	2930.0875
2682.476	2913.1875
2685.10043	2916.0875
2687.72324	2912.5875
2690.34441	2914.7875
2692.96396	2908.7875
2695.58188	2899.4875
2698.19818	2913.7875
2700.81285	2900.4875
2703.4259	2906.1875
2706.03733	2915.4875
2708.64714	2902.8875
2711.25533	2902.4875
2713.86191	2894.6875
2716.46687	2897.9875
2719.07021	2894.8875
2721.67194	2903.7875
2724.27206	2899.2875
2726.87057	2888.7875
2729.46747	2884.1875
2732.06276	2889.0875
2734.65644	2879.8875
2737.24852	2879.2875
2739.83899	2886.0875
2742.42786	2880.0875
2745.01513	2870.2875
2747.60079	2866.4875
2750.18486	2868.4875
2752.76733	2862.5875
2755.3482	2863.1875
2757.92747	2849.5875
2760.50515	2833.8875
2763.08123	2838.4875
2765.65573	2822.0875
2768.22863	2807.1875
2770.79994	2827.0875
2773.36967	2806.0875
2775.9378	2821.7875
2778.50435	2810.3875
2781.06932	2804.3875
2783.6327	2810.8875
2786.1945	2792.2875
2788.75471	2794.7875
2791.31335	2777.3875
2793.87041	2781.2875
2796.42589	2776.9875
2798.97979	2763.1875
2801.53212	2763.1875
2804.08288	2758.6875
2806.63206	2761.5875
2809.17967	2746.0875
2811.72571	2748.0875
2814.27018	2737.5875
2816.81308	2727.9875
2819.35442	2722.6875
2821.89419	2717.9875
2824.43239	2700.6875
2826.96904	2702.4875
2829.50412	2706.1875
2832.03763	2686.9875
2834.56959	2691.8875
2837.1	2688.0875
2839.62884	2688.7875
2842.15613	2673.5875
2844.68186	2666.0875
2847.20604	2674.7875
2849.72867	2674.4875
2852.24974	2675.3875
2854.76927	2673.6875
2857.28724	2654.4875
2859.80367	2650.3875
2862.31855	2641.3875
2864.83189	2650.3875
2867.34368	2636.9875
2869.85393	2635.5875
2872.36264	2623.1875
2874.8698	2629.4875
2877.37543	2642.9875
2879.87952	2630.9875
2882.38207	2623.4875
2884.88308	2628.0875
2887.38256	2609.3875
2889.88051	2609.2875
2892.37692	2617.7875
2894.8718	2598.3875
2897.36515	2606.7875
2899.85698	2604.4875
2902.34727	2614.6875
2904.83604	2603.8875
2907.32328	2611.1875
2909.809	2602.9875
2912.29319	2623.3875
2914.77587	2610.0875
2917.25702	2630.7875
2919.73665	2614.1875
2922.21476	2621.3875
2924.69136	2597.5875
2927.16644	2597.9875
2929.64	2596.7875
2932.11205	2597.3875
2934.58258	2589.4875
2937.05161	2590.5875
2939.51912	2586.5875
2941.98513	2572.4875
2944.44962	2579.0875
2946.91261	2574.5875
2949.37409	2577.9875
2951.83407	2577.8875
2954.29254	2572.9875
2956.74951	2569.4875
2959.20498	2562.2875
2961.65895	2564.6875
2964.11142	2556.5875
2966.56239	2560.6875
2969.01186	2554.1875
2971.45984	2549.4875
2973.90632	2539.2875
2976.35131	2534.5875
2978.7948	2544.8875
2981.23681	2540.4875
2983.67732	2537.9875
2986.11635	2514.4875
2988.55388	2500.5875
2990.98993	2515.1875
2993.4245	2496.8875
2995.85758	2494.9875
2998.28917	2494.1875
3000.71928	2490.1875
3003.14791	2479.1875
3005.57506	2493.4875
3008.00073	2477.2875
3010.42493	2462.9875
3012.84764	2463.9875
3015.26888	2457.1875
3017.68865	2451.2875
3020.10694	2450.9875
3022.52376	2447.6875
3024.9391	2432.8875
3027.35298	2432.4875
3029.76539	2408.7875
3032.17632	2421.8875
3034.5858	2418.1875
3036.9938	2397.2875
3039.40034	2410.7875
3041.80542	2402.8875
3044.20903	2396.2875
3046.61118	2381.1875
3049.01187	2391.9875
3051.4111	2383.9875
3053.80888	2385.0875
3056.20519	2374.7875
3058.60005	2369.6875
3060.99345	2363.3875
3063.3854	2359.8875
3065.7759	2352.1875
3068.16494	2345.4875
3070.55254	2333.7875
3072.93868	2341.4875
3075.32338	2324.2875
3077.70662	2324.3875
3080.08842	2314.4875
3082.46878	2314.4875
3084.84769	2298.8875
3087.22515	2304.3875
3089.60118	2295.1875
3091.97576	2297.0875
3094.3489	2295.1875
3096.72061	2294.6875
3099.09087	2281.1875
3101.4597	2304.4875
3103.82709	2288.9875
3106.19305	2284.2875
3108.55757	2281.5875
3110.92066	2274.5875
3113.28232	2281.7875
3115.64255	2275.7875
3118.00134	2256.8875
3120.35871	2264.6875
3122.71466	2253.2875
3125.06917	2254.0875
3127.42226	2241.1875
3129.77393	2246.0875
3132.12417	2235.4875
3134.47299	2234.3875
3136.82039	2242.6875
3139.16636	2233.0875
3141.51092	2229.3875
3143.85406	2228.6875
3146.19579	2226.5875
3148.53609	2222.0875
3150.87499	2223.8875
3153.21246	2233.7875
3155.54853	2234.5875
3157.88318	2222.8875
3160.21642	2220.0875
3162.54826	2228.8875
3164.87868	2225.6875
3167.2077	2215.6875
3169.5353	2223.7875
3171.86151	2220.4875
3174.18631	2212.5875
3176.5097	2212.0875
3178.83169	2207.1875
3181.15228	2200.2875
3183.47147	2199.9875
3185.78926	2199.2875
3188.10565	2190.6875
3190.42065	2179.4875
3192.73424	2170.8875
3195.04645	2176.9875
3197.35725	2172.1875
3199.66667	2164.5875
3201.97469	2168.1875
3204.28132	2165.6875
3206.58656	2168.3875
3208.8904	2166.2875
3211.19287	2167.2875
3213.49394	2173.1875
3215.79363	2169.9875
3218.09193	2164.4875
3220.38884	2166.6875
3222.68438	2173.1875
3224.97853	2152.7875
3227.2713	2153.3875
3229.56269	2141.5875
3231.8527	2144.3875
3234.14133	2132.9875
3236.42858	2136.8875
3238.71446	2132.7875
3240.99896	2116.0875
3243.28209	2119.3875
3245.56384	2122.4875
3247.84423	2124.0875
3250.12324	2125.7875
3252.40088	2114.4875
3254.67715	2099.8875
3256.95205	2100.7875
3259.22558	2100.0875
3261.49775	2097.6875
3263.76855	2101.0875
3266.03799	2086.5875
3268.30606	2094.1875
3270.57277	2099.4875
3272.83812	2097.1875
3275.10211	2079.4875
3277.36474	2070.4875
3279.62601	2074.4875
3281.88593	2064.4875
3284.14448	2067.0875
3286.40168	2064.2875
3288.65753	2063.5875
3290.91202	2061.5875
3293.16516	2046.0875
3295.41695	2052.0875
3297.66738	2042.1875
3299.91647	2020.6875
3302.16421	2016.1875
3304.4106	2015.0875
3306.65564	2001.3875
3308.89933	1984.4875
3311.14169	1960.3875
3313.38269	1932.3875
3315.62236	1934.5875
3317.86068	1911.6875
3320.09766	1902.2875
3322.3333	1890.2875
3324.5676	1869.7875
3326.80056	1844.8875
3329.03219	1832.0875
3331.26248	-0.2125
3333.49143	0.0875
3335.71905	-0.1125
