Data from AgNPs_UA_20uM_CRN_500uM_SU_RamanShift__89__13-51-20-308.txt Node

Date: Thu Aug 04 13:51:20 BST 2022
User: TCL
Spectrometer: QEP01345
Trigger mode: 4
Integration Time (sec): 1.000000E0
Scans to average: 10
Electric dark correction enabled: true
Nonlinearity correction enabled: false
Boxcar width: 0
XAxis mode: Raman Shifts
Number of Pixels in Spectrum: 1044
>>>>>Begin Spectral Data<<<<<
46.04893	-2.775
50.45542	-0.275
54.85868	1.025
59.25871	1.325
63.6555	13.625
68.04907	10.625
72.43941	16.225
76.82654	12.125
81.21044	14.325
85.59113	14.125
89.96862	14.625
94.34289	15.925
98.71396	14.925
103.08183	16.725
107.4465	15.425
111.80798	18.425
116.16626	18.325
120.52136	20.425
124.87327	19.625
129.222	22.425
133.56755	19.925
137.90993	24.525
142.24913	26.825
146.58517	30.225
150.91804	35.225
155.24774	43.525
159.57429	53.325
163.89768	70.825
168.21792	93.725
172.53501	128.325
176.84895	180.525
181.15975	258.625
185.46741	356.725
189.77193	494.325
194.07331	668.125
198.37157	867.525
202.6667	1077.125
206.9587	1274.725
211.24758	1491.725
215.53334	1692.025
219.81599	1924.325
224.09553	2191.025
228.37195	2465.825
232.64527	2782.925
236.91549	3079.125
241.18261	3342.725
245.44663	3542.925
249.70755	3696.625
253.96539	3827.325
258.22014	3949.225
262.4718	4041.825
266.72039	4118.825
270.96589	4152.525
275.20832	4128.025
279.44768	4047.425
283.68397	3987.725
287.91719	3924.725
292.14735	3953.025
296.37445	4020.925
300.59849	4156.025
304.81948	4349.925
309.03742	4527.225
313.25231	4638.425
317.46415	4581.425
321.67296	4385.225
325.87872	4172.225
330.08145	4065.625
334.28114	4059.525
338.47781	4103.425
342.67145	4209.025
346.86207	4328.025
351.04966	4511.525
355.23424	4675.525
359.4158	4814.725
363.59435	4884.025
367.76989	4861.625
371.94243	4855.125
376.11196	4839.025
380.27849	4830.025
384.44203	4799.225
388.60257	4799.625
392.76012	4845.725
396.91468	4910.325
401.06626	4974.825
405.21485	5002.125
409.36047	4919.725
413.50311	4721.425
417.64277	4550.225
421.77947	4431.425
425.9132	4404.625
430.04396	4417.725
434.17176	4461.025
438.2966	4540.025
442.41849	4642.225
446.53742	4776.725
450.6534	4906.725
454.76644	4971.525
458.87653	4968.525
462.98368	4905.625
467.08789	4842.225
471.18916	4764.425
475.2875	4641.325
479.38291	4530.025
483.4754	4480.025
487.56496	4417.825
491.6516	4384.825
495.73531	4387.525
499.81612	4386.625
503.89401	4404.625
507.96899	4461.625
512.04106	4505.925
516.11023	4562.125
520.1765	4607.825
524.23987	4627.325
528.30034	4622.025
532.35792	4605.225
536.41261	4553.625
540.46441	4483.125
544.51333	4440.525
548.55936	4466.825
552.60252	4558.525
556.64279	4651.325
560.6802	4697.925
564.71473	4757.325
568.7464	4829.925
572.7752	4849.525
576.80114	4736.025
580.82422	4637.225
584.84444	4625.825
588.86181	4690.725
592.87633	4798.425
596.888	4894.825
600.89682	5064.825
604.9028	5671.225
608.90594	6956.925
612.90624	8290.325
616.90371	7619.725
620.89834	5720.625
624.89015	4929.225
628.87913	4859.925
632.86528	4899.225
636.84862	4900.925
640.82913	4778.125
644.80683	4594.125
648.78172	4496.225
652.75379	4512.525
656.72306	4667.625
660.68952	4844.625
664.65319	4782.225
668.61405	4603.125
672.57211	4574.525
676.52738	4560.125
680.47986	4511.225
684.42955	4455.825
688.37646	4436.625
692.32058	4478.225
696.26192	4543.125
700.20048	4611.925
704.13626	4634.325
708.06928	4590.625
711.99952	4546.225
715.927	4566.925
719.85171	4589.825
723.77365	4574.825
727.69284	4524.225
731.60928	4486.025
735.52295	4486.625
739.43388	4527.425
743.34206	4537.425
747.24749	4549.325
751.15017	4582.025
755.05012	4623.925
758.94733	4851.825
762.8418	5345.025
766.73354	6133.625
770.62254	6768.025
774.50882	6886.925
778.39237	6475.025
782.27321	5807.425
786.15132	5216.025
790.02671	4820.925
793.89938	4647.825
797.76935	4582.125
801.6366	4530.125
805.50115	4515.425
809.36299	4496.825
813.22213	4462.525
817.07857	4467.325
820.93231	4464.225
824.78336	4496.625
828.63172	4499.425
832.47738	4514.925
836.32036	4509.825
840.16066	4505.925
843.99827	4523.125
847.8332	4507.525
851.66546	4495.725
855.49504	4521.025
859.32195	4515.225
863.1462	4510.925
866.96777	4501.325
870.78668	4485.925
874.60293	4488.425
878.41652	4511.625
882.22745	4540.525
886.03573	4567.525
889.84136	4563.425
893.64433	4536.525
897.44466	4524.125
901.24235	4524.825
905.0374	4504.425
908.8298	4466.125
912.61957	4473.325
916.40671	4506.525
920.19121	4522.125
923.97308	4597.625
927.75233	4652.225
931.52895	4687.625
935.30295	4639.425
939.07433	4538.925
942.84309	4451.225
946.60924	4438.925
950.37278	4412.525
954.13371	4397.425
957.89203	4381.925
961.64774	4379.325
965.40086	4357.825
969.15137	4342.825
972.89929	4350.725
976.64461	4361.225
980.38733	4359.425
984.12747	4380.625
987.86502	4403.725
991.59999	4479.225
995.33237	4556.325
999.06217	4685.125
1002.78939	4833.625
1006.51404	4935.025
1010.23611	5010.225
1013.95561	5043.425
1017.67255	5064.325
1021.38692	5047.225
1025.09872	5004.625
1028.80796	4998.325
1032.51465	5080.125
1036.21877	5174.225
1039.92035	5178.425
1043.61937	5108.125
1047.31584	5034.625
1051.00976	4937.125
1054.70114	4880.125
1058.38998	4870.825
1062.07627	4871.325
1065.76003	4900.825
1069.44126	4969.125
1073.11995	5047.125
1076.79611	5129.625
1080.46974	5202.125
1084.14085	5275.925
1087.80943	5356.025
1091.47549	5392.225
1095.13903	5362.925
1098.80005	5264.325
1102.45857	5151.925
1106.11456	5061.325
1109.76805	5072.825
1113.41903	5119.025
1117.06751	5209.025
1120.71348	5365.325
1124.35696	5573.425
1127.99793	5683.425
1131.63641	5589.125
1135.2724	5391.225
1138.90589	5244.325
1142.5369	5142.025
1146.16542	5123.725
1149.79145	5101.225
1153.415	5055.425
1157.03607	5024.425
1160.65467	5065.525
1164.27079	5197.825
1167.88443	5378.325
1171.49561	5701.425
1175.10432	6177.025
1178.71056	6849.125
1182.31434	7446.625
1185.91565	7614.525
1189.51451	7499.025
1193.11091	7213.225
1196.70485	6889.325
1200.29634	6638.525
1203.88538	6424.025
1207.47197	6159.325
1211.05612	5942.225
1214.63782	5778.925
1218.21708	5696.125
1221.79391	5649.025
1225.36829	5636.025
1228.94024	5597.525
1232.50976	5538.725
1236.07685	5470.825
1239.6415	5450.825
1243.20374	5480.525
1246.76355	5527.325
1250.32093	5642.325
1253.8759	5778.025
1257.42845	5987.125
1260.97859	6194.125
1264.52631	6347.225
1268.07163	6453.425
1271.61453	6579.025
1275.15503	6683.525
1278.69312	6767.225
1282.22882	6835.725
1285.76211	6914.525
1289.29301	7089.225
1292.82151	7270.225
1296.34761	7483.725
1299.87133	7853.925
1303.39266	8389.225
1306.9116	9182.125
1310.42815	9978.525
1313.94233	10250.225
1317.45412	9905.725
1320.96354	9249.925
1324.47058	8541.825
1327.97525	7930.425
1331.47754	7601.825
1334.97747	7479.225
1338.47502	7541.025
1341.97022	7780.525
1345.46305	8136.925
1348.95352	8680.725
1352.44163	9323.125
1355.92738	10147.725
1359.41078	11191.625
1362.89183	11984.525
1366.37053	11393.025
1369.84688	9696.525
1373.32088	8111.725
1376.79254	7264.225
1380.26186	6854.325
1383.72883	6639.625
1387.19347	6450.025
1390.65578	6231.425
1394.11575	6093.225
1397.57339	5976.025
1401.0287	5913.325
1404.48168	5915.625
1407.93234	5904.425
1411.38068	5956.625
1414.82669	5993.225
1418.27039	6008.825
1421.71177	5974.825
1425.15083	5912.725
1428.58758	5918.325
1432.02203	6022.925
1435.45416	6094.425
1438.88399	6159.325
1442.31151	6159.025
1445.73673	6160.225
1449.15965	6156.525
1452.58027	6096.825
1455.9986	6033.725
1459.41463	6025.225
1462.82837	6088.325
1466.23982	6184.125
1469.64898	6293.725
1473.05586	6397.525
1476.46045	6446.325
1479.86276	6491.925
1483.26279	6547.925
1486.66054	6647.125
1490.05602	6848.425
1493.44922	7149.125
1496.84016	7644.325
1500.22882	8394.025
1503.61521	9347.425
1506.99934	10293.125
1510.38121	10827.325
1513.76081	10656.625
1517.13816	9757.225
1520.51324	8679.225
1523.88607	7839.525
1527.25665	7319.925
1530.62498	7067.925
1533.99105	6943.025
1537.35488	6881.625
1540.71647	6804.425
1544.07581	6749.125
1547.4329	6667.225
1550.78776	6586.025
1554.14038	6525.125
1557.49077	6483.425
1560.83892	6524.225
1564.18484	6645.625
1567.52853	6835.425
1570.86999	6975.925
1574.20922	7024.025
1577.54624	6875.525
1580.88103	6572.425
1584.2136	6240.125
1587.54395	6085.425
1590.87208	6212.525
1594.19801	6548.525
1597.52172	6991.825
1600.84321	7245.325
1604.16251	7160.825
1607.47959	6903.225
1610.79447	6497.325
1614.10715	6068.725
1617.41763	5680.225
1620.7259	5427.325
1624.03199	5334.525
1627.33587	5306.325
1630.63757	5408.725
1633.93707	5679.825
1637.23439	6119.725
1640.52951	6736.925
1643.82246	7512.625
1647.11321	8248.925
1650.40179	8512.525
1653.68819	7955.825
1656.97241	6928.825
1660.25446	5947.025
1663.53433	5273.925
1666.81203	4881.925
1670.08756	4644.725
1673.36092	4521.825
1676.63211	4433.225
1679.90115	4338.025
1683.16801	4303.025
1686.43272	4263.825
1689.69527	4228.025
1692.95567	4219.425
1696.2139	4211.325
1699.46999	4170.525
1702.72392	4181.125
1705.97571	4201.325
1709.22535	4196.425
1712.47284	4184.125
1715.71819	4179.325
1718.96139	4162.925
1722.20246	4155.925
1725.44139	4146.625
1728.67818	4118.425
1731.91284	4098.625
1735.14537	4078.325
1738.37576	4067.725
1741.60403	4058.225
1744.83017	4060.425
1748.05418	4044.225
1751.27607	4023.625
1754.49584	4011.225
1757.71349	4001.625
1760.92903	3988.825
1764.14244	3989.325
1767.35375	3982.325
1770.56294	3978.625
1773.77002	3971.425
1776.97499	3957.825
1780.17785	3949.225
1783.37861	3934.625
1786.57727	3933.625
1789.77382	3929.225
1792.96828	3922.725
1796.16064	3916.725
1799.3509	3904.225
1802.53907	3901.425
1805.72514	3907.825
1808.90913	3899.625
1812.09102	3886.925
1815.27083	3871.225
1818.44856	3852.725
1821.6242	3844.325
1824.79776	3838.625
1827.96924	3846.125
1831.13864	3852.825
1834.30597	3840.525
1837.47122	3828.425
1840.6344	3809.325
1843.7955	3823.825
1846.95454	3803.725
1850.11151	3811.425
1853.26642	3812.325
1856.41926	3808.125
1859.57004	3808.725
1862.71876	3806.725
1865.86542	3799.525
1869.01003	3794.825
1872.15258	3795.325
1875.29308	3774.925
1878.43152	3780.525
1881.56792	3791.625
1884.70227	3773.825
1887.83457	3790.825
1890.96482	3784.225
1894.09304	3763.125
1897.21921	3750.525
1900.34335	3758.625
1903.46544	3758.125
1906.58551	3755.025
1909.70353	3764.125
1912.81953	3753.025
1915.93349	3741.925
1919.04543	3734.625
1922.15534	3729.625
1925.26322	3720.825
1928.36908	3719.225
1931.47292	3722.925
1934.57473	3703.625
1937.67453	3688.425
1940.77232	3692.325
1943.86808	3689.625
1946.96184	3664.225
1950.05358	3668.025
1953.14331	3657.025
1956.23103	3639.725
1959.31675	3625.725
1962.40046	3616.425
1965.48217	3598.225
1968.56188	3586.925
1971.63959	3587.225
1974.7153	3591.525
1977.78901	3574.525
1980.86073	3567.925
1983.93046	3546.925
1986.99819	3548.425
1990.06394	3541.925
1993.1277	3526.225
1996.18947	3513.725
1999.24925	3510.225
2002.30706	3481.625
2005.36288	3473.625
2008.41672	3468.025
2011.46859	3456.725
2014.51848	3446.625
2017.56639	3434.925
2020.61233	3424.325
2023.6563	3421.425
2026.6983	3402.425
2029.73833	3413.725
2032.7764	3402.625
2035.8125	3389.525
2038.84664	3379.525
2041.87881	3387.825
2044.90903	3377.825
2047.93729	3380.725
2050.96359	3371.025
2053.98794	3367.625
2057.01034	3367.925
2060.03078	3364.025
2063.04927	3360.225
2066.06582	3353.525
2069.08042	3346.425
2072.09307	3349.225
2075.10378	3352.825
2078.11255	3338.025
2081.11938	3336.825
2084.12426	3334.025
2087.12722	3344.525
2090.12824	3334.325
2093.12732	3337.425
2096.12447	3342.625
2099.11969	3337.125
2102.11299	3333.825
2105.10435	3336.925
2108.09379	3332.325
2111.08131	3332.925
2114.0669	3343.625
2117.05057	3350.925
2120.03233	3327.425
2123.01216	3339.725
2125.99008	3354.825
2128.96609	3352.725
2131.94018	3365.325
2134.91236	3346.725
2137.88263	3356.325
2140.851	3346.325
2143.81746	3353.725
2146.78201	3356.125
2149.74466	3364.025
2152.7054	3354.125
2155.66425	3351.325
2158.6212	3360.925
2161.57625	3364.925
2164.52941	3350.025
2167.48067	3345.825
2170.43004	3344.225
2173.37752	3337.425
2176.32311	3366.025
2179.26681	3348.625
2182.20863	3346.225
2185.14856	3344.825
2188.08661	3358.525
2191.02278	3350.625
2193.95707	3348.025
2196.88948	3359.925
2199.82001	3342.525
2202.74867	3344.525
2205.67545	3353.225
2208.60037	3345.125
2211.52341	3338.625
2214.44458	3334.625
2217.36388	3322.825
2220.28132	3321.425
2223.1969	3310.625
2226.11061	3307.525
2229.02246	3302.125
2231.93245	3304.825
2234.84058	3290.125
2237.74686	3277.525
2240.65128	3287.625
2243.55385	3287.225
2246.45456	3269.325
2249.35343	3270.925
2252.25044	3267.825
2255.14561	3264.125
2258.03893	3260.025
2260.93041	3262.925
2263.82004	3255.225
2266.70783	3238.025
2269.59378	3244.425
2272.4779	3225.425
2275.36017	3221.325
2278.24061	3208.825
2281.11922	3197.825
2283.996	3187.725
2286.87094	3205.325
2289.74405	3182.725
2292.61534	3195.025
2295.4848	3201.725
2298.35243	3191.125
2301.21824	3185.925
2304.08223	3180.325
2306.94439	3194.125
2309.80474	3190.925
2312.66327	3193.225
2315.51999	3171.825
2318.37489	3189.625
2321.22797	3180.625
2324.07925	3169.225
2326.92871	3166.925
2329.77637	3171.225
2332.62222	3163.025
2335.46626	3166.725
2338.3085	3168.025
2341.14893	3165.725
2343.98756	3173.625
2346.8244	3172.825
2349.65943	3173.225
2352.49267	3168.225
2355.32411	3178.625
2358.15376	3170.025
2360.98161	3170.725
2363.80768	3169.025
2366.63195	3166.025
2369.45444	3156.925
2372.27514	3149.525
2375.09405	3156.225
2377.91118	3146.625
2380.72652	3145.625
2383.54009	3125.725
2386.35187	3126.325
2389.16188	3117.525
2391.97011	3105.125
2394.77657	3089.425
2397.58125	3087.425
2400.38416	3088.525
2403.18529	3082.025
2405.98466	3073.725
2408.78226	3080.525
2411.57809	3065.225
2414.37216	3058.225
2417.16446	3059.125
2419.955	3059.625
2422.74378	3066.425
2425.5308	3048.825
2428.31606	3048.025
2431.09956	3037.125
2433.88131	3046.325
2436.6613	3038.125
2439.43954	3047.925
2442.21603	3045.325
2444.99077	3049.125
2447.76377	3036.325
2450.53501	3045.725
2453.30451	3030.425
2456.07226	3018.425
2458.83827	3036.525
2461.60254	3025.925
2464.36507	3019.225
2467.12586	3024.125
2469.88492	3020.225
2472.64224	3034.425
2475.39782	3026.425
2478.15167	3021.125
2480.90379	3034.225
2483.65417	3027.625
2486.40283	3044.925
2489.14976	3037.125
2491.89497	3042.825
2494.63845	3035.625
2497.3802	3031.525
2500.12024	3024.525
2502.85855	3027.625
2505.59514	3016.925
2508.33002	3004.425
2511.06318	2995.025
2513.79462	3005.925
2516.52435	2988.525
2519.25237	2992.925
2521.97867	2982.025
2524.70327	2984.025
2527.42616	2978.125
2530.14734	2991.525
2532.86681	2984.425
2535.58458	2977.825
2538.30065	2986.525
2541.01501	2974.125
2543.72768	2968.425
2546.43864	2978.425
2549.14791	2967.425
2551.85548	2981.225
2554.56136	2972.125
2557.26554	2951.425
2559.96803	2975.225
2562.66883	2953.825
2565.36794	2961.425
2568.06536	2938.225
2570.7611	2929.225
2573.45514	2930.525
2576.14751	2930.825
2578.83819	2921.225
2581.52719	2917.025
2584.21451	2918.525
2586.90015	2903.025
2589.58411	2904.925
2592.2664	2903.325
2594.94701	2904.725
2597.62594	2905.325
2600.30321	2901.225
2602.9788	2911.825
2605.65273	2907.125
2608.32498	2898.625
2610.99557	2903.525
2613.66449	2888.125
2616.33175	2901.325
2618.99734	2890.825
2621.66128	2888.025
2624.32355	2892.625
2626.98416	2910.225
2629.64311	2887.425
2632.30041	2877.225
2634.95605	2893.725
2637.61004	2878.625
2640.26238	2879.025
2642.91306	2864.625
2645.56209	2859.925
2648.20948	2863.825
2650.85521	2861.925
2653.4993	2851.425
2656.14175	2850.325
2658.78255	2859.025
2661.42171	2857.425
2664.05923	2871.925
2666.6951	2869.025
2669.32934	2871.025
2671.96194	2873.525
2674.59291	2868.825
2677.22224	2878.425
2679.84993	2861.125
2682.476	2868.125
2685.10043	2865.225
2687.72324	2842.625
2690.34441	2852.425
2692.96396	2870.325
2695.58188	2857.425
2698.19818	2845.825
2700.81285	2849.425
2703.4259	2850.425
2706.03733	2861.525
2708.64714	2842.225
2711.25533	2828.325
2713.86191	2841.525
2716.46687	2847.025
2719.07021	2845.525
2721.67194	2850.325
2724.27206	2847.125
2726.87057	2853.225
2729.46747	2852.425
2732.06276	2846.725
2734.65644	2836.825
2737.24852	2836.725
2739.83899	2848.825
2742.42786	2837.225
2745.01513	2837.325
2747.60079	2818.525
2750.18486	2828.425
2752.76733	2821.025
2755.3482	2831.425
2757.92747	2824.825
2760.50515	2817.925
2763.08123	2809.025
2765.65573	2798.525
2768.22863	2810.125
2770.79994	2800.225
2773.36967	2804.825
2775.9378	2794.925
2778.50435	2803.825
2781.06932	2799.225
2783.6327	2786.025
2786.1945	2774.125
2788.75471	2784.925
2791.31335	2767.125
2793.87041	2774.425
2796.42589	2753.125
2798.97979	2765.525
2801.53212	2752.425
2804.08288	2767.325
2806.63206	2755.825
2809.17967	2771.225
2811.72571	2746.325
2814.27018	2755.925
2816.81308	2735.125
2819.35442	2750.525
2821.89419	2728.925
2824.43239	2722.525
2826.96904	2718.425
2829.50412	2725.325
2832.03763	2720.425
2834.56959	2721.625
2837.1	2715.225
2839.62884	2698.325
2842.15613	2707.025
2844.68186	2700.625
2847.20604	2700.025
2849.72867	2688.625
2852.24974	2696.425
2854.76927	2677.125
2857.28724	2668.125
2859.80367	2667.125
2862.31855	2668.925
2864.83189	2681.525
2867.34368	2674.125
2869.85393	2665.225
2872.36264	2669.525
2874.8698	2665.525
2877.37543	2664.525
2879.87952	2661.225
2882.38207	2653.225
2884.88308	2663.525
2887.38256	2650.525
2889.88051	2654.525
2892.37692	2643.125
2894.8718	2657.625
2897.36515	2642.425
2899.85698	2649.725
2902.34727	2650.925
2904.83604	2666.625
2907.32328	2659.425
2909.809	2667.025
2912.29319	2668.725
2914.77587	2669.725
2917.25702	2677.825
2919.73665	2668.525
2922.21476	2681.625
2924.69136	2672.525
2927.16644	2672.025
2929.64	2658.425
2932.11205	2666.025
2934.58258	2641.025
2937.05161	2646.425
2939.51912	2632.325
2941.98513	2631.925
2944.44962	2627.625
2946.91261	2625.025
2949.37409	2627.825
2951.83407	2632.825
2954.29254	2639.425
2956.74951	2621.225
2959.20498	2618.325
2961.65895	2624.425
2964.11142	2614.325
2966.56239	2615.825
2969.01186	2619.725
2971.45984	2622.525
2973.90632	2615.525
2976.35131	2612.325
2978.7948	2587.825
2981.23681	2591.625
2983.67732	2593.525
2986.11635	2585.225
2988.55388	2586.925
2990.98993	2576.325
2993.4245	2580.125
2995.85758	2573.425
2998.28917	2567.625
3000.71928	2549.125
3003.14791	2547.025
3005.57506	2559.725
3008.00073	2534.825
3010.42493	2534.225
3012.84764	2517.125
3015.26888	2521.925
3017.68865	2523.925
3020.10694	2515.625
3022.52376	2512.325
3024.9391	2500.725
3027.35298	2493.725
3029.76539	2478.125
3032.17632	2486.725
3034.5858	2492.525
3036.9938	2480.425
3039.40034	2478.025
3041.80542	2458.225
3044.20903	2474.725
3046.61118	2467.325
3049.01187	2451.925
3051.4111	2458.525
3053.80888	2457.125
3056.20519	2437.025
3058.60005	2435.825
3060.99345	2429.925
3063.3854	2429.625
3065.7759	2430.525
3068.16494	2428.825
3070.55254	2429.325
3072.93868	2411.225
3075.32338	2401.225
3077.70662	2391.525
3080.08842	2385.725
3082.46878	2383.925
3084.84769	2375.425
3087.22515	2377.425
3089.60118	2385.625
3091.97576	2382.625
3094.3489	2379.225
3096.72061	2374.225
3099.09087	2378.325
3101.4597	2365.425
3103.82709	2364.425
3106.19305	2366.525
3108.55757	2367.225
3110.92066	2367.525
3113.28232	2369.525
3115.64255	2346.625
3118.00134	2344.525
3120.35871	2341.725
3122.71466	2346.125
3125.06917	2345.825
3127.42226	2333.125
3129.77393	2336.125
3132.12417	2325.025
3134.47299	2321.425
3136.82039	2324.625
3139.16636	2322.725
3141.51092	2314.225
3143.85406	2320.525
3146.19579	2315.025
3148.53609	2315.225
3150.87499	2318.125
3153.21246	2319.725
3155.54853	2323.325
3157.88318	2326.925
3160.21642	2317.025
3162.54826	2322.525
3164.87868	2313.625
3167.2077	2311.725
3169.5353	2312.325
3171.86151	2320.525
3174.18631	2315.125
3176.5097	2301.625
3178.83169	2297.025
3181.15228	2286.925
3183.47147	2303.625
3185.78926	2292.925
3188.10565	2284.625
3190.42065	2279.725
3192.73424	2286.425
3195.04645	2266.825
3197.35725	2264.425
3199.66667	2273.525
3201.97469	2282.325
3204.28132	2267.325
3206.58656	2273.925
3208.8904	2272.625
3211.19287	2275.925
3213.49394	2276.325
3215.79363	2274.325
3218.09193	2277.325
3220.38884	2276.225
3222.68438	2279.525
3224.97853	2268.625
3227.2713	2275.825
3229.56269	2265.025
3231.8527	2274.025
3234.14133	2264.025
3236.42858	2255.725
3238.71446	2254.425
3240.99896	2252.725
3243.28209	2245.725
3245.56384	2244.025
3247.84423	2236.425
3250.12324	2237.725
3252.40088	2236.425
3254.67715	2241.525
3256.95205	2221.825
3259.22558	2216.825
3261.49775	2218.425
3263.76855	2219.425
3266.03799	2224.925
3268.30606	2219.225
3270.57277	2237.225
3272.83812	2218.225
3275.10211	2205.625
3277.36474	2210.225
3279.62601	2209.025
3281.88593	2195.825
3284.14448	2205.925
3286.40168	2197.425
3288.65753	2196.725
3290.91202	2190.325
3293.16516	2181.325
3295.41695	2181.625
3297.66738	2172.225
3299.91647	2159.325
3302.16421	2152.625
3304.4106	2142.225
3306.65564	2125.725
3308.89933	2111.325
3311.14169	2100.025
3313.38269	2080.825
3315.62236	2059.625
3317.86068	2047.325
3320.09766	2035.825
3322.3333	2016.825
3324.5676	2001.125
3326.80056	1983.625
3329.03219	1966.125
3331.26248	1.525
3333.49143	-0.375
3335.71905	-1.075
