Data from AgNPs_UA_5uM_CRN_500uM_SU_RamanShift__111__11-47-53-161.txt Node

Date: Thu Aug 04 11:47:53 BST 2022
User: TCL
Spectrometer: QEP01345
Trigger mode: 4
Integration Time (sec): 1.000000E0
Scans to average: 10
Electric dark correction enabled: true
Nonlinearity correction enabled: false
Boxcar width: 0
XAxis mode: Raman Shifts
Number of Pixels in Spectrum: 1044
>>>>>Begin Spectral Data<<<<<
46.04893	-0.0125
50.45542	0.3875
54.85868	0.0875
59.25871	-1.7125
63.6555	-61.3125
68.04907	-42.9125
72.43941	-74.1125
76.82654	-58.9125
81.21044	-58.3125
85.59113	-52.6125
89.96862	-79.3125
94.34289	-59.5125
98.71396	-81.8125
103.08183	-62.7125
107.4465	-52.9125
111.80798	-59.5125
116.16626	-49.1125
120.52136	-79.3125
124.87327	-55.0125
129.222	-68.8125
133.56755	-54.7125
137.90993	-69.7125
142.24913	-57.4125
146.58517	-53.8125
150.91804	-50.9125
155.24774	-44.7125
159.57429	-29.0125
163.89768	-31.9125
168.21792	3.7875
172.53501	7.5875
176.84895	68.8875
181.15975	164.1875
185.46741	262.2875
189.77193	378.6875
194.07331	585.3875
198.37157	782.7875
202.6667	972.3875
206.9587	1186.4875
211.24758	1388.4875
215.53334	1589.6875
219.81599	1789.5875
224.09553	2039.0875
228.37195	2285.7875
232.64527	2561.2875
236.91549	2879.6875
241.18261	3144.2875
245.44663	3415.6875
249.70755	3622.4875
253.96539	3809.4875
258.22014	3952.8875
262.4718	4063.0875
266.72039	4121.4875
270.96589	4139.2875
275.20832	4127.4875
279.44768	4091.8875
283.68397	4020.4875
287.91719	3953.7875
292.14735	3933.1875
296.37445	3936.4875
300.59849	3995.5875
304.81948	4011.6875
309.03742	4061.2875
313.25231	4091.1875
317.46415	4069.2875
321.67296	3974.3875
325.87872	3909.9875
330.08145	3912.7875
334.28114	3924.6875
338.47781	3976.9875
342.67145	4052.7875
346.86207	4135.6875
351.04966	4247.3875
355.23424	4369.5875
359.4158	4482.7875
363.59435	4532.6875
367.76989	4606.5875
371.94243	4653.5875
376.11196	4682.9875
380.27849	4728.9875
384.44203	4759.6875
388.60257	4816.2875
392.76012	4833.0875
396.91468	4937.0875
401.06626	5043.1875
405.21485	5073.3875
409.36047	5077.7875
413.50311	5065.2875
417.64277	5021.2875
421.77947	4965.5875
425.9132	4974.5875
430.04396	4997.8875
434.17176	5063.5875
438.2966	5156.2875
442.41849	5249.2875
446.53742	5380.9875
450.6534	5517.6875
454.76644	5644.8875
458.87653	5696.0875
462.98368	5702.0875
467.08789	5688.5875
471.18916	5655.9875
475.2875	5584.3875
479.38291	5486.2875
483.4754	5380.5875
487.56496	5325.7875
491.6516	5278.1875
495.73531	5235.0875
499.81612	5230.9875
503.89401	5261.7875
507.96899	5269.3875
512.04106	5278.2875
516.11023	5309.9875
520.1765	5337.2875
524.23987	5352.0875
528.30034	5389.2875
532.35792	5357.4875
536.41261	5342.8875
540.46441	5330.9875
544.51333	5291.4875
548.55936	5312.1875
552.60252	5385.1875
556.64279	5428.9875
560.6802	5470.7875
564.71473	5480.7875
568.7464	5543.8875
572.7752	5535.8875
576.80114	5497.9875
580.82422	5503.0875
584.84444	5554.9875
588.86181	5652.5875
592.87633	5748.1875
596.888	5819.0875
600.89682	5949.9875
604.9028	6360.7875
608.90594	7028.0875
612.90624	7639.7875
616.90371	7185.8875
620.89834	6306.5875
624.89015	5968.7875
628.87913	5890.3875
632.86528	5907.1875
636.84862	5886.8875
640.82913	5820.0875
644.80683	5692.2875
648.78172	5656.2875
652.75379	5708.4875
656.72306	5825.9875
660.68952	5947.3875
664.65319	5918.4875
668.61405	5875.4875
672.57211	5876.6875
676.52738	5909.2875
680.47986	5858.5875
684.42955	5843.9875
688.37646	5823.6875
692.32058	5815.5875
696.26192	5887.6875
700.20048	5944.8875
704.13626	5972.6875
708.06928	5909.8875
711.99952	5868.3875
715.927	5831.0875
719.85171	5838.3875
723.77365	5863.2875
727.69284	5848.3875
731.60928	5844.2875
735.52295	5838.2875
739.43388	5904.2875
743.34206	5918.7875
747.24749	5984.0875
751.15017	6023.9875
755.05012	6041.1875
758.94733	6187.9875
762.8418	6404.8875
766.73354	6738.3875
770.62254	7044.9875
774.50882	7124.1875
778.39237	6963.1875
782.27321	6642.9875
786.15132	6328.0875
790.02671	6166.4875
793.89938	6002.3875
797.76935	6010.5875
801.6366	5977.7875
805.50115	5975.9875
809.36299	5972.7875
813.22213	5981.3875
817.07857	5977.6875
820.93231	5972.9875
824.78336	5976.9875
828.63172	5983.6875
832.47738	5995.8875
836.32036	6049.6875
840.16066	6041.9875
843.99827	6056.8875
847.8332	6074.8875
851.66546	6062.4875
855.49504	6047.1875
859.32195	6113.6875
863.1462	6105.3875
866.96777	6109.3875
870.78668	6086.9875
874.60293	6085.5875
878.41652	6100.1875
882.22745	6132.0875
886.03573	6137.5875
889.84136	6126.8875
893.64433	6125.7875
897.44466	6117.7875
901.24235	6116.6875
905.0374	6131.7875
908.8298	6125.7875
912.61957	6114.8875
916.40671	6097.6875
920.19121	6146.8875
923.97308	6213.0875
927.75233	6211.3875
931.52895	6219.7875
935.30295	6228.2875
939.07433	6198.3875
942.84309	6120.5875
946.60924	6137.1875
950.37278	6115.4875
954.13371	6113.5875
957.89203	6103.0875
961.64774	6117.8875
965.40086	6071.0875
969.15137	6045.4875
972.89929	6078.7875
976.64461	6076.1875
980.38733	6090.2875
984.12747	6093.0875
987.86502	6128.3875
991.59999	6190.3875
995.33237	6294.3875
999.06217	6418.5875
1002.78939	6542.8875
1006.51404	6665.9875
1010.23611	6743.0875
1013.95561	6834.9875
1017.67255	6908.9875
1021.38692	6911.5875
1025.09872	6872.7875
1028.80796	6826.2875
1032.51465	6865.0875
1036.21877	6890.8875
1039.92035	6916.7875
1043.61937	6895.6875
1047.31584	6866.2875
1051.00976	6866.8875
1054.70114	6895.3875
1058.38998	6910.8875
1062.07627	6974.9875
1065.76003	7053.5875
1069.44126	7181.0875
1073.11995	7186.9875
1076.79611	7162.1875
1080.46974	7146.9875
1084.14085	7157.5875
1087.80943	7158.0875
1091.47549	7175.8875
1095.13903	7127.4875
1098.80005	7052.0875
1102.45857	6985.3875
1106.11456	6953.1875
1109.76805	6933.2875
1113.41903	7020.2875
1117.06751	7095.3875
1120.71348	7186.8875
1124.35696	7347.6875
1127.99793	7427.0875
1131.63641	7410.3875
1135.2724	7326.2875
1138.90589	7238.4875
1142.5369	7121.8875
1146.16542	7058.9875
1149.79145	6976.0875
1153.415	6950.8875
1157.03607	6972.0875
1160.65467	7038.6875
1164.27079	7161.8875
1167.88443	7270.5875
1171.49561	7469.8875
1175.10432	7692.7875
1178.71056	8070.4875
1182.31434	8497.7875
1185.91565	8852.2875
1189.51451	9103.8875
1193.11091	9175.1875
1196.70485	9037.2875
1200.29634	8746.2875
1203.88538	8465.3875
1207.47197	8156.2875
1211.05612	7902.6875
1214.63782	7729.8875
1218.21708	7642.1875
1221.79391	7621.7875
1225.36829	7617.7875
1228.94024	7636.7875
1232.50976	7702.0875
1236.07685	7773.8875
1239.6415	7810.8875
1243.20374	7842.9875
1246.76355	7874.6875
1250.32093	7929.2875
1253.8759	8018.9875
1257.42845	8169.5875
1260.97859	8317.9875
1264.52631	8478.1875
1268.07163	8545.1875
1271.61453	8643.1875
1275.15503	8671.1875
1278.69312	8787.4875
1282.22882	8913.0875
1285.76211	9094.9875
1289.29301	9252.8875
1292.82151	9448.2875
1296.34761	9616.4875
1299.87133	9888.8875
1303.39266	10205.6875
1306.9116	10650.3875
1310.42815	11008.3875
1313.94233	11211.8875
1317.45412	11187.1875
1320.96354	11043.5875
1324.47058	10872.6875
1327.97525	10746.8875
1331.47754	10740.1875
1334.97747	10877.1875
1338.47502	11113.4875
1341.97022	11348.0875
1345.46305	11624.5875
1348.95352	11793.8875
1352.44163	11944.1875
1355.92738	12114.7875
1359.41078	12306.9875
1362.89183	12307.8875
1366.37053	11679.4875
1369.84688	10702.9875
1373.32088	9840.3875
1376.79254	9404.0875
1380.26186	9113.6875
1383.72883	8976.3875
1387.19347	8881.5875
1390.65578	8758.5875
1394.11575	8628.9875
1397.57339	8511.3875
1401.0287	8545.1875
1404.48168	8669.8875
1407.93234	8910.8875
1411.38068	9146.1875
1414.82669	9284.7875
1418.27039	9332.8875
1421.71177	9303.9875
1425.15083	9287.2875
1428.58758	9361.7875
1432.02203	9484.9875
1435.45416	9514.0875
1438.88399	9431.6875
1442.31151	9326.2875
1445.73673	9324.8875
1449.15965	9296.2875
1452.58027	9266.0875
1455.9986	9238.3875
1459.41463	9242.0875
1462.82837	9318.1875
1466.23982	9425.0875
1469.64898	9490.8875
1473.05586	9563.0875
1476.46045	9585.1875
1479.86276	9632.8875
1483.26279	9666.5875
1486.66054	9811.7875
1490.05602	9980.2875
1493.44922	10303.7875
1496.84016	10701.8875
1500.22882	11180.0875
1503.61521	11682.4875
1506.99934	12069.9875
1510.38121	12193.2875
1513.76081	12020.8875
1517.13816	11404.1875
1520.51324	10744.7875
1523.88607	10267.9875
1527.25665	9937.1875
1530.62498	9820.6875
1533.99105	9760.6875
1537.35488	9731.4875
1540.71647	9732.9875
1544.07581	9731.9875
1547.4329	9697.1875
1550.78776	9649.8875
1554.14038	9565.6875
1557.49077	9512.3875
1560.83892	9509.0875
1564.18484	9476.5875
1567.52853	9431.1875
1570.86999	9403.3875
1574.20922	9315.9875
1577.54624	9205.3875
1580.88103	9036.8875
1584.2136	8880.4875
1587.54395	8945.3875
1590.87208	9172.1875
1594.19801	9507.9875
1597.52172	9973.7875
1600.84321	10307.3875
1604.16251	10378.7875
1607.47959	10193.4875
1610.79447	9858.4875
1614.10715	9395.4875
1617.41763	8980.9875
1620.7259	8634.6875
1624.03199	8470.8875
1627.33587	8452.7875
1630.63757	8543.2875
1633.93707	8901.7875
1637.23439	9455.9875
1640.52951	10170.6875
1643.82246	10939.3875
1647.11321	11466.9875
1650.40179	11291.1875
1653.68819	10463.7875
1656.97241	9417.3875
1660.25446	8504.8875
1663.53433	7846.1875
1666.81203	7450.1875
1670.08756	7191.1875
1673.36092	7053.7875
1676.63211	6936.6875
1679.90115	6842.6875
1683.16801	6748.4875
1686.43272	6685.3875
1689.69527	6654.1875
1692.95567	6591.0875
1696.2139	6582.5875
1699.46999	6537.1875
1702.72392	6530.7875
1705.97571	6564.7875
1709.22535	6525.3875
1712.47284	6581.8875
1715.71819	6576.5875
1718.96139	6555.0875
1722.20246	6567.3875
1725.44139	6528.5875
1728.67818	6526.1875
1731.91284	6503.9875
1735.14537	6466.2875
1738.37576	6442.0875
1741.60403	6444.3875
1744.83017	6391.1875
1748.05418	6408.3875
1751.27607	6406.0875
1754.49584	6372.9875
1757.71349	6346.0875
1760.92903	6345.0875
1764.14244	6292.7875
1767.35375	6313.2875
1770.56294	6298.3875
1773.77002	6302.4875
1776.97499	6325.5875
1780.17785	6323.7875
1783.37861	6312.0875
1786.57727	6335.4875
1789.77382	6262.5875
1792.96828	6296.6875
1796.16064	6317.4875
1799.3509	6299.1875
1802.53907	6314.0875
1805.72514	6273.4875
1808.90913	6263.5875
1812.09102	6248.5875
1815.27083	6249.5875
1818.44856	6237.4875
1821.6242	6221.6875
1824.79776	6218.4875
1827.96924	6213.6875
1831.13864	6186.3875
1834.30597	6213.9875
1837.47122	6195.5875
1840.6344	6173.4875
1843.7955	6172.8875
1846.95454	6169.1875
1850.11151	6202.2875
1853.26642	6163.2875
1856.41926	6174.2875
1859.57004	6157.0875
1862.71876	6174.0875
1865.86542	6167.4875
1869.01003	6158.6875
1872.15258	6134.6875
1875.29308	6155.4875
1878.43152	6161.6875
1881.56792	6148.9875
1884.70227	6123.8875
1887.83457	6139.5875
1890.96482	6119.5875
1894.09304	6122.4875
1897.21921	6109.7875
1900.34335	6119.2875
1903.46544	6093.3875
1906.58551	6126.4875
1909.70353	6111.4875
1912.81953	6087.2875
1915.93349	6093.1875
1919.04543	6103.8875
1922.15534	6078.0875
1925.26322	6077.7875
1928.36908	6053.0875
1931.47292	6041.7875
1934.57473	6076.4875
1937.67453	6051.5875
1940.77232	6006.5875
1943.86808	6020.2875
1946.96184	6005.0875
1950.05358	5992.2875
1953.14331	5959.3875
1956.23103	5978.8875
1959.31675	5945.3875
1962.40046	5892.2875
1965.48217	5905.0875
1968.56188	5890.9875
1971.63959	5867.3875
1974.7153	5850.7875
1977.78901	5836.2875
1980.86073	5833.1875
1983.93046	5778.8875
1986.99819	5726.7875
1990.06394	5728.0875
1993.1277	5766.8875
1996.18947	5723.2875
1999.24925	5711.1875
2002.30706	5712.7875
2005.36288	5696.0875
2008.41672	5676.4875
2011.46859	5652.9875
2014.51848	5634.7875
2017.56639	5621.3875
2020.61233	5603.1875
2023.6563	5602.5875
2026.6983	5558.6875
2029.73833	5561.2875
2032.7764	5547.1875
2035.8125	5517.4875
2038.84664	5529.4875
2041.87881	5505.3875
2044.90903	5522.3875
2047.93729	5497.2875
2050.96359	5492.7875
2053.98794	5503.8875
2057.01034	5496.9875
2060.03078	5460.6875
2063.04927	5478.5875
2066.06582	5472.8875
2069.08042	5459.4875
2072.09307	5485.6875
2075.10378	5473.4875
2078.11255	5488.5875
2081.11938	5455.5875
2084.12426	5456.3875
2087.12722	5453.5875
2090.12824	5466.5875
2093.12732	5444.2875
2096.12447	5459.0875
2099.11969	5457.4875
2102.11299	5462.6875
2105.10435	5477.4875
2108.09379	5461.5875
2111.08131	5469.7875
2114.0669	5461.5875
2117.05057	5480.3875
2120.03233	5464.6875
2123.01216	5489.8875
2125.99008	5464.8875
2128.96609	5471.7875
2131.94018	5493.0875
2134.91236	5483.5875
2137.88263	5474.7875
2140.851	5480.6875
2143.81746	5513.4875
2146.78201	5499.1875
2149.74466	5491.3875
2152.7054	5504.1875
2155.66425	5488.8875
2158.6212	5481.7875
2161.57625	5460.3875
2164.52941	5432.9875
2167.48067	5460.6875
2170.43004	5465.1875
2173.37752	5456.1875
2176.32311	5459.1875
2179.26681	5481.3875
2182.20863	5479.6875
2185.14856	5465.5875
2188.08661	5458.9875
2191.02278	5476.7875
2193.95707	5450.8875
2196.88948	5442.3875
2199.82001	5461.9875
2202.74867	5454.3875
2205.67545	5446.8875
2208.60037	5462.1875
2211.52341	5433.0875
2214.44458	5421.1875
2217.36388	5413.8875
2220.28132	5400.5875
2223.1969	5371.8875
2226.11061	5377.7875
2229.02246	5369.4875
2231.93245	5344.0875
2234.84058	5351.8875
2237.74686	5322.7875
2240.65128	5336.2875
2243.55385	5334.5875
2246.45456	5322.6875
2249.35343	5319.6875
2252.25044	5297.9875
2255.14561	5311.9875
2258.03893	5297.7875
2260.93041	5289.2875
2263.82004	5279.0875
2266.70783	5255.1875
2269.59378	5238.3875
2272.4779	5231.9875
2275.36017	5220.3875
2278.24061	5217.9875
2281.11922	5159.5875
2283.996	5191.7875
2286.87094	5169.2875
2289.74405	5178.5875
2292.61534	5172.8875
2295.4848	5167.7875
2298.35243	5155.0875
2301.21824	5149.7875
2304.08223	5150.7875
2306.94439	5144.4875
2309.80474	5154.5875
2312.66327	5150.1875
2315.51999	5131.7875
2318.37489	5119.3875
2321.22797	5110.1875
2324.07925	5103.3875
2326.92871	5103.8875
2329.77637	5076.5875
2332.62222	5073.8875
2335.46626	5065.6875
2338.3085	5078.0875
2341.14893	5083.1875
2343.98756	5070.8875
2346.8244	5048.0875
2349.65943	5032.7875
2352.49267	5040.8875
2355.32411	5051.5875
2358.15376	5037.3875
2360.98161	5034.4875
2363.80768	5011.1875
2366.63195	5022.2875
2369.45444	5029.8875
2372.27514	5016.2875
2375.09405	5021.0875
2377.91118	4980.3875
2380.72652	4995.0875
2383.54009	4977.7875
2386.35187	5004.3875
2389.16188	4958.0875
2391.97011	4959.7875
2394.77657	4963.4875
2397.58125	4967.6875
2400.38416	4936.4875
2403.18529	4926.5875
2405.98466	4918.6875
2408.78226	4924.2875
2411.57809	4918.0875
2414.37216	4879.4875
2417.16446	4898.2875
2419.955	4867.9875
2422.74378	4897.9875
2425.5308	4859.0875
2428.31606	4857.7875
2431.09956	4885.4875
2433.88131	4853.1875
2436.6613	4853.7875
2439.43954	4831.6875
2442.21603	4845.7875
2444.99077	4833.5875
2447.76377	4837.4875
2450.53501	4824.5875
2453.30451	4812.7875
2456.07226	4818.6875
2458.83827	4801.9875
2461.60254	4765.8875
2464.36507	4803.9875
2467.12586	4787.5875
2469.88492	4781.3875
2472.64224	4780.8875
2475.39782	4762.7875
2478.15167	4762.0875
2480.90379	4786.7875
2483.65417	4764.5875
2486.40283	4776.3875
2489.14976	4775.4875
2491.89497	4751.1875
2494.63845	4768.9875
2497.3802	4742.6875
2500.12024	4745.8875
2502.85855	4739.6875
2505.59514	4747.4875
2508.33002	4745.9875
2511.06318	4732.0875
2513.79462	4728.8875
2516.52435	4718.8875
2519.25237	4678.3875
2521.97867	4699.1875
2524.70327	4700.5875
2527.42616	4704.5875
2530.14734	4716.3875
2532.86681	4688.8875
2535.58458	4693.8875
2538.30065	4671.9875
2541.01501	4686.9875
2543.72768	4670.1875
2546.43864	4674.3875
2549.14791	4666.9875
2551.85548	4639.9875
2554.56136	4633.1875
2557.26554	4637.7875
2559.96803	4629.5875
2562.66883	4629.8875
2565.36794	4610.0875
2568.06536	4581.0875
2570.7611	4590.3875
2573.45514	4585.5875
2576.14751	4593.6875
2578.83819	4554.5875
2581.52719	4556.1875
2584.21451	4551.4875
2586.90015	4548.9875
2589.58411	4529.5875
2592.2664	4542.6875
2594.94701	4544.4875
2597.62594	4535.2875
2600.30321	4478.0875
2602.9788	4494.4875
2605.65273	4500.3875
2608.32498	4506.4875
2610.99557	4516.0875
2613.66449	4496.2875
2616.33175	4495.3875
2618.99734	4500.0875
2621.66128	4504.7875
2624.32355	4488.5875
2626.98416	4470.2875
2629.64311	4471.0875
2632.30041	4482.1875
2634.95605	4454.7875
2637.61004	4453.1875
2640.26238	4433.4875
2642.91306	4452.2875
2645.56209	4478.4875
2648.20948	4466.9875
2650.85521	4448.3875
2653.4993	4469.8875
2656.14175	4437.6875
2658.78255	4443.4875
2661.42171	4423.0875
2664.05923	4460.2875
2666.6951	4460.8875
2669.32934	4450.8875
2671.96194	4485.1875
2674.59291	4453.2875
2677.22224	4458.1875
2679.84993	4482.6875
2682.476	4451.6875
2685.10043	4460.5875
2687.72324	4460.7875
2690.34441	4457.3875
2692.96396	4441.9875
2695.58188	4456.9875
2698.19818	4473.5875
2700.81285	4457.9875
2703.4259	4449.2875
2706.03733	4405.2875
2708.64714	4423.2875
2711.25533	4445.3875
2713.86191	4460.5875
2716.46687	4454.7875
2719.07021	4445.3875
2721.67194	4439.9875
2724.27206	4453.6875
2726.87057	4451.6875
2729.46747	4444.0875
2732.06276	4459.2875
2734.65644	4433.5875
2737.24852	4428.0875
2739.83899	4414.2875
2742.42786	4435.9875
2745.01513	4441.8875
2747.60079	4420.8875
2750.18486	4410.7875
2752.76733	4412.6875
2755.3482	4409.5875
2757.92747	4422.3875
2760.50515	4389.8875
2763.08123	4390.8875
2765.65573	4389.5875
2768.22863	4393.2875
2770.79994	4377.1875
2773.36967	4394.4875
2775.9378	4360.4875
2778.50435	4388.5875
2781.06932	4364.0875
2783.6327	4340.8875
2786.1945	4381.6875
2788.75471	4354.7875
2791.31335	4362.2875
2793.87041	4355.5875
2796.42589	4323.7875
2798.97979	4337.0875
2801.53212	4320.9875
2804.08288	4336.3875
2806.63206	4313.1875
2809.17967	4298.5875
2811.72571	4291.9875
2814.27018	4303.8875
2816.81308	4284.4875
2819.35442	4226.7875
2821.89419	4258.1875
2824.43239	4235.9875
2826.96904	4254.5875
2829.50412	4250.1875
2832.03763	4253.2875
2834.56959	4250.1875
2837.1	4238.1875
2839.62884	4244.1875
2842.15613	4228.4875
2844.68186	4246.5875
2847.20604	4212.0875
2849.72867	4201.6875
2852.24974	4189.3875
2854.76927	4162.3875
2857.28724	4128.1875
2859.80367	4183.2875
2862.31855	4169.7875
2864.83189	4150.4875
2867.34368	4161.8875
2869.85393	4166.6875
2872.36264	4116.9875
2874.8698	4137.4875
2877.37543	4139.8875
2879.87952	4135.3875
2882.38207	4110.9875
2884.88308	4135.4875
2887.38256	4121.0875
2889.88051	4126.5875
2892.37692	4129.0875
2894.8718	4109.6875
2897.36515	4135.7875
2899.85698	4128.3875
2902.34727	4122.7875
2904.83604	4123.7875
2907.32328	4138.4875
2909.809	4137.2875
2912.29319	4132.4875
2914.77587	4107.2875
2917.25702	4139.4875
2919.73665	4142.9875
2922.21476	4135.2875
2924.69136	4136.8875
2927.16644	4118.2875
2929.64	4123.1875
2932.11205	4117.2875
2934.58258	4103.2875
2937.05161	4111.8875
2939.51912	4120.9875
2941.98513	4123.4875
2944.44962	4109.6875
2946.91261	4073.1875
2949.37409	4087.2875
2951.83407	4086.9875
2954.29254	4086.4875
2956.74951	4085.1875
2959.20498	4063.6875
2961.65895	4066.8875
2964.11142	4047.8875
2966.56239	4037.6875
2969.01186	4053.0875
2971.45984	4051.5875
2973.90632	4032.4875
2976.35131	4046.9875
2978.7948	4044.0875
2981.23681	4033.5875
2983.67732	4018.2875
2986.11635	4016.5875
2988.55388	3976.5875
2990.98993	3979.8875
2993.4245	3957.1875
2995.85758	3960.2875
2998.28917	3952.1875
3000.71928	3930.0875
3003.14791	3921.9875
3005.57506	3913.8875
3008.00073	3894.1875
3010.42493	3822.0875
3012.84764	3886.0875
3015.26888	3893.3875
3017.68865	3874.1875
3020.10694	3834.0875
3022.52376	3834.1875
3024.9391	3835.8875
3027.35298	3820.2875
3029.76539	3815.2875
3032.17632	3810.4875
3034.5858	3795.0875
3036.9938	3797.1875
3039.40034	3781.9875
3041.80542	3775.1875
3044.20903	3766.9875
3046.61118	3753.5875
3049.01187	3774.6875
3051.4111	3740.3875
3053.80888	3716.6875
3056.20519	3729.0875
3058.60005	3700.5875
3060.99345	3723.7875
3063.3854	3697.5875
3065.7759	3674.6875
3068.16494	3664.0875
3070.55254	3645.0875
3072.93868	3660.8875
3075.32338	3629.7875
3077.70662	3628.1875
3080.08842	3606.3875
3082.46878	3604.9875
3084.84769	3629.3875
3087.22515	3611.4875
3089.60118	3617.3875
3091.97576	3608.5875
3094.3489	3592.1875
3096.72061	3595.8875
3099.09087	3568.6875
3101.4597	3588.5875
3103.82709	3583.8875
3106.19305	3561.1875
3108.55757	3562.1875
3110.92066	3552.9875
3113.28232	3560.6875
3115.64255	3554.2875
3118.00134	3545.3875
3120.35871	3524.4875
3122.71466	3497.5875
3125.06917	3504.3875
3127.42226	3498.1875
3129.77393	3467.9875
3132.12417	3480.7875
3134.47299	3492.5875
3136.82039	3460.8875
3139.16636	3441.2875
3141.51092	3455.6875
3143.85406	3470.0875
3146.19579	3449.3875
3148.53609	3454.9875
3150.87499	3458.5875
3153.21246	3453.7875
3155.54853	3471.2875
3157.88318	3467.2875
3160.21642	3449.7875
3162.54826	3443.0875
3164.87868	3454.9875
3167.2077	3399.6875
3169.5353	3429.1875
3171.86151	3431.3875
3174.18631	3400.2875
3176.5097	3388.7875
3178.83169	3396.0875
3181.15228	3399.3875
3183.47147	3369.3875
3185.78926	3343.1875
3188.10565	3355.1875
3190.42065	3329.8875
3192.73424	3340.5875
3195.04645	3338.6875
3197.35725	3329.1875
3199.66667	3333.5875
3201.97469	3332.4875
3204.28132	3311.9875
3206.58656	3331.1875
3208.8904	3333.7875
3211.19287	3324.0875
3213.49394	3302.2875
3215.79363	3293.7875
3218.09193	3316.0875
3220.38884	3303.3875
3222.68438	3303.4875
3224.97853	3303.1875
3227.2713	3316.1875
3229.56269	3280.3875
3231.8527	3292.0875
3234.14133	3279.3875
3236.42858	3278.9875
3238.71446	3246.7875
3240.99896	3263.2875
3243.28209	3253.8875
3245.56384	3247.7875
3247.84423	3247.7875
3250.12324	3243.0875
3252.40088	3239.9875
3254.67715	3219.7875
3256.95205	3207.4875
3259.22558	3229.5875
3261.49775	3233.9875
3263.76855	3217.7875
3266.03799	3222.5875
3268.30606	3204.7875
3270.57277	3212.3875
3272.83812	3174.8875
3275.10211	3183.8875
3277.36474	3191.0875
3279.62601	3183.3875
3281.88593	3153.3875
3284.14448	3136.6875
3286.40168	3158.1875
3288.65753	3147.9875
3290.91202	3135.9875
3293.16516	3124.3875
3295.41695	3144.1875
3297.66738	3132.5875
3299.91647	3097.8875
3302.16421	3090.7875
3304.4106	3030.7875
3306.65564	3057.4875
3308.89933	2997.1875
3311.14169	2997.1875
3313.38269	2972.7875
3315.62236	2954.0875
3317.86068	2924.7875
3320.09766	2918.0875
3322.3333	2870.9875
3324.5676	2861.2875
3326.80056	2811.3875
3329.03219	2792.2875
3331.26248	0.5875
3333.49143	-1.0125
3335.71905	0.9875
