Data from AgNPs_UA_10uM_CRN_500uM_SU_RamanShift__41__13-12-10-262.txt Node

Date: Thu Aug 04 13:12:10 BST 2022
User: TCL
Spectrometer: QEP01345
Trigger mode: 4
Integration Time (sec): 1.000000E0
Scans to average: 10
Electric dark correction enabled: true
Nonlinearity correction enabled: false
Boxcar width: 0
XAxis mode: Raman Shifts
Number of Pixels in Spectrum: 1044
>>>>>Begin Spectral Data<<<<<
46.04893	0.5375
50.45542	0.3375
54.85868	0.2375
59.25871	-0.4625
63.6555	16.6375
68.04907	16.7375
72.43941	17.5375
76.82654	20.5375
81.21044	17.8375
85.59113	21.0375
89.96862	22.9375
94.34289	20.8375
98.71396	20.9375
103.08183	25.0375
107.4465	23.3375
111.80798	24.0375
116.16626	26.4375
120.52136	27.7375
124.87327	28.0375
129.222	30.2375
133.56755	28.5375
137.90993	33.6375
142.24913	35.7375
146.58517	42.6375
150.91804	47.9375
155.24774	61.4375
159.57429	71.9375
163.89768	93.4375
168.21792	124.3375
172.53501	169.6375
176.84895	235.8375
181.15975	337.6375
185.46741	469.8375
189.77193	653.3375
194.07331	878.2375
198.37157	1137.2375
202.6667	1406.7375
206.9587	1667.6375
211.24758	1926.5375
215.53334	2203.8375
219.81599	2488.8375
224.09553	2777.2375
228.37195	3128.9375
232.64527	3475.3375
236.91549	3872.6375
241.18261	4261.8375
245.44663	4598.0375
249.70755	4898.2375
253.96539	5183.0375
258.22014	5409.1375
262.4718	5591.8375
266.72039	5708.4375
270.96589	5749.7375
275.20832	5752.3375
279.44768	5666.5375
283.68397	5615.6375
287.91719	5554.1375
292.14735	5504.0375
296.37445	5509.1375
300.59849	5537.7375
304.81948	5601.4375
309.03742	5666.1375
313.25231	5694.2375
317.46415	5668.2375
321.67296	5579.4375
325.87872	5527.5375
330.08145	5497.7375
334.28114	5516.5375
338.47781	5589.1375
342.67145	5643.5375
346.86207	5755.5375
351.04966	5891.3375
355.23424	6036.3375
359.4158	6184.5375
363.59435	6259.0375
367.76989	6334.5375
371.94243	6385.0375
376.11196	6397.9375
380.27849	6462.4375
384.44203	6520.0375
388.60257	6560.1375
392.76012	6608.6375
396.91468	6685.9375
401.06626	6777.8375
405.21485	6825.2375
409.36047	6834.0375
413.50311	6763.4375
417.64277	6702.9375
421.77947	6663.5375
425.9132	6633.8375
430.04396	6657.7375
434.17176	6688.0375
438.2966	6718.9375
442.41849	6797.3375
446.53742	6921.2375
450.6534	7038.7375
454.76644	7105.0375
458.87653	7164.0375
462.98368	7214.1375
467.08789	7209.0375
471.18916	7194.5375
475.2875	7099.4375
479.38291	7051.8375
483.4754	7035.7375
487.56496	7002.8375
491.6516	7009.9375
495.73531	7007.7375
499.81612	7033.5375
503.89401	7103.2375
507.96899	7122.3375
512.04106	7130.0375
516.11023	7172.7375
520.1765	7171.7375
524.23987	7203.6375
528.30034	7201.3375
532.35792	7237.3375
536.41261	7211.8375
540.46441	7173.0375
544.51333	7194.1375
548.55936	7244.7375
552.60252	7290.8375
556.64279	7344.3375
560.6802	7427.6375
564.71473	7450.7375
568.7464	7457.6375
572.7752	7451.7375
576.80114	7423.7375
580.82422	7375.8375
584.84444	7388.0375
588.86181	7365.4375
592.87633	7395.8375
596.888	7496.8375
600.89682	7692.6375
604.9028	8107.7375
608.90594	8879.6375
612.90624	9601.3375
616.90371	9194.9375
620.89834	8172.1375
624.89015	7778.3375
628.87913	7749.8375
632.86528	7852.3375
636.84862	7911.7375
640.82913	7835.8375
644.80683	7732.4375
648.78172	7653.4375
652.75379	7671.5375
656.72306	7772.1375
660.68952	7925.7375
664.65319	7908.4375
668.61405	7927.9375
672.57211	8001.9375
676.52738	8009.0375
680.47986	7926.6375
684.42955	7825.6375
688.37646	7848.6375
692.32058	7893.6375
696.26192	7959.9375
700.20048	8085.9375
704.13626	8114.5375
708.06928	8053.5375
711.99952	8018.0375
715.927	8019.7375
719.85171	8051.6375
723.77365	8074.6375
727.69284	8062.0375
731.60928	8053.4375
735.52295	8039.1375
739.43388	8072.0375
743.34206	8098.4375
747.24749	8099.5375
751.15017	8113.1375
755.05012	8151.8375
758.94733	8241.7375
762.8418	8553.3375
766.73354	8934.8375
770.62254	9285.5375
774.50882	9403.5375
778.39237	9360.3375
782.27321	9127.5375
786.15132	8810.3375
790.02671	8527.5375
793.89938	8364.0375
797.76935	8312.3375
801.6366	8241.7375
805.50115	8204.6375
809.36299	8230.7375
813.22213	8232.2375
817.07857	8252.8375
820.93231	8260.4375
824.78336	8263.1375
828.63172	8276.4375
832.47738	8309.0375
836.32036	8289.9375
840.16066	8294.3375
843.99827	8310.5375
847.8332	8321.0375
851.66546	8348.7375
855.49504	8372.9375
859.32195	8378.4375
863.1462	8368.7375
866.96777	8408.1375
870.78668	8425.9375
874.60293	8438.0375
878.41652	8479.9375
882.22745	8531.1375
886.03573	8554.0375
889.84136	8559.7375
893.64433	8535.0375
897.44466	8528.0375
901.24235	8509.2375
905.0374	8546.0375
908.8298	8536.6375
912.61957	8532.2375
916.40671	8540.3375
920.19121	8519.3375
923.97308	8528.6375
927.75233	8576.0375
931.52895	8601.4375
935.30295	8588.9375
939.07433	8548.7375
942.84309	8517.8375
946.60924	8501.2375
950.37278	8515.0375
954.13371	8496.6375
957.89203	8497.0375
961.64774	8522.3375
965.40086	8492.4375
969.15137	8488.2375
972.89929	8506.5375
976.64461	8483.2375
980.38733	8492.4375
984.12747	8501.2375
987.86502	8527.7375
991.59999	8545.4375
995.33237	8603.7375
999.06217	8611.1375
1002.78939	8671.2375
1006.51404	8761.9375
1010.23611	8832.4375
1013.95561	8883.3375
1017.67255	8911.2375
1021.38692	8905.3375
1025.09872	8899.8375
1028.80796	8821.5375
1032.51465	8835.9375
1036.21877	8850.7375
1039.92035	8858.9375
1043.61937	8880.7375
1047.31584	8900.1375
1051.00976	8904.6375
1054.70114	8949.5375
1058.38998	8955.8375
1062.07627	8986.8375
1065.76003	9033.1375
1069.44126	9101.3375
1073.11995	9230.0375
1076.79611	9338.9375
1080.46974	9399.1375
1084.14085	9409.1375
1087.80943	9433.6375
1091.47549	9452.7375
1095.13903	9508.7375
1098.80005	9559.0375
1102.45857	9642.3375
1106.11456	9667.1375
1109.76805	9545.4375
1113.41903	9494.7375
1117.06751	9494.5375
1120.71348	9532.0375
1124.35696	9553.4375
1127.99793	9599.7375
1131.63641	9505.6375
1135.2724	9425.8375
1138.90589	9328.4375
1142.5369	9292.7375
1146.16542	9261.9375
1149.79145	9211.5375
1153.415	9181.2375
1157.03607	9123.3375
1160.65467	9151.3375
1164.27079	9242.0375
1167.88443	9390.2375
1171.49561	9593.7375
1175.10432	9848.2375
1178.71056	10213.6375
1182.31434	10509.2375
1185.91565	10680.9375
1189.51451	10763.9375
1193.11091	10733.3375
1196.70485	10677.0375
1200.29634	10574.9375
1203.88538	10435.3375
1207.47197	10262.7375
1211.05612	10062.6375
1214.63782	9886.0375
1218.21708	9736.6375
1221.79391	9637.9375
1225.36829	9606.8375
1228.94024	9577.5375
1232.50976	9600.6375
1236.07685	9617.4375
1239.6415	9648.9375
1243.20374	9690.8375
1246.76355	9737.8375
1250.32093	9782.4375
1253.8759	9829.8375
1257.42845	9957.6375
1260.97859	10086.5375
1264.52631	10215.2375
1268.07163	10311.6375
1271.61453	10361.0375
1275.15503	10368.9375
1278.69312	10320.7375
1282.22882	10309.1375
1285.76211	10324.9375
1289.29301	10386.5375
1292.82151	10477.1375
1296.34761	10566.3375
1299.87133	10725.8375
1303.39266	10964.2375
1306.9116	11319.1375
1310.42815	11671.0375
1313.94233	11804.4375
1317.45412	11700.0375
1320.96354	11445.8375
1324.47058	11199.9375
1327.97525	10972.0375
1331.47754	10796.6375
1334.97747	10728.4375
1338.47502	10818.3375
1341.97022	11033.7375
1345.46305	11364.6375
1348.95352	11867.8375
1352.44163	12342.4375
1355.92738	12673.0375
1359.41078	13037.9375
1362.89183	13203.2375
1366.37053	12832.5375
1369.84688	11949.5375
1373.32088	11075.1375
1376.79254	10561.8375
1380.26186	10306.7375
1383.72883	10138.9375
1387.19347	9982.6375
1390.65578	9802.4375
1394.11575	9651.6375
1397.57339	9545.0375
1401.0287	9505.7375
1404.48168	9490.9375
1407.93234	9532.9375
1411.38068	9611.3375
1414.82669	9680.9375
1418.27039	9670.9375
1421.71177	9663.4375
1425.15083	9634.3375
1428.58758	9573.3375
1432.02203	9559.3375
1435.45416	9528.4375
1438.88399	9494.8375
1442.31151	9501.0375
1445.73673	9514.4375
1449.15965	9504.2375
1452.58027	9520.3375
1455.9986	9516.3375
1459.41463	9543.4375
1462.82837	9567.8375
1466.23982	9675.4375
1469.64898	9768.0375
1473.05586	9864.3375
1476.46045	9913.3375
1479.86276	9989.9375
1483.26279	10057.7375
1486.66054	10140.6375
1490.05602	10288.2375
1493.44922	10520.4375
1496.84016	10819.7375
1500.22882	11272.4375
1503.61521	11745.7375
1506.99934	12180.9375
1510.38121	12353.1375
1513.76081	12186.4375
1517.13816	11729.0375
1520.51324	11164.3375
1523.88607	10715.7375
1527.25665	10412.7375
1530.62498	10289.7375
1533.99105	10253.7375
1537.35488	10235.7375
1540.71647	10181.5375
1544.07581	10177.3375
1547.4329	10128.6375
1550.78776	10073.9375
1554.14038	10004.5375
1557.49077	9988.4375
1560.83892	10037.9375
1564.18484	10142.2375
1567.52853	10252.7375
1570.86999	10294.2375
1574.20922	10344.7375
1577.54624	10299.5375
1580.88103	10145.2375
1584.2136	9942.0375
1587.54395	9840.4375
1590.87208	9837.6375
1594.19801	9966.4375
1597.52172	10112.7375
1600.84321	10194.5375
1604.16251	10145.7375
1607.47959	10080.7375
1610.79447	9951.9375
1614.10715	9745.7375
1617.41763	9539.9375
1620.7259	9371.9375
1624.03199	9275.8375
1627.33587	9198.9375
1630.63757	9221.7375
1633.93707	9334.4375
1637.23439	9549.1375
1640.52951	9867.5375
1643.82246	10337.6375
1647.11321	10732.5375
1650.40179	10900.3375
1653.68819	10668.7375
1656.97241	10117.4375
1660.25446	9579.1375
1663.53433	9228.1375
1666.81203	8970.0375
1670.08756	8814.1375
1673.36092	8762.3375
1676.63211	8693.6375
1679.90115	8632.8375
1683.16801	8593.5375
1686.43272	8529.5375
1689.69527	8491.2375
1692.95567	8471.0375
1696.2139	8458.5375
1699.46999	8441.0375
1702.72392	8435.1375
1705.97571	8441.0375
1709.22535	8416.2375
1712.47284	8426.3375
1715.71819	8417.3375
1718.96139	8430.5375
1722.20246	8450.1375
1725.44139	8423.6375
1728.67818	8400.2375
1731.91284	8372.8375
1735.14537	8357.1375
1738.37576	8330.2375
1741.60403	8324.5375
1744.83017	8290.5375
1748.05418	8299.7375
1751.27607	8268.5375
1754.49584	8272.2375
1757.71349	8274.9375
1760.92903	8269.1375
1764.14244	8247.6375
1767.35375	8225.1375
1770.56294	8230.6375
1773.77002	8225.6375
1776.97499	8198.9375
1780.17785	8166.4375
1783.37861	8160.7375
1786.57727	8171.4375
1789.77382	8159.8375
1792.96828	8159.2375
1796.16064	8134.4375
1799.3509	8120.3375
1802.53907	8122.5375
1805.72514	8111.8375
1808.90913	8089.6375
1812.09102	8079.1375
1815.27083	8065.3375
1818.44856	8032.8375
1821.6242	8022.9375
1824.79776	8023.6375
1827.96924	8024.1375
1831.13864	7998.4375
1834.30597	8013.8375
1837.47122	7968.6375
1840.6344	7972.3375
1843.7955	7980.7375
1846.95454	7955.6375
1850.11151	7973.5375
1853.26642	7952.8375
1856.41926	7967.5375
1859.57004	7980.2375
1862.71876	7972.5375
1865.86542	7964.6375
1869.01003	7953.2375
1872.15258	7921.5375
1875.29308	7914.8375
1878.43152	7904.9375
1881.56792	7895.7375
1884.70227	7887.0375
1887.83457	7861.1375
1890.96482	7870.3375
1894.09304	7828.9375
1897.21921	7837.6375
1900.34335	7827.6375
1903.46544	7827.5375
1906.58551	7803.8375
1909.70353	7804.6375
1912.81953	7807.2375
1915.93349	7806.9375
1919.04543	7771.1375
1922.15534	7759.7375
1925.26322	7752.7375
1928.36908	7752.0375
1931.47292	7717.6375
1934.57473	7728.3375
1937.67453	7701.7375
1940.77232	7663.5375
1943.86808	7645.2375
1946.96184	7625.5375
1950.05358	7634.4375
1953.14331	7611.3375
1956.23103	7572.7375
1959.31675	7563.9375
1962.40046	7532.9375
1965.48217	7519.7375
1968.56188	7460.5375
1971.63959	7450.8375
1974.7153	7452.6375
1977.78901	7444.5375
1980.86073	7438.4375
1983.93046	7392.9375
1986.99819	7353.3375
1990.06394	7355.8375
1993.1277	7319.0375
1996.18947	7294.9375
1999.24925	7267.4375
2002.30706	7249.3375
2005.36288	7236.4375
2008.41672	7211.0375
2011.46859	7188.2375
2014.51848	7170.3375
2017.56639	7154.1375
2020.61233	7122.3375
2023.6563	7106.9375
2026.6983	7076.0375
2029.73833	7064.5375
2032.7764	7047.8375
2035.8125	7043.3375
2038.84664	7032.3375
2041.87881	7008.9375
2044.90903	6997.4375
2047.93729	6990.0375
2050.96359	6982.5375
2053.98794	6952.9375
2057.01034	6957.8375
2060.03078	6944.1375
2063.04927	6936.6375
2066.06582	6932.7375
2069.08042	6935.6375
2072.09307	6939.2375
2075.10378	6915.5375
2078.11255	6926.8375
2081.11938	6919.6375
2084.12426	6900.8375
2087.12722	6916.4375
2090.12824	6902.9375
2093.12732	6892.3375
2096.12447	6899.7375
2099.11969	6906.8375
2102.11299	6905.4375
2105.10435	6909.1375
2108.09379	6913.6375
2111.08131	6886.1375
2114.0669	6900.3375
2117.05057	6931.8375
2120.03233	6924.1375
2123.01216	6915.6375
2125.99008	6913.6375
2128.96609	6907.2375
2131.94018	6932.2375
2134.91236	6937.3375
2137.88263	6928.8375
2140.851	6934.0375
2143.81746	6942.8375
2146.78201	6929.8375
2149.74466	6931.4375
2152.7054	6949.0375
2155.66425	6954.2375
2158.6212	6928.3375
2161.57625	6925.7375
2164.52941	6925.9375
2167.48067	6939.1375
2170.43004	6930.2375
2173.37752	6903.1375
2176.32311	6901.4375
2179.26681	6917.2375
2182.20863	6936.7375
2185.14856	6922.2375
2188.08661	6917.4375
2191.02278	6909.5375
2193.95707	6912.3375
2196.88948	6901.6375
2199.82001	6903.3375
2202.74867	6892.8375
2205.67545	6894.6375
2208.60037	6871.7375
2211.52341	6869.3375
2214.44458	6842.1375
2217.36388	6830.5375
2220.28132	6798.6375
2223.1969	6802.7375
2226.11061	6754.4375
2229.02246	6760.8375
2231.93245	6741.2375
2234.84058	6751.5375
2237.74686	6747.1375
2240.65128	6715.0375
2243.55385	6706.0375
2246.45456	6700.9375
2249.35343	6698.5375
2252.25044	6674.1375
2255.14561	6673.6375
2258.03893	6685.4375
2260.93041	6645.8375
2263.82004	6642.0375
2266.70783	6608.7375
2269.59378	6603.8375
2272.4779	6594.9375
2275.36017	6571.4375
2278.24061	6554.4375
2281.11922	6539.5375
2283.996	6543.2375
2286.87094	6508.3375
2289.74405	6519.9375
2292.61534	6501.3375
2295.4848	6494.1375
2298.35243	6475.7375
2301.21824	6470.1375
2304.08223	6478.4375
2306.94439	6461.3375
2309.80474	6454.9375
2312.66327	6455.3375
2315.51999	6448.0375
2318.37489	6439.3375
2321.22797	6401.6375
2324.07925	6391.8375
2326.92871	6401.8375
2329.77637	6380.6375
2332.62222	6379.0375
2335.46626	6354.5375
2338.3085	6352.6375
2341.14893	6337.9375
2343.98756	6327.8375
2346.8244	6322.4375
2349.65943	6304.8375
2352.49267	6293.1375
2355.32411	6287.5375
2358.15376	6287.5375
2360.98161	6288.7375
2363.80768	6288.6375
2366.63195	6258.9375
2369.45444	6239.2375
2372.27514	6266.2375
2375.09405	6251.4375
2377.91118	6223.3375
2380.72652	6231.2375
2383.54009	6218.4375
2386.35187	6213.5375
2389.16188	6196.7375
2391.97011	6187.8375
2394.77657	6159.2375
2397.58125	6131.9375
2400.38416	6150.8375
2403.18529	6127.0375
2405.98466	6120.4375
2408.78226	6098.5375
2411.57809	6084.5375
2414.37216	6090.6375
2417.16446	6085.1375
2419.955	6073.3375
2422.74378	6079.9375
2425.5308	6050.8375
2428.31606	6064.6375
2431.09956	6029.6375
2433.88131	6039.1375
2436.6613	6035.2375
2439.43954	6024.8375
2442.21603	6023.2375
2444.99077	6014.1375
2447.76377	6001.7375
2450.53501	5999.3375
2453.30451	6003.4375
2456.07226	5982.0375
2458.83827	5976.8375
2461.60254	5953.1375
2464.36507	5939.8375
2467.12586	5928.5375
2469.88492	5927.8375
2472.64224	5930.4375
2475.39782	5921.0375
2478.15167	5914.2375
2480.90379	5904.3375
2483.65417	5896.0375
2486.40283	5882.1375
2489.14976	5874.6375
2491.89497	5882.2375
2494.63845	5869.0375
2497.3802	5868.2375
2500.12024	5848.2375
2502.85855	5834.9375
2505.59514	5854.8375
2508.33002	5842.4375
2511.06318	5823.9375
2513.79462	5814.5375
2516.52435	5803.8375
2519.25237	5795.0375
2521.97867	5776.8375
2524.70327	5775.8375
2527.42616	5763.6375
2530.14734	5745.6375
2532.86681	5737.9375
2535.58458	5756.0375
2538.30065	5742.8375
2541.01501	5755.0375
2543.72768	5724.2375
2546.43864	5726.7375
2549.14791	5676.2375
2551.85548	5705.2375
2554.56136	5667.8375
2557.26554	5675.0375
2559.96803	5651.9375
2562.66883	5645.0375
2565.36794	5622.6375
2568.06536	5628.1375
2570.7611	5586.5375
2573.45514	5597.6375
2576.14751	5576.9375
2578.83819	5554.4375
2581.52719	5554.2375
2584.21451	5537.0375
2586.90015	5539.0375
2589.58411	5520.9375
2592.2664	5505.4375
2594.94701	5504.2375
2597.62594	5490.4375
2600.30321	5482.2375
2602.9788	5478.5375
2605.65273	5455.5375
2608.32498	5455.3375
2610.99557	5435.8375
2613.66449	5451.5375
2616.33175	5417.5375
2618.99734	5415.7375
2621.66128	5406.7375
2624.32355	5391.6375
2626.98416	5384.0375
2629.64311	5366.9375
2632.30041	5363.6375
2634.95605	5355.5375
2637.61004	5331.5375
2640.26238	5336.3375
2642.91306	5321.0375
2645.56209	5305.3375
2648.20948	5310.1375
2650.85521	5303.3375
2653.4993	5298.2375
2656.14175	5295.8375
2658.78255	5280.8375
2661.42171	5280.8375
2664.05923	5303.2375
2666.6951	5299.2375
2669.32934	5313.8375
2671.96194	5299.7375
2674.59291	5277.1375
2677.22224	5287.2375
2679.84993	5284.7375
2682.476	5284.9375
2685.10043	5278.4375
2687.72324	5267.8375
2690.34441	5279.5375
2692.96396	5256.4375
2695.58188	5253.7375
2698.19818	5250.5375
2700.81285	5274.1375
2703.4259	5242.2375
2706.03733	5245.5375
2708.64714	5245.4375
2711.25533	5245.5375
2713.86191	5232.5375
2716.46687	5233.7375
2719.07021	5227.1375
2721.67194	5232.6375
2724.27206	5236.3375
2726.87057	5234.4375
2729.46747	5230.3375
2732.06276	5212.9375
2734.65644	5221.0375
2737.24852	5202.0375
2739.83899	5201.5375
2742.42786	5192.5375
2745.01513	5183.4375
2747.60079	5149.0375
2750.18486	5164.6375
2752.76733	5177.5375
2755.3482	5150.0375
2757.92747	5130.5375
2760.50515	5133.0375
2763.08123	5117.2375
2765.65573	5109.0375
2768.22863	5088.5375
2770.79994	5087.8375
2773.36967	5089.8375
2775.9378	5072.1375
2778.50435	5063.2375
2781.06932	5066.1375
2783.6327	5063.6375
2786.1945	5046.7375
2788.75471	5039.1375
2791.31335	5015.5375
2793.87041	5003.1375
2796.42589	4985.6375
2798.97979	4996.9375
2801.53212	4969.1375
2804.08288	4973.6375
2806.63206	4951.5375
2809.17967	4948.6375
2811.72571	4934.7375
2814.27018	4911.6375
2816.81308	4896.1375
2819.35442	4886.1375
2821.89419	4897.2375
2824.43239	4845.9375
2826.96904	4857.0375
2829.50412	4847.8375
2832.03763	4841.2375
2834.56959	4827.7375
2837.1	4814.1375
2839.62884	4809.3375
2842.15613	4786.5375
2844.68186	4793.3375
2847.20604	4805.1375
2849.72867	4793.5375
2852.24974	4769.5375
2854.76927	4748.9375
2857.28724	4760.4375
2859.80367	4736.6375
2862.31855	4721.5375
2864.83189	4739.9375
2867.34368	4719.0375
2869.85393	4730.2375
2872.36264	4717.8375
2874.8698	4703.8375
2877.37543	4711.2375
2879.87952	4710.0375
2882.38207	4696.3375
2884.88308	4691.4375
2887.38256	4696.8375
2889.88051	4677.1375
2892.37692	4671.4375
2894.8718	4668.2375
2897.36515	4675.7375
2899.85698	4681.3375
2902.34727	4671.5375
2904.83604	4670.2375
2907.32328	4677.3375
2909.809	4676.2375
2912.29319	4664.8375
2914.77587	4674.0375
2917.25702	4673.4375
2919.73665	4658.9375
2922.21476	4665.8375
2924.69136	4647.5375
2927.16644	4656.8375
2929.64	4661.2375
2932.11205	4629.6375
2934.58258	4625.5375
2937.05161	4632.7375
2939.51912	4633.5375
2941.98513	4619.7375
2944.44962	4616.7375
2946.91261	4595.7375
2949.37409	4607.3375
2951.83407	4613.1375
2954.29254	4605.9375
2956.74951	4605.9375
2959.20498	4604.8375
2961.65895	4595.4375
2964.11142	4600.6375
2966.56239	4579.8375
2969.01186	4593.0375
2971.45984	4574.7375
2973.90632	4581.9375
2976.35131	4537.4375
2978.7948	4546.7375
2981.23681	4542.5375
2983.67732	4532.5375
2986.11635	4537.4375
2988.55388	4512.2375
2990.98993	4520.4375
2993.4245	4507.0375
2995.85758	4491.8375
2998.28917	4492.5375
3000.71928	4466.1375
3003.14791	4458.7375
3005.57506	4440.2375
3008.00073	4439.4375
3010.42493	4413.3375
3012.84764	4416.2375
3015.26888	4422.1375
3017.68865	4408.4375
3020.10694	4394.2375
3022.52376	4374.8375
3024.9391	4390.0375
3027.35298	4357.3375
3029.76539	4357.7375
3032.17632	4346.9375
3034.5858	4343.8375
3036.9938	4332.4375
3039.40034	4320.4375
3041.80542	4312.6375
3044.20903	4302.4375
3046.61118	4297.2375
3049.01187	4293.9375
3051.4111	4289.7375
3053.80888	4265.1375
3056.20519	4249.6375
3058.60005	4235.4375
3060.99345	4252.5375
3063.3854	4232.1375
3065.7759	4236.5375
3068.16494	4222.6375
3070.55254	4193.2375
3072.93868	4201.4375
3075.32338	4165.3375
3077.70662	4155.2375
3080.08842	4149.0375
3082.46878	4149.4375
3084.84769	4147.5375
3087.22515	4138.4375
3089.60118	4133.6375
3091.97576	4141.6375
3094.3489	4126.8375
3096.72061	4133.9375
3099.09087	4134.6375
3101.4597	4112.1375
3103.82709	4130.8375
3106.19305	4124.1375
3108.55757	4131.9375
3110.92066	4110.9375
3113.28232	4089.2375
3115.64255	4075.3375
3118.00134	4082.3375
3120.35871	4063.6375
3122.71466	4063.6375
3125.06917	4055.5375
3127.42226	4041.0375
3129.77393	4047.0375
3132.12417	4023.4375
3134.47299	4010.9375
3136.82039	4015.5375
3139.16636	4009.9375
3141.51092	4023.0375
3143.85406	3994.3375
3146.19579	3998.1375
3148.53609	4012.8375
3150.87499	3998.7375
3153.21246	3992.9375
3155.54853	4000.7375
3157.88318	3996.1375
3160.21642	3989.7375
3162.54826	4001.5375
3164.87868	3980.6375
3167.2077	3988.6375
3169.5353	3968.0375
3171.86151	3982.3375
3174.18631	3967.7375
3176.5097	3956.6375
3178.83169	3954.9375
3181.15228	3937.5375
3183.47147	3931.3375
3185.78926	3930.3375
3188.10565	3918.1375
3190.42065	3893.8375
3192.73424	3894.7375
3195.04645	3898.6375
3197.35725	3889.5375
3199.66667	3878.5375
3201.97469	3893.2375
3204.28132	3875.4375
3206.58656	3882.1375
3208.8904	3882.2375
3211.19287	3883.4375
3213.49394	3888.9375
3215.79363	3883.5375
3218.09193	3871.8375
3220.38884	3879.1375
3222.68438	3886.0375
3224.97853	3867.9375
3227.2713	3869.6375
3229.56269	3848.7375
3231.8527	3849.3375
3234.14133	3841.0375
3236.42858	3829.9375
3238.71446	3819.3375
3240.99896	3812.5375
3243.28209	3805.1375
3245.56384	3788.7375
3247.84423	3777.0375
3250.12324	3770.6375
3252.40088	3769.4375
3254.67715	3768.4375
3256.95205	3770.1375
3259.22558	3767.4375
3261.49775	3760.9375
3263.76855	3764.4375
3266.03799	3761.1375
3268.30606	3762.0375
3270.57277	3754.7375
3272.83812	3742.8375
3275.10211	3734.6375
3277.36474	3712.5375
3279.62601	3713.7375
3281.88593	3708.9375
3284.14448	3706.9375
3286.40168	3706.6375
3288.65753	3693.7375
3290.91202	3682.0375
3293.16516	3672.2375
3295.41695	3673.4375
3297.66738	3658.3375
3299.91647	3648.3375
3302.16421	3611.1375
3304.4106	3597.2375
3306.65564	3559.0375
3308.89933	3539.0375
3311.14169	3512.5375
3313.38269	3469.9375
3315.62236	3457.1375
3317.86068	3422.2375
3320.09766	3403.9375
3322.3333	3382.2375
3324.5676	3352.6375
3326.80056	3304.9375
3329.03219	3260.6375
3331.26248	0.1375
3333.49143	0.3375
3335.71905	-0.4625
