Data from AgNPs_UA_50uM_CRN_500uM_SU_RamanShift__20__13-59-10-317.txt Node

Date: Thu Aug 04 13:59:10 BST 2022
User: TCL
Spectrometer: QEP01345
Trigger mode: 4
Integration Time (sec): 1.000000E0
Scans to average: 10
Electric dark correction enabled: true
Nonlinearity correction enabled: false
Boxcar width: 0
XAxis mode: Raman Shifts
Number of Pixels in Spectrum: 1044
>>>>>Begin Spectral Data<<<<<
46.04893	0.2375
50.45542	-1.6625
54.85868	0.1375
59.25871	-0.9625
63.6555	13.1375
68.04907	14.1375
72.43941	15.4375
76.82654	16.2375
81.21044	16.0375
85.59113	17.3375
89.96862	18.1375
94.34289	19.4375
98.71396	17.9375
103.08183	18.2375
107.4465	17.7375
111.80798	18.4375
116.16626	19.5375
120.52136	20.3375
124.87327	23.8375
129.222	25.4375
133.56755	28.0375
137.90993	29.0375
142.24913	30.4375
146.58517	35.2375
150.91804	43.5375
155.24774	50.6375
159.57429	63.8375
163.89768	83.6375
168.21792	109.1375
172.53501	154.8375
176.84895	214.1375
181.15975	310.2375
185.46741	435.0375
189.77193	601.0375
194.07331	807.8375
198.37157	1041.8375
202.6667	1303.0375
206.9587	1562.8375
211.24758	1823.0375
215.53334	2100.2375
219.81599	2379.3375
224.09553	2724.8375
228.37195	3078.0375
232.64527	3470.1375
236.91549	3835.6375
241.18261	4148.8375
245.44663	4388.1375
249.70755	4570.0375
253.96539	4681.2375
258.22014	4810.3375
262.4718	4911.5375
266.72039	4975.5375
270.96589	4983.7375
275.20832	4920.0375
279.44768	4826.9375
283.68397	4761.4375
287.91719	4704.7375
292.14735	4733.7375
296.37445	4847.0375
300.59849	5050.2375
304.81948	5347.6375
309.03742	5623.4375
313.25231	5815.0375
317.46415	5752.2375
321.67296	5476.2375
325.87872	5124.5375
330.08145	4939.2375
334.28114	4917.3375
338.47781	4972.9375
342.67145	5108.4375
346.86207	5273.9375
351.04966	5559.5375
355.23424	5832.2375
359.4158	5995.6375
363.59435	6064.2375
367.76989	6030.2375
371.94243	5936.4375
376.11196	5858.5375
380.27849	5813.3375
384.44203	5762.5375
388.60257	5742.6375
392.76012	5780.6375
396.91468	5874.9375
401.06626	5969.8375
405.21485	6014.9375
409.36047	5858.0375
413.50311	5591.0375
417.64277	5337.0375
421.77947	5217.0375
425.9132	5147.3375
430.04396	5158.7375
434.17176	5174.6375
438.2966	5247.2375
442.41849	5339.6375
446.53742	5459.9375
450.6534	5558.7375
454.76644	5623.6375
458.87653	5594.6375
462.98368	5565.5375
467.08789	5533.5375
471.18916	5431.2375
475.2875	5312.7375
479.38291	5202.7375
483.4754	5121.8375
487.56496	5097.2375
491.6516	5083.4375
495.73531	5076.9375
499.81612	5088.3375
503.89401	5119.7375
507.96899	5187.3375
512.04106	5245.4375
516.11023	5330.9375
520.1765	5386.4375
524.23987	5393.5375
528.30034	5375.6375
532.35792	5355.9375
536.41261	5298.3375
540.46441	5220.5375
544.51333	5165.5375
548.55936	5212.1375
552.60252	5286.1375
556.64279	5385.8375
560.6802	5464.9375
564.71473	5554.5375
568.7464	5696.1375
572.7752	5685.3375
576.80114	5476.7375
580.82422	5308.3375
584.84444	5233.9375
588.86181	5219.2375
592.87633	5230.9375
596.888	5338.9375
600.89682	5653.1375
604.9028	6441.7375
608.90594	8174.9375
612.90624	10028.4375
616.90371	9211.5375
620.89834	6690.7375
624.89015	5598.2375
628.87913	5469.0375
632.86528	5618.1375
636.84862	5710.2375
640.82913	5584.1375
644.80683	5335.2375
648.78172	5205.9375
652.75379	5190.2375
656.72306	5401.9375
660.68952	5593.9375
664.65319	5506.2375
668.61405	5319.0375
672.57211	5267.7375
676.52738	5257.5375
680.47986	5196.7375
684.42955	5111.4375
688.37646	5072.3375
692.32058	5108.3375
696.26192	5177.3375
700.20048	5264.5375
704.13626	5283.6375
708.06928	5256.6375
711.99952	5214.7375
715.927	5223.0375
719.85171	5251.2375
723.77365	5259.3375
727.69284	5242.4375
731.60928	5182.0375
735.52295	5185.0375
739.43388	5191.4375
743.34206	5212.9375
747.24749	5215.8375
751.15017	5213.3375
755.05012	5308.5375
758.94733	5569.7375
762.8418	6272.7375
766.73354	7305.5375
770.62254	8089.7375
774.50882	8177.1375
778.39237	7675.1375
782.27321	6903.1375
786.15132	6098.7375
790.02671	5572.9375
793.89938	5315.3375
797.76935	5207.8375
801.6366	5136.8375
805.50115	5124.9375
809.36299	5099.7375
813.22213	5088.5375
817.07857	5083.3375
820.93231	5075.4375
824.78336	5103.4375
828.63172	5126.4375
832.47738	5124.9375
836.32036	5101.9375
840.16066	5080.4375
843.99827	5072.6375
847.8332	5055.8375
851.66546	5083.5375
855.49504	5088.9375
859.32195	5067.9375
863.1462	5065.9375
866.96777	5076.2375
870.78668	5078.4375
874.60293	5092.6375
878.41652	5117.1375
882.22745	5156.1375
886.03573	5182.1375
889.84136	5189.4375
893.64433	5168.3375
897.44466	5154.8375
901.24235	5146.3375
905.0374	5108.1375
908.8298	5103.9375
912.61957	5063.6375
916.40671	5069.0375
920.19121	5105.8375
923.97308	5170.3375
927.75233	5233.4375
931.52895	5275.7375
935.30295	5201.6375
939.07433	5086.0375
942.84309	4980.9375
946.60924	4971.7375
950.37278	4949.6375
954.13371	4940.8375
957.89203	4934.8375
961.64774	4916.4375
965.40086	4913.9375
969.15137	4913.9375
972.89929	4908.0375
976.64461	4914.9375
980.38733	4908.2375
984.12747	4916.2375
987.86502	4942.8375
991.59999	4980.2375
995.33237	5012.8375
999.06217	5075.3375
1002.78939	5177.0375
1006.51404	5295.0375
1010.23611	5422.5375
1013.95561	5437.9375
1017.67255	5434.3375
1021.38692	5392.5375
1025.09872	5301.9375
1028.80796	5208.9375
1032.51465	5179.0375
1036.21877	5201.2375
1039.92035	5252.8375
1043.61937	5283.1375
1047.31584	5304.7375
1051.00976	5306.2375
1054.70114	5305.5375
1058.38998	5288.5375
1062.07627	5304.4375
1065.76003	5370.2375
1069.44126	5441.0375
1073.11995	5550.2375
1076.79611	5667.4375
1080.46974	5811.5375
1084.14085	5897.5375
1087.80943	6004.2375
1091.47549	6028.9375
1095.13903	5988.6375
1098.80005	5905.0375
1102.45857	5790.4375
1106.11456	5699.6375
1109.76805	5664.3375
1113.41903	5708.5375
1117.06751	5831.3375
1120.71348	6016.6375
1124.35696	6283.1375
1127.99793	6484.3375
1131.63641	6344.3375
1135.2724	6058.2375
1138.90589	5856.6375
1142.5369	5734.9375
1146.16542	5690.1375
1149.79145	5648.2375
1153.415	5578.9375
1157.03607	5522.1375
1160.65467	5569.4375
1164.27079	5681.8375
1167.88443	5889.1375
1171.49561	6200.1375
1175.10432	6711.2375
1178.71056	7437.7375
1182.31434	8048.0375
1185.91565	8197.3375
1189.51451	8006.6375
1193.11091	7771.3375
1196.70485	7498.3375
1200.29634	7315.5375
1203.88538	7094.3375
1207.47197	6793.4375
1211.05612	6509.3375
1214.63782	6310.8375
1218.21708	6106.5375
1221.79391	5977.6375
1225.36829	5914.6375
1228.94024	5871.1375
1232.50976	5852.8375
1236.07685	5882.7375
1239.6415	5885.4375
1243.20374	5917.7375
1246.76355	5970.1375
1250.32093	6034.8375
1253.8759	6172.4375
1257.42845	6365.4375
1260.97859	6562.5375
1264.52631	6752.7375
1268.07163	6876.0375
1271.61453	6953.1375
1275.15503	6949.5375
1278.69312	6962.9375
1282.22882	6977.2375
1285.76211	7085.1375
1289.29301	7290.3375
1292.82151	7496.2375
1296.34761	7656.8375
1299.87133	7951.0375
1303.39266	8493.0375
1306.9116	9337.9375
1310.42815	10225.3375
1313.94233	10459.9375
1317.45412	9864.0375
1320.96354	9053.2375
1324.47058	8322.6375
1327.97525	7739.9375
1331.47754	7414.1375
1334.97747	7340.5375
1338.47502	7453.9375
1341.97022	7749.7375
1345.46305	8341.0375
1348.95352	9132.4375
1352.44163	10018.3375
1355.92738	11028.0375
1359.41078	12347.3375
1362.89183	13446.7375
1366.37053	12882.0375
1369.84688	10789.2375
1373.32088	8803.2375
1376.79254	7714.7375
1380.26186	7224.0375
1383.72883	6916.3375
1387.19347	6638.9375
1390.65578	6375.0375
1394.11575	6183.8375
1397.57339	6024.7375
1401.0287	5936.4375
1404.48168	5880.5375
1407.93234	5886.7375
1411.38068	5951.2375
1414.82669	6016.5375
1418.27039	6040.2375
1421.71177	6010.7375
1425.15083	5961.4375
1428.58758	5902.3375
1432.02203	5939.5375
1435.45416	6019.3375
1438.88399	6060.3375
1442.31151	6081.3375
1445.73673	6129.4375
1449.15965	6179.5375
1452.58027	6154.8375
1455.9986	6082.0375
1459.41463	6042.9375
1462.82837	6128.5375
1466.23982	6236.6375
1469.64898	6398.5375
1473.05586	6503.4375
1476.46045	6571.5375
1479.86276	6619.0375
1483.26279	6733.8375
1486.66054	6883.3375
1490.05602	7154.6375
1493.44922	7539.2375
1496.84016	8217.1375
1500.22882	9206.7375
1503.61521	10517.4375
1506.99934	11820.5375
1510.38121	12640.8375
1513.76081	12446.3375
1517.13816	11290.7375
1520.51324	9771.4375
1523.88607	8530.2375
1527.25665	7780.2375
1530.62498	7417.8375
1533.99105	7248.3375
1537.35488	7148.5375
1540.71647	7062.9375
1544.07581	6997.9375
1547.4329	6911.6375
1550.78776	6817.2375
1554.14038	6738.9375
1557.49077	6765.7375
1560.83892	6844.9375
1564.18484	7031.8375
1567.52853	7355.9375
1570.86999	7574.8375
1574.20922	7679.2375
1577.54624	7527.0375
1580.88103	7099.1375
1584.2136	6592.3375
1587.54395	6318.7375
1590.87208	6268.6375
1594.19801	6472.9375
1597.52172	6726.3375
1600.84321	6855.7375
1604.16251	6803.5375
1607.47959	6637.5375
1610.79447	6430.7375
1614.10715	6111.7375
1617.41763	5818.4375
1620.7259	5592.0375
1624.03199	5481.8375
1627.33587	5437.4375
1630.63757	5488.7375
1633.93707	5692.5375
1637.23439	6023.5375
1640.52951	6566.8375
1643.82246	7414.4375
1647.11321	8335.3375
1650.40179	8918.7375
1653.68819	8656.8375
1656.97241	7599.2375
1660.25446	6506.4375
1663.53433	5747.7375
1666.81203	5271.4375
1670.08756	5008.4375
1673.36092	4849.0375
1676.63211	4730.9375
1679.90115	4664.6375
1683.16801	4608.7375
1686.43272	4560.7375
1689.69527	4536.7375
1692.95567	4510.3375
1696.2139	4476.1375
1699.46999	4476.4375
1702.72392	4473.3375
1705.97571	4458.4375
1709.22535	4460.1375
1712.47284	4458.4375
1715.71819	4478.4375
1718.96139	4461.6375
1722.20246	4434.4375
1725.44139	4434.0375
1728.67818	4402.3375
1731.91284	4363.0375
1735.14537	4347.2375
1738.37576	4339.9375
1741.60403	4306.0375
1744.83017	4301.3375
1748.05418	4293.3375
1751.27607	4287.2375
1754.49584	4261.9375
1757.71349	4247.1375
1760.92903	4264.7375
1764.14244	4251.0375
1767.35375	4237.5375
1770.56294	4219.8375
1773.77002	4203.5375
1776.97499	4184.7375
1780.17785	4177.4375
1783.37861	4180.1375
1786.57727	4147.4375
1789.77382	4145.8375
1792.96828	4151.7375
1796.16064	4141.5375
1799.3509	4121.7375
1802.53907	4110.1375
1805.72514	4100.7375
1808.90913	4100.1375
1812.09102	4068.7375
1815.27083	4071.9375
1818.44856	4058.2375
1821.6242	4055.7375
1824.79776	4046.5375
1827.96924	4035.9375
1831.13864	4016.7375
1834.30597	4013.4375
1837.47122	4002.9375
1840.6344	3993.8375
1843.7955	3997.2375
1846.95454	4007.6375
1850.11151	3995.4375
1853.26642	4010.3375
1856.41926	3993.0375
1859.57004	4003.4375
1862.71876	4004.3375
1865.86542	3987.9375
1869.01003	3977.5375
1872.15258	3976.3375
1875.29308	3973.8375
1878.43152	3962.1375
1881.56792	3955.6375
1884.70227	3947.7375
1887.83457	3946.6375
1890.96482	3935.2375
1894.09304	3937.4375
1897.21921	3923.4375
1900.34335	3921.3375
1903.46544	3911.5375
1906.58551	3925.0375
1909.70353	3898.6375
1912.81953	3887.9375
1915.93349	3896.8375
1919.04543	3885.4375
1922.15534	3877.5375
1925.26322	3867.8375
1928.36908	3865.4375
1931.47292	3858.5375
1934.57473	3828.0375
1937.67453	3831.1375
1940.77232	3817.0375
1943.86808	3794.4375
1946.96184	3784.2375
1950.05358	3780.3375
1953.14331	3783.3375
1956.23103	3750.7375
1959.31675	3742.8375
1962.40046	3755.9375
1965.48217	3735.9375
1968.56188	3716.7375
1971.63959	3725.0375
1974.7153	3703.9375
1977.78901	3691.8375
1980.86073	3687.3375
1983.93046	3678.3375
1986.99819	3655.5375
1990.06394	3646.4375
1993.1277	3630.6375
1996.18947	3631.0375
1999.24925	3609.3375
2002.30706	3589.8375
2005.36288	3584.3375
2008.41672	3574.3375
2011.46859	3560.8375
2014.51848	3542.7375
2017.56639	3552.4375
2020.61233	3544.7375
2023.6563	3510.0375
2026.6983	3501.7375
2029.73833	3488.2375
2032.7764	3470.6375
2035.8125	3473.7375
2038.84664	3465.2375
2041.87881	3458.5375
2044.90903	3435.1375
2047.93729	3436.8375
2050.96359	3430.4375
2053.98794	3420.1375
2057.01034	3415.0375
2060.03078	3409.9375
2063.04927	3417.4375
2066.06582	3415.2375
2069.08042	3419.6375
2072.09307	3408.6375
2075.10378	3390.4375
2078.11255	3378.3375
2081.11938	3391.9375
2084.12426	3395.6375
2087.12722	3384.6375
2090.12824	3391.6375
2093.12732	3389.3375
2096.12447	3401.7375
2099.11969	3395.2375
2102.11299	3403.2375
2105.10435	3405.5375
2108.09379	3393.7375
2111.08131	3383.5375
2114.0669	3385.2375
2117.05057	3407.8375
2120.03233	3401.8375
2123.01216	3398.9375
2125.99008	3405.7375
2128.96609	3422.4375
2131.94018	3396.6375
2134.91236	3395.8375
2137.88263	3404.5375
2140.851	3402.1375
2143.81746	3389.2375
2146.78201	3397.0375
2149.74466	3413.3375
2152.7054	3410.4375
2155.66425	3404.2375
2158.6212	3406.1375
2161.57625	3396.1375
2164.52941	3393.2375
2167.48067	3396.4375
2170.43004	3380.8375
2173.37752	3371.3375
2176.32311	3386.0375
2179.26681	3398.4375
2182.20863	3398.8375
2185.14856	3382.6375
2188.08661	3385.4375
2191.02278	3380.0375
2193.95707	3361.2375
2196.88948	3364.6375
2199.82001	3361.6375
2202.74867	3361.3375
2205.67545	3365.0375
2208.60037	3349.0375
2211.52341	3371.3375
2214.44458	3350.9375
2217.36388	3351.7375
2220.28132	3326.2375
2223.1969	3311.6375
2226.11061	3306.8375
2229.02246	3300.7375
2231.93245	3314.1375
2234.84058	3294.5375
2237.74686	3284.9375
2240.65128	3282.6375
2243.55385	3282.7375
2246.45456	3270.1375
2249.35343	3278.0375
2252.25044	3261.6375
2255.14561	3268.1375
2258.03893	3258.3375
2260.93041	3262.6375
2263.82004	3252.7375
2266.70783	3257.0375
2269.59378	3247.4375
2272.4779	3231.9375
2275.36017	3208.1375
2278.24061	3219.4375
2281.11922	3204.9375
2283.996	3195.3375
2286.87094	3193.4375
2289.74405	3177.9375
2292.61534	3178.8375
2295.4848	3184.2375
2298.35243	3188.3375
2301.21824	3177.5375
2304.08223	3171.8375
2306.94439	3168.4375
2309.80474	3172.8375
2312.66327	3167.9375
2315.51999	3152.3375
2318.37489	3154.3375
2321.22797	3153.9375
2324.07925	3142.2375
2326.92871	3142.3375
2329.77637	3123.9375
2332.62222	3105.9375
2335.46626	3123.1375
2338.3085	3117.4375
2341.14893	3116.5375
2343.98756	3121.1375
2346.8244	3104.6375
2349.65943	3107.5375
2352.49267	3102.1375
2355.32411	3100.0375
2358.15376	3102.3375
2360.98161	3099.8375
2363.80768	3120.6375
2366.63195	3109.7375
2369.45444	3112.1375
2372.27514	3099.5375
2375.09405	3110.9375
2377.91118	3094.0375
2380.72652	3088.2375
2383.54009	3079.2375
2386.35187	3063.8375
2389.16188	3077.8375
2391.97011	3061.7375
2394.77657	3045.9375
2397.58125	3025.1375
2400.38416	3014.0375
2403.18529	3017.9375
2405.98466	3026.4375
2408.78226	3018.3375
2411.57809	2989.9375
2414.37216	2995.9375
2417.16446	2991.0375
2419.955	2998.5375
2422.74378	2994.6375
2425.5308	2998.5375
2428.31606	2997.2375
2431.09956	2992.7375
2433.88131	2999.1375
2436.6613	2986.1375
2439.43954	2977.2375
2442.21603	2990.8375
2444.99077	2977.7375
2447.76377	2982.7375
2450.53501	2962.8375
2453.30451	2979.8375
2456.07226	2973.6375
2458.83827	2965.5375
2461.60254	2974.1375
2464.36507	2964.2375
2467.12586	2954.9375
2469.88492	2959.5375
2472.64224	2956.9375
2475.39782	2952.2375
2478.15167	2957.5375
2480.90379	2951.5375
2483.65417	2957.0375
2486.40283	2951.4375
2489.14976	2970.4375
2491.89497	2968.1375
2494.63845	2958.0375
2497.3802	2954.3375
2500.12024	2951.8375
2502.85855	2929.7375
2505.59514	2933.5375
2508.33002	2931.4375
2511.06318	2918.1375
2513.79462	2910.9375
2516.52435	2915.2375
2519.25237	2900.3375
2521.97867	2883.7375
2524.70327	2879.7375
2527.42616	2882.2375
2530.14734	2882.5375
2532.86681	2873.0375
2535.58458	2879.5375
2538.30065	2883.6375
2541.01501	2876.9375
2543.72768	2870.6375
2546.43864	2879.0375
2549.14791	2860.8375
2551.85548	2855.0375
2554.56136	2859.6375
2557.26554	2859.1375
2559.96803	2847.3375
2562.66883	2840.6375
2565.36794	2842.0375
2568.06536	2834.7375
2570.7611	2825.3375
2573.45514	2823.1375
2576.14751	2810.2375
2578.83819	2791.8375
2581.52719	2801.8375
2584.21451	2780.1375
2586.90015	2773.0375
2589.58411	2781.6375
2592.2664	2765.5375
2594.94701	2764.4375
2597.62594	2766.0375
2600.30321	2764.1375
2602.9788	2761.4375
2605.65273	2760.6375
2608.32498	2766.1375
2610.99557	2752.6375
2613.66449	2752.7375
2616.33175	2756.0375
2618.99734	2745.7375
2621.66128	2738.0375
2624.32355	2737.8375
2626.98416	2728.5375
2629.64311	2707.9375
2632.30041	2700.1375
2634.95605	2716.1375
2637.61004	2689.0375
2640.26238	2690.9375
2642.91306	2686.1375
2645.56209	2689.3375
2648.20948	2682.0375
2650.85521	2682.7375
2653.4993	2688.7375
2656.14175	2695.8375
2658.78255	2692.4375
2661.42171	2696.2375
2664.05923	2692.1375
2666.6951	2691.7375
2669.32934	2696.8375
2671.96194	2677.5375
2674.59291	2682.8375
2677.22224	2668.4375
2679.84993	2687.5375
2682.476	2671.0375
2685.10043	2680.8375
2687.72324	2688.3375
2690.34441	2675.0375
2692.96396	2676.4375
2695.58188	2666.8375
2698.19818	2673.9375
2700.81285	2681.3375
2703.4259	2675.8375
2706.03733	2670.5375
2708.64714	2676.7375
2711.25533	2669.1375
2713.86191	2646.6375
2716.46687	2662.6375
2719.07021	2666.4375
2721.67194	2669.9375
2724.27206	2659.8375
2726.87057	2665.5375
2729.46747	2660.6375
2732.06276	2668.2375
2734.65644	2650.8375
2737.24852	2654.2375
2739.83899	2652.3375
2742.42786	2642.7375
2745.01513	2645.2375
2747.60079	2641.7375
2750.18486	2629.0375
2752.76733	2628.2375
2755.3482	2626.6375
2757.92747	2613.5375
2760.50515	2608.2375
2763.08123	2612.1375
2765.65573	2594.0375
2768.22863	2609.0375
2770.79994	2592.3375
2773.36967	2596.4375
2775.9378	2586.4375
2778.50435	2588.3375
2781.06932	2582.7375
2783.6327	2585.6375
2786.1945	2578.5375
2788.75471	2569.0375
2791.31335	2571.2375
2793.87041	2563.1375
2796.42589	2567.4375
2798.97979	2564.9375
2801.53212	2559.5375
2804.08288	2546.6375
2806.63206	2554.9375
2809.17967	2539.8375
2811.72571	2530.7375
2814.27018	2534.9375
2816.81308	2543.5375
2819.35442	2517.8375
2821.89419	2510.5375
2824.43239	2512.9375
2826.96904	2512.6375
2829.50412	2512.1375
2832.03763	2505.2375
2834.56959	2493.7375
2837.1	2479.1375
2839.62884	2480.7375
2842.15613	2483.3375
2844.68186	2480.4375
2847.20604	2473.1375
2849.72867	2469.7375
2852.24974	2461.8375
2854.76927	2461.0375
2857.28724	2457.5375
2859.80367	2457.9375
2862.31855	2454.8375
2864.83189	2451.6375
2867.34368	2458.0375
2869.85393	2445.5375
2872.36264	2452.3375
2874.8698	2445.7375
2877.37543	2442.8375
2879.87952	2453.3375
2882.38207	2453.9375
2884.88308	2432.5375
2887.38256	2437.1375
2889.88051	2428.5375
2892.37692	2430.5375
2894.8718	2423.2375
2897.36515	2409.3375
2899.85698	2414.3375
2902.34727	2414.1375
2904.83604	2421.3375
2907.32328	2424.6375
2909.809	2426.8375
2912.29319	2427.4375
2914.77587	2431.9375
2917.25702	2435.3375
2919.73665	2440.5375
2922.21476	2438.1375
2924.69136	2421.0375
2927.16644	2412.1375
2929.64	2409.7375
2932.11205	2421.2375
2934.58258	2396.1375
2937.05161	2401.8375
2939.51912	2405.2375
2941.98513	2396.0375
2944.44962	2391.7375
2946.91261	2385.7375
2949.37409	2384.7375
2951.83407	2384.9375
2954.29254	2386.4375
2956.74951	2380.6375
2959.20498	2370.7375
2961.65895	2365.7375
2964.11142	2363.7375
2966.56239	2356.5375
2969.01186	2369.1375
2971.45984	2360.7375
2973.90632	2362.2375
2976.35131	2341.6375
2978.7948	2358.3375
2981.23681	2360.9375
2983.67732	2351.6375
2986.11635	2340.9375
2988.55388	2332.0375
2990.98993	2330.6375
2993.4245	2318.1375
2995.85758	2326.2375
2998.28917	2318.4375
3000.71928	2309.0375
3003.14791	2308.7375
3005.57506	2295.0375
3008.00073	2292.2375
3010.42493	2293.4375
3012.84764	2293.1375
3015.26888	2283.5375
3017.68865	2270.8375
3020.10694	2274.0375
3022.52376	2270.0375
3024.9391	2257.6375
3027.35298	2253.9375
3029.76539	2245.4375
3032.17632	2238.3375
3034.5858	2226.0375
3036.9938	2219.6375
3039.40034	2217.8375
3041.80542	2224.0375
3044.20903	2220.9375
3046.61118	2210.5375
3049.01187	2209.9375
3051.4111	2206.6375
3053.80888	2197.5375
3056.20519	2206.8375
3058.60005	2194.9375
3060.99345	2188.1375
3063.3854	2181.1375
3065.7759	2181.6375
3068.16494	2160.1375
3070.55254	2164.9375
3072.93868	2156.8375
3075.32338	2158.0375
3077.70662	2151.7375
3080.08842	2152.6375
3082.46878	2144.8375
3084.84769	2128.6375
3087.22515	2122.2375
3089.60118	2128.0375
3091.97576	2138.3375
3094.3489	2120.1375
3096.72061	2138.1375
3099.09087	2124.8375
3101.4597	2123.6375
3103.82709	2119.9375
3106.19305	2118.4375
3108.55757	2117.7375
3110.92066	2114.0375
3113.28232	2107.9375
3115.64255	2095.8375
3118.00134	2103.2375
3120.35871	2089.7375
3122.71466	2084.6375
3125.06917	2080.8375
3127.42226	2075.3375
3129.77393	2086.3375
3132.12417	2065.9375
3134.47299	2070.8375
3136.82039	2071.7375
3139.16636	2076.1375
3141.51092	2053.2375
3143.85406	2059.2375
3146.19579	2058.3375
3148.53609	2062.2375
3150.87499	2050.5375
3153.21246	2069.1375
3155.54853	2064.9375
3157.88318	2056.2375
3160.21642	2056.9375
3162.54826	2049.3375
3164.87868	2055.9375
3167.2077	2055.9375
3169.5353	2036.8375
3171.86151	2044.0375
3174.18631	2049.0375
3176.5097	2028.1375
3178.83169	2032.1375
3181.15228	2038.0375
3183.47147	2032.4375
3185.78926	2024.7375
3188.10565	2016.4375
3190.42065	2019.3375
3192.73424	2013.6375
3195.04645	2001.6375
3197.35725	2005.3375
3199.66667	1997.4375
3201.97469	2005.5375
3204.28132	2003.7375
3206.58656	2014.1375
3208.8904	2007.7375
3211.19287	1995.2375
3213.49394	2010.4375
3215.79363	2014.5375
3218.09193	2007.7375
3220.38884	1998.8375
3222.68438	2008.8375
3224.97853	1993.5375
3227.2713	1993.9375
3229.56269	1993.4375
3231.8527	1989.8375
3234.14133	1980.2375
3236.42858	1981.1375
3238.71446	1974.1375
3240.99896	1967.5375
3243.28209	1964.8375
3245.56384	1963.1375
3247.84423	1948.6375
3250.12324	1958.7375
3252.40088	1943.7375
3254.67715	1948.1375
3256.95205	1943.1375
3259.22558	1939.1375
3261.49775	1936.4375
3263.76855	1941.2375
3266.03799	1934.2375
3268.30606	1929.7375
3270.57277	1931.4375
3272.83812	1936.0375
3275.10211	1924.9375
3277.36474	1920.3375
3279.62601	1924.3375
3281.88593	1921.5375
3284.14448	1911.3375
3286.40168	1907.1375
3288.65753	1912.0375
3290.91202	1913.0375
3293.16516	1907.6375
3295.41695	1905.1375
3297.66738	1900.4375
3299.91647	1879.4375
3302.16421	1867.3375
3304.4106	1855.2375
3306.65564	1851.7375
3308.89933	1841.6375
3311.14169	1821.9375
3313.38269	1800.6375
3315.62236	1787.4375
3317.86068	1779.5375
3320.09766	1765.0375
3322.3333	1750.4375
3324.5676	1737.8375
3326.80056	1716.5375
3329.03219	1693.7375
3331.26248	1.6375
3333.49143	1.4375
3335.71905	-2.1625
