Data from AgNPs_UA_5uM_CRN_500uM_SU_RamanShift__95__11-45-13-158.txt Node

Date: Thu Aug 04 11:45:13 BST 2022
User: TCL
Spectrometer: QEP01345
Trigger mode: 4
Integration Time (sec): 1.000000E0
Scans to average: 10
Electric dark correction enabled: true
Nonlinearity correction enabled: false
Boxcar width: 0
XAxis mode: Raman Shifts
Number of Pixels in Spectrum: 1044
>>>>>Begin Spectral Data<<<<<
46.04893	0.2875
50.45542	0.0875
54.85868	0.7875
59.25871	-0.6125
63.6555	-64.6125
68.04907	-46.6125
72.43941	-79.1125
76.82654	-63.8125
81.21044	-66.4125
85.59113	-58.0125
89.96862	-84.4125
94.34289	-64.0125
98.71396	-88.6125
103.08183	-68.5125
107.4465	-60.1125
111.80798	-66.1125
116.16626	-55.5125
120.52136	-85.4125
124.87327	-63.9125
129.222	-75.9125
133.56755	-65.9125
137.90993	-79.3125
142.24913	-69.8125
146.58517	-67.1125
150.91804	-67.8125
155.24774	-63.4125
159.57429	-53.4125
163.89768	-64.8125
168.21792	-42.5125
172.53501	-53.4125
176.84895	-17.4125
181.15975	42.3875
185.46741	92.0875
189.77193	138.4875
194.07331	261.8875
198.37157	361.5875
202.6667	449.1875
206.9587	564.5875
211.24758	672.7875
215.53334	786.0875
219.81599	885.9875
224.09553	1016.7875
228.37195	1147.5875
232.64527	1290.7875
236.91549	1457.2875
241.18261	1589.8875
245.44663	1743.7875
249.70755	1865.4875
253.96539	1975.0875
258.22014	2084.2875
262.4718	2166.0875
266.72039	2206.2875
270.96589	2223.6875
275.20832	2218.6875
279.44768	2179.3875
283.68397	2155.3875
287.91719	2116.0875
292.14735	2105.2875
296.37445	2114.1875
300.59849	2130.0875
304.81948	2146.3875
309.03742	2184.9875
313.25231	2209.9875
317.46415	2237.4875
321.67296	2178.6875
325.87872	2132.6875
330.08145	2133.7875
334.28114	2137.3875
338.47781	2148.6875
342.67145	2201.4875
346.86207	2249.2875
351.04966	2324.1875
355.23424	2383.6875
359.4158	2446.6875
363.59435	2443.8875
367.76989	2453.9875
371.94243	2466.4875
376.11196	2460.3875
380.27849	2493.8875
384.44203	2487.9875
388.60257	2512.3875
392.76012	2523.9875
396.91468	2583.8875
401.06626	2609.7875
405.21485	2623.1875
409.36047	2620.5875
413.50311	2605.8875
417.64277	2601.8875
421.77947	2568.1875
425.9132	2598.6875
430.04396	2608.5875
434.17176	2627.0875
438.2966	2668.2875
442.41849	2680.7875
446.53742	2707.3875
450.6534	2736.3875
454.76644	2766.3875
458.87653	2794.0875
462.98368	2799.1875
467.08789	2783.8875
471.18916	2802.0875
475.2875	2813.2875
479.38291	2841.2875
483.4754	2822.7875
487.56496	2839.3875
491.6516	2834.0875
495.73531	2854.4875
499.81612	2853.3875
503.89401	2884.2875
507.96899	2884.0875
512.04106	2917.2875
516.11023	2950.8875
520.1765	2962.8875
524.23987	2961.9875
528.30034	2997.3875
532.35792	2966.6875
536.41261	2988.9875
540.46441	2991.3875
544.51333	3000.4875
548.55936	3011.0875
552.60252	3057.1875
556.64279	3055.4875
560.6802	3095.8875
564.71473	3119.5875
568.7464	3170.5875
572.7752	3166.0875
576.80114	3115.9875
580.82422	3114.6875
584.84444	3113.9875
588.86181	3110.6875
592.87633	3131.5875
596.888	3158.2875
600.89682	3208.2875
604.9028	3344.8875
608.90594	3576.0875
612.90624	3862.7875
616.90371	3773.4875
620.89834	3434.4875
624.89015	3309.4875
628.87913	3286.1875
632.86528	3309.7875
636.84862	3368.5875
640.82913	3350.6875
644.80683	3309.2875
648.78172	3317.1875
652.75379	3336.2875
656.72306	3380.0875
660.68952	3407.3875
664.65319	3415.5875
668.61405	3391.2875
672.57211	3388.4875
676.52738	3430.8875
680.47986	3427.0875
684.42955	3440.9875
688.37646	3439.7875
692.32058	3444.5875
696.26192	3456.7875
700.20048	3495.8875
704.13626	3504.5875
708.06928	3487.6875
711.99952	3515.8875
715.927	3494.4875
719.85171	3521.6875
723.77365	3559.6875
727.69284	3537.9875
731.60928	3564.9875
735.52295	3551.8875
739.43388	3587.3875
743.34206	3579.0875
747.24749	3624.1875
751.15017	3646.4875
755.05012	3634.0875
758.94733	3702.0875
762.8418	3788.7875
766.73354	3938.0875
770.62254	4028.2875
774.50882	4016.1875
778.39237	3974.7875
782.27321	3904.7875
786.15132	3825.8875
790.02671	3774.6875
793.89938	3692.0875
797.76935	3722.7875
801.6366	3708.4875
805.50115	3717.8875
809.36299	3737.5875
813.22213	3742.6875
817.07857	3756.3875
820.93231	3750.6875
824.78336	3765.6875
828.63172	3765.6875
832.47738	3763.4875
836.32036	3813.7875
840.16066	3809.2875
843.99827	3807.4875
847.8332	3820.5875
851.66546	3822.2875
855.49504	3823.5875
859.32195	3853.0875
863.1462	3854.5875
866.96777	3871.7875
870.78668	3871.7875
874.60293	3884.6875
878.41652	3890.5875
882.22745	3932.0875
886.03573	3928.0875
889.84136	3918.2875
893.64433	3948.3875
897.44466	3959.2875
901.24235	3957.5875
905.0374	3976.8875
908.8298	3957.7875
912.61957	3947.9875
916.40671	3917.3875
920.19121	3961.4875
923.97308	3982.9875
927.75233	3960.8875
931.52895	3980.0875
935.30295	3988.0875
939.07433	3989.3875
942.84309	3934.2875
946.60924	3963.9875
950.37278	3956.9875
954.13371	3959.5875
957.89203	3954.0875
961.64774	3972.0875
965.40086	3946.8875
969.15137	3925.8875
972.89929	3978.9875
976.64461	3966.3875
980.38733	3989.0875
984.12747	3981.1875
987.86502	3966.2875
991.59999	3985.7875
995.33237	4034.5875
999.06217	4064.9875
1002.78939	4039.9875
1006.51404	4064.3875
1010.23611	4065.4875
1013.95561	4094.5875
1017.67255	4119.7875
1021.38692	4128.0875
1025.09872	4117.0875
1028.80796	4075.4875
1032.51465	4112.3875
1036.21877	4107.6875
1039.92035	4114.6875
1043.61937	4113.7875
1047.31584	4153.7875
1051.00976	4171.6875
1054.70114	4180.1875
1058.38998	4191.2875
1062.07627	4175.7875
1065.76003	4192.8875
1069.44126	4226.1875
1073.11995	4221.9875
1076.79611	4252.2875
1080.46974	4288.2875
1084.14085	4311.5875
1087.80943	4320.1875
1091.47549	4332.2875
1095.13903	4311.8875
1098.80005	4321.5875
1102.45857	4301.4875
1106.11456	4318.7875
1109.76805	4256.3875
1113.41903	4310.4875
1117.06751	4308.2875
1120.71348	4352.0875
1124.35696	4421.1875
1127.99793	4426.7875
1131.63641	4421.4875
1135.2724	4383.6875
1138.90589	4342.2875
1142.5369	4301.4875
1146.16542	4299.1875
1149.79145	4276.6875
1153.415	4288.2875
1157.03607	4261.7875
1160.65467	4280.3875
1164.27079	4311.9875
1167.88443	4310.4875
1171.49561	4400.7875
1175.10432	4460.8875
1178.71056	4564.6875
1182.31434	4653.6875
1185.91565	4689.4875
1189.51451	4670.6875
1193.11091	4663.2875
1196.70485	4628.0875
1200.29634	4600.4875
1203.88538	4561.3875
1207.47197	4502.5875
1211.05612	4479.7875
1214.63782	4428.0875
1218.21708	4429.6875
1221.79391	4418.1875
1225.36829	4381.1875
1228.94024	4415.3875
1232.50976	4419.4875
1236.07685	4439.8875
1239.6415	4455.6875
1243.20374	4452.1875
1246.76355	4458.7875
1250.32093	4503.3875
1253.8759	4498.0875
1257.42845	4548.4875
1260.97859	4563.0875
1264.52631	4605.3875
1268.07163	4596.1875
1271.61453	4620.2875
1275.15503	4629.0875
1278.69312	4615.2875
1282.22882	4631.5875
1285.76211	4684.5875
1289.29301	4665.0875
1292.82151	4703.2875
1296.34761	4719.5875
1299.87133	4764.1875
1303.39266	4848.0875
1306.9116	4968.1875
1310.42815	5109.2875
1313.94233	5198.7875
1317.45412	5087.2875
1320.96354	4974.3875
1324.47058	4848.8875
1327.97525	4756.1875
1331.47754	4697.8875
1334.97747	4694.8875
1338.47502	4682.1875
1341.97022	4720.4875
1345.46305	4814.5875
1348.95352	4909.1875
1352.44163	5050.7875
1355.92738	5134.6875
1359.41078	5301.2875
1362.89183	5499.2875
1366.37053	5443.3875
1369.84688	5126.9875
1373.32088	4836.7875
1376.79254	4704.1875
1380.26186	4604.2875
1383.72883	4540.3875
1387.19347	4471.4875
1390.65578	4412.8875
1394.11575	4396.3875
1397.57339	4367.2875
1401.0287	4376.9875
1404.48168	4351.6875
1407.93234	4384.3875
1411.38068	4352.5875
1414.82669	4355.7875
1418.27039	4394.8875
1421.71177	4390.2875
1425.15083	4355.0875
1428.58758	4358.4875
1432.02203	4380.5875
1435.45416	4399.4875
1438.88399	4363.7875
1442.31151	4317.7875
1445.73673	4329.8875
1449.15965	4309.2875
1452.58027	4322.5875
1455.9986	4329.3875
1459.41463	4339.3875
1462.82837	4358.9875
1466.23982	4360.2875
1469.64898	4391.6875
1473.05586	4376.5875
1476.46045	4402.9875
1479.86276	4412.8875
1483.26279	4459.1875
1486.66054	4492.6875
1490.05602	4511.3875
1493.44922	4582.5875
1496.84016	4666.4875
1500.22882	4844.0875
1503.61521	4992.2875
1506.99934	5205.6875
1510.38121	5375.4875
1513.76081	5435.6875
1517.13816	5317.1875
1520.51324	5070.8875
1523.88607	4856.1875
1527.25665	4742.5875
1530.62498	4653.0875
1533.99105	4629.3875
1537.35488	4609.2875
1540.71647	4621.9875
1544.07581	4627.4875
1547.4329	4612.7875
1550.78776	4623.8875
1554.14038	4613.8875
1557.49077	4611.0875
1560.83892	4674.6875
1564.18484	4701.4875
1567.52853	4722.5875
1570.86999	4781.1875
1574.20922	4771.5875
1577.54624	4753.7875
1580.88103	4716.8875
1584.2136	4608.2875
1587.54395	4600.7875
1590.87208	4622.4875
1594.19801	4601.4875
1597.52172	4654.5875
1600.84321	4697.4875
1604.16251	4668.1875
1607.47959	4605.7875
1610.79447	4587.1875
1614.10715	4563.0875
1617.41763	4550.5875
1620.7259	4513.6875
1624.03199	4506.6875
1627.33587	4483.0875
1630.63757	4476.6875
1633.93707	4519.8875
1637.23439	4566.8875
1640.52951	4641.2875
1643.82246	4750.1875
1647.11321	4907.6875
1650.40179	4970.6875
1653.68819	4922.6875
1656.97241	4812.2875
1660.25446	4612.4875
1663.53433	4513.7875
1666.81203	4439.6875
1670.08756	4410.8875
1673.36092	4413.6875
1676.63211	4378.2875
1679.90115	4364.8875
1683.16801	4368.9875
1686.43272	4330.0875
1689.69527	4322.2875
1692.95567	4298.8875
1696.2139	4320.8875
1699.46999	4277.9875
1702.72392	4295.9875
1705.97571	4311.8875
1709.22535	4307.6875
1712.47284	4351.9875
1715.71819	4351.1875
1718.96139	4353.8875
1722.20246	4364.5875
1725.44139	4361.0875
1728.67818	4365.1875
1731.91284	4341.3875
1735.14537	4331.4875
1738.37576	4340.6875
1741.60403	4327.8875
1744.83017	4309.0875
1748.05418	4321.1875
1751.27607	4327.4875
1754.49584	4308.6875
1757.71349	4298.5875
1760.92903	4306.0875
1764.14244	4252.6875
1767.35375	4273.9875
1770.56294	4272.2875
1773.77002	4276.9875
1776.97499	4292.2875
1780.17785	4296.4875
1783.37861	4291.3875
1786.57727	4311.3875
1789.77382	4257.5875
1792.96828	4295.8875
1796.16064	4302.8875
1799.3509	4294.9875
1802.53907	4303.8875
1805.72514	4283.7875
1808.90913	4252.9875
1812.09102	4274.5875
1815.27083	4267.3875
1818.44856	4258.6875
1821.6242	4271.4875
1824.79776	4260.5875
1827.96924	4260.4875
1831.13864	4229.8875
1834.30597	4257.7875
1837.47122	4239.3875
1840.6344	4229.8875
1843.7955	4213.4875
1846.95454	4239.2875
1850.11151	4233.5875
1853.26642	4225.5875
1856.41926	4211.4875
1859.57004	4230.5875
1862.71876	4211.9875
1865.86542	4221.5875
1869.01003	4230.8875
1872.15258	4204.4875
1875.29308	4236.7875
1878.43152	4228.9875
1881.56792	4207.3875
1884.70227	4184.9875
1887.83457	4196.7875
1890.96482	4191.2875
1894.09304	4187.5875
1897.21921	4185.3875
1900.34335	4190.3875
1903.46544	4168.1875
1906.58551	4188.6875
1909.70353	4173.2875
1912.81953	4162.1875
1915.93349	4173.6875
1919.04543	4160.1875
1922.15534	4151.9875
1925.26322	4153.2875
1928.36908	4154.3875
1931.47292	4154.2875
1934.57473	4155.6875
1937.67453	4131.6875
1940.77232	4107.8875
1943.86808	4107.9875
1946.96184	4119.6875
1950.05358	4095.5875
1953.14331	4067.3875
1956.23103	4095.3875
1959.31675	4050.6875
1962.40046	4009.2875
1965.48217	4024.6875
1968.56188	4024.2875
1971.63959	4020.1875
1974.7153	4004.5875
1977.78901	4013.2875
1980.86073	3992.8875
1983.93046	3958.9875
1986.99819	3889.0875
1990.06394	3932.3875
1993.1277	3950.5875
1996.18947	3914.6875
1999.24925	3899.4875
2002.30706	3907.4875
2005.36288	3913.3875
2008.41672	3891.5875
2011.46859	3882.2875
2014.51848	3862.8875
2017.56639	3856.3875
2020.61233	3854.8875
2023.6563	3846.2875
2026.6983	3807.9875
2029.73833	3815.9875
2032.7764	3834.4875
2035.8125	3786.5875
2038.84664	3787.3875
2041.87881	3774.0875
2044.90903	3797.0875
2047.93729	3785.7875
2050.96359	3764.9875
2053.98794	3763.2875
2057.01034	3778.1875
2060.03078	3757.3875
2063.04927	3755.1875
2066.06582	3767.2875
2069.08042	3753.7875
2072.09307	3761.0875
2075.10378	3759.5875
2078.11255	3745.9875
2081.11938	3758.0875
2084.12426	3743.1875
2087.12722	3751.3875
2090.12824	3747.3875
2093.12732	3760.9875
2096.12447	3760.7875
2099.11969	3753.7875
2102.11299	3742.0875
2105.10435	3765.0875
2108.09379	3757.6875
2111.08131	3739.4875
2114.0669	3756.2875
2117.05057	3765.9875
2120.03233	3749.3875
2123.01216	3755.8875
2125.99008	3763.9875
2128.96609	3764.2875
2131.94018	3782.4875
2134.91236	3789.9875
2137.88263	3775.2875
2140.851	3788.5875
2143.81746	3811.6875
2146.78201	3802.3875
2149.74466	3783.2875
2152.7054	3814.0875
2155.66425	3808.3875
2158.6212	3792.4875
2161.57625	3778.5875
2164.52941	3737.9875
2167.48067	3771.1875
2170.43004	3775.4875
2173.37752	3797.8875
2176.32311	3781.6875
2179.26681	3786.6875
2182.20863	3781.4875
2185.14856	3780.0875
2188.08661	3772.7875
2191.02278	3784.8875
2193.95707	3773.7875
2196.88948	3768.6875
2199.82001	3783.9875
2202.74867	3764.1875
2205.67545	3767.5875
2208.60037	3781.9875
2211.52341	3750.8875
2214.44458	3762.6875
2217.36388	3756.6875
2220.28132	3733.3875
2223.1969	3706.0875
2226.11061	3714.8875
2229.02246	3709.3875
2231.93245	3715.6875
2234.84058	3699.7875
2237.74686	3690.9875
2240.65128	3688.3875
2243.55385	3689.4875
2246.45456	3659.3875
2249.35343	3682.5875
2252.25044	3676.7875
2255.14561	3682.7875
2258.03893	3649.4875
2260.93041	3652.7875
2263.82004	3647.2875
2266.70783	3651.0875
2269.59378	3617.2875
2272.4779	3615.0875
2275.36017	3613.2875
2278.24061	3601.0875
2281.11922	3560.6875
2283.996	3585.6875
2286.87094	3569.0875
2289.74405	3584.2875
2292.61534	3589.9875
2295.4848	3578.5875
2298.35243	3580.9875
2301.21824	3564.4875
2304.08223	3564.2875
2306.94439	3577.1875
2309.80474	3561.1875
2312.66327	3560.3875
2315.51999	3548.8875
2318.37489	3541.1875
2321.22797	3525.1875
2324.07925	3531.1875
2326.92871	3507.1875
2329.77637	3513.4875
2332.62222	3506.3875
2335.46626	3484.5875
2338.3085	3486.4875
2341.14893	3490.2875
2343.98756	3507.6875
2346.8244	3474.1875
2349.65943	3466.0875
2352.49267	3457.0875
2355.32411	3464.1875
2358.15376	3471.1875
2360.98161	3471.8875
2363.80768	3436.8875
2366.63195	3444.6875
2369.45444	3458.7875
2372.27514	3448.2875
2375.09405	3465.2875
2377.91118	3417.2875
2380.72652	3427.8875
2383.54009	3426.4875
2386.35187	3434.0875
2389.16188	3410.5875
2391.97011	3405.8875
2394.77657	3385.2875
2397.58125	3409.1875
2400.38416	3398.2875
2403.18529	3375.7875
2405.98466	3366.3875
2408.78226	3386.0875
2411.57809	3366.3875
2414.37216	3359.4875
2417.16446	3367.5875
2419.955	3346.2875
2422.74378	3344.6875
2425.5308	3337.5875
2428.31606	3324.4875
2431.09956	3350.3875
2433.88131	3305.4875
2436.6613	3319.9875
2439.43954	3314.9875
2442.21603	3308.8875
2444.99077	3294.5875
2447.76377	3324.2875
2450.53501	3294.7875
2453.30451	3295.3875
2456.07226	3299.5875
2458.83827	3283.8875
2461.60254	3243.8875
2464.36507	3272.0875
2467.12586	3249.8875
2469.88492	3257.3875
2472.64224	3250.9875
2475.39782	3240.5875
2478.15167	3247.7875
2480.90379	3237.3875
2483.65417	3247.9875
2486.40283	3256.8875
2489.14976	3259.6875
2491.89497	3229.5875
2494.63845	3241.4875
2497.3802	3218.9875
2500.12024	3221.3875
2502.85855	3216.9875
2505.59514	3213.0875
2508.33002	3206.7875
2511.06318	3196.0875
2513.79462	3201.5875
2516.52435	3173.8875
2519.25237	3159.2875
2521.97867	3172.1875
2524.70327	3176.0875
2527.42616	3179.5875
2530.14734	3182.9875
2532.86681	3149.9875
2535.58458	3166.2875
2538.30065	3153.7875
2541.01501	3164.7875
2543.72768	3153.1875
2546.43864	3138.9875
2549.14791	3139.6875
2551.85548	3123.1875
2554.56136	3114.8875
2557.26554	3117.1875
2559.96803	3108.8875
2562.66883	3090.6875
2565.36794	3088.8875
2568.06536	3046.5875
2570.7611	3076.6875
2573.45514	3069.4875
2576.14751	3055.1875
2578.83819	3038.1875
2581.52719	3044.6875
2584.21451	3048.0875
2586.90015	3029.1875
2589.58411	3018.3875
2592.2664	3031.2875
2594.94701	3022.3875
2597.62594	3014.4875
2600.30321	2952.5875
2602.9788	2967.5875
2605.65273	2960.0875
2608.32498	2962.4875
2610.99557	2984.0875
2613.66449	2959.3875
2616.33175	2965.2875
2618.99734	2969.9875
2621.66128	2969.4875
2624.32355	2958.5875
2626.98416	2940.4875
2629.64311	2930.4875
2632.30041	2935.6875
2634.95605	2912.9875
2637.61004	2911.4875
2640.26238	2885.4875
2642.91306	2899.9875
2645.56209	2911.8875
2648.20948	2902.1875
2650.85521	2891.3875
2653.4993	2900.7875
2656.14175	2887.8875
2658.78255	2881.2875
2661.42171	2857.7875
2664.05923	2895.8875
2666.6951	2892.2875
2669.32934	2898.3875
2671.96194	2888.7875
2674.59291	2870.4875
2677.22224	2881.4875
2679.84993	2885.3875
2682.476	2862.0875
2685.10043	2869.6875
2687.72324	2862.5875
2690.34441	2857.7875
2692.96396	2857.2875
2695.58188	2866.0875
2698.19818	2870.4875
2700.81285	2865.0875
2703.4259	2838.5875
2706.03733	2811.3875
2708.64714	2812.4875
2711.25533	2848.0875
2713.86191	2854.3875
2716.46687	2851.3875
2719.07021	2850.6875
2721.67194	2840.7875
2724.27206	2859.1875
2726.87057	2841.9875
2729.46747	2822.7875
2732.06276	2827.1875
2734.65644	2827.0875
2737.24852	2835.4875
2739.83899	2798.4875
2742.42786	2818.8875
2745.01513	2821.3875
2747.60079	2808.2875
2750.18486	2787.9875
2752.76733	2809.0875
2755.3482	2796.0875
2757.92747	2808.6875
2760.50515	2773.0875
2763.08123	2766.2875
2765.65573	2774.7875
2768.22863	2773.8875
2770.79994	2756.2875
2773.36967	2761.3875
2775.9378	2748.5875
2778.50435	2744.4875
2781.06932	2741.9875
2783.6327	2732.3875
2786.1945	2743.2875
2788.75471	2737.7875
2791.31335	2724.2875
2793.87041	2714.5875
2796.42589	2703.3875
2798.97979	2695.3875
2801.53212	2688.7875
2804.08288	2693.4875
2806.63206	2694.1875
2809.17967	2671.1875
2811.72571	2658.2875
2814.27018	2649.4875
2816.81308	2649.5875
2819.35442	2613.5875
2821.89419	2632.3875
2824.43239	2609.7875
2826.96904	2633.8875
2829.50412	2606.3875
2832.03763	2622.8875
2834.56959	2616.2875
2837.1	2604.3875
2839.62884	2609.9875
2842.15613	2607.0875
2844.68186	2619.8875
2847.20604	2586.0875
2849.72867	2577.6875
2852.24974	2589.4875
2854.76927	2554.9875
2857.28724	2511.0875
2859.80367	2559.3875
2862.31855	2574.4875
2864.83189	2548.8875
2867.34368	2552.6875
2869.85393	2564.7875
2872.36264	2540.2875
2874.8698	2528.0875
2877.37543	2539.5875
2879.87952	2529.4875
2882.38207	2513.5875
2884.88308	2533.4875
2887.38256	2540.6875
2889.88051	2529.6875
2892.37692	2534.7875
2894.8718	2507.1875
2897.36515	2533.5875
2899.85698	2510.3875
2902.34727	2506.1875
2904.83604	2506.6875
2907.32328	2504.2875
2909.809	2510.5875
2912.29319	2503.2875
2914.77587	2497.7875
2917.25702	2512.1875
2919.73665	2522.0875
2922.21476	2512.9875
2924.69136	2518.9875
2927.16644	2493.3875
2929.64	2505.5875
2932.11205	2498.6875
2934.58258	2500.8875
2937.05161	2483.8875
2939.51912	2491.3875
2941.98513	2513.8875
2944.44962	2489.2875
2946.91261	2461.8875
2949.37409	2482.0875
2951.83407	2467.4875
2954.29254	2481.7875
2956.74951	2487.5875
2959.20498	2475.8875
2961.65895	2478.9875
2964.11142	2470.2875
2966.56239	2465.3875
2969.01186	2478.4875
2971.45984	2475.1875
2973.90632	2459.9875
2976.35131	2462.2875
2978.7948	2467.2875
2981.23681	2456.4875
2983.67732	2450.8875
2986.11635	2444.7875
2988.55388	2425.5875
2990.98993	2437.3875
2993.4245	2423.0875
2995.85758	2407.4875
2998.28917	2412.8875
3000.71928	2395.2875
3003.14791	2397.2875
3005.57506	2402.6875
3008.00073	2376.4875
3010.42493	2328.1875
3012.84764	2377.6875
3015.26888	2394.1875
3017.68865	2368.1875
3020.10694	2331.2875
3022.52376	2352.0875
3024.9391	2352.9875
3027.35298	2349.8875
3029.76539	2341.4875
3032.17632	2346.6875
3034.5858	2341.6875
3036.9938	2347.1875
3039.40034	2339.7875
3041.80542	2341.8875
3044.20903	2333.0875
3046.61118	2318.4875
3049.01187	2329.6875
3051.4111	2314.3875
3053.80888	2301.9875
3056.20519	2299.2875
3058.60005	2285.9875
3060.99345	2304.4875
3063.3854	2270.0875
3065.7759	2268.5875
3068.16494	2249.1875
3070.55254	2249.2875
3072.93868	2265.9875
3075.32338	2253.3875
3077.70662	2250.7875
3080.08842	2245.5875
3082.46878	2233.7875
3084.84769	2263.0875
3087.22515	2242.3875
3089.60118	2250.1875
3091.97576	2244.5875
3094.3489	2249.3875
3096.72061	2240.1875
3099.09087	2223.4875
3101.4597	2244.3875
3103.82709	2227.4875
3106.19305	2220.4875
3108.55757	2236.2875
3110.92066	2221.6875
3113.28232	2228.8875
3115.64255	2231.2875
3118.00134	2223.3875
3120.35871	2202.5875
3122.71466	2177.4875
3125.06917	2203.0875
3127.42226	2181.7875
3129.77393	2166.6875
3132.12417	2188.9875
3134.47299	2188.3875
3136.82039	2165.3875
3139.16636	2142.7875
3141.51092	2170.7875
3143.85406	2177.7875
3146.19579	2159.6875
3148.53609	2146.8875
3150.87499	2168.9875
3153.21246	2156.4875
3155.54853	2166.3875
3157.88318	2156.3875
3160.21642	2178.9875
3162.54826	2166.1875
3164.87868	2171.1875
3167.2077	2131.8875
3169.5353	2160.5875
3171.86151	2179.3875
3174.18631	2152.2875
3176.5097	2148.7875
3178.83169	2155.8875
3181.15228	2157.0875
3183.47147	2137.6875
3185.78926	2121.7875
3188.10565	2129.5875
3190.42065	2115.6875
3192.73424	2134.1875
3195.04645	2112.3875
3197.35725	2104.9875
3199.66667	2124.3875
3201.97469	2102.1875
3204.28132	2100.3875
3206.58656	2112.6875
3208.8904	2121.0875
3211.19287	2114.0875
3213.49394	2101.8875
3215.79363	2098.1875
3218.09193	2107.8875
3220.38884	2098.5875
3222.68438	2098.1875
3224.97853	2087.7875
3227.2713	2103.9875
3229.56269	2089.7875
3231.8527	2084.0875
3234.14133	2077.6875
3236.42858	2078.8875
3238.71446	2065.6875
3240.99896	2077.1875
3243.28209	2059.4875
3245.56384	2068.4875
3247.84423	2037.4875
3250.12324	2055.9875
3252.40088	2056.4875
3254.67715	2046.0875
3256.95205	2042.1875
3259.22558	2057.7875
3261.49775	2053.4875
3263.76855	2056.5875
3266.03799	2057.5875
3268.30606	2039.9875
3270.57277	2044.5875
3272.83812	2034.1875
3275.10211	2033.5875
3277.36474	2036.8875
3279.62601	2025.6875
3281.88593	2000.0875
3284.14448	1986.0875
3286.40168	1999.7875
3288.65753	1990.4875
3290.91202	1987.9875
3293.16516	1972.8875
3295.41695	1999.1875
3297.66738	1993.3875
3299.91647	1962.7875
3302.16421	1960.2875
3304.4106	1924.8875
3306.65564	1954.9875
3308.89933	1915.2875
3311.14169	1900.8875
3313.38269	1895.1875
3315.62236	1877.8875
3317.86068	1860.4875
3320.09766	1854.8875
3322.3333	1828.1875
3324.5676	1822.0875
3326.80056	1787.2875
3329.03219	1778.2875
3331.26248	-0.9125
3333.49143	0.2875
3335.71905	-0.3125
