Data from AgNPs_UA_5uM_CRN_500uM_SU_RamanShift__132__11-51-23-166.txt Node

Date: Thu Aug 04 11:51:23 BST 2022
User: TCL
Spectrometer: QEP01345
Trigger mode: 4
Integration Time (sec): 1.000000E0
Scans to average: 10
Electric dark correction enabled: true
Nonlinearity correction enabled: false
Boxcar width: 0
XAxis mode: Raman Shifts
Number of Pixels in Spectrum: 1044
>>>>>Begin Spectral Data<<<<<
46.04893	-0.875
50.45542	0.225
54.85868	0.125
59.25871	-0.875
63.6555	-56.275
68.04907	-40.675
72.43941	-71.875
76.82654	-57.175
81.21044	-54.975
85.59113	-47.975
89.96862	-74.975
94.34289	-56.975
98.71396	-78.075
103.08183	-58.475
107.4465	-50.375
111.80798	-55.775
116.16626	-45.775
120.52136	-74.675
124.87327	-50.775
129.222	-62.675
133.56755	-50.175
137.90993	-64.675
142.24913	-50.875
146.58517	-46.075
150.91804	-41.875
155.24774	-31.375
159.57429	-11.575
163.89768	-10.275
168.21792	31.125
172.53501	52.325
176.84895	132.425
181.15975	259.025
185.46741	403.025
189.77193	575.825
194.07331	861.825
198.37157	1142.125
202.6667	1400.325
206.9587	1720.525
211.24758	2024.425
215.53334	2328.525
219.81599	2668.125
224.09553	3056.725
228.37195	3477.525
232.64527	3938.525
236.91549	4380.325
241.18261	4753.425
245.44663	5048.325
249.70755	5263.125
253.96539	5396.925
258.22014	5499.925
262.4718	5555.425
266.72039	5579.425
270.96589	5518.325
275.20832	5441.725
279.44768	5328.025
283.68397	5217.025
287.91719	5154.125
292.14735	5158.825
296.37445	5293.225
300.59849	5517.125
304.81948	5796.225
309.03742	6074.925
313.25231	6268.925
317.46415	6238.225
321.67296	5904.625
325.87872	5579.125
330.08145	5419.225
334.28114	5409.625
338.47781	5469.725
342.67145	5597.425
346.86207	5805.025
351.04966	6104.625
355.23424	6472.625
359.4158	6678.625
363.59435	6735.925
367.76989	6689.425
371.94243	6585.325
376.11196	6501.725
380.27849	6460.925
384.44203	6403.825
388.60257	6359.725
392.76012	6408.625
396.91468	6506.925
401.06626	6656.825
405.21485	6659.225
409.36047	6542.225
413.50311	6296.425
417.64277	6055.125
421.77947	5871.625
425.9132	5823.725
430.04396	5837.325
434.17176	5876.125
438.2966	5958.125
442.41849	6064.425
446.53742	6170.325
450.6534	6252.525
454.76644	6341.025
458.87653	6349.225
462.98368	6352.025
467.08789	6295.925
471.18916	6239.425
475.2875	6147.025
479.38291	6057.825
483.4754	5962.925
487.56496	5904.525
491.6516	5883.225
495.73531	5883.225
499.81612	5887.425
503.89401	5975.825
507.96899	6002.225
512.04106	6111.625
516.11023	6181.525
520.1765	6265.325
524.23987	6283.525
528.30034	6306.925
532.35792	6234.525
536.41261	6197.425
540.46441	6099.425
544.51333	6082.625
548.55936	6135.825
552.60252	6217.925
556.64279	6320.425
560.6802	6422.125
564.71473	6546.925
568.7464	6701.325
572.7752	6680.825
576.80114	6392.425
580.82422	6174.625
584.84444	6100.925
588.86181	6097.925
592.87633	6147.025
596.888	6235.125
600.89682	6546.725
604.9028	7372.425
608.90594	9099.725
612.90624	11074.225
616.90371	10341.325
620.89834	7803.525
624.89015	6703.825
628.87913	6553.125
632.86528	6687.325
636.84862	6815.125
640.82913	6707.725
644.80683	6431.925
648.78172	6291.225
652.75379	6329.825
656.72306	6509.725
660.68952	6698.125
664.65319	6652.725
668.61405	6446.625
672.57211	6403.925
676.52738	6417.425
680.47986	6334.325
684.42955	6257.625
688.37646	6252.425
692.32058	6220.725
696.26192	6311.325
700.20048	6390.525
704.13626	6400.725
708.06928	6386.725
711.99952	6352.125
715.927	6297.725
719.85171	6352.425
723.77365	6394.325
727.69284	6374.925
731.60928	6379.025
735.52295	6348.825
739.43388	6395.325
743.34206	6420.725
747.24749	6420.325
751.15017	6425.625
755.05012	6477.425
758.94733	6789.925
762.8418	7459.325
766.73354	8554.525
770.62254	9347.725
774.50882	9447.425
778.39237	9042.925
782.27321	8266.925
786.15132	7434.125
790.02671	6891.925
793.89938	6560.825
797.76935	6482.825
801.6366	6411.625
805.50115	6384.825
809.36299	6380.825
813.22213	6358.425
817.07857	6367.725
820.93231	6362.225
824.78336	6374.225
828.63172	6393.425
832.47738	6396.825
836.32036	6416.725
840.16066	6398.125
843.99827	6397.825
847.8332	6399.625
851.66546	6395.925
855.49504	6408.825
859.32195	6429.325
863.1462	6416.125
866.96777	6420.525
870.78668	6439.025
874.60293	6451.925
878.41652	6477.125
882.22745	6554.225
886.03573	6556.625
889.84136	6573.725
893.64433	6557.925
897.44466	6547.725
901.24235	6542.925
905.0374	6550.825
908.8298	6469.825
912.61957	6465.225
916.40671	6424.225
920.19121	6451.825
923.97308	6541.825
927.75233	6578.725
931.52895	6642.325
935.30295	6635.325
939.07433	6516.025
942.84309	6393.125
946.60924	6398.025
950.37278	6344.525
954.13371	6353.225
957.89203	6343.525
961.64774	6363.925
965.40086	6344.025
969.15137	6304.025
972.89929	6346.425
976.64461	6356.725
980.38733	6370.925
984.12747	6382.025
987.86502	6373.625
991.59999	6434.925
995.33237	6502.425
999.06217	6569.225
1002.78939	6659.425
1006.51404	6781.225
1010.23611	6887.425
1013.95561	6923.725
1017.67255	6979.825
1021.38692	6943.725
1025.09872	6871.925
1028.80796	6785.925
1032.51465	6789.425
1036.21877	6787.725
1039.92035	6817.025
1043.61937	6853.025
1047.31584	6885.925
1051.00976	6939.825
1054.70114	6932.225
1058.38998	6910.025
1062.07627	6935.825
1065.76003	6966.925
1069.44126	7047.125
1073.11995	7106.225
1076.79611	7263.225
1080.46974	7377.525
1084.14085	7483.525
1087.80943	7597.325
1091.47549	7636.825
1095.13903	7611.925
1098.80005	7536.225
1102.45857	7433.225
1106.11456	7376.325
1109.76805	7301.725
1113.41903	7392.525
1117.06751	7510.425
1120.71348	7708.125
1124.35696	8016.025
1127.99793	8236.425
1131.63641	8132.225
1135.2724	7789.325
1138.90589	7571.325
1142.5369	7417.625
1146.16542	7362.925
1149.79145	7273.425
1153.415	7216.225
1157.03607	7189.325
1160.65467	7241.725
1164.27079	7401.125
1167.88443	7601.425
1171.49561	7928.925
1175.10432	8424.225
1178.71056	9144.625
1182.31434	9770.225
1185.91565	9989.225
1189.51451	9888.725
1193.11091	9729.525
1196.70485	9568.925
1200.29634	9425.925
1203.88538	9229.225
1207.47197	8866.725
1211.05612	8533.725
1214.63782	8217.825
1218.21708	8032.825
1221.79391	7867.425
1225.36829	7750.625
1228.94024	7724.525
1232.50976	7737.925
1236.07685	7767.125
1239.6415	7804.925
1243.20374	7797.825
1246.76355	7854.625
1250.32093	7926.125
1253.8759	8006.425
1257.42845	8195.125
1260.97859	8391.825
1264.52631	8581.925
1268.07163	8690.825
1271.61453	8787.825
1275.15503	8822.125
1278.69312	8826.325
1282.22882	8883.425
1285.76211	9047.425
1289.29301	9222.725
1292.82151	9469.225
1296.34761	9634.625
1299.87133	9963.325
1303.39266	10567.825
1306.9116	11458.725
1310.42815	12453.125
1313.94233	12772.125
1317.45412	12170.725
1320.96354	11273.425
1324.47058	10465.425
1327.97525	9871.625
1331.47754	9562.925
1334.97747	9494.025
1338.47502	9602.725
1341.97022	9933.025
1345.46305	10558.525
1348.95352	11404.225
1352.44163	12413.525
1355.92738	13459.425
1359.41078	14696.525
1362.89183	15799.825
1366.37053	15197.325
1369.84688	12910.025
1373.32088	10801.625
1376.79254	9711.625
1380.26186	9203.725
1383.72883	8878.825
1387.19347	8564.625
1390.65578	8252.025
1394.11575	8082.525
1397.57339	7947.225
1401.0287	7864.825
1404.48168	7828.325
1407.93234	7857.925
1411.38068	7882.425
1414.82669	7963.825
1418.27039	8020.925
1421.71177	8018.825
1425.15083	7929.025
1428.58758	7845.725
1432.02203	7862.125
1435.45416	7944.825
1438.88399	7974.125
1442.31151	7980.325
1445.73673	8044.625
1449.15965	8098.925
1452.58027	8124.625
1455.9986	8108.025
1459.41463	8106.625
1462.82837	8199.025
1466.23982	8366.025
1469.64898	8546.025
1473.05586	8651.025
1476.46045	8741.325
1479.86276	8770.225
1483.26279	8851.625
1486.66054	8954.825
1490.05602	9178.725
1493.44922	9641.025
1496.84016	10319.625
1500.22882	11411.825
1503.61521	12738.325
1506.99934	14104.025
1510.38121	15008.225
1513.76081	14948.925
1517.13816	13690.325
1520.51324	12039.525
1523.88607	10682.425
1527.25665	9907.225
1530.62498	9494.125
1533.99105	9339.325
1537.35488	9258.825
1540.71647	9226.525
1544.07581	9151.725
1547.4329	9067.825
1550.78776	8980.125
1554.14038	8856.925
1557.49077	8783.825
1560.83892	8869.025
1564.18484	8999.825
1567.52853	9261.425
1570.86999	9509.325
1574.20922	9595.425
1577.54624	9511.725
1580.88103	9116.725
1584.2136	8599.125
1587.54395	8313.825
1590.87208	8301.825
1594.19801	8440.425
1597.52172	8750.125
1600.84321	8925.625
1604.16251	8854.725
1607.47959	8713.825
1610.79447	8521.525
1614.10715	8237.925
1617.41763	7934.925
1620.7259	7690.925
1624.03199	7561.625
1627.33587	7478.725
1630.63757	7523.625
1633.93707	7730.125
1637.23439	8102.525
1640.52951	8699.125
1643.82246	9479.925
1647.11321	10430.925
1650.40179	10941.225
1653.68819	10613.725
1656.97241	9566.925
1660.25446	8446.225
1663.53433	7632.425
1666.81203	7117.825
1670.08756	6863.525
1673.36092	6690.225
1676.63211	6565.525
1679.90115	6492.525
1683.16801	6420.625
1686.43272	6341.625
1689.69527	6305.425
1692.95567	6236.725
1696.2139	6216.225
1699.46999	6137.725
1702.72392	6153.025
1705.97571	6174.925
1709.22535	6137.025
1712.47284	6164.025
1715.71819	6198.525
1718.96139	6180.425
1722.20246	6162.825
1725.44139	6152.525
1728.67818	6110.325
1731.91284	6078.525
1735.14537	6057.325
1738.37576	6047.525
1741.60403	6010.725
1744.83017	5979.225
1748.05418	5976.325
1751.27607	6015.125
1754.49584	5960.625
1757.71349	5927.925
1760.92903	5940.925
1764.14244	5898.025
1767.35375	5894.425
1770.56294	5881.925
1773.77002	5866.225
1776.97499	5852.425
1780.17785	5834.525
1783.37861	5851.425
1786.57727	5846.825
1789.77382	5792.525
1792.96828	5830.125
1796.16064	5842.325
1799.3509	5821.725
1802.53907	5821.225
1805.72514	5777.825
1808.90913	5764.925
1812.09102	5761.225
1815.27083	5759.125
1818.44856	5749.625
1821.6242	5740.125
1824.79776	5725.825
1827.96924	5712.025
1831.13864	5674.525
1834.30597	5693.625
1837.47122	5677.725
1840.6344	5662.025
1843.7955	5644.825
1846.95454	5646.925
1850.11151	5666.425
1853.26642	5619.025
1856.41926	5649.125
1859.57004	5630.625
1862.71876	5622.325
1865.86542	5628.625
1869.01003	5615.525
1872.15258	5593.125
1875.29308	5617.925
1878.43152	5612.825
1881.56792	5577.925
1884.70227	5561.025
1887.83457	5560.525
1890.96482	5534.825
1894.09304	5537.025
1897.21921	5536.425
1900.34335	5535.525
1903.46544	5526.025
1906.58551	5556.225
1909.70353	5529.325
1912.81953	5513.225
1915.93349	5486.625
1919.04543	5498.225
1922.15534	5478.025
1925.26322	5482.425
1928.36908	5466.225
1931.47292	5485.425
1934.57473	5477.125
1937.67453	5435.725
1940.77232	5397.925
1943.86808	5398.625
1946.96184	5400.025
1950.05358	5355.025
1953.14331	5347.225
1956.23103	5355.525
1959.31675	5312.625
1962.40046	5261.925
1965.48217	5278.925
1968.56188	5288.625
1971.63959	5270.425
1974.7153	5261.125
1977.78901	5247.625
1980.86073	5233.825
1983.93046	5203.025
1986.99819	5110.425
1990.06394	5132.625
1993.1277	5144.625
1996.18947	5120.225
1999.24925	5085.325
2002.30706	5093.825
2005.36288	5080.325
2008.41672	5059.025
2011.46859	5035.425
2014.51848	5040.425
2017.56639	5009.125
2020.61233	4976.725
2023.6563	4993.525
2026.6983	4949.825
2029.73833	4956.925
2032.7764	4962.125
2035.8125	4917.125
2038.84664	4903.725
2041.87881	4897.525
2044.90903	4891.625
2047.93729	4885.825
2050.96359	4866.425
2053.98794	4867.025
2057.01034	4867.725
2060.03078	4844.425
2063.04927	4829.525
2066.06582	4853.125
2069.08042	4841.125
2072.09307	4839.025
2075.10378	4834.225
2078.11255	4832.025
2081.11938	4838.525
2084.12426	4815.225
2087.12722	4810.725
2090.12824	4811.325
2093.12732	4801.025
2096.12447	4822.125
2099.11969	4813.625
2102.11299	4804.925
2105.10435	4802.725
2108.09379	4801.025
2111.08131	4812.225
2114.0669	4813.025
2117.05057	4805.425
2120.03233	4811.125
2123.01216	4837.225
2125.99008	4814.525
2128.96609	4828.825
2131.94018	4844.525
2134.91236	4828.625
2137.88263	4833.425
2140.851	4829.325
2143.81746	4851.125
2146.78201	4837.625
2149.74466	4818.925
2152.7054	4846.425
2155.66425	4830.125
2158.6212	4814.325
2161.57625	4796.725
2164.52941	4774.425
2167.48067	4805.725
2170.43004	4786.925
2173.37752	4811.325
2176.32311	4792.925
2179.26681	4799.425
2182.20863	4785.425
2185.14856	4803.725
2188.08661	4798.825
2191.02278	4798.525
2193.95707	4779.125
2196.88948	4772.925
2199.82001	4770.225
2202.74867	4773.225
2205.67545	4754.125
2208.60037	4763.825
2211.52341	4751.925
2214.44458	4730.125
2217.36388	4730.825
2220.28132	4719.425
2223.1969	4686.825
2226.11061	4690.625
2229.02246	4673.325
2231.93245	4690.325
2234.84058	4651.225
2237.74686	4641.825
2240.65128	4648.225
2243.55385	4642.425
2246.45456	4603.325
2249.35343	4624.325
2252.25044	4617.625
2255.14561	4619.425
2258.03893	4611.525
2260.93041	4593.825
2263.82004	4574.525
2266.70783	4580.325
2269.59378	4551.425
2272.4779	4531.525
2275.36017	4552.525
2278.24061	4513.225
2281.11922	4495.125
2283.996	4512.525
2286.87094	4479.225
2289.74405	4495.225
2292.61534	4508.625
2295.4848	4477.525
2298.35243	4461.025
2301.21824	4471.625
2304.08223	4454.625
2306.94439	4471.225
2309.80474	4462.525
2312.66327	4462.325
2315.51999	4442.425
2318.37489	4437.025
2321.22797	4429.825
2324.07925	4415.925
2326.92871	4402.225
2329.77637	4379.425
2332.62222	4379.825
2335.46626	4352.125
2338.3085	4359.925
2341.14893	4375.025
2343.98756	4379.925
2346.8244	4353.725
2349.65943	4337.825
2352.49267	4350.325
2355.32411	4343.125
2358.15376	4340.625
2360.98161	4338.725
2363.80768	4332.425
2366.63195	4328.625
2369.45444	4324.325
2372.27514	4331.325
2375.09405	4335.425
2377.91118	4286.325
2380.72652	4291.225
2383.54009	4291.025
2386.35187	4294.625
2389.16188	4265.725
2391.97011	4274.725
2394.77657	4249.325
2397.58125	4265.325
2400.38416	4240.525
2403.18529	4235.925
2405.98466	4224.425
2408.78226	4217.825
2411.57809	4202.825
2414.37216	4206.325
2417.16446	4182.525
2419.955	4151.325
2422.74378	4183.025
2425.5308	4169.825
2428.31606	4154.425
2431.09956	4176.625
2433.88131	4137.225
2436.6613	4150.025
2439.43954	4150.325
2442.21603	4141.925
2444.99077	4126.525
2447.76377	4151.425
2450.53501	4126.725
2453.30451	4102.925
2456.07226	4118.125
2458.83827	4102.325
2461.60254	4064.525
2464.36507	4115.125
2467.12586	4094.925
2469.88492	4079.225
2472.64224	4090.325
2475.39782	4064.325
2478.15167	4085.525
2480.90379	4069.725
2483.65417	4082.825
2486.40283	4076.125
2489.14976	4098.725
2491.89497	4062.425
2494.63845	4084.025
2497.3802	4053.525
2500.12024	4047.225
2502.85855	4050.625
2505.59514	4059.925
2508.33002	4044.625
2511.06318	4022.525
2513.79462	4027.325
2516.52435	3973.525
2519.25237	3976.525
2521.97867	3965.125
2524.70327	3979.525
2527.42616	3987.225
2530.14734	3980.425
2532.86681	3967.025
2535.58458	3963.725
2538.30065	3932.425
2541.01501	3954.125
2543.72768	3933.425
2546.43864	3934.125
2549.14791	3924.625
2551.85548	3906.725
2554.56136	3918.125
2557.26554	3903.825
2559.96803	3909.025
2562.66883	3900.725
2565.36794	3889.325
2568.06536	3843.325
2570.7611	3879.425
2573.45514	3856.925
2576.14751	3837.725
2578.83819	3838.025
2581.52719	3816.225
2584.21451	3816.225
2586.90015	3794.525
2589.58411	3777.225
2592.2664	3792.925
2594.94701	3793.325
2597.62594	3790.225
2600.30321	3717.325
2602.9788	3743.325
2605.65273	3735.825
2608.32498	3733.125
2610.99557	3763.125
2613.66449	3710.225
2616.33175	3738.625
2618.99734	3734.025
2621.66128	3736.125
2624.32355	3715.425
2626.98416	3699.025
2629.64311	3691.125
2632.30041	3695.425
2634.95605	3675.525
2637.61004	3670.925
2640.26238	3631.025
2642.91306	3647.825
2645.56209	3662.125
2648.20948	3671.525
2650.85521	3645.625
2653.4993	3658.825
2656.14175	3651.925
2658.78255	3630.925
2661.42171	3603.025
2664.05923	3654.625
2666.6951	3651.725
2669.32934	3670.425
2671.96194	3668.725
2674.59291	3644.325
2677.22224	3646.125
2679.84993	3647.225
2682.476	3646.425
2685.10043	3633.525
2687.72324	3619.625
2690.34441	3610.425
2692.96396	3616.025
2695.58188	3634.325
2698.19818	3625.325
2700.81285	3616.725
2703.4259	3591.025
2706.03733	3568.825
2708.64714	3573.025
2711.25533	3612.825
2713.86191	3618.525
2716.46687	3593.925
2719.07021	3599.125
2721.67194	3591.725
2724.27206	3620.225
2726.87057	3591.525
2729.46747	3577.825
2732.06276	3597.525
2734.65644	3572.025
2737.24852	3569.925
2739.83899	3550.725
2742.42786	3575.625
2745.01513	3558.925
2747.60079	3553.325
2750.18486	3528.325
2752.76733	3539.625
2755.3482	3536.725
2757.92747	3538.325
2760.50515	3503.325
2763.08123	3507.425
2765.65573	3506.425
2768.22863	3500.525
2770.79994	3479.525
2773.36967	3482.925
2775.9378	3483.425
2778.50435	3468.425
2781.06932	3467.125
2783.6327	3455.925
2786.1945	3481.825
2788.75471	3464.025
2791.31335	3459.525
2793.87041	3442.125
2796.42589	3423.025
2798.97979	3415.825
2801.53212	3421.525
2804.08288	3426.325
2806.63206	3408.125
2809.17967	3397.925
2811.72571	3401.525
2814.27018	3391.425
2816.81308	3366.825
2819.35442	3337.825
2821.89419	3353.025
2824.43239	3345.825
2826.96904	3363.225
2829.50412	3344.725
2832.03763	3336.825
2834.56959	3346.025
2837.1	3328.025
2839.62884	3340.325
2842.15613	3321.325
2844.68186	3323.725
2847.20604	3301.225
2849.72867	3299.925
2852.24974	3302.325
2854.76927	3260.725
2857.28724	3230.625
2859.80367	3291.425
2862.31855	3276.225
2864.83189	3274.325
2867.34368	3267.725
2869.85393	3278.925
2872.36264	3257.725
2874.8698	3256.925
2877.37543	3257.525
2879.87952	3263.625
2882.38207	3233.725
2884.88308	3227.725
2887.38256	3232.625
2889.88051	3232.625
2892.37692	3237.825
2894.8718	3210.625
2897.36515	3230.825
2899.85698	3221.625
2902.34727	3211.025
2904.83604	3211.225
2907.32328	3244.325
2909.809	3223.825
2912.29319	3231.525
2914.77587	3231.025
2917.25702	3229.825
2919.73665	3252.225
2922.21476	3251.125
2924.69136	3241.625
2927.16644	3227.125
2929.64	3222.925
2932.11205	3210.825
2934.58258	3221.125
2937.05161	3194.325
2939.51912	3204.825
2941.98513	3213.325
2944.44962	3191.025
2946.91261	3172.825
2949.37409	3185.425
2951.83407	3176.225
2954.29254	3166.025
2956.74951	3170.325
2959.20498	3168.225
2961.65895	3156.025
2964.11142	3153.425
2966.56239	3148.625
2969.01186	3142.325
2971.45984	3142.325
2973.90632	3130.925
2976.35131	3142.125
2978.7948	3130.825
2981.23681	3117.725
2983.67732	3125.225
2986.11635	3115.225
2988.55388	3083.625
2990.98993	3088.225
2993.4245	3063.725
2995.85758	3060.625
2998.28917	3056.625
3000.71928	3043.125
3003.14791	3042.725
3005.57506	3036.425
3008.00073	3021.225
3010.42493	2961.525
3012.84764	3003.525
3015.26888	3006.025
3017.68865	3001.125
3020.10694	2969.125
3022.52376	2966.025
3024.9391	2965.025
3027.35298	2952.125
3029.76539	2938.725
3032.17632	2937.625
3034.5858	2930.725
3036.9938	2934.825
3039.40034	2926.525
3041.80542	2904.825
3044.20903	2897.825
3046.61118	2894.625
3049.01187	2903.625
3051.4111	2879.725
3053.80888	2881.725
3056.20519	2869.825
3058.60005	2863.525
3060.99345	2873.725
3063.3854	2834.225
3065.7759	2828.025
3068.16494	2813.825
3070.55254	2813.925
3072.93868	2828.925
3075.32338	2816.425
3077.70662	2806.625
3080.08842	2793.725
3082.46878	2783.825
3084.84769	2800.225
3087.22515	2786.525
3089.60118	2806.725
3091.97576	2760.225
3094.3489	2782.025
3096.72061	2779.025
3099.09087	2763.625
3101.4597	2769.725
3103.82709	2755.425
3106.19305	2759.225
3108.55757	2762.625
3110.92066	2739.225
3113.28232	2742.125
3115.64255	2744.425
3118.00134	2746.525
3120.35871	2713.725
3122.71466	2704.125
3125.06917	2707.925
3127.42226	2699.625
3129.77393	2677.125
3132.12417	2693.925
3134.47299	2692.725
3136.82039	2670.525
3139.16636	2653.825
3141.51092	2663.425
3143.85406	2678.425
3146.19579	2661.825
3148.53609	2651.425
3150.87499	2665.425
3153.21246	2644.725
3155.54853	2663.525
3157.88318	2664.425
3160.21642	2660.625
3162.54826	2641.625
3164.87868	2648.525
3167.2077	2616.525
3169.5353	2627.225
3171.86151	2649.725
3174.18631	2624.925
3176.5097	2619.825
3178.83169	2627.125
3181.15228	2625.625
3183.47147	2600.925
3185.78926	2576.725
3188.10565	2598.625
3190.42065	2570.025
3192.73424	2581.225
3195.04645	2570.425
3197.35725	2557.725
3199.66667	2563.125
3201.97469	2565.725
3204.28132	2544.325
3206.58656	2562.125
3208.8904	2558.525
3211.19287	2553.425
3213.49394	2553.025
3215.79363	2528.725
3218.09193	2546.125
3220.38884	2552.925
3222.68438	2543.725
3224.97853	2519.525
3227.2713	2539.925
3229.56269	2526.425
3231.8527	2535.025
3234.14133	2510.625
3236.42858	2493.425
3238.71446	2491.025
3240.99896	2508.425
3243.28209	2477.525
3245.56384	2497.925
3247.84423	2460.125
3250.12324	2488.225
3252.40088	2477.125
3254.67715	2464.625
3256.95205	2445.825
3259.22558	2469.825
3261.49775	2464.525
3263.76855	2468.125
3266.03799	2466.725
3268.30606	2461.825
3270.57277	2464.125
3272.83812	2426.125
3275.10211	2433.625
3277.36474	2453.025
3279.62601	2430.125
3281.88593	2428.625
3284.14448	2391.525
3286.40168	2410.825
3288.65753	2401.525
3290.91202	2395.725
3293.16516	2377.625
3295.41695	2408.525
3297.66738	2399.525
3299.91647	2374.525
3302.16421	2367.425
3304.4106	2327.725
3306.65564	2337.725
3308.89933	2306.025
3311.14169	2300.025
3313.38269	2283.825
3315.62236	2253.025
3317.86068	2240.725
3320.09766	2226.725
3322.3333	2206.025
3324.5676	2188.525
3326.80056	2150.525
3329.03219	2161.425
3331.26248	-0.075
3333.49143	-0.275
3335.71905	0.625
