Data from AgNPs_UA_10uM_CRN_500uM_SU_RamanShift__13__13-07-30-256.txt Node

Date: Thu Aug 04 13:07:30 BST 2022
User: TCL
Spectrometer: QEP01345
Trigger mode: 4
Integration Time (sec): 1.000000E0
Scans to average: 10
Electric dark correction enabled: true
Nonlinearity correction enabled: false
Boxcar width: 0
XAxis mode: Raman Shifts
Number of Pixels in Spectrum: 1044
>>>>>Begin Spectral Data<<<<<
46.04893	0.4875
50.45542	-0.1125
54.85868	-0.1125
59.25871	0.3875
63.6555	18.5875
68.04907	18.4875
72.43941	16.0875
76.82654	18.0875
81.21044	19.8875
85.59113	22.7875
89.96862	21.6875
94.34289	23.5875
98.71396	21.5875
103.08183	25.2875
107.4465	23.7875
111.80798	24.1875
116.16626	26.5875
120.52136	28.5875
124.87327	29.6875
129.222	31.7875
133.56755	31.6875
137.90993	33.7875
142.24913	39.0875
146.58517	45.7875
150.91804	51.5875
155.24774	65.4875
159.57429	82.1875
163.89768	103.8875
168.21792	142.8875
172.53501	196.0875
176.84895	273.2875
181.15975	395.5875
185.46741	553.9875
189.77193	775.4875
194.07331	1042.1875
198.37157	1354.4875
202.6667	1663.9875
206.9587	1984.2875
211.24758	2320.1875
215.53334	2649.5875
219.81599	3011.9875
224.09553	3401.5875
228.37195	3821.8875
232.64527	4287.6875
236.91549	4744.3875
241.18261	5147.4875
245.44663	5481.9875
249.70755	5720.6875
253.96539	5933.8875
258.22014	6121.9875
262.4718	6265.2875
266.72039	6346.4875
270.96589	6369.2875
275.20832	6334.2875
279.44768	6245.1875
283.68397	6137.4875
287.91719	6056.6875
292.14735	6074.6875
296.37445	6199.1875
300.59849	6373.4875
304.81948	6666.2875
309.03742	6928.9875
313.25231	7064.5875
317.46415	6994.6875
321.67296	6762.9875
325.87872	6436.4875
330.08145	6286.9875
334.28114	6266.0875
338.47781	6315.6875
342.67145	6468.7875
346.86207	6652.9875
351.04966	6947.0875
355.23424	7228.1875
359.4158	7429.8875
363.59435	7484.0875
367.76989	7487.0875
371.94243	7448.5875
376.11196	7393.9875
380.27849	7401.2875
384.44203	7388.2875
388.60257	7419.6875
392.76012	7477.6875
396.91468	7573.2875
401.06626	7700.0875
405.21485	7763.9875
409.36047	7670.4875
413.50311	7392.1875
417.64277	7181.2875
421.77947	7016.7875
425.9132	6947.2875
430.04396	6948.6875
434.17176	6955.6875
438.2966	7020.7875
442.41849	7124.6875
446.53742	7249.5875
450.6534	7403.5875
454.76644	7486.7875
458.87653	7553.8875
462.98368	7569.2875
467.08789	7527.6875
471.18916	7402.4875
475.2875	7259.9875
479.38291	7127.3875
483.4754	7036.8875
487.56496	6986.2875
491.6516	6959.3875
495.73531	6954.3875
499.81612	6999.1875
503.89401	7064.9875
507.96899	7114.5875
512.04106	7160.2875
516.11023	7226.3875
520.1765	7255.7875
524.23987	7271.5875
528.30034	7243.7875
532.35792	7246.4875
536.41261	7179.1875
540.46441	7093.5875
544.51333	7069.4875
548.55936	7117.2875
552.60252	7203.8875
556.64279	7333.7875
560.6802	7450.2875
564.71473	7562.5875
568.7464	7653.7875
572.7752	7604.5875
576.80114	7352.1875
580.82422	7209.9875
584.84444	7118.2875
588.86181	7111.3875
592.87633	7107.8875
596.888	7237.9875
600.89682	7614.0875
604.9028	8515.1875
608.90594	10395.5875
612.90624	12299.6875
616.90371	11306.7875
620.89834	8746.2875
624.89015	7687.7875
628.87913	7598.4875
632.86528	7756.4875
636.84862	7875.3875
640.82913	7680.1875
644.80683	7361.4875
648.78172	7186.9875
652.75379	7223.0875
656.72306	7446.6875
660.68952	7641.8875
664.65319	7619.8875
668.61405	7504.8875
672.57211	7545.9875
676.52738	7513.9875
680.47986	7373.1875
684.42955	7209.6875
688.37646	7176.1875
692.32058	7211.8875
696.26192	7320.9875
700.20048	7475.0875
704.13626	7486.8875
708.06928	7433.3875
711.99952	7318.3875
715.927	7310.2875
719.85171	7360.0875
723.77365	7386.1875
727.69284	7348.2875
731.60928	7274.1875
735.52295	7296.4875
739.43388	7327.5875
743.34206	7337.9875
747.24749	7340.6875
751.15017	7340.6875
755.05012	7402.0875
758.94733	7699.2875
762.8418	8432.0875
766.73354	9474.7875
770.62254	10273.3875
774.50882	10416.2875
778.39237	10088.8875
782.27321	9401.8875
786.15132	8546.0875
790.02671	7925.0875
793.89938	7630.8875
797.76935	7452.7875
801.6366	7364.8875
805.50115	7303.1875
809.36299	7295.1875
813.22213	7258.1875
817.07857	7274.8875
820.93231	7281.2875
824.78336	7275.6875
828.63172	7311.7875
832.47738	7317.7875
836.32036	7292.9875
840.16066	7282.2875
843.99827	7244.6875
847.8332	7275.0875
851.66546	7287.1875
855.49504	7303.3875
859.32195	7307.4875
863.1462	7272.7875
866.96777	7265.2875
870.78668	7301.6875
874.60293	7303.3875
878.41652	7348.4875
882.22745	7401.6875
886.03573	7445.2875
889.84136	7455.2875
893.64433	7409.9875
897.44466	7413.0875
901.24235	7411.1875
905.0374	7391.2875
908.8298	7336.3875
912.61957	7334.1875
916.40671	7335.4875
920.19121	7350.4875
923.97308	7372.1875
927.75233	7454.7875
931.52895	7522.0875
935.30295	7441.1875
939.07433	7329.4875
942.84309	7280.3875
946.60924	7245.1875
950.37278	7213.3875
954.13371	7207.3875
957.89203	7213.4875
961.64774	7216.9875
965.40086	7200.9875
969.15137	7216.9875
972.89929	7193.9875
976.64461	7193.5875
980.38733	7189.3875
984.12747	7222.8875
987.86502	7221.2875
991.59999	7275.2875
995.33237	7306.8875
999.06217	7360.4875
1002.78939	7465.3875
1006.51404	7594.0875
1010.23611	7747.9875
1013.95561	7798.3875
1017.67255	7807.1875
1021.38692	7783.9875
1025.09872	7739.1875
1028.80796	7652.4875
1032.51465	7656.6875
1036.21877	7640.0875
1039.92035	7665.2875
1043.61937	7703.6875
1047.31584	7752.2875
1051.00976	7765.0875
1054.70114	7790.4875
1058.38998	7805.3875
1062.07627	7852.9875
1065.76003	7904.7875
1069.44126	7989.5875
1073.11995	8141.7875
1076.79611	8310.0875
1080.46974	8441.9875
1084.14085	8534.8875
1087.80943	8619.7875
1091.47549	8660.8875
1095.13903	8642.4875
1098.80005	8674.2875
1102.45857	8773.7875
1106.11456	8722.3875
1109.76805	8579.8875
1113.41903	8571.4875
1117.06751	8676.3875
1120.71348	8829.5875
1124.35696	9047.9875
1127.99793	9184.5875
1131.63641	8993.1875
1135.2724	8692.4875
1138.90589	8470.2875
1142.5369	8336.1875
1146.16542	8256.7875
1149.79145	8176.2875
1153.415	8099.0875
1157.03607	8047.3875
1160.65467	8154.7875
1164.27079	8325.9875
1167.88443	8603.2875
1171.49561	8993.8875
1175.10432	9545.3875
1178.71056	10329.4875
1182.31434	10954.7875
1185.91565	11219.4875
1189.51451	11207.2875
1193.11091	11102.5875
1196.70485	10949.9875
1200.29634	10720.6875
1203.88538	10424.1875
1207.47197	10040.2875
1211.05612	9641.5875
1214.63782	9197.1875
1218.21708	8928.5875
1221.79391	8744.6875
1225.36829	8659.7875
1228.94024	8647.8875
1232.50976	8645.0875
1236.07685	8704.0875
1239.6415	8745.5875
1243.20374	8792.7875
1246.76355	8859.4875
1250.32093	8910.5875
1253.8759	9048.1875
1257.42845	9246.6875
1260.97859	9504.5875
1264.52631	9769.1875
1268.07163	9924.1875
1271.61453	10015.7875
1275.15503	10017.3875
1278.69312	9999.4875
1282.22882	10006.6875
1285.76211	10081.8875
1289.29301	10256.7875
1292.82151	10481.7875
1296.34761	10661.0875
1299.87133	10980.5875
1303.39266	11567.7875
1306.9116	12461.5875
1310.42815	13448.8875
1313.94233	13788.6875
1317.45412	13320.2875
1320.96354	12525.6875
1324.47058	11787.4875
1327.97525	11188.4875
1331.47754	10790.5875
1334.97747	10713.5875
1338.47502	10837.0875
1341.97022	11210.0875
1345.46305	11945.7875
1348.95352	13012.9875
1352.44163	14189.5875
1355.92738	15393.5875
1359.41078	16607.6875
1362.89183	17448.1875
1366.37053	16569.2875
1369.84688	14171.7875
1373.32088	12053.3875
1376.79254	10863.8875
1380.26186	10288.0875
1383.72883	9901.6875
1387.19347	9576.9875
1390.65578	9249.4875
1394.11575	8987.2875
1397.57339	8806.3875
1401.0287	8687.4875
1404.48168	8678.6875
1407.93234	8761.2875
1411.38068	8870.8875
1414.82669	8993.6875
1418.27039	9053.4875
1421.71177	9058.8875
1425.15083	8966.3875
1428.58758	8866.0875
1432.02203	8835.2875
1435.45416	8845.3875
1438.88399	8843.8875
1442.31151	8822.4875
1445.73673	8846.3875
1449.15965	8876.1875
1452.58027	8881.1875
1455.9986	8854.1875
1459.41463	8879.2875
1462.82837	8935.4875
1466.23982	9116.0875
1469.64898	9334.4875
1473.05586	9468.0875
1476.46045	9585.1875
1479.86276	9711.1875
1483.26279	9817.1875
1486.66054	10041.4875
1490.05602	10332.0875
1493.44922	10843.2875
1496.84016	11621.0875
1500.22882	12732.0875
1503.61521	14069.5875
1506.99934	15340.6875
1510.38121	16152.4875
1513.76081	15973.1875
1517.13816	14744.3875
1520.51324	13134.6875
1523.88607	11794.2875
1527.25665	10979.0875
1530.62498	10580.0875
1533.99105	10368.0875
1537.35488	10273.3875
1540.71647	10192.4875
1544.07581	10073.8875
1547.4329	9974.4875
1550.78776	9802.2875
1554.14038	9720.0875
1557.49077	9678.7875
1560.83892	9804.4875
1564.18484	10054.1875
1567.52853	10321.2875
1570.86999	10485.8875
1574.20922	10557.9875
1577.54624	10442.0875
1580.88103	10019.7875
1584.2136	9504.2875
1587.54395	9167.2875
1590.87208	9156.3875
1594.19801	9384.7875
1597.52172	9709.7875
1600.84321	9815.3875
1604.16251	9742.4875
1607.47959	9623.7875
1610.79447	9410.3875
1614.10715	9078.3875
1617.41763	8707.9875
1620.7259	8427.4875
1624.03199	8243.5875
1627.33587	8167.6875
1630.63757	8233.8875
1633.93707	8473.5875
1637.23439	8907.7875
1640.52951	9662.6875
1643.82246	10686.2875
1647.11321	11776.1875
1650.40179	12335.2875
1653.68819	11819.0875
1656.97241	10557.4875
1660.25446	9247.2875
1663.53433	8343.9875
1666.81203	7796.8875
1670.08756	7495.6875
1673.36092	7305.9875
1676.63211	7173.5875
1679.90115	7062.9875
1683.16801	6982.5875
1686.43272	6920.7875
1689.69527	6886.5875
1692.95567	6839.7875
1696.2139	6826.2875
1699.46999	6800.4875
1702.72392	6792.6875
1705.97571	6783.1875
1709.22535	6790.1875
1712.47284	6775.6875
1715.71819	6789.4875
1718.96139	6781.8875
1722.20246	6766.6875
1725.44139	6747.9875
1728.67818	6700.1875
1731.91284	6667.7875
1735.14537	6637.8875
1738.37576	6592.3875
1741.60403	6586.9875
1744.83017	6563.6875
1748.05418	6543.3875
1751.27607	6525.4875
1754.49584	6511.6875
1757.71349	6521.4875
1760.92903	6507.7875
1764.14244	6495.1875
1767.35375	6458.9875
1770.56294	6441.5875
1773.77002	6429.5875
1776.97499	6411.7875
1780.17785	6383.7875
1783.37861	6380.0875
1786.57727	6367.5875
1789.77382	6342.2875
1792.96828	6341.5875
1796.16064	6310.1875
1799.3509	6318.2875
1802.53907	6309.1875
1805.72514	6296.5875
1808.90913	6275.0875
1812.09102	6258.4875
1815.27083	6230.7875
1818.44856	6213.1875
1821.6242	6196.0875
1824.79776	6183.8875
1827.96924	6185.9875
1831.13864	6165.6875
1834.30597	6176.9875
1837.47122	6151.8875
1840.6344	6143.2875
1843.7955	6131.0875
1846.95454	6126.2875
1850.11151	6143.4875
1853.26642	6127.3875
1856.41926	6117.2875
1859.57004	6126.3875
1862.71876	6139.0875
1865.86542	6092.6875
1869.01003	6103.8875
1872.15258	6078.9875
1875.29308	6068.2875
1878.43152	6057.3875
1881.56792	6069.1875
1884.70227	6055.2875
1887.83457	6025.0875
1890.96482	6014.6875
1894.09304	6007.3875
1897.21921	5998.3875
1900.34335	5985.0875
1903.46544	5979.2875
1906.58551	5973.0875
1909.70353	5956.3875
1912.81953	5954.3875
1915.93349	5943.8875
1919.04543	5939.9875
1922.15534	5926.2875
1925.26322	5931.5875
1928.36908	5905.8875
1931.47292	5877.5875
1934.57473	5869.7875
1937.67453	5866.0875
1940.77232	5834.0875
1943.86808	5834.8875
1946.96184	5790.1875
1950.05358	5802.0875
1953.14331	5784.4875
1956.23103	5748.7875
1959.31675	5740.0875
1962.40046	5720.5875
1965.48217	5691.5875
1968.56188	5683.2875
1971.63959	5673.2875
1974.7153	5647.0875
1977.78901	5646.3875
1980.86073	5654.5875
1983.93046	5602.9875
1986.99819	5584.0875
1990.06394	5552.3875
1993.1277	5551.2875
1996.18947	5515.2875
1999.24925	5482.0875
2002.30706	5482.3875
2005.36288	5452.7875
2008.41672	5442.8875
2011.46859	5414.0875
2014.51848	5399.9875
2017.56639	5394.8875
2020.61233	5353.7875
2023.6563	5347.5875
2026.6983	5337.9875
2029.73833	5309.8875
2032.7764	5291.4875
2035.8125	5268.8875
2038.84664	5282.0875
2041.87881	5254.7875
2044.90903	5244.5875
2047.93729	5243.5875
2050.96359	5213.9875
2053.98794	5226.3875
2057.01034	5211.3875
2060.03078	5199.8875
2063.04927	5195.4875
2066.06582	5191.2875
2069.08042	5181.7875
2072.09307	5173.9875
2075.10378	5161.4875
2078.11255	5179.2875
2081.11938	5156.6875
2084.12426	5155.2875
2087.12722	5147.5875
2090.12824	5146.8875
2093.12732	5149.6875
2096.12447	5157.1875
2099.11969	5170.3875
2102.11299	5154.0875
2105.10435	5137.6875
2108.09379	5146.5875
2111.08131	5143.9875
2114.0669	5147.9875
2117.05057	5147.3875
2120.03233	5161.2875
2123.01216	5139.4875
2125.99008	5150.0875
2128.96609	5165.1875
2131.94018	5157.2875
2134.91236	5153.3875
2137.88263	5171.2875
2140.851	5156.8875
2143.81746	5172.3875
2146.78201	5152.9875
2149.74466	5151.9875
2152.7054	5144.6875
2155.66425	5140.7875
2158.6212	5139.7875
2161.57625	5130.4875
2164.52941	5135.6875
2167.48067	5118.8875
2170.43004	5121.8875
2173.37752	5109.7875
2176.32311	5097.9875
2179.26681	5128.5875
2182.20863	5111.1875
2185.14856	5124.5875
2188.08661	5112.6875
2191.02278	5110.8875
2193.95707	5104.4875
2196.88948	5078.4875
2199.82001	5087.4875
2202.74867	5064.1875
2205.67545	5078.2875
2208.60037	5065.6875
2211.52341	5069.9875
2214.44458	5049.3875
2217.36388	5017.6875
2220.28132	5008.1875
2223.1969	4986.9875
2226.11061	4980.9875
2229.02246	4957.6875
2231.93245	4955.3875
2234.84058	4964.5875
2237.74686	4951.1875
2240.65128	4922.9875
2243.55385	4925.5875
2246.45456	4921.1875
2249.35343	4911.6875
2252.25044	4901.2875
2255.14561	4902.0875
2258.03893	4897.2875
2260.93041	4885.1875
2263.82004	4875.4875
2266.70783	4868.0875
2269.59378	4859.2875
2272.4779	4837.1875
2275.36017	4834.6875
2278.24061	4820.3875
2281.11922	4799.0875
2283.996	4792.1875
2286.87094	4785.6875
2289.74405	4777.4875
2292.61534	4760.2875
2295.4848	4750.9875
2298.35243	4745.5875
2301.21824	4733.8875
2304.08223	4743.3875
2306.94439	4740.5875
2309.80474	4727.8875
2312.66327	4714.9875
2315.51999	4702.4875
2318.37489	4693.4875
2321.22797	4689.9875
2324.07925	4675.2875
2326.92871	4665.5875
2329.77637	4653.8875
2332.62222	4649.5875
2335.46626	4628.4875
2338.3085	4632.1875
2341.14893	4621.4875
2343.98756	4612.4875
2346.8244	4614.7875
2349.65943	4605.7875
2352.49267	4607.8875
2355.32411	4594.4875
2358.15376	4615.4875
2360.98161	4599.5875
2363.80768	4599.1875
2366.63195	4586.0875
2369.45444	4586.7875
2372.27514	4605.6875
2375.09405	4587.2875
2377.91118	4572.7875
2380.72652	4566.0875
2383.54009	4546.3875
2386.35187	4548.6875
2389.16188	4531.2875
2391.97011	4524.2875
2394.77657	4498.4875
2397.58125	4474.1875
2400.38416	4473.0875
2403.18529	4467.3875
2405.98466	4456.0875
2408.78226	4459.5875
2411.57809	4434.2875
2414.37216	4420.9875
2417.16446	4439.1875
2419.955	4437.6875
2422.74378	4411.4875
2425.5308	4422.2875
2428.31606	4426.9875
2431.09956	4403.3875
2433.88131	4417.5875
2436.6613	4401.1875
2439.43954	4393.0875
2442.21603	4386.1875
2444.99077	4384.8875
2447.76377	4380.6875
2450.53501	4394.8875
2453.30451	4364.0875
2456.07226	4370.2875
2458.83827	4352.0875
2461.60254	4353.2875
2464.36507	4333.1875
2467.12586	4314.8875
2469.88492	4317.9875
2472.64224	4341.0875
2475.39782	4330.3875
2478.15167	4321.3875
2480.90379	4311.4875
2483.65417	4298.0875
2486.40283	4304.8875
2489.14976	4312.7875
2491.89497	4325.6875
2494.63845	4307.8875
2497.3802	4318.2875
2500.12024	4275.0875
2502.85855	4273.8875
2505.59514	4272.6875
2508.33002	4270.2875
2511.06318	4260.5875
2513.79462	4242.0875
2516.52435	4236.4875
2519.25237	4214.2875
2521.97867	4212.0875
2524.70327	4220.9875
2527.42616	4195.3875
2530.14734	4188.5875
2532.86681	4174.3875
2535.58458	4182.9875
2538.30065	4193.8875
2541.01501	4167.2875
2543.72768	4176.1875
2546.43864	4161.6875
2549.14791	4153.7875
2551.85548	4153.9875
2554.56136	4151.3875
2557.26554	4147.1875
2559.96803	4144.9875
2562.66883	4111.3875
2565.36794	4110.5875
2568.06536	4085.1875
2570.7611	4062.2875
2573.45514	4067.5875
2576.14751	4054.7875
2578.83819	4048.1875
2581.52719	4043.3875
2584.21451	4040.0875
2586.90015	4042.8875
2589.58411	4013.0875
2592.2664	4024.9875
2594.94701	4005.7875
2597.62594	3996.0875
2600.30321	3989.6875
2602.9788	3992.3875
2605.65273	3980.6875
2608.32498	3973.6875
2610.99557	3961.0875
2613.66449	3950.6875
2616.33175	3945.0875
2618.99734	3955.9875
2621.66128	3940.9875
2624.32355	3939.2875
2626.98416	3928.6875
2629.64311	3902.6875
2632.30041	3905.8875
2634.95605	3887.5875
2637.61004	3875.4875
2640.26238	3880.2875
2642.91306	3863.5875
2645.56209	3869.1875
2648.20948	3859.0875
2650.85521	3844.2875
2653.4993	3863.5875
2656.14175	3850.0875
2658.78255	3845.6875
2661.42171	3859.4875
2664.05923	3857.5875
2666.6951	3851.7875
2669.32934	3865.4875
2671.96194	3846.1875
2674.59291	3850.8875
2677.22224	3860.5875
2679.84993	3856.5875
2682.476	3858.9875
2685.10043	3856.5875
2687.72324	3840.8875
2690.34441	3861.5875
2692.96396	3836.4875
2695.58188	3824.1875
2698.19818	3830.3875
2700.81285	3833.3875
2703.4259	3821.1875
2706.03733	3818.6875
2708.64714	3812.5875
2711.25533	3812.2875
2713.86191	3816.6875
2716.46687	3825.4875
2719.07021	3819.9875
2721.67194	3828.0875
2724.27206	3817.4875
2726.87057	3809.4875
2729.46747	3806.6875
2732.06276	3802.8875
2734.65644	3806.2875
2737.24852	3789.8875
2739.83899	3784.2875
2742.42786	3763.0875
2745.01513	3767.8875
2747.60079	3752.3875
2750.18486	3744.7875
2752.76733	3749.9875
2755.3482	3740.7875
2757.92747	3732.2875
2760.50515	3714.5875
2763.08123	3720.8875
2765.65573	3707.5875
2768.22863	3697.7875
2770.79994	3693.5875
2773.36967	3686.5875
2775.9378	3682.9875
2778.50435	3678.2875
2781.06932	3666.0875
2783.6327	3669.8875
2786.1945	3669.9875
2788.75471	3656.9875
2791.31335	3629.8875
2793.87041	3627.0875
2796.42589	3623.5875
2798.97979	3610.7875
2801.53212	3617.4875
2804.08288	3620.6875
2806.63206	3593.0875
2809.17967	3599.1875
2811.72571	3585.9875
2814.27018	3588.2875
2816.81308	3570.1875
2819.35442	3560.3875
2821.89419	3567.0875
2824.43239	3563.0875
2826.96904	3544.5875
2829.50412	3551.9875
2832.03763	3522.3875
2834.56959	3522.2875
2837.1	3524.2875
2839.62884	3502.6875
2842.15613	3515.0875
2844.68186	3515.6875
2847.20604	3505.9875
2849.72867	3483.6875
2852.24974	3487.2875
2854.76927	3478.2875
2857.28724	3481.7875
2859.80367	3471.7875
2862.31855	3456.7875
2864.83189	3456.2875
2867.34368	3448.7875
2869.85393	3460.4875
2872.36264	3441.4875
2874.8698	3449.3875
2877.37543	3437.1875
2879.87952	3436.4875
2882.38207	3431.9875
2884.88308	3417.0875
2887.38256	3425.5875
2889.88051	3411.2875
2892.37692	3403.6875
2894.8718	3412.9875
2897.36515	3412.1875
2899.85698	3389.5875
2902.34727	3393.5875
2904.83604	3399.4875
2907.32328	3409.6875
2909.809	3423.3875
2912.29319	3411.3875
2914.77587	3423.3875
2917.25702	3418.6875
2919.73665	3422.2875
2922.21476	3415.8875
2924.69136	3415.5875
2927.16644	3404.4875
2929.64	3416.9875
2932.11205	3388.3875
2934.58258	3374.0875
2937.05161	3384.1875
2939.51912	3379.0875
2941.98513	3362.9875
2944.44962	3346.4875
2946.91261	3337.8875
2949.37409	3349.8875
2951.83407	3332.7875
2954.29254	3341.5875
2956.74951	3330.7875
2959.20498	3337.0875
2961.65895	3334.6875
2964.11142	3331.6875
2966.56239	3310.5875
2969.01186	3334.4875
2971.45984	3321.6875
2973.90632	3331.1875
2976.35131	3307.8875
2978.7948	3294.0875
2981.23681	3293.3875
2983.67732	3288.5875
2986.11635	3283.2875
2988.55388	3271.7875
2990.98993	3263.0875
2993.4245	3261.8875
2995.85758	3245.3875
2998.28917	3239.8875
3000.71928	3222.1875
3003.14791	3207.0875
3005.57506	3218.8875
3008.00073	3190.9875
3010.42493	3189.6875
3012.84764	3184.4875
3015.26888	3190.2875
3017.68865	3176.4875
3020.10694	3157.8875
3022.52376	3162.2875
3024.9391	3150.3875
3027.35298	3123.6875
3029.76539	3126.9875
3032.17632	3127.0875
3034.5858	3126.3875
3036.9938	3116.3875
3039.40034	3097.7875
3041.80542	3090.5875
3044.20903	3072.8875
3046.61118	3084.8875
3049.01187	3071.7875
3051.4111	3066.6875
3053.80888	3053.6875
3056.20519	3044.0875
3058.60005	3041.9875
3060.99345	3037.4875
3063.3854	3035.2875
3065.7759	3019.1875
3068.16494	3007.6875
3070.55254	3007.7875
3072.93868	2986.6875
3075.32338	2978.3875
3077.70662	2980.7875
3080.08842	2964.3875
3082.46878	2968.4875
3084.84769	2944.6875
3087.22515	2931.2875
3089.60118	2951.4875
3091.97576	2943.4875
3094.3489	2929.6875
3096.72061	2936.1875
3099.09087	2925.1875
3101.4597	2933.0875
3103.82709	2937.1875
3106.19305	2926.2875
3108.55757	2934.3875
3110.92066	2915.8875
3113.28232	2898.0875
3115.64255	2897.2875
3118.00134	2886.0875
3120.35871	2878.9875
3122.71466	2877.9875
3125.06917	2875.0875
3127.42226	2861.8875
3129.77393	2861.0875
3132.12417	2851.4875
3134.47299	2843.9875
3136.82039	2839.2875
3139.16636	2845.5875
3141.51092	2848.9875
3143.85406	2845.9875
3146.19579	2838.4875
3148.53609	2821.1875
3150.87499	2829.4875
3153.21246	2836.6875
3155.54853	2829.0875
3157.88318	2826.3875
3160.21642	2824.3875
3162.54826	2831.9875
3164.87868	2825.9875
3167.2077	2812.9875
3169.5353	2796.6875
3171.86151	2811.4875
3174.18631	2793.1875
3176.5097	2791.0875
3178.83169	2767.0875
3181.15228	2781.9875
3183.47147	2769.1875
3185.78926	2761.8875
3188.10565	2747.5875
3190.42065	2745.0875
3192.73424	2732.4875
3195.04645	2734.6875
3197.35725	2732.0875
3199.66667	2720.2875
3201.97469	2722.3875
3204.28132	2737.9875
3206.58656	2732.3875
3208.8904	2727.1875
3211.19287	2735.1875
3213.49394	2723.7875
3215.79363	2727.2875
3218.09193	2733.5875
3220.38884	2713.8875
3222.68438	2740.3875
3224.97853	2711.7875
3227.2713	2715.4875
3229.56269	2713.9875
3231.8527	2708.8875
3234.14133	2701.3875
3236.42858	2677.7875
3238.71446	2656.7875
3240.99896	2666.3875
3243.28209	2665.0875
3245.56384	2659.6875
3247.84423	2651.2875
3250.12324	2645.9875
3252.40088	2643.1875
3254.67715	2626.8875
3256.95205	2625.5875
3259.22558	2623.8875
3261.49775	2632.9875
3263.76855	2626.8875
3266.03799	2634.7875
3268.30606	2621.7875
3270.57277	2624.0875
3272.83812	2613.0875
3275.10211	2593.3875
3277.36474	2592.1875
3279.62601	2599.1875
3281.88593	2584.2875
3284.14448	2578.7875
3286.40168	2578.4875
3288.65753	2575.5875
3290.91202	2578.2875
3293.16516	2565.2875
3295.41695	2557.8875
3297.66738	2542.1875
3299.91647	2547.1875
3302.16421	2526.4875
3304.4106	2510.8875
3306.65564	2495.4875
3308.89933	2468.6875
3311.14169	2453.4875
3313.38269	2418.7875
3315.62236	2408.2875
3317.86068	2389.8875
3320.09766	2382.5875
3322.3333	2357.6875
3324.5676	2343.0875
3326.80056	2298.0875
3329.03219	2288.9875
3331.26248	-0.0125
3333.49143	-0.0125
3335.71905	-0.5125
