Data from AgNPs_UA_20uM_CRN_500uM_SU_RamanShift__81__13-50-00-307.txt Node

Date: Thu Aug 04 13:50:00 BST 2022
User: TCL
Spectrometer: QEP01345
Trigger mode: 4
Integration Time (sec): 1.000000E0
Scans to average: 10
Electric dark correction enabled: true
Nonlinearity correction enabled: false
Boxcar width: 0
XAxis mode: Raman Shifts
Number of Pixels in Spectrum: 1044
>>>>>Begin Spectral Data<<<<<
46.04893	-0.575
50.45542	-0.475
54.85868	1.825
59.25871	0.125
63.6555	14.025
68.04907	11.025
72.43941	15.825
76.82654	13.825
81.21044	15.225
85.59113	13.825
89.96862	14.625
94.34289	15.825
98.71396	16.925
103.08183	15.825
107.4465	16.525
111.80798	17.825
116.16626	18.125
120.52136	21.025
124.87327	19.125
129.222	22.825
133.56755	21.225
137.90993	23.725
142.24913	26.825
146.58517	29.925
150.91804	34.025
155.24774	40.625
159.57429	53.925
163.89768	68.325
168.21792	93.825
172.53501	129.825
176.84895	175.125
181.15975	254.525
185.46741	351.925
189.77193	485.125
194.07331	655.125
198.37157	845.425
202.6667	1055.025
206.9587	1257.625
211.24758	1467.125
215.53334	1666.325
219.81599	1902.025
224.09553	2153.125
228.37195	2423.625
232.64527	2708.225
236.91549	3012.325
241.18261	3278.425
245.44663	3468.125
249.70755	3627.625
253.96539	3746.725
258.22014	3865.725
262.4718	3970.825
266.72039	4042.825
270.96589	4086.725
275.20832	4068.725
279.44768	4014.825
283.68397	3939.525
287.91719	3872.525
292.14735	3886.725
296.37445	3976.725
300.59849	4120.625
304.81948	4309.025
309.03742	4468.125
313.25231	4546.025
317.46415	4485.725
321.67296	4304.025
325.87872	4084.025
330.08145	3984.325
334.28114	3986.025
338.47781	4039.325
342.67145	4135.325
346.86207	4254.925
351.04966	4440.125
355.23424	4606.025
359.4158	4746.725
363.59435	4806.125
367.76989	4821.725
371.94243	4807.925
376.11196	4791.325
380.27849	4786.725
384.44203	4754.725
388.60257	4757.325
392.76012	4802.425
396.91468	4875.025
401.06626	4957.825
405.21485	4966.325
409.36047	4886.125
413.50311	4696.325
417.64277	4536.925
421.77947	4426.325
425.9132	4387.625
430.04396	4400.025
434.17176	4454.625
438.2966	4543.725
442.41849	4664.625
446.53742	4799.025
450.6534	4943.825
454.76644	5001.325
458.87653	5005.025
462.98368	4943.225
467.08789	4875.425
471.18916	4784.325
475.2875	4658.525
479.38291	4542.825
483.4754	4468.925
487.56496	4446.125
491.6516	4402.725
495.73531	4394.325
499.81612	4390.025
503.89401	4424.125
507.96899	4456.625
512.04106	4489.825
516.11023	4555.025
520.1765	4612.225
524.23987	4622.225
528.30034	4607.025
532.35792	4584.325
536.41261	4548.925
540.46441	4481.325
544.51333	4440.225
548.55936	4475.625
552.60252	4570.725
556.64279	4633.525
560.6802	4688.525
564.71473	4738.925
568.7464	4832.825
572.7752	4844.925
576.80114	4733.425
580.82422	4622.325
584.84444	4601.825
588.86181	4698.425
592.87633	4782.525
596.888	4915.725
600.89682	5081.525
604.9028	5700.025
608.90594	7031.325
612.90624	8366.125
616.90371	7634.925
620.89834	5738.525
624.89015	5005.625
628.87913	4899.225
632.86528	4933.125
636.84862	4912.325
640.82913	4770.525
644.80683	4576.025
648.78172	4466.325
652.75379	4507.125
656.72306	4687.725
660.68952	4859.225
664.65319	4814.725
668.61405	4640.625
672.57211	4598.225
676.52738	4576.925
680.47986	4530.425
684.42955	4478.025
688.37646	4488.525
692.32058	4520.025
696.26192	4571.325
700.20048	4653.125
704.13626	4669.925
708.06928	4617.125
711.99952	4578.025
715.927	4575.425
719.85171	4602.625
723.77365	4584.425
727.69284	4548.925
731.60928	4524.225
735.52295	4534.825
739.43388	4579.125
743.34206	4604.025
747.24749	4617.625
751.15017	4626.025
755.05012	4686.825
758.94733	4903.925
762.8418	5394.725
766.73354	6158.225
770.62254	6775.825
774.50882	6918.825
778.39237	6512.425
782.27321	5844.925
786.15132	5245.825
790.02671	4868.125
793.89938	4706.725
797.76935	4632.225
801.6366	4591.725
805.50115	4597.125
809.36299	4585.125
813.22213	4541.825
817.07857	4530.625
820.93231	4548.825
824.78336	4546.625
828.63172	4563.325
832.47738	4570.525
836.32036	4587.925
840.16066	4595.625
843.99827	4599.625
847.8332	4598.925
851.66546	4578.225
855.49504	4610.325
859.32195	4588.825
863.1462	4588.725
866.96777	4561.425
870.78668	4551.025
874.60293	4577.525
878.41652	4577.025
882.22745	4619.025
886.03573	4631.425
889.84136	4625.725
893.64433	4579.725
897.44466	4586.725
901.24235	4584.925
905.0374	4565.825
908.8298	4551.525
912.61957	4534.325
916.40671	4565.025
920.19121	4606.825
923.97308	4669.225
927.75233	4753.725
931.52895	4776.925
935.30295	4729.425
939.07433	4619.625
942.84309	4527.125
946.60924	4506.325
950.37278	4486.225
954.13371	4484.025
957.89203	4466.025
961.64774	4444.025
965.40086	4442.225
969.15137	4416.425
972.89929	4425.425
976.64461	4427.825
980.38733	4425.925
984.12747	4455.825
987.86502	4498.925
991.59999	4565.125
995.33237	4662.425
999.06217	4786.725
1002.78939	4935.425
1006.51404	4992.725
1010.23611	5068.125
1013.95561	5110.225
1017.67255	5129.725
1021.38692	5088.325
1025.09872	5082.225
1028.80796	5108.925
1032.51465	5223.225
1036.21877	5328.625
1039.92035	5323.525
1043.61937	5263.725
1047.31584	5154.725
1051.00976	5061.725
1054.70114	4997.525
1058.38998	5005.425
1062.07627	5022.325
1065.76003	5044.025
1069.44126	5094.825
1073.11995	5147.725
1076.79611	5213.625
1080.46974	5273.225
1084.14085	5360.925
1087.80943	5424.125
1091.47549	5448.925
1095.13903	5361.925
1098.80005	5248.825
1102.45857	5157.525
1106.11456	5121.625
1109.76805	5144.825
1113.41903	5248.925
1117.06751	5345.325
1120.71348	5494.725
1124.35696	5670.825
1127.99793	5780.325
1131.63641	5695.925
1135.2724	5493.125
1138.90589	5335.025
1142.5369	5220.425
1146.16542	5147.125
1149.79145	5127.225
1153.415	5101.725
1157.03607	5102.925
1160.65467	5154.125
1164.27079	5289.125
1167.88443	5497.925
1171.49561	5820.925
1175.10432	6327.925
1178.71056	7001.125
1182.31434	7585.225
1185.91565	7798.625
1189.51451	7695.025
1193.11091	7399.625
1196.70485	7020.525
1200.29634	6705.025
1203.88538	6426.425
1207.47197	6123.325
1211.05612	5877.925
1214.63782	5716.225
1218.21708	5656.425
1221.79391	5670.325
1225.36829	5699.025
1228.94024	5698.925
1232.50976	5638.925
1236.07685	5590.925
1239.6415	5577.825
1243.20374	5600.525
1246.76355	5653.425
1250.32093	5734.225
1253.8759	5862.225
1257.42845	6038.825
1260.97859	6213.925
1264.52631	6384.825
1268.07163	6503.325
1271.61453	6612.325
1275.15503	6716.125
1278.69312	6833.925
1282.22882	6941.925
1285.76211	7088.425
1289.29301	7272.225
1292.82151	7451.425
1296.34761	7657.125
1299.87133	8033.725
1303.39266	8605.925
1306.9116	9415.625
1310.42815	10204.325
1313.94233	10498.725
1317.45412	10109.825
1320.96354	9452.725
1324.47058	8749.625
1327.97525	8169.625
1331.47754	7840.225
1334.97747	7756.325
1338.47502	7866.025
1341.97022	8105.125
1345.46305	8442.325
1348.95352	8884.625
1352.44163	9510.925
1355.92738	10309.625
1359.41078	11403.125
1362.89183	12222.425
1366.37053	11597.025
1369.84688	9832.825
1373.32088	8273.625
1376.79254	7406.125
1380.26186	7010.925
1383.72883	6820.325
1387.19347	6652.625
1390.65578	6439.225
1394.11575	6246.525
1397.57339	6136.025
1401.0287	6069.725
1404.48168	6077.625
1407.93234	6106.025
1411.38068	6178.025
1414.82669	6266.725
1418.27039	6290.225
1421.71177	6228.025
1425.15083	6199.225
1428.58758	6204.825
1432.02203	6324.725
1435.45416	6426.725
1438.88399	6429.025
1442.31151	6387.225
1445.73673	6345.425
1449.15965	6338.125
1452.58027	6258.525
1455.9986	6212.625
1459.41463	6186.225
1462.82837	6246.025
1466.23982	6319.225
1469.64898	6423.925
1473.05586	6533.325
1476.46045	6589.225
1479.86276	6666.925
1483.26279	6755.225
1486.66054	6865.325
1490.05602	7083.825
1493.44922	7394.425
1496.84016	7903.125
1500.22882	8655.325
1503.61521	9607.025
1506.99934	10530.425
1510.38121	11092.625
1513.76081	10915.125
1517.13816	10022.525
1520.51324	8916.125
1523.88607	8041.025
1527.25665	7541.225
1530.62498	7261.425
1533.99105	7122.225
1537.35488	7057.725
1540.71647	6987.825
1544.07581	6890.625
1547.4329	6848.525
1550.78776	6749.425
1554.14038	6699.425
1557.49077	6697.225
1560.83892	6729.425
1564.18484	6853.825
1567.52853	7040.125
1570.86999	7155.325
1574.20922	7192.025
1577.54624	7052.425
1580.88103	6744.625
1584.2136	6396.925
1587.54395	6294.025
1590.87208	6417.725
1594.19801	6810.425
1597.52172	7309.425
1600.84321	7562.825
1604.16251	7478.025
1607.47959	7174.425
1610.79447	6768.825
1614.10715	6318.325
1617.41763	5923.325
1620.7259	5666.525
1624.03199	5534.325
1627.33587	5527.225
1630.63757	5682.825
1633.93707	5949.625
1637.23439	6426.125
1640.52951	7064.625
1643.82246	7921.125
1647.11321	8631.225
1650.40179	8819.825
1653.68819	8224.325
1656.97241	7124.325
1660.25446	6095.225
1663.53433	5423.725
1666.81203	5039.525
1670.08756	4824.625
1673.36092	4684.425
1676.63211	4580.125
1679.90115	4516.325
1683.16801	4468.725
1686.43272	4415.025
1689.69527	4391.825
1692.95567	4395.125
1696.2139	4376.925
1699.46999	4331.825
1702.72392	4345.725
1705.97571	4357.825
1709.22535	4338.425
1712.47284	4347.725
1715.71819	4329.225
1718.96139	4342.925
1722.20246	4320.625
1725.44139	4294.625
1728.67818	4295.925
1731.91284	4261.425
1735.14537	4231.325
1738.37576	4220.325
1741.60403	4205.925
1744.83017	4211.825
1748.05418	4200.125
1751.27607	4188.125
1754.49584	4196.725
1757.71349	4162.925
1760.92903	4152.825
1764.14244	4151.325
1767.35375	4151.725
1770.56294	4124.225
1773.77002	4135.025
1776.97499	4125.025
1780.17785	4117.425
1783.37861	4107.325
1786.57727	4092.225
1789.77382	4096.125
1792.96828	4070.725
1796.16064	4084.825
1799.3509	4072.725
1802.53907	4070.725
1805.72514	4052.225
1808.90913	4056.225
1812.09102	4054.725
1815.27083	4032.425
1818.44856	4031.625
1821.6242	4020.725
1824.79776	4018.325
1827.96924	4014.925
1831.13864	3996.125
1834.30597	4000.825
1837.47122	3989.925
1840.6344	3992.825
1843.7955	3985.025
1846.95454	3980.225
1850.11151	3976.225
1853.26642	3979.125
1856.41926	3986.425
1859.57004	3977.025
1862.71876	3979.325
1865.86542	3978.925
1869.01003	3964.725
1872.15258	3953.225
1875.29308	3966.325
1878.43152	3960.125
1881.56792	3966.425
1884.70227	3941.325
1887.83457	3967.125
1890.96482	3957.225
1894.09304	3944.425
1897.21921	3938.925
1900.34335	3930.125
1903.46544	3928.525
1906.58551	3944.725
1909.70353	3941.825
1912.81953	3917.625
1915.93349	3918.025
1919.04543	3907.225
1922.15534	3915.125
1925.26322	3908.825
1928.36908	3896.925
1931.47292	3892.425
1934.57473	3879.225
1937.67453	3893.225
1940.77232	3880.525
1943.86808	3859.325
1946.96184	3856.225
1950.05358	3842.025
1953.14331	3843.325
1956.23103	3832.725
1959.31675	3806.925
1962.40046	3795.225
1965.48217	3777.425
1968.56188	3773.925
1971.63959	3766.825
1974.7153	3764.325
1977.78901	3749.825
1980.86073	3743.425
1983.93046	3716.025
1986.99819	3717.225
1990.06394	3706.525
1993.1277	3693.425
1996.18947	3684.125
1999.24925	3675.525
2002.30706	3672.825
2005.36288	3656.825
2008.41672	3640.625
2011.46859	3634.025
2014.51848	3616.825
2017.56639	3602.525
2020.61233	3616.425
2023.6563	3596.025
2026.6983	3600.225
2029.73833	3577.525
2032.7764	3589.025
2035.8125	3567.825
2038.84664	3563.325
2041.87881	3573.725
2044.90903	3551.725
2047.93729	3550.025
2050.96359	3548.125
2053.98794	3540.525
2057.01034	3545.625
2060.03078	3507.225
2063.04927	3519.625
2066.06582	3533.425
2069.08042	3522.025
2072.09307	3521.725
2075.10378	3524.725
2078.11255	3519.525
2081.11938	3510.125
2084.12426	3523.125
2087.12722	3508.625
2090.12824	3515.325
2093.12732	3512.525
2096.12447	3513.725
2099.11969	3514.625
2102.11299	3510.725
2105.10435	3520.825
2108.09379	3512.625
2111.08131	3509.025
2114.0669	3509.725
2117.05057	3530.825
2120.03233	3514.925
2123.01216	3522.425
2125.99008	3532.425
2128.96609	3541.525
2131.94018	3547.725
2134.91236	3529.325
2137.88263	3535.925
2140.851	3543.825
2143.81746	3534.525
2146.78201	3538.025
2149.74466	3546.325
2152.7054	3524.625
2155.66425	3542.425
2158.6212	3540.725
2161.57625	3544.225
2164.52941	3532.925
2167.48067	3543.225
2170.43004	3509.925
2173.37752	3530.625
2176.32311	3528.825
2179.26681	3531.025
2182.20863	3529.025
2185.14856	3533.725
2188.08661	3539.925
2191.02278	3540.525
2193.95707	3544.525
2196.88948	3537.725
2199.82001	3526.625
2202.74867	3531.525
2205.67545	3539.525
2208.60037	3533.325
2211.52341	3537.725
2214.44458	3519.125
2217.36388	3500.325
2220.28132	3495.225
2223.1969	3482.425
2226.11061	3482.725
2229.02246	3471.925
2231.93245	3469.725
2234.84058	3465.525
2237.74686	3454.025
2240.65128	3466.925
2243.55385	3461.325
2246.45456	3457.125
2249.35343	3460.125
2252.25044	3438.925
2255.14561	3458.925
2258.03893	3446.625
2260.93041	3434.425
2263.82004	3436.025
2266.70783	3432.725
2269.59378	3414.425
2272.4779	3411.825
2275.36017	3395.325
2278.24061	3379.725
2281.11922	3378.025
2283.996	3372.225
2286.87094	3370.625
2289.74405	3358.425
2292.61534	3358.825
2295.4848	3350.625
2298.35243	3373.625
2301.21824	3367.325
2304.08223	3362.525
2306.94439	3380.325
2309.80474	3371.925
2312.66327	3373.625
2315.51999	3359.625
2318.37489	3365.325
2321.22797	3368.425
2324.07925	3360.325
2326.92871	3350.325
2329.77637	3347.625
2332.62222	3356.725
2335.46626	3351.325
2338.3085	3342.925
2341.14893	3344.725
2343.98756	3357.525
2346.8244	3363.625
2349.65943	3355.925
2352.49267	3349.225
2355.32411	3351.525
2358.15376	3351.325
2360.98161	3344.225
2363.80768	3331.625
2366.63195	3336.025
2369.45444	3327.825
2372.27514	3336.425
2375.09405	3311.125
2377.91118	3328.125
2380.72652	3311.625
2383.54009	3304.825
2386.35187	3304.425
2389.16188	3278.025
2391.97011	3280.625
2394.77657	3284.225
2397.58125	3271.625
2400.38416	3268.425
2403.18529	3256.425
2405.98466	3259.825
2408.78226	3247.325
2411.57809	3239.725
2414.37216	3233.025
2417.16446	3231.125
2419.955	3229.525
2422.74378	3219.725
2425.5308	3221.925
2428.31606	3212.825
2431.09956	3213.425
2433.88131	3210.025
2436.6613	3217.825
2439.43954	3220.625
2442.21603	3211.325
2444.99077	3210.925
2447.76377	3214.525
2450.53501	3204.925
2453.30451	3201.325
2456.07226	3197.025
2458.83827	3187.225
2461.60254	3188.725
2464.36507	3197.125
2467.12586	3183.525
2469.88492	3182.425
2472.64224	3194.325
2475.39782	3201.925
2478.15167	3180.725
2480.90379	3192.625
2483.65417	3191.025
2486.40283	3203.925
2489.14976	3204.625
2491.89497	3216.825
2494.63845	3207.125
2497.3802	3212.825
2500.12024	3203.825
2502.85855	3180.325
2505.59514	3181.825
2508.33002	3168.325
2511.06318	3168.425
2513.79462	3160.925
2516.52435	3169.825
2519.25237	3152.125
2521.97867	3148.325
2524.70327	3150.525
2527.42616	3152.525
2530.14734	3140.525
2532.86681	3142.325
2535.58458	3146.025
2538.30065	3136.525
2541.01501	3138.425
2543.72768	3139.625
2546.43864	3141.525
2549.14791	3141.925
2551.85548	3131.525
2554.56136	3130.725
2557.26554	3130.925
2559.96803	3131.425
2562.66883	3108.825
2565.36794	3103.725
2568.06536	3104.325
2570.7611	3101.825
2573.45514	3101.825
2576.14751	3103.025
2578.83819	3083.225
2581.52719	3092.825
2584.21451	3071.425
2586.90015	3086.225
2589.58411	3068.025
2592.2664	3076.025
2594.94701	3074.625
2597.62594	3072.125
2600.30321	3061.525
2602.9788	3065.225
2605.65273	3063.825
2608.32498	3058.925
2610.99557	3061.925
2613.66449	3058.825
2616.33175	3046.525
2618.99734	3058.125
2621.66128	3050.925
2624.32355	3049.425
2626.98416	3061.525
2629.64311	3049.725
2632.30041	3056.725
2634.95605	3061.425
2637.61004	3037.325
2640.26238	3032.125
2642.91306	3033.825
2645.56209	3032.425
2648.20948	3037.825
2650.85521	3035.525
2653.4993	3034.525
2656.14175	3023.825
2658.78255	3030.425
2661.42171	3029.325
2664.05923	3033.825
2666.6951	3049.725
2669.32934	3045.125
2671.96194	3037.925
2674.59291	3032.125
2677.22224	3038.925
2679.84993	3041.625
2682.476	3036.525
2685.10043	3020.525
2687.72324	3011.725
2690.34441	3030.325
2692.96396	3028.425
2695.58188	3018.125
2698.19818	3011.025
2700.81285	3026.125
2703.4259	3018.525
2706.03733	3023.025
2708.64714	3000.125
2711.25533	3006.025
2713.86191	2999.225
2716.46687	3004.425
2719.07021	3019.725
2721.67194	3029.725
2724.27206	3027.925
2726.87057	3027.625
2729.46747	3014.325
2732.06276	3017.125
2734.65644	3002.825
2737.24852	3014.525
2739.83899	3023.425
2742.42786	3009.425
2745.01513	3001.225
2747.60079	3001.625
2750.18486	3007.225
2752.76733	2983.625
2755.3482	2989.925
2757.92747	2982.225
2760.50515	2969.125
2763.08123	2991.925
2765.65573	2973.125
2768.22863	2984.825
2770.79994	2970.725
2773.36967	2976.725
2775.9378	2972.925
2778.50435	2988.325
2781.06932	2971.625
2783.6327	2973.325
2786.1945	2957.525
2788.75471	2957.425
2791.31335	2948.825
2793.87041	2943.525
2796.42589	2950.825
2798.97979	2941.925
2801.53212	2935.925
2804.08288	2933.625
2806.63206	2924.525
2809.17967	2927.425
2811.72571	2925.525
2814.27018	2919.225
2816.81308	2922.925
2819.35442	2906.925
2821.89419	2895.225
2824.43239	2896.725
2826.96904	2891.025
2829.50412	2894.425
2832.03763	2896.825
2834.56959	2889.425
2837.1	2882.925
2839.62884	2881.625
2842.15613	2867.825
2844.68186	2882.125
2847.20604	2877.225
2849.72867	2875.725
2852.24974	2873.425
2854.76927	2860.725
2857.28724	2846.525
2859.80367	2855.225
2862.31855	2847.725
2864.83189	2851.425
2867.34368	2844.925
2869.85393	2854.225
2872.36264	2846.825
2874.8698	2834.125
2877.37543	2833.325
2879.87952	2833.825
2882.38207	2837.625
2884.88308	2830.325
2887.38256	2824.825
2889.88051	2824.825
2892.37692	2836.225
2894.8718	2821.725
2897.36515	2831.725
2899.85698	2825.825
2902.34727	2831.525
2904.83604	2840.625
2907.32328	2835.525
2909.809	2852.925
2912.29319	2854.425
2914.77587	2851.225
2917.25702	2843.425
2919.73665	2839.325
2922.21476	2860.125
2924.69136	2842.925
2927.16644	2828.725
2929.64	2821.425
2932.11205	2842.125
2934.58258	2825.125
2937.05161	2818.925
2939.51912	2814.925
2941.98513	2813.725
2944.44962	2813.725
2946.91261	2801.225
2949.37409	2813.325
2951.83407	2811.125
2954.29254	2815.225
2956.74951	2806.825
2959.20498	2800.625
2961.65895	2799.625
2964.11142	2799.025
2966.56239	2786.925
2969.01186	2805.325
2971.45984	2800.425
2973.90632	2792.325
2976.35131	2783.225
2978.7948	2772.825
2981.23681	2768.625
2983.67732	2765.425
2986.11635	2755.825
2988.55388	2761.425
2990.98993	2750.625
2993.4245	2749.325
2995.85758	2743.025
2998.28917	2734.325
3000.71928	2733.825
3003.14791	2725.825
3005.57506	2726.325
3008.00073	2716.125
3010.42493	2695.325
3012.84764	2695.225
3015.26888	2687.925
3017.68865	2681.525
3020.10694	2686.225
3022.52376	2682.325
3024.9391	2681.225
3027.35298	2670.125
3029.76539	2661.925
3032.17632	2670.125
3034.5858	2660.025
3036.9938	2661.225
3039.40034	2651.225
3041.80542	2636.325
3044.20903	2638.625
3046.61118	2631.225
3049.01187	2633.925
3051.4111	2617.025
3053.80888	2631.025
3056.20519	2611.225
3058.60005	2607.425
3060.99345	2607.925
3063.3854	2593.925
3065.7759	2586.325
3068.16494	2602.125
3070.55254	2593.525
3072.93868	2567.225
3075.32338	2568.925
3077.70662	2547.925
3080.08842	2543.225
3082.46878	2544.325
3084.84769	2541.625
3087.22515	2528.525
3089.60118	2541.025
3091.97576	2542.025
3094.3489	2541.925
3096.72061	2544.125
3099.09087	2532.925
3101.4597	2531.825
3103.82709	2528.025
3106.19305	2540.625
3108.55757	2528.625
3110.92066	2524.625
3113.28232	2521.525
3115.64255	2509.725
3118.00134	2489.725
3120.35871	2502.725
3122.71466	2499.825
3125.06917	2502.325
3127.42226	2491.525
3129.77393	2486.925
3132.12417	2482.525
3134.47299	2485.725
3136.82039	2472.925
3139.16636	2459.725
3141.51092	2470.925
3143.85406	2483.625
3146.19579	2473.325
3148.53609	2478.025
3150.87499	2473.625
3153.21246	2478.025
3155.54853	2469.725
3157.88318	2487.425
3160.21642	2482.825
3162.54826	2485.925
3164.87868	2474.725
3167.2077	2465.825
3169.5353	2461.925
3171.86151	2474.925
3174.18631	2461.325
3176.5097	2469.625
3178.83169	2446.125
3181.15228	2453.325
3183.47147	2455.025
3185.78926	2451.625
3188.10565	2440.325
3190.42065	2428.525
3192.73424	2430.825
3195.04645	2407.425
3197.35725	2414.425
3199.66667	2415.825
3201.97469	2423.825
3204.28132	2425.825
3206.58656	2418.425
3208.8904	2425.125
3211.19287	2427.825
3213.49394	2433.725
3215.79363	2433.525
3218.09193	2419.225
3220.38884	2422.225
3222.68438	2435.525
3224.97853	2427.325
3227.2713	2431.625
3229.56269	2421.925
3231.8527	2419.525
3234.14133	2415.625
3236.42858	2411.825
3238.71446	2411.925
3240.99896	2386.625
3243.28209	2391.225
3245.56384	2405.825
3247.84423	2394.925
3250.12324	2375.525
3252.40088	2395.925
3254.67715	2387.525
3256.95205	2370.025
3259.22558	2375.225
3261.49775	2375.625
3263.76855	2381.425
3266.03799	2379.725
3268.30606	2380.325
3270.57277	2383.325
3272.83812	2372.425
3275.10211	2364.225
3277.36474	2369.125
3279.62601	2345.325
3281.88593	2350.425
3284.14448	2353.825
3286.40168	2352.125
3288.65753	2340.025
3290.91202	2345.225
3293.16516	2341.425
3295.41695	2341.125
3297.66738	2328.125
3299.91647	2322.225
3302.16421	2301.325
3304.4106	2296.425
3306.65564	2267.925
3308.89933	2258.225
3311.14169	2255.725
3313.38269	2225.825
3315.62236	2213.325
3317.86068	2197.425
3320.09766	2176.225
3322.3333	2157.825
3324.5676	2145.325
3326.80056	2117.325
3329.03219	2103.925
3331.26248	1.325
3333.49143	-2.475
3335.71905	-0.375
