Data from AgNPs_UA_5uM_CRN_500uM_SU_RamanShift__35__11-35-13-145.txt Node

Date: Thu Aug 04 11:35:13 BST 2022
User: TCL
Spectrometer: QEP01345
Trigger mode: 4
Integration Time (sec): 1.000000E0
Scans to average: 10
Electric dark correction enabled: true
Nonlinearity correction enabled: false
Boxcar width: 0
XAxis mode: Raman Shifts
Number of Pixels in Spectrum: 1044
>>>>>Begin Spectral Data<<<<<
46.04893	0.6875
50.45542	-0.0125
54.85868	-1.1125
59.25871	-1.5125
63.6555	-52.9125
68.04907	-33.8125
72.43941	-66.0125
76.82654	-51.5125
81.21044	-51.0125
85.59113	-43.5125
89.96862	-70.2125
94.34289	-48.8125
98.71396	-68.8125
103.08183	-50.9125
107.4465	-40.3125
111.80798	-46.8125
116.16626	-34.4125
120.52136	-64.4125
124.87327	-38.3125
129.222	-50.0125
133.56755	-34.2125
137.90993	-45.6125
142.24913	-28.1125
146.58517	-16.8125
150.91804	-9.5125
155.24774	10.7875
159.57429	42.6875
163.89768	68.9875
168.21792	144.1875
172.53501	208.8875
176.84895	356.6875
181.15975	581.5875
185.46741	867.2875
189.77193	1226.1875
194.07331	1713.7875
198.37157	2253.1875
202.6667	2803.3875
206.9587	3422.5875
211.24758	4063.3875
215.53334	4784.4875
219.81599	5627.2875
224.09553	6608.3875
228.37195	7623.1875
232.64527	8559.3875
236.91549	9336.4875
241.18261	9725.1875
245.44663	9821.6875
249.70755	9785.3875
253.96539	9781.0875
258.22014	9874.3875
262.4718	9970.2875
266.72039	9967.1875
270.96589	9723.6875
275.20832	9286.0875
279.44768	8889.1875
283.68397	8564.4875
287.91719	8459.5875
292.14735	8652.6875
296.37445	9314.3875
300.59849	10505.7875
304.81948	12108.5875
309.03742	13940.7875
313.25231	15273.9875
317.46415	15087.9875
321.67296	13239.3875
325.87872	11061.9875
330.08145	9800.2875
334.28114	9523.0875
338.47781	9893.0875
342.67145	10582.0875
346.86207	11718.3875
351.04966	13437.1875
355.23424	15120.0875
359.4158	15695.3875
363.59435	15101.7875
367.76989	14088.7875
371.94243	13074.7875
376.11196	12254.0875
380.27849	11625.0875
384.44203	11146.6875
388.60257	10874.5875
392.76012	10911.1875
396.91468	11275.6875
401.06626	11746.1875
405.21485	11734.3875
409.36047	10976.0875
413.50311	9651.2875
417.64277	8435.9875
421.77947	7647.1875
425.9132	7313.5875
430.04396	7138.1875
434.17176	7097.6875
438.2966	7244.1875
442.41849	7510.0875
446.53742	7763.2875
450.6534	7920.3875
454.76644	7905.0875
458.87653	7755.3875
462.98368	7588.5875
467.08789	7379.9875
471.18916	7134.8875
475.2875	6767.1875
479.38291	6476.5875
483.4754	6291.8875
487.56496	6195.3875
491.6516	6123.3875
495.73531	6102.1875
499.81612	6168.6875
503.89401	6378.8875
507.96899	6608.8875
512.04106	6926.0875
516.11023	7257.3875
520.1765	7508.6875
524.23987	7607.1875
528.30034	7592.3875
532.35792	7441.7875
536.41261	7273.4875
540.46441	6990.7875
544.51333	6825.8875
548.55936	6800.8875
552.60252	6983.1875
556.64279	7264.1875
560.6802	7800.2875
564.71473	9002.0875
568.7464	10583.8875
572.7752	10504.3875
576.80114	8533.7875
580.82422	6885.1875
584.84444	6212.5875
588.86181	5996.1875
592.87633	5955.8875
596.888	6225.6875
600.89682	7179.5875
604.9028	10386.4875
608.90594	18669.9875
612.90624	28670.7875
616.90371	25871.1875
620.89834	13507.3875
624.89015	8116.0875
628.87913	7558.2875
632.86528	8322.5875
636.84862	8596.3875
640.82913	7590.2875
644.80683	6307.8875
648.78172	5729.8875
652.75379	5938.4875
656.72306	6890.9875
660.68952	7839.7875
664.65319	7290.8875
668.61405	6031.1875
672.57211	5499.9875
676.52738	5509.8875
680.47986	5427.0875
684.42955	5256.0875
688.37646	5165.9875
692.32058	5172.5875
696.26192	5264.6875
700.20048	5435.6875
704.13626	5482.3875
708.06928	5366.8875
711.99952	5324.4875
715.927	5395.8875
719.85171	5672.4875
723.77365	5838.7875
727.69284	5672.4875
731.60928	5465.7875
735.52295	5406.0875
739.43388	5499.8875
743.34206	5561.7875
747.24749	5531.4875
751.15017	5563.7875
755.05012	6006.0875
758.94733	7631.9875
762.8418	11298.6875
766.73354	15974.7875
770.62254	18358.4875
774.50882	17398.1875
778.39237	15431.5875
782.27321	12618.9875
786.15132	9118.8875
790.02671	6867.1875
793.89938	5832.8875
797.76935	5490.4875
801.6366	5305.6875
805.50115	5226.3875
809.36299	5168.2875
813.22213	5124.4875
817.07857	5130.3875
820.93231	5184.6875
824.78336	5303.5875
828.63172	5451.3875
832.47738	5534.0875
836.32036	5398.6875
840.16066	5114.2875
843.99827	4958.3875
847.8332	4908.9875
851.66546	4899.3875
855.49504	4879.4875
859.32195	4867.0875
863.1462	4813.6875
866.96777	4797.9875
870.78668	4776.5875
874.60293	4841.6875
878.41652	4928.3875
882.22745	5100.0875
886.03573	5219.6875
889.84136	5181.1875
893.64433	5147.0875
897.44466	5153.8875
901.24235	5155.5875
905.0374	5068.7875
908.8298	4840.3875
912.61957	4713.6875
916.40671	4597.5875
920.19121	4671.3875
923.97308	4914.8875
927.75233	5452.0875
931.52895	5953.2875
935.30295	5653.2875
939.07433	4917.9875
942.84309	4460.5875
946.60924	4273.4875
950.37278	4203.9875
954.13371	4190.6875
957.89203	4177.0875
961.64774	4198.9875
965.40086	4152.8875
969.15137	4124.4875
972.89929	4133.8875
976.64461	4108.3875
980.38733	4111.7875
984.12747	4087.9875
987.86502	4106.5875
991.59999	4135.3875
995.33237	4232.1875
999.06217	4356.7875
1002.78939	4596.6875
1006.51404	4965.5875
1010.23611	5134.8875
1013.95561	4953.2875
1017.67255	4709.2875
1021.38692	4494.9875
1025.09872	4324.5875
1028.80796	4236.4875
1032.51465	4276.0875
1036.21877	4329.2875
1039.92035	4425.0875
1043.61937	4504.2875
1047.31584	4586.6875
1051.00976	4620.9875
1054.70114	4529.7875
1058.38998	4462.7875
1062.07627	4421.8875
1065.76003	4437.0875
1069.44126	4493.2875
1073.11995	4625.3875
1076.79611	4949.2875
1080.46974	5574.5875
1084.14085	6443.8875
1087.80943	7160.2875
1091.47549	7098.9875
1095.13903	6359.2875
1098.80005	5596.9875
1102.45857	5193.7875
1106.11456	5136.3875
1109.76805	5300.0875
1113.41903	5796.3875
1117.06751	6597.0875
1120.71348	7875.1875
1124.35696	9754.7875
1127.99793	11018.3875
1131.63641	9996.8875
1135.2724	8023.6875
1138.90589	6701.7875
1142.5369	5967.0875
1146.16542	5503.8875
1149.79145	5228.0875
1153.415	5136.0875
1157.03607	5241.3875
1160.65467	5503.4875
1164.27079	6037.2875
1167.88443	6744.7875
1171.49561	7986.7875
1175.10432	10095.2875
1178.71056	12930.7875
1182.31434	14836.1875
1185.91565	14469.4875
1189.51451	12621.3875
1193.11091	10697.2875
1196.70485	9447.9875
1200.29634	8945.2875
1203.88538	8332.2875
1207.47197	7143.8875
1211.05612	6042.4875
1214.63782	5371.7875
1218.21708	5028.1875
1221.79391	4924.1875
1225.36829	4902.8875
1228.94024	4908.7875
1232.50976	4874.6875
1236.07685	4916.2875
1239.6415	5006.5875
1243.20374	5145.2875
1246.76355	5340.4875
1250.32093	5616.5875
1253.8759	5985.4875
1257.42845	6652.3875
1260.97859	7451.9875
1264.52631	8236.4875
1268.07163	8575.5875
1271.61453	8546.5875
1275.15503	8227.4875
1278.69312	7908.9875
1282.22882	8167.8875
1285.76211	9252.7875
1289.29301	10735.2875
1292.82151	11690.2875
1296.34761	12113.7875
1299.87133	13102.9875
1303.39266	15595.4875
1306.9116	20280.0875
1310.42815	26077.1875
1313.94233	28314.7875
1317.45412	24045.1875
1320.96354	17544.3875
1324.47058	12655.5875
1327.97525	9687.9875
1331.47754	8191.1875
1334.97747	7701.4875
1338.47502	7921.4875
1341.97022	9062.3875
1345.46305	11569.2875
1348.95352	15111.9875
1352.44163	18833.5875
1355.92738	23541.8875
1359.41078	31716.7875
1362.89183	40186.5875
1366.37053	37889.9875
1369.84688	25845.5875
1373.32088	16109.3875
1376.79254	11924.1875
1380.26186	10000.5875
1383.72883	8522.3875
1387.19347	7208.8875
1390.65578	6219.1875
1394.11575	5686.8875
1397.57339	5404.1875
1401.0287	5210.0875
1404.48168	5040.9875
1407.93234	4953.1875
1411.38068	5055.0875
1414.82669	5501.5875
1418.27039	5988.4875
1421.71177	6094.6875
1425.15083	5867.8875
1428.58758	5996.3875
1432.02203	6663.1875
1435.45416	7134.4875
1438.88399	6793.9875
1442.31151	6357.2875
1445.73673	6272.8875
1449.15965	6202.5875
1452.58027	6016.0875
1455.9986	5784.1875
1459.41463	5595.9875
1462.82837	5606.7875
1466.23982	5875.2875
1469.64898	6242.1875
1473.05586	6375.5875
1476.46045	6323.1875
1479.86276	6371.2875
1483.26279	6699.8875
1486.66054	7410.0875
1490.05602	8588.1875
1493.44922	10417.8875
1496.84016	13311.8875
1500.22882	17751.4875
1503.61521	24112.7875
1506.99934	32312.9875
1510.38121	40702.2875
1513.76081	44318.9875
1517.13816	39620.4875
1520.51324	29662.8875
1523.88607	20407.2875
1527.25665	14459.0875
1530.62498	11044.0875
1533.99105	9070.2875
1537.35488	7773.6875
1540.71647	7061.8875
1544.07581	6747.6875
1547.4329	6745.4875
1550.78776	6920.2875
1554.14038	7316.5875
1557.49077	7960.0875
1560.83892	9150.9875
1564.18484	10902.0875
1567.52853	12815.2875
1570.86999	13844.3875
1574.20922	13874.2875
1577.54624	13078.1875
1580.88103	10841.4875
1584.2136	8239.2875
1587.54395	6719.0875
1590.87208	6358.0875
1594.19801	6847.8875
1597.52172	7708.9875
1600.84321	7730.1875
1604.16251	6807.4875
1607.47959	5933.1875
1610.79447	5390.2875
1614.10715	4999.4875
1617.41763	4721.6875
1620.7259	4585.1875
1624.03199	4659.2875
1627.33587	4890.5875
1630.63757	5353.6875
1633.93707	6182.3875
1637.23439	7697.9875
1640.52951	10448.1875
1643.82246	15158.3875
1647.11321	21541.4875
1650.40179	26539.7875
1653.68819	26012.6875
1656.97241	20050.7875
1660.25446	13314.1875
1663.53433	8765.4875
1666.81203	6292.1875
1670.08756	5034.5875
1673.36092	4369.6875
1676.63211	3914.3875
1679.90115	3654.8875
1683.16801	3480.8875
1686.43272	3322.0875
1689.69527	3247.2875
1692.95567	3145.1875
1696.2139	3106.5875
1699.46999	3025.5875
1702.72392	3024.3875
1705.97571	3023.2875
1709.22535	3000.4875
1712.47284	3068.7875
1715.71819	3081.6875
1718.96139	3089.4875
1722.20246	3050.9875
1725.44139	2986.1875
1728.67818	2902.0875
1731.91284	2810.2875
1735.14537	2745.6875
1738.37576	2710.6875
1741.60403	2673.6875
1744.83017	2635.0875
1748.05418	2631.9875
1751.27607	2605.6875
1754.49584	2555.1875
1757.71349	2480.3875
1760.92903	2447.1875
1764.14244	2377.5875
1767.35375	2352.1875
1770.56294	2290.9875
1773.77002	2243.2875
1776.97499	2218.5875
1780.17785	2174.6875
1783.37861	2146.0875
1786.57727	2146.3875
1789.77382	2066.7875
1792.96828	2113.1875
1796.16064	2110.8875
1799.3509	2087.4875
1802.53907	2098.4875
1805.72514	2064.4875
1808.90913	2046.8875
1812.09102	2043.1875
1815.27083	2028.9875
1818.44856	2016.9875
1821.6242	2013.7875
1824.79776	1989.9875
1827.96924	1979.3875
1831.13864	1945.1875
1834.30597	1942.8875
1837.47122	1912.5875
1840.6344	1882.7875
1843.7955	1851.8875
1846.95454	1827.9875
1850.11151	1839.8875
1853.26642	1801.7875
1856.41926	1808.7875
1859.57004	1818.8875
1862.71876	1818.2875
1865.86542	1823.1875
1869.01003	1826.4875
1872.15258	1805.3875
1875.29308	1843.1875
1878.43152	1841.6875
1881.56792	1827.9875
1884.70227	1805.4875
1887.83457	1799.8875
1890.96482	1770.2875
1894.09304	1765.0875
1897.21921	1762.0875
1900.34335	1767.2875
1903.46544	1753.6875
1906.58551	1761.5875
1909.70353	1756.8875
1912.81953	1760.7875
1915.93349	1738.2875
1919.04543	1725.8875
1922.15534	1699.9875
1925.26322	1702.4875
1928.36908	1658.8875
1931.47292	1644.3875
1934.57473	1630.6875
1937.67453	1581.1875
1940.77232	1541.1875
1943.86808	1535.5875
1946.96184	1539.0875
1950.05358	1513.2875
1953.14331	1510.6875
1956.23103	1528.6875
1959.31675	1509.7875
1962.40046	1489.5875
1965.48217	1536.2875
1968.56188	1559.1875
1971.63959	1575.8875
1974.7153	1578.9875
1977.78901	1564.0875
1980.86073	1524.1875
1983.93046	1467.6875
1986.99819	1380.8875
1990.06394	1398.0875
1993.1277	1413.3875
1996.18947	1390.5875
1999.24925	1359.8875
2002.30706	1365.2875
2005.36288	1369.0875
2008.41672	1346.7875
2011.46859	1321.8875
2014.51848	1318.7875
2017.56639	1290.8875
2020.61233	1293.4875
2023.6563	1295.5875
2026.6983	1256.4875
2029.73833	1264.0875
2032.7764	1279.8875
2035.8125	1239.3875
2038.84664	1250.6875
2041.87881	1237.8875
2044.90903	1257.1875
2047.93729	1253.9875
2050.96359	1219.5875
2053.98794	1223.2875
2057.01034	1214.2875
2060.03078	1191.3875
2063.04927	1173.4875
2066.06582	1181.3875
2069.08042	1149.9875
2072.09307	1152.3875
2075.10378	1151.6875
2078.11255	1142.8875
2081.11938	1148.9875
2084.12426	1145.2875
2087.12722	1148.9875
2090.12824	1144.7875
2093.12732	1146.4875
2096.12447	1152.9875
2099.11969	1142.7875
2102.11299	1136.0875
2105.10435	1153.5875
2108.09379	1151.0875
2111.08131	1140.0875
2114.0669	1159.7875
2117.05057	1162.5875
2120.03233	1163.6875
2123.01216	1206.2875
2125.99008	1223.2875
2128.96609	1223.2875
2131.94018	1237.7875
2134.91236	1197.6875
2137.88263	1180.5875
2140.851	1157.6875
2143.81746	1158.6875
2146.78201	1120.1875
2149.74466	1096.8875
2152.7054	1095.9875
2155.66425	1075.5875
2158.6212	1067.8875
2161.57625	1039.9875
2164.52941	1021.6875
2167.48067	1034.5875
2170.43004	1046.2875
2173.37752	1070.8875
2176.32311	1066.4875
2179.26681	1064.9875
2182.20863	1075.4875
2185.14856	1074.7875
2188.08661	1071.0875
2191.02278	1066.6875
2193.95707	1034.8875
2196.88948	1012.8875
2199.82001	1015.1875
2202.74867	1000.7875
2205.67545	1006.8875
2208.60037	1020.5875
2211.52341	1008.4875
2214.44458	999.8875
2217.36388	1007.2875
2220.28132	989.5875
2223.1969	972.7875
2226.11061	979.0875
2229.02246	964.6875
2231.93245	965.7875
2234.84058	949.1875
2237.74686	948.7875
2240.65128	949.8875
2243.55385	960.1875
2246.45456	949.7875
2249.35343	984.2875
2252.25044	989.9875
2255.14561	1020.3875
2258.03893	1052.1875
2260.93041	1070.3875
2263.82004	1087.0875
2266.70783	1094.0875
2269.59378	1070.4875
2272.4779	1055.8875
2275.36017	1070.2875
2278.24061	1052.7875
2281.11922	1028.7875
2283.996	1029.9875
2286.87094	996.6875
2289.74405	995.8875
2292.61534	985.9875
2295.4848	958.7875
2298.35243	944.2875
2301.21824	934.8875
2304.08223	923.3875
2306.94439	935.3875
2309.80474	935.3875
2312.66327	939.8875
2315.51999	925.0875
2318.37489	924.4875
2321.22797	905.2875
2324.07925	912.8875
2326.92871	909.4875
2329.77637	893.9875
2332.62222	901.8875
2335.46626	883.8875
2338.3085	894.5875
2341.14893	918.0875
2343.98756	926.3875
2346.8244	913.6875
2349.65943	918.8875
2352.49267	944.1875
2355.32411	966.9875
2358.15376	962.9875
2360.98161	995.3875
2363.80768	991.5875
2366.63195	1016.0875
2369.45444	1043.4875
2372.27514	1043.2875
2375.09405	1054.8875
2377.91118	1021.8875
2380.72652	1008.8875
2383.54009	985.7875
2386.35187	978.4875
2389.16188	950.9875
2391.97011	947.7875
2394.77657	930.1875
2397.58125	918.7875
2400.38416	905.9875
2403.18529	885.8875
2405.98466	866.1875
2408.78226	872.2875
2411.57809	869.3875
2414.37216	870.4875
2417.16446	872.7875
2419.955	857.8875
2422.74378	883.8875
2425.5308	870.8875
2428.31606	881.0875
2431.09956	891.4875
2433.88131	877.4875
2436.6613	899.9875
2439.43954	897.3875
2442.21603	916.3875
2444.99077	916.8875
2447.76377	936.7875
2450.53501	937.9875
2453.30451	934.3875
2456.07226	947.1875
2458.83827	940.9875
2461.60254	903.4875
2464.36507	932.1875
2467.12586	924.9875
2469.88492	923.5875
2472.64224	930.7875
2475.39782	925.5875
2478.15167	956.1875
2480.90379	968.8875
2483.65417	1002.0875
2486.40283	1025.9875
2489.14976	1048.4875
2491.89497	1046.3875
2494.63845	1040.1875
2497.3802	1030.5875
2500.12024	1018.4875
2502.85855	997.4875
2505.59514	981.3875
2508.33002	954.8875
2511.06318	906.9875
2513.79462	897.8875
2516.52435	838.0875
2519.25237	794.0875
2521.97867	793.2875
2524.70327	786.0875
2527.42616	777.0875
2530.14734	777.2875
2532.86681	753.4875
2535.58458	767.4875
2538.30065	768.1875
2541.01501	789.9875
2543.72768	778.0875
2546.43864	793.5875
2549.14791	793.3875
2551.85548	794.4875
2554.56136	808.2875
2557.26554	822.5875
2559.96803	824.0875
2562.66883	825.7875
2565.36794	816.9875
2568.06536	803.8875
2570.7611	830.2875
2573.45514	823.6875
2576.14751	808.4875
2578.83819	797.3875
2581.52719	790.9875
2584.21451	786.4875
2586.90015	765.1875
2589.58411	757.8875
2592.2664	764.4875
2594.94701	766.2875
2597.62594	774.4875
2600.30321	721.0875
2602.9788	748.0875
2605.65273	747.6875
2608.32498	760.6875
2610.99557	783.5875
2613.66449	757.3875
2616.33175	787.4875
2618.99734	789.0875
2621.66128	783.4875
2624.32355	770.9875
2626.98416	747.6875
2629.64311	740.6875
2632.30041	739.8875
2634.95605	719.5875
2637.61004	699.2875
2640.26238	680.4875
2642.91306	678.8875
2645.56209	694.4875
2648.20948	693.3875
2650.85521	678.8875
2653.4993	707.8875
2656.14175	703.3875
2658.78255	703.5875
2661.42171	668.8875
2664.05923	724.3875
2666.6951	738.5875
2669.32934	749.9875
2671.96194	764.4875
2674.59291	759.9875
2677.22224	760.8875
2679.84993	757.0875
2682.476	740.6875
2685.10043	728.0875
2687.72324	719.7875
2690.34441	720.2875
2692.96396	720.5875
2695.58188	726.6875
2698.19818	711.9875
2700.81285	692.7875
2703.4259	695.7875
2706.03733	662.6875
2708.64714	677.4875
2711.25533	717.6875
2713.86191	716.7875
2716.46687	718.8875
2719.07021	712.2875
2721.67194	725.6875
2724.27206	735.5875
2726.87057	702.7875
2729.46747	696.9875
2732.06276	691.3875
2734.65644	673.1875
2737.24852	663.5875
2739.83899	645.3875
2742.42786	648.8875
2745.01513	653.8875
2747.60079	631.7875
2750.18486	614.1875
2752.76733	622.2875
2755.3482	610.8875
2757.92747	606.7875
2760.50515	587.2875
2763.08123	582.8875
2765.65573	587.1875
2768.22863	576.7875
2770.79994	574.6875
2773.36967	572.1875
2775.9378	574.1875
2778.50435	568.5875
2781.06932	580.0875
2783.6327	571.1875
2786.1945	602.4875
2788.75471	586.1875
2791.31335	595.4875
2793.87041	602.2875
2796.42589	591.4875
2798.97979	593.8875
2801.53212	616.4875
2804.08288	640.7875
2806.63206	635.6875
2809.17967	632.7875
2811.72571	671.5875
2814.27018	686.6875
2816.81308	697.5875
2819.35442	684.7875
2821.89419	728.7875
2824.43239	733.7875
2826.96904	761.7875
2829.50412	734.3875
2832.03763	729.7875
2834.56959	724.3875
2837.1	702.7875
2839.62884	700.5875
2842.15613	693.6875
2844.68186	708.6875
2847.20604	674.5875
2849.72867	692.8875
2852.24974	711.4875
2854.76927	693.8875
2857.28724	669.9875
2859.80367	750.5875
2862.31855	778.9875
2864.83189	777.7875
2867.34368	812.5875
2869.85393	835.7875
2872.36264	820.9875
2874.8698	833.3875
2877.37543	840.2875
2879.87952	812.6875
2882.38207	778.2875
2884.88308	778.8875
2887.38256	765.8875
2889.88051	750.7875
2892.37692	737.9875
2894.8718	716.2875
2897.36515	736.1875
2899.85698	731.7875
2902.34727	736.5875
2904.83604	759.7875
2907.32328	786.1875
2909.809	799.6875
2912.29319	820.0875
2914.77587	827.3875
2917.25702	840.5875
2919.73665	820.3875
2922.21476	801.2875
2924.69136	787.7875
2927.16644	746.9875
2929.64	734.6875
2932.11205	709.2875
2934.58258	716.7875
2937.05161	699.6875
2939.51912	697.5875
2941.98513	708.0875
2944.44962	697.8875
2946.91261	677.9875
2949.37409	681.8875
2951.83407	689.7875
2954.29254	697.9875
2956.74951	702.8875
2959.20498	689.9875
2961.65895	692.3875
2964.11142	686.4875
2966.56239	685.6875
2969.01186	685.6875
2971.45984	669.6875
2973.90632	667.3875
2976.35131	684.2875
2978.7948	679.9875
2981.23681	672.1875
2983.67732	680.8875
2986.11635	685.4875
2988.55388	667.2875
2990.98993	673.1875
2993.4245	675.0875
2995.85758	671.0875
2998.28917	677.6875
3000.71928	671.5875
3003.14791	687.3875
3005.57506	673.7875
3008.00073	673.2875
3010.42493	614.7875
3012.84764	670.9875
3015.26888	668.2875
3017.68865	664.3875
3020.10694	621.2875
3022.52376	646.0875
3024.9391	639.7875
3027.35298	620.7875
3029.76539	601.3875
3032.17632	596.3875
3034.5858	577.7875
3036.9938	575.1875
3039.40034	551.4875
3041.80542	536.5875
3044.20903	518.2875
3046.61118	498.1875
3049.01187	519.3875
3051.4111	501.1875
3053.80888	500.1875
3056.20519	494.7875
3058.60005	478.3875
3060.99345	501.6875
3063.3854	480.6875
3065.7759	470.7875
3068.16494	463.2875
3070.55254	459.0875
3072.93868	475.6875
3075.32338	466.4875
3077.70662	462.4875
3080.08842	450.7875
3082.46878	438.1875
3084.84769	459.6875
3087.22515	435.2875
3089.60118	451.8875
3091.97576	435.9875
3094.3489	445.6875
3096.72061	430.6875
3099.09087	418.5875
3101.4597	434.0875
3103.82709	420.9875
3106.19305	413.2875
3108.55757	425.0875
3110.92066	418.5875
3113.28232	431.1875
3115.64255	428.3875
3118.00134	433.6875
3120.35871	417.3875
3122.71466	411.4875
3125.06917	426.2875
3127.42226	419.4875
3129.77393	401.6875
3132.12417	424.4875
3134.47299	429.6875
3136.82039	412.8875
3139.16636	394.9875
3141.51092	424.5875
3143.85406	428.1875
3146.19579	407.7875
3148.53609	415.4875
3150.87499	422.3875
3153.21246	419.7875
3155.54853	429.2875
3157.88318	433.5875
3160.21642	435.7875
3162.54826	430.0875
3164.87868	436.2875
3167.2077	394.1875
3169.5353	411.3875
3171.86151	415.6875
3174.18631	392.5875
3176.5097	386.8875
3178.83169	385.1875
3181.15228	376.9875
3183.47147	358.4875
3185.78926	340.8875
3188.10565	352.8875
3190.42065	332.8875
3192.73424	345.4875
3195.04645	343.6875
3197.35725	333.1875
3199.66667	347.4875
3201.97469	342.6875
3204.28132	340.4875
3206.58656	354.9875
3208.8904	369.1875
3211.19287	361.0875
3213.49394	353.9875
3215.79363	357.8875
3218.09193	375.4875
3220.38884	369.1875
3222.68438	360.6875
3224.97853	344.4875
3227.2713	368.1875
3229.56269	352.3875
3231.8527	357.4875
3234.14133	343.0875
3236.42858	344.9875
3238.71446	323.1875
3240.99896	345.8875
3243.28209	324.1875
3245.56384	337.3875
3247.84423	325.9875
3250.12324	341.0875
3252.40088	332.8875
3254.67715	321.7875
3256.95205	321.0875
3259.22558	332.2875
3261.49775	334.3875
3263.76855	328.5875
3266.03799	334.7875
3268.30606	331.0875
3270.57277	340.0875
3272.83812	329.3875
3275.10211	343.5875
3277.36474	367.1875
3279.62601	368.7875
3281.88593	357.5875
3284.14448	351.5875
3286.40168	379.4875
3288.65753	379.7875
3290.91202	392.3875
3293.16516	396.6875
3295.41695	433.8875
3297.66738	446.2875
3299.91647	442.2875
3302.16421	454.7875
3304.4106	428.4875
3306.65564	465.3875
3308.89933	443.7875
3311.14169	457.4875
3313.38269	461.8875
3315.62236	457.6875
3317.86068	457.1875
3320.09766	474.7875
3322.3333	458.4875
3324.5676	467.6875
3326.80056	475.3875
3329.03219	482.4875
3331.26248	0.6875
3333.49143	-0.0125
3335.71905	1.0875
