Data from AgNPs_UA_5uM_CRN_500uM_SU_RamanShift__72__11-41-23-153.txt Node

Date: Thu Aug 04 11:41:23 BST 2022
User: TCL
Spectrometer: QEP01345
Trigger mode: 4
Integration Time (sec): 1.000000E0
Scans to average: 10
Electric dark correction enabled: true
Nonlinearity correction enabled: false
Boxcar width: 0
XAxis mode: Raman Shifts
Number of Pixels in Spectrum: 1044
>>>>>Begin Spectral Data<<<<<
46.04893	0.2875
50.45542	-0.1125
54.85868	0.7875
59.25871	-0.9125
63.6555	-55.4125
68.04907	-38.4125
72.43941	-70.6125
76.82654	-55.3125
81.21044	-56.0125
85.59113	-47.4125
89.96862	-74.8125
94.34289	-52.7125
98.71396	-74.6125
103.08183	-54.1125
107.4465	-49.1125
111.80798	-54.1125
116.16626	-42.3125
120.52136	-70.8125
124.87327	-45.9125
129.222	-58.6125
133.56755	-43.9125
137.90993	-57.6125
142.24913	-43.6125
146.58517	-36.6125
150.91804	-32.0125
155.24774	-19.9125
159.57429	6.1875
163.89768	14.7875
168.21792	69.2875
172.53501	101.0875
176.84895	199.3875
181.15975	353.4875
185.46741	540.3875
189.77193	765.6875
194.07331	1104.7875
198.37157	1455.4875
202.6667	1818.4875
206.9587	2237.2875
211.24758	2635.6875
215.53334	3078.0875
219.81599	3586.7875
224.09553	4151.5875
228.37195	4766.5875
232.64527	5344.9875
236.91549	5870.8875
241.18261	6203.5875
245.44663	6413.1875
249.70755	6515.1875
253.96539	6629.3875
258.22014	6760.3875
262.4718	6859.1875
266.72039	6915.2875
270.96589	6840.2875
275.20832	6643.0875
279.44768	6458.8875
283.68397	6301.3875
287.91719	6205.1875
292.14735	6286.5875
296.37445	6584.4875
300.59849	7128.4875
304.81948	7868.8875
309.03742	8679.9875
313.25231	9302.8875
317.46415	9203.0875
321.67296	8328.7875
325.87872	7320.4875
330.08145	6772.6875
334.28114	6659.8875
338.47781	6818.0875
342.67145	7141.2875
346.86207	7700.3875
351.04966	8531.7875
355.23424	9356.2875
359.4158	9732.0875
363.59435	9508.5875
367.76989	9071.9875
371.94243	8633.5875
376.11196	8263.9875
380.27849	8039.2875
384.44203	7839.0875
388.60257	7786.1875
392.76012	7826.1875
396.91468	8011.1875
401.06626	8243.3875
405.21485	8281.0875
409.36047	7932.9875
413.50311	7334.1875
417.64277	6783.8875
421.77947	6414.9875
425.9132	6234.6875
430.04396	6156.4875
434.17176	6157.4875
438.2966	6240.5875
442.41849	6380.1875
446.53742	6525.4875
450.6534	6675.6875
454.76644	6715.4875
458.87653	6688.4875
462.98368	6635.5875
467.08789	6525.1875
471.18916	6415.9875
475.2875	6229.1875
479.38291	6091.8875
483.4754	5985.9875
487.56496	5944.0875
491.6516	5910.5875
495.73531	5900.9875
499.81612	5937.0875
503.89401	6087.2875
507.96899	6172.1875
512.04106	6338.8875
516.11023	6488.9875
520.1765	6615.1875
524.23987	6673.4875
528.30034	6657.4875
532.35792	6571.6875
536.41261	6477.8875
540.46441	6331.7875
544.51333	6239.6875
548.55936	6253.9875
552.60252	6365.8875
556.64279	6512.3875
560.6802	6780.8875
564.71473	7309.7875
568.7464	7960.0875
572.7752	7897.1875
576.80114	7000.4875
580.82422	6311.5875
584.84444	6014.4875
588.86181	5929.8875
592.87633	5960.7875
596.888	6111.9875
600.89682	6615.4875
604.9028	8223.3875
608.90594	12150.6875
612.90624	16820.3875
616.90371	15429.4875
620.89834	9585.8875
624.89015	7060.8875
628.87913	6774.9875
632.86528	7148.2875
636.84862	7336.8875
640.82913	6925.6875
644.80683	6299.9875
648.78172	6001.4875
652.75379	6109.3875
656.72306	6576.9875
660.68952	7021.8875
664.65319	6828.4875
668.61405	6289.7875
672.57211	6101.1875
676.52738	6115.5875
680.47986	6013.0875
684.42955	5892.1875
688.37646	5819.8875
692.32058	5866.0875
696.26192	5960.8875
700.20048	6076.5875
704.13626	6122.4875
708.06928	6058.1875
711.99952	6008.3875
715.927	6036.1875
719.85171	6146.6875
723.77365	6234.0875
727.69284	6132.6875
731.60928	6067.6875
735.52295	6013.5875
739.43388	6064.2875
743.34206	6123.6875
747.24749	6116.1875
751.15017	6127.9875
755.05012	6307.8875
758.94733	7074.0875
762.8418	8745.6875
766.73354	10972.1875
770.62254	12164.4875
774.50882	11790.0875
778.39237	11016.3875
782.27321	9777.4875
786.15132	8095.5875
790.02671	6969.1875
793.89938	6381.8875
797.76935	6194.2875
801.6366	6095.8875
805.50115	6033.8875
809.36299	5999.5875
813.22213	6000.7875
817.07857	5997.0875
820.93231	6000.3875
824.78336	6084.1875
828.63172	6152.1875
832.47738	6162.0875
836.32036	6131.5875
840.16066	6004.5875
843.99827	5946.9875
847.8332	5925.7875
851.66546	5941.3875
855.49504	5920.7875
859.32195	5946.5875
863.1462	5904.1875
866.96777	5916.7875
870.78668	5903.1875
874.60293	5945.3875
878.41652	5996.6875
882.22745	6083.2875
886.03573	6136.5875
889.84136	6121.6875
893.64433	6113.5875
897.44466	6105.6875
901.24235	6102.6875
905.0374	6062.7875
908.8298	5951.3875
912.61957	5901.7875
916.40671	5822.8875
920.19121	5860.7875
923.97308	5984.8875
927.75233	6208.1875
931.52895	6422.9875
935.30295	6322.5875
939.07433	5984.0875
942.84309	5762.1875
946.60924	5691.4875
950.37278	5640.6875
954.13371	5630.7875
957.89203	5618.7875
961.64774	5637.3875
965.40086	5601.6875
969.15137	5603.5875
972.89929	5645.6875
976.64461	5605.9875
980.38733	5610.1875
984.12747	5594.6875
987.86502	5622.0875
991.59999	5639.4875
995.33237	5685.8875
999.06217	5747.4875
1002.78939	5875.9875
1006.51404	6075.8875
1010.23611	6166.8875
1013.95561	6121.8875
1017.67255	6027.5875
1021.38692	5934.3875
1025.09872	5871.2875
1028.80796	5784.9875
1032.51465	5798.0875
1036.21877	5843.2875
1039.92035	5872.1875
1043.61937	5923.9875
1047.31584	5960.0875
1051.00976	6003.7875
1054.70114	6003.0875
1058.38998	5966.2875
1062.07627	5952.5875
1065.76003	5976.9875
1069.44126	6032.3875
1073.11995	6136.6875
1076.79611	6342.5875
1080.46974	6641.0875
1084.14085	7037.9875
1087.80943	7375.2875
1091.47549	7395.2875
1095.13903	7089.2875
1098.80005	6818.5875
1102.45857	6688.2875
1106.11456	6674.9875
1109.76805	6656.7875
1113.41903	6843.6875
1117.06751	7177.7875
1120.71348	7745.1875
1124.35696	8583.9875
1127.99793	9139.3875
1131.63641	8693.3875
1135.2724	7764.2875
1138.90589	7142.0875
1142.5369	6760.3875
1146.16542	6560.4875
1149.79145	6381.9875
1153.415	6309.4875
1157.03607	6328.3875
1160.65467	6430.4875
1164.27079	6703.2875
1167.88443	7026.1875
1171.49561	7675.5875
1175.10432	8702.8875
1178.71056	10139.8875
1182.31434	11194.0875
1185.91565	11113.6875
1189.51451	10255.1875
1193.11091	9363.0875
1196.70485	8771.7875
1200.29634	8482.4875
1203.88538	8162.1875
1207.47197	7560.6875
1211.05612	6989.5875
1214.63782	6603.8875
1218.21708	6429.9875
1221.79391	6349.1875
1225.36829	6299.9875
1228.94024	6301.9875
1232.50976	6301.0875
1236.07685	6318.3875
1239.6415	6358.0875
1243.20374	6425.9875
1246.76355	6529.7875
1250.32093	6671.7875
1253.8759	6809.1875
1257.42845	7128.0875
1260.97859	7523.7875
1264.52631	7943.4875
1268.07163	8157.4875
1271.61453	8223.2875
1275.15503	8098.3875
1278.69312	7964.4875
1282.22882	8056.1875
1285.76211	8524.4875
1289.29301	9181.4875
1292.82151	9652.3875
1296.34761	9862.6875
1299.87133	10342.2875
1303.39266	11557.0875
1306.9116	13804.3875
1310.42815	16445.0875
1313.94233	17344.5875
1317.45412	15295.2875
1320.96354	12446.5875
1324.47058	10269.9875
1327.97525	8918.5875
1331.47754	8192.0875
1334.97747	7937.9875
1338.47502	8059.6875
1341.97022	8640.8875
1345.46305	9913.5875
1348.95352	11697.5875
1352.44163	13542.3875
1355.92738	15624.6875
1359.41078	19182.9875
1362.89183	23052.0875
1366.37053	22109.5875
1369.84688	16552.5875
1373.32088	11859.3875
1376.79254	9770.5875
1380.26186	8810.3875
1383.72883	8121.3875
1387.19347	7427.8875
1390.65578	6886.5875
1394.11575	6579.7875
1397.57339	6425.0875
1401.0287	6299.9875
1404.48168	6232.7875
1407.93234	6229.2875
1411.38068	6305.6875
1414.82669	6536.6875
1418.27039	6790.9875
1421.71177	6819.5875
1425.15083	6706.7875
1428.58758	6682.6875
1432.02203	6888.7875
1435.45416	7072.2875
1438.88399	6894.8875
1442.31151	6700.2875
1445.73673	6666.3875
1449.15965	6665.9875
1452.58027	6587.3875
1455.9986	6501.7875
1459.41463	6425.1875
1462.82837	6455.8875
1466.23982	6600.2875
1469.64898	6829.5875
1473.05586	6901.2875
1476.46045	6924.6875
1479.86276	6978.4875
1483.26279	7160.8875
1486.66054	7540.9875
1490.05602	8106.4875
1493.44922	9074.7875
1496.84016	10546.4875
1500.22882	12801.2875
1503.61521	15906.8875
1506.99934	19735.1875
1510.38121	23325.2875
1513.76081	24491.3875
1517.13816	21786.7875
1520.51324	17103.3875
1523.88607	12994.7875
1527.25665	10414.7875
1530.62498	8990.3875
1533.99105	8159.0875
1537.35488	7645.0875
1540.71647	7308.1875
1544.07581	7170.6875
1547.4329	7172.2875
1550.78776	7266.4875
1554.14038	7434.0875
1557.49077	7704.9875
1560.83892	8234.6875
1564.18484	9011.4875
1567.52853	9880.0875
1570.86999	10429.5875
1574.20922	10514.2875
1577.54624	10198.8875
1580.88103	9159.7875
1584.2136	7894.7875
1587.54395	7149.8875
1590.87208	6974.5875
1594.19801	7177.8875
1597.52172	7648.8875
1600.84321	7660.7875
1604.16251	7227.5875
1607.47959	6826.6875
1610.79447	6539.5875
1614.10715	6282.7875
1617.41763	6076.9875
1620.7259	5958.3875
1624.03199	5959.7875
1627.33587	6025.1875
1630.63757	6205.0875
1633.93707	6598.9875
1637.23439	7289.4875
1640.52951	8577.0875
1643.82246	10702.0875
1647.11321	13516.5875
1650.40179	15684.5875
1653.68819	15366.9875
1656.97241	12728.7875
1660.25446	9719.9875
1663.53433	7668.6875
1666.81203	6536.4875
1670.08756	5955.2875
1673.36092	5667.3875
1676.63211	5450.0875
1679.90115	5335.9875
1683.16801	5234.5875
1686.43272	5124.5875
1689.69527	5089.6875
1692.95567	5032.9875
1696.2139	5009.3875
1699.46999	4947.7875
1702.72392	4957.5875
1705.97571	4975.2875
1709.22535	4960.4875
1712.47284	4994.2875
1715.71819	5031.7875
1718.96139	5028.7875
1722.20246	5014.4875
1725.44139	4967.3875
1728.67818	4942.6875
1731.91284	4873.5875
1735.14537	4856.8875
1738.37576	4827.6875
1741.60403	4792.0875
1744.83017	4777.1875
1748.05418	4762.1875
1751.27607	4755.9875
1754.49584	4733.4875
1757.71349	4665.2875
1760.92903	4655.8875
1764.14244	4617.7875
1767.35375	4612.9875
1770.56294	4587.4875
1773.77002	4558.1875
1776.97499	4556.8875
1780.17785	4527.7875
1783.37861	4521.1875
1786.57727	4532.4875
1789.77382	4469.4875
1792.96828	4499.8875
1796.16064	4515.3875
1799.3509	4504.4875
1802.53907	4508.1875
1805.72514	4460.0875
1808.90913	4434.5875
1812.09102	4440.1875
1815.27083	4427.5875
1818.44856	4427.8875
1821.6242	4415.0875
1824.79776	4387.0875
1827.96924	4383.0875
1831.13864	4364.8875
1834.30597	4360.0875
1837.47122	4325.6875
1840.6344	4326.1875
1843.7955	4304.8875
1846.95454	4285.5875
1850.11151	4317.1875
1853.26642	4262.4875
1856.41926	4275.6875
1859.57004	4284.2875
1862.71876	4269.4875
1865.86542	4284.9875
1869.01003	4275.8875
1872.15258	4249.5875
1875.29308	4283.8875
1878.43152	4270.6875
1881.56792	4254.4875
1884.70227	4229.2875
1887.83457	4242.0875
1890.96482	4211.7875
1894.09304	4194.2875
1897.21921	4189.8875
1900.34335	4210.2875
1903.46544	4176.8875
1906.58551	4197.8875
1909.70353	4198.2875
1912.81953	4187.8875
1915.93349	4179.9875
1919.04543	4156.4875
1922.15534	4140.7875
1925.26322	4149.0875
1928.36908	4113.4875
1931.47292	4100.5875
1934.57473	4101.1875
1937.67453	4074.6875
1940.77232	4021.5875
1943.86808	4032.7875
1946.96184	4011.0875
1950.05358	3997.8875
1953.14331	3978.5875
1956.23103	3998.0875
1959.31675	3971.4875
1962.40046	3942.5875
1965.48217	3958.0875
1968.56188	3961.8875
1971.63959	3948.8875
1974.7153	3955.2875
1977.78901	3932.5875
1980.86073	3920.7875
1983.93046	3860.7875
1986.99819	3786.0875
1990.06394	3799.5875
1993.1277	3810.6875
1996.18947	3805.6875
1999.24925	3760.6875
2002.30706	3761.9875
2005.36288	3761.9875
2008.41672	3759.2875
2011.46859	3714.0875
2014.51848	3709.7875
2017.56639	3697.0875
2020.61233	3684.1875
2023.6563	3670.8875
2026.6983	3641.4875
2029.73833	3651.9875
2032.7764	3656.7875
2035.8125	3609.8875
2038.84664	3626.9875
2041.87881	3611.5875
2044.90903	3618.6875
2047.93729	3594.6875
2050.96359	3561.3875
2053.98794	3582.6875
2057.01034	3584.6875
2060.03078	3560.9875
2063.04927	3532.3875
2066.06582	3545.2875
2069.08042	3537.4875
2072.09307	3553.6875
2075.10378	3531.9875
2078.11255	3530.6875
2081.11938	3518.7875
2084.12426	3519.6875
2087.12722	3507.0875
2090.12824	3523.1875
2093.12732	3523.8875
2096.12447	3523.5875
2099.11969	3513.4875
2102.11299	3513.3875
2105.10435	3539.8875
2108.09379	3536.0875
2111.08131	3519.3875
2114.0669	3520.3875
2117.05057	3512.1875
2120.03233	3522.4875
2123.01216	3550.2875
2125.99008	3554.2875
2128.96609	3559.5875
2131.94018	3587.9875
2134.91236	3543.5875
2137.88263	3543.1875
2140.851	3541.9875
2143.81746	3551.2875
2146.78201	3534.4875
2149.74466	3511.2875
2152.7054	3525.9875
2155.66425	3516.2875
2158.6212	3503.7875
2161.57625	3482.9875
2164.52941	3451.6875
2167.48067	3484.6875
2170.43004	3463.6875
2173.37752	3494.6875
2176.32311	3494.4875
2179.26681	3477.9875
2182.20863	3492.3875
2185.14856	3484.3875
2188.08661	3482.7875
2191.02278	3487.2875
2193.95707	3470.6875
2196.88948	3457.5875
2199.82001	3465.5875
2202.74867	3446.3875
2205.67545	3455.4875
2208.60037	3461.2875
2211.52341	3437.9875
2214.44458	3427.1875
2217.36388	3412.3875
2220.28132	3404.9875
2223.1969	3375.2875
2226.11061	3389.1875
2229.02246	3368.5875
2231.93245	3377.0875
2234.84058	3352.1875
2237.74686	3355.4875
2240.65128	3334.7875
2243.55385	3355.3875
2246.45456	3326.4875
2249.35343	3359.1875
2252.25044	3345.6875
2255.14561	3363.5875
2258.03893	3368.2875
2260.93041	3371.6875
2263.82004	3366.1875
2266.70783	3363.1875
2269.59378	3349.4875
2272.4779	3311.3875
2275.36017	3338.2875
2278.24061	3301.8875
2281.11922	3290.6875
2283.996	3303.8875
2286.87094	3273.4875
2289.74405	3281.1875
2292.61534	3272.8875
2295.4848	3249.7875
2298.35243	3250.6875
2301.21824	3231.8875
2304.08223	3236.5875
2306.94439	3235.4875
2309.80474	3243.3875
2312.66327	3236.0875
2315.51999	3216.6875
2318.37489	3215.3875
2321.22797	3190.3875
2324.07925	3191.1875
2326.92871	3191.8875
2329.77637	3173.6875
2332.62222	3167.8875
2335.46626	3147.7875
2338.3085	3151.4875
2341.14893	3161.4875
2343.98756	3174.3875
2346.8244	3156.4875
2349.65943	3136.7875
2352.49267	3144.4875
2355.32411	3155.6875
2358.15376	3156.2875
2360.98161	3175.2875
2363.80768	3179.0875
2366.63195	3159.7875
2369.45444	3184.6875
2372.27514	3180.8875
2375.09405	3185.8875
2377.91118	3149.7875
2380.72652	3158.7875
2383.54009	3143.8875
2386.35187	3134.4875
2389.16188	3121.6875
2391.97011	3107.3875
2394.77657	3099.8875
2397.58125	3098.7875
2400.38416	3074.2875
2403.18529	3046.7875
2405.98466	3037.0875
2408.78226	3054.9875
2411.57809	3032.6875
2414.37216	3013.9875
2417.16446	3030.9875
2419.955	3009.0875
2422.74378	3035.0875
2425.5308	3016.7875
2428.31606	3016.0875
2431.09956	3023.7875
2433.88131	3011.6875
2436.6613	3026.3875
2439.43954	3009.9875
2442.21603	3019.9875
2444.99077	3010.1875
2447.76377	3024.3875
2450.53501	3018.8875
2453.30451	3014.3875
2456.07226	3019.1875
2458.83827	3004.6875
2461.60254	2962.5875
2464.36507	2994.8875
2467.12586	2974.8875
2469.88492	2978.3875
2472.64224	2978.7875
2475.39782	2971.7875
2478.15167	2989.8875
2480.90379	2978.4875
2483.65417	3018.6875
2486.40283	3014.8875
2489.14976	3023.4875
2491.89497	3019.0875
2494.63845	3001.1875
2497.3802	3002.7875
2500.12024	2984.3875
2502.85855	2977.6875
2505.59514	2979.2875
2508.33002	2945.3875
2511.06318	2919.4875
2513.79462	2920.3875
2516.52435	2870.4875
2519.25237	2850.7875
2521.97867	2838.9875
2524.70327	2837.1875
2527.42616	2845.6875
2530.14734	2854.4875
2532.86681	2812.0875
2535.58458	2820.3875
2538.30065	2813.3875
2541.01501	2843.9875
2543.72768	2817.0875
2546.43864	2825.9875
2549.14791	2814.9875
2551.85548	2800.6875
2554.56136	2797.8875
2557.26554	2813.6875
2559.96803	2807.4875
2562.66883	2813.5875
2565.36794	2789.4875
2568.06536	2753.7875
2570.7611	2785.2875
2573.45514	2784.3875
2576.14751	2767.0875
2578.83819	2751.9875
2581.52719	2745.7875
2584.21451	2748.7875
2586.90015	2733.2875
2589.58411	2701.9875
2592.2664	2726.2875
2594.94701	2717.1875
2597.62594	2715.2875
2600.30321	2658.6875
2602.9788	2688.5875
2605.65273	2659.2875
2608.32498	2679.3875
2610.99557	2702.3875
2613.66449	2672.5875
2616.33175	2677.2875
2618.99734	2679.5875
2621.66128	2667.9875
2624.32355	2661.5875
2626.98416	2638.8875
2629.64311	2625.6875
2632.30041	2632.9875
2634.95605	2609.8875
2637.61004	2603.7875
2640.26238	2584.4875
2642.91306	2581.4875
2645.56209	2601.2875
2648.20948	2588.7875
2650.85521	2570.6875
2653.4993	2607.0875
2656.14175	2583.5875
2658.78255	2572.1875
2661.42171	2560.6875
2664.05923	2592.2875
2666.6951	2612.9875
2669.32934	2604.7875
2671.96194	2608.0875
2674.59291	2604.9875
2677.22224	2595.3875
2679.84993	2594.5875
2682.476	2588.7875
2685.10043	2578.7875
2687.72324	2573.3875
2690.34441	2567.1875
2692.96396	2564.4875
2695.58188	2584.2875
2698.19818	2570.1875
2700.81285	2567.3875
2703.4259	2557.2875
2706.03733	2531.0875
2708.64714	2531.9875
2711.25533	2552.2875
2713.86191	2558.7875
2716.46687	2557.7875
2719.07021	2555.6875
2721.67194	2558.0875
2724.27206	2558.6875
2726.87057	2546.6875
2729.46747	2527.1875
2732.06276	2535.9875
2734.65644	2524.2875
2737.24852	2526.7875
2739.83899	2504.9875
2742.42786	2518.8875
2745.01513	2513.2875
2747.60079	2496.6875
2750.18486	2476.7875
2752.76733	2478.5875
2755.3482	2461.4875
2757.92747	2480.1875
2760.50515	2455.9875
2763.08123	2445.7875
2765.65573	2452.8875
2768.22863	2451.3875
2770.79994	2435.0875
2773.36967	2417.1875
2775.9378	2427.3875
2778.50435	2416.5875
2781.06932	2421.1875
2783.6327	2398.0875
2786.1945	2419.2875
2788.75471	2406.5875
2791.31335	2404.5875
2793.87041	2412.2875
2796.42589	2387.2875
2798.97979	2391.8875
2801.53212	2400.2875
2804.08288	2402.5875
2806.63206	2399.0875
2809.17967	2372.7875
2811.72571	2396.2875
2814.27018	2395.7875
2816.81308	2388.5875
2819.35442	2358.6875
2821.89419	2398.6875
2824.43239	2374.4875
2826.96904	2394.8875
2829.50412	2387.1875
2832.03763	2390.5875
2834.56959	2378.6875
2837.1	2359.1875
2839.62884	2364.3875
2842.15613	2353.8875
2844.68186	2365.6875
2847.20604	2339.5875
2849.72867	2329.9875
2852.24974	2346.1875
2854.76927	2320.8875
2857.28724	2275.9875
2859.80367	2336.9875
2862.31855	2353.0875
2864.83189	2350.0875
2867.34368	2356.9875
2869.85393	2380.6875
2872.36264	2353.2875
2874.8698	2350.4875
2877.37543	2358.0875
2879.87952	2354.5875
2882.38207	2319.0875
2884.88308	2324.8875
2887.38256	2324.9875
2889.88051	2303.7875
2892.37692	2313.7875
2894.8718	2284.8875
2897.36515	2297.1875
2899.85698	2282.4875
2902.34727	2297.2875
2904.83604	2304.1875
2907.32328	2313.6875
2909.809	2321.0875
2912.29319	2317.0875
2914.77587	2336.9875
2917.25702	2346.5875
2919.73665	2335.2875
2922.21476	2330.4875
2924.69136	2317.3875
2927.16644	2302.3875
2929.64	2296.7875
2932.11205	2266.8875
2934.58258	2276.5875
2937.05161	2254.1875
2939.51912	2257.2875
2941.98513	2269.9875
2944.44962	2266.8875
2946.91261	2235.6875
2949.37409	2248.5875
2951.83407	2235.4875
2954.29254	2235.7875
2956.74951	2250.4875
2959.20498	2235.7875
2961.65895	2235.2875
2964.11142	2236.6875
2966.56239	2233.6875
2969.01186	2241.3875
2971.45984	2236.0875
2973.90632	2218.3875
2976.35131	2237.2875
2978.7948	2222.6875
2981.23681	2229.9875
2983.67732	2224.9875
2986.11635	2233.7875
2988.55388	2185.8875
2990.98993	2214.2875
2993.4245	2195.6875
2995.85758	2180.7875
2998.28917	2194.6875
3000.71928	2176.8875
3003.14791	2186.3875
3005.57506	2172.6875
3008.00073	2152.4875
3010.42493	2105.1875
3012.84764	2166.5875
3015.26888	2149.3875
3017.68865	2144.2875
3020.10694	2108.9875
3022.52376	2121.9875
3024.9391	2127.4875
3027.35298	2100.2875
3029.76539	2094.9875
3032.17632	2092.3875
3034.5858	2071.4875
3036.9938	2073.6875
3039.40034	2065.3875
3041.80542	2047.3875
3044.20903	2040.2875
3046.61118	2030.1875
3049.01187	2045.2875
3051.4111	2016.1875
3053.80888	2022.5875
3056.20519	2012.0875
3058.60005	1993.6875
3060.99345	2018.3875
3063.3854	1998.5875
3065.7759	1983.9875
3068.16494	1977.4875
3070.55254	1958.9875
3072.93868	1984.8875
3075.32338	1967.7875
3077.70662	1964.1875
3080.08842	1947.1875
3082.46878	1938.2875
3084.84769	1966.1875
3087.22515	1937.7875
3089.60118	1954.9875
3091.97576	1940.1875
3094.3489	1933.9875
3096.72061	1929.9875
3099.09087	1923.5875
3101.4597	1935.9875
3103.82709	1928.9875
3106.19305	1912.8875
3108.55757	1933.8875
3110.92066	1908.2875
3113.28232	1926.3875
3115.64255	1931.2875
3118.00134	1923.8875
3120.35871	1902.6875
3122.71466	1886.2875
3125.06917	1897.7875
3127.42226	1893.0875
3129.77393	1869.4875
3132.12417	1892.4875
3134.47299	1885.7875
3136.82039	1867.7875
3139.16636	1852.6875
3141.51092	1874.2875
3143.85406	1872.5875
3146.19579	1852.2875
3148.53609	1860.5875
3150.87499	1867.6875
3153.21246	1858.4875
3155.54853	1876.5875
3157.88318	1866.5875
3160.21642	1876.7875
3162.54826	1878.4875
3164.87868	1871.5875
3167.2077	1838.5875
3169.5353	1865.5875
3171.86151	1868.2875
3174.18631	1832.5875
3176.5097	1838.7875
3178.83169	1833.1875
3181.15228	1839.0875
3183.47147	1818.4875
3185.78926	1798.7875
3188.10565	1813.0875
3190.42065	1790.5875
3192.73424	1798.9875
3195.04645	1796.0875
3197.35725	1771.8875
3199.66667	1797.3875
3201.97469	1790.6875
3204.28132	1784.4875
3206.58656	1801.4875
3208.8904	1796.3875
3211.19287	1798.5875
3213.49394	1786.2875
3215.79363	1785.4875
3218.09193	1794.0875
3220.38884	1791.3875
3222.68438	1787.1875
3224.97853	1768.8875
3227.2713	1788.0875
3229.56269	1770.5875
3231.8527	1769.1875
3234.14133	1768.5875
3236.42858	1765.8875
3238.71446	1738.5875
3240.99896	1770.5875
3243.28209	1746.2875
3245.56384	1750.5875
3247.84423	1722.9875
3250.12324	1741.0875
3252.40088	1735.2875
3254.67715	1715.2875
3256.95205	1715.8875
3259.22558	1742.0875
3261.49775	1739.8875
3263.76855	1727.9875
3266.03799	1731.0875
3268.30606	1730.7875
3270.57277	1735.4875
3272.83812	1714.4875
3275.10211	1715.5875
3277.36474	1732.1875
3279.62601	1721.5875
3281.88593	1695.6875
3284.14448	1690.9875
3286.40168	1710.7875
3288.65753	1706.4875
3290.91202	1705.0875
3293.16516	1686.4875
3295.41695	1712.1875
3297.66738	1721.2875
3299.91647	1704.9875
3302.16421	1698.2875
3304.4106	1664.7875
3306.65564	1691.3875
3308.89933	1661.7875
3311.14169	1661.3875
3313.38269	1640.9875
3315.62236	1629.6875
3317.86068	1614.4875
3320.09766	1616.2875
3322.3333	1588.0875
3324.5676	1588.1875
3326.80056	1565.2875
3329.03219	1555.0875
3331.26248	-0.2125
3333.49143	-0.3125
3335.71905	0.5875
