Data from AgNPs_UA_10uM_CRN_500uM_SU_RamanShift__124__13-26-00-278.txt Node

Date: Thu Aug 04 13:26:00 BST 2022
User: TCL
Spectrometer: QEP01345
Trigger mode: 4
Integration Time (sec): 1.000000E0
Scans to average: 10
Electric dark correction enabled: true
Nonlinearity correction enabled: false
Boxcar width: 0
XAxis mode: Raman Shifts
Number of Pixels in Spectrum: 1044
>>>>>Begin Spectral Data<<<<<
46.04893	0.3
50.45542	-1.1
54.85868	0.4
59.25871	0.9
63.6555	21.6
68.04907	21.7
72.43941	21.9
76.82654	24
81.21044	24.4
85.59113	26.8
89.96862	27
94.34289	26.7
98.71396	26.6
103.08183	28.8
107.4465	30.8
111.80798	30
116.16626	32.4
120.52136	34.9
124.87327	36.4
129.222	36.3
133.56755	38.9
137.90993	44.2
142.24913	48.3
146.58517	54.8
150.91804	64.2
155.24774	81.2
159.57429	97.2
163.89768	128.1
168.21792	177.2
172.53501	243.4
176.84895	342
181.15975	489.6
185.46741	685
189.77193	953.8
194.07331	1285.3
198.37157	1663.1
202.6667	2049.2
206.9587	2459.4
211.24758	2846.1
215.53334	3248.4
219.81599	3669.9
224.09553	4151.2
228.37195	4681
232.64527	5254.2
236.91549	5805.5
241.18261	6287.2
245.44663	6706.4
249.70755	7020.5
253.96539	7300.7
258.22014	7566.7
262.4718	7788.3
266.72039	7921.8
270.96589	7954.1
275.20832	7898
279.44768	7831.1
283.68397	7682.6
287.91719	7596.1
292.14735	7601
296.37445	7747
300.59849	7988.7
304.81948	8256.4
309.03742	8526.2
313.25231	8674.6
317.46415	8598.6
321.67296	8268.1
325.87872	7946.3
330.08145	7782.3
334.28114	7774
338.47781	7852.7
342.67145	7995.7
346.86207	8235.2
351.04966	8562.2
355.23424	8897.3
359.4158	9139.7
363.59435	9259.4
367.76989	9274.3
371.94243	9255.1
376.11196	9223.7
380.27849	9218
384.44203	9210.8
388.60257	9265
392.76012	9350.9
396.91468	9434.6
401.06626	9597.2
405.21485	9660.4
409.36047	9547.8
413.50311	9226.8
417.64277	8964
421.77947	8776.1
425.9132	8705.9
430.04396	8682.3
434.17176	8744.3
438.2966	8873.9
442.41849	9044.9
446.53742	9283.1
450.6534	9481.5
454.76644	9610.3
458.87653	9649.7
462.98368	9631.1
467.08789	9543.1
471.18916	9368.4
475.2875	9151.6
479.38291	8952.7
483.4754	8842
487.56496	8765.4
491.6516	8744
495.73531	8729
499.81612	8770.1
503.89401	8852.9
507.96899	8892.6
512.04106	8939.3
516.11023	8976.2
520.1765	9047.2
524.23987	9084.7
528.30034	9083.1
532.35792	9049.9
536.41261	8978.6
540.46441	8850.1
544.51333	8792.6
548.55936	8891.3
552.60252	9021.4
556.64279	9166.3
560.6802	9325.2
564.71473	9410.8
568.7464	9551.3
572.7752	9551.2
576.80114	9306.7
580.82422	9127.6
584.84444	9070.6
588.86181	9149
592.87633	9245.6
596.888	9461.1
600.89682	9855.6
604.9028	10955.6
608.90594	13276
612.90624	15503.1
616.90371	14216.9
620.89834	11058.6
624.89015	9816.6
628.87913	9722.9
632.86528	9840.5
636.84862	9867.9
640.82913	9573.3
644.80683	9189.7
648.78172	8962.8
652.75379	9011.2
656.72306	9328.1
660.68952	9616.8
664.65319	9560.6
668.61405	9381
672.57211	9428.5
676.52738	9446
680.47986	9233
684.42955	9051
688.37646	9037
692.32058	9120.3
696.26192	9278.2
700.20048	9457.3
704.13626	9462.2
708.06928	9341.9
711.99952	9216.2
715.927	9240.3
719.85171	9325.5
723.77365	9320.4
727.69284	9233.6
731.60928	9157.6
735.52295	9146.4
739.43388	9191.8
743.34206	9245.7
747.24749	9243.4
751.15017	9272.8
755.05012	9366.3
758.94733	9728.7
762.8418	10608
766.73354	11835.4
770.62254	12869
774.50882	13035.1
778.39237	12516.3
782.27321	11602.3
786.15132	10640.8
790.02671	9908.3
793.89938	9556
797.76935	9411
801.6366	9316.3
805.50115	9257.2
809.36299	9224
813.22213	9199.8
817.07857	9164.1
820.93231	9179.7
824.78336	9160.5
828.63172	9196.2
832.47738	9236.2
836.32036	9215
840.16066	9217.4
843.99827	9209
847.8332	9209.3
851.66546	9184.3
855.49504	9208.3
859.32195	9201.8
863.1462	9192.5
866.96777	9169.2
870.78668	9172.5
874.60293	9222.5
878.41652	9274.7
882.22745	9348.9
886.03573	9396.7
889.84136	9378.3
893.64433	9350.6
897.44466	9306.1
901.24235	9280.1
905.0374	9265.1
908.8298	9212.6
912.61957	9231
916.40671	9234.2
920.19121	9301.9
923.97308	9369.6
927.75233	9479
931.52895	9565.6
935.30295	9489.1
939.07433	9301.8
942.84309	9202.6
946.60924	9173.8
950.37278	9169.9
954.13371	9108
957.89203	9086.2
961.64774	9088.6
965.40086	9051.6
969.15137	9038.2
972.89929	9046.6
976.64461	9043.8
980.38733	9076.1
984.12747	9109.6
987.86502	9154.4
991.59999	9256.1
995.33237	9353.7
999.06217	9560.7
1002.78939	9771
1006.51404	9960.3
1010.23611	10080.4
1013.95561	10164.6
1017.67255	10216.5
1021.38692	10199.8
1025.09872	10170.8
1028.80796	10231.9
1032.51465	10347.4
1036.21877	10490.5
1039.92035	10510.7
1043.61937	10412.5
1047.31584	10285.5
1051.00976	10154.3
1054.70114	10083.5
1058.38998	10082.2
1062.07627	10102
1065.76003	10181.3
1069.44126	10241.7
1073.11995	10403
1076.79611	10590
1080.46974	10725
1084.14085	10864.4
1087.80943	10964.8
1091.47549	10994.3
1095.13903	10952.8
1098.80005	10868.8
1102.45857	10861.6
1106.11456	10823.7
1109.76805	10749
1113.41903	10784.2
1117.06751	10921.8
1120.71348	11121.7
1124.35696	11372.8
1127.99793	11528.9
1131.63641	11333.9
1135.2724	11024.2
1138.90589	10729.4
1142.5369	10537.8
1146.16542	10430.8
1149.79145	10342.6
1153.415	10266.2
1157.03607	10279.6
1160.65467	10392.3
1164.27079	10618
1167.88443	11016.2
1171.49561	11581.1
1175.10432	12428.6
1178.71056	13565.8
1182.31434	14505.4
1185.91565	14903
1189.51451	14810.9
1193.11091	14364.5
1196.70485	13914.2
1200.29634	13453.9
1203.88538	12952.5
1207.47197	12451.6
1211.05612	11977.8
1214.63782	11596.9
1218.21708	11386.1
1221.79391	11312.1
1225.36829	11355.5
1228.94024	11322.1
1232.50976	11219.3
1236.07685	11171.2
1239.6415	11168.6
1243.20374	11182
1246.76355	11251.7
1250.32093	11429.3
1253.8759	11636.9
1257.42845	11975.7
1260.97859	12312.9
1264.52631	12650.6
1268.07163	12937.7
1271.61453	13159.6
1275.15503	13266.2
1278.69312	13402
1282.22882	13506.9
1285.76211	13675.4
1289.29301	13839.1
1292.82151	14116.3
1296.34761	14437
1299.87133	15007.4
1303.39266	15916.3
1306.9116	17302.4
1310.42815	18740.9
1313.94233	19377.4
1317.45412	18808.7
1320.96354	17691.6
1324.47058	16523.7
1327.97525	15566.4
1331.47754	14989.7
1334.97747	14822.5
1338.47502	14942.6
1341.97022	15392.6
1345.46305	16155.1
1348.95352	17187.7
1352.44163	18432.2
1355.92738	19706.9
1359.41078	21344.7
1362.89183	22462.2
1366.37053	21366.9
1369.84688	18474.2
1373.32088	15807.6
1376.79254	14368.6
1380.26186	13681.8
1383.72883	13285.1
1387.19347	12924.5
1390.65578	12509.7
1394.11575	12171.1
1397.57339	11939.8
1401.0287	11848
1404.48168	11846.1
1407.93234	11928.9
1411.38068	12098.6
1414.82669	12289.3
1418.27039	12289.7
1421.71177	12267.5
1425.15083	12185.3
1428.58758	12157.6
1432.02203	12288.7
1435.45416	12390.9
1438.88399	12417.8
1442.31151	12366.7
1445.73673	12309.3
1449.15965	12285.8
1452.58027	12232.1
1455.9986	12160.2
1459.41463	12123.3
1462.82837	12228.7
1466.23982	12430.3
1469.64898	12618.4
1473.05586	12783.7
1476.46045	12943.9
1479.86276	13114.5
1483.26279	13227.6
1486.66054	13484.7
1490.05602	13807
1493.44922	14351.1
1496.84016	15182.7
1500.22882	16381.6
1503.61521	17924.7
1506.99934	19413.4
1510.38121	20341.4
1513.76081	20059.2
1517.13816	18674.6
1520.51324	16736
1523.88607	15244
1527.25665	14288.2
1530.62498	13826.2
1533.99105	13599.4
1537.35488	13418
1540.71647	13313.9
1544.07581	13188.7
1547.4329	13052.6
1550.78776	12940.4
1554.14038	12815.9
1557.49077	12802.8
1560.83892	12957.2
1564.18484	13231.5
1567.52853	13526.1
1570.86999	13731.2
1574.20922	13737.6
1577.54624	13547.4
1580.88103	12991.7
1584.2136	12452.4
1587.54395	12202.5
1590.87208	12409.6
1594.19801	13003.4
1597.52172	13702.4
1600.84321	14012.8
1604.16251	13859.6
1607.47959	13420.5
1610.79447	12889.7
1614.10715	12187.5
1617.41763	11512.9
1620.7259	11048.9
1624.03199	10787.7
1627.33587	10772
1630.63757	10989.6
1633.93707	11494.3
1637.23439	12290.4
1640.52951	13471.6
1643.82246	14917.6
1647.11321	16261.1
1650.40179	16677.6
1653.68819	15680.1
1656.97241	13792.2
1660.25446	12007.8
1663.53433	10807.4
1666.81203	10120.3
1670.08756	9693.5
1673.36092	9445.6
1676.63211	9286.8
1679.90115	9152.8
1683.16801	9040.4
1686.43272	8939.3
1689.69527	8881.6
1692.95567	8869.4
1696.2139	8813.4
1699.46999	8777.8
1702.72392	8766.3
1705.97571	8760.4
1709.22535	8757.2
1712.47284	8796.1
1715.71819	8764.2
1718.96139	8765.2
1722.20246	8730.1
1725.44139	8704.6
1728.67818	8654.3
1731.91284	8605.5
1735.14537	8569.1
1738.37576	8521.6
1741.60403	8508.9
1744.83017	8452.3
1748.05418	8469.2
1751.27607	8443.6
1754.49584	8405.9
1757.71349	8411.3
1760.92903	8425.2
1764.14244	8389.2
1767.35375	8352.2
1770.56294	8355.3
1773.77002	8319.2
1776.97499	8291.1
1780.17785	8275.1
1783.37861	8259.6
1786.57727	8260.4
1789.77382	8248.2
1792.96828	8231.2
1796.16064	8238.6
1799.3509	8202.6
1802.53907	8217
1805.72514	8190.7
1808.90913	8165
1812.09102	8153.8
1815.27083	8137.2
1818.44856	8104.7
1821.6242	8079.6
1824.79776	8060.4
1827.96924	8045.6
1831.13864	8044.5
1834.30597	8026.2
1837.47122	8017.1
1840.6344	8002.9
1843.7955	7998.8
1846.95454	8013.5
1850.11151	7992.4
1853.26642	7978.6
1856.41926	8004.4
1859.57004	8010.2
1862.71876	7974.4
1865.86542	7957.2
1869.01003	7970
1872.15258	7947.2
1875.29308	7953
1878.43152	7932.3
1881.56792	7928.1
1884.70227	7896.7
1887.83457	7871.2
1890.96482	7875.4
1894.09304	7846.2
1897.21921	7858.7
1900.34335	7841.9
1903.46544	7844.5
1906.58551	7819.5
1909.70353	7816.2
1912.81953	7828.3
1915.93349	7812.7
1919.04543	7782.1
1922.15534	7763.7
1925.26322	7780.4
1928.36908	7734.3
1931.47292	7732.3
1934.57473	7712.6
1937.67453	7703.6
1940.77232	7703.8
1943.86808	7651.8
1946.96184	7645.9
1950.05358	7609.5
1953.14331	7601.5
1956.23103	7594.5
1959.31675	7551.4
1962.40046	7539.8
1965.48217	7495.3
1968.56188	7497.6
1971.63959	7438.1
1974.7153	7436.3
1977.78901	7462.8
1980.86073	7412.1
1983.93046	7401.5
1986.99819	7362.5
1990.06394	7365.3
1993.1277	7315.9
1996.18947	7299.2
1999.24925	7276
2002.30706	7243.8
2005.36288	7215.3
2008.41672	7181.6
2011.46859	7179.8
2014.51848	7137.6
2017.56639	7132.8
2020.61233	7113.6
2023.6563	7089.1
2026.6983	7086.1
2029.73833	7045.8
2032.7764	7044
2035.8125	7027.2
2038.84664	7010
2041.87881	6995.9
2044.90903	6973.8
2047.93729	6974.2
2050.96359	6966.1
2053.98794	6953.2
2057.01034	6951.2
2060.03078	6949.7
2063.04927	6933.6
2066.06582	6922.8
2069.08042	6913.6
2072.09307	6905.2
2075.10378	6918.8
2078.11255	6881.5
2081.11938	6873.5
2084.12426	6854.9
2087.12722	6857.8
2090.12824	6870.1
2093.12732	6880.9
2096.12447	6873.6
2099.11969	6883.1
2102.11299	6888.3
2105.10435	6874.3
2108.09379	6887.1
2111.08131	6874.4
2114.0669	6877.5
2117.05057	6902.3
2120.03233	6906.6
2123.01216	6910.6
2125.99008	6905.5
2128.96609	6904.8
2131.94018	6923
2134.91236	6900.7
2137.88263	6904.2
2140.851	6903.8
2143.81746	6919.2
2146.78201	6910.3
2149.74466	6900.6
2152.7054	6920.3
2155.66425	6898.6
2158.6212	6887
2161.57625	6888.2
2164.52941	6892.7
2167.48067	6875.7
2170.43004	6869.2
2173.37752	6862.8
2176.32311	6867.4
2179.26681	6865.8
2182.20863	6885.8
2185.14856	6896.5
2188.08661	6881.9
2191.02278	6881.9
2193.95707	6875.3
2196.88948	6851.9
2199.82001	6838.8
2202.74867	6845.6
2205.67545	6863.4
2208.60037	6837.2
2211.52341	6852
2214.44458	6818.3
2217.36388	6792.9
2220.28132	6782.4
2223.1969	6752.8
2226.11061	6759.3
2229.02246	6734.1
2231.93245	6737.7
2234.84058	6742.6
2237.74686	6702.2
2240.65128	6711.6
2243.55385	6668.7
2246.45456	6672.2
2249.35343	6657
2252.25044	6657.4
2255.14561	6643.2
2258.03893	6668.5
2260.93041	6663
2263.82004	6629.1
2266.70783	6610.9
2269.59378	6604.8
2272.4779	6576.6
2275.36017	6562.7
2278.24061	6562.8
2281.11922	6533.4
2283.996	6502.5
2286.87094	6501.7
2289.74405	6523
2292.61534	6494.7
2295.4848	6489.1
2298.35243	6466.2
2301.21824	6466.4
2304.08223	6459.1
2306.94439	6470.2
2309.80474	6446.2
2312.66327	6463.8
2315.51999	6452.2
2318.37489	6461.1
2321.22797	6443.6
2324.07925	6447.4
2326.92871	6438
2329.77637	6437.2
2332.62222	6386.2
2335.46626	6405.6
2338.3085	6396.6
2341.14893	6396.6
2343.98756	6382.4
2346.8244	6397.5
2349.65943	6397.5
2352.49267	6395.6
2355.32411	6385
2358.15376	6380.9
2360.98161	6374.6
2363.80768	6389.1
2366.63195	6353.7
2369.45444	6354.6
2372.27514	6369
2375.09405	6340.3
2377.91118	6327.2
2380.72652	6304
2383.54009	6307.2
2386.35187	6283.4
2389.16188	6266.5
2391.97011	6260.6
2394.77657	6229.8
2397.58125	6206
2400.38416	6208.2
2403.18529	6204.6
2405.98466	6188.9
2408.78226	6195.5
2411.57809	6177.8
2414.37216	6157.3
2417.16446	6157
2419.955	6127.3
2422.74378	6129.8
2425.5308	6127.8
2428.31606	6138.2
2431.09956	6127.7
2433.88131	6108.7
2436.6613	6103.1
2439.43954	6112.8
2442.21603	6097.3
2444.99077	6106.5
2447.76377	6101.2
2450.53501	6089.3
2453.30451	6095.7
2456.07226	6080.3
2458.83827	6072.5
2461.60254	6050.9
2464.36507	6049.4
2467.12586	6047
2469.88492	6035.9
2472.64224	6041.8
2475.39782	6045.7
2478.15167	6030.3
2480.90379	6037.6
2483.65417	6046.9
2486.40283	6042.3
2489.14976	6035.5
2491.89497	6045.5
2494.63845	6061.4
2497.3802	6037.7
2500.12024	6018.5
2502.85855	6012.4
2505.59514	5994
2508.33002	6010.2
2511.06318	5974.1
2513.79462	5980.8
2516.52435	5964.4
2519.25237	5965.3
2521.97867	5931.2
2524.70327	5939.4
2527.42616	5932.1
2530.14734	5921
2532.86681	5909.4
2535.58458	5926.3
2538.30065	5917.6
2541.01501	5919
2543.72768	5897.4
2546.43864	5882.7
2549.14791	5888.1
2551.85548	5873.7
2554.56136	5878.8
2557.26554	5871.1
2559.96803	5854.5
2562.66883	5851.4
2565.36794	5837.3
2568.06536	5810.6
2570.7611	5819.9
2573.45514	5806.1
2576.14751	5787.9
2578.83819	5795.8
2581.52719	5788.7
2584.21451	5763.6
2586.90015	5773
2589.58411	5770.4
2592.2664	5768.2
2594.94701	5753
2597.62594	5738.9
2600.30321	5727.5
2602.9788	5724.9
2605.65273	5734.6
2608.32498	5720.3
2610.99557	5703.7
2613.66449	5703.4
2616.33175	5707.3
2618.99734	5689.7
2621.66128	5682.9
2624.32355	5689.4
2626.98416	5665.1
2629.64311	5666.9
2632.30041	5675.5
2634.95605	5660.5
2637.61004	5648.8
2640.26238	5639.5
2642.91306	5628.2
2645.56209	5636
2648.20948	5633.6
2650.85521	5614.1
2653.4993	5606.9
2656.14175	5604.8
2658.78255	5607
2661.42171	5601.7
2664.05923	5610.9
2666.6951	5612.7
2669.32934	5641.9
2671.96194	5629.1
2674.59291	5627.8
2677.22224	5624.4
2679.84993	5632
2682.476	5616.6
2685.10043	5608.9
2687.72324	5600.9
2690.34441	5615.4
2692.96396	5594.2
2695.58188	5599.7
2698.19818	5585.1
2700.81285	5578.9
2703.4259	5571.4
2706.03733	5566.9
2708.64714	5557.3
2711.25533	5584.7
2713.86191	5560.4
2716.46687	5570.2
2719.07021	5577.2
2721.67194	5568.9
2724.27206	5581.1
2726.87057	5557.7
2729.46747	5579.8
2732.06276	5565
2734.65644	5555.5
2737.24852	5565.4
2739.83899	5524.3
2742.42786	5532.4
2745.01513	5512.5
2747.60079	5494.7
2750.18486	5498.7
2752.76733	5502.8
2755.3482	5501.8
2757.92747	5486.3
2760.50515	5479.5
2763.08123	5474.9
2765.65573	5448.2
2768.22863	5446.8
2770.79994	5437.2
2773.36967	5437.6
2775.9378	5428.3
2778.50435	5446.4
2781.06932	5432.8
2783.6327	5429.7
2786.1945	5436.9
2788.75471	5420.2
2791.31335	5406.8
2793.87041	5394.9
2796.42589	5376.9
2798.97979	5376.5
2801.53212	5340.6
2804.08288	5343.5
2806.63206	5341.3
2809.17967	5329.8
2811.72571	5330.9
2814.27018	5329.9
2816.81308	5292.5
2819.35442	5283.7
2821.89419	5288.9
2824.43239	5273.5
2826.96904	5268
2829.50412	5253.6
2832.03763	5243.9
2834.56959	5240.4
2837.1	5213.1
2839.62884	5229.8
2842.15613	5219.7
2844.68186	5231.1
2847.20604	5214.4
2849.72867	5211.4
2852.24974	5181.6
2854.76927	5176.4
2857.28724	5170.7
2859.80367	5163.6
2862.31855	5171.6
2864.83189	5156.9
2867.34368	5159.1
2869.85393	5153
2872.36264	5139.2
2874.8698	5133.9
2877.37543	5135.8
2879.87952	5130.9
2882.38207	5144.6
2884.88308	5100
2887.38256	5120.5
2889.88051	5113.8
2892.37692	5105.8
2894.8718	5096.1
2897.36515	5109.6
2899.85698	5102.9
2902.34727	5115.5
2904.83604	5116
2907.32328	5127.8
2909.809	5143.2
2912.29319	5140.8
2914.77587	5140
2917.25702	5147.6
2919.73665	5153.6
2922.21476	5136.8
2924.69136	5135.9
2927.16644	5123
2929.64	5086.6
2932.11205	5090.6
2934.58258	5066.8
2937.05161	5077.5
2939.51912	5091.3
2941.98513	5073.5
2944.44962	5056.9
2946.91261	5028.5
2949.37409	5054.5
2951.83407	5036.8
2954.29254	5053.5
2956.74951	5030.5
2959.20498	5040.1
2961.65895	5019.5
2964.11142	5030.5
2966.56239	5012.5
2969.01186	5038
2971.45984	5016
2973.90632	5002
2976.35131	5003.7
2978.7948	4983.7
2981.23681	4988.4
2983.67732	4963.6
2986.11635	4957.4
2988.55388	4940.7
2990.98993	4925.2
2993.4245	4911.5
2995.85758	4899.8
2998.28917	4893.3
3000.71928	4878.6
3003.14791	4873.9
3005.57506	4846.3
3008.00073	4840.5
3010.42493	4832
3012.84764	4820.7
3015.26888	4824.6
3017.68865	4824.8
3020.10694	4813.1
3022.52376	4776.1
3024.9391	4767.2
3027.35298	4757.3
3029.76539	4757.2
3032.17632	4748.3
3034.5858	4737.8
3036.9938	4758.1
3039.40034	4713.5
3041.80542	4712
3044.20903	4702.8
3046.61118	4683
3049.01187	4663.5
3051.4111	4664.4
3053.80888	4655
3056.20519	4637.7
3058.60005	4618.9
3060.99345	4635.8
3063.3854	4606.7
3065.7759	4597.8
3068.16494	4588.5
3070.55254	4570.2
3072.93868	4552.4
3075.32338	4548.8
3077.70662	4536.8
3080.08842	4526.7
3082.46878	4525.6
3084.84769	4509.6
3087.22515	4506.3
3089.60118	4515.6
3091.97576	4507.4
3094.3489	4496.4
3096.72061	4483.7
3099.09087	4486.1
3101.4597	4485.6
3103.82709	4476.1
3106.19305	4485.7
3108.55757	4490.4
3110.92066	4449.3
3113.28232	4461
3115.64255	4436.5
3118.00134	4426.5
3120.35871	4431.3
3122.71466	4415.5
3125.06917	4413.1
3127.42226	4385.7
3129.77393	4391.1
3132.12417	4372.3
3134.47299	4382.6
3136.82039	4353.9
3139.16636	4369.8
3141.51092	4365.9
3143.85406	4365.7
3146.19579	4352.4
3148.53609	4352.4
3150.87499	4336
3153.21246	4360.4
3155.54853	4348
3157.88318	4329.3
3160.21642	4334.3
3162.54826	4342.1
3164.87868	4334.5
3167.2077	4334.4
3169.5353	4319.6
3171.86151	4314.2
3174.18631	4299.2
3176.5097	4288.3
3178.83169	4283.8
3181.15228	4275.1
3183.47147	4279.3
3185.78926	4258.7
3188.10565	4234.9
3190.42065	4231.1
3192.73424	4229.4
3195.04645	4229.7
3197.35725	4233.9
3199.66667	4211.6
3201.97469	4218.3
3204.28132	4217.4
3206.58656	4234.5
3208.8904	4222.3
3211.19287	4219.3
3213.49394	4215.8
3215.79363	4217.5
3218.09193	4228.9
3220.38884	4213.6
3222.68438	4224.9
3224.97853	4220.9
3227.2713	4206.2
3229.56269	4200.3
3231.8527	4196.4
3234.14133	4183.5
3236.42858	4169.6
3238.71446	4163.6
3240.99896	4150.6
3243.28209	4141.3
3245.56384	4136.7
3247.84423	4133.2
3250.12324	4108.9
3252.40088	4122.1
3254.67715	4112.5
3256.95205	4107.1
3259.22558	4114.7
3261.49775	4096.3
3263.76855	4095.4
3266.03799	4093.5
3268.30606	4089.2
3270.57277	4096.3
3272.83812	4108.6
3275.10211	4078.2
3277.36474	4067.2
3279.62601	4063
3281.88593	4041.6
3284.14448	4034.1
3286.40168	4040
3288.65753	4046.5
3290.91202	4042.3
3293.16516	4014
3295.41695	4030.7
3297.66738	3997.6
3299.91647	3995.5
3302.16421	3961.1
3304.4106	3950.2
3306.65564	3922.1
3308.89933	3885.3
3311.14169	3863.9
3313.38269	3826.6
3315.62236	3815
3317.86068	3784.6
3320.09766	3752.4
3322.3333	3708
3324.5676	3694.1
3326.80056	3634.7
3329.03219	3607.4
3331.26248	0.1
3333.49143	-0.8
3335.71905	1.4
