Data from AgNPs_UA_50uM_CRN_500uM_SU_RamanShift__68__14-07-10-327.txt Node

Date: Thu Aug 04 14:07:10 BST 2022
User: TCL
Spectrometer: QEP01345
Trigger mode: 4
Integration Time (sec): 1.000000E0
Scans to average: 10
Electric dark correction enabled: true
Nonlinearity correction enabled: false
Boxcar width: 0
XAxis mode: Raman Shifts
Number of Pixels in Spectrum: 1044
>>>>>Begin Spectral Data<<<<<
46.04893	0.3875
50.45542	-1.0125
54.85868	-0.9125
59.25871	0.3875
63.6555	18.7875
68.04907	16.2875
72.43941	18.0875
76.82654	20.8875
81.21044	19.3875
85.59113	21.2875
89.96862	22.1875
94.34289	23.0875
98.71396	23.2875
103.08183	24.8875
107.4465	23.0875
111.80798	25.1875
116.16626	25.1875
120.52136	29.2875
124.87327	28.9875
129.222	33.3875
133.56755	34.8875
137.90993	37.1875
142.24913	40.2875
146.58517	44.1875
150.91804	53.6875
155.24774	66.0875
159.57429	85.6875
163.89768	109.1875
168.21792	143.0875
172.53501	200.2875
176.84895	282.7875
181.15975	397.7875
185.46741	564.7875
189.77193	783.3875
194.07331	1051.9875
198.37157	1355.0875
202.6667	1674.2875
206.9587	2005.0875
211.24758	2306.1875
215.53334	2633.9875
219.81599	2989.6875
224.09553	3371.0875
228.37195	3798.8875
232.64527	4262.3875
236.91549	4722.3875
241.18261	5119.4875
245.44663	5453.3875
249.70755	5720.4875
253.96539	5927.7875
258.22014	6127.1875
262.4718	6320.8875
266.72039	6448.6875
270.96589	6520.2875
275.20832	6468.8875
279.44768	6391.0875
283.68397	6283.2875
287.91719	6198.1875
292.14735	6180.3875
296.37445	6302.3875
300.59849	6504.3875
304.81948	6764.0875
309.03742	6990.9875
313.25231	7103.1875
317.46415	6962.6875
321.67296	6684.9875
325.87872	6396.9875
330.08145	6247.0875
334.28114	6240.1875
338.47781	6349.0875
342.67145	6496.9875
346.86207	6690.4875
351.04966	6987.3875
355.23424	7280.3875
359.4158	7471.8875
363.59435	7590.5875
367.76989	7632.7875
371.94243	7623.6875
376.11196	7623.0875
380.27849	7624.7875
384.44203	7611.7875
388.60257	7606.7875
392.76012	7656.3875
396.91468	7757.8875
401.06626	7854.5875
405.21485	7941.2875
409.36047	7808.7875
413.50311	7533.3875
417.64277	7239.6875
421.77947	7081.2875
425.9132	7016.8875
430.04396	7029.2875
434.17176	7092.4875
438.2966	7233.2875
442.41849	7413.5875
446.53742	7659.8875
450.6534	7861.3875
454.76644	8011.9875
458.87653	8026.1875
462.98368	7973.3875
467.08789	7821.3875
471.18916	7620.2875
475.2875	7407.2875
479.38291	7226.3875
483.4754	7097.0875
487.56496	7031.5875
491.6516	6957.8875
495.73531	6954.3875
499.81612	6941.7875
503.89401	7016.0875
507.96899	7049.1875
512.04106	7115.4875
516.11023	7207.1875
520.1765	7285.5875
524.23987	7325.8875
528.30034	7268.9875
532.35792	7231.0875
536.41261	7150.9875
540.46441	7035.3875
544.51333	6993.3875
548.55936	7047.9875
552.60252	7159.1875
556.64279	7301.2875
560.6802	7364.7875
564.71473	7458.8875
568.7464	7546.7875
572.7752	7549.4875
576.80114	7381.9875
580.82422	7251.6875
584.84444	7240.3875
588.86181	7356.1875
592.87633	7522.8875
596.888	7731.1875
600.89682	8039.4875
604.9028	8989.9875
608.90594	11064.7875
612.90624	12971.5875
616.90371	11829.0875
620.89834	9020.6875
624.89015	7974.0875
628.87913	7915.7875
632.86528	7913.9875
636.84862	7778.7875
640.82913	7497.2875
644.80683	7180.9875
648.78172	6998.8875
652.75379	7038.5875
656.72306	7326.0875
660.68952	7588.7875
664.65319	7534.4875
668.61405	7362.7875
672.57211	7332.5875
676.52738	7288.9875
680.47986	7157.9875
684.42955	7044.7875
688.37646	7060.0875
692.32058	7125.4875
696.26192	7245.3875
700.20048	7381.4875
704.13626	7370.4875
708.06928	7276.1875
711.99952	7187.9875
715.927	7193.8875
719.85171	7252.6875
723.77365	7240.9875
727.69284	7195.9875
731.60928	7107.6875
735.52295	7128.8875
739.43388	7151.0875
743.34206	7213.0875
747.24749	7242.5875
751.15017	7260.6875
755.05012	7350.0875
758.94733	7677.4875
762.8418	8382.3875
766.73354	9491.1875
770.62254	10394.7875
774.50882	10621.4875
778.39237	10090.8875
782.27321	9125.2875
786.15132	8217.3875
790.02671	7671.4875
793.89938	7380.5875
797.76935	7295.8875
801.6366	7224.5875
805.50115	7192.4875
809.36299	7150.5875
813.22213	7126.9875
817.07857	7088.2875
820.93231	7099.0875
824.78336	7111.4875
828.63172	7111.6875
832.47738	7152.0875
836.32036	7149.8875
840.16066	7179.0875
843.99827	7202.8875
847.8332	7142.3875
851.66546	7123.3875
855.49504	7145.5875
859.32195	7124.7875
863.1462	7104.7875
866.96777	7063.7875
870.78668	7062.1875
874.60293	7074.2875
878.41652	7104.5875
882.22745	7165.4875
886.03573	7195.6875
889.84136	7172.5875
893.64433	7138.5875
897.44466	7115.9875
901.24235	7101.6875
905.0374	7103.5875
908.8298	7071.8875
912.61957	7053.9875
916.40671	7088.0875
920.19121	7144.6875
923.97308	7272.2875
927.75233	7398.8875
931.52895	7455.5875
935.30295	7358.0875
939.07433	7179.3875
942.84309	7063.9875
946.60924	7028.6875
950.37278	6993.3875
954.13371	6952.6875
957.89203	6894.0875
961.64774	6866.0875
965.40086	6842.9875
969.15137	6835.3875
972.89929	6837.9875
976.64461	6805.6875
980.38733	6838.2875
984.12747	6889.2875
987.86502	6919.5875
991.59999	7035.5875
995.33237	7196.1875
999.06217	7481.8875
1002.78939	7751.3875
1006.51404	7833.4875
1010.23611	7883.6875
1013.95561	7962.2875
1017.67255	8054.0875
1021.38692	8053.0875
1025.09872	8056.3875
1028.80796	8198.9875
1032.51465	8468.2875
1036.21877	8642.3875
1039.92035	8587.6875
1043.61937	8408.6875
1047.31584	8158.5875
1051.00976	7912.7875
1054.70114	7797.9875
1058.38998	7753.9875
1062.07627	7744.7875
1065.76003	7736.0875
1069.44126	7750.2875
1073.11995	7823.1875
1076.79611	7934.1875
1080.46974	8068.7875
1084.14085	8213.3875
1087.80943	8324.3875
1091.47549	8316.3875
1095.13903	8187.2875
1098.80005	8024.8875
1102.45857	7991.3875
1106.11456	7988.4875
1109.76805	8016.1875
1113.41903	8104.6875
1117.06751	8263.2875
1120.71348	8449.2875
1124.35696	8692.3875
1127.99793	8801.2875
1131.63641	8679.7875
1135.2724	8386.9875
1138.90589	8135.9875
1142.5369	7959.9875
1146.16542	7854.1875
1149.79145	7798.3875
1153.415	7772.1875
1157.03607	7790.7875
1160.65467	7895.9875
1164.27079	8117.4875
1167.88443	8456.4875
1171.49561	9018.4875
1175.10432	9823.8875
1178.71056	10894.0875
1182.31434	11815.5875
1185.91565	12179.0875
1189.51451	11967.6875
1193.11091	11432.3875
1196.70485	10740.6875
1200.29634	10243.2875
1203.88538	9779.9875
1207.47197	9300.6875
1211.05612	8942.0875
1214.63782	8693.0875
1218.21708	8652.4875
1221.79391	8699.1875
1225.36829	8763.2875
1228.94024	8780.8875
1232.50976	8633.4875
1236.07685	8498.5875
1239.6415	8503.6875
1243.20374	8530.4875
1246.76355	8589.7875
1250.32093	8729.6875
1253.8759	8933.5875
1257.42845	9232.5875
1260.97859	9547.9875
1264.52631	9822.8875
1268.07163	10049.1875
1271.61453	10224.2875
1275.15503	10393.5875
1278.69312	10616.0875
1282.22882	10792.6875
1285.76211	10982.2875
1289.29301	11129.0875
1292.82151	11334.3875
1296.34761	11626.2875
1299.87133	12179.6875
1303.39266	13082.1875
1306.9116	14394.9875
1310.42815	15752.5875
1313.94233	16332.2875
1317.45412	15782.2875
1320.96354	14658.6875
1324.47058	13574.8875
1327.97525	12687.0875
1331.47754	12199.9875
1334.97747	12061.4875
1338.47502	12236.8875
1341.97022	12592.9875
1345.46305	13158.4875
1348.95352	13890.5875
1352.44163	14793.2875
1355.92738	15998.4875
1359.41078	17610.1875
1362.89183	18623.2875
1366.37053	17537.0875
1369.84688	15046.2875
1373.32088	12737.8875
1376.79254	11425.5875
1380.26186	10835.0875
1383.72883	10483.4875
1387.19347	10168.5875
1390.65578	9801.6875
1394.11575	9492.6875
1397.57339	9345.3875
1401.0287	9335.8875
1404.48168	9393.3875
1407.93234	9507.7875
1411.38068	9705.7875
1414.82669	9835.8875
1418.27039	9810.5875
1421.71177	9697.6875
1425.15083	9547.1875
1428.58758	9555.0875
1432.02203	9716.8875
1435.45416	9871.0875
1438.88399	9880.6875
1442.31151	9841.5875
1445.73673	9816.3875
1449.15965	9760.8875
1452.58027	9664.1875
1455.9986	9505.4875
1459.41463	9460.8875
1462.82837	9550.4875
1466.23982	9744.4875
1469.64898	9927.3875
1473.05586	10105.6875
1476.46045	10276.8875
1479.86276	10417.5875
1483.26279	10564.5875
1486.66054	10721.9875
1490.05602	10993.4875
1493.44922	11401.9875
1496.84016	12067.2875
1500.22882	12981.2875
1503.61521	14183.2875
1506.99934	15398.8875
1510.38121	16194.1875
1513.76081	16007.2875
1517.13816	14809.6875
1520.51324	13308.1875
1523.88607	12055.4875
1527.25665	11312.8875
1530.62498	10887.8875
1533.99105	10667.7875
1537.35488	10545.6875
1540.71647	10435.1875
1544.07581	10325.7875
1547.4329	10181.2875
1550.78776	10035.8875
1554.14038	9950.2875
1557.49077	9963.6875
1560.83892	10043.9875
1564.18484	10214.1875
1567.52853	10430.2875
1570.86999	10572.8875
1574.20922	10574.5875
1577.54624	10402.3875
1580.88103	9995.3875
1584.2136	9570.9875
1587.54395	9432.6875
1590.87208	9771.3875
1594.19801	10507.9875
1597.52172	11299.3875
1600.84321	11758.2875
1604.16251	11498.7875
1607.47959	10874.5875
1610.79447	10111.6875
1614.10715	9356.6875
1617.41763	8702.0875
1620.7259	8347.1875
1624.03199	8195.5875
1627.33587	8223.6875
1630.63757	8479.8875
1633.93707	8957.5875
1637.23439	9697.3875
1640.52951	10665.9875
1643.82246	11859.1875
1647.11321	12829.0875
1650.40179	13029.3875
1653.68819	12062.0875
1656.97241	10496.9875
1660.25446	9053.8875
1663.53433	8094.5875
1666.81203	7538.1875
1670.08756	7194.7875
1673.36092	6975.7875
1676.63211	6831.5875
1679.90115	6762.4875
1683.16801	6663.2875
1686.43272	6595.2875
1689.69527	6565.8875
1692.95567	6515.7875
1696.2139	6514.0875
1699.46999	6497.2875
1702.72392	6484.5875
1705.97571	6485.9875
1709.22535	6469.6875
1712.47284	6485.2875
1715.71819	6489.6875
1718.96139	6475.4875
1722.20246	6449.0875
1725.44139	6411.1875
1728.67818	6397.6875
1731.91284	6336.3875
1735.14537	6303.6875
1738.37576	6289.7875
1741.60403	6263.7875
1744.83017	6247.1875
1748.05418	6236.8875
1751.27607	6223.5875
1754.49584	6182.8875
1757.71349	6180.6875
1760.92903	6183.6875
1764.14244	6189.4875
1767.35375	6178.1875
1770.56294	6141.5875
1773.77002	6162.2875
1776.97499	6122.3875
1780.17785	6106.7875
1783.37861	6108.5875
1786.57727	6077.5875
1789.77382	6065.4875
1792.96828	6079.3875
1796.16064	6063.3875
1799.3509	6037.7875
1802.53907	6043.7875
1805.72514	6049.7875
1808.90913	6013.0875
1812.09102	5995.5875
1815.27083	5990.8875
1818.44856	5978.2875
1821.6242	5962.1875
1824.79776	5949.9875
1827.96924	5922.6875
1831.13864	5913.5875
1834.30597	5907.9875
1837.47122	5881.8875
1840.6344	5891.8875
1843.7955	5886.4875
1846.95454	5877.3875
1850.11151	5874.4875
1853.26642	5874.9875
1856.41926	5878.3875
1859.57004	5882.1875
1862.71876	5879.3875
1865.86542	5871.0875
1869.01003	5865.5875
1872.15258	5881.4875
1875.29308	5845.6875
1878.43152	5850.7875
1881.56792	5852.1875
1884.70227	5831.7875
1887.83457	5847.2875
1890.96482	5838.0875
1894.09304	5812.2875
1897.21921	5805.7875
1900.34335	5797.2875
1903.46544	5792.0875
1906.58551	5773.2875
1909.70353	5760.5875
1912.81953	5758.6875
1915.93349	5764.8875
1919.04543	5750.4875
1922.15534	5770.1875
1925.26322	5742.0875
1928.36908	5731.1875
1931.47292	5730.6875
1934.57473	5718.7875
1937.67453	5700.7875
1940.77232	5672.9875
1943.86808	5673.8875
1946.96184	5656.2875
1950.05358	5646.5875
1953.14331	5633.1875
1956.23103	5610.4875
1959.31675	5580.2875
1962.40046	5578.5875
1965.48217	5547.6875
1968.56188	5541.3875
1971.63959	5536.5875
1974.7153	5521.2875
1977.78901	5501.2875
1980.86073	5486.2875
1983.93046	5461.6875
1986.99819	5447.0875
1990.06394	5426.4875
1993.1277	5409.7875
1996.18947	5389.7875
1999.24925	5361.3875
2002.30706	5350.2875
2005.36288	5330.1875
2008.41672	5319.1875
2011.46859	5301.7875
2014.51848	5288.6875
2017.56639	5299.7875
2020.61233	5263.9875
2023.6563	5242.3875
2026.6983	5234.1875
2029.73833	5205.7875
2032.7764	5209.1875
2035.8125	5188.1875
2038.84664	5193.1875
2041.87881	5175.3875
2044.90903	5177.6875
2047.93729	5152.0875
2050.96359	5172.6875
2053.98794	5145.1875
2057.01034	5144.4875
2060.03078	5156.4875
2063.04927	5140.2875
2066.06582	5152.1875
2069.08042	5126.9875
2072.09307	5113.1875
2075.10378	5095.7875
2078.11255	5098.9875
2081.11938	5108.2875
2084.12426	5087.1875
2087.12722	5102.3875
2090.12824	5083.8875
2093.12732	5087.2875
2096.12447	5093.2875
2099.11969	5106.5875
2102.11299	5086.2875
2105.10435	5098.7875
2108.09379	5093.5875
2111.08131	5099.0875
2114.0669	5087.8875
2117.05057	5104.7875
2120.03233	5094.2875
2123.01216	5099.7875
2125.99008	5112.7875
2128.96609	5102.4875
2131.94018	5104.0875
2134.91236	5107.7875
2137.88263	5093.7875
2140.851	5110.6875
2143.81746	5116.2875
2146.78201	5099.7875
2149.74466	5095.7875
2152.7054	5109.2875
2155.66425	5096.5875
2158.6212	5111.3875
2161.57625	5095.4875
2164.52941	5090.9875
2167.48067	5109.6875
2170.43004	5074.2875
2173.37752	5096.8875
2176.32311	5080.7875
2179.26681	5086.5875
2182.20863	5090.9875
2185.14856	5087.1875
2188.08661	5065.2875
2191.02278	5077.9875
2193.95707	5075.1875
2196.88948	5070.2875
2199.82001	5079.7875
2202.74867	5072.7875
2205.67545	5072.9875
2208.60037	5068.5875
2211.52341	5069.1875
2214.44458	5059.7875
2217.36388	5068.6875
2220.28132	5056.6875
2223.1969	5040.8875
2226.11061	5023.3875
2229.02246	5013.0875
2231.93245	5004.1875
2234.84058	4998.9875
2237.74686	4979.9875
2240.65128	4986.5875
2243.55385	4953.9875
2246.45456	4953.6875
2249.35343	4944.5875
2252.25044	4960.1875
2255.14561	4952.4875
2258.03893	4943.6875
2260.93041	4927.8875
2263.82004	4937.0875
2266.70783	4929.2875
2269.59378	4897.3875
2272.4779	4884.3875
2275.36017	4862.4875
2278.24061	4852.9875
2281.11922	4836.8875
2283.996	4836.7875
2286.87094	4823.4875
2289.74405	4807.6875
2292.61534	4828.8875
2295.4848	4817.3875
2298.35243	4826.4875
2301.21824	4814.9875
2304.08223	4818.4875
2306.94439	4831.3875
2309.80474	4814.7875
2312.66327	4821.7875
2315.51999	4829.2875
2318.37489	4851.0875
2321.22797	4816.2875
2324.07925	4823.0875
2326.92871	4785.2875
2329.77637	4795.2875
2332.62222	4801.7875
2335.46626	4796.8875
2338.3085	4795.8875
2341.14893	4795.4875
2343.98756	4808.0875
2346.8244	4809.7875
2349.65943	4803.8875
2352.49267	4798.7875
2355.32411	4800.1875
2358.15376	4800.7875
2360.98161	4789.8875
2363.80768	4789.0875
2366.63195	4784.4875
2369.45444	4750.7875
2372.27514	4754.6875
2375.09405	4755.6875
2377.91118	4740.2875
2380.72652	4732.6875
2383.54009	4719.2875
2386.35187	4706.2875
2389.16188	4690.5875
2391.97011	4682.1875
2394.77657	4674.0875
2397.58125	4650.2875
2400.38416	4650.7875
2403.18529	4639.4875
2405.98466	4636.0875
2408.78226	4634.7875
2411.57809	4611.9875
2414.37216	4594.9875
2417.16446	4579.7875
2419.955	4596.5875
2422.74378	4589.1875
2425.5308	4577.6875
2428.31606	4569.8875
2431.09956	4577.7875
2433.88131	4550.1875
2436.6613	4556.0875
2439.43954	4566.4875
2442.21603	4573.7875
2444.99077	4565.9875
2447.76377	4564.7875
2450.53501	4556.8875
2453.30451	4532.4875
2456.07226	4564.0875
2458.83827	4539.1875
2461.60254	4534.6875
2464.36507	4527.5875
2467.12586	4524.4875
2469.88492	4526.4875
2472.64224	4514.3875
2475.39782	4513.6875
2478.15167	4528.1875
2480.90379	4530.2875
2483.65417	4529.9875
2486.40283	4532.9875
2489.14976	4538.1875
2491.89497	4543.9875
2494.63845	4545.6875
2497.3802	4536.5875
2500.12024	4524.5875
2502.85855	4529.9875
2505.59514	4522.7875
2508.33002	4524.8875
2511.06318	4504.8875
2513.79462	4498.8875
2516.52435	4467.8875
2519.25237	4471.6875
2521.97867	4460.7875
2524.70327	4470.9875
2527.42616	4454.8875
2530.14734	4465.0875
2532.86681	4452.3875
2535.58458	4475.4875
2538.30065	4460.3875
2541.01501	4456.7875
2543.72768	4450.7875
2546.43864	4457.5875
2549.14791	4446.4875
2551.85548	4433.2875
2554.56136	4434.8875
2557.26554	4426.0875
2559.96803	4407.7875
2562.66883	4393.5875
2565.36794	4409.7875
2568.06536	4387.7875
2570.7611	4386.3875
2573.45514	4395.9875
2576.14751	4379.8875
2578.83819	4357.2875
2581.52719	4359.8875
2584.21451	4351.8875
2586.90015	4369.7875
2589.58411	4371.1875
2592.2664	4365.8875
2594.94701	4361.6875
2597.62594	4350.9875
2600.30321	4348.6875
2602.9788	4341.8875
2605.65273	4340.8875
2608.32498	4348.5875
2610.99557	4350.6875
2613.66449	4325.5875
2616.33175	4340.2875
2618.99734	4329.3875
2621.66128	4341.1875
2624.32355	4338.4875
2626.98416	4342.1875
2629.64311	4338.6875
2632.30041	4322.0875
2634.95605	4334.4875
2637.61004	4304.1875
2640.26238	4296.0875
2642.91306	4301.2875
2645.56209	4298.2875
2648.20948	4287.7875
2650.85521	4283.4875
2653.4993	4283.2875
2656.14175	4268.7875
2658.78255	4271.6875
2661.42171	4281.1875
2664.05923	4278.4875
2666.6951	4276.0875
2669.32934	4286.8875
2671.96194	4272.3875
2674.59291	4290.4875
2677.22224	4280.3875
2679.84993	4277.4875
2682.476	4261.0875
2685.10043	4259.7875
2687.72324	4271.2875
2690.34441	4264.2875
2692.96396	4242.4875
2695.58188	4248.8875
2698.19818	4239.7875
2700.81285	4234.0875
2703.4259	4254.6875
2706.03733	4250.8875
2708.64714	4244.3875
2711.25533	4226.0875
2713.86191	4229.5875
2716.46687	4244.0875
2719.07021	4232.7875
2721.67194	4237.9875
2724.27206	4232.0875
2726.87057	4220.0875
2729.46747	4222.4875
2732.06276	4229.3875
2734.65644	4216.7875
2737.24852	4225.1875
2739.83899	4216.5875
2742.42786	4208.8875
2745.01513	4203.0875
2747.60079	4190.7875
2750.18486	4195.8875
2752.76733	4184.2875
2755.3482	4187.4875
2757.92747	4174.0875
2760.50515	4182.4875
2763.08123	4170.3875
2765.65573	4160.3875
2768.22863	4153.6875
2770.79994	4150.4875
2773.36967	4150.8875
2775.9378	4156.5875
2778.50435	4170.6875
2781.06932	4157.4875
2783.6327	4161.8875
2786.1945	4151.2875
2788.75471	4142.4875
2791.31335	4132.5875
2793.87041	4125.2875
2796.42589	4129.2875
2798.97979	4120.6875
2801.53212	4112.7875
2804.08288	4103.4875
2806.63206	4103.7875
2809.17967	4074.0875
2811.72571	4080.9875
2814.27018	4070.9875
2816.81308	4061.7875
2819.35442	4071.1875
2821.89419	4043.8875
2824.43239	4054.9875
2826.96904	4042.7875
2829.50412	4037.7875
2832.03763	4023.7875
2834.56959	4034.9875
2837.1	4019.4875
2839.62884	4035.1875
2842.15613	4017.0875
2844.68186	4009.2875
2847.20604	3994.8875
2849.72867	3998.8875
2852.24974	3998.0875
2854.76927	3985.8875
2857.28724	3977.0875
2859.80367	3963.9875
2862.31855	3974.8875
2864.83189	3970.8875
2867.34368	3965.9875
2869.85393	3954.2875
2872.36264	3945.3875
2874.8698	3965.5875
2877.37543	3954.4875
2879.87952	3955.3875
2882.38207	3949.8875
2884.88308	3930.2875
2887.38256	3946.0875
2889.88051	3934.9875
2892.37692	3927.6875
2894.8718	3928.1875
2897.36515	3921.6875
2899.85698	3926.1875
2902.34727	3930.2875
2904.83604	3939.8875
2907.32328	3948.5875
2909.809	3951.4875
2912.29319	3965.5875
2914.77587	3952.5875
2917.25702	3975.4875
2919.73665	3952.1875
2922.21476	3939.6875
2924.69136	3939.6875
2927.16644	3935.5875
2929.64	3925.9875
2932.11205	3929.4875
2934.58258	3891.0875
2937.05161	3904.8875
2939.51912	3916.6875
2941.98513	3885.6875
2944.44962	3901.4875
2946.91261	3881.1875
2949.37409	3885.5875
2951.83407	3883.0875
2954.29254	3894.3875
2956.74951	3876.1875
2959.20498	3898.7875
2961.65895	3871.2875
2964.11142	3866.7875
2966.56239	3856.4875
2969.01186	3852.6875
2971.45984	3852.9875
2973.90632	3843.6875
2976.35131	3837.0875
2978.7948	3826.0875
2981.23681	3816.4875
2983.67732	3811.3875
2986.11635	3800.7875
2988.55388	3791.9875
2990.98993	3778.6875
2993.4245	3784.2875
2995.85758	3760.3875
2998.28917	3762.0875
3000.71928	3768.4875
3003.14791	3746.2875
3005.57506	3740.2875
3008.00073	3725.5875
3010.42493	3720.8875
3012.84764	3715.0875
3015.26888	3720.0875
3017.68865	3688.5875
3020.10694	3682.5875
3022.52376	3673.0875
3024.9391	3650.4875
3027.35298	3663.9875
3029.76539	3643.1875
3032.17632	3651.3875
3034.5858	3638.0875
3036.9938	3624.9875
3039.40034	3610.0875
3041.80542	3610.3875
3044.20903	3609.3875
3046.61118	3622.1875
3049.01187	3577.1875
3051.4111	3593.0875
3053.80888	3571.4875
3056.20519	3570.6875
3058.60005	3564.3875
3060.99345	3547.1875
3063.3854	3559.9875
3065.7759	3542.2875
3068.16494	3521.8875
3070.55254	3526.3875
3072.93868	3494.1875
3075.32338	3495.9875
3077.70662	3492.2875
3080.08842	3480.4875
3082.46878	3479.3875
3084.84769	3456.4875
3087.22515	3454.1875
3089.60118	3456.5875
3091.97576	3451.2875
3094.3489	3455.3875
3096.72061	3452.9875
3099.09087	3451.3875
3101.4597	3453.2875
3103.82709	3445.2875
3106.19305	3428.2875
3108.55757	3415.1875
3110.92066	3411.9875
3113.28232	3422.0875
3115.64255	3413.0875
3118.00134	3406.2875
3120.35871	3388.3875
3122.71466	3387.4875
3125.06917	3375.4875
3127.42226	3381.8875
3129.77393	3377.7875
3132.12417	3358.6875
3134.47299	3377.9875
3136.82039	3365.3875
3139.16636	3357.6875
3141.51092	3361.8875
3143.85406	3347.7875
3146.19579	3338.4875
3148.53609	3340.4875
3150.87499	3355.8875
3153.21246	3339.9875
3155.54853	3352.6875
3157.88318	3341.3875
3160.21642	3354.6875
3162.54826	3344.6875
3164.87868	3337.0875
3167.2077	3330.8875
3169.5353	3317.3875
3171.86151	3331.6875
3174.18631	3316.2875
3176.5097	3321.3875
3178.83169	3312.6875
3181.15228	3312.4875
3183.47147	3299.6875
3185.78926	3302.8875
3188.10565	3277.6875
3190.42065	3284.3875
3192.73424	3275.4875
3195.04645	3275.6875
3197.35725	3275.4875
3199.66667	3266.3875
3201.97469	3265.2875
3204.28132	3270.8875
3206.58656	3277.5875
3208.8904	3271.5875
3211.19287	3268.2875
3213.49394	3259.1875
3215.79363	3266.0875
3218.09193	3271.9875
3220.38884	3260.0875
3222.68438	3270.4875
3224.97853	3256.2875
3227.2713	3268.5875
3229.56269	3257.0875
3231.8527	3250.5875
3234.14133	3237.0875
3236.42858	3232.9875
3238.71446	3221.5875
3240.99896	3221.9875
3243.28209	3202.3875
3245.56384	3224.8875
3247.84423	3202.8875
3250.12324	3211.0875
3252.40088	3194.9875
3254.67715	3193.1875
3256.95205	3190.8875
3259.22558	3174.0875
3261.49775	3188.1875
3263.76855	3181.6875
3266.03799	3184.5875
3268.30606	3172.7875
3270.57277	3178.6875
3272.83812	3166.3875
3275.10211	3146.4875
3277.36474	3147.4875
3279.62601	3155.2875
3281.88593	3141.0875
3284.14448	3131.5875
3286.40168	3136.9875
3288.65753	3142.8875
3290.91202	3144.9875
3293.16516	3131.7875
3295.41695	3130.1875
3297.66738	3114.2875
3299.91647	3100.7875
3302.16421	3066.8875
3304.4106	3068.7875
3306.65564	3037.9875
3308.89933	3013.6875
3311.14169	2992.7875
3313.38269	2969.7875
3315.62236	2947.3875
3317.86068	2939.7875
3320.09766	2910.7875
3322.3333	2887.9875
3324.5676	2868.1875
3326.80056	2826.0875
3329.03219	2796.3875
3331.26248	1.2875
3333.49143	-0.6125
3335.71905	-0.2125
