Data from AgNPs_UA_5uM_CRN_500uM_SU_RamanShift__147__11-53-53-168.txt Node

Date: Thu Aug 04 11:53:53 BST 2022
User: TCL
Spectrometer: QEP01345
Trigger mode: 4
Integration Time (sec): 1.000000E0
Scans to average: 10
Electric dark correction enabled: true
Nonlinearity correction enabled: false
Boxcar width: 0
XAxis mode: Raman Shifts
Number of Pixels in Spectrum: 1044
>>>>>Begin Spectral Data<<<<<
46.04893	-0.4875
50.45542	-0.7875
54.85868	-0.1875
59.25871	0.0125
63.6555	-57.0875
68.04907	-39.2875
72.43941	-71.8875
76.82654	-55.4875
81.21044	-54.9875
85.59113	-48.6875
89.96862	-74.5875
94.34289	-54.2875
98.71396	-76.9875
103.08183	-58.2875
107.4465	-49.3875
111.80798	-54.4875
116.16626	-43.7875
120.52136	-71.3875
124.87327	-48.1875
129.222	-62.9875
133.56755	-49.9875
137.90993	-63.3875
142.24913	-50.6875
146.58517	-40.8875
150.91804	-38.7875
155.24774	-28.1875
159.57429	-10.4875
163.89768	-3.8875
168.21792	41.7125
172.53501	60.3125
176.84895	148.7125
181.15975	277.9125
185.46741	430.7125
189.77193	616.3125
194.07331	916.5125
198.37157	1201.0125
202.6667	1492.2125
206.9587	1818.3125
211.24758	2135.6125
215.53334	2477.9125
219.81599	2827.6125
224.09553	3249.7125
228.37195	3688.7125
232.64527	4166.4125
236.91549	4631.2125
241.18261	5011.4125
245.44663	5306.8125
249.70755	5505.0125
253.96539	5653.3125
258.22014	5757.8125
262.4718	5813.4125
266.72039	5846.5125
270.96589	5808.5125
275.20832	5708.7125
279.44768	5597.1125
283.68397	5488.7125
287.91719	5417.7125
292.14735	5439.6125
296.37445	5594.5125
300.59849	5863.3125
304.81948	6193.7125
309.03742	6538.0125
313.25231	6761.8125
317.46415	6694.2125
321.67296	6337.0125
325.87872	5948.7125
330.08145	5772.5125
334.28114	5721.1125
338.47781	5796.1125
342.67145	5921.4125
346.86207	6165.1125
351.04966	6542.4125
355.23424	6932.5125
359.4158	7186.5125
363.59435	7224.9125
367.76989	7155.9125
371.94243	7051.7125
376.11196	6936.7125
380.27849	6868.2125
384.44203	6794.0125
388.60257	6758.3125
392.76012	6779.6125
396.91468	6885.4125
401.06626	7050.8125
405.21485	7087.2125
409.36047	6939.1125
413.50311	6626.2125
417.64277	6366.4125
421.77947	6164.6125
425.9132	6092.8125
430.04396	6088.5125
434.17176	6128.1125
438.2966	6229.2125
442.41849	6325.9125
446.53742	6431.5125
450.6534	6543.1125
454.76644	6628.2125
458.87653	6634.9125
462.98368	6607.0125
467.08789	6539.6125
471.18916	6449.9125
475.2875	6382.6125
479.38291	6278.4125
483.4754	6175.9125
487.56496	6126.7125
491.6516	6081.7125
495.73531	6084.6125
499.81612	6124.6125
503.89401	6204.2125
507.96899	6238.7125
512.04106	6334.7125
516.11023	6441.8125
520.1765	6527.9125
524.23987	6546.9125
528.30034	6550.6125
532.35792	6456.5125
536.41261	6420.0125
540.46441	6337.1125
544.51333	6301.9125
548.55936	6338.1125
552.60252	6442.3125
556.64279	6563.1125
560.6802	6669.7125
564.71473	6824.7125
568.7464	7007.6125
572.7752	6971.8125
576.80114	6654.5125
580.82422	6424.2125
584.84444	6332.1125
588.86181	6301.4125
592.87633	6330.9125
596.888	6488.1125
600.89682	6820.6125
604.9028	7750.6125
608.90594	9736.6125
612.90624	11990.0125
616.90371	11178.6125
620.89834	8239.3125
624.89015	6995.0125
628.87913	6797.7125
632.86528	6947.5125
636.84862	7106.3125
640.82913	6986.2125
644.80683	6648.2125
648.78172	6461.1125
652.75379	6515.8125
656.72306	6733.0125
660.68952	6956.1125
664.65319	6904.1125
668.61405	6669.6125
672.57211	6611.5125
676.52738	6619.9125
680.47986	6513.6125
684.42955	6440.6125
688.37646	6393.1125
692.32058	6374.3125
696.26192	6458.4125
700.20048	6560.6125
704.13626	6583.7125
708.06928	6561.6125
711.99952	6535.9125
715.927	6492.5125
719.85171	6532.1125
723.77365	6588.1125
727.69284	6565.5125
731.60928	6558.1125
735.52295	6535.7125
739.43388	6560.3125
743.34206	6571.5125
747.24749	6600.3125
751.15017	6627.5125
755.05012	6670.2125
758.94733	7044.9125
762.8418	7837.3125
766.73354	9068.0125
770.62254	9989.9125
774.50882	10084.5125
778.39237	9621.5125
782.27321	8749.9125
786.15132	7766.1125
790.02671	7140.9125
793.89938	6766.9125
797.76935	6650.6125
801.6366	6588.7125
805.50115	6550.9125
809.36299	6531.5125
813.22213	6532.6125
817.07857	6529.9125
820.93231	6531.5125
824.78336	6539.3125
828.63172	6574.8125
832.47738	6567.6125
836.32036	6594.6125
840.16066	6556.8125
843.99827	6529.1125
847.8332	6546.2125
851.66546	6546.3125
855.49504	6538.4125
859.32195	6581.8125
863.1462	6581.4125
866.96777	6574.2125
870.78668	6562.6125
874.60293	6608.9125
878.41652	6625.4125
882.22745	6696.0125
886.03573	6728.4125
889.84136	6739.5125
893.64433	6709.8125
897.44466	6693.0125
901.24235	6704.5125
905.0374	6700.3125
908.8298	6627.5125
912.61957	6608.1125
916.40671	6560.7125
920.19121	6617.8125
923.97308	6706.5125
927.75233	6756.8125
931.52895	6841.9125
935.30295	6784.3125
939.07433	6658.0125
942.84309	6547.6125
946.60924	6529.9125
950.37278	6475.0125
954.13371	6463.6125
957.89203	6483.7125
961.64774	6491.6125
965.40086	6477.1125
969.15137	6456.7125
972.89929	6491.8125
976.64461	6486.5125
980.38733	6489.4125
984.12747	6494.9125
987.86502	6518.9125
991.59999	6540.7125
995.33237	6626.4125
999.06217	6684.1125
1002.78939	6787.7125
1006.51404	6925.9125
1010.23611	7019.6125
1013.95561	7077.9125
1017.67255	7087.8125
1021.38692	7067.8125
1025.09872	7012.9125
1028.80796	6917.1125
1032.51465	6922.2125
1036.21877	6896.0125
1039.92035	6948.1125
1043.61937	6990.0125
1047.31584	7027.9125
1051.00976	7063.7125
1054.70114	7045.7125
1058.38998	7052.4125
1062.07627	7055.2125
1065.76003	7088.3125
1069.44126	7175.0125
1073.11995	7276.1125
1076.79611	7387.6125
1080.46974	7517.5125
1084.14085	7706.1125
1087.80943	7806.5125
1091.47549	7844.6125
1095.13903	7774.4125
1098.80005	7679.6125
1102.45857	7579.6125
1106.11456	7531.8125
1109.76805	7483.6125
1113.41903	7573.2125
1117.06751	7719.9125
1120.71348	7958.3125
1124.35696	8323.6125
1127.99793	8578.8125
1131.63641	8441.4125
1135.2724	8062.9125
1138.90589	7776.4125
1142.5369	7606.1125
1146.16542	7518.9125
1149.79145	7424.7125
1153.415	7357.2125
1157.03607	7330.8125
1160.65467	7436.4125
1164.27079	7598.3125
1167.88443	7824.6125
1171.49561	8211.8125
1175.10432	8760.7125
1178.71056	9602.0125
1182.31434	10351.7125
1185.91565	10604.0125
1189.51451	10468.5125
1193.11091	10232.9125
1196.70485	10035.0125
1200.29634	9813.5125
1203.88538	9583.5125
1207.47197	9181.0125
1211.05612	8775.3125
1214.63782	8403.9125
1218.21708	8180.0125
1221.79391	8028.6125
1225.36829	7913.1125
1228.94024	7918.3125
1232.50976	7915.7125
1236.07685	7921.3125
1239.6415	7970.7125
1243.20374	7998.3125
1246.76355	8050.1125
1250.32093	8116.2125
1253.8759	8211.4125
1257.42845	8379.4125
1260.97859	8578.8125
1264.52631	8799.1125
1268.07163	8933.1125
1271.61453	9049.2125
1275.15503	9086.5125
1278.69312	9086.0125
1282.22882	9142.5125
1285.76211	9343.9125
1289.29301	9582.1125
1292.82151	9850.7125
1296.34761	10051.3125
1299.87133	10417.7125
1303.39266	11100.3125
1306.9116	12156.5125
1310.42815	13282.7125
1313.94233	13687.8125
1317.45412	12981.7125
1320.96354	11892.9125
1324.47058	10954.0125
1327.97525	10245.8125
1331.47754	9881.5125
1334.97747	9808.1125
1338.47502	9929.6125
1341.97022	10270.7125
1345.46305	10969.5125
1348.95352	11928.8125
1352.44163	13139.2125
1355.92738	14340.8125
1359.41078	15798.7125
1362.89183	17204.1125
1366.37053	16557.8125
1369.84688	13896.2125
1373.32088	11473.4125
1376.79254	10181.3125
1380.26186	9618.3125
1383.72883	9206.1125
1387.19347	8831.6125
1390.65578	8500.2125
1394.11575	8279.5125
1397.57339	8152.8125
1401.0287	8050.0125
1404.48168	8034.0125
1407.93234	8048.7125
1411.38068	8059.2125
1414.82669	8139.1125
1418.27039	8215.0125
1421.71177	8196.2125
1425.15083	8102.1125
1428.58758	8038.2125
1432.02203	8080.1125
1435.45416	8153.2125
1438.88399	8156.7125
1442.31151	8155.3125
1445.73673	8233.3125
1449.15965	8284.2125
1452.58027	8304.4125
1455.9986	8282.0125
1459.41463	8299.9125
1462.82837	8379.1125
1466.23982	8568.3125
1469.64898	8758.0125
1473.05586	8901.5125
1476.46045	8983.2125
1479.86276	9047.0125
1483.26279	9122.7125
1486.66054	9287.4125
1490.05602	9532.7125
1493.44922	10035.5125
1496.84016	10831.3125
1500.22882	12105.1125
1503.61521	13681.9125
1506.99934	15283.4125
1510.38121	16384.0125
1513.76081	16288.1125
1517.13816	14859.0125
1520.51324	12892.2125
1523.88607	11329.5125
1527.25665	10388.5125
1530.62498	9925.8125
1533.99105	9708.3125
1537.35488	9594.9125
1540.71647	9524.9125
1544.07581	9445.0125
1547.4329	9332.6125
1550.78776	9240.7125
1554.14038	9139.7125
1557.49077	9094.0125
1560.83892	9187.6125
1564.18484	9375.8125
1567.52853	9661.1125
1570.86999	9955.5125
1574.20922	10094.2125
1577.54624	9988.0125
1580.88103	9544.6125
1584.2136	8927.6125
1587.54395	8596.4125
1590.87208	8528.8125
1594.19801	8706.8125
1597.52172	9050.2125
1600.84321	9191.6125
1604.16251	9102.6125
1607.47959	8928.4125
1610.79447	8726.5125
1614.10715	8439.8125
1617.41763	8139.6125
1620.7259	7858.3125
1624.03199	7695.4125
1627.33587	7639.8125
1630.63757	7699.7125
1633.93707	7905.1125
1637.23439	8311.6125
1640.52951	8986.5125
1643.82246	9906.6125
1647.11321	10969.8125
1650.40179	11613.1125
1653.68819	11288.6125
1656.97241	10107.7125
1660.25446	8773.7125
1663.53433	7860.9125
1666.81203	7276.7125
1670.08756	6976.5125
1673.36092	6823.6125
1676.63211	6667.4125
1679.90115	6587.3125
1683.16801	6510.4125
1686.43272	6408.2125
1689.69527	6366.9125
1692.95567	6309.3125
1696.2139	6291.6125
1699.46999	6227.1125
1702.72392	6228.0125
1705.97571	6224.2125
1709.22535	6217.3125
1712.47284	6247.6125
1715.71819	6258.6125
1718.96139	6238.6125
1722.20246	6228.7125
1725.44139	6196.5125
1728.67818	6191.8125
1731.91284	6138.5125
1735.14537	6109.9125
1738.37576	6077.8125
1741.60403	6059.9125
1744.83017	6036.9125
1748.05418	6040.0125
1751.27607	6046.3125
1754.49584	6008.7125
1757.71349	5974.7125
1760.92903	5997.2125
1764.14244	5931.9125
1767.35375	5942.6125
1770.56294	5931.2125
1773.77002	5893.5125
1776.97499	5921.3125
1780.17785	5892.3125
1783.37861	5852.6125
1786.57727	5889.0125
1789.77382	5835.6125
1792.96828	5866.6125
1796.16064	5845.6125
1799.3509	5851.6125
1802.53907	5860.3125
1805.72514	5823.4125
1808.90913	5796.2125
1812.09102	5784.6125
1815.27083	5776.4125
1818.44856	5775.0125
1821.6242	5774.3125
1824.79776	5730.9125
1827.96924	5719.8125
1831.13864	5706.3125
1834.30597	5692.8125
1837.47122	5687.0125
1840.6344	5680.6125
1843.7955	5675.9125
1846.95454	5667.7125
1850.11151	5702.8125
1853.26642	5642.5125
1856.41926	5647.5125
1859.57004	5655.6125
1862.71876	5628.7125
1865.86542	5657.3125
1869.01003	5638.6125
1872.15258	5601.0125
1875.29308	5623.8125
1878.43152	5615.3125
1881.56792	5603.1125
1884.70227	5591.4125
1887.83457	5594.6125
1890.96482	5557.4125
1894.09304	5563.1125
1897.21921	5560.2125
1900.34335	5554.9125
1903.46544	5516.1125
1906.58551	5546.0125
1909.70353	5557.2125
1912.81953	5535.3125
1915.93349	5521.8125
1919.04543	5510.9125
1922.15534	5510.2125
1925.26322	5494.6125
1928.36908	5480.0125
1931.47292	5467.7125
1934.57473	5479.5125
1937.67453	5441.0125
1940.77232	5425.1125
1943.86808	5417.9125
1946.96184	5400.3125
1950.05358	5379.8125
1953.14331	5354.7125
1956.23103	5364.4125
1959.31675	5322.0125
1962.40046	5280.0125
1965.48217	5305.3125
1968.56188	5283.6125
1971.63959	5277.3125
1974.7153	5265.5125
1977.78901	5254.7125
1980.86073	5233.8125
1983.93046	5187.7125
1986.99819	5109.1125
1990.06394	5144.8125
1993.1277	5163.8125
1996.18947	5135.2125
1999.24925	5101.5125
2002.30706	5109.5125
2005.36288	5083.4125
2008.41672	5068.2125
2011.46859	5038.5125
2014.51848	5042.6125
2017.56639	5025.2125
2020.61233	4980.3125
2023.6563	4997.9125
2026.6983	4950.4125
2029.73833	4960.7125
2032.7764	4958.3125
2035.8125	4906.8125
2038.84664	4927.7125
2041.87881	4895.7125
2044.90903	4900.0125
2047.93729	4895.6125
2050.96359	4873.6125
2053.98794	4877.4125
2057.01034	4861.6125
2060.03078	4846.5125
2063.04927	4843.8125
2066.06582	4849.8125
2069.08042	4828.8125
2072.09307	4852.6125
2075.10378	4839.0125
2078.11255	4809.7125
2081.11938	4815.7125
2084.12426	4810.8125
2087.12722	4809.8125
2090.12824	4820.6125
2093.12732	4803.9125
2096.12447	4820.8125
2099.11969	4822.0125
2102.11299	4792.5125
2105.10435	4821.3125
2108.09379	4817.6125
2111.08131	4797.2125
2114.0669	4820.5125
2117.05057	4803.2125
2120.03233	4782.5125
2123.01216	4818.4125
2125.99008	4807.0125
2128.96609	4820.8125
2131.94018	4845.1125
2134.91236	4814.2125
2137.88263	4810.8125
2140.851	4816.6125
2143.81746	4846.2125
2146.78201	4845.8125
2149.74466	4808.6125
2152.7054	4825.5125
2155.66425	4827.4125
2158.6212	4814.1125
2161.57625	4798.8125
2164.52941	4777.8125
2167.48067	4793.2125
2170.43004	4786.7125
2173.37752	4801.7125
2176.32311	4777.6125
2179.26681	4775.0125
2182.20863	4779.6125
2185.14856	4792.2125
2188.08661	4786.0125
2191.02278	4781.4125
2193.95707	4768.5125
2196.88948	4773.8125
2199.82001	4770.2125
2202.74867	4742.3125
2205.67545	4740.5125
2208.60037	4751.4125
2211.52341	4745.3125
2214.44458	4725.1125
2217.36388	4719.5125
2220.28132	4682.9125
2223.1969	4658.3125
2226.11061	4665.6125
2229.02246	4664.5125
2231.93245	4672.5125
2234.84058	4647.1125
2237.74686	4644.8125
2240.65128	4621.6125
2243.55385	4635.6125
2246.45456	4613.4125
2249.35343	4623.2125
2252.25044	4599.3125
2255.14561	4593.9125
2258.03893	4583.3125
2260.93041	4586.2125
2263.82004	4578.8125
2266.70783	4580.5125
2269.59378	4556.6125
2272.4779	4535.1125
2275.36017	4531.3125
2278.24061	4504.5125
2281.11922	4496.3125
2283.996	4503.1125
2286.87094	4477.4125
2289.74405	4478.8125
2292.61534	4472.8125
2295.4848	4462.1125
2298.35243	4462.1125
2301.21824	4453.2125
2304.08223	4451.5125
2306.94439	4464.5125
2309.80474	4459.6125
2312.66327	4441.4125
2315.51999	4424.3125
2318.37489	4404.4125
2321.22797	4393.5125
2324.07925	4406.8125
2326.92871	4391.3125
2329.77637	4369.5125
2332.62222	4375.1125
2335.46626	4343.9125
2338.3085	4347.8125
2341.14893	4363.5125
2343.98756	4377.5125
2346.8244	4325.6125
2349.65943	4323.2125
2352.49267	4341.8125
2355.32411	4339.6125
2358.15376	4332.5125
2360.98161	4334.8125
2363.80768	4305.7125
2366.63195	4318.4125
2369.45444	4321.9125
2372.27514	4325.2125
2375.09405	4328.2125
2377.91118	4290.2125
2380.72652	4271.6125
2383.54009	4291.0125
2386.35187	4280.1125
2389.16188	4263.8125
2391.97011	4247.5125
2394.77657	4241.9125
2397.58125	4238.5125
2400.38416	4225.7125
2403.18529	4211.7125
2405.98466	4190.7125
2408.78226	4181.1125
2411.57809	4172.0125
2414.37216	4167.5125
2417.16446	4169.5125
2419.955	4138.0125
2422.74378	4168.3125
2425.5308	4133.0125
2428.31606	4148.9125
2431.09956	4140.8125
2433.88131	4130.3125
2436.6613	4147.5125
2439.43954	4125.5125
2442.21603	4121.3125
2444.99077	4109.3125
2447.76377	4130.1125
2450.53501	4118.6125
2453.30451	4090.0125
2456.07226	4112.0125
2458.83827	4095.3125
2461.60254	4045.9125
2464.36507	4087.1125
2467.12586	4061.3125
2469.88492	4063.2125
2472.64224	4062.8125
2475.39782	4042.8125
2478.15167	4054.1125
2480.90379	4051.5125
2483.65417	4058.5125
2486.40283	4052.3125
2489.14976	4084.0125
2491.89497	4045.5125
2494.63845	4056.9125
2497.3802	4049.6125
2500.12024	4048.9125
2502.85855	4029.7125
2505.59514	4028.3125
2508.33002	4022.2125
2511.06318	3988.6125
2513.79462	4007.1125
2516.52435	3972.4125
2519.25237	3954.8125
2521.97867	3942.2125
2524.70327	3954.2125
2527.42616	3947.7125
2530.14734	3963.7125
2532.86681	3940.9125
2535.58458	3942.7125
2538.30065	3927.9125
2541.01501	3942.8125
2543.72768	3913.2125
2546.43864	3924.0125
2549.14791	3920.8125
2551.85548	3885.4125
2554.56136	3891.3125
2557.26554	3888.6125
2559.96803	3892.9125
2562.66883	3876.1125
2565.36794	3858.0125
2568.06536	3839.1125
2570.7611	3853.0125
2573.45514	3835.3125
2576.14751	3825.0125
2578.83819	3800.3125
2581.52719	3792.4125
2584.21451	3798.3125
2586.90015	3770.7125
2589.58411	3772.9125
2592.2664	3785.7125
2594.94701	3773.6125
2597.62594	3778.7125
2600.30321	3691.6125
2602.9788	3717.5125
2605.65273	3716.6125
2608.32498	3719.4125
2610.99557	3749.0125
2613.66449	3699.9125
2616.33175	3718.5125
2618.99734	3715.6125
2621.66128	3698.5125
2624.32355	3696.4125
2626.98416	3661.4125
2629.64311	3667.3125
2632.30041	3670.2125
2634.95605	3656.9125
2637.61004	3625.3125
2640.26238	3620.7125
2642.91306	3627.0125
2645.56209	3650.2125
2648.20948	3633.3125
2650.85521	3625.7125
2653.4993	3654.7125
2656.14175	3625.1125
2658.78255	3628.8125
2661.42171	3586.7125
2664.05923	3620.6125
2666.6951	3623.6125
2669.32934	3636.3125
2671.96194	3652.7125
2674.59291	3622.9125
2677.22224	3622.5125
2679.84993	3624.6125
2682.476	3606.7125
2685.10043	3606.9125
2687.72324	3601.7125
2690.34441	3600.4125
2692.96396	3591.7125
2695.58188	3597.3125
2698.19818	3607.6125
2700.81285	3602.1125
2703.4259	3568.2125
2706.03733	3553.4125
2708.64714	3557.0125
2711.25533	3594.2125
2713.86191	3590.8125
2716.46687	3581.8125
2719.07021	3577.0125
2721.67194	3580.4125
2724.27206	3587.8125
2726.87057	3562.4125
2729.46747	3553.8125
2732.06276	3589.0125
2734.65644	3558.6125
2737.24852	3551.4125
2739.83899	3534.1125
2742.42786	3538.6125
2745.01513	3563.3125
2747.60079	3532.4125
2750.18486	3518.0125
2752.76733	3520.8125
2755.3482	3513.3125
2757.92747	3518.6125
2760.50515	3485.8125
2763.08123	3475.5125
2765.65573	3488.6125
2768.22863	3453.9125
2770.79994	3464.1125
2773.36967	3459.5125
2775.9378	3456.2125
2778.50435	3445.7125
2781.06932	3444.7125
2783.6327	3440.2125
2786.1945	3453.1125
2788.75471	3418.5125
2791.31335	3419.3125
2793.87041	3424.3125
2796.42589	3400.3125
2798.97979	3389.4125
2801.53212	3390.5125
2804.08288	3400.0125
2806.63206	3390.4125
2809.17967	3364.7125
2811.72571	3383.7125
2814.27018	3359.5125
2816.81308	3349.3125
2819.35442	3325.5125
2821.89419	3342.3125
2824.43239	3314.1125
2826.96904	3340.8125
2829.50412	3315.4125
2832.03763	3315.6125
2834.56959	3323.2125
2837.1	3303.9125
2839.62884	3313.2125
2842.15613	3307.7125
2844.68186	3311.6125
2847.20604	3272.5125
2849.72867	3274.3125
2852.24974	3274.6125
2854.76927	3238.4125
2857.28724	3198.7125
2859.80367	3253.3125
2862.31855	3263.5125
2864.83189	3252.7125
2867.34368	3254.6125
2869.85393	3257.6125
2872.36264	3223.0125
2874.8698	3232.5125
2877.37543	3237.4125
2879.87952	3237.2125
2882.38207	3209.2125
2884.88308	3226.7125
2887.38256	3220.9125
2889.88051	3200.0125
2892.37692	3210.6125
2894.8718	3189.2125
2897.36515	3207.0125
2899.85698	3207.8125
2902.34727	3186.8125
2904.83604	3205.4125
2907.32328	3227.0125
2909.809	3209.5125
2912.29319	3205.0125
2914.77587	3222.6125
2917.25702	3229.0125
2919.73665	3228.0125
2922.21476	3226.3125
2924.69136	3226.0125
2927.16644	3212.9125
2929.64	3203.6125
2932.11205	3211.3125
2934.58258	3204.2125
2937.05161	3181.6125
2939.51912	3176.6125
2941.98513	3202.4125
2944.44962	3172.8125
2946.91261	3145.0125
2949.37409	3161.5125
2951.83407	3153.8125
2954.29254	3162.1125
2956.74951	3150.4125
2959.20498	3137.6125
2961.65895	3126.0125
2964.11142	3120.3125
2966.56239	3117.3125
2969.01186	3126.4125
2971.45984	3110.2125
2973.90632	3096.5125
2976.35131	3110.5125
2978.7948	3117.8125
2981.23681	3098.5125
2983.67732	3101.7125
2986.11635	3079.4125
2988.55388	3063.4125
2990.98993	3062.9125
2993.4245	3062.9125
2995.85758	3041.2125
2998.28917	3044.0125
3000.71928	3032.5125
3003.14791	3019.7125
3005.57506	3006.8125
3008.00073	2994.2125
3010.42493	2929.1125
3012.84764	2989.0125
3015.26888	2997.8125
3017.68865	2971.4125
3020.10694	2937.1125
3022.52376	2945.5125
3024.9391	2943.7125
3027.35298	2934.4125
3029.76539	2912.8125
3032.17632	2923.1125
3034.5858	2907.6125
3036.9938	2915.6125
3039.40034	2905.3125
3041.80542	2900.8125
3044.20903	2876.1125
3046.61118	2867.5125
3049.01187	2891.7125
3051.4111	2871.9125
3053.80888	2861.2125
3056.20519	2846.8125
3058.60005	2836.3125
3060.99345	2856.5125
3063.3854	2822.0125
3065.7759	2801.9125
3068.16494	2814.0125
3070.55254	2791.8125
3072.93868	2804.2125
3075.32338	2791.5125
3077.70662	2786.0125
3080.08842	2779.0125
3082.46878	2754.9125
3084.84769	2780.1125
3087.22515	2754.2125
3089.60118	2770.7125
3091.97576	2749.2125
3094.3489	2755.3125
3096.72061	2764.4125
3099.09087	2734.0125
3101.4597	2747.0125
3103.82709	2748.5125
3106.19305	2725.5125
3108.55757	2741.3125
3110.92066	2718.1125
3113.28232	2737.8125
3115.64255	2723.1125
3118.00134	2730.9125
3120.35871	2691.9125
3122.71466	2681.7125
3125.06917	2682.7125
3127.42226	2681.5125
3129.77393	2660.3125
3132.12417	2677.0125
3134.47299	2670.1125
3136.82039	2656.6125
3139.16636	2628.7125
3141.51092	2655.2125
3143.85406	2646.0125
3146.19579	2624.7125
3148.53609	2633.0125
3150.87499	2624.8125
3153.21246	2626.9125
3155.54853	2635.1125
3157.88318	2639.3125
3160.21642	2634.3125
3162.54826	2636.9125
3164.87868	2637.0125
3167.2077	2598.9125
3169.5353	2632.0125
3171.86151	2632.3125
3174.18631	2611.4125
3176.5097	2610.6125
3178.83169	2614.5125
3181.15228	2600.4125
3183.47147	2576.2125
3185.78926	2569.3125
3188.10565	2571.1125
3190.42065	2546.2125
3192.73424	2566.7125
3195.04645	2554.9125
3197.35725	2535.5125
3199.66667	2542.4125
3201.97469	2542.5125
3204.28132	2519.8125
3206.58656	2540.4125
3208.8904	2550.5125
3211.19287	2535.7125
3213.49394	2520.5125
3215.79363	2513.5125
3218.09193	2543.1125
3220.38884	2534.8125
3222.68438	2529.2125
3224.97853	2501.1125
3227.2713	2533.6125
3229.56269	2512.7125
3231.8527	2505.1125
3234.14133	2479.2125
3236.42858	2488.9125
3238.71446	2472.4125
3240.99896	2485.1125
3243.28209	2457.7125
3245.56384	2465.8125
3247.84423	2457.5125
3250.12324	2472.7125
3252.40088	2465.0125
3254.67715	2431.6125
3256.95205	2443.6125
3259.22558	2447.6125
3261.49775	2448.5125
3263.76855	2446.7125
3266.03799	2441.4125
3268.30606	2448.1125
3270.57277	2440.9125
3272.83812	2418.3125
3275.10211	2407.4125
3277.36474	2431.0125
3279.62601	2424.1125
3281.88593	2400.1125
3284.14448	2377.8125
3286.40168	2393.7125
3288.65753	2395.6125
3290.91202	2385.5125
3293.16516	2372.1125
3295.41695	2386.5125
3297.66738	2378.2125
3299.91647	2367.3125
3302.16421	2348.1125
3304.4106	2303.3125
3306.65564	2321.4125
3308.89933	2284.3125
3311.14169	2271.9125
3313.38269	2266.5125
3315.62236	2234.6125
3317.86068	2237.8125
3320.09766	2224.9125
3322.3333	2190.5125
3324.5676	2177.6125
3326.80056	2150.6125
3329.03219	2129.3125
3331.26248	-0.6875
3333.49143	0.0125
3335.71905	0.8125
