Data from AgNPs_UA_10uM_CRN_500uM_SU_RamanShift__113__13-24-10-276.txt Node

Date: Thu Aug 04 13:24:10 BST 2022
User: TCL
Spectrometer: QEP01345
Trigger mode: 4
Integration Time (sec): 1.000000E0
Scans to average: 10
Electric dark correction enabled: true
Nonlinearity correction enabled: false
Boxcar width: 0
XAxis mode: Raman Shifts
Number of Pixels in Spectrum: 1044
>>>>>Begin Spectral Data<<<<<
46.04893	-0.7
50.45542	-0.1
54.85868	1.2
59.25871	-1.3
63.6555	22.5
68.04907	21.4
72.43941	22.2
76.82654	24.3
81.21044	25.2
85.59113	27.5
89.96862	26.5
94.34289	27.4
98.71396	28.3
103.08183	30.8
107.4465	28.1
111.80798	31.9
116.16626	30.6
120.52136	35.5
124.87327	35.4
129.222	39.4
133.56755	40
137.90993	44.5
142.24913	48.1
146.58517	57.5
150.91804	66.6
155.24774	80.4
159.57429	102.6
163.89768	129.7
168.21792	175.1
172.53501	239.3
176.84895	343.4
181.15975	481.6
185.46741	680.9
189.77193	945.3
194.07331	1274
198.37157	1643
202.6667	2038.3
206.9587	2428.2
211.24758	2812.7
215.53334	3214.2
219.81599	3644.4
224.09553	4125.1
228.37195	4637.7
232.64527	5223.9
236.91549	5774.8
241.18261	6280.2
245.44663	6704
249.70755	7034.6
253.96539	7310.6
258.22014	7573.8
262.4718	7783.7
266.72039	7912
270.96589	7959.6
275.20832	7926.2
279.44768	7832.6
283.68397	7698
287.91719	7615.5
292.14735	7615.9
296.37445	7756.4
300.59849	7948.6
304.81948	8237.8
309.03742	8500
313.25231	8641.3
317.46415	8544.3
321.67296	8254.4
325.87872	7931.9
330.08145	7762.8
334.28114	7767.1
338.47781	7849.9
342.67145	7976.7
346.86207	8210.6
351.04966	8539.4
355.23424	8862.7
359.4158	9087.9
363.59435	9183.1
367.76989	9235.8
371.94243	9219.8
376.11196	9212.9
380.27849	9185
384.44203	9206.3
388.60257	9259.6
392.76012	9315.6
396.91468	9467.4
401.06626	9616.6
405.21485	9664.8
409.36047	9549.8
413.50311	9255.6
417.64277	8993
421.77947	8824.1
425.9132	8746.3
430.04396	8719.5
434.17176	8775.1
438.2966	8873.8
442.41849	9046.2
446.53742	9246.5
450.6534	9427.5
454.76644	9546.4
458.87653	9591.9
462.98368	9590
467.08789	9542.1
471.18916	9401.4
475.2875	9203.5
479.38291	9042.1
483.4754	8908.8
487.56496	8862.3
491.6516	8830.4
495.73531	8821.3
499.81612	8856.4
503.89401	8947.4
507.96899	8987.6
512.04106	9050.1
516.11023	9113
520.1765	9166.8
524.23987	9178.1
528.30034	9187.4
532.35792	9190.5
536.41261	9110.6
540.46441	8972.7
544.51333	8951.2
548.55936	9023.1
552.60252	9144.2
556.64279	9312.8
560.6802	9435.5
564.71473	9529.2
568.7464	9615
572.7752	9586.7
576.80114	9383.9
580.82422	9192.5
584.84444	9144.5
588.86181	9158.2
592.87633	9205.4
596.888	9387.1
600.89682	9810.5
604.9028	10883.9
608.90594	13093.3
612.90624	15234.5
616.90371	14055.4
620.89834	11026.5
624.89015	9796.9
628.87913	9693.2
632.86528	9862.4
636.84862	9933.3
640.82913	9716.9
644.80683	9407
648.78172	9215.8
652.75379	9230.9
656.72306	9462.5
660.68952	9754.6
664.65319	9688.6
668.61405	9528.4
672.57211	9592.2
676.52738	9606.2
680.47986	9427.1
684.42955	9208.3
688.37646	9184.7
692.32058	9246.1
696.26192	9429.6
700.20048	9599.9
704.13626	9631.2
708.06928	9524.3
711.99952	9407
715.927	9411.3
719.85171	9485.9
723.77365	9508.4
727.69284	9418.5
731.60928	9331
735.52295	9324.5
739.43388	9368.4
743.34206	9406.3
747.24749	9404.4
751.15017	9426.4
755.05012	9522
758.94733	9846.5
762.8418	10647.7
766.73354	11876.9
770.62254	12818.7
774.50882	12996.7
778.39237	12595.7
782.27321	11733.6
786.15132	10770.7
790.02671	10081.7
793.89938	9720.4
797.76935	9551.9
801.6366	9465.3
805.50115	9409.7
809.36299	9365.2
813.22213	9343.4
817.07857	9333.3
820.93231	9328.3
824.78336	9331.7
828.63172	9386.1
832.47738	9384.3
836.32036	9358.6
840.16066	9368.4
843.99827	9334.9
847.8332	9360.6
851.66546	9334.3
855.49504	9364.3
859.32195	9384.7
863.1462	9377.2
866.96777	9391.2
870.78668	9380.7
874.60293	9419.6
878.41652	9469.9
882.22745	9551.8
886.03573	9575.4
889.84136	9601.4
893.64433	9526.8
897.44466	9510.8
901.24235	9464.9
905.0374	9431.6
908.8298	9409.2
912.61957	9411.9
916.40671	9427.4
920.19121	9462.7
923.97308	9499
927.75233	9626.2
931.52895	9692.8
935.30295	9602.6
939.07433	9448.8
942.84309	9379
946.60924	9340.2
950.37278	9326.9
954.13371	9323.4
957.89203	9301.4
961.64774	9288.2
965.40086	9285.2
969.15137	9278.5
972.89929	9262.6
976.64461	9270.7
980.38733	9281.2
984.12747	9296.3
987.86502	9362.5
991.59999	9432
995.33237	9537.5
999.06217	9670.5
1002.78939	9870.4
1006.51404	10093.6
1010.23611	10259.6
1013.95561	10352.3
1017.67255	10376.2
1021.38692	10393.5
1025.09872	10284.8
1028.80796	10195.8
1032.51465	10218
1036.21877	10255.8
1039.92035	10297.7
1043.61937	10290
1047.31584	10262
1051.00976	10195.7
1054.70114	10214.1
1058.38998	10204.9
1062.07627	10219.9
1065.76003	10291.6
1069.44126	10416.2
1073.11995	10623.4
1076.79611	10910.7
1080.46974	11069.8
1084.14085	11156
1087.80943	11263.8
1091.47549	11354.7
1095.13903	11395.9
1098.80005	11390.3
1102.45857	11348.8
1106.11456	11217.9
1109.76805	11029.8
1113.41903	10989.6
1117.06751	11081.2
1120.71348	11290.4
1124.35696	11524.1
1127.99793	11661.8
1131.63641	11539.1
1135.2724	11204.1
1138.90589	10966.1
1142.5369	10827.5
1146.16542	10771.8
1149.79145	10748.4
1153.415	10605.2
1157.03607	10479.2
1160.65467	10532.7
1164.27079	10722
1167.88443	11056.9
1171.49561	11558.2
1175.10432	12284.3
1178.71056	13296.6
1182.31434	14157.8
1185.91565	14506.1
1189.51451	14471.3
1193.11091	14221.1
1196.70485	13901
1200.29634	13602.6
1203.88538	13250
1207.47197	12841.6
1211.05612	12458.2
1214.63782	12157.6
1218.21708	11855.4
1221.79391	11624.6
1225.36829	11469.3
1228.94024	11396.2
1232.50976	11298.5
1236.07685	11297.6
1239.6415	11321.3
1243.20374	11380.7
1246.76355	11477.1
1250.32093	11640.3
1253.8759	11880.9
1257.42845	12254.4
1260.97859	12641
1264.52631	12951.7
1268.07163	13184.6
1271.61453	13357.8
1275.15503	13418.3
1278.69312	13438.8
1282.22882	13456.8
1285.76211	13539.6
1289.29301	13687
1292.82151	13890.6
1296.34761	14194.3
1299.87133	14641.5
1303.39266	15423.4
1306.9116	16601.8
1310.42815	17788
1313.94233	18309.2
1317.45412	17806.9
1320.96354	16902.2
1324.47058	15959.4
1327.97525	15163.8
1331.47754	14610.2
1334.97747	14437.9
1338.47502	14599.4
1341.97022	15116.2
1345.46305	15954.1
1348.95352	17071.9
1352.44163	18291.1
1355.92738	19458.2
1359.41078	20829.2
1362.89183	21749.1
1366.37053	20727.4
1369.84688	17973.3
1373.32088	15546.9
1376.79254	14187.3
1380.26186	13493.8
1383.72883	13088.1
1387.19347	12744.8
1390.65578	12355
1394.11575	12048.3
1397.57339	11798.4
1401.0287	11679.6
1404.48168	11686.5
1407.93234	11768
1411.38068	11932.5
1414.82669	12090.7
1418.27039	12088
1421.71177	12043.3
1425.15083	11979.8
1428.58758	11929.4
1432.02203	12015.8
1435.45416	12102.4
1438.88399	12147.6
1442.31151	12176.9
1445.73673	12213.1
1449.15965	12222.3
1452.58027	12174.4
1455.9986	12088.4
1459.41463	12098.1
1462.82837	12180.5
1466.23982	12372.5
1469.64898	12591.7
1473.05586	12761.2
1476.46045	12879.8
1479.86276	12997.2
1483.26279	13103.8
1486.66054	13309.6
1490.05602	13643.1
1493.44922	14179.7
1496.84016	15010.3
1500.22882	16224.5
1503.61521	17726.8
1506.99934	19161.1
1510.38121	19972.2
1513.76081	19650.9
1517.13816	18261.4
1520.51324	16485.6
1523.88607	15054.3
1527.25665	14152.9
1530.62498	13700
1533.99105	13483.4
1537.35488	13400.3
1540.71647	13305.3
1544.07581	13275.7
1547.4329	13171.7
1550.78776	13046.1
1554.14038	12870.5
1557.49077	12777.6
1560.83892	12835
1564.18484	13109.1
1567.52853	13416.4
1570.86999	13615.8
1574.20922	13637
1577.54624	13461.9
1580.88103	12935.4
1584.2136	12373.4
1587.54395	12086.5
1590.87208	12223.3
1594.19801	12674.3
1597.52172	13258.6
1600.84321	13553.5
1604.16251	13509.2
1607.47959	13250.3
1610.79447	12794.8
1614.10715	12126.6
1617.41763	11495.8
1620.7259	11018.1
1624.03199	10797.7
1627.33587	10713.2
1630.63757	10826.2
1633.93707	11237.3
1637.23439	11909.3
1640.52951	12972.5
1643.82246	14265.7
1647.11321	15556.3
1650.40179	16060.3
1653.68819	15278.9
1656.97241	13590
1660.25446	11974.1
1663.53433	10846
1666.81203	10171.8
1670.08756	9804.1
1673.36092	9566.9
1676.63211	9407.7
1679.90115	9289.4
1683.16801	9176.1
1686.43272	9098.2
1689.69527	9069
1692.95567	8987.6
1696.2139	8968
1699.46999	8957.1
1702.72392	8940.2
1705.97571	8922.4
1709.22535	8895.3
1712.47284	8924.5
1715.71819	8927.7
1718.96139	8915
1722.20246	8887.7
1725.44139	8853.8
1728.67818	8816.7
1731.91284	8777.7
1735.14537	8738.3
1738.37576	8686.3
1741.60403	8677.7
1744.83017	8648.3
1748.05418	8617.9
1751.27607	8593.6
1754.49584	8595.8
1757.71349	8585.1
1760.92903	8594.4
1764.14244	8553.6
1767.35375	8530.7
1770.56294	8490.7
1773.77002	8515.1
1776.97499	8489.4
1780.17785	8441
1783.37861	8411.5
1786.57727	8400.5
1789.77382	8414.3
1792.96828	8388.3
1796.16064	8378.3
1799.3509	8356.8
1802.53907	8359.9
1805.72514	8331.2
1808.90913	8322.5
1812.09102	8304.9
1815.27083	8279
1818.44856	8260.4
1821.6242	8251.2
1824.79776	8229.3
1827.96924	8225.6
1831.13864	8191.1
1834.30597	8182.5
1837.47122	8176.7
1840.6344	8140.7
1843.7955	8150.6
1846.95454	8148.5
1850.11151	8142
1853.26642	8112.1
1856.41926	8131.5
1859.57004	8136.7
1862.71876	8140.3
1865.86542	8117.1
1869.01003	8112
1872.15258	8090
1875.29308	8082.6
1878.43152	8077.8
1881.56792	8047.5
1884.70227	8027
1887.83457	8017.1
1890.96482	8003.5
1894.09304	7993.6
1897.21921	7992.2
1900.34335	7973.7
1903.46544	7982.1
1906.58551	7983.6
1909.70353	7962.3
1912.81953	7941.7
1915.93349	7933.1
1919.04543	7922.5
1922.15534	7898.3
1925.26322	7909.8
1928.36908	7866.7
1931.47292	7845.3
1934.57473	7836.9
1937.67453	7821.8
1940.77232	7790.3
1943.86808	7755.9
1946.96184	7745.9
1950.05358	7728.4
1953.14331	7700.1
1956.23103	7702.6
1959.31675	7665.6
1962.40046	7659.5
1965.48217	7627.6
1968.56188	7584.6
1971.63959	7593.9
1974.7153	7572.1
1977.78901	7570.9
1980.86073	7527.6
1983.93046	7517
1986.99819	7465.1
1990.06394	7463.5
1993.1277	7441.4
1996.18947	7411.9
1999.24925	7365.4
2002.30706	7356.3
2005.36288	7302.4
2008.41672	7291.4
2011.46859	7274
2014.51848	7265.3
2017.56639	7224.6
2020.61233	7209.1
2023.6563	7186.5
2026.6983	7159.4
2029.73833	7145.6
2032.7764	7129
2035.8125	7132.4
2038.84664	7107.8
2041.87881	7083
2044.90903	7085
2047.93729	7059.7
2050.96359	7052.1
2053.98794	7024.9
2057.01034	7030.3
2060.03078	7029
2063.04927	7017.1
2066.06582	7004.4
2069.08042	6993.6
2072.09307	6994.4
2075.10378	6954.2
2078.11255	6963.1
2081.11938	6967.1
2084.12426	6936.9
2087.12722	6955.5
2090.12824	6955.4
2093.12732	6948.3
2096.12447	6952.7
2099.11969	6967.8
2102.11299	6961
2105.10435	6982.2
2108.09379	6982.5
2111.08131	6972.9
2114.0669	6976
2117.05057	6976.9
2120.03233	6997.5
2123.01216	6974
2125.99008	6973.5
2128.96609	6987.9
2131.94018	7002.3
2134.91236	6995.9
2137.88263	6977.6
2140.851	6967.9
2143.81746	6993.5
2146.78201	6980.8
2149.74466	6972.8
2152.7054	6979.1
2155.66425	6984.7
2158.6212	6967.8
2161.57625	6968.7
2164.52941	6957.7
2167.48067	6956.6
2170.43004	6945.7
2173.37752	6957.1
2176.32311	6928.7
2179.26681	6947.1
2182.20863	6939.8
2185.14856	6935.3
2188.08661	6945.4
2191.02278	6959
2193.95707	6940.9
2196.88948	6935.9
2199.82001	6925.6
2202.74867	6909.7
2205.67545	6925
2208.60037	6912.1
2211.52341	6885.3
2214.44458	6872.2
2217.36388	6860.2
2220.28132	6832.2
2223.1969	6814.6
2226.11061	6791.8
2229.02246	6800
2231.93245	6791.4
2234.84058	6781.8
2237.74686	6776
2240.65128	6754.6
2243.55385	6735.1
2246.45456	6738.1
2249.35343	6729.5
2252.25044	6711
2255.14561	6702.3
2258.03893	6705.4
2260.93041	6700
2263.82004	6676.7
2266.70783	6652.9
2269.59378	6646.4
2272.4779	6609.7
2275.36017	6616.9
2278.24061	6601.4
2281.11922	6608
2283.996	6586.8
2286.87094	6560.3
2289.74405	6555.2
2292.61534	6561.8
2295.4848	6511.2
2298.35243	6525.3
2301.21824	6526
2304.08223	6513.2
2306.94439	6514.7
2309.80474	6506.5
2312.66327	6510.2
2315.51999	6496.2
2318.37489	6493.8
2321.22797	6473.5
2324.07925	6463.3
2326.92871	6429.1
2329.77637	6457.6
2332.62222	6424.7
2335.46626	6415.5
2338.3085	6400.7
2341.14893	6421.4
2343.98756	6445.5
2346.8244	6422.7
2349.65943	6408
2352.49267	6398.1
2355.32411	6388.6
2358.15376	6401.5
2360.98161	6402.8
2363.80768	6395.8
2366.63195	6390.5
2369.45444	6382.2
2372.27514	6381.9
2375.09405	6361.1
2377.91118	6332.6
2380.72652	6318.2
2383.54009	6321.7
2386.35187	6310.2
2389.16188	6277
2391.97011	6264.2
2394.77657	6239.5
2397.58125	6239
2400.38416	6226.8
2403.18529	6214.9
2405.98466	6216.5
2408.78226	6173.9
2411.57809	6183.7
2414.37216	6171.6
2417.16446	6166.6
2419.955	6156
2422.74378	6163.7
2425.5308	6152.4
2428.31606	6164.5
2431.09956	6168.1
2433.88131	6140.7
2436.6613	6135.6
2439.43954	6127.4
2442.21603	6127.6
2444.99077	6114.1
2447.76377	6132
2450.53501	6132.7
2453.30451	6111.4
2456.07226	6098.5
2458.83827	6086
2461.60254	6083.5
2464.36507	6076.5
2467.12586	6071.4
2469.88492	6063.8
2472.64224	6067.4
2475.39782	6069.2
2478.15167	6049
2480.90379	6060.8
2483.65417	6036.7
2486.40283	6051.3
2489.14976	6056.4
2491.89497	6045.9
2494.63845	6040.4
2497.3802	6028.1
2500.12024	6033.4
2502.85855	6030.1
2505.59514	6015.4
2508.33002	5999
2511.06318	5990.6
2513.79462	5971.8
2516.52435	5967.8
2519.25237	5944.6
2521.97867	5930.6
2524.70327	5923.9
2527.42616	5909.8
2530.14734	5898.9
2532.86681	5908.5
2535.58458	5922.5
2538.30065	5926.3
2541.01501	5900.3
2543.72768	5896.9
2546.43864	5903.1
2549.14791	5891.7
2551.85548	5867.9
2554.56136	5890.7
2557.26554	5876.9
2559.96803	5846.2
2562.66883	5838.9
2565.36794	5823.6
2568.06536	5810.2
2570.7611	5789.5
2573.45514	5782.1
2576.14751	5779.7
2578.83819	5754.7
2581.52719	5736.8
2584.21451	5745.7
2586.90015	5748.5
2589.58411	5727.4
2592.2664	5733.6
2594.94701	5711.7
2597.62594	5697
2600.30321	5681.9
2602.9788	5689
2605.65273	5691.2
2608.32498	5688.5
2610.99557	5672.1
2613.66449	5662.1
2616.33175	5665.7
2618.99734	5657.3
2621.66128	5648.6
2624.32355	5636
2626.98416	5609.6
2629.64311	5613.6
2632.30041	5629.9
2634.95605	5592.7
2637.61004	5590
2640.26238	5583
2642.91306	5570.3
2645.56209	5575.2
2648.20948	5554.1
2650.85521	5553
2653.4993	5571
2656.14175	5547
2658.78255	5535.4
2661.42171	5531
2664.05923	5551
2666.6951	5558
2669.32934	5578.8
2671.96194	5567.8
2674.59291	5571
2677.22224	5573.2
2679.84993	5558.5
2682.476	5547
2685.10043	5552.3
2687.72324	5554.2
2690.34441	5544.6
2692.96396	5519.5
2695.58188	5535.4
2698.19818	5533.7
2700.81285	5512.8
2703.4259	5508
2706.03733	5518
2708.64714	5523.3
2711.25533	5501.1
2713.86191	5498.5
2716.46687	5497
2719.07021	5496.2
2721.67194	5506.8
2724.27206	5485.1
2726.87057	5511.4
2729.46747	5495.7
2732.06276	5500.7
2734.65644	5499
2737.24852	5490.4
2739.83899	5469.6
2742.42786	5448.6
2745.01513	5436.8
2747.60079	5445.9
2750.18486	5435.6
2752.76733	5433.1
2755.3482	5427.8
2757.92747	5413.8
2760.50515	5420
2763.08123	5404.4
2765.65573	5386.9
2768.22863	5366.5
2770.79994	5359.8
2773.36967	5351.6
2775.9378	5348.2
2778.50435	5344.1
2781.06932	5349.9
2783.6327	5361
2786.1945	5344.5
2788.75471	5327.2
2791.31335	5318.5
2793.87041	5310.9
2796.42589	5304.5
2798.97979	5279.2
2801.53212	5254.2
2804.08288	5250.2
2806.63206	5226.7
2809.17967	5252.6
2811.72571	5234.3
2814.27018	5227.4
2816.81308	5216.8
2819.35442	5195.3
2821.89419	5195.7
2824.43239	5196
2826.96904	5160.9
2829.50412	5169.1
2832.03763	5154.3
2834.56959	5150.7
2837.1	5123.4
2839.62884	5099.2
2842.15613	5122
2844.68186	5108.2
2847.20604	5111.5
2849.72867	5096.4
2852.24974	5080.6
2854.76927	5082
2857.28724	5049
2859.80367	5051.9
2862.31855	5052
2864.83189	5041
2867.34368	5053.8
2869.85393	5047.8
2872.36264	5029.3
2874.8698	5019.6
2877.37543	5033.4
2879.87952	5034.1
2882.38207	5013.7
2884.88308	5008.9
2887.38256	5016.6
2889.88051	4985.7
2892.37692	4977.8
2894.8718	4985
2897.36515	4977.4
2899.85698	4972.2
2902.34727	4979.3
2904.83604	4992.8
2907.32328	5009.1
2909.809	5000.6
2912.29319	5007.3
2914.77587	5000.1
2917.25702	5005
2919.73665	5009.1
2922.21476	4986.6
2924.69136	4992.2
2927.16644	4969.6
2929.64	4968.2
2932.11205	4933
2934.58258	4921.9
2937.05161	4938.4
2939.51912	4927.4
2941.98513	4932.2
2944.44962	4920.1
2946.91261	4893.3
2949.37409	4907.1
2951.83407	4902.5
2954.29254	4897.7
2956.74951	4893.5
2959.20498	4890.4
2961.65895	4900.9
2964.11142	4890.3
2966.56239	4881.8
2969.01186	4880.4
2971.45984	4878.4
2973.90632	4876.5
2976.35131	4848.6
2978.7948	4851.9
2981.23681	4847.1
2983.67732	4830.9
2986.11635	4819.1
2988.55388	4796.5
2990.98993	4783.6
2993.4245	4787.8
2995.85758	4764.4
2998.28917	4756.5
3000.71928	4740
3003.14791	4724.7
3005.57506	4728
3008.00073	4715.4
3010.42493	4695.7
3012.84764	4687.7
3015.26888	4696.6
3017.68865	4684.3
3020.10694	4681
3022.52376	4663.4
3024.9391	4651.9
3027.35298	4624.4
3029.76539	4589.5
3032.17632	4603
3034.5858	4595.7
3036.9938	4591.8
3039.40034	4572
3041.80542	4554.9
3044.20903	4562.3
3046.61118	4540.5
3049.01187	4534.7
3051.4111	4530.1
3053.80888	4510.8
3056.20519	4514.7
3058.60005	4507.8
3060.99345	4496.5
3063.3854	4488
3065.7759	4471
3068.16494	4458.2
3070.55254	4425.6
3072.93868	4407.4
3075.32338	4387.5
3077.70662	4405.2
3080.08842	4389.8
3082.46878	4387.2
3084.84769	4377.2
3087.22515	4381.7
3089.60118	4366.1
3091.97576	4368.3
3094.3489	4353.6
3096.72061	4348.3
3099.09087	4334.7
3101.4597	4342.4
3103.82709	4335.1
3106.19305	4338.9
3108.55757	4334.1
3110.92066	4314.8
3113.28232	4309
3115.64255	4316.8
3118.00134	4301.4
3120.35871	4286.1
3122.71466	4274
3125.06917	4264.9
3127.42226	4263.2
3129.77393	4255.7
3132.12417	4217
3134.47299	4233.1
3136.82039	4218.2
3139.16636	4221.3
3141.51092	4209.4
3143.85406	4224.9
3146.19579	4218.2
3148.53609	4211.1
3150.87499	4215
3153.21246	4201.1
3155.54853	4216.3
3157.88318	4194.1
3160.21642	4193.3
3162.54826	4173.8
3164.87868	4187.7
3167.2077	4185.6
3169.5353	4168.5
3171.86151	4156.3
3174.18631	4158
3176.5097	4138.5
3178.83169	4137.2
3181.15228	4130.7
3183.47147	4115.8
3185.78926	4129.3
3188.10565	4093.3
3190.42065	4080.1
3192.73424	4079.1
3195.04645	4079.6
3197.35725	4075.1
3199.66667	4073.3
3201.97469	4078.3
3204.28132	4066.3
3206.58656	4081.9
3208.8904	4058.6
3211.19287	4088
3213.49394	4068.6
3215.79363	4065
3218.09193	4082.8
3220.38884	4083.6
3222.68438	4061.1
3224.97853	4053
3227.2713	4051.5
3229.56269	4035.8
3231.8527	4051.2
3234.14133	4018.7
3236.42858	4006.7
3238.71446	4009.3
3240.99896	3983.4
3243.28209	3986.6
3245.56384	3968.1
3247.84423	3975.4
3250.12324	3959.9
3252.40088	3936.7
3254.67715	3949.3
3256.95205	3936.3
3259.22558	3958.8
3261.49775	3959
3263.76855	3937.3
3266.03799	3939.3
3268.30606	3938.1
3270.57277	3941.2
3272.83812	3929.2
3275.10211	3918.7
3277.36474	3904.5
3279.62601	3899.7
3281.88593	3896.5
3284.14448	3881.9
3286.40168	3880
3288.65753	3883.4
3290.91202	3873.3
3293.16516	3865.7
3295.41695	3871.8
3297.66738	3849.4
3299.91647	3830.9
3302.16421	3797.1
3304.4106	3754.6
3306.65564	3753.7
3308.89933	3735.2
3311.14169	3696.1
3313.38269	3674.8
3315.62236	3631
3317.86068	3631.7
3320.09766	3579.4
3322.3333	3560.8
3324.5676	3534.4
3326.80056	3476.5
3329.03219	3460.7
3331.26248	1.9
3333.49143	0.2
3335.71905	0.2
