Data from AgNPs_UA_5uM_CRN_500uM_SU_RamanShift__59__11-39-13-150.txt Node

Date: Thu Aug 04 11:39:13 BST 2022
User: TCL
Spectrometer: QEP01345
Trigger mode: 4
Integration Time (sec): 1.000000E0
Scans to average: 10
Electric dark correction enabled: true
Nonlinearity correction enabled: false
Boxcar width: 0
XAxis mode: Raman Shifts
Number of Pixels in Spectrum: 1044
>>>>>Begin Spectral Data<<<<<
46.04893	0.3
50.45542	0.7
54.85868	0.3
59.25871	-1.3
63.6555	-57
68.04907	-38.4
72.43941	-69.8
76.82654	-54.3
81.21044	-54.2
85.59113	-47.4
89.96862	-73.5
94.34289	-53.9
98.71396	-75.1
103.08183	-55.4
107.4465	-45.5
111.80798	-52.8
116.16626	-39.8
120.52136	-70.3
124.87327	-45.1
129.222	-58.2
133.56755	-43.5
137.90993	-54.1
142.24913	-43.1
146.58517	-32.8
150.91804	-26.9
155.24774	-11.9
159.57429	14.1
163.89768	26.3
168.21792	82.2
172.53501	123.6
176.84895	237
181.15975	408.5
185.46741	618.4
189.77193	877.2
194.07331	1254.1
198.37157	1651.3
202.6667	2065.9
206.9587	2523.3
211.24758	3004.1
215.53334	3516.5
219.81599	4109.5
224.09553	4793.2
228.37195	5512.6
232.64527	6201.2
236.91549	6778.7
241.18261	7101.9
245.44663	7280.3
249.70755	7316.4
253.96539	7382.5
258.22014	7500
262.4718	7581.3
266.72039	7601.6
270.96589	7478.7
275.20832	7244
279.44768	6991.8
283.68397	6773.7
287.91719	6723.3
292.14735	6821.6
296.37445	7240.6
300.59849	7927.8
304.81948	8902.1
309.03742	10038.5
313.25231	10813.9
317.46415	10702.4
321.67296	9515.1
325.87872	8221.9
330.08145	7486.3
334.28114	7313.5
338.47781	7534.5
342.67145	7959.8
346.86207	8664.2
351.04966	9745.8
355.23424	10850.3
359.4158	11303.8
363.59435	10976.5
367.76989	10352.7
371.94243	9765.4
376.11196	9254.8
380.27849	8939.7
384.44203	8655.9
388.60257	8499.7
392.76012	8549.6
396.91468	8787.6
401.06626	9126.5
405.21485	9144
409.36047	8674.8
413.50311	7857.7
417.64277	7135.9
421.77947	6634.4
425.9132	6412.4
430.04396	6306.6
434.17176	6303.7
438.2966	6404.6
442.41849	6561.7
446.53742	6763.4
450.6534	6869.1
454.76644	6911.4
458.87653	6864.2
462.98368	6781.4
467.08789	6666.9
471.18916	6498.9
475.2875	6271
479.38291	6062.6
483.4754	5960.9
487.56496	5914.3
491.6516	5847
495.73531	5841.3
499.81612	5904.1
503.89401	6052
507.96899	6186.7
512.04106	6409.4
516.11023	6601.8
520.1765	6782.7
524.23987	6832.2
528.30034	6810.9
532.35792	6671.8
536.41261	6556.5
540.46441	6361.4
544.51333	6251.5
548.55936	6253.1
552.60252	6406.5
556.64279	6567.2
560.6802	6894.4
564.71473	7612.5
568.7464	8505.6
572.7752	8428.9
576.80114	7264.9
580.82422	6320.5
584.84444	5908.7
588.86181	5776.8
592.87633	5796.6
596.888	5967.1
600.89682	6619.4
604.9028	8670.2
608.90594	13778.6
612.90624	19995.8
616.90371	18257
620.89834	10538.8
624.89015	7199.4
628.87913	6815
632.86528	7312.1
636.84862	7538.3
640.82913	6987
644.80683	6143
648.78172	5788.9
652.75379	5887.4
656.72306	6501.2
660.68952	7105
664.65319	6822.1
668.61405	6083.3
672.57211	5808.9
676.52738	5828.7
680.47986	5723.1
684.42955	5556.9
688.37646	5495.3
692.32058	5515.2
696.26192	5620
700.20048	5747.8
704.13626	5777.3
708.06928	5695.1
711.99952	5650.5
715.927	5685.7
719.85171	5845.2
723.77365	5944
727.69284	5839.2
731.60928	5723.8
735.52295	5668.3
739.43388	5714.1
743.34206	5762.5
747.24749	5775.3
751.15017	5803.8
755.05012	6028
758.94733	7002
762.8418	9249.2
766.73354	12161.7
770.62254	13726
774.50882	13180.2
778.39237	12117.1
782.27321	10494.2
786.15132	8286.2
790.02671	6789.7
793.89938	6035.5
797.76935	5815.9
801.6366	5672.6
805.50115	5614.9
809.36299	5582.6
813.22213	5568.2
817.07857	5566.8
820.93231	5597.9
824.78336	5668
828.63172	5776.9
832.47738	5798.3
836.32036	5729.3
840.16066	5590.3
843.99827	5491.1
847.8332	5460.4
851.66546	5456.8
855.49504	5451.2
859.32195	5459.8
863.1462	5409.5
866.96777	5389.2
870.78668	5376.3
874.60293	5419.1
878.41652	5481.5
882.22745	5608.7
886.03573	5678.5
889.84136	5644.9
893.64433	5656.9
897.44466	5642.1
901.24235	5641
905.0374	5582.8
908.8298	5433.7
912.61957	5348.7
916.40671	5281.3
920.19121	5322.6
923.97308	5480.3
927.75233	5757.3
931.52895	6061.1
935.30295	5915.2
939.07433	5467.5
942.84309	5184.2
946.60924	5078.4
950.37278	5015.8
954.13371	5016.8
957.89203	4998.9
961.64774	5022
965.40086	4997.7
969.15137	4975.7
972.89929	4987.9
976.64461	4971.1
980.38733	4969
984.12747	4956.8
987.86502	4964.3
991.59999	5008.2
995.33237	5055.2
999.06217	5136.1
1002.78939	5299.8
1006.51404	5545
1010.23611	5663.5
1013.95561	5592.6
1017.67255	5459
1021.38692	5335.7
1025.09872	5209.1
1028.80796	5122.8
1032.51465	5181.1
1036.21877	5191.4
1039.92035	5255.7
1043.61937	5317.9
1047.31584	5363.9
1051.00976	5393.5
1054.70114	5354.4
1058.38998	5318.2
1062.07627	5311
1065.76003	5329.2
1069.44126	5403.5
1073.11995	5501.4
1076.79611	5747.4
1080.46974	6135.1
1084.14085	6660.7
1087.80943	7116.2
1091.47549	7109.7
1095.13903	6693.7
1098.80005	6298.5
1102.45857	6107.2
1106.11456	6090.4
1109.76805	6108.6
1113.41903	6361.6
1117.06751	6825.6
1120.71348	7597.2
1124.35696	8703.1
1127.99793	9489
1131.63641	8865.5
1135.2724	7653.1
1138.90589	6807.1
1142.5369	6337.2
1146.16542	6053.9
1149.79145	5844.1
1153.415	5768.4
1157.03607	5784.6
1160.65467	5953.4
1164.27079	6268.1
1167.88443	6704.1
1171.49561	7518
1175.10432	8840.3
1178.71056	10720.2
1182.31434	12084.5
1185.91565	11913
1189.51451	10786.9
1193.11091	9549.8
1196.70485	8757
1200.29634	8413.2
1203.88538	8005.2
1207.47197	7225.2
1211.05612	6498.6
1214.63782	6028
1218.21708	5783.1
1221.79391	5702.2
1225.36829	5655.2
1228.94024	5645.2
1232.50976	5660.1
1236.07685	5671.4
1239.6415	5727.4
1243.20374	5821.9
1246.76355	5924.5
1250.32093	6102.5
1253.8759	6292.8
1257.42845	6695
1260.97859	7222.8
1264.52631	7710.6
1268.07163	7993
1271.61453	8054
1275.15503	7898.1
1278.69312	7699
1282.22882	7838.7
1285.76211	8490
1289.29301	9398.4
1292.82151	10018.3
1296.34761	10252.7
1299.87133	10871.9
1303.39266	12459.2
1306.9116	15428.2
1310.42815	18967.3
1313.94233	20203.7
1317.45412	17495.5
1320.96354	13597.9
1324.47058	10717
1327.97525	8896
1331.47754	7940.7
1334.97747	7598.3
1338.47502	7746.3
1341.97022	8494.2
1345.46305	10114.2
1348.95352	12431.9
1352.44163	14813
1355.92738	17593.2
1359.41078	22399.6
1362.89183	27611.4
1366.37053	26500.7
1369.84688	19082.1
1373.32088	12840.4
1376.79254	10120
1380.26186	8906
1383.72883	7987.2
1387.19347	7118.1
1390.65578	6436
1394.11575	6058.7
1397.57339	5845.7
1401.0287	5724.5
1404.48168	5614.3
1407.93234	5584.3
1411.38068	5686.8
1414.82669	5972.8
1418.27039	6298
1421.71177	6378.2
1425.15083	6218.3
1428.58758	6220.6
1432.02203	6489.2
1435.45416	6738.1
1438.88399	6556.4
1442.31151	6280.3
1445.73673	6231
1449.15965	6229
1452.58027	6113.7
1455.9986	5995.2
1459.41463	5895
1462.82837	5929.4
1466.23982	6092.2
1469.64898	6381
1473.05586	6479.5
1476.46045	6480.4
1479.86276	6527.6
1483.26279	6762.6
1486.66054	7219
1490.05602	7946.1
1493.44922	9188.3
1496.84016	11118.2
1500.22882	14048.8
1503.61521	18124.5
1506.99934	23281.2
1510.38121	28176.3
1513.76081	29866.2
1517.13816	26458
1520.51324	20205.3
1523.88607	14673.7
1527.25665	11163.7
1530.62498	9223.4
1533.99105	8103.7
1537.35488	7373.8
1540.71647	6944.8
1544.07581	6764.2
1547.4329	6763.9
1550.78776	6904
1554.14038	7139.8
1557.49077	7524.2
1560.83892	8201.5
1564.18484	9217
1567.52853	10383.1
1570.86999	11110
1574.20922	11258.7
1577.54624	10787.2
1580.88103	9445.8
1584.2136	7756.6
1587.54395	6782.6
1590.87208	6537.3
1594.19801	6817
1597.52172	7363.6
1600.84321	7396.2
1604.16251	6823.2
1607.47959	6263
1610.79447	5929.8
1614.10715	5620
1617.41763	5411.6
1620.7259	5277.2
1624.03199	5286.9
1627.33587	5388.7
1630.63757	5647.6
1633.93707	6154.6
1637.23439	7045.4
1640.52951	8694
1643.82246	11471.1
1647.11321	15240.6
1650.40179	18170.9
1653.68819	17882
1656.97241	14407.5
1660.25446	10381.4
1663.53433	7663.1
1666.81203	6148.3
1670.08756	5396.9
1673.36092	4981.4
1676.63211	4718.2
1679.90115	4562.7
1683.16801	4437.2
1686.43272	4328.9
1689.69527	4273.2
1692.95567	4189.6
1696.2139	4173.9
1699.46999	4107.5
1702.72392	4087.9
1705.97571	4110
1709.22535	4099.2
1712.47284	4150
1715.71819	4174.9
1718.96139	4172.2
1722.20246	4156.8
1725.44139	4108.3
1728.67818	4055.9
1731.91284	3997.2
1735.14537	3942.3
1738.37576	3910.6
1741.60403	3902.8
1744.83017	3862.6
1748.05418	3870.6
1751.27607	3844.8
1754.49584	3813.4
1757.71349	3768.2
1760.92903	3731.3
1764.14244	3674.8
1767.35375	3661.4
1770.56294	3629.4
1773.77002	3604
1776.97499	3583.3
1780.17785	3555.8
1783.37861	3533
1786.57727	3552.2
1789.77382	3486
1792.96828	3516.5
1796.16064	3542.7
1799.3509	3508.8
1802.53907	3512.3
1805.72514	3477.9
1808.90913	3460.2
1812.09102	3458.9
1815.27083	3457.4
1818.44856	3436.2
1821.6242	3420.4
1824.79776	3413.1
1827.96924	3394
1831.13864	3357
1834.30597	3366
1837.47122	3335.5
1840.6344	3327.4
1843.7955	3297.3
1846.95454	3282.2
1850.11151	3296.7
1853.26642	3261.5
1856.41926	3264.4
1859.57004	3272.3
1862.71876	3272.2
1865.86542	3277.4
1869.01003	3278
1872.15258	3254.8
1875.29308	3282.9
1878.43152	3277.8
1881.56792	3258.2
1884.70227	3245.8
1887.83457	3238.5
1890.96482	3208.4
1894.09304	3212.1
1897.21921	3197.9
1900.34335	3204.9
1903.46544	3182.2
1906.58551	3205.6
1909.70353	3191.4
1912.81953	3187.2
1915.93349	3185.5
1919.04543	3173.5
1922.15534	3140.9
1925.26322	3133
1928.36908	3105.3
1931.47292	3105.5
1934.57473	3103.7
1937.67453	3057.7
1940.77232	3030.8
1943.86808	3028.4
1946.96184	3011.5
1950.05358	2986.3
1953.14331	2975.6
1956.23103	2988.1
1959.31675	2975.2
1962.40046	2925.3
1965.48217	2974.9
1968.56188	2963.9
1971.63959	2976.4
1974.7153	2970.5
1977.78901	2968.6
1980.86073	2948.2
1983.93046	2890
1986.99819	2806.4
1990.06394	2828
1993.1277	2846.4
1996.18947	2827.4
1999.24925	2808.2
2002.30706	2818.2
2005.36288	2787.7
2008.41672	2783.9
2011.46859	2753
2014.51848	2742.5
2017.56639	2722.5
2020.61233	2704
2023.6563	2727.4
2026.6983	2668
2029.73833	2679.8
2032.7764	2686.7
2035.8125	2652.9
2038.84664	2660.1
2041.87881	2654.6
2044.90903	2671.3
2047.93729	2648.4
2050.96359	2619
2053.98794	2627
2057.01034	2628.6
2060.03078	2597
2063.04927	2597.6
2066.06582	2592.2
2069.08042	2572.7
2072.09307	2571
2075.10378	2567.7
2078.11255	2565.2
2081.11938	2576.2
2084.12426	2562.3
2087.12722	2563.5
2090.12824	2555.9
2093.12732	2556.4
2096.12447	2562.5
2099.11969	2552.9
2102.11299	2557.3
2105.10435	2577.3
2108.09379	2563.1
2111.08131	2565.3
2114.0669	2567.5
2117.05057	2562.8
2120.03233	2578.2
2123.01216	2600
2125.99008	2602.4
2128.96609	2597.5
2131.94018	2616.4
2134.91236	2601.6
2137.88263	2573.9
2140.851	2567.9
2143.81746	2582.2
2146.78201	2565
2149.74466	2538.6
2152.7054	2540.8
2155.66425	2524.6
2158.6212	2518.4
2161.57625	2488.4
2164.52941	2473.6
2167.48067	2482.7
2170.43004	2490.1
2173.37752	2513.7
2176.32311	2509.4
2179.26681	2505.2
2182.20863	2512
2185.14856	2498.5
2188.08661	2508
2191.02278	2502.3
2193.95707	2473.8
2196.88948	2461.5
2199.82001	2469.2
2202.74867	2450.2
2205.67545	2462.2
2208.60037	2472.3
2211.52341	2458.6
2214.44458	2443.2
2217.36388	2441.9
2220.28132	2421.7
2223.1969	2408.6
2226.11061	2411.5
2229.02246	2404.7
2231.93245	2403.6
2234.84058	2390.4
2237.74686	2373.7
2240.65128	2370.7
2243.55385	2387.2
2246.45456	2360.2
2249.35343	2389.5
2252.25044	2386.5
2255.14561	2415.4
2258.03893	2417.5
2260.93041	2423.5
2263.82004	2430.3
2266.70783	2425.9
2269.59378	2409.6
2272.4779	2393.9
2275.36017	2404.7
2278.24061	2390.2
2281.11922	2365.3
2283.996	2359.9
2286.87094	2343.7
2289.74405	2358.6
2292.61534	2329.2
2295.4848	2316.7
2298.35243	2306.6
2301.21824	2291.3
2304.08223	2298
2306.94439	2304.4
2309.80474	2294.3
2312.66327	2291.8
2315.51999	2276.6
2318.37489	2276.7
2321.22797	2261.3
2324.07925	2248.5
2326.92871	2245
2329.77637	2231.5
2332.62222	2241.1
2335.46626	2227.1
2338.3085	2216.5
2341.14893	2249.1
2343.98756	2248.9
2346.8244	2245
2349.65943	2235.4
2352.49267	2226.9
2355.32411	2253.8
2358.15376	2262.9
2360.98161	2270.3
2363.80768	2269
2366.63195	2285.6
2369.45444	2302.6
2372.27514	2301
2375.09405	2305.9
2377.91118	2259.8
2380.72652	2256.3
2383.54009	2253.6
2386.35187	2251.8
2389.16188	2233.8
2391.97011	2211
2394.77657	2195.9
2397.58125	2192.2
2400.38416	2169.2
2403.18529	2159.4
2405.98466	2144.4
2408.78226	2156.9
2411.57809	2146.8
2414.37216	2135.9
2417.16446	2142.1
2419.955	2122.9
2422.74378	2137.3
2425.5308	2125.9
2428.31606	2139
2431.09956	2153.8
2433.88131	2132.6
2436.6613	2142.7
2439.43954	2135.5
2442.21603	2141.5
2444.99077	2146.2
2447.76377	2144.3
2450.53501	2158.6
2453.30451	2152.2
2456.07226	2164.7
2458.83827	2135.8
2461.60254	2099.9
2464.36507	2148.6
2467.12586	2117
2469.88492	2130.2
2472.64224	2131.2
2475.39782	2119
2478.15167	2143
2480.90379	2129.9
2483.65417	2165.3
2486.40283	2179.2
2489.14976	2197.1
2491.89497	2178.7
2494.63845	2178.7
2497.3802	2167
2500.12024	2159.2
2502.85855	2134.7
2505.59514	2144.7
2508.33002	2110.3
2511.06318	2076
2513.79462	2077
2516.52435	2023.7
2519.25237	1985.7
2521.97867	1990.6
2524.70327	1982.4
2527.42616	1991.5
2530.14734	1992.4
2532.86681	1968.1
2535.58458	1976.1
2538.30065	1967.8
2541.01501	1993.1
2543.72768	1968.2
2546.43864	1974.9
2549.14791	1973.2
2551.85548	1958.3
2554.56136	1963.9
2557.26554	1981.3
2559.96803	1969.5
2562.66883	1983.6
2565.36794	1968.4
2568.06536	1949.5
2570.7611	1961.8
2573.45514	1959.7
2576.14751	1947.3
2578.83819	1935.4
2581.52719	1928.1
2584.21451	1931.3
2586.90015	1899.4
2589.58411	1894.9
2592.2664	1916
2594.94701	1908.7
2597.62594	1910.8
2600.30321	1843.2
2602.9788	1874.3
2605.65273	1867.6
2608.32498	1880.1
2610.99557	1889.1
2613.66449	1862.1
2616.33175	1888.1
2618.99734	1884.6
2621.66128	1889.1
2624.32355	1864.2
2626.98416	1857.1
2629.64311	1835.9
2632.30041	1838
2634.95605	1824.2
2637.61004	1805.8
2640.26238	1785.7
2642.91306	1789
2645.56209	1806
2648.20948	1788.5
2650.85521	1781.5
2653.4993	1804.1
2656.14175	1790
2658.78255	1788.9
2661.42171	1772.1
2664.05923	1806.3
2666.6951	1812.8
2669.32934	1824.9
2671.96194	1840.5
2674.59291	1824.6
2677.22224	1832
2679.84993	1820.7
2682.476	1814
2685.10043	1804.3
2687.72324	1790.4
2690.34441	1786.4
2692.96396	1793.5
2695.58188	1805.3
2698.19818	1793.3
2700.81285	1774.8
2703.4259	1775.8
2706.03733	1742.1
2708.64714	1748.6
2711.25533	1774.3
2713.86191	1780.9
2716.46687	1787.8
2719.07021	1784.8
2721.67194	1791.7
2724.27206	1795
2726.87057	1765.7
2729.46747	1762.9
2732.06276	1757.1
2734.65644	1737.3
2737.24852	1749.9
2739.83899	1720.8
2742.42786	1735.3
2745.01513	1731.9
2747.60079	1706.5
2750.18486	1694.7
2752.76733	1702.2
2755.3482	1691.9
2757.92747	1695.1
2760.50515	1664.7
2763.08123	1665.3
2765.65573	1678
2768.22863	1661.7
2770.79994	1645.7
2773.36967	1656.9
2775.9378	1640.2
2778.50435	1645
2781.06932	1645.5
2783.6327	1632.5
2786.1945	1653.6
2788.75471	1637.9
2791.31335	1643.1
2793.87041	1640.8
2796.42589	1630.8
2798.97979	1620.8
2801.53212	1639.9
2804.08288	1662.1
2806.63206	1636.1
2809.17967	1638.3
2811.72571	1664.5
2814.27018	1667.9
2816.81308	1657.9
2819.35442	1642.4
2821.89419	1667.1
2824.43239	1661.4
2826.96904	1697.8
2829.50412	1673.6
2832.03763	1669.3
2834.56959	1674.1
2837.1	1651.1
2839.62884	1650.1
2842.15613	1640.3
2844.68186	1646.7
2847.20604	1623.3
2849.72867	1627.9
2852.24974	1640.7
2854.76927	1621
2857.28724	1588.3
2859.80367	1648.7
2862.31855	1674.3
2864.83189	1671.2
2867.34368	1679.1
2869.85393	1701
2872.36264	1680.7
2874.8698	1689.2
2877.37543	1680.4
2879.87952	1669.3
2882.38207	1645.3
2884.88308	1640.4
2887.38256	1649.1
2889.88051	1621.5
2892.37692	1619.2
2894.8718	1592.2
2897.36515	1615.4
2899.85698	1614
2902.34727	1610.4
2904.83604	1619.3
2907.32328	1642.1
2909.809	1655.6
2912.29319	1653.7
2914.77587	1671.5
2917.25702	1677.6
2919.73665	1684.8
2922.21476	1658.9
2924.69136	1651.1
2927.16644	1619.8
2929.64	1614.7
2932.11205	1597.5
2934.58258	1600.4
2937.05161	1584.1
2939.51912	1574.6
2941.98513	1595.6
2944.44962	1578
2946.91261	1553.4
2949.37409	1564.6
2951.83407	1565.4
2954.29254	1567.1
2956.74951	1584.5
2959.20498	1561.8
2961.65895	1565.3
2964.11142	1562.6
2966.56239	1556.5
2969.01186	1552.9
2971.45984	1539.9
2973.90632	1554.5
2976.35131	1560.8
2978.7948	1559.8
2981.23681	1554.4
2983.67732	1554.1
2986.11635	1555.2
2988.55388	1528.2
2990.98993	1548.7
2993.4245	1542.9
2995.85758	1532.7
2998.28917	1534.5
3000.71928	1523.7
3003.14791	1527.9
3005.57506	1519.8
3008.00073	1508.5
3010.42493	1456.5
3012.84764	1506.7
3015.26888	1513.5
3017.68865	1498.3
3020.10694	1453.3
3022.52376	1472.7
3024.9391	1470.1
3027.35298	1457
3029.76539	1432.4
3032.17632	1436.5
3034.5858	1420.9
3036.9938	1418.1
3039.40034	1406
3041.80542	1396.4
3044.20903	1379.9
3046.61118	1375.7
3049.01187	1379.5
3051.4111	1368.2
3053.80888	1361.4
3056.20519	1354
3058.60005	1335.6
3060.99345	1364
3063.3854	1337.2
3065.7759	1332.5
3068.16494	1321.3
3070.55254	1317.5
3072.93868	1334.8
3075.32338	1321
3077.70662	1310
3080.08842	1293.9
3082.46878	1292.2
3084.84769	1314.2
3087.22515	1296.6
3089.60118	1297.6
3091.97576	1289.2
3094.3489	1297
3096.72061	1296.1
3099.09087	1276.9
3101.4597	1286.1
3103.82709	1276.6
3106.19305	1265.6
3108.55757	1276
3110.92066	1276.4
3113.28232	1283.5
3115.64255	1279.9
3118.00134	1276.4
3120.35871	1268
3122.71466	1248.9
3125.06917	1262.3
3127.42226	1257.4
3129.77393	1237.2
3132.12417	1257.6
3134.47299	1257.1
3136.82039	1241.9
3139.16636	1227.3
3141.51092	1239.3
3143.85406	1253.5
3146.19579	1234.1
3148.53609	1240.9
3150.87499	1243.2
3153.21246	1235
3155.54853	1243.5
3157.88318	1252
3160.21642	1245.3
3162.54826	1240.3
3164.87868	1241.5
3167.2077	1205.7
3169.5353	1230.6
3171.86151	1237.2
3174.18631	1220.4
3176.5097	1218.4
3178.83169	1213.4
3181.15228	1209.4
3183.47147	1185
3185.78926	1168.1
3188.10565	1186.1
3190.42065	1159.4
3192.73424	1182.3
3195.04645	1169.6
3197.35725	1153
3199.66667	1175.4
3201.97469	1166.9
3204.28132	1162
3206.58656	1168.6
3208.8904	1184.3
3211.19287	1169.5
3213.49394	1171.2
3215.79363	1162.3
3218.09193	1181.7
3220.38884	1175.2
3222.68438	1175.5
3224.97853	1153.6
3227.2713	1165.3
3229.56269	1150.9
3231.8527	1163.2
3234.14133	1148.8
3236.42858	1150
3238.71446	1127.7
3240.99896	1143.6
3243.28209	1126.8
3245.56384	1136.8
3247.84423	1121.1
3250.12324	1133.2
3252.40088	1129.9
3254.67715	1110.4
3256.95205	1110.9
3259.22558	1132.8
3261.49775	1114.7
3263.76855	1112.5
3266.03799	1128.4
3268.30606	1122.1
3270.57277	1126.9
3272.83812	1105.7
3275.10211	1124.7
3277.36474	1128.6
3279.62601	1124.6
3281.88593	1112.5
3284.14448	1100.2
3286.40168	1122.5
3288.65753	1113.1
3290.91202	1126.7
3293.16516	1119.9
3295.41695	1146.5
3297.66738	1148.8
3299.91647	1135
3302.16421	1136.8
3304.4106	1109.4
3306.65564	1130.8
3308.89933	1099.8
3311.14169	1101.9
3313.38269	1105.8
3315.62236	1091.8
3317.86068	1087.9
3320.09766	1089.4
3322.3333	1063.6
3324.5676	1066.1
3326.80056	1059.3
3329.03219	1064.3
3331.26248	1.3
3333.49143	-1.7
3335.71905	0
