Data from AgNPs_UA_5uM_CRN_500uM_SU_RamanShift__31__11-34-33-145.txt Node

Date: Thu Aug 04 11:34:33 BST 2022
User: TCL
Spectrometer: QEP01345
Trigger mode: 4
Integration Time (sec): 1.000000E0
Scans to average: 10
Electric dark correction enabled: true
Nonlinearity correction enabled: false
Boxcar width: 0
XAxis mode: Raman Shifts
Number of Pixels in Spectrum: 1044
>>>>>Begin Spectral Data<<<<<
46.04893	-0.6625
50.45542	0.6375
54.85868	-1.2625
59.25871	-1.3625
63.6555	-53.1625
68.04907	-35.4625
72.43941	-64.3625
76.82654	-50.7625
81.21044	-50.5625
85.59113	-44.6625
89.96862	-68.2625
94.34289	-47.3625
98.71396	-70.0625
103.08183	-51.4625
107.4465	-42.4625
111.80798	-45.5625
116.16626	-35.3625
120.52136	-64.6625
124.87327	-37.1625
129.222	-50.3625
133.56755	-33.6625
137.90993	-46.0625
142.24913	-29.7625
146.58517	-17.9625
150.91804	-9.9625
155.24774	10.0375
159.57429	45.2375
163.89768	69.9375
168.21792	143.2375
172.53501	207.5375
176.84895	356.5375
181.15975	582.9375
185.46741	873.2375
189.77193	1214.6375
194.07331	1723.2375
198.37157	2254.3375
202.6667	2801.3375
206.9587	3431.2375
211.24758	4078.6375
215.53334	4792.9375
219.81599	5635.8375
224.09553	6612.5375
228.37195	7615.2375
232.64527	8579.2375
236.91549	9316.7375
241.18261	9703.0375
245.44663	9838.4375
249.70755	9782.9375
253.96539	9796.3375
258.22014	9902.1375
262.4718	9986.0375
266.72039	9981.5375
270.96589	9742.9375
275.20832	9314.1375
279.44768	8890.2375
283.68397	8570.6375
287.91719	8500.6375
292.14735	8694.5375
296.37445	9353.6375
300.59849	10517.1375
304.81948	12113.8375
309.03742	13929.4375
313.25231	15252.2375
317.46415	15081.7375
321.67296	13231.2375
325.87872	11065.0375
330.08145	9811.1375
334.28114	9544.4375
338.47781	9883.2375
342.67145	10610.6375
346.86207	11738.2375
351.04966	13447.8375
355.23424	15128.6375
359.4158	15769.0375
363.59435	15136.8375
367.76989	14093.4375
371.94243	13089.8375
376.11196	12251.0375
380.27849	11651.2375
384.44203	11159.0375
388.60257	10910.7375
392.76012	10941.3375
396.91468	11294.0375
401.06626	11764.7375
405.21485	11754.4375
409.36047	11012.3375
413.50311	9674.1375
417.64277	8439.4375
421.77947	7675.4375
425.9132	7305.4375
430.04396	7156.5375
434.17176	7119.6375
438.2966	7271.3375
442.41849	7521.8375
446.53742	7775.9375
450.6534	7942.4375
454.76644	7934.2375
458.87653	7792.5375
462.98368	7616.8375
467.08789	7411.0375
471.18916	7160.7375
475.2875	6789.6375
479.38291	6493.0375
483.4754	6307.3375
487.56496	6213.2375
491.6516	6129.5375
495.73531	6119.9375
499.81612	6189.7375
503.89401	6373.0375
507.96899	6619.0375
512.04106	6940.4375
516.11023	7277.9375
520.1765	7529.2375
524.23987	7626.5375
528.30034	7597.9375
532.35792	7464.1375
536.41261	7300.8375
540.46441	7029.5375
544.51333	6831.4375
548.55936	6804.8375
552.60252	7010.3375
556.64279	7287.5375
560.6802	7807.8375
564.71473	9027.2375
568.7464	10604.9375
572.7752	10538.4375
576.80114	8549.6375
580.82422	6899.6375
584.84444	6224.8375
588.86181	5991.7375
592.87633	5985.6375
596.888	6204.9375
600.89682	7191.6375
604.9028	10407.9375
608.90594	18657.3375
612.90624	28655.3375
616.90371	25895.4375
620.89834	13508.1375
624.89015	8145.8375
628.87913	7567.0375
632.86528	8322.9375
636.84862	8633.4375
640.82913	7597.8375
644.80683	6301.6375
648.78172	5730.6375
652.75379	5942.3375
656.72306	6892.4375
660.68952	7857.2375
664.65319	7321.1375
668.61405	6040.3375
672.57211	5517.6375
676.52738	5522.3375
680.47986	5440.7375
684.42955	5261.4375
688.37646	5160.0375
692.32058	5167.1375
696.26192	5298.1375
700.20048	5434.0375
704.13626	5479.9375
708.06928	5379.1375
711.99952	5332.1375
715.927	5402.0375
719.85171	5682.7375
723.77365	5849.7375
727.69284	5684.7375
731.60928	5489.4375
735.52295	5438.9375
739.43388	5501.2375
743.34206	5545.9375
747.24749	5556.0375
751.15017	5576.9375
755.05012	6016.7375
758.94733	7638.6375
762.8418	11288.9375
766.73354	16008.1375
770.62254	18367.3375
774.50882	17396.4375
778.39237	15458.4375
782.27321	12637.1375
786.15132	9150.4375
790.02671	6845.9375
793.89938	5824.5375
797.76935	5479.9375
801.6366	5316.3375
805.50115	5223.9375
809.36299	5171.0375
813.22213	5146.0375
817.07857	5147.8375
820.93231	5196.7375
824.78336	5326.3375
828.63172	5461.5375
832.47738	5531.6375
836.32036	5405.0375
840.16066	5121.2375
843.99827	4968.8375
847.8332	4904.1375
851.66546	4911.8375
855.49504	4880.0375
859.32195	4870.8375
863.1462	4821.5375
866.96777	4804.1375
870.78668	4788.9375
874.60293	4838.4375
878.41652	4917.5375
882.22745	5103.1375
886.03573	5222.0375
889.84136	5175.0375
893.64433	5142.4375
897.44466	5156.2375
901.24235	5185.6375
905.0374	5069.2375
908.8298	4854.7375
912.61957	4714.6375
916.40671	4611.8375
920.19121	4678.5375
923.97308	4923.3375
927.75233	5441.7375
931.52895	5966.9375
935.30295	5661.4375
939.07433	4925.6375
942.84309	4450.4375
946.60924	4289.2375
950.37278	4207.0375
954.13371	4199.6375
957.89203	4175.5375
961.64774	4200.3375
965.40086	4156.8375
969.15137	4122.4375
972.89929	4150.4375
976.64461	4105.6375
980.38733	4112.3375
984.12747	4098.5375
987.86502	4110.7375
991.59999	4148.5375
995.33237	4243.1375
999.06217	4367.4375
1002.78939	4593.5375
1006.51404	4971.0375
1010.23611	5146.4375
1013.95561	4949.5375
1017.67255	4722.0375
1021.38692	4509.8375
1025.09872	4345.2375
1028.80796	4253.6375
1032.51465	4288.0375
1036.21877	4349.9375
1039.92035	4432.7375
1043.61937	4500.3375
1047.31584	4577.5375
1051.00976	4623.4375
1054.70114	4530.7375
1058.38998	4456.9375
1062.07627	4420.6375
1065.76003	4419.0375
1069.44126	4483.2375
1073.11995	4634.2375
1076.79611	4949.4375
1080.46974	5561.1375
1084.14085	6464.1375
1087.80943	7179.7375
1091.47549	7119.2375
1095.13903	6366.6375
1098.80005	5588.4375
1102.45857	5200.1375
1106.11456	5150.7375
1109.76805	5302.3375
1113.41903	5792.1375
1117.06751	6602.2375
1120.71348	7881.0375
1124.35696	9775.8375
1127.99793	11019.0375
1131.63641	10009.0375
1135.2724	8021.2375
1138.90589	6726.9375
1142.5369	5983.2375
1146.16542	5514.6375
1149.79145	5230.9375
1153.415	5142.2375
1157.03607	5232.9375
1160.65467	5518.5375
1164.27079	6011.1375
1167.88443	6739.7375
1171.49561	7980.4375
1175.10432	10085.4375
1178.71056	12920.4375
1182.31434	14870.0375
1185.91565	14483.5375
1189.51451	12619.3375
1193.11091	10673.9375
1196.70485	9421.7375
1200.29634	8936.7375
1203.88538	8341.0375
1207.47197	7160.0375
1211.05612	6049.6375
1214.63782	5348.7375
1218.21708	5036.0375
1221.79391	4931.3375
1225.36829	4909.5375
1228.94024	4908.3375
1232.50976	4901.0375
1236.07685	4900.7375
1239.6415	4998.7375
1243.20374	5131.3375
1246.76355	5328.3375
1250.32093	5618.5375
1253.8759	5988.2375
1257.42845	6637.6375
1260.97859	7462.8375
1264.52631	8222.8375
1268.07163	8578.2375
1271.61453	8546.3375
1275.15503	8236.8375
1278.69312	7914.0375
1282.22882	8149.2375
1285.76211	9256.9375
1289.29301	10726.9375
1292.82151	11704.0375
1296.34761	12120.0375
1299.87133	13091.6375
1303.39266	15613.8375
1306.9116	20277.5375
1310.42815	26088.3375
1313.94233	28316.5375
1317.45412	24051.6375
1320.96354	17555.4375
1324.47058	12628.8375
1327.97525	9658.5375
1331.47754	8179.0375
1334.97747	7695.6375
1338.47502	7898.5375
1341.97022	9055.7375
1345.46305	11580.5375
1348.95352	15127.7375
1352.44163	18844.3375
1355.92738	23555.9375
1359.41078	31728.3375
1362.89183	40199.1375
1366.37053	37936.7375
1369.84688	25895.7375
1373.32088	16096.2375
1376.79254	11909.0375
1380.26186	9994.5375
1383.72883	8542.8375
1387.19347	7216.0375
1390.65578	6220.4375
1394.11575	5681.4375
1397.57339	5403.7375
1401.0287	5231.2375
1404.48168	5039.6375
1407.93234	4948.4375
1411.38068	5066.1375
1414.82669	5506.9375
1418.27039	5990.7375
1421.71177	6093.4375
1425.15083	5864.5375
1428.58758	5987.9375
1432.02203	6655.9375
1435.45416	7145.5375
1438.88399	6807.5375
1442.31151	6356.8375
1445.73673	6238.6375
1449.15965	6194.7375
1452.58027	6014.4375
1455.9986	5774.3375
1459.41463	5591.5375
1462.82837	5592.7375
1466.23982	5871.7375
1469.64898	6249.5375
1473.05586	6359.8375
1476.46045	6314.4375
1479.86276	6361.7375
1483.26279	6701.6375
1486.66054	7423.7375
1490.05602	8560.3375
1493.44922	10396.9375
1496.84016	13316.9375
1500.22882	17760.0375
1503.61521	24109.6375
1506.99934	32351.8375
1510.38121	40717.2375
1513.76081	44353.7375
1517.13816	39627.1375
1520.51324	29655.3375
1523.88607	20393.5375
1527.25665	14452.9375
1530.62498	11033.2375
1533.99105	9048.8375
1537.35488	7749.8375
1540.71647	7029.3375
1544.07581	6744.3375
1547.4329	6731.4375
1550.78776	6927.7375
1554.14038	7325.4375
1557.49077	7963.0375
1560.83892	9116.6375
1564.18484	10931.3375
1567.52853	12834.9375
1570.86999	13832.5375
1574.20922	13874.5375
1577.54624	13049.3375
1580.88103	10843.7375
1584.2136	8239.8375
1587.54395	6711.0375
1590.87208	6374.9375
1594.19801	6849.7375
1597.52172	7699.1375
1600.84321	7735.2375
1604.16251	6811.2375
1607.47959	5930.3375
1610.79447	5406.9375
1614.10715	4988.3375
1617.41763	4703.3375
1620.7259	4560.2375
1624.03199	4670.0375
1627.33587	4878.8375
1630.63757	5332.9375
1633.93707	6175.7375
1637.23439	7675.9375
1640.52951	10434.8375
1643.82246	15135.0375
1647.11321	21534.1375
1650.40179	26514.0375
1653.68819	25992.7375
1656.97241	20073.1375
1660.25446	13319.2375
1663.53433	8761.4375
1666.81203	6287.6375
1670.08756	5043.3375
1673.36092	4366.3375
1676.63211	3911.8375
1679.90115	3663.9375
1683.16801	3468.5375
1686.43272	3325.9375
1689.69527	3248.1375
1692.95567	3142.8375
1696.2139	3107.7375
1699.46999	3043.0375
1702.72392	3025.1375
1705.97571	3024.3375
1709.22535	3001.7375
1712.47284	3049.8375
1715.71819	3092.4375
1718.96139	3087.6375
1722.20246	3054.9375
1725.44139	2982.9375
1728.67818	2904.1375
1731.91284	2810.7375
1735.14537	2755.5375
1738.37576	2711.9375
1741.60403	2685.8375
1744.83017	2638.7375
1748.05418	2628.5375
1751.27607	2608.6375
1754.49584	2534.9375
1757.71349	2487.4375
1760.92903	2450.7375
1764.14244	2363.7375
1767.35375	2337.6375
1770.56294	2292.9375
1773.77002	2229.0375
1776.97499	2216.2375
1780.17785	2164.2375
1783.37861	2133.4375
1786.57727	2141.6375
1789.77382	2068.8375
1792.96828	2103.7375
1796.16064	2116.6375
1799.3509	2098.3375
1802.53907	2105.2375
1805.72514	2064.9375
1808.90913	2050.4375
1812.09102	2035.4375
1815.27083	2019.7375
1818.44856	2010.6375
1821.6242	2009.9375
1824.79776	1998.2375
1827.96924	1984.3375
1831.13864	1945.6375
1834.30597	1938.1375
1837.47122	1908.4375
1840.6344	1882.5375
1843.7955	1846.5375
1846.95454	1830.9375
1850.11151	1838.9375
1853.26642	1800.8375
1856.41926	1798.6375
1859.57004	1814.3375
1862.71876	1810.7375
1865.86542	1820.8375
1869.01003	1828.5375
1872.15258	1814.4375
1875.29308	1844.1375
1878.43152	1850.1375
1881.56792	1835.0375
1884.70227	1814.8375
1887.83457	1812.1375
1890.96482	1772.3375
1894.09304	1765.1375
1897.21921	1749.8375
1900.34335	1763.3375
1903.46544	1745.5375
1906.58551	1761.2375
1909.70353	1752.2375
1912.81953	1740.2375
1915.93349	1738.9375
1919.04543	1730.9375
1922.15534	1707.1375
1925.26322	1693.9375
1928.36908	1664.9375
1931.47292	1647.9375
1934.57473	1626.6375
1937.67453	1581.0375
1940.77232	1548.2375
1943.86808	1533.1375
1946.96184	1533.7375
1950.05358	1507.2375
1953.14331	1506.2375
1956.23103	1527.7375
1959.31675	1510.9375
1962.40046	1481.4375
1965.48217	1537.0375
1968.56188	1553.5375
1971.63959	1566.9375
1974.7153	1576.1375
1977.78901	1562.3375
1980.86073	1520.8375
1983.93046	1469.8375
1986.99819	1380.5375
1990.06394	1395.4375
1993.1277	1410.8375
1996.18947	1394.2375
1999.24925	1357.8375
2002.30706	1369.0375
2005.36288	1360.2375
2008.41672	1338.9375
2011.46859	1318.6375
2014.51848	1314.5375
2017.56639	1294.5375
2020.61233	1283.5375
2023.6563	1285.9375
2026.6983	1258.6375
2029.73833	1268.0375
2032.7764	1274.3375
2035.8125	1241.8375
2038.84664	1243.6375
2041.87881	1237.5375
2044.90903	1263.3375
2047.93729	1248.4375
2050.96359	1218.1375
2053.98794	1212.8375
2057.01034	1222.0375
2060.03078	1199.0375
2063.04927	1175.7375
2066.06582	1172.6375
2069.08042	1151.7375
2072.09307	1153.1375
2075.10378	1155.7375
2078.11255	1154.6375
2081.11938	1148.4375
2084.12426	1151.8375
2087.12722	1147.4375
2090.12824	1145.1375
2093.12732	1144.8375
2096.12447	1140.7375
2099.11969	1141.4375
2102.11299	1130.4375
2105.10435	1153.4375
2108.09379	1147.9375
2111.08131	1142.2375
2114.0669	1157.7375
2117.05057	1151.5375
2120.03233	1159.7375
2123.01216	1204.0375
2125.99008	1221.9375
2128.96609	1227.2375
2131.94018	1234.0375
2134.91236	1203.4375
2137.88263	1178.0375
2140.851	1156.7375
2143.81746	1165.3375
2146.78201	1127.7375
2149.74466	1104.7375
2152.7054	1096.7375
2155.66425	1073.7375
2158.6212	1065.5375
2161.57625	1035.4375
2164.52941	1023.4375
2167.48067	1036.6375
2170.43004	1033.2375
2173.37752	1069.2375
2176.32311	1061.8375
2179.26681	1080.6375
2182.20863	1077.6375
2185.14856	1075.6375
2188.08661	1071.6375
2191.02278	1068.0375
2193.95707	1033.6375
2196.88948	1010.3375
2199.82001	1010.1375
2202.74867	1002.0375
2205.67545	1010.6375
2208.60037	1015.1375
2211.52341	1012.9375
2214.44458	998.5375
2217.36388	996.0375
2220.28132	982.6375
2223.1969	976.0375
2226.11061	977.2375
2229.02246	960.4375
2231.93245	971.3375
2234.84058	948.3375
2237.74686	948.8375
2240.65128	948.0375
2243.55385	960.3375
2246.45456	946.2375
2249.35343	979.1375
2252.25044	984.4375
2255.14561	1015.5375
2258.03893	1045.3375
2260.93041	1068.1375
2263.82004	1084.0375
2266.70783	1095.3375
2269.59378	1069.2375
2272.4779	1057.3375
2275.36017	1069.8375
2278.24061	1055.2375
2281.11922	1023.6375
2283.996	1032.5375
2286.87094	1001.0375
2289.74405	1003.5375
2292.61534	988.0375
2295.4848	963.4375
2298.35243	954.3375
2301.21824	935.9375
2304.08223	927.4375
2306.94439	931.5375
2309.80474	935.8375
2312.66327	939.7375
2315.51999	922.4375
2318.37489	928.1375
2321.22797	900.0375
2324.07925	905.4375
2326.92871	908.1375
2329.77637	896.9375
2332.62222	904.0375
2335.46626	889.2375
2338.3085	893.4375
2341.14893	913.6375
2343.98756	932.7375
2346.8244	915.1375
2349.65943	916.5375
2352.49267	935.8375
2355.32411	948.2375
2358.15376	964.3375
2360.98161	994.7375
2363.80768	988.7375
2366.63195	1014.3375
2369.45444	1038.2375
2372.27514	1032.2375
2375.09405	1054.4375
2377.91118	1011.3375
2380.72652	993.1375
2383.54009	992.1375
2386.35187	987.3375
2389.16188	949.3375
2391.97011	941.1375
2394.77657	923.2375
2397.58125	921.0375
2400.38416	901.0375
2403.18529	886.0375
2405.98466	869.5375
2408.78226	880.0375
2411.57809	867.2375
2414.37216	860.8375
2417.16446	865.2375
2419.955	848.6375
2422.74378	880.1375
2425.5308	863.1375
2428.31606	880.9375
2431.09956	889.5375
2433.88131	883.3375
2436.6613	904.4375
2439.43954	906.5375
2442.21603	910.0375
2444.99077	911.9375
2447.76377	930.1375
2450.53501	937.0375
2453.30451	933.7375
2456.07226	947.5375
2458.83827	938.8375
2461.60254	897.3375
2464.36507	926.8375
2467.12586	915.3375
2469.88492	933.9375
2472.64224	920.8375
2475.39782	928.6375
2478.15167	955.5375
2480.90379	961.3375
2483.65417	1001.0375
2486.40283	1027.6375
2489.14976	1040.0375
2491.89497	1036.9375
2494.63845	1035.2375
2497.3802	1032.9375
2500.12024	1012.1375
2502.85855	997.6375
2505.59514	987.5375
2508.33002	958.1375
2511.06318	913.9375
2513.79462	891.8375
2516.52435	836.1375
2519.25237	793.7375
2521.97867	795.1375
2524.70327	784.3375
2527.42616	768.4375
2530.14734	786.8375
2532.86681	762.3375
2535.58458	763.9375
2538.30065	763.2375
2541.01501	790.0375
2543.72768	775.5375
2546.43864	795.1375
2549.14791	798.4375
2551.85548	795.3375
2554.56136	800.4375
2557.26554	819.6375
2559.96803	824.7375
2562.66883	822.1375
2565.36794	822.7375
2568.06536	797.8375
2570.7611	827.0375
2573.45514	819.0375
2576.14751	813.1375
2578.83819	797.2375
2581.52719	787.6375
2584.21451	787.5375
2586.90015	764.8375
2589.58411	747.8375
2592.2664	765.4375
2594.94701	769.6375
2597.62594	771.7375
2600.30321	720.2375
2602.9788	744.4375
2605.65273	747.5375
2608.32498	755.2375
2610.99557	782.1375
2613.66449	758.3375
2616.33175	780.5375
2618.99734	781.0375
2621.66128	785.2375
2624.32355	773.4375
2626.98416	747.6375
2629.64311	741.5375
2632.30041	732.6375
2634.95605	712.3375
2637.61004	692.3375
2640.26238	682.9375
2642.91306	680.9375
2645.56209	693.7375
2648.20948	685.4375
2650.85521	676.9375
2653.4993	706.4375
2656.14175	701.0375
2658.78255	700.3375
2661.42171	681.0375
2664.05923	725.1375
2666.6951	732.4375
2669.32934	748.5375
2671.96194	764.9375
2674.59291	753.6375
2677.22224	755.8375
2679.84993	756.2375
2682.476	739.9375
2685.10043	733.5375
2687.72324	721.3375
2690.34441	712.4375
2692.96396	712.7375
2695.58188	724.4375
2698.19818	712.6375
2700.81285	694.2375
2703.4259	690.8375
2706.03733	673.2375
2708.64714	673.0375
2711.25533	718.6375
2713.86191	725.2375
2716.46687	720.0375
2719.07021	721.8375
2721.67194	718.3375
2724.27206	731.3375
2726.87057	699.5375
2729.46747	690.9375
2732.06276	686.0375
2734.65644	666.2375
2737.24852	670.3375
2739.83899	641.7375
2742.42786	655.9375
2745.01513	664.3375
2747.60079	628.6375
2750.18486	612.9375
2752.76733	619.6375
2755.3482	602.4375
2757.92747	609.5375
2760.50515	583.2375
2763.08123	583.1375
2765.65573	587.2375
2768.22863	576.9375
2770.79994	572.0375
2773.36967	577.1375
2775.9378	574.0375
2778.50435	580.7375
2781.06932	579.6375
2783.6327	569.3375
2786.1945	595.1375
2788.75471	587.0375
2791.31335	590.5375
2793.87041	599.8375
2796.42589	590.5375
2798.97979	595.2375
2801.53212	613.6375
2804.08288	643.5375
2806.63206	632.1375
2809.17967	638.9375
2811.72571	672.4375
2814.27018	682.9375
2816.81308	694.2375
2819.35442	682.2375
2821.89419	726.5375
2824.43239	727.4375
2826.96904	755.8375
2829.50412	744.6375
2832.03763	735.4375
2834.56959	723.7375
2837.1	710.4375
2839.62884	701.7375
2842.15613	691.1375
2844.68186	703.4375
2847.20604	680.4375
2849.72867	688.0375
2852.24974	711.0375
2854.76927	697.2375
2857.28724	662.6375
2859.80367	754.0375
2862.31855	777.7375
2864.83189	785.7375
2867.34368	808.9375
2869.85393	835.5375
2872.36264	819.5375
2874.8698	828.7375
2877.37543	832.2375
2879.87952	814.0375
2882.38207	780.5375
2884.88308	773.6375
2887.38256	762.9375
2889.88051	747.8375
2892.37692	741.7375
2894.8718	712.9375
2897.36515	731.0375
2899.85698	733.4375
2902.34727	741.3375
2904.83604	759.0375
2907.32328	779.8375
2909.809	800.1375
2912.29319	817.3375
2914.77587	826.2375
2917.25702	839.5375
2919.73665	821.5375
2922.21476	802.3375
2924.69136	787.1375
2927.16644	752.0375
2929.64	734.8375
2932.11205	709.6375
2934.58258	707.9375
2937.05161	695.8375
2939.51912	698.4375
2941.98513	713.7375
2944.44962	703.1375
2946.91261	682.6375
2949.37409	688.6375
2951.83407	692.2375
2954.29254	694.2375
2956.74951	711.2375
2959.20498	686.9375
2961.65895	695.5375
2964.11142	684.9375
2966.56239	684.4375
2969.01186	681.7375
2971.45984	672.9375
2973.90632	666.2375
2976.35131	687.6375
2978.7948	678.3375
2981.23681	671.2375
2983.67732	684.8375
2986.11635	682.1375
2988.55388	659.7375
2990.98993	674.7375
2993.4245	673.8375
2995.85758	673.9375
2998.28917	673.9375
3000.71928	678.5375
3003.14791	680.2375
3005.57506	673.5375
3008.00073	662.4375
3010.42493	611.2375
3012.84764	667.5375
3015.26888	670.4375
3017.68865	663.6375
3020.10694	622.8375
3022.52376	642.8375
3024.9391	633.8375
3027.35298	629.7375
3029.76539	600.0375
3032.17632	588.1375
3034.5858	577.3375
3036.9938	572.2375
3039.40034	556.2375
3041.80542	529.3375
3044.20903	510.7375
3046.61118	496.8375
3049.01187	516.1375
3051.4111	494.5375
3053.80888	493.6375
3056.20519	487.6375
3058.60005	478.5375
3060.99345	506.6375
3063.3854	478.1375
3065.7759	469.7375
3068.16494	470.2375
3070.55254	465.2375
3072.93868	488.5375
3075.32338	466.2375
3077.70662	461.5375
3080.08842	450.4375
3082.46878	444.7375
3084.84769	458.2375
3087.22515	437.2375
3089.60118	452.6375
3091.97576	428.5375
3094.3489	444.1375
3096.72061	432.2375
3099.09087	416.4375
3101.4597	434.3375
3103.82709	421.7375
3106.19305	413.3375
3108.55757	423.8375
3110.92066	412.7375
3113.28232	431.7375
3115.64255	433.5375
3118.00134	437.3375
3120.35871	417.3375
3122.71466	406.5375
3125.06917	420.1375
3127.42226	413.3375
3129.77393	405.7375
3132.12417	422.7375
3134.47299	432.1375
3136.82039	409.5375
3139.16636	395.5375
3141.51092	422.4375
3143.85406	429.0375
3146.19579	411.5375
3148.53609	415.2375
3150.87499	425.1375
3153.21246	416.4375
3155.54853	427.7375
3157.88318	430.4375
3160.21642	436.7375
3162.54826	428.7375
3164.87868	435.1375
3167.2077	394.3375
3169.5353	411.8375
3171.86151	419.6375
3174.18631	391.1375
3176.5097	392.4375
3178.83169	381.6375
3181.15228	375.4375
3183.47147	353.5375
3185.78926	338.4375
3188.10565	356.7375
3190.42065	334.2375
3192.73424	349.7375
3195.04645	338.9375
3197.35725	332.7375
3199.66667	347.5375
3201.97469	340.7375
3204.28132	339.8375
3206.58656	356.7375
3208.8904	368.0375
3211.19287	367.0375
3213.49394	353.5375
3215.79363	355.7375
3218.09193	373.7375
3220.38884	366.2375
3222.68438	365.3375
3224.97853	344.8375
3227.2713	371.1375
3229.56269	349.6375
3231.8527	356.9375
3234.14133	341.3375
3236.42858	340.7375
3238.71446	317.2375
3240.99896	347.1375
3243.28209	325.4375
3245.56384	334.8375
3247.84423	327.2375
3250.12324	338.4375
3252.40088	334.1375
3254.67715	323.2375
3256.95205	318.4375
3259.22558	330.6375
3261.49775	328.1375
3263.76855	322.1375
3266.03799	335.4375
3268.30606	338.5375
3270.57277	341.9375
3272.83812	330.2375
3275.10211	340.3375
3277.36474	363.2375
3279.62601	366.3375
3281.88593	359.3375
3284.14448	348.3375
3286.40168	385.8375
3288.65753	384.0375
3290.91202	391.7375
3293.16516	398.2375
3295.41695	432.0375
3297.66738	443.7375
3299.91647	437.6375
3302.16421	455.7375
3304.4106	427.2375
3306.65564	461.4375
3308.89933	442.4375
3311.14169	450.6375
3313.38269	458.6375
3315.62236	457.4375
3317.86068	455.9375
3320.09766	472.3375
3322.3333	455.7375
3324.5676	474.4375
3326.80056	471.2375
3329.03219	486.8375
3331.26248	0.5375
3333.49143	-0.2625
3335.71905	2.0375
