Data from AgNPs_UA_5uM_CRN_500uM_SU_RamanShift__16__11-32-03-141.txt Node

Date: Thu Aug 04 11:32:03 BST 2022
User: TCL
Spectrometer: QEP01345
Trigger mode: 4
Integration Time (sec): 1.000000E0
Scans to average: 10
Electric dark correction enabled: true
Nonlinearity correction enabled: false
Boxcar width: 0
XAxis mode: Raman Shifts
Number of Pixels in Spectrum: 1044
>>>>>Begin Spectral Data<<<<<
46.04893	-0.5
50.45542	-0.5
54.85868	0.5
59.25871	0.7
63.6555	-52.6
68.04907	-35.8
72.43941	-66.8
76.82654	-52.6
81.21044	-51.1
85.59113	-45
89.96862	-69.6
94.34289	-49
98.71396	-71
103.08183	-51.3
107.4465	-42
111.80798	-48.4
116.16626	-35.4
120.52136	-62.9
124.87327	-38.9
129.222	-50.3
133.56755	-36.7
137.90993	-45
142.24913	-29.9
146.58517	-20.3
150.91804	-12.9
155.24774	9
159.57429	42.7
163.89768	64.1
168.21792	137
172.53501	199.6
176.84895	345.8
181.15975	562.3
185.46741	839
189.77193	1184.2
194.07331	1659.3
198.37157	2193.6
202.6667	2722.8
206.9587	3329.2
211.24758	3951.8
215.53334	4659
219.81599	5474.9
224.09553	6395.2
228.37195	7393.3
232.64527	8310.9
236.91549	9040.9
241.18261	9435.5
245.44663	9540.2
249.70755	9499.8
253.96539	9501.3
258.22014	9595.3
262.4718	9688.1
266.72039	9684.1
270.96589	9431.1
275.20832	9028.5
279.44768	8616.2
283.68397	8323.6
287.91719	8227.4
292.14735	8446
296.37445	9074.1
300.59849	10194.6
304.81948	11761.4
309.03742	13545.1
313.25231	14820.3
317.46415	14627.7
321.67296	12806.8
325.87872	10696.5
330.08145	9503
334.28114	9244.6
338.47781	9597.2
342.67145	10291.6
346.86207	11395.5
351.04966	13062.9
355.23424	14705.2
359.4158	15303.9
363.59435	14719.9
367.76989	13719.6
371.94243	12748.8
376.11196	11922.8
380.27849	11334.4
384.44203	10864
388.60257	10576.4
392.76012	10628.2
396.91468	10971.1
401.06626	11414.8
405.21485	11447
409.36047	10673.8
413.50311	9390.2
417.64277	8210.3
421.77947	7425.6
425.9132	7094.1
430.04396	6921.9
434.17176	6898.7
438.2966	7031.6
442.41849	7273.6
446.53742	7550.1
450.6534	7684.9
454.76644	7664.4
458.87653	7536.4
462.98368	7373.4
467.08789	7199.1
471.18916	6932.7
475.2875	6582.1
479.38291	6289.5
483.4754	6110.3
487.56496	6020.7
491.6516	5950.5
495.73531	5914.4
499.81612	6013
503.89401	6191
507.96899	6423.3
512.04106	6732.8
516.11023	7069.9
520.1765	7309.1
524.23987	7419.3
528.30034	7386.7
532.35792	7255.8
536.41261	7055.8
540.46441	6821
544.51333	6624.8
548.55936	6620.9
552.60252	6795.1
556.64279	7073.5
560.6802	7589.2
564.71473	8761.7
568.7464	10290.7
572.7752	10225.8
576.80114	8266.4
580.82422	6696.8
584.84444	5997.4
588.86181	5797.9
592.87633	5792.3
596.888	6042.3
600.89682	6967.6
604.9028	10134.7
608.90594	18182.3
612.90624	27928.6
616.90371	25156.7
620.89834	13098.1
624.89015	7890.8
628.87913	7319.4
632.86528	8104.3
636.84862	8352.3
640.82913	7386.4
644.80683	6122.7
648.78172	5569
652.75379	5776
656.72306	6713.1
660.68952	7622.3
664.65319	7093.2
668.61405	5883.1
672.57211	5360
676.52738	5353.7
680.47986	5278.7
684.42955	5121.1
688.37646	5016
692.32058	5035.7
696.26192	5135.4
700.20048	5270.2
704.13626	5327.1
708.06928	5230.4
711.99952	5167.9
715.927	5257.9
719.85171	5513
723.77365	5697.6
727.69284	5515.5
731.60928	5327.4
735.52295	5256.9
739.43388	5347.2
743.34206	5383
747.24749	5383.3
751.15017	5440.2
755.05012	5839.7
758.94733	7423.7
762.8418	11002.9
766.73354	15547.9
770.62254	17848
774.50882	16943
778.39237	15082.6
782.27321	12311.9
786.15132	8901.6
790.02671	6691.4
793.89938	5678.2
797.76935	5328.5
801.6366	5176.2
805.50115	5086
809.36299	5029.1
813.22213	4991.7
817.07857	4996.1
820.93231	5057.6
824.78336	5175
828.63172	5313
832.47738	5377.4
836.32036	5242.1
840.16066	4971.8
843.99827	4811.4
847.8332	4769.7
851.66546	4770.3
855.49504	4738.9
859.32195	4737.9
863.1462	4682.1
866.96777	4665
870.78668	4649.7
874.60293	4713.9
878.41652	4790.8
882.22745	4980.8
886.03573	5067.3
889.84136	5039.8
893.64433	4999.6
897.44466	5004.6
901.24235	5024.3
905.0374	4935.4
908.8298	4711.3
912.61957	4575.8
916.40671	4484.7
920.19121	4534.6
923.97308	4781.8
927.75233	5267.2
931.52895	5775.4
935.30295	5477
939.07433	4755.7
942.84309	4312.7
946.60924	4143.5
950.37278	4075.8
954.13371	4058.9
957.89203	4052.7
961.64774	4067.2
965.40086	4026.6
969.15137	3996.5
972.89929	4024
976.64461	4005
980.38733	4009.6
984.12747	3976.5
987.86502	3986.1
991.59999	4026.8
995.33237	4112.4
999.06217	4243.4
1002.78939	4449.6
1006.51404	4820.3
1010.23611	4983.6
1013.95561	4801.4
1017.67255	4578.1
1021.38692	4377.1
1025.09872	4211.4
1028.80796	4119.3
1032.51465	4173.4
1036.21877	4221.6
1039.92035	4293.2
1043.61937	4377.1
1047.31584	4455.6
1051.00976	4481.4
1054.70114	4405.2
1058.38998	4331.6
1062.07627	4299.8
1065.76003	4298
1069.44126	4367.9
1073.11995	4468.8
1076.79611	4800.2
1080.46974	5402.4
1084.14085	6250.1
1087.80943	6966.4
1091.47549	6902.7
1095.13903	6162.4
1098.80005	5443.1
1102.45857	5023.9
1106.11456	4992.1
1109.76805	5143.3
1113.41903	5646.2
1117.06751	6402.8
1120.71348	7653.2
1124.35696	9478.2
1127.99793	10721.4
1131.63641	9703
1135.2724	7812
1138.90589	6528.4
1142.5369	5794
1146.16542	5352.3
1149.79145	5084
1153.415	4996.2
1157.03607	5091.1
1160.65467	5365.4
1164.27079	5835.1
1167.88443	6549.7
1171.49561	7735
1175.10432	9795.2
1178.71056	12571.4
1182.31434	14456.1
1185.91565	14071
1189.51451	12239.4
1193.11091	10350.3
1196.70485	9137.3
1200.29634	8650.7
1203.88538	8070.2
1207.47197	6934.4
1211.05612	5849.8
1214.63782	5181.8
1218.21708	4881.4
1221.79391	4771.6
1225.36829	4730.7
1228.94024	4762.5
1232.50976	4744.5
1236.07685	4769.4
1239.6415	4827.7
1243.20374	4978.6
1246.76355	5183.8
1250.32093	5446.1
1253.8759	5813.6
1257.42845	6414.8
1260.97859	7212.5
1264.52631	7955.7
1268.07163	8294.2
1271.61453	8300.1
1275.15503	7967.3
1278.69312	7672.8
1282.22882	7890.5
1285.76211	8960.5
1289.29301	10411.9
1292.82151	11339.4
1296.34761	11748
1299.87133	12717.5
1303.39266	15152.5
1306.9116	19734.5
1310.42815	25357.8
1313.94233	27492.8
1317.45412	23341.2
1320.96354	17024.9
1324.47058	12248
1327.97525	9369.3
1331.47754	7921.1
1334.97747	7452.8
1338.47502	7662.9
1341.97022	8771.3
1345.46305	11195.7
1348.95352	14691.1
1352.44163	18305.8
1355.92738	22884.6
1359.41078	30810
1362.89183	39023.4
1366.37053	36817
1369.84688	25081.4
1373.32088	15596.3
1376.79254	11557.1
1380.26186	9691.9
1383.72883	8268.6
1387.19347	6952.9
1390.65578	6019.4
1394.11575	5481
1397.57339	5223.1
1401.0287	5041.8
1404.48168	4858.3
1407.93234	4791.1
1411.38068	4887.3
1414.82669	5344
1418.27039	5795.4
1421.71177	5907.5
1425.15083	5675.3
1428.58758	5797.4
1432.02203	6428.2
1435.45416	6912.4
1438.88399	6574.9
1442.31151	6155
1445.73673	6043.3
1449.15965	5969.5
1452.58027	5840.9
1455.9986	5603.7
1459.41463	5400.6
1462.82837	5409.4
1466.23982	5686.4
1469.64898	6043.3
1473.05586	6161.4
1476.46045	6126.2
1479.86276	6162.6
1483.26279	6462.7
1486.66054	7176.7
1490.05602	8304.5
1493.44922	10091.5
1496.84016	12914.8
1500.22882	17294.8
1503.61521	23426.3
1506.99934	31470.7
1510.38121	39566.5
1513.76081	43139.9
1517.13816	38463.1
1520.51324	28831.2
1523.88607	19817.6
1527.25665	13975.1
1530.62498	10684.1
1533.99105	8745.3
1537.35488	7526.9
1540.71647	6824.3
1544.07581	6521.8
1547.4329	6531
1550.78776	6718.1
1554.14038	7099.8
1557.49077	7732.5
1560.83892	8865.5
1564.18484	10595.4
1567.52853	12422.7
1570.86999	13429.3
1574.20922	13499.2
1577.54624	12689.1
1580.88103	10540.5
1584.2136	8008.8
1587.54395	6519.7
1590.87208	6142.4
1594.19801	6650.1
1597.52172	7472.8
1600.84321	7495.8
1604.16251	6618.8
1607.47959	5751.3
1610.79447	5239.4
1614.10715	4849.6
1617.41763	4565.2
1620.7259	4423.4
1624.03199	4502.8
1627.33587	4713.3
1630.63757	5176.8
1633.93707	5991.8
1637.23439	7415.7
1640.52951	10124.2
1643.82246	14670.7
1647.11321	20830.4
1650.40179	25690.2
1653.68819	25215.7
1656.97241	19410.7
1660.25446	12893.2
1663.53433	8464.5
1666.81203	6094
1670.08756	4873.4
1673.36092	4214.5
1676.63211	3783.8
1679.90115	3552.7
1683.16801	3367.2
1686.43272	3210.9
1689.69527	3153.6
1692.95567	3040.8
1696.2139	3014.5
1699.46999	2947.1
1702.72392	2914.7
1705.97571	2924.6
1709.22535	2909
1712.47284	2967.4
1715.71819	2987.9
1718.96139	3009.5
1722.20246	2957.1
1725.44139	2887
1728.67818	2823.3
1731.91284	2731.9
1735.14537	2658.9
1738.37576	2613.7
1741.60403	2599.4
1744.83017	2560.7
1748.05418	2542
1751.27607	2536.7
1754.49584	2466.2
1757.71349	2392.7
1760.92903	2380.4
1764.14244	2291.7
1767.35375	2267.4
1770.56294	2218.6
1773.77002	2174.4
1776.97499	2154.2
1780.17785	2106.3
1783.37861	2074.7
1786.57727	2079.1
1789.77382	2017.3
1792.96828	2043.1
1796.16064	2050
1799.3509	2041.2
1802.53907	2035.7
1805.72514	2009.6
1808.90913	1977
1812.09102	1990.1
1815.27083	1978.8
1818.44856	1954.3
1821.6242	1960.1
1824.79776	1936.1
1827.96924	1913.4
1831.13864	1886.2
1834.30597	1890.6
1837.47122	1844.1
1840.6344	1824.5
1843.7955	1795.7
1846.95454	1769.5
1850.11151	1774.1
1853.26642	1742.4
1856.41926	1754.5
1859.57004	1760.6
1862.71876	1753.2
1865.86542	1777
1869.01003	1784.2
1872.15258	1758.4
1875.29308	1792.5
1878.43152	1785.6
1881.56792	1760.6
1884.70227	1752.8
1887.83457	1745.5
1890.96482	1715.3
1894.09304	1709.3
1897.21921	1707.3
1900.34335	1712.7
1903.46544	1690.4
1906.58551	1709.6
1909.70353	1710.6
1912.81953	1697.1
1915.93349	1693
1919.04543	1674.6
1922.15534	1652.8
1925.26322	1648.2
1928.36908	1616.1
1931.47292	1593.4
1934.57473	1590.6
1937.67453	1536.7
1940.77232	1501.2
1943.86808	1494.4
1946.96184	1485.8
1950.05358	1470.3
1953.14331	1461.1
1956.23103	1486.9
1959.31675	1467
1962.40046	1446.7
1965.48217	1489.6
1968.56188	1511.2
1971.63959	1512.2
1974.7153	1531.4
1977.78901	1523.2
1980.86073	1482.7
1983.93046	1429.8
1986.99819	1336.5
1990.06394	1355
1993.1277	1367.7
1996.18947	1350.8
1999.24925	1322.2
2002.30706	1334
2005.36288	1315.9
2008.41672	1312.7
2011.46859	1283.8
2014.51848	1276.8
2017.56639	1261.8
2020.61233	1256.3
2023.6563	1261.3
2026.6983	1213.6
2029.73833	1231.3
2032.7764	1244.7
2035.8125	1196.8
2038.84664	1219.6
2041.87881	1204.5
2044.90903	1226.1
2047.93729	1209.4
2050.96359	1185.4
2053.98794	1179.1
2057.01034	1185.1
2060.03078	1154.3
2063.04927	1144.7
2066.06582	1143.7
2069.08042	1114.7
2072.09307	1120
2075.10378	1124.9
2078.11255	1118.5
2081.11938	1109.5
2084.12426	1112.4
2087.12722	1111
2090.12824	1108.8
2093.12732	1117.4
2096.12447	1117.4
2099.11969	1110.5
2102.11299	1100.1
2105.10435	1117.5
2108.09379	1112.7
2111.08131	1112
2114.0669	1130.8
2117.05057	1130.1
2120.03233	1133.7
2123.01216	1179.1
2125.99008	1191.6
2128.96609	1182.7
2131.94018	1200.7
2134.91236	1166.4
2137.88263	1136.9
2140.851	1134.9
2143.81746	1123.9
2146.78201	1097.9
2149.74466	1063
2152.7054	1070.5
2155.66425	1043.3
2158.6212	1030.9
2161.57625	1006.8
2164.52941	986.6
2167.48067	1009.2
2170.43004	1011.9
2173.37752	1034.3
2176.32311	1035.4
2179.26681	1043.2
2182.20863	1045
2185.14856	1045.4
2188.08661	1038.4
2191.02278	1037.6
2193.95707	1002
2196.88948	982
2199.82001	984.8
2202.74867	971.2
2205.67545	981.2
2208.60037	1004.4
2211.52341	979.1
2214.44458	971.7
2217.36388	977.6
2220.28132	963.3
2223.1969	938.4
2226.11061	949.3
2229.02246	942.8
2231.93245	939
2234.84058	924.2
2237.74686	920.9
2240.65128	925.6
2243.55385	939.3
2246.45456	913.6
2249.35343	949.8
2252.25044	964.7
2255.14561	996.1
2258.03893	1022
2260.93041	1044.8
2263.82004	1056.2
2266.70783	1066.3
2269.59378	1040.6
2272.4779	1032.7
2275.36017	1048.9
2278.24061	1022.3
2281.11922	999.8
2283.996	1003.5
2286.87094	977.1
2289.74405	972
2292.61534	953.5
2295.4848	942.2
2298.35243	922.5
2301.21824	911.9
2304.08223	904.8
2306.94439	912.3
2309.80474	913.5
2312.66327	906.9
2315.51999	898.2
2318.37489	901.9
2321.22797	881.9
2324.07925	884
2326.92871	880.2
2329.77637	865
2332.62222	886
2335.46626	863
2338.3085	866.2
2341.14893	887.4
2343.98756	903.2
2346.8244	891.6
2349.65943	897.3
2352.49267	915.9
2355.32411	932.5
2358.15376	937.7
2360.98161	966.6
2363.80768	959.2
2366.63195	994.9
2369.45444	1009.5
2372.27514	1015.7
2375.09405	1024
2377.91118	990.6
2380.72652	978.3
2383.54009	969.4
2386.35187	960.4
2389.16188	930.5
2391.97011	917.3
2394.77657	901.1
2397.58125	892.5
2400.38416	882.3
2403.18529	865.2
2405.98466	849.5
2408.78226	851.3
2411.57809	851.9
2414.37216	841
2417.16446	847.6
2419.955	831.2
2422.74378	856.8
2425.5308	842.1
2428.31606	852.3
2431.09956	867.2
2433.88131	858.9
2436.6613	880
2439.43954	881.3
2442.21603	887.2
2444.99077	887.4
2447.76377	914
2450.53501	907.8
2453.30451	912.6
2456.07226	925.1
2458.83827	912.9
2461.60254	877.4
2464.36507	910.5
2467.12586	893.5
2469.88492	902.8
2472.64224	909.5
2475.39782	902.9
2478.15167	929.8
2480.90379	935.2
2483.65417	972.7
2486.40283	998
2489.14976	1022.6
2491.89497	1011.4
2494.63845	1016.1
2497.3802	1002.5
2500.12024	988.8
2502.85855	970.5
2505.59514	957.1
2508.33002	935.1
2511.06318	890.9
2513.79462	872.9
2516.52435	804.6
2519.25237	765.6
2521.97867	768.6
2524.70327	761.7
2527.42616	751.6
2530.14734	761.3
2532.86681	740.4
2535.58458	742
2538.30065	741.9
2541.01501	765.4
2543.72768	754.6
2546.43864	771.3
2549.14791	770.7
2551.85548	771.9
2554.56136	782.4
2557.26554	790.6
2559.96803	799
2562.66883	801.4
2565.36794	796.1
2568.06536	780.1
2570.7611	817.5
2573.45514	797.4
2576.14751	794.2
2578.83819	775.7
2581.52719	765.6
2584.21451	771.4
2586.90015	739
2589.58411	728.7
2592.2664	747.4
2594.94701	750.7
2597.62594	757.7
2600.30321	698.2
2602.9788	730
2605.65273	723.7
2608.32498	736.6
2610.99557	762.9
2613.66449	733.7
2616.33175	758.3
2618.99734	757
2621.66128	762
2624.32355	747.9
2626.98416	730.1
2629.64311	728.5
2632.30041	718.4
2634.95605	695.1
2637.61004	679.5
2640.26238	660.1
2642.91306	658.1
2645.56209	678.9
2648.20948	676.7
2650.85521	663.9
2653.4993	685.1
2656.14175	678.1
2658.78255	674.6
2661.42171	655.8
2664.05923	705.4
2666.6951	714.5
2669.32934	725.8
2671.96194	745.8
2674.59291	735.7
2677.22224	735.9
2679.84993	728.4
2682.476	714.4
2685.10043	709.8
2687.72324	700.5
2690.34441	697.5
2692.96396	694.6
2695.58188	709.7
2698.19818	691.8
2700.81285	678.3
2703.4259	674.3
2706.03733	645.8
2708.64714	655
2711.25533	692.3
2713.86191	698.1
2716.46687	692.2
2719.07021	700
2721.67194	697.5
2724.27206	714.1
2726.87057	683
2729.46747	672.6
2732.06276	666.7
2734.65644	648.4
2737.24852	646.7
2739.83899	620.5
2742.42786	632.7
2745.01513	642.5
2747.60079	620
2750.18486	598.3
2752.76733	598.5
2755.3482	587.8
2757.92747	587.8
2760.50515	572.5
2763.08123	560.6
2765.65573	564.7
2768.22863	560.7
2770.79994	552.5
2773.36967	559.4
2775.9378	553.2
2778.50435	555.3
2781.06932	563.2
2783.6327	554.5
2786.1945	575.1
2788.75471	565.1
2791.31335	570.1
2793.87041	583.5
2796.42589	571.5
2798.97979	572.7
2801.53212	597.7
2804.08288	621.8
2806.63206	620.1
2809.17967	622
2811.72571	652.7
2814.27018	672
2816.81308	671.6
2819.35442	666
2821.89419	705.3
2824.43239	702.3
2826.96904	732.7
2829.50412	715.1
2832.03763	710.8
2834.56959	711.5
2837.1	690
2839.62884	673.8
2842.15613	676.3
2844.68186	677.8
2847.20604	657.7
2849.72867	667.7
2852.24974	689.4
2854.76927	676.1
2857.28724	646
2859.80367	726.6
2862.31855	751.8
2864.83189	758.6
2867.34368	787.7
2869.85393	811.9
2872.36264	794.1
2874.8698	806.8
2877.37543	808.8
2879.87952	785.2
2882.38207	755.2
2884.88308	758.4
2887.38256	744.7
2889.88051	728.5
2892.37692	712
2894.8718	695.1
2897.36515	716.2
2899.85698	715.8
2902.34727	719.2
2904.83604	730.8
2907.32328	760.5
2909.809	785.2
2912.29319	788.1
2914.77587	806.7
2917.25702	802.3
2919.73665	809.1
2922.21476	774.9
2924.69136	758.4
2927.16644	726.4
2929.64	708.7
2932.11205	687.1
2934.58258	688
2937.05161	674.6
2939.51912	679.4
2941.98513	684.5
2944.44962	677.1
2946.91261	656.5
2949.37409	664.9
2951.83407	667.2
2954.29254	672.1
2956.74951	686.1
2959.20498	669.3
2961.65895	680.7
2964.11142	670.8
2966.56239	663.7
2969.01186	654.1
2971.45984	654.8
2973.90632	644.4
2976.35131	667.1
2978.7948	663.4
2981.23681	650.2
2983.67732	666.5
2986.11635	670.5
2988.55388	638.7
2990.98993	662.5
2993.4245	659.4
2995.85758	653.6
2998.28917	662.8
3000.71928	655.7
3003.14791	665.3
3005.57506	657.2
3008.00073	644.8
3010.42493	593.1
3012.84764	656.4
3015.26888	652.5
3017.68865	648.5
3020.10694	598.1
3022.52376	629.9
3024.9391	616.5
3027.35298	607
3029.76539	577.8
3032.17632	576.2
3034.5858	560.2
3036.9938	550.8
3039.40034	534.6
3041.80542	509.8
3044.20903	499.7
3046.61118	494.8
3049.01187	500.1
3051.4111	487.6
3053.80888	482.8
3056.20519	477.4
3058.60005	471.7
3060.99345	495.7
3063.3854	471.1
3065.7759	458.8
3068.16494	453.7
3070.55254	444.2
3072.93868	464.7
3075.32338	456.2
3077.70662	447.7
3080.08842	443.2
3082.46878	429.5
3084.84769	446.1
3087.22515	425.6
3089.60118	442
3091.97576	418.8
3094.3489	429
3096.72061	425.4
3099.09087	406.5
3101.4597	421.1
3103.82709	411.9
3106.19305	402.4
3108.55757	411.4
3110.92066	405.4
3113.28232	420
3115.64255	424.1
3118.00134	424.3
3120.35871	409.2
3122.71466	397.4
3125.06917	418.8
3127.42226	413.1
3129.77393	393.4
3132.12417	413.9
3134.47299	422.4
3136.82039	409.3
3139.16636	386.8
3141.51092	408.8
3143.85406	414.3
3146.19579	398.8
3148.53609	400.3
3150.87499	415.3
3153.21246	403.7
3155.54853	416.2
3157.88318	424.2
3160.21642	428.4
3162.54826	421.7
3164.87868	420.6
3167.2077	387.4
3169.5353	399.1
3171.86151	408
3174.18631	389.1
3176.5097	377
3178.83169	374.5
3181.15228	369.7
3183.47147	351
3185.78926	332.9
3188.10565	347.3
3190.42065	323.4
3192.73424	340.4
3195.04645	333.7
3197.35725	324.4
3199.66667	341.2
3201.97469	337.4
3204.28132	333
3206.58656	350.6
3208.8904	357.2
3211.19287	353.6
3213.49394	349.4
3215.79363	352.7
3218.09193	361
3220.38884	357.6
3222.68438	350.6
3224.97853	338.9
3227.2713	359.8
3229.56269	344.9
3231.8527	344.5
3234.14133	326.1
3236.42858	332.2
3238.71446	314.7
3240.99896	334.3
3243.28209	315.1
3245.56384	328.9
3247.84423	317
3250.12324	331.8
3252.40088	329
3254.67715	318.9
3256.95205	315.2
3259.22558	324.7
3261.49775	323.1
3263.76855	321
3266.03799	329.4
3268.30606	326.4
3270.57277	333.4
3272.83812	319.8
3275.10211	329.2
3277.36474	353.5
3279.62601	357.5
3281.88593	345.7
3284.14448	334
3286.40168	376
3288.65753	371.5
3290.91202	391.5
3293.16516	378.5
3295.41695	413.6
3297.66738	433.5
3299.91647	422.3
3302.16421	438.1
3304.4106	414.8
3306.65564	446.8
3308.89933	427.7
3311.14169	440.2
3313.38269	447.4
3315.62236	445.9
3317.86068	443
3320.09766	462.2
3322.3333	439.9
3324.5676	456.3
3326.80056	462.2
3329.03219	473.3
3331.26248	-0.9
3333.49143	0.1
3335.71905	0.3
