Data from AgNPs_UA_5uM_CRN_500uM_SU_RamanShift__130__11-51-03-165.txt Node

Date: Thu Aug 04 11:51:03 BST 2022
User: TCL
Spectrometer: QEP01345
Trigger mode: 4
Integration Time (sec): 1.000000E0
Scans to average: 10
Electric dark correction enabled: true
Nonlinearity correction enabled: false
Boxcar width: 0
XAxis mode: Raman Shifts
Number of Pixels in Spectrum: 1044
>>>>>Begin Spectral Data<<<<<
46.04893	-1.3125
50.45542	-0.2125
54.85868	1.2875
59.25871	-1.6125
63.6555	-57.4125
68.04907	-38.8125
72.43941	-69.1125
76.82654	-56.8125
81.21044	-57.7125
85.59113	-51.0125
89.96862	-76.0125
94.34289	-55.6125
98.71396	-78.1125
103.08183	-57.5125
107.4465	-50.1125
111.80798	-55.8125
116.16626	-45.7125
120.52136	-75.4125
124.87327	-51.1125
129.222	-63.7125
133.56755	-50.5125
137.90993	-64.1125
142.24913	-51.0125
146.58517	-42.7125
150.91804	-42.3125
155.24774	-31.7125
159.57429	-11.3125
163.89768	-6.7125
168.21792	36.0875
172.53501	52.6875
176.84895	132.2875
181.15975	258.0875
185.46741	402.8875
189.77193	578.9875
194.07331	856.5875
198.37157	1131.8875
202.6667	1409.1875
206.9587	1719.6875
211.24758	2032.6875
215.53334	2342.5875
219.81599	2664.5875
224.09553	3064.2875
228.37195	3492.4875
232.64527	3925.7875
236.91549	4395.1875
241.18261	4761.0875
245.44663	5062.1875
249.70755	5272.1875
253.96539	5407.7875
258.22014	5516.7875
262.4718	5564.2875
266.72039	5585.0875
270.96589	5541.9875
275.20832	5443.4875
279.44768	5327.1875
283.68397	5212.4875
287.91719	5178.1875
292.14735	5164.6875
296.37445	5288.3875
300.59849	5516.0875
304.81948	5780.3875
309.03742	6066.4875
313.25231	6280.1875
317.46415	6223.7875
321.67296	5890.0875
325.87872	5556.1875
330.08145	5425.0875
334.28114	5404.8875
338.47781	5459.2875
342.67145	5593.9875
346.86207	5801.4875
351.04966	6110.1875
355.23424	6441.7875
359.4158	6684.1875
363.59435	6716.0875
367.76989	6660.2875
371.94243	6584.7875
376.11196	6498.2875
380.27849	6461.5875
384.44203	6399.1875
388.60257	6365.3875
392.76012	6381.9875
396.91468	6498.6875
401.06626	6648.4875
405.21485	6676.3875
409.36047	6556.1875
413.50311	6292.4875
417.64277	6057.5875
421.77947	5897.3875
425.9132	5838.0875
430.04396	5864.2875
434.17176	5868.8875
438.2966	5988.4875
442.41849	6080.0875
446.53742	6204.5875
450.6534	6271.3875
454.76644	6340.8875
458.87653	6383.9875
462.98368	6365.6875
467.08789	6321.4875
471.18916	6274.5875
475.2875	6161.4875
479.38291	6078.9875
483.4754	5992.0875
487.56496	5954.6875
491.6516	5913.3875
495.73531	5906.3875
499.81612	5935.8875
503.89401	6004.1875
507.96899	6029.5875
512.04106	6114.9875
516.11023	6202.2875
520.1765	6277.8875
524.23987	6311.0875
528.30034	6312.0875
532.35792	6265.4875
536.41261	6230.2875
540.46441	6153.4875
544.51333	6104.2875
548.55936	6154.0875
552.60252	6270.5875
556.64279	6349.0875
560.6802	6464.5875
564.71473	6582.3875
568.7464	6726.3875
572.7752	6687.2875
576.80114	6438.4875
580.82422	6215.6875
584.84444	6153.4875
588.86181	6132.9875
592.87633	6166.4875
596.888	6270.4875
600.89682	6611.2875
604.9028	7390.5875
608.90594	9084.0875
612.90624	10995.7875
616.90371	10305.2875
620.89834	7807.6875
624.89015	6744.2875
628.87913	6595.3875
632.86528	6717.5875
636.84862	6855.1875
640.82913	6735.5875
644.80683	6481.3875
648.78172	6330.7875
652.75379	6361.0875
656.72306	6551.8875
660.68952	6748.0875
664.65319	6668.2875
668.61405	6503.5875
672.57211	6457.5875
676.52738	6462.4875
680.47986	6398.6875
684.42955	6320.7875
688.37646	6270.2875
692.32058	6271.9875
696.26192	6343.8875
700.20048	6414.1875
704.13626	6472.2875
708.06928	6414.9875
711.99952	6406.8875
715.927	6361.9875
719.85171	6394.7875
723.77365	6425.4875
727.69284	6421.2875
731.60928	6422.1875
735.52295	6389.9875
739.43388	6433.2875
743.34206	6441.7875
747.24749	6458.6875
751.15017	6480.4875
755.05012	6536.6875
758.94733	6824.9875
762.8418	7485.3875
766.73354	8542.9875
770.62254	9348.5875
774.50882	9438.1875
778.39237	9048.6875
782.27321	8302.6875
786.15132	7447.2875
790.02671	6922.5875
793.89938	6582.2875
797.76935	6535.2875
801.6366	6436.3875
805.50115	6413.4875
809.36299	6414.9875
813.22213	6395.1875
817.07857	6417.9875
820.93231	6427.5875
824.78336	6434.2875
828.63172	6461.4875
832.47738	6437.8875
836.32036	6465.4875
840.16066	6450.1875
843.99827	6442.5875
847.8332	6413.8875
851.66546	6444.2875
855.49504	6445.0875
859.32195	6476.9875
863.1462	6463.4875
866.96777	6484.9875
870.78668	6473.9875
874.60293	6498.8875
878.41652	6519.9875
882.22745	6584.1875
886.03573	6613.8875
889.84136	6594.6875
893.64433	6606.4875
897.44466	6597.5875
901.24235	6585.6875
905.0374	6577.3875
908.8298	6522.9875
912.61957	6508.7875
916.40671	6465.1875
920.19121	6525.2875
923.97308	6609.5875
927.75233	6620.0875
931.52895	6672.4875
935.30295	6679.0875
939.07433	6555.3875
942.84309	6457.4875
946.60924	6438.5875
950.37278	6405.0875
954.13371	6416.5875
957.89203	6400.3875
961.64774	6438.9875
965.40086	6411.4875
969.15137	6365.2875
972.89929	6412.7875
976.64461	6401.8875
980.38733	6406.9875
984.12747	6421.3875
987.86502	6458.8875
991.59999	6485.6875
995.33237	6538.4875
999.06217	6618.4875
1002.78939	6719.3875
1006.51404	6846.3875
1010.23611	6966.9875
1013.95561	7020.7875
1017.67255	7023.1875
1021.38692	7010.3875
1025.09872	6936.7875
1028.80796	6836.4875
1032.51465	6841.0875
1036.21877	6828.2875
1039.92035	6876.6875
1043.61937	6914.3875
1047.31584	6945.6875
1051.00976	6970.6875
1054.70114	6977.1875
1058.38998	6992.5875
1062.07627	6999.1875
1065.76003	7017.5875
1069.44126	7105.8875
1073.11995	7179.8875
1076.79611	7318.4875
1080.46974	7450.4875
1084.14085	7565.4875
1087.80943	7654.0875
1091.47549	7693.4875
1095.13903	7671.5875
1098.80005	7612.6875
1102.45857	7495.3875
1106.11456	7432.3875
1109.76805	7362.4875
1113.41903	7439.1875
1117.06751	7559.6875
1120.71348	7764.8875
1124.35696	8070.7875
1127.99793	8287.5875
1131.63641	8177.9875
1135.2724	7857.5875
1138.90589	7614.5875
1142.5369	7475.8875
1146.16542	7401.7875
1149.79145	7316.1875
1153.415	7289.1875
1157.03607	7224.4875
1160.65467	7288.9875
1164.27079	7446.8875
1167.88443	7633.5875
1171.49561	7972.6875
1175.10432	8460.1875
1178.71056	9161.1875
1182.31434	9801.6875
1185.91565	10030.8875
1189.51451	9921.8875
1193.11091	9764.9875
1196.70485	9618.4875
1200.29634	9462.8875
1203.88538	9283.8875
1207.47197	8918.4875
1211.05612	8591.2875
1214.63782	8288.1875
1218.21708	8083.6875
1221.79391	7943.5875
1225.36829	7820.0875
1228.94024	7791.5875
1232.50976	7790.8875
1236.07685	7834.1875
1239.6415	7845.8875
1243.20374	7875.9875
1246.76355	7944.9875
1250.32093	8018.3875
1253.8759	8092.9875
1257.42845	8284.2875
1260.97859	8463.0875
1264.52631	8669.7875
1268.07163	8752.2875
1271.61453	8848.7875
1275.15503	8884.8875
1278.69312	8867.1875
1282.22882	8955.9875
1285.76211	9111.0875
1289.29301	9291.6875
1292.82151	9517.2875
1296.34761	9687.5875
1299.87133	10037.9875
1303.39266	10585.3875
1306.9116	11504.0875
1310.42815	12476.1875
1313.94233	12782.7875
1317.45412	12195.0875
1320.96354	11315.6875
1324.47058	10534.7875
1327.97525	9942.1875
1331.47754	9628.0875
1334.97747	9562.4875
1338.47502	9665.3875
1341.97022	10026.5875
1345.46305	10625.1875
1348.95352	11459.0875
1352.44163	12433.3875
1355.92738	13439.2875
1359.41078	14654.6875
1362.89183	15749.4875
1366.37053	15144.9875
1369.84688	12916.8875
1373.32088	10828.5875
1376.79254	9765.4875
1380.26186	9262.2875
1383.72883	8907.3875
1387.19347	8631.0875
1390.65578	8332.1875
1394.11575	8162.9875
1397.57339	8029.1875
1401.0287	7935.0875
1404.48168	7889.0875
1407.93234	7927.4875
1411.38068	7938.0875
1414.82669	8022.5875
1418.27039	8099.4875
1421.71177	8079.1875
1425.15083	7977.5875
1428.58758	7909.7875
1432.02203	7955.7875
1435.45416	8039.6875
1438.88399	8039.3875
1442.31151	8048.5875
1445.73673	8100.8875
1449.15965	8178.0875
1452.58027	8203.9875
1455.9986	8199.7875
1459.41463	8187.5875
1462.82837	8272.4875
1466.23982	8413.2875
1469.64898	8618.5875
1473.05586	8722.0875
1476.46045	8843.5875
1479.86276	8838.1875
1483.26279	8902.7875
1486.66054	9052.7875
1490.05602	9245.1875
1493.44922	9686.1875
1496.84016	10332.7875
1500.22882	11424.3875
1503.61521	12729.3875
1506.99934	14047.8875
1510.38121	14950.5875
1513.76081	14863.4875
1517.13816	13665.1875
1520.51324	12048.2875
1523.88607	10724.6875
1527.25665	9941.3875
1530.62498	9567.0875
1533.99105	9390.0875
1537.35488	9320.3875
1540.71647	9264.3875
1544.07581	9236.9875
1547.4329	9119.0875
1550.78776	9010.8875
1554.14038	8907.3875
1557.49077	8841.9875
1560.83892	8907.6875
1564.18484	9063.0875
1567.52853	9295.1875
1570.86999	9514.3875
1574.20922	9616.3875
1577.54624	9549.0875
1580.88103	9147.2875
1584.2136	8664.6875
1587.54395	8375.8875
1590.87208	8347.3875
1594.19801	8513.1875
1597.52172	8844.7875
1600.84321	8984.1875
1604.16251	8941.1875
1607.47959	8780.4875
1610.79447	8603.5875
1614.10715	8325.4875
1617.41763	8024.2875
1620.7259	7743.0875
1624.03199	7620.4875
1627.33587	7555.1875
1630.63757	7589.8875
1633.93707	7776.2875
1637.23439	8162.4875
1640.52951	8727.9875
1643.82246	9526.2875
1647.11321	10445.6875
1650.40179	10917.6875
1653.68819	10605.3875
1656.97241	9613.5875
1660.25446	8474.6875
1663.53433	7685.3875
1666.81203	7170.4875
1670.08756	6903.3875
1673.36092	6750.6875
1676.63211	6626.7875
1679.90115	6571.4875
1683.16801	6488.0875
1686.43272	6407.7875
1689.69527	6367.5875
1692.95567	6299.3875
1696.2139	6268.3875
1699.46999	6217.2875
1702.72392	6205.6875
1705.97571	6213.3875
1709.22535	6208.6875
1712.47284	6225.3875
1715.71819	6228.3875
1718.96139	6237.0875
1722.20246	6229.0875
1725.44139	6192.7875
1728.67818	6201.0875
1731.91284	6137.1875
1735.14537	6117.9875
1738.37576	6084.3875
1741.60403	6081.6875
1744.83017	6033.2875
1748.05418	6052.1875
1751.27607	6043.9875
1754.49584	6000.8875
1757.71349	5992.3875
1760.92903	5995.5875
1764.14244	5945.8875
1767.35375	5959.5875
1770.56294	5937.8875
1773.77002	5930.7875
1776.97499	5949.2875
1780.17785	5915.3875
1783.37861	5919.6875
1786.57727	5921.5875
1789.77382	5852.5875
1792.96828	5896.0875
1796.16064	5889.2875
1799.3509	5877.5875
1802.53907	5904.8875
1805.72514	5845.3875
1808.90913	5812.7875
1812.09102	5821.7875
1815.27083	5814.7875
1818.44856	5829.3875
1821.6242	5800.1875
1824.79776	5773.6875
1827.96924	5767.5875
1831.13864	5750.1875
1834.30597	5748.5875
1837.47122	5733.4875
1840.6344	5734.4875
1843.7955	5716.1875
1846.95454	5718.6875
1850.11151	5736.7875
1853.26642	5683.5875
1856.41926	5694.0875
1859.57004	5709.5875
1862.71876	5686.2875
1865.86542	5679.5875
1869.01003	5676.6875
1872.15258	5646.6875
1875.29308	5679.3875
1878.43152	5663.5875
1881.56792	5647.5875
1884.70227	5640.9875
1887.83457	5642.4875
1890.96482	5614.7875
1894.09304	5607.9875
1897.21921	5608.6875
1900.34335	5607.0875
1903.46544	5579.7875
1906.58551	5587.4875
1909.70353	5569.5875
1912.81953	5576.5875
1915.93349	5578.5875
1919.04543	5568.8875
1922.15534	5541.3875
1925.26322	5537.4875
1928.36908	5524.0875
1931.47292	5529.7875
1934.57473	5526.5875
1937.67453	5490.8875
1940.77232	5472.6875
1943.86808	5466.5875
1946.96184	5463.1875
1950.05358	5436.0875
1953.14331	5410.2875
1956.23103	5403.3875
1959.31675	5371.0875
1962.40046	5334.0875
1965.48217	5357.9875
1968.56188	5346.9875
1971.63959	5317.9875
1974.7153	5321.4875
1977.78901	5304.0875
1980.86073	5290.4875
1983.93046	5258.7875
1986.99819	5165.7875
1990.06394	5184.6875
1993.1277	5210.1875
1996.18947	5192.5875
1999.24925	5153.6875
2002.30706	5149.2875
2005.36288	5150.5875
2008.41672	5119.8875
2011.46859	5092.3875
2014.51848	5084.9875
2017.56639	5064.8875
2020.61233	5050.6875
2023.6563	5051.2875
2026.6983	5006.3875
2029.73833	5013.3875
2032.7764	5008.8875
2035.8125	4953.4875
2038.84664	4973.4875
2041.87881	4955.5875
2044.90903	4966.2875
2047.93729	4959.9875
2050.96359	4917.5875
2053.98794	4928.3875
2057.01034	4915.7875
2060.03078	4912.2875
2063.04927	4902.1875
2066.06582	4900.2875
2069.08042	4893.6875
2072.09307	4899.4875
2075.10378	4886.1875
2078.11255	4881.6875
2081.11938	4878.5875
2084.12426	4875.0875
2087.12722	4866.2875
2090.12824	4882.9875
2093.12732	4875.6875
2096.12447	4869.8875
2099.11969	4870.0875
2102.11299	4865.1875
2105.10435	4889.2875
2108.09379	4880.6875
2111.08131	4859.3875
2114.0669	4861.6875
2117.05057	4870.7875
2120.03233	4857.9875
2123.01216	4881.0875
2125.99008	4872.2875
2128.96609	4882.2875
2131.94018	4914.6875
2134.91236	4889.5875
2137.88263	4885.9875
2140.851	4882.8875
2143.81746	4913.5875
2146.78201	4907.1875
2149.74466	4872.4875
2152.7054	4899.3875
2155.66425	4900.7875
2158.6212	4873.7875
2161.57625	4847.5875
2164.52941	4820.7875
2167.48067	4861.5875
2170.43004	4855.7875
2173.37752	4864.4875
2176.32311	4857.3875
2179.26681	4844.3875
2182.20863	4865.0875
2185.14856	4857.2875
2188.08661	4843.9875
2191.02278	4870.1875
2193.95707	4835.7875
2196.88948	4817.4875
2199.82001	4829.0875
2202.74867	4823.8875
2205.67545	4813.3875
2208.60037	4826.8875
2211.52341	4806.1875
2214.44458	4783.8875
2217.36388	4766.7875
2220.28132	4775.4875
2223.1969	4753.6875
2226.11061	4746.3875
2229.02246	4733.4875
2231.93245	4736.3875
2234.84058	4707.9875
2237.74686	4688.1875
2240.65128	4688.2875
2243.55385	4699.2875
2246.45456	4669.6875
2249.35343	4695.0875
2252.25044	4672.7875
2255.14561	4677.8875
2258.03893	4662.5875
2260.93041	4671.2875
2263.82004	4656.2875
2266.70783	4629.2875
2269.59378	4610.6875
2272.4779	4602.8875
2275.36017	4616.1875
2278.24061	4573.4875
2281.11922	4557.7875
2283.996	4575.9875
2286.87094	4535.1875
2289.74405	4552.6875
2292.61534	4537.4875
2295.4848	4533.3875
2298.35243	4535.4875
2301.21824	4519.0875
2304.08223	4523.9875
2306.94439	4521.6875
2309.80474	4532.3875
2312.66327	4508.7875
2315.51999	4496.5875
2318.37489	4480.6875
2321.22797	4472.4875
2324.07925	4478.0875
2326.92871	4452.6875
2329.77637	4435.8875
2332.62222	4437.1875
2335.46626	4411.4875
2338.3085	4416.5875
2341.14893	4421.6875
2343.98756	4432.3875
2346.8244	4400.4875
2349.65943	4399.4875
2352.49267	4390.1875
2355.32411	4406.3875
2358.15376	4399.9875
2360.98161	4406.1875
2363.80768	4374.8875
2366.63195	4385.9875
2369.45444	4395.6875
2372.27514	4371.0875
2375.09405	4383.0875
2377.91118	4353.8875
2380.72652	4353.3875
2383.54009	4337.1875
2386.35187	4340.3875
2389.16188	4324.0875
2391.97011	4311.6875
2394.77657	4319.8875
2397.58125	4315.0875
2400.38416	4296.0875
2403.18529	4284.9875
2405.98466	4274.1875
2408.78226	4264.1875
2411.57809	4254.8875
2414.37216	4238.1875
2417.16446	4246.5875
2419.955	4230.1875
2422.74378	4252.1875
2425.5308	4212.8875
2428.31606	4213.8875
2431.09956	4221.4875
2433.88131	4193.1875
2436.6613	4201.7875
2439.43954	4198.3875
2442.21603	4187.7875
2444.99077	4181.0875
2447.76377	4189.3875
2450.53501	4190.7875
2453.30451	4154.9875
2456.07226	4173.6875
2458.83827	4161.0875
2461.60254	4124.6875
2464.36507	4157.9875
2467.12586	4140.1875
2469.88492	4142.7875
2472.64224	4141.0875
2475.39782	4127.5875
2478.15167	4142.9875
2480.90379	4110.4875
2483.65417	4132.0875
2486.40283	4124.9875
2489.14976	4141.7875
2491.89497	4133.2875
2494.63845	4128.4875
2497.3802	4107.2875
2500.12024	4102.0875
2502.85855	4104.4875
2505.59514	4104.1875
2508.33002	4081.7875
2511.06318	4061.5875
2513.79462	4085.6875
2516.52435	4034.7875
2519.25237	4010.7875
2521.97867	4011.7875
2524.70327	4026.5875
2527.42616	4035.4875
2530.14734	4040.1875
2532.86681	4008.2875
2535.58458	4014.4875
2538.30065	4003.0875
2541.01501	4020.2875
2543.72768	3994.6875
2546.43864	3995.7875
2549.14791	3987.3875
2551.85548	3963.2875
2554.56136	3964.7875
2557.26554	3961.7875
2559.96803	3959.7875
2562.66883	3954.9875
2565.36794	3929.7875
2568.06536	3886.7875
2570.7611	3923.6875
2573.45514	3905.3875
2576.14751	3905.5875
2578.83819	3877.8875
2581.52719	3862.1875
2584.21451	3868.2875
2586.90015	3845.5875
2589.58411	3824.7875
2592.2664	3834.0875
2594.94701	3842.2875
2597.62594	3851.9875
2600.30321	3783.2875
2602.9788	3781.6875
2605.65273	3790.0875
2608.32498	3801.8875
2610.99557	3808.7875
2613.66449	3779.7875
2616.33175	3792.7875
2618.99734	3790.2875
2621.66128	3789.6875
2624.32355	3769.0875
2626.98416	3742.1875
2629.64311	3738.4875
2632.30041	3744.3875
2634.95605	3719.3875
2637.61004	3710.0875
2640.26238	3698.2875
2642.91306	3696.2875
2645.56209	3709.7875
2648.20948	3706.4875
2650.85521	3699.1875
2653.4993	3716.9875
2656.14175	3699.9875
2658.78255	3686.8875
2661.42171	3642.1875
2664.05923	3704.2875
2666.6951	3699.2875
2669.32934	3697.6875
2671.96194	3711.6875
2674.59291	3704.9875
2677.22224	3711.8875
2679.84993	3709.6875
2682.476	3685.3875
2685.10043	3686.6875
2687.72324	3676.0875
2690.34441	3670.8875
2692.96396	3665.8875
2695.58188	3690.6875
2698.19818	3661.4875
2700.81285	3666.1875
2703.4259	3653.2875
2706.03733	3631.7875
2708.64714	3633.4875
2711.25533	3647.3875
2713.86191	3649.3875
2716.46687	3642.4875
2719.07021	3645.6875
2721.67194	3651.8875
2724.27206	3665.3875
2726.87057	3650.7875
2729.46747	3641.8875
2732.06276	3642.7875
2734.65644	3629.4875
2737.24852	3632.9875
2739.83899	3604.8875
2742.42786	3614.8875
2745.01513	3628.2875
2747.60079	3609.9875
2750.18486	3595.5875
2752.76733	3592.5875
2755.3482	3582.9875
2757.92747	3580.4875
2760.50515	3575.3875
2763.08123	3553.9875
2765.65573	3548.1875
2768.22863	3550.3875
2770.79994	3537.6875
2773.36967	3535.1875
2775.9378	3527.0875
2778.50435	3515.1875
2781.06932	3513.4875
2783.6327	3494.7875
2786.1945	3524.4875
2788.75471	3505.9875
2791.31335	3490.2875
2793.87041	3496.1875
2796.42589	3456.6875
2798.97979	3457.8875
2801.53212	3446.7875
2804.08288	3481.2875
2806.63206	3448.8875
2809.17967	3438.6875
2811.72571	3429.2875
2814.27018	3438.2875
2816.81308	3417.7875
2819.35442	3373.6875
2821.89419	3398.8875
2824.43239	3385.0875
2826.96904	3418.5875
2829.50412	3395.1875
2832.03763	3386.8875
2834.56959	3388.5875
2837.1	3373.7875
2839.62884	3366.9875
2842.15613	3386.6875
2844.68186	3366.9875
2847.20604	3353.9875
2849.72867	3341.2875
2852.24974	3358.8875
2854.76927	3305.7875
2857.28724	3253.0875
2859.80367	3326.8875
2862.31855	3331.8875
2864.83189	3310.0875
2867.34368	3314.8875
2869.85393	3318.6875
2872.36264	3290.8875
2874.8698	3285.5875
2877.37543	3302.7875
2879.87952	3282.6875
2882.38207	3267.4875
2884.88308	3267.7875
2887.38256	3274.9875
2889.88051	3276.4875
2892.37692	3266.5875
2894.8718	3253.4875
2897.36515	3268.0875
2899.85698	3257.6875
2902.34727	3261.7875
2904.83604	3270.0875
2907.32328	3285.7875
2909.809	3264.7875
2912.29319	3269.8875
2914.77587	3276.1875
2917.25702	3286.4875
2919.73665	3287.2875
2922.21476	3283.6875
2924.69136	3288.9875
2927.16644	3257.3875
2929.64	3253.4875
2932.11205	3246.8875
2934.58258	3262.9875
2937.05161	3238.9875
2939.51912	3247.7875
2941.98513	3260.6875
2944.44962	3237.0875
2946.91261	3207.1875
2949.37409	3228.8875
2951.83407	3211.3875
2954.29254	3218.8875
2956.74951	3206.7875
2959.20498	3204.3875
2961.65895	3188.6875
2964.11142	3166.7875
2966.56239	3187.3875
2969.01186	3183.5875
2971.45984	3179.6875
2973.90632	3168.2875
2976.35131	3174.5875
2978.7948	3179.9875
2981.23681	3152.7875
2983.67732	3154.0875
2986.11635	3146.7875
2988.55388	3119.0875
2990.98993	3126.9875
2993.4245	3124.6875
2995.85758	3089.7875
2998.28917	3097.5875
3000.71928	3075.9875
3003.14791	3075.9875
3005.57506	3069.3875
3008.00073	3053.6875
3010.42493	2997.2875
3012.84764	3050.6875
3015.26888	3046.0875
3017.68865	3035.1875
3020.10694	2994.3875
3022.52376	3003.0875
3024.9391	3007.0875
3027.35298	2998.6875
3029.76539	2981.0875
3032.17632	2987.2875
3034.5858	2976.5875
3036.9938	2981.7875
3039.40034	2974.0875
3041.80542	2961.6875
3044.20903	2946.1875
3046.61118	2942.6875
3049.01187	2953.2875
3051.4111	2925.5875
3053.80888	2904.6875
3056.20519	2917.5875
3058.60005	2888.4875
3060.99345	2911.0875
3063.3854	2876.8875
3065.7759	2872.9875
3068.16494	2862.4875
3070.55254	2860.5875
3072.93868	2856.1875
3075.32338	2847.6875
3077.70662	2842.9875
3080.08842	2829.5875
3082.46878	2820.5875
3084.84769	2840.8875
3087.22515	2817.6875
3089.60118	2837.9875
3091.97576	2813.6875
3094.3489	2813.4875
3096.72061	2809.2875
3099.09087	2786.8875
3101.4597	2809.9875
3103.82709	2804.4875
3106.19305	2794.4875
3108.55757	2794.6875
3110.92066	2782.1875
3113.28232	2788.9875
3115.64255	2775.9875
3118.00134	2790.7875
3120.35871	2757.6875
3122.71466	2727.2875
3125.06917	2744.0875
3127.42226	2732.6875
3129.77393	2714.8875
3132.12417	2725.7875
3134.47299	2727.0875
3136.82039	2709.2875
3139.16636	2687.1875
3141.51092	2719.1875
3143.85406	2709.2875
3146.19579	2680.1875
3148.53609	2696.0875
3150.87499	2700.9875
3153.21246	2684.7875
3155.54853	2692.9875
3157.88318	2697.4875
3160.21642	2695.8875
3162.54826	2701.0875
3164.87868	2682.3875
3167.2077	2650.8875
3169.5353	2671.2875
3171.86151	2681.1875
3174.18631	2662.9875
3176.5097	2662.8875
3178.83169	2656.1875
3181.15228	2661.2875
3183.47147	2634.9875
3185.78926	2616.1875
3188.10565	2629.5875
3190.42065	2609.4875
3192.73424	2610.7875
3195.04645	2602.4875
3197.35725	2589.4875
3199.66667	2605.3875
3201.97469	2588.6875
3204.28132	2573.7875
3206.58656	2604.9875
3208.8904	2608.6875
3211.19287	2604.3875
3213.49394	2576.1875
3215.79363	2580.3875
3218.09193	2578.2875
3220.38884	2589.7875
3222.68438	2579.1875
3224.97853	2558.0875
3227.2713	2578.9875
3229.56269	2558.8875
3231.8527	2558.3875
3234.14133	2552.2875
3236.42858	2536.0875
3238.71446	2524.0875
3240.99896	2525.4875
3243.28209	2513.8875
3245.56384	2525.2875
3247.84423	2506.7875
3250.12324	2514.8875
3252.40088	2509.6875
3254.67715	2503.2875
3256.95205	2491.7875
3259.22558	2501.1875
3261.49775	2503.9875
3263.76855	2496.1875
3266.03799	2498.2875
3268.30606	2490.1875
3270.57277	2497.0875
3272.83812	2471.5875
3275.10211	2475.5875
3277.36474	2481.1875
3279.62601	2475.2875
3281.88593	2450.9875
3284.14448	2428.1875
3286.40168	2452.9875
3288.65753	2428.5875
3290.91202	2427.9875
3293.16516	2409.3875
3295.41695	2438.7875
3297.66738	2424.8875
3299.91647	2404.2875
3302.16421	2410.9875
3304.4106	2365.7875
3306.65564	2379.2875
3308.89933	2333.0875
3311.14169	2326.7875
3313.38269	2309.3875
3315.62236	2293.3875
3317.86068	2282.3875
3320.09766	2266.6875
3322.3333	2218.2875
3324.5676	2223.7875
3326.80056	2189.8875
3329.03219	2186.9875
3331.26248	0.9875
3333.49143	-0.2125
3335.71905	0.9875
