Data from AgNPs_UA_10uM_CRN_500uM_SU_RamanShift__54__13-14-20-264.txt Node

Date: Thu Aug 04 13:14:20 BST 2022
User: TCL
Spectrometer: QEP01345
Trigger mode: 4
Integration Time (sec): 1.000000E0
Scans to average: 10
Electric dark correction enabled: true
Nonlinearity correction enabled: false
Boxcar width: 0
XAxis mode: Raman Shifts
Number of Pixels in Spectrum: 1044
>>>>>Begin Spectral Data<<<<<
46.04893	0.3
50.45542	-0.3
54.85868	-0.4
59.25871	0.2
63.6555	23
68.04907	23
72.43941	24.1
76.82654	23.4
81.21044	24.1
85.59113	27.9
89.96862	27.1
94.34289	27.1
98.71396	28.4
103.08183	31.3
107.4465	31.4
111.80798	31.2
116.16626	34.6
120.52136	35.3
124.87327	36.6
129.222	40.4
133.56755	38.8
137.90993	44.1
142.24913	49.6
146.58517	56.7
150.91804	67.2
155.24774	82.7
159.57429	101.6
163.89768	135.7
168.21792	182.2
172.53501	248.1
176.84895	349.6
181.15975	498
185.46741	704.8
189.77193	980.7
194.07331	1327.6
198.37157	1709.6
202.6667	2112.6
206.9587	2525.7
211.24758	2927.6
215.53334	3334.6
219.81599	3773.5
224.09553	4248.7
228.37195	4780.7
232.64527	5361.5
236.91549	5932.1
241.18261	6475.4
245.44663	6948.4
249.70755	7333.6
253.96539	7661.6
258.22014	7952.2
262.4718	8192.6
266.72039	8342.5
270.96589	8407.5
275.20832	8381.6
279.44768	8274.2
283.68397	8131.7
287.91719	8044.8
292.14735	8025.7
296.37445	8115.8
300.59849	8269.2
304.81948	8480.8
309.03742	8654.4
313.25231	8749.9
317.46415	8684.3
321.67296	8466.4
325.87872	8241.2
330.08145	8128.7
334.28114	8120.9
338.47781	8223.1
342.67145	8325.2
346.86207	8529.9
351.04966	8793.2
355.23424	9126
359.4158	9333.9
363.59435	9441.6
367.76989	9506.2
371.94243	9511.2
376.11196	9514.2
380.27849	9573.7
384.44203	9635.8
388.60257	9729.6
392.76012	9813.5
396.91468	9942.7
401.06626	10073.2
405.21485	10123.6
409.36047	10067.6
413.50311	9856.1
417.64277	9671.7
421.77947	9527.4
425.9132	9427.2
430.04396	9405.3
434.17176	9422
438.2966	9502.5
442.41849	9646.2
446.53742	9821
450.6534	10025.4
454.76644	10147
458.87653	10243.7
462.98368	10286.4
467.08789	10241.1
471.18916	10162.5
475.2875	9977.4
479.38291	9858
483.4754	9736.3
487.56496	9690.7
491.6516	9634
495.73531	9650.9
499.81612	9698.2
503.89401	9782.2
507.96899	9831.2
512.04106	9854.3
516.11023	9907
520.1765	9922.3
524.23987	9933.6
528.30034	9934.6
532.35792	9924.4
536.41261	9869
540.46441	9791.1
544.51333	9779.2
548.55936	9844.4
552.60252	9954.3
556.64279	10073.8
560.6802	10215.4
564.71473	10291.1
568.7464	10308.1
572.7752	10230.2
576.80114	10015.3
580.82422	9863.2
584.84444	9848.2
588.86181	9812.5
592.87633	9856.6
596.888	10017
600.89682	10453.5
604.9028	11412.4
608.90594	13315.3
612.90624	15089.6
616.90371	14029
620.89834	11514.4
624.89015	10525.1
628.87913	10460.1
632.86528	10640.5
636.84862	10755.9
640.82913	10580.6
644.80683	10296
648.78172	10102.3
652.75379	10125.1
656.72306	10348.8
660.68952	10594.3
664.65319	10576.4
668.61405	10543.9
672.57211	10700.4
676.52738	10695
680.47986	10443.7
684.42955	10216.1
688.37646	10152.9
692.32058	10251.6
696.26192	10438.1
700.20048	10632.4
704.13626	10652.3
708.06928	10563.2
711.99952	10422.8
715.927	10394.4
719.85171	10464.4
723.77365	10457.6
727.69284	10433.8
731.60928	10342.3
735.52295	10351.5
739.43388	10379.6
743.34206	10429.9
747.24749	10421.8
751.15017	10389.3
755.05012	10452.2
758.94733	10711.4
762.8418	11354.9
766.73354	12316.5
770.62254	13090.7
774.50882	13343
778.39237	13185.8
782.27321	12619.9
786.15132	11808
790.02671	11158.1
793.89938	10795.2
797.76935	10595.1
801.6366	10493.3
805.50115	10419.3
809.36299	10406.5
813.22213	10412.8
817.07857	10441.6
820.93231	10413.3
824.78336	10414.5
828.63172	10451.2
832.47738	10444
836.32036	10414.9
840.16066	10414.4
843.99827	10436.2
847.8332	10411.8
851.66546	10439.1
855.49504	10477.8
859.32195	10467.2
863.1462	10480.5
866.96777	10496.1
870.78668	10473
874.60293	10539.9
878.41652	10577.1
882.22745	10663.6
886.03573	10706.4
889.84136	10675.6
893.64433	10657.3
897.44466	10615.1
901.24235	10590.3
905.0374	10573.7
908.8298	10558.2
912.61957	10552.9
916.40671	10547.9
920.19121	10545.5
923.97308	10597.7
927.75233	10634.8
931.52895	10701.2
935.30295	10667.1
939.07433	10570.8
942.84309	10497.6
946.60924	10467.8
950.37278	10440.7
954.13371	10432.7
957.89203	10470.2
961.64774	10441.2
965.40086	10430.6
969.15137	10400.3
972.89929	10397.3
976.64461	10400.5
980.38733	10419.1
984.12747	10435.2
987.86502	10471.7
991.59999	10513.9
995.33237	10560.2
999.06217	10601.4
1002.78939	10719.7
1006.51404	10902.5
1010.23611	11053.5
1013.95561	11137
1017.67255	11190.3
1021.38692	11170.5
1025.09872	11084.1
1028.80796	10997.2
1032.51465	10918.2
1036.21877	10942.8
1039.92035	10986.1
1043.61937	11023.3
1047.31584	11067.9
1051.00976	11097.3
1054.70114	11126.1
1058.38998	11174.3
1062.07627	11223.7
1065.76003	11292.2
1069.44126	11442.2
1073.11995	11619.2
1076.79611	11873.2
1080.46974	12007.5
1084.14085	12059.2
1087.80943	12137.1
1091.47549	12180.7
1095.13903	12298.1
1098.80005	12426.5
1102.45857	12623.3
1106.11456	12573.6
1109.76805	12327.6
1113.41903	12194.3
1117.06751	12248.1
1120.71348	12343.4
1124.35696	12430.7
1127.99793	12507.5
1131.63641	12330.7
1135.2724	12057.9
1138.90589	11872.4
1142.5369	11732.1
1146.16542	11667.7
1149.79145	11610.5
1153.415	11492.8
1157.03607	11411.6
1160.65467	11454
1164.27079	11628.6
1167.88443	11888.1
1171.49561	12269.6
1175.10432	12870.4
1178.71056	13611.7
1182.31434	14288.1
1185.91565	14603.2
1189.51451	14637.2
1193.11091	14611
1196.70485	14459
1200.29634	14250.4
1203.88538	13945.2
1207.47197	13541.1
1211.05612	13152
1214.63782	12767
1218.21708	12454.6
1221.79391	12196.9
1225.36829	12097.9
1228.94024	12060.1
1232.50976	12070.4
1236.07685	12121.5
1239.6415	12157.8
1243.20374	12236.5
1246.76355	12293.5
1250.32093	12367.9
1253.8759	12510.7
1257.42845	12788.6
1260.97859	13119.1
1264.52631	13375.7
1268.07163	13577.6
1271.61453	13670.7
1275.15503	13639.6
1278.69312	13600.5
1282.22882	13573.6
1285.76211	13592.2
1289.29301	13697.4
1292.82151	13835.6
1296.34761	14032.7
1299.87133	14364.1
1303.39266	14901.7
1306.9116	15720
1310.42815	16542.1
1313.94233	16910.8
1317.45412	16540.8
1320.96354	15934.5
1324.47058	15378.4
1327.97525	14750
1331.47754	14308.9
1334.97747	14223.3
1338.47502	14334.2
1341.97022	14810.4
1345.46305	15628.6
1348.95352	16757.5
1352.44163	17907.5
1355.92738	18855.1
1359.41078	19760.6
1362.89183	20232
1366.37053	19310.3
1369.84688	17169.3
1373.32088	15246.6
1376.79254	14122.3
1380.26186	13578.5
1383.72883	13226.1
1387.19347	12851.9
1390.65578	12524.1
1394.11575	12222.5
1397.57339	12023.5
1401.0287	11916.1
1404.48168	11874.7
1407.93234	11994.3
1411.38068	12166.9
1414.82669	12333
1418.27039	12404.8
1421.71177	12382.2
1425.15083	12300.8
1428.58758	12166.2
1432.02203	12102
1435.45416	12064.2
1438.88399	12032
1442.31151	12016.9
1445.73673	12052.2
1449.15965	12085.9
1452.58027	12068.6
1455.9986	12032.5
1459.41463	12022.9
1462.82837	12134.3
1466.23982	12279.4
1469.64898	12496.3
1473.05586	12646.3
1476.46045	12782.1
1479.86276	12925.3
1483.26279	13060.3
1486.66054	13261.9
1490.05602	13620.3
1493.44922	14135.2
1496.84016	14922
1500.22882	15997.9
1503.61521	17184.2
1506.99934	18224.9
1510.38121	18669.4
1513.76081	18315.2
1517.13816	17154
1520.51324	15803.6
1523.88607	14685.5
1527.25665	13939.9
1530.62498	13578.8
1533.99105	13426.3
1537.35488	13341.2
1540.71647	13228.6
1544.07581	13198
1547.4329	13101.6
1550.78776	12938.7
1554.14038	12793.8
1557.49077	12775
1560.83892	12856
1564.18484	13115.3
1567.52853	13334.6
1570.86999	13520.8
1574.20922	13587.1
1577.54624	13459
1580.88103	13092.4
1584.2136	12631.4
1587.54395	12305.9
1590.87208	12334.9
1594.19801	12556.8
1597.52172	12861.5
1600.84321	13032.1
1604.16251	12970.7
1607.47959	12852
1610.79447	12578.4
1614.10715	12186.8
1617.41763	11754.3
1620.7259	11426.6
1624.03199	11224.2
1627.33587	11132.4
1630.63757	11180.9
1633.93707	11402.3
1637.23439	11897.9
1640.52951	12618.7
1643.82246	13622.8
1647.11321	14645.1
1650.40179	15086.3
1653.68819	14516.7
1656.97241	13252
1660.25446	12041.5
1663.53433	11225
1666.81203	10719.6
1670.08756	10418.5
1673.36092	10260.7
1676.63211	10142.5
1679.90115	10039.6
1683.16801	9958.1
1686.43272	9865.7
1689.69527	9818.1
1692.95567	9765.7
1696.2139	9736.3
1699.46999	9712
1702.72392	9694.9
1705.97571	9672.8
1709.22535	9677.4
1712.47284	9684.7
1715.71819	9674.2
1718.96139	9667.4
1722.20246	9652.6
1725.44139	9623.4
1728.67818	9567.6
1731.91284	9544.6
1735.14537	9511.1
1738.37576	9471.6
1741.60403	9440.9
1744.83017	9415.4
1748.05418	9416.9
1751.27607	9394
1754.49584	9368.1
1757.71349	9356.1
1760.92903	9337.6
1764.14244	9304
1767.35375	9299.5
1770.56294	9285.6
1773.77002	9277.1
1776.97499	9243
1780.17785	9192.2
1783.37861	9183.7
1786.57727	9165.6
1789.77382	9155.8
1792.96828	9151.4
1796.16064	9124.6
1799.3509	9120.4
1802.53907	9081.9
1805.72514	9084.7
1808.90913	9042.2
1812.09102	9017
1815.27083	9025.8
1818.44856	8990.2
1821.6242	8952.8
1824.79776	8936.5
1827.96924	8958.1
1831.13864	8919.1
1834.30597	8895.8
1837.47122	8893.6
1840.6344	8849.1
1843.7955	8849.1
1846.95454	8862.3
1850.11151	8831.2
1853.26642	8820.8
1856.41926	8836.8
1859.57004	8839.1
1862.71876	8834.5
1865.86542	8824
1869.01003	8786
1872.15258	8778.1
1875.29308	8763.2
1878.43152	8770.5
1881.56792	8736.8
1884.70227	8710.1
1887.83457	8690.4
1890.96482	8666.2
1894.09304	8652.5
1897.21921	8652
1900.34335	8632.6
1903.46544	8640.5
1906.58551	8634
1909.70353	8597.9
1912.81953	8598.8
1915.93349	8589.3
1919.04543	8557.8
1922.15534	8531.8
1925.26322	8533.8
1928.36908	8498.8
1931.47292	8479.9
1934.57473	8466.4
1937.67453	8441.1
1940.77232	8416.2
1943.86808	8371.7
1946.96184	8361.9
1950.05358	8327.5
1953.14331	8298.6
1956.23103	8296.8
1959.31675	8268.8
1962.40046	8250.1
1965.48217	8238.3
1968.56188	8200.2
1971.63959	8155.2
1974.7153	8149.4
1977.78901	8118.9
1980.86073	8098.5
1983.93046	8052.4
1986.99819	8019.1
1990.06394	8007.9
1993.1277	8000.5
1996.18947	7951
1999.24925	7911.4
2002.30706	7885.5
2005.36288	7851.6
2008.41672	7810.3
2011.46859	7816.9
2014.51848	7767.8
2017.56639	7770.3
2020.61233	7730.6
2023.6563	7714.7
2026.6983	7679.6
2029.73833	7650.9
2032.7764	7622.5
2035.8125	7615.8
2038.84664	7607.3
2041.87881	7580.8
2044.90903	7577.4
2047.93729	7563.3
2050.96359	7534.1
2053.98794	7539.9
2057.01034	7499.9
2060.03078	7515.1
2063.04927	7477.1
2066.06582	7476.5
2069.08042	7465.4
2072.09307	7453.8
2075.10378	7446.1
2078.11255	7440.1
2081.11938	7426
2084.12426	7400.4
2087.12722	7405.7
2090.12824	7414
2093.12732	7415.7
2096.12447	7410.9
2099.11969	7414.7
2102.11299	7434.5
2105.10435	7440.9
2108.09379	7409
2111.08131	7401.2
2114.0669	7420.1
2117.05057	7439.3
2120.03233	7424.3
2123.01216	7412.1
2125.99008	7439.1
2128.96609	7422
2131.94018	7441.7
2134.91236	7425.5
2137.88263	7427.7
2140.851	7417.2
2143.81746	7409.6
2146.78201	7419.1
2149.74466	7417.5
2152.7054	7398.6
2155.66425	7417.5
2158.6212	7411.6
2161.57625	7379.1
2164.52941	7385
2167.48067	7373
2170.43004	7364.1
2173.37752	7354.3
2176.32311	7344.5
2179.26681	7369.2
2182.20863	7338.5
2185.14856	7371.9
2188.08661	7363.9
2191.02278	7358.9
2193.95707	7349
2196.88948	7334.5
2199.82001	7338
2202.74867	7326.7
2205.67545	7301.7
2208.60037	7310.2
2211.52341	7290.3
2214.44458	7253.2
2217.36388	7229
2220.28132	7209.9
2223.1969	7185.8
2226.11061	7177.9
2229.02246	7154.5
2231.93245	7135.9
2234.84058	7124.6
2237.74686	7134.7
2240.65128	7105
2243.55385	7083.4
2246.45456	7075.3
2249.35343	7067
2252.25044	7042.5
2255.14561	7045.7
2258.03893	7058.3
2260.93041	7024.8
2263.82004	7017.1
2266.70783	6990.4
2269.59378	6953.3
2272.4779	6957.5
2275.36017	6924.7
2278.24061	6909
2281.11922	6906
2283.996	6870.9
2286.87094	6856.2
2289.74405	6853.3
2292.61534	6861.1
2295.4848	6835.5
2298.35243	6825.9
2301.21824	6824.7
2304.08223	6800.4
2306.94439	6808.3
2309.80474	6796.8
2312.66327	6777.4
2315.51999	6771.8
2318.37489	6754.1
2321.22797	6729.4
2324.07925	6720.1
2326.92871	6693.6
2329.77637	6696.5
2332.62222	6679.7
2335.46626	6655.4
2338.3085	6660.8
2341.14893	6636.5
2343.98756	6652.4
2346.8244	6642.3
2349.65943	6610.2
2352.49267	6600.8
2355.32411	6601.6
2358.15376	6604.4
2360.98161	6596.9
2363.80768	6602.6
2366.63195	6598.7
2369.45444	6579.4
2372.27514	6581.7
2375.09405	6570.5
2377.91118	6541.7
2380.72652	6520.9
2383.54009	6516.9
2386.35187	6518.4
2389.16188	6492.6
2391.97011	6486.1
2394.77657	6442.7
2397.58125	6400.4
2400.38416	6419
2403.18529	6397
2405.98466	6390.9
2408.78226	6380.8
2411.57809	6378.2
2414.37216	6372.5
2417.16446	6358.4
2419.955	6355.9
2422.74378	6352.2
2425.5308	6341.6
2428.31606	6346.6
2431.09956	6308.3
2433.88131	6291.8
2436.6613	6295.5
2439.43954	6298.5
2442.21603	6288.2
2444.99077	6282
2447.76377	6281.3
2450.53501	6286.5
2453.30451	6277.8
2456.07226	6251.3
2458.83827	6240.5
2461.60254	6226.3
2464.36507	6206.1
2467.12586	6188.6
2469.88492	6188.8
2472.64224	6203.4
2475.39782	6198.2
2478.15167	6168.9
2480.90379	6163.1
2483.65417	6159.4
2486.40283	6159.6
2489.14976	6153
2491.89497	6160.2
2494.63845	6133.1
2497.3802	6129.7
2500.12024	6093
2502.85855	6098.1
2505.59514	6096.9
2508.33002	6093.8
2511.06318	6064.6
2513.79462	6054.6
2516.52435	6047.1
2519.25237	6035.1
2521.97867	6008.3
2524.70327	6008.4
2527.42616	5989.4
2530.14734	5986.3
2532.86681	5968.2
2535.58458	5973.9
2538.30065	5970.7
2541.01501	5962.8
2543.72768	5946.5
2546.43864	5941.4
2549.14791	5930.9
2551.85548	5920.3
2554.56136	5910.9
2557.26554	5888.2
2559.96803	5890
2562.66883	5871.8
2565.36794	5847.8
2568.06536	5821.3
2570.7611	5797
2573.45514	5791.9
2576.14751	5787.1
2578.83819	5772.6
2581.52719	5749.2
2584.21451	5757.1
2586.90015	5754
2589.58411	5732.2
2592.2664	5720.5
2594.94701	5700.9
2597.62594	5699.4
2600.30321	5671.7
2602.9788	5678
2605.65273	5673.7
2608.32498	5662.5
2610.99557	5627.9
2613.66449	5633.2
2616.33175	5635
2618.99734	5609.3
2621.66128	5612.2
2624.32355	5579.9
2626.98416	5563.1
2629.64311	5562.8
2632.30041	5540.7
2634.95605	5541.4
2637.61004	5502.3
2640.26238	5506.7
2642.91306	5494
2645.56209	5513.3
2648.20948	5493.9
2650.85521	5475.4
2653.4993	5468.3
2656.14175	5460.1
2658.78255	5459.4
2661.42171	5450.5
2664.05923	5452.7
2666.6951	5470.8
2669.32934	5466.6
2671.96194	5486
2674.59291	5469
2677.22224	5448.8
2679.84993	5457.6
2682.476	5456.9
2685.10043	5442.1
2687.72324	5454.7
2690.34441	5439
2692.96396	5425.6
2695.58188	5438.8
2698.19818	5439.9
2700.81285	5428.5
2703.4259	5424.8
2706.03733	5415.5
2708.64714	5397.5
2711.25533	5416.4
2713.86191	5389.8
2716.46687	5402.9
2719.07021	5391.5
2721.67194	5399.8
2724.27206	5390.5
2726.87057	5388.1
2729.46747	5387.8
2732.06276	5380.1
2734.65644	5382.3
2737.24852	5362.8
2739.83899	5348.2
2742.42786	5326.9
2745.01513	5326.1
2747.60079	5327.5
2750.18486	5307
2752.76733	5319.2
2755.3482	5277.6
2757.92747	5276.4
2760.50515	5272.3
2763.08123	5265.7
2765.65573	5260.5
2768.22863	5232
2770.79994	5231.9
2773.36967	5203.6
2775.9378	5203.4
2778.50435	5180.2
2781.06932	5186.5
2783.6327	5203.3
2786.1945	5191.1
2788.75471	5168.9
2791.31335	5141.2
2793.87041	5124.5
2796.42589	5109.1
2798.97979	5106
2801.53212	5087.3
2804.08288	5071.1
2806.63206	5081.2
2809.17967	5077.8
2811.72571	5046.4
2814.27018	5050.5
2816.81308	5014.4
2819.35442	5027.7
2821.89419	4993
2824.43239	5000.9
2826.96904	4974.9
2829.50412	4992.3
2832.03763	4951.5
2834.56959	4960.5
2837.1	4950.4
2839.62884	4908.1
2842.15613	4922
2844.68186	4924.3
2847.20604	4918.2
2849.72867	4911.8
2852.24974	4878.5
2854.76927	4869.3
2857.28724	4859.5
2859.80367	4837.9
2862.31855	4853.9
2864.83189	4860
2867.34368	4845.5
2869.85393	4829.1
2872.36264	4809.6
2874.8698	4810.7
2877.37543	4824.9
2879.87952	4793.8
2882.38207	4796.8
2884.88308	4775.8
2887.38256	4783.4
2889.88051	4787.7
2892.37692	4769.1
2894.8718	4761.7
2897.36515	4762.3
2899.85698	4752.2
2902.34727	4755.7
2904.83604	4752.6
2907.32328	4763.7
2909.809	4751.7
2912.29319	4768.6
2914.77587	4758
2917.25702	4763.6
2919.73665	4776.4
2922.21476	4749.5
2924.69136	4763.9
2927.16644	4740.5
2929.64	4722.1
2932.11205	4701.9
2934.58258	4680.9
2937.05161	4702.4
2939.51912	4702
2941.98513	4692
2944.44962	4686.7
2946.91261	4676.4
2949.37409	4673.1
2951.83407	4669.2
2954.29254	4662.8
2956.74951	4654.2
2959.20498	4656.6
2961.65895	4657.2
2964.11142	4640.5
2966.56239	4633.2
2969.01186	4630.4
2971.45984	4629.8
2973.90632	4636.1
2976.35131	4615.1
2978.7948	4609.3
2981.23681	4603.4
2983.67732	4602.1
2986.11635	4568.8
2988.55388	4561
2990.98993	4554.2
2993.4245	4535.5
2995.85758	4532.4
2998.28917	4524.7
3000.71928	4509.6
3003.14791	4496.9
3005.57506	4481.8
3008.00073	4474
3010.42493	4459
3012.84764	4448.4
3015.26888	4434
3017.68865	4430.1
3020.10694	4431.2
3022.52376	4413.7
3024.9391	4388.5
3027.35298	4380.3
3029.76539	4370.7
3032.17632	4368.2
3034.5858	4356.7
3036.9938	4368.9
3039.40034	4336.8
3041.80542	4315
3044.20903	4298.9
3046.61118	4297.9
3049.01187	4290.8
3051.4111	4285
3053.80888	4271.3
3056.20519	4260.6
3058.60005	4237.2
3060.99345	4229.3
3063.3854	4230.8
3065.7759	4221.9
3068.16494	4218.2
3070.55254	4197.3
3072.93868	4174.3
3075.32338	4162.8
3077.70662	4158.8
3080.08842	4147.3
3082.46878	4149.2
3084.84769	4128.2
3087.22515	4110.2
3089.60118	4107.8
3091.97576	4112.7
3094.3489	4109.2
3096.72061	4104.8
3099.09087	4106.7
3101.4597	4083.6
3103.82709	4100.7
3106.19305	4081.7
3108.55757	4093.3
3110.92066	4072.9
3113.28232	4052.6
3115.64255	4037.8
3118.00134	4038.4
3120.35871	4045
3122.71466	4033.2
3125.06917	4015
3127.42226	3992.4
3129.77393	4005.6
3132.12417	3983.5
3134.47299	3980.2
3136.82039	3980.8
3139.16636	3962.1
3141.51092	3976.7
3143.85406	3964.3
3146.19579	3955.5
3148.53609	3962.6
3150.87499	3943.9
3153.21246	3947.2
3155.54853	3960
3157.88318	3934.8
3160.21642	3944.1
3162.54826	3936.1
3164.87868	3931.4
3167.2077	3928.9
3169.5353	3923.8
3171.86151	3916.7
3174.18631	3906.4
3176.5097	3894.1
3178.83169	3886.6
3181.15228	3882
3183.47147	3867.1
3185.78926	3861.5
3188.10565	3843.9
3190.42065	3829.9
3192.73424	3830.7
3195.04645	3831.8
3197.35725	3815.5
3199.66667	3807.4
3201.97469	3798.6
3204.28132	3812.3
3206.58656	3814.2
3208.8904	3813.5
3211.19287	3801.2
3213.49394	3809.2
3215.79363	3812.5
3218.09193	3814.4
3220.38884	3810.3
3222.68438	3785.5
3224.97853	3781.7
3227.2713	3785.9
3229.56269	3767.8
3231.8527	3771.5
3234.14133	3754.1
3236.42858	3746.6
3238.71446	3724.5
3240.99896	3719.8
3243.28209	3706.4
3245.56384	3695.7
3247.84423	3691.1
3250.12324	3696.9
3252.40088	3669.7
3254.67715	3677.7
3256.95205	3669.3
3259.22558	3670.3
3261.49775	3665
3263.76855	3670.2
3266.03799	3662.2
3268.30606	3657.7
3270.57277	3661.8
3272.83812	3645.8
3275.10211	3630.8
3277.36474	3622.2
3279.62601	3615.2
3281.88593	3608.3
3284.14448	3594.5
3286.40168	3586.7
3288.65753	3589.7
3290.91202	3585.9
3293.16516	3574.6
3295.41695	3579
3297.66738	3568
3299.91647	3534
3302.16421	3521.3
3304.4106	3493.9
3306.65564	3469.3
3308.89933	3441.6
3311.14169	3410
3313.38269	3384.8
3315.62236	3367.3
3317.86068	3333
3320.09766	3310.4
3322.3333	3284.5
3324.5676	3259.3
3326.80056	3214.7
3329.03219	3172.2
3331.26248	0.6
3333.49143	0.4
3335.71905	-0.2
