Data from AgNPs_UA_5uM_CRN_500uM_SU_RamanShift__50__11-37-43-148.txt Node

Date: Thu Aug 04 11:37:43 BST 2022
User: TCL
Spectrometer: QEP01345
Trigger mode: 4
Integration Time (sec): 1.000000E0
Scans to average: 10
Electric dark correction enabled: true
Nonlinearity correction enabled: false
Boxcar width: 0
XAxis mode: Raman Shifts
Number of Pixels in Spectrum: 1044
>>>>>Begin Spectral Data<<<<<
46.04893	0.4875
50.45542	-0.2125
54.85868	0.9875
59.25871	-1.0125
63.6555	-55.3125
68.04907	-35.9125
72.43941	-68.7125
76.82654	-52.3125
81.21044	-55.6125
85.59113	-47.3125
89.96862	-71.6125
94.34289	-52.2125
98.71396	-74.9125
103.08183	-53.4125
107.4465	-46.2125
111.80798	-51.3125
116.16626	-42.5125
120.52136	-68.3125
124.87327	-45.8125
129.222	-56.2125
133.56755	-41.2125
137.90993	-53.2125
142.24913	-41.8125
146.58517	-31.5125
150.91804	-23.6125
155.24774	-11.6125
159.57429	16.1875
163.89768	34.4875
168.21792	92.6875
172.53501	141.4875
176.84895	258.1875
181.15975	443.4875
185.46741	659.8875
189.77193	935.4875
194.07331	1335.8875
198.37157	1767.9875
202.6667	2198.9875
206.9587	2681.3875
211.24758	3203.0875
215.53334	3752.6875
219.81599	4411.8875
224.09553	5171.9875
228.37195	5942.6875
232.64527	6684.9875
236.91549	7299.5875
241.18261	7636.3875
245.44663	7780.7875
249.70755	7779.8875
253.96539	7779.2875
258.22014	7860.5875
262.4718	7928.8875
266.72039	7937.5875
270.96589	7814.4875
275.20832	7505.9875
279.44768	7232.3875
283.68397	7003.6875
287.91719	6914.2875
292.14735	7041.6875
296.37445	7520.2875
300.59849	8376.3875
304.81948	9528.8875
309.03742	10850.2875
313.25231	11803.8875
317.46415	11639.2875
321.67296	10274.2875
325.87872	8714.1875
330.08145	7828.9875
334.28114	7641.4875
338.47781	7884.1875
342.67145	8385.1875
346.86207	9213.8875
351.04966	10479.1875
355.23424	11748.8875
359.4158	12273.2875
363.59435	11883.7875
367.76989	11112.9875
371.94243	10410.8875
376.11196	9791.4875
380.27849	9385.4875
384.44203	9052.4875
388.60257	8866.9875
392.76012	8879.2875
396.91468	9167.9875
401.06626	9538.6875
405.21485	9540.3875
409.36047	8994.9875
413.50311	8046.4875
417.64277	7162.5875
421.77947	6583.1875
425.9132	6320.9875
430.04396	6207.9875
434.17176	6207.5875
438.2966	6304.9875
442.41849	6498.2875
446.53742	6688.3875
450.6534	6816.7875
454.76644	6840.2875
458.87653	6763.8875
462.98368	6653.0875
467.08789	6505.6875
471.18916	6307.2875
475.2875	6045.6875
479.38291	5851.0875
483.4754	5702.8875
487.56496	5652.4875
491.6516	5585.5875
495.73531	5560.5875
499.81612	5647.6875
503.89401	5813.9875
507.96899	5962.5875
512.04106	6224.4875
516.11023	6476.3875
520.1765	6677.7875
524.23987	6737.2875
528.30034	6723.0875
532.35792	6561.1875
536.41261	6411.7875
540.46441	6206.5875
544.51333	6064.1875
548.55936	6046.7875
552.60252	6212.2875
556.64279	6408.3875
560.6802	6794.2875
564.71473	7621.0875
568.7464	8688.9875
572.7752	8633.0875
576.80114	7218.8875
580.82422	6102.1875
584.84444	5633.4875
588.86181	5486.6875
592.87633	5500.6875
596.888	5695.2875
600.89682	6404.5875
604.9028	8755.4875
608.90594	14707.7875
612.90624	21936.9875
616.90371	19973.0875
620.89834	10988.0875
624.89015	7076.6875
628.87913	6611.3875
632.86528	7191.4875
636.84862	7463.8875
640.82913	6805.7875
644.80683	5877.9875
648.78172	5427.5875
652.75379	5557.0875
656.72306	6257.0875
660.68952	6926.1875
664.65319	6579.5875
668.61405	5708.8875
672.57211	5346.6875
676.52738	5355.8875
680.47986	5266.6875
684.42955	5121.7875
688.37646	5036.7875
692.32058	5047.8875
696.26192	5149.7875
700.20048	5279.4875
704.13626	5298.7875
708.06928	5233.4875
711.99952	5190.6875
715.927	5249.2875
719.85171	5425.1875
723.77365	5565.6875
727.69284	5419.4875
731.60928	5293.9875
735.52295	5252.4875
739.43388	5314.0875
743.34206	5343.8875
747.24749	5352.7875
751.15017	5377.3875
755.05012	5652.4875
758.94733	6786.2875
762.8418	9407.7875
766.73354	12859.9875
770.62254	14656.9875
774.50882	13961.5875
778.39237	12699.2875
782.27321	10714.9875
786.15132	8168.5875
790.02671	6447.5875
793.89938	5601.9875
797.76935	5356.1875
801.6366	5221.8875
805.50115	5140.9875
809.36299	5097.1875
813.22213	5074.7875
817.07857	5072.7875
820.93231	5122.1875
824.78336	5194.4875
828.63172	5296.2875
832.47738	5344.1875
836.32036	5272.2875
840.16066	5083.3875
843.99827	4967.7875
847.8332	4938.2875
851.66546	4945.0875
855.49504	4901.3875
859.32195	4911.6875
863.1462	4878.6875
866.96777	4876.7875
870.78668	4846.2875
874.60293	4882.8875
878.41652	4954.1875
882.22745	5095.8875
886.03573	5170.6875
889.84136	5129.9875
893.64433	5118.9875
897.44466	5107.2875
901.24235	5131.8875
905.0374	5066.8875
908.8298	4897.2875
912.61957	4775.4875
916.40671	4703.2875
920.19121	4770.3875
923.97308	4921.2875
927.75233	5291.5875
931.52895	5630.7875
935.30295	5455.9875
939.07433	4923.6875
942.84309	4593.9875
946.60924	4454.8875
950.37278	4392.5875
954.13371	4401.0875
957.89203	4379.3875
961.64774	4389.0875
965.40086	4366.1875
969.15137	4340.6875
972.89929	4381.5875
976.64461	4334.4875
980.38733	4348.9875
984.12747	4337.9875
987.86502	4339.7875
991.59999	4372.1875
995.33237	4439.7875
999.06217	4524.2875
1002.78939	4695.1875
1006.51404	4957.4875
1010.23611	5110.6875
1013.95561	4994.3875
1017.67255	4831.0875
1021.38692	4703.6875
1025.09872	4556.6875
1028.80796	4482.9875
1032.51465	4508.6875
1036.21877	4546.1875
1039.92035	4628.4875
1043.61937	4686.1875
1047.31584	4753.1875
1051.00976	4763.2875
1054.70114	4708.5875
1058.38998	4678.2875
1062.07627	4653.8875
1065.76003	4664.9875
1069.44126	4719.1875
1073.11995	4804.7875
1076.79611	5061.9875
1080.46974	5516.0875
1084.14085	6165.3875
1087.80943	6704.8875
1091.47549	6688.0875
1095.13903	6173.5875
1098.80005	5658.1875
1102.45857	5377.2875
1106.11456	5341.1875
1109.76805	5417.5875
1113.41903	5736.4875
1117.06751	6301.8875
1120.71348	7203.3875
1124.35696	8565.1875
1127.99793	9495.1875
1131.63641	8799.2875
1135.2724	7351.6875
1138.90589	6366.2875
1142.5369	5821.4875
1146.16542	5467.5875
1149.79145	5242.7875
1153.415	5162.2875
1157.03607	5196.4875
1160.65467	5377.4875
1164.27079	5753.0875
1167.88443	6268.7875
1171.49561	7181.5875
1175.10432	8734.3875
1178.71056	10903.6875
1182.31434	12466.4875
1185.91565	12254.0875
1189.51451	10875.0875
1193.11091	9416.1875
1196.70485	8482.4875
1200.29634	8091.8875
1203.88538	7610.9875
1207.47197	6743.5875
1211.05612	5887.5875
1214.63782	5366.5875
1218.21708	5109.7875
1221.79391	5007.5875
1225.36829	4971.6875
1228.94024	4980.2875
1232.50976	4979.4875
1236.07685	4990.4875
1239.6415	5041.1875
1243.20374	5130.0875
1246.76355	5283.4875
1250.32093	5468.2875
1253.8759	5710.7875
1257.42845	6126.1875
1260.97859	6691.5875
1264.52631	7282.6875
1268.07163	7598.7875
1271.61453	7644.4875
1275.15503	7469.6875
1278.69312	7246.0875
1282.22882	7434.1875
1285.76211	8187.0875
1289.29301	9260.7875
1292.82151	9997.6875
1296.34761	10325.2875
1299.87133	11050.0875
1303.39266	12894.7875
1306.9116	16368.4875
1310.42815	20573.6875
1313.94233	21959.0875
1317.45412	18714.1875
1320.96354	14148.2875
1324.47058	10679.5875
1327.97525	8540.4875
1331.47754	7465.6875
1334.97747	7121.4875
1338.47502	7280.2875
1341.97022	8103.8875
1345.46305	9982.6875
1348.95352	12640.8875
1352.44163	15375.4875
1355.92738	18675.7875
1359.41078	24388.9875
1362.89183	30599.0875
1366.37053	29351.2875
1369.84688	20571.0875
1373.32088	13276.5875
1376.79254	10150.5875
1380.26186	8752.9875
1383.72883	7650.7875
1387.19347	6678.0875
1390.65578	5912.1875
1394.11575	5472.9875
1397.57339	5259.8875
1401.0287	5120.4875
1404.48168	4977.1875
1407.93234	4917.5875
1411.38068	5010.7875
1414.82669	5320.9875
1418.27039	5695.5875
1421.71177	5796.8875
1425.15083	5621.2875
1428.58758	5593.1875
1432.02203	5980.2875
1435.45416	6292.0875
1438.88399	6059.8875
1442.31151	5768.4875
1445.73673	5694.3875
1449.15965	5666.9875
1452.58027	5592.1875
1455.9986	5438.9875
1459.41463	5320.0875
1462.82837	5330.4875
1466.23982	5550.6875
1469.64898	5864.6875
1473.05586	5982.8875
1476.46045	5977.7875
1479.86276	6002.9875
1483.26279	6251.1875
1486.66054	6773.9875
1490.05602	7647.4875
1493.44922	9071.2875
1496.84016	11266.1875
1500.22882	14745.6875
1503.61521	19534.6875
1506.99934	25603.1875
1510.38121	31436.7875
1513.76081	33494.6875
1517.13816	29445.8875
1520.51324	22077.0875
1523.88607	15562.2875
1527.25665	11458.7875
1530.62498	9146.9875
1533.99105	7853.1875
1537.35488	6988.9875
1540.71647	6493.7875
1544.07581	6290.2875
1547.4329	6306.5875
1550.78776	6463.1875
1554.14038	6751.2875
1557.49077	7189.7875
1560.83892	7979.9875
1564.18484	9185.5875
1567.52853	10562.7875
1570.86999	11437.7875
1574.20922	11552.1875
1577.54624	11050.7875
1580.88103	9440.6875
1584.2136	7457.9875
1587.54395	6315.7875
1590.87208	6017.9875
1594.19801	6344.4875
1597.52172	6981.2875
1600.84321	6984.4875
1604.16251	6341.7875
1607.47959	5671.6875
1610.79447	5302.7875
1614.10715	4973.7875
1617.41763	4749.0875
1620.7259	4611.7875
1624.03199	4655.4875
1627.33587	4787.9875
1630.63757	5100.0875
1633.93707	5673.9875
1637.23439	6690.2875
1640.52951	8565.9875
1643.82246	11780.6875
1647.11321	16166.1875
1650.40179	19674.6875
1653.68819	19321.1875
1656.97241	15312.9875
1660.25446	10665.5875
1663.53433	7473.0875
1666.81203	5721.1875
1670.08756	4836.6875
1673.36092	4364.5875
1676.63211	4061.3875
1679.90115	3880.7875
1683.16801	3740.0875
1686.43272	3615.3875
1689.69527	3553.6875
1692.95567	3487.3875
1696.2139	3464.3875
1699.46999	3394.2875
1702.72392	3378.6875
1705.97571	3385.4875
1709.22535	3383.5875
1712.47284	3438.8875
1715.71819	3459.9875
1718.96139	3444.5875
1722.20246	3435.5875
1725.44139	3387.9875
1728.67818	3335.2875
1731.91284	3264.1875
1735.14537	3211.3875
1738.37576	3168.3875
1741.60403	3162.6875
1744.83017	3120.3875
1748.05418	3111.1875
1751.27607	3111.6875
1754.49584	3047.1875
1757.71349	3001.5875
1760.92903	2975.4875
1764.14244	2915.8875
1767.35375	2894.1875
1770.56294	2865.5875
1773.77002	2818.9875
1776.97499	2822.2875
1780.17785	2776.8875
1783.37861	2754.0875
1786.57727	2764.3875
1789.77382	2699.4875
1792.96828	2732.4875
1796.16064	2732.5875
1799.3509	2729.1875
1802.53907	2732.3875
1805.72514	2682.3875
1808.90913	2676.6875
1812.09102	2669.2875
1815.27083	2662.0875
1818.44856	2642.5875
1821.6242	2649.8875
1824.79776	2634.7875
1827.96924	2616.3875
1831.13864	2585.8875
1834.30597	2591.4875
1837.47122	2562.8875
1840.6344	2545.8875
1843.7955	2511.3875
1846.95454	2493.2875
1850.11151	2508.0875
1853.26642	2469.3875
1856.41926	2474.9875
1859.57004	2491.5875
1862.71876	2472.4875
1865.86542	2502.0875
1869.01003	2493.0875
1872.15258	2476.3875
1875.29308	2477.6875
1878.43152	2489.8875
1881.56792	2479.0875
1884.70227	2462.1875
1887.83457	2465.7875
1890.96482	2411.5875
1894.09304	2436.4875
1897.21921	2422.7875
1900.34335	2432.7875
1903.46544	2403.4875
1906.58551	2434.6875
1909.70353	2415.4875
1912.81953	2407.4875
1915.93349	2396.6875
1919.04543	2386.5875
1922.15534	2368.9875
1925.26322	2369.5875
1928.36908	2343.3875
1931.47292	2336.9875
1934.57473	2320.8875
1937.67453	2279.9875
1940.77232	2248.8875
1943.86808	2243.2875
1946.96184	2240.2875
1950.05358	2214.3875
1953.14331	2201.6875
1956.23103	2222.6875
1959.31675	2210.7875
1962.40046	2168.1875
1965.48217	2213.1875
1968.56188	2212.9875
1971.63959	2239.0875
1974.7153	2234.8875
1977.78901	2224.6875
1980.86073	2196.2875
1983.93046	2149.5875
1986.99819	2060.3875
1990.06394	2084.8875
1993.1277	2097.5875
1996.18947	2100.7875
1999.24925	2059.7875
2002.30706	2051.5875
2005.36288	2054.2875
2008.41672	2028.1875
2011.46859	2017.1875
2014.51848	1996.5875
2017.56639	1989.8875
2020.61233	1990.6875
2023.6563	1993.9875
2026.6983	1952.8875
2029.73833	1953.1875
2032.7764	1969.6875
2035.8125	1921.2875
2038.84664	1937.1875
2041.87881	1924.5875
2044.90903	1928.0875
2047.93729	1921.3875
2050.96359	1901.2875
2053.98794	1906.2875
2057.01034	1909.6875
2060.03078	1877.2875
2063.04927	1879.2875
2066.06582	1862.0875
2069.08042	1860.6875
2072.09307	1854.9875
2075.10378	1852.1875
2078.11255	1843.9875
2081.11938	1854.1875
2084.12426	1848.9875
2087.12722	1849.1875
2090.12824	1833.0875
2093.12732	1839.7875
2096.12447	1849.7875
2099.11969	1843.2875
2102.11299	1840.3875
2105.10435	1848.2875
2108.09379	1842.8875
2111.08131	1846.4875
2114.0669	1848.2875
2117.05057	1856.4875
2120.03233	1851.1875
2123.01216	1893.0875
2125.99008	1885.0875
2128.96609	1886.5875
2131.94018	1904.4875
2134.91236	1874.2875
2137.88263	1870.5875
2140.851	1843.0875
2143.81746	1856.5875
2146.78201	1832.3875
2149.74466	1810.3875
2152.7054	1814.8875
2155.66425	1795.0875
2158.6212	1783.6875
2161.57625	1763.1875
2164.52941	1747.7875
2167.48067	1760.3875
2170.43004	1759.7875
2173.37752	1793.0875
2176.32311	1776.3875
2179.26681	1787.5875
2182.20863	1798.8875
2185.14856	1784.9875
2188.08661	1793.1875
2191.02278	1781.5875
2193.95707	1751.5875
2196.88948	1733.7875
2199.82001	1739.9875
2202.74867	1727.2875
2205.67545	1739.8875
2208.60037	1744.8875
2211.52341	1740.4875
2214.44458	1732.9875
2217.36388	1719.4875
2220.28132	1719.2875
2223.1969	1688.0875
2226.11061	1700.4875
2229.02246	1689.0875
2231.93245	1695.9875
2234.84058	1674.1875
2237.74686	1666.2875
2240.65128	1665.8875
2243.55385	1677.9875
2246.45456	1656.3875
2249.35343	1682.9875
2252.25044	1694.6875
2255.14561	1707.2875
2258.03893	1726.4875
2260.93041	1735.1875
2263.82004	1744.5875
2266.70783	1738.7875
2269.59378	1728.4875
2272.4779	1710.1875
2275.36017	1726.9875
2278.24061	1712.2875
2281.11922	1674.7875
2283.996	1692.9875
2286.87094	1668.6875
2289.74405	1676.0875
2292.61534	1659.3875
2295.4848	1650.5875
2298.35243	1624.6875
2301.21824	1614.9875
2304.08223	1614.0875
2306.94439	1619.3875
2309.80474	1625.4875
2312.66327	1628.0875
2315.51999	1606.2875
2318.37489	1603.5875
2321.22797	1582.7875
2324.07925	1583.9875
2326.92871	1581.1875
2329.77637	1569.0875
2332.62222	1573.3875
2335.46626	1558.9875
2338.3085	1574.6875
2341.14893	1581.3875
2343.98756	1600.0875
2346.8244	1575.8875
2349.65943	1576.2875
2352.49267	1581.6875
2355.32411	1607.6875
2358.15376	1604.0875
2360.98161	1625.3875
2363.80768	1622.0875
2366.63195	1648.0875
2369.45444	1668.4875
2372.27514	1665.5875
2375.09405	1673.1875
2377.91118	1638.6875
2380.72652	1629.9875
2383.54009	1620.9875
2386.35187	1613.8875
2389.16188	1590.5875
2391.97011	1580.6875
2394.77657	1563.9875
2397.58125	1555.8875
2400.38416	1554.6875
2403.18529	1532.5875
2405.98466	1514.6875
2408.78226	1525.1875
2411.57809	1514.2875
2414.37216	1508.6875
2417.16446	1497.4875
2419.955	1489.2875
2422.74378	1512.7875
2425.5308	1495.0875
2428.31606	1511.1875
2431.09956	1520.2875
2433.88131	1511.5875
2436.6613	1520.4875
2439.43954	1520.0875
2442.21603	1510.0875
2444.99077	1520.2875
2447.76377	1535.2875
2450.53501	1531.6875
2453.30451	1538.2875
2456.07226	1546.0875
2458.83827	1543.0875
2461.60254	1501.8875
2464.36507	1527.1875
2467.12586	1508.3875
2469.88492	1524.5875
2472.64224	1528.2875
2475.39782	1513.5875
2478.15167	1546.2875
2480.90379	1540.9875
2483.65417	1577.5875
2486.40283	1598.2875
2489.14976	1610.9875
2491.89497	1595.2875
2494.63845	1601.0875
2497.3802	1583.0875
2500.12024	1579.4875
2502.85855	1568.5875
2505.59514	1556.3875
2508.33002	1521.7875
2511.06318	1485.6875
2513.79462	1475.8875
2516.52435	1429.4875
2519.25237	1397.5875
2521.97867	1398.1875
2524.70327	1387.2875
2527.42616	1386.9875
2530.14734	1394.3875
2532.86681	1376.2875
2535.58458	1378.6875
2538.30065	1375.6875
2541.01501	1390.9875
2543.72768	1379.8875
2546.43864	1386.8875
2549.14791	1391.1875
2551.85548	1377.9875
2554.56136	1385.6875
2557.26554	1387.9875
2559.96803	1401.6875
2562.66883	1402.3875
2565.36794	1393.2875
2568.06536	1375.3875
2570.7611	1408.5875
2573.45514	1381.9875
2576.14751	1382.3875
2578.83819	1365.6875
2581.52719	1355.4875
2584.21451	1352.8875
2586.90015	1337.6875
2589.58411	1319.9875
2592.2664	1338.4875
2594.94701	1341.0875
2597.62594	1345.2875
2600.30321	1295.6875
2602.9788	1309.8875
2605.65273	1310.0875
2608.32498	1314.6875
2610.99557	1337.3875
2613.66449	1310.5875
2616.33175	1331.8875
2618.99734	1327.9875
2621.66128	1335.9875
2624.32355	1317.8875
2626.98416	1307.3875
2629.64311	1291.2875
2632.30041	1280.6875
2634.95605	1262.1875
2637.61004	1241.0875
2640.26238	1224.2875
2642.91306	1226.9875
2645.56209	1250.1875
2648.20948	1243.9875
2650.85521	1225.4875
2653.4993	1251.4875
2656.14175	1246.6875
2658.78255	1240.6875
2661.42171	1214.3875
2664.05923	1270.9875
2666.6951	1265.5875
2669.32934	1278.1875
2671.96194	1298.0875
2674.59291	1273.8875
2677.22224	1288.9875
2679.84993	1272.6875
2682.476	1268.4875
2685.10043	1265.4875
2687.72324	1253.9875
2690.34441	1245.5875
2692.96396	1252.8875
2695.58188	1257.5875
2698.19818	1248.9875
2700.81285	1230.5875
2703.4259	1228.8875
2706.03733	1201.4875
2708.64714	1214.2875
2711.25533	1237.7875
2713.86191	1242.5875
2716.46687	1241.6875
2719.07021	1247.4875
2721.67194	1247.6875
2724.27206	1250.3875
2726.87057	1223.8875
2729.46747	1218.0875
2732.06276	1218.6875
2734.65644	1208.6875
2737.24852	1203.5875
2739.83899	1186.6875
2742.42786	1191.3875
2745.01513	1196.7875
2747.60079	1177.5875
2750.18486	1157.2875
2752.76733	1166.5875
2755.3482	1148.1875
2757.92747	1152.2875
2760.50515	1128.8875
2763.08123	1135.2875
2765.65573	1133.8875
2768.22863	1120.3875
2770.79994	1114.0875
2773.36967	1118.3875
2775.9378	1113.5875
2778.50435	1113.3875
2781.06932	1122.1875
2783.6327	1098.0875
2786.1945	1126.1875
2788.75471	1119.4875
2791.31335	1112.6875
2793.87041	1122.9875
2796.42589	1117.4875
2798.97979	1108.8875
2801.53212	1130.6875
2804.08288	1139.3875
2806.63206	1138.1875
2809.17967	1131.2875
2811.72571	1156.6875
2814.27018	1168.0875
2816.81308	1175.8875
2819.35442	1151.1875
2821.89419	1185.7875
2824.43239	1173.3875
2826.96904	1208.6875
2829.50412	1184.9875
2832.03763	1184.2875
2834.56959	1182.6875
2837.1	1163.4875
2839.62884	1150.2875
2842.15613	1158.7875
2844.68186	1162.4875
2847.20604	1139.0875
2849.72867	1145.9875
2852.24974	1162.8875
2854.76927	1137.5875
2857.28724	1111.6875
2859.80367	1191.9875
2862.31855	1202.2875
2864.83189	1205.4875
2867.34368	1220.6875
2869.85393	1242.8875
2872.36264	1220.8875
2874.8698	1235.5875
2877.37543	1235.8875
2879.87952	1217.3875
2882.38207	1193.2875
2884.88308	1193.6875
2887.38256	1185.2875
2889.88051	1165.3875
2892.37692	1160.0875
2894.8718	1138.0875
2897.36515	1152.3875
2899.85698	1157.1875
2902.34727	1155.1875
2904.83604	1168.3875
2907.32328	1194.7875
2909.809	1203.5875
2912.29319	1209.1875
2914.77587	1233.0875
2917.25702	1243.3875
2919.73665	1231.1875
2922.21476	1221.8875
2924.69136	1200.0875
2927.16644	1172.1875
2929.64	1159.4875
2932.11205	1136.2875
2934.58258	1142.0875
2937.05161	1124.3875
2939.51912	1132.5875
2941.98513	1135.1875
2944.44962	1128.3875
2946.91261	1104.1875
2949.37409	1110.7875
2951.83407	1115.7875
2954.29254	1111.4875
2956.74951	1126.2875
2959.20498	1117.8875
2961.65895	1121.6875
2964.11142	1105.7875
2966.56239	1102.8875
2969.01186	1112.5875
2971.45984	1103.4875
2973.90632	1090.8875
2976.35131	1113.9875
2978.7948	1096.5875
2981.23681	1097.2875
2983.67732	1098.4875
2986.11635	1110.0875
2988.55388	1088.0875
2990.98993	1100.9875
2993.4245	1086.7875
2995.85758	1092.0875
2998.28917	1094.7875
3000.71928	1086.3875
3003.14791	1098.3875
3005.57506	1085.1875
3008.00073	1069.3875
3010.42493	1010.4875
3012.84764	1069.2875
3015.26888	1070.1875
3017.68865	1070.8875
3020.10694	1020.2875
3022.52376	1039.6875
3024.9391	1041.9875
3027.35298	1024.1875
3029.76539	1001.1875
3032.17632	1002.5875
3034.5858	987.7875
3036.9938	989.7875
3039.40034	977.0875
3041.80542	949.4875
3044.20903	943.4875
3046.61118	929.9875
3049.01187	948.5875
3051.4111	937.0875
3053.80888	922.1875
3056.20519	924.1875
3058.60005	909.4875
3060.99345	934.3875
3063.3854	917.2875
3065.7759	903.4875
3068.16494	893.1875
3070.55254	886.7875
3072.93868	903.4875
3075.32338	896.7875
3077.70662	891.0875
3080.08842	880.3875
3082.46878	869.2875
3084.84769	889.6875
3087.22515	873.7875
3089.60118	876.7875
3091.97576	860.1875
3094.3489	871.7875
3096.72061	864.2875
3099.09087	846.8875
3101.4597	862.2875
3103.82709	858.6875
3106.19305	849.2875
3108.55757	855.7875
3110.92066	843.9875
3113.28232	858.2875
3115.64255	861.5875
3118.00134	864.3875
3120.35871	843.3875
3122.71466	833.3875
3125.06917	848.3875
3127.42226	840.9875
3129.77393	822.3875
3132.12417	842.7875
3134.47299	846.2875
3136.82039	831.4875
3139.16636	806.7875
3141.51092	834.8875
3143.85406	841.4875
3146.19579	818.4875
3148.53609	828.9875
3150.87499	837.2875
3153.21246	828.5875
3155.54853	835.3875
3157.88318	844.1875
3160.21642	843.0875
3162.54826	839.7875
3164.87868	835.3875
3167.2077	796.1875
3169.5353	822.5875
3171.86151	828.8875
3174.18631	806.2875
3176.5097	801.7875
3178.83169	796.7875
3181.15228	801.5875
3183.47147	780.5875
3185.78926	763.3875
3188.10565	778.1875
3190.42065	763.0875
3192.73424	772.1875
3195.04645	762.9875
3197.35725	754.5875
3199.66667	766.1875
3201.97469	761.4875
3204.28132	751.5875
3206.58656	770.5875
3208.8904	777.9875
3211.19287	774.4875
3213.49394	766.7875
3215.79363	763.8875
3218.09193	778.7875
3220.38884	774.8875
3222.68438	775.1875
3224.97853	748.5875
3227.2713	776.7875
3229.56269	752.8875
3231.8527	765.2875
3234.14133	749.1875
3236.42858	750.2875
3238.71446	729.6875
3240.99896	748.1875
3243.28209	737.3875
3245.56384	741.8875
3247.84423	727.9875
3250.12324	739.3875
3252.40088	737.9875
3254.67715	730.4875
3256.95205	713.8875
3259.22558	733.2875
3261.49775	731.8875
3263.76855	721.1875
3266.03799	736.4875
3268.30606	736.1875
3270.57277	737.1875
3272.83812	720.7875
3275.10211	729.8875
3277.36474	749.2875
3279.62601	741.0875
3281.88593	728.9875
3284.14448	716.1875
3286.40168	748.2875
3288.65753	741.3875
3290.91202	747.8875
3293.16516	739.1875
3295.41695	773.1875
3297.66738	777.1875
3299.91647	762.8875
3302.16421	780.1875
3304.4106	742.1875
3306.65564	772.3875
3308.89933	754.6875
3311.14169	753.3875
3313.38269	758.9875
3315.62236	745.2875
3317.86068	744.2875
3320.09766	756.1875
3322.3333	732.1875
3324.5676	732.2875
3326.80056	734.7875
3329.03219	735.9875
3331.26248	-0.1125
3333.49143	-1.4125
3335.71905	0.5875
