Data from AgNPs_UA_5uM_CRN_500uM_SU_RamanShift__83__11-43-13-155.txt Node

Date: Thu Aug 04 11:43:13 BST 2022
User: TCL
Spectrometer: QEP01345
Trigger mode: 4
Integration Time (sec): 1.000000E0
Scans to average: 10
Electric dark correction enabled: true
Nonlinearity correction enabled: false
Boxcar width: 0
XAxis mode: Raman Shifts
Number of Pixels in Spectrum: 1044
>>>>>Begin Spectral Data<<<<<
46.04893	-1.075
50.45542	0.525
54.85868	-0.675
59.25871	-0.675
63.6555	-62.175
68.04907	-45.375
72.43941	-75.775
76.82654	-61.575
81.21044	-61.975
85.59113	-54.275
89.96862	-82.475
94.34289	-61.975
98.71396	-84.175
103.08183	-64.775
107.4465	-56.675
111.80798	-64.375
116.16626	-52.575
120.52136	-83.775
124.87327	-57.875
129.222	-73.375
133.56755	-61.975
137.90993	-74.675
142.24913	-63.575
146.58517	-60.575
150.91804	-59.675
155.24774	-54.275
159.57429	-41.075
163.89768	-46.475
168.21792	-17.075
172.53501	-20.175
176.84895	30.825
181.15975	111.525
185.46741	191.325
189.77193	278.625
194.07331	450.025
198.37157	601.325
202.6667	743.225
206.9587	925.125
211.24758	1092.625
215.53334	1262.025
219.81599	1433.825
224.09553	1648.725
228.37195	1850.525
232.64527	2070.725
236.91549	2327.425
241.18261	2535.625
245.44663	2729.725
249.70755	2892.625
253.96539	3039.025
258.22014	3183.125
262.4718	3283.025
266.72039	3348.225
270.96589	3355.525
275.20832	3324.925
279.44768	3284.025
283.68397	3220.925
287.91719	3173.725
292.14735	3153.625
296.37445	3183.725
300.59849	3269.825
304.81948	3344.025
309.03742	3459.425
313.25231	3541.225
317.46415	3563.825
321.67296	3409.425
325.87872	3275.225
330.08145	3209.125
334.28114	3221.825
338.47781	3247.125
342.67145	3339.625
346.86207	3441.525
351.04966	3598.525
355.23424	3747.625
359.4158	3871.325
363.59435	3842.925
367.76989	3818.325
371.94243	3790.125
376.11196	3755.125
380.27849	3776.825
384.44203	3752.425
388.60257	3768.225
392.76012	3779.725
396.91468	3855.425
401.06626	3931.525
405.21485	3933.925
409.36047	3902.825
413.50311	3837.225
417.64277	3762.325
421.77947	3706.925
425.9132	3708.225
430.04396	3701.025
434.17176	3741.225
438.2966	3795.725
442.41849	3822.725
446.53742	3861.825
450.6534	3902.425
454.76644	3952.625
458.87653	3968.325
462.98368	3966.925
467.08789	3962.025
471.18916	3956.225
475.2875	3954.225
479.38291	3934.725
483.4754	3937.125
487.56496	3937.825
491.6516	3917.925
495.73531	3940.425
499.81612	3951.325
503.89401	4006.825
507.96899	4007.125
512.04106	4053.225
516.11023	4090.325
520.1765	4111.525
524.23987	4132.725
528.30034	4162.025
532.35792	4115.125
536.41261	4149.525
540.46441	4131.925
544.51333	4118.825
548.55936	4150.525
552.60252	4180.525
556.64279	4219.425
560.6802	4278.025
564.71473	4353.725
568.7464	4454.025
572.7752	4442.825
576.80114	4313.725
580.82422	4252.125
584.84444	4211.725
588.86181	4206.125
592.87633	4222.525
596.888	4272.025
600.89682	4388.925
604.9028	4696.225
608.90594	5324.025
612.90624	6085.925
616.90371	5820.025
620.89834	4900.225
624.89015	4522.625
628.87913	4446.725
632.86528	4538.825
636.84862	4598.325
640.82913	4550.925
644.80683	4453.025
648.78172	4402.225
652.75379	4447.125
656.72306	4529.325
660.68952	4612.825
664.65319	4588.725
668.61405	4510.125
672.57211	4513.525
676.52738	4536.825
680.47986	4519.325
684.42955	4508.825
688.37646	4516.825
692.32058	4525.425
696.26192	4548.825
700.20048	4601.725
704.13626	4609.425
708.06928	4594.725
711.99952	4628.025
715.927	4614.725
719.85171	4634.125
723.77365	4660.325
727.69284	4650.325
731.60928	4669.925
735.52295	4659.525
739.43388	4690.425
743.34206	4690.025
747.24749	4733.825
751.15017	4734.825
755.05012	4758.125
758.94733	4908.925
762.8418	5151.425
766.73354	5521.725
770.62254	5751.825
774.50882	5706.325
778.39237	5597.125
782.27321	5383.125
786.15132	5129.525
790.02671	4966.225
793.89938	4838.825
797.76935	4834.225
801.6366	4792.725
805.50115	4795.925
809.36299	4810.025
813.22213	4809.125
817.07857	4829.425
820.93231	4823.825
824.78336	4856.625
828.63172	4871.625
832.47738	4868.425
836.32036	4893.125
840.16066	4880.025
843.99827	4880.025
847.8332	4883.525
851.66546	4878.325
855.49504	4886.625
859.32195	4923.925
863.1462	4919.525
866.96777	4926.725
870.78668	4928.725
874.60293	4935.825
878.41652	4958.225
882.22745	5001.325
886.03573	5021.125
889.84136	4991.725
893.64433	5035.625
897.44466	5021.525
901.24235	5021.225
905.0374	5047.525
908.8298	4995.825
912.61957	4998.625
916.40671	4966.425
920.19121	4985.725
923.97308	5045.125
927.75233	5037.225
931.52895	5062.725
935.30295	5087.225
939.07433	5043.025
942.84309	4977.525
946.60924	4996.125
950.37278	4957.325
954.13371	4966.425
957.89203	4951.425
961.64774	4982.525
965.40086	4962.325
969.15137	4943.025
972.89929	4971.925
976.64461	4962.525
980.38733	4980.125
984.12747	4967.325
987.86502	4970.225
991.59999	4978.925
995.33237	5024.125
999.06217	5041.625
1002.78939	5061.325
1006.51404	5110.825
1010.23611	5139.725
1013.95561	5149.425
1017.67255	5152.725
1021.38692	5153.425
1025.09872	5126.925
1028.80796	5106.425
1032.51465	5136.625
1036.21877	5101.925
1039.92035	5120.325
1043.61937	5143.825
1047.31584	5167.925
1051.00976	5205.525
1054.70114	5213.125
1058.38998	5226.125
1062.07627	5204.725
1065.76003	5199.425
1069.44126	5254.425
1073.11995	5267.925
1076.79611	5339.025
1080.46974	5398.125
1084.14085	5467.325
1087.80943	5492.625
1091.47549	5502.825
1095.13903	5489.625
1098.80005	5466.925
1102.45857	5419.225
1106.11456	5404.825
1109.76805	5353.325
1113.41903	5407.825
1117.06751	5438.225
1120.71348	5536.025
1124.35696	5652.725
1127.99793	5741.025
1131.63641	5693.825
1135.2724	5575.825
1138.90589	5466.825
1142.5369	5376.925
1146.16542	5363.925
1149.79145	5316.825
1153.415	5294.125
1157.03607	5282.525
1160.65467	5312.425
1164.27079	5385.625
1167.88443	5423.025
1171.49561	5564.025
1175.10432	5727.125
1178.71056	6001.925
1182.31434	6195.725
1185.91565	6249.425
1189.51451	6155.825
1193.11091	6038.925
1196.70485	5945.325
1200.29634	5878.625
1203.88538	5837.425
1207.47197	5704.525
1211.05612	5606.825
1214.63782	5514.425
1218.21708	5457.025
1221.79391	5458.525
1225.36829	5419.825
1228.94024	5431.325
1232.50976	5446.925
1236.07685	5457.825
1239.6415	5471.025
1243.20374	5477.225
1246.76355	5501.225
1250.32093	5539.225
1253.8759	5567.325
1257.42845	5634.625
1260.97859	5699.625
1264.52631	5791.525
1268.07163	5846.125
1271.61453	5846.125
1275.15503	5854.625
1278.69312	5817.325
1282.22882	5829.825
1285.76211	5916.725
1289.29301	5958.525
1292.82151	6064.725
1296.34761	6073.425
1299.87133	6183.625
1303.39266	6361.825
1306.9116	6694.025
1310.42815	7086.225
1313.94233	7266.425
1317.45412	7022.825
1320.96354	6660.625
1324.47058	6335.725
1327.97525	6092.225
1331.47754	5943.725
1334.97747	5886.925
1338.47502	5906.625
1341.97022	6013.625
1345.46305	6241.725
1348.95352	6523.725
1352.44163	6826.125
1355.92738	7119.625
1359.41078	7577.025
1362.89183	8089.125
1366.37053	7956.725
1369.84688	7156.225
1373.32088	6400.125
1376.79254	6064.425
1380.26186	5861.025
1383.72883	5702.425
1387.19347	5579.225
1390.65578	5445.425
1394.11575	5382.525
1397.57339	5337.525
1401.0287	5312.925
1404.48168	5306.425
1407.93234	5317.025
1411.38068	5300.725
1414.82669	5337.825
1418.27039	5401.025
1421.71177	5416.025
1425.15083	5365.025
1428.58758	5355.925
1432.02203	5384.425
1435.45416	5411.125
1438.88399	5374.725
1442.31151	5315.325
1445.73673	5327.325
1449.15965	5295.625
1452.58027	5316.025
1455.9986	5318.425
1459.41463	5302.225
1462.82837	5323.625
1466.23982	5346.025
1469.64898	5408.425
1473.05586	5427.025
1476.46045	5430.525
1479.86276	5467.025
1483.26279	5481.425
1486.66054	5575.725
1490.05602	5648.025
1493.44922	5834.125
1496.84016	6037.025
1500.22882	6415.225
1503.61521	6867.025
1506.99934	7438.525
1510.38121	7918.625
1513.76081	8074.925
1517.13816	7729.625
1520.51324	7059.325
1523.88607	6451.825
1527.25665	6098.525
1530.62498	5869.025
1533.99105	5756.625
1537.35488	5696.125
1540.71647	5663.025
1544.07581	5620.925
1547.4329	5633.325
1550.78776	5635.925
1554.14038	5630.825
1557.49077	5684.225
1560.83892	5775.825
1564.18484	5872.525
1567.52853	5984.425
1570.86999	6072.825
1574.20922	6105.325
1577.54624	6048.925
1580.88103	5902.025
1584.2136	5685.925
1587.54395	5620.025
1590.87208	5607.725
1594.19801	5613.125
1597.52172	5716.825
1600.84321	5745.025
1604.16251	5683.525
1607.47959	5612.825
1610.79447	5558.825
1614.10715	5489.225
1617.41763	5440.225
1620.7259	5365.825
1624.03199	5364.725
1627.33587	5345.825
1630.63757	5359.925
1633.93707	5422.525
1637.23439	5546.125
1640.52951	5782.425
1643.82246	6083.325
1647.11321	6480.025
1650.40179	6743.325
1653.68819	6656.325
1656.97241	6281.125
1660.25446	5818.125
1663.53433	5520.225
1666.81203	5325.425
1670.08756	5239.125
1673.36092	5198.325
1676.63211	5171.125
1679.90115	5132.025
1683.16801	5111.325
1686.43272	5066.625
1689.69527	5082.225
1692.95567	5037.225
1696.2139	5036.925
1699.46999	4996.025
1702.72392	5016.225
1705.97571	5034.025
1709.22535	5027.625
1712.47284	5066.625
1715.71819	5081.925
1718.96139	5070.625
1722.20246	5074.125
1725.44139	5067.725
1728.67818	5073.825
1731.91284	5044.925
1735.14537	5031.825
1738.37576	5029.925
1741.60403	5010.425
1744.83017	4996.425
1748.05418	5009.925
1751.27607	5017.625
1754.49584	4987.325
1757.71349	4965.725
1760.92903	4971.825
1764.14244	4927.525
1767.35375	4937.425
1770.56294	4939.225
1773.77002	4924.925
1776.97499	4951.825
1780.17785	4968.725
1783.37861	4948.125
1786.57727	4972.725
1789.77382	4903.625
1792.96828	4954.325
1796.16064	4955.725
1799.3509	4937.825
1802.53907	4946.825
1805.72514	4904.025
1808.90913	4896.225
1812.09102	4921.225
1815.27083	4906.225
1818.44856	4903.025
1821.6242	4914.825
1824.79776	4881.125
1827.96924	4888.225
1831.13864	4859.025
1834.30597	4882.225
1837.47122	4854.925
1840.6344	4859.725
1843.7955	4835.925
1846.95454	4841.725
1850.11151	4865.325
1853.26642	4831.125
1856.41926	4851.025
1859.57004	4866.025
1862.71876	4820.125
1865.86542	4844.325
1869.01003	4852.925
1872.15258	4826.625
1875.29308	4845.225
1878.43152	4848.025
1881.56792	4819.525
1884.70227	4800.125
1887.83457	4807.125
1890.96482	4785.525
1894.09304	4779.725
1897.21921	4784.025
1900.34335	4788.625
1903.46544	4774.725
1906.58551	4784.225
1909.70353	4774.925
1912.81953	4766.425
1915.93349	4770.825
1919.04543	4755.825
1922.15534	4737.525
1925.26322	4739.425
1928.36908	4731.425
1931.47292	4725.425
1934.57473	4744.425
1937.67453	4705.925
1940.77232	4704.425
1943.86808	4688.025
1946.96184	4691.625
1950.05358	4657.025
1953.14331	4650.225
1956.23103	4654.025
1959.31675	4617.625
1962.40046	4571.625
1965.48217	4605.325
1968.56188	4593.225
1971.63959	4584.825
1974.7153	4562.725
1977.78901	4567.525
1980.86073	4559.325
1983.93046	4500.225
1986.99819	4451.525
1990.06394	4466.425
1993.1277	4494.325
1996.18947	4479.125
1999.24925	4433.725
2002.30706	4466.325
2005.36288	4438.225
2008.41672	4446.525
2011.46859	4411.825
2014.51848	4409.425
2017.56639	4387.125
2020.61233	4363.125
2023.6563	4370.225
2026.6983	4335.325
2029.73833	4346.525
2032.7764	4359.125
2035.8125	4292.925
2038.84664	4307.825
2041.87881	4286.025
2044.90903	4311.625
2047.93729	4290.625
2050.96359	4276.725
2053.98794	4273.925
2057.01034	4280.525
2060.03078	4264.025
2063.04927	4261.725
2066.06582	4266.225
2069.08042	4257.625
2072.09307	4268.625
2075.10378	4262.025
2078.11255	4257.325
2081.11938	4256.725
2084.12426	4250.725
2087.12722	4256.325
2090.12824	4249.625
2093.12732	4251.825
2096.12447	4282.525
2099.11969	4255.525
2102.11299	4250.625
2105.10435	4272.425
2108.09379	4253.825
2111.08131	4247.125
2114.0669	4256.525
2117.05057	4259.625
2120.03233	4253.025
2123.01216	4280.225
2125.99008	4262.925
2128.96609	4267.425
2131.94018	4288.625
2134.91236	4284.325
2137.88263	4281.425
2140.851	4289.625
2143.81746	4318.125
2146.78201	4301.025
2149.74466	4289.725
2152.7054	4298.625
2155.66425	4299.825
2158.6212	4278.425
2161.57625	4266.625
2164.52941	4266.625
2167.48067	4270.725
2170.43004	4264.825
2173.37752	4286.225
2176.32311	4289.125
2179.26681	4275.825
2182.20863	4290.225
2185.14856	4285.625
2188.08661	4280.025
2191.02278	4287.425
2193.95707	4273.725
2196.88948	4245.225
2199.82001	4264.625
2202.74867	4249.625
2205.67545	4256.325
2208.60037	4276.025
2211.52341	4254.825
2214.44458	4241.925
2217.36388	4237.225
2220.28132	4221.425
2223.1969	4201.625
2226.11061	4209.425
2229.02246	4194.625
2231.93245	4191.925
2234.84058	4180.525
2237.74686	4177.925
2240.65128	4161.125
2243.55385	4166.325
2246.45456	4147.725
2249.35343	4166.125
2252.25044	4136.825
2255.14561	4156.725
2258.03893	4143.525
2260.93041	4140.325
2263.82004	4123.525
2266.70783	4117.025
2269.59378	4092.625
2272.4779	4082.225
2275.36017	4084.625
2278.24061	4075.525
2281.11922	4038.425
2283.996	4049.825
2286.87094	4034.225
2289.74405	4048.325
2292.61534	4046.325
2295.4848	4044.425
2298.35243	4034.225
2301.21824	4030.625
2304.08223	4032.025
2306.94439	4036.625
2309.80474	4039.725
2312.66327	4026.925
2315.51999	4009.325
2318.37489	4009.325
2321.22797	3990.125
2324.07925	3992.425
2326.92871	3972.725
2329.77637	3967.525
2332.62222	3963.025
2335.46626	3927.325
2338.3085	3939.425
2341.14893	3943.325
2343.98756	3956.125
2346.8244	3912.725
2349.65943	3911.325
2352.49267	3914.525
2355.32411	3929.325
2358.15376	3913.625
2360.98161	3923.725
2363.80768	3899.025
2366.63195	3906.125
2369.45444	3914.225
2372.27514	3900.125
2375.09405	3922.225
2377.91118	3884.125
2380.72652	3874.925
2383.54009	3863.925
2386.35187	3871.425
2389.16188	3846.925
2391.97011	3857.025
2394.77657	3838.825
2397.58125	3852.325
2400.38416	3842.425
2403.18529	3823.425
2405.98466	3802.725
2408.78226	3812.125
2411.57809	3802.625
2414.37216	3783.925
2417.16446	3796.925
2419.955	3779.425
2422.74378	3798.625
2425.5308	3781.125
2428.31606	3780.325
2431.09956	3786.625
2433.88131	3744.825
2436.6613	3764.525
2439.43954	3759.825
2442.21603	3743.325
2444.99077	3735.325
2447.76377	3742.325
2450.53501	3746.825
2453.30451	3730.425
2456.07226	3737.425
2458.83827	3726.525
2461.60254	3673.425
2464.36507	3710.625
2467.12586	3689.425
2469.88492	3697.925
2472.64224	3693.025
2475.39782	3665.525
2478.15167	3676.525
2480.90379	3672.325
2483.65417	3683.725
2486.40283	3680.225
2489.14976	3690.125
2491.89497	3654.125
2494.63845	3664.525
2497.3802	3650.625
2500.12024	3642.725
2502.85855	3660.225
2505.59514	3651.425
2508.33002	3643.625
2511.06318	3624.625
2513.79462	3626.125
2516.52435	3589.825
2519.25237	3586.225
2521.97867	3585.925
2524.70327	3592.125
2527.42616	3583.725
2530.14734	3603.125
2532.86681	3578.925
2535.58458	3583.125
2538.30065	3565.425
2541.01501	3583.625
2543.72768	3567.125
2546.43864	3564.325
2549.14791	3551.225
2551.85548	3534.425
2554.56136	3521.225
2557.26554	3527.925
2559.96803	3523.325
2562.66883	3516.425
2565.36794	3499.625
2568.06536	3467.225
2570.7611	3498.225
2573.45514	3482.925
2576.14751	3475.225
2578.83819	3458.025
2581.52719	3456.025
2584.21451	3449.625
2586.90015	3429.925
2589.58411	3411.625
2592.2664	3433.025
2594.94701	3427.425
2597.62594	3410.425
2600.30321	3352.925
2602.9788	3365.325
2605.65273	3372.125
2608.32498	3376.525
2610.99557	3381.625
2613.66449	3350.525
2616.33175	3369.725
2618.99734	3349.825
2621.66128	3355.625
2624.32355	3330.125
2626.98416	3341.525
2629.64311	3325.825
2632.30041	3330.225
2634.95605	3309.925
2637.61004	3301.925
2640.26238	3277.525
2642.91306	3286.025
2645.56209	3307.025
2648.20948	3303.625
2650.85521	3282.225
2653.4993	3306.725
2656.14175	3285.325
2658.78255	3261.925
2661.42171	3255.025
2664.05923	3292.325
2666.6951	3288.425
2669.32934	3286.525
2671.96194	3291.525
2674.59291	3278.525
2677.22224	3281.425
2679.84993	3268.625
2682.476	3261.925
2685.10043	3270.125
2687.72324	3246.725
2690.34441	3243.425
2692.96396	3257.325
2695.58188	3257.425
2698.19818	3254.725
2700.81285	3250.825
2703.4259	3240.425
2706.03733	3211.325
2708.64714	3211.725
2711.25533	3226.025
2713.86191	3243.525
2716.46687	3238.225
2719.07021	3232.825
2721.67194	3239.225
2724.27206	3246.925
2726.87057	3237.125
2729.46747	3223.425
2732.06276	3235.825
2734.65644	3201.225
2737.24852	3218.725
2739.83899	3197.825
2742.42786	3215.825
2745.01513	3206.125
2747.60079	3205.225
2750.18486	3181.225
2752.76733	3183.125
2755.3482	3187.925
2757.92747	3189.425
2760.50515	3157.025
2763.08123	3161.125
2765.65573	3157.125
2768.22863	3154.225
2770.79994	3131.125
2773.36967	3143.325
2775.9378	3116.625
2778.50435	3125.625
2781.06932	3115.125
2783.6327	3115.725
2786.1945	3132.525
2788.75471	3108.225
2791.31335	3089.925
2793.87041	3090.525
2796.42589	3083.525
2798.97979	3052.325
2801.53212	3060.925
2804.08288	3072.125
2806.63206	3057.725
2809.17967	3031.125
2811.72571	3043.625
2814.27018	3038.925
2816.81308	3009.625
2819.35442	2987.425
2821.89419	3014.225
2824.43239	2972.125
2826.96904	3017.325
2829.50412	2991.125
2832.03763	3005.025
2834.56959	2993.925
2837.1	2982.625
2839.62884	2983.525
2842.15613	2974.525
2844.68186	2996.625
2847.20604	2953.425
2849.72867	2949.425
2852.24974	2955.625
2854.76927	2913.625
2857.28724	2871.625
2859.80367	2943.225
2862.31855	2941.725
2864.83189	2929.525
2867.34368	2919.725
2869.85393	2935.325
2872.36264	2909.325
2874.8698	2905.725
2877.37543	2917.825
2879.87952	2900.125
2882.38207	2886.525
2884.88308	2895.725
2887.38256	2903.025
2889.88051	2897.925
2892.37692	2897.925
2894.8718	2879.025
2897.36515	2893.325
2899.85698	2885.025
2902.34727	2881.325
2904.83604	2862.225
2907.32328	2881.425
2909.809	2876.025
2912.29319	2865.025
2914.77587	2868.825
2917.25702	2881.425
2919.73665	2885.125
2922.21476	2896.625
2924.69136	2876.325
2927.16644	2867.125
2929.64	2870.925
2932.11205	2851.225
2934.58258	2862.825
2937.05161	2848.725
2939.51912	2856.125
2941.98513	2880.025
2944.44962	2858.525
2946.91261	2819.425
2949.37409	2841.725
2951.83407	2829.425
2954.29254	2846.025
2956.74951	2847.225
2959.20498	2825.525
2961.65895	2827.225
2964.11142	2822.625
2966.56239	2830.925
2969.01186	2833.125
2971.45984	2817.825
2973.90632	2812.225
2976.35131	2826.225
2978.7948	2828.325
2981.23681	2807.725
2983.67732	2821.425
2986.11635	2812.425
2988.55388	2776.425
2990.98993	2784.425
2993.4245	2769.325
2995.85758	2764.225
2998.28917	2771.225
3000.71928	2755.625
3003.14791	2751.425
3005.57506	2738.425
3008.00073	2744.725
3010.42493	2677.325
3012.84764	2742.525
3015.26888	2721.925
3017.68865	2724.425
3020.10694	2688.225
3022.52376	2712.025
3024.9391	2706.125
3027.35298	2682.025
3029.76539	2674.825
3032.17632	2691.825
3034.5858	2682.625
3036.9938	2678.825
3039.40034	2678.125
3041.80542	2661.025
3044.20903	2666.325
3046.61118	2657.925
3049.01187	2668.725
3051.4111	2653.025
3053.80888	2626.525
3056.20519	2639.325
3058.60005	2605.725
3060.99345	2634.525
3063.3854	2615.925
3065.7759	2607.925
3068.16494	2601.725
3070.55254	2585.925
3072.93868	2602.325
3075.32338	2583.725
3077.70662	2571.625
3080.08842	2576.425
3082.46878	2564.025
3084.84769	2591.925
3087.22515	2567.925
3089.60118	2571.625
3091.97576	2561.425
3094.3489	2573.425
3096.72061	2562.525
3099.09087	2553.625
3101.4597	2569.225
3103.82709	2567.825
3106.19305	2538.725
3108.55757	2554.625
3110.92066	2550.925
3113.28232	2544.425
3115.64255	2551.325
3118.00134	2541.325
3120.35871	2520.925
3122.71466	2510.925
3125.06917	2508.925
3127.42226	2498.925
3129.77393	2484.225
3132.12417	2493.625
3134.47299	2504.725
3136.82039	2489.825
3139.16636	2464.425
3141.51092	2495.325
3143.85406	2494.125
3146.19579	2478.125
3148.53609	2468.825
3150.87499	2483.225
3153.21246	2472.125
3155.54853	2481.825
3157.88318	2487.825
3160.21642	2487.825
3162.54826	2486.325
3164.87868	2493.725
3167.2077	2447.125
3169.5353	2485.125
3171.86151	2479.325
3174.18631	2463.425
3176.5097	2471.825
3178.83169	2475.925
3181.15228	2471.725
3183.47147	2446.325
3185.78926	2437.125
3188.10565	2444.625
3190.42065	2419.725
3192.73424	2437.025
3195.04645	2432.125
3197.35725	2414.725
3199.66667	2424.925
3201.97469	2426.225
3204.28132	2410.925
3206.58656	2428.525
3208.8904	2431.525
3211.19287	2415.825
3213.49394	2399.925
3215.79363	2409.025
3218.09193	2421.425
3220.38884	2412.425
3222.68438	2408.825
3224.97853	2394.725
3227.2713	2416.625
3229.56269	2402.725
3231.8527	2406.825
3234.14133	2382.925
3236.42858	2398.125
3238.71446	2370.525
3240.99896	2385.625
3243.28209	2371.225
3245.56384	2366.025
3247.84423	2358.625
3250.12324	2358.825
3252.40088	2370.225
3254.67715	2346.825
3256.95205	2343.625
3259.22558	2350.225
3261.49775	2367.825
3263.76855	2346.725
3266.03799	2362.625
3268.30606	2354.425
3270.57277	2340.525
3272.83812	2330.025
3275.10211	2333.725
3277.36474	2340.225
3279.62601	2328.425
3281.88593	2318.025
3284.14448	2285.425
3286.40168	2313.625
3288.65753	2292.825
3290.91202	2294.525
3293.16516	2263.325
3295.41695	2297.525
3297.66738	2303.825
3299.91647	2271.125
3302.16421	2263.025
3304.4106	2230.825
3306.65564	2249.125
3308.89933	2200.325
3311.14169	2185.525
3313.38269	2185.725
3315.62236	2159.625
3317.86068	2140.325
3320.09766	2156.425
3322.3333	2106.225
3324.5676	2087.625
3326.80056	2060.825
3329.03219	2054.725
3331.26248	-0.875
3333.49143	0.225
3335.71905	1.525
