Data from AgNPs_UA_5uM_CRN_500uM_SU_RamanShift__299__12-19-13-200.txt Node

Date: Thu Aug 04 12:19:13 BST 2022
User: TCL
Spectrometer: QEP01345
Trigger mode: 4
Integration Time (sec): 1.000000E0
Scans to average: 10
Electric dark correction enabled: true
Nonlinearity correction enabled: false
Boxcar width: 0
XAxis mode: Raman Shifts
Number of Pixels in Spectrum: 1044
>>>>>Begin Spectral Data<<<<<
46.04893	0
50.45542	0.9
54.85868	0.3
59.25871	-0.7
63.6555	-70
68.04907	-53.3
72.43941	-85.5
76.82654	-71.8
81.21044	-70.3
85.59113	-63.6
89.96862	-91.8
94.34289	-70.5
98.71396	-95.1
103.08183	-74.9
107.4465	-66.8
111.80798	-73.8
116.16626	-63.4
120.52136	-93.7
124.87327	-70.1
129.222	-86.3
133.56755	-72.9
137.90993	-89.2
142.24913	-80.5
146.58517	-74.6
150.91804	-78
155.24774	-74.7
159.57429	-67
163.89768	-79.2
168.21792	-61.6
172.53501	-78.4
176.84895	-54.8
181.15975	-3.6
185.46741	26.7
189.77193	55.5
194.07331	151.5
198.37157	216.7
202.6667	269.4
206.9587	352.8
211.24758	428.5
215.53334	504.6
219.81599	592.4
224.09553	695.3
228.37195	797.3
232.64527	897.6
236.91549	1036.2
241.18261	1103.7
245.44663	1186.1
249.70755	1218.2
253.96539	1242.2
258.22014	1277.6
262.4718	1291.7
266.72039	1317.4
270.96589	1308.2
275.20832	1271.4
279.44768	1267
283.68397	1232.5
287.91719	1210.7
292.14735	1223.2
296.37445	1268.4
300.59849	1352.6
304.81948	1427
309.03742	1508.7
313.25231	1569.3
317.46415	1576.2
321.67296	1469.5
325.87872	1370.6
330.08145	1336.5
334.28114	1312.9
338.47781	1322.9
342.67145	1363.4
346.86207	1402
351.04966	1504.5
355.23424	1588.3
359.4158	1673.4
363.59435	1658.3
367.76989	1648.2
371.94243	1625.5
376.11196	1580.1
380.27849	1588.9
384.44203	1554.6
388.60257	1550.4
392.76012	1543.3
396.91468	1591.3
401.06626	1628.8
405.21485	1625.1
409.36047	1589.4
413.50311	1514.1
417.64277	1452.6
421.77947	1392.7
425.9132	1402.8
430.04396	1394.8
434.17176	1413
438.2966	1435
442.41849	1438.9
446.53742	1459.6
450.6534	1469.9
454.76644	1500.9
458.87653	1494.8
462.98368	1468
467.08789	1444
471.18916	1419.7
475.2875	1406.9
479.38291	1395.8
483.4754	1367.8
487.56496	1364.9
491.6516	1344.1
495.73531	1351.1
499.81612	1343.6
503.89401	1387
507.96899	1376
512.04106	1401.4
516.11023	1431
520.1765	1452.6
524.23987	1447.6
528.30034	1466.4
532.35792	1408.5
536.41261	1412.6
540.46441	1389
544.51333	1381.3
548.55936	1389.5
552.60252	1442.7
556.64279	1449.5
560.6802	1487
564.71473	1518
568.7464	1557
572.7752	1546.2
576.80114	1476.4
580.82422	1431.6
584.84444	1399.4
588.86181	1395.7
592.87633	1406.1
596.888	1440.7
600.89682	1532.2
604.9028	1778.5
608.90594	2282.1
612.90624	2876.3
616.90371	2625
620.89834	1876.7
624.89015	1548
628.87913	1488.2
632.86528	1514.2
636.84862	1580
640.82913	1559.8
644.80683	1454.6
648.78172	1413.8
652.75379	1429
656.72306	1482.9
660.68952	1527.8
664.65319	1507.8
668.61405	1453.1
672.57211	1425.9
676.52738	1445.5
680.47986	1395.4
684.42955	1383.9
688.37646	1386.4
692.32058	1372.2
696.26192	1406.3
700.20048	1433.7
704.13626	1455.1
708.06928	1442.3
711.99952	1447
715.927	1412.9
719.85171	1418.3
723.77365	1427.5
727.69284	1408.4
731.60928	1418.2
735.52295	1394.8
739.43388	1423.3
743.34206	1412.8
747.24749	1434.7
751.15017	1444.7
755.05012	1432.4
758.94733	1537.9
762.8418	1727.2
766.73354	2072
770.62254	2358.1
774.50882	2354.7
778.39237	2228.3
782.27321	1982.4
786.15132	1717.1
790.02671	1569.2
793.89938	1446.8
797.76935	1435.4
801.6366	1405.9
805.50115	1396.1
809.36299	1396.4
813.22213	1389.8
817.07857	1393
820.93231	1386.3
824.78336	1398.5
828.63172	1398.6
832.47738	1395.3
836.32036	1404
840.16066	1398.1
843.99827	1391.3
847.8332	1380.3
851.66546	1390.2
855.49504	1361.3
859.32195	1395.2
863.1462	1381.9
866.96777	1386.4
870.78668	1361.7
874.60293	1373.8
878.41652	1373.8
882.22745	1407.9
886.03573	1410.9
889.84136	1399
893.64433	1413.2
897.44466	1398.9
901.24235	1397
905.0374	1414.1
908.8298	1377.9
912.61957	1378.5
916.40671	1338.9
920.19121	1378.8
923.97308	1419.5
927.75233	1403.9
931.52895	1412
935.30295	1428.5
939.07433	1395.8
942.84309	1339.5
946.60924	1344.6
950.37278	1330.7
954.13371	1330.1
957.89203	1317.9
961.64774	1344
965.40086	1333.8
969.15137	1302.4
972.89929	1350.1
976.64461	1331.8
980.38733	1350.6
984.12747	1336
987.86502	1340.2
991.59999	1346.6
995.33237	1373.7
999.06217	1392.9
1002.78939	1397.2
1006.51404	1418.9
1010.23611	1454.8
1013.95561	1484.3
1017.67255	1491.3
1021.38692	1480.3
1025.09872	1454.4
1028.80796	1417.7
1032.51465	1444.9
1036.21877	1413.3
1039.92035	1449.3
1043.61937	1450.2
1047.31584	1471.8
1051.00976	1488.9
1054.70114	1492.1
1058.38998	1496
1062.07627	1494.2
1065.76003	1491.8
1069.44126	1516.8
1073.11995	1529.5
1076.79611	1571.4
1080.46974	1614.5
1084.14085	1646.4
1087.80943	1682.3
1091.47549	1692.4
1095.13903	1672.4
1098.80005	1653.8
1102.45857	1626.7
1106.11456	1611.5
1109.76805	1575.8
1113.41903	1640.7
1117.06751	1674.5
1120.71348	1724.6
1124.35696	1833.5
1127.99793	1890.4
1131.63641	1866.9
1135.2724	1757.6
1138.90589	1678.2
1142.5369	1619.7
1146.16542	1608.6
1149.79145	1577.2
1153.415	1576
1157.03607	1561.6
1160.65467	1598.1
1164.27079	1653.4
1167.88443	1699.2
1171.49561	1830
1175.10432	1974.4
1178.71056	2209.8
1182.31434	2415.5
1185.91565	2479
1189.51451	2439.8
1193.11091	2380
1196.70485	2325.3
1200.29634	2253.1
1203.88538	2181.9
1207.47197	2064.9
1211.05612	1932.6
1214.63782	1826.5
1218.21708	1776.2
1221.79391	1744.6
1225.36829	1707.2
1228.94024	1710.3
1232.50976	1712.4
1236.07685	1724.4
1239.6415	1726.1
1243.20374	1732.3
1246.76355	1743.1
1250.32093	1778.9
1253.8759	1786.7
1257.42845	1850.4
1260.97859	1883.7
1264.52631	1969.6
1268.07163	1986.6
1271.61453	2034.6
1275.15503	2033.3
1278.69312	2027.3
1282.22882	2046.6
1285.76211	2098.4
1289.29301	2140.4
1292.82151	2223.3
1296.34761	2256.3
1299.87133	2370.7
1303.39266	2543.2
1306.9116	2828.7
1310.42815	3136.3
1313.94233	3238.7
1317.45412	3048.9
1320.96354	2777.8
1324.47058	2524.2
1327.97525	2343.1
1331.47754	2214
1334.97747	2199.3
1338.47502	2214
1341.97022	2305.8
1345.46305	2492.2
1348.95352	2764.1
1352.44163	3115.2
1355.92738	3449.5
1359.41078	3880.5
1362.89183	4279.4
1366.37053	4129.5
1369.84688	3394.9
1373.32088	2716.6
1376.79254	2368.4
1380.26186	2194.7
1383.72883	2084.5
1387.19347	1987.1
1390.65578	1899.3
1394.11575	1834.2
1397.57339	1783.6
1401.0287	1748.2
1404.48168	1730.2
1407.93234	1740.5
1411.38068	1715.7
1414.82669	1742.7
1418.27039	1780.8
1421.71177	1773.6
1425.15083	1737.1
1428.58758	1707.9
1432.02203	1721.5
1435.45416	1762.7
1438.88399	1757.2
1442.31151	1723.1
1445.73673	1764
1449.15965	1767.4
1452.58027	1776.5
1455.9986	1767.4
1459.41463	1773.5
1462.82837	1801.3
1466.23982	1853.5
1469.64898	1905.7
1473.05586	1939.6
1476.46045	1971.7
1479.86276	1988.4
1483.26279	1998.5
1486.66054	2077.1
1490.05602	2140.3
1493.44922	2292
1496.84016	2500
1500.22882	2855.6
1503.61521	3296.1
1506.99934	3761.5
1510.38121	4057.3
1513.76081	4017.4
1517.13816	3613.1
1520.51324	3062.8
1523.88607	2630.4
1527.25665	2385
1530.62498	2268.4
1533.99105	2225.1
1537.35488	2207.1
1540.71647	2168.8
1544.07581	2135
1547.4329	2073.7
1550.78776	2061.8
1554.14038	2031.2
1557.49077	2022.8
1560.83892	2054.6
1564.18484	2098.5
1567.52853	2189.5
1570.86999	2288.4
1574.20922	2306.8
1577.54624	2288.6
1580.88103	2159.8
1584.2136	1956.6
1587.54395	1882
1590.87208	1866.7
1594.19801	1873.8
1597.52172	1989.6
1600.84321	2040.5
1604.16251	2001.4
1607.47959	1925.2
1610.79447	1911.2
1614.10715	1833
1617.41763	1772.2
1620.7259	1684.1
1624.03199	1666.9
1627.33587	1655.9
1630.63757	1647.5
1633.93707	1713.5
1637.23439	1817.5
1640.52951	2008.6
1643.82246	2256.6
1647.11321	2560.2
1650.40179	2746.9
1653.68819	2681.1
1656.97241	2384.1
1660.25446	2016.9
1663.53433	1767.4
1666.81203	1599.6
1670.08756	1520.6
1673.36092	1482.4
1676.63211	1414.4
1679.90115	1400.5
1683.16801	1369.9
1686.43272	1333.1
1689.69527	1352.2
1692.95567	1348.3
1696.2139	1390.1
1699.46999	1403
1702.72392	1405.8
1705.97571	1396.8
1709.22535	1318.8
1712.47284	1319.9
1715.71819	1314.8
1718.96139	1297.3
1722.20246	1293.2
1725.44139	1274.2
1728.67818	1274.8
1731.91284	1255.5
1735.14537	1255.3
1738.37576	1236.8
1741.60403	1244.9
1744.83017	1237.3
1748.05418	1252.2
1751.27607	1284.8
1754.49584	1279.6
1757.71349	1267.6
1760.92903	1299.6
1764.14244	1258.9
1767.35375	1269
1770.56294	1273.7
1773.77002	1248.8
1776.97499	1253.1
1780.17785	1215.3
1783.37861	1198.3
1786.57727	1207.5
1789.77382	1148.4
1792.96828	1183.3
1796.16064	1185.5
1799.3509	1173.1
1802.53907	1179.5
1805.72514	1165.2
1808.90913	1150.3
1812.09102	1173.2
1815.27083	1166.1
1818.44856	1152.7
1821.6242	1172.6
1824.79776	1149.1
1827.96924	1146.3
1831.13864	1138
1834.30597	1152.9
1837.47122	1143
1840.6344	1126.4
1843.7955	1124.8
1846.95454	1115.5
1850.11151	1145
1853.26642	1110.9
1856.41926	1112.4
1859.57004	1117.4
1862.71876	1111.4
1865.86542	1122.9
1869.01003	1114.7
1872.15258	1097.5
1875.29308	1119
1878.43152	1125.1
1881.56792	1115.2
1884.70227	1110.9
1887.83457	1115.7
1890.96482	1097.4
1894.09304	1104.2
1897.21921	1098.2
1900.34335	1110.1
1903.46544	1093.9
1906.58551	1107.9
1909.70353	1100.9
1912.81953	1094.1
1915.93349	1086.6
1919.04543	1095.6
1922.15534	1077.8
1925.26322	1081.9
1928.36908	1084.8
1931.47292	1086.5
1934.57473	1107.7
1937.67453	1079.7
1940.77232	1070
1943.86808	1065.5
1946.96184	1078.6
1950.05358	1059.8
1953.14331	1054.9
1956.23103	1070.3
1959.31675	1049.5
1962.40046	1015.9
1965.48217	1051
1968.56188	1045
1971.63959	1043.5
1974.7153	1046
1977.78901	1047.9
1980.86073	1036.1
1983.93046	1019.6
1986.99819	957.6
1990.06394	989.2
1993.1277	1013.5
1996.18947	1009.7
1999.24925	992.6
2002.30706	1005.2
2005.36288	1010.4
2008.41672	1000.8
2011.46859	985.2
2014.51848	990.9
2017.56639	962.2
2020.61233	977.4
2023.6563	986.7
2026.6983	958.6
2029.73833	968.3
2032.7764	985.3
2035.8125	935.1
2038.84664	956.9
2041.87881	944.6
2044.90903	966
2047.93729	951.5
2050.96359	938.5
2053.98794	951
2057.01034	954.5
2060.03078	940.1
2063.04927	936.9
2066.06582	941
2069.08042	931.3
2072.09307	940.3
2075.10378	948.2
2078.11255	943.6
2081.11938	940.5
2084.12426	935.7
2087.12722	929.6
2090.12824	923.8
2093.12732	937.2
2096.12447	946.8
2099.11969	937.7
2102.11299	933.4
2105.10435	957.3
2108.09379	936.2
2111.08131	935
2114.0669	934.8
2117.05057	930.8
2120.03233	909
2123.01216	932.2
2125.99008	934.5
2128.96609	935.5
2131.94018	953.7
2134.91236	935.7
2137.88263	936.7
2140.851	944.6
2143.81746	952.3
2146.78201	948.9
2149.74466	931.1
2152.7054	944.7
2155.66425	941.5
2158.6212	931.9
2161.57625	912.2
2164.52941	905.7
2167.48067	919.7
2170.43004	915.8
2173.37752	940.3
2176.32311	920.1
2179.26681	929.5
2182.20863	929.9
2185.14856	920.8
2188.08661	936.4
2191.02278	941.7
2193.95707	910.9
2196.88948	914
2199.82001	924.8
2202.74867	910.6
2205.67545	925.7
2208.60037	934.2
2211.52341	926
2214.44458	913.3
2217.36388	921
2220.28132	901.1
2223.1969	899.1
2226.11061	908.4
2229.02246	905.5
2231.93245	915.7
2234.84058	893.4
2237.74686	897.5
2240.65128	896.9
2243.55385	898.9
2246.45456	882.5
2249.35343	901.3
2252.25044	886.6
2255.14561	885.9
2258.03893	895.4
2260.93041	888.8
2263.82004	886.7
2266.70783	889.4
2269.59378	878.2
2272.4779	868.3
2275.36017	888.3
2278.24061	866.8
2281.11922	847.8
2283.996	873.2
2286.87094	846.5
2289.74405	866.2
2292.61534	868.9
2295.4848	869.6
2298.35243	859.2
2301.21824	853.5
2304.08223	847.5
2306.94439	858.4
2309.80474	866.7
2312.66327	865.9
2315.51999	851.2
2318.37489	854.6
2321.22797	845
2324.07925	842.6
2326.92871	845.9
2329.77637	830.6
2332.62222	840.4
2335.46626	820.8
2338.3085	825.7
2341.14893	838.3
2343.98756	848.3
2346.8244	826.7
2349.65943	827.9
2352.49267	835
2355.32411	839.5
2358.15376	831.5
2360.98161	836.7
2363.80768	816.6
2366.63195	829.6
2369.45444	841.5
2372.27514	832
2375.09405	848.2
2377.91118	815.3
2380.72652	814.5
2383.54009	812.8
2386.35187	825.3
2389.16188	810.3
2391.97011	820.9
2394.77657	812.5
2397.58125	819.6
2400.38416	820.7
2403.18529	803.6
2405.98466	797.5
2408.78226	811.9
2411.57809	809.4
2414.37216	798.4
2417.16446	804.4
2419.955	787.3
2422.74378	813.3
2425.5308	790.4
2428.31606	792.3
2431.09956	808.3
2433.88131	786.2
2436.6613	798.8
2439.43954	790.9
2442.21603	782.6
2444.99077	775.7
2447.76377	792.9
2450.53501	777
2453.30451	776.8
2456.07226	794.7
2458.83827	785.4
2461.60254	743
2464.36507	789.4
2467.12586	771.9
2469.88492	777
2472.64224	783
2475.39782	770.8
2478.15167	785.4
2480.90379	772.8
2483.65417	786.2
2486.40283	781.8
2489.14976	792.4
2491.89497	765.9
2494.63845	784.1
2497.3802	777.1
2500.12024	775.3
2502.85855	771
2505.59514	778.4
2508.33002	776.8
2511.06318	759.2
2513.79462	767.5
2516.52435	736.8
2519.25237	732.6
2521.97867	744.2
2524.70327	748.4
2527.42616	761.4
2530.14734	772.7
2532.86681	747
2535.58458	749.2
2538.30065	739.1
2541.01501	759.9
2543.72768	751
2546.43864	746.8
2549.14791	746
2551.85548	734.8
2554.56136	736.6
2557.26554	747.4
2559.96803	738.7
2562.66883	737.7
2565.36794	728.8
2568.06536	707
2570.7611	735.5
2573.45514	728.8
2576.14751	728.1
2578.83819	719.5
2581.52719	713.3
2584.21451	722
2586.90015	706.7
2589.58411	701
2592.2664	721
2594.94701	717.3
2597.62594	717.5
2600.30321	669.4
2602.9788	695
2605.65273	687.9
2608.32498	699.3
2610.99557	711.9
2613.66449	683.2
2616.33175	702.1
2618.99734	702.3
2621.66128	707.8
2624.32355	695.5
2626.98416	693
2629.64311	695.9
2632.30041	693.3
2634.95605	676.4
2637.61004	677.8
2640.26238	659.4
2642.91306	662.7
2645.56209	692.4
2648.20948	681.3
2650.85521	662
2653.4993	686.3
2656.14175	678.3
2658.78255	673.3
2661.42171	636.4
2664.05923	673
2666.6951	675.6
2669.32934	675.4
2671.96194	693.7
2674.59291	674.2
2677.22224	690.6
2679.84993	682.4
2682.476	675.3
2685.10043	672.5
2687.72324	664.2
2690.34441	664.9
2692.96396	661.5
2695.58188	683.3
2698.19818	677.1
2700.81285	667.5
2703.4259	683.2
2706.03733	683.6
2708.64714	671.8
2711.25533	678.5
2713.86191	689.6
2716.46687	672.4
2719.07021	672.2
2721.67194	668.8
2724.27206	680.7
2726.87057	663.8
2729.46747	657.6
2732.06276	663.2
2734.65644	656.9
2737.24852	663.2
2739.83899	642.1
2742.42786	660.6
2745.01513	678.7
2747.60079	654.1
2750.18486	645.8
2752.76733	655.8
2755.3482	648.5
2757.92747	661.3
2760.50515	651.5
2763.08123	643.3
2765.65573	649.1
2768.22863	642.9
2770.79994	642.2
2773.36967	641.9
2775.9378	641.9
2778.50435	635
2781.06932	635.9
2783.6327	624.6
2786.1945	654.4
2788.75471	634.2
2791.31335	642.2
2793.87041	647
2796.42589	625.7
2798.97979	623.5
2801.53212	629.2
2804.08288	644.2
2806.63206	633.2
2809.17967	618.1
2811.72571	637.1
2814.27018	634
2816.81308	625.2
2819.35442	597
2821.89419	621.4
2824.43239	610.3
2826.96904	637.1
2829.50412	613.9
2832.03763	620.5
2834.56959	627.8
2837.1	619.3
2839.62884	622
2842.15613	621.2
2844.68186	627.3
2847.20604	602.8
2849.72867	604.3
2852.24974	617.3
2854.76927	606
2857.28724	567.9
2859.80367	621.1
2862.31855	614.1
2864.83189	607.3
2867.34368	619.2
2869.85393	631.3
2872.36264	594.2
2874.8698	606.3
2877.37543	612.8
2879.87952	604.7
2882.38207	585.3
2884.88308	604.9
2887.38256	606.4
2889.88051	604.6
2892.37692	602.2
2894.8718	589.8
2897.36515	602.7
2899.85698	604.7
2902.34727	593
2904.83604	596.4
2907.32328	602.8
2909.809	596.2
2912.29319	586.2
2914.77587	587.8
2917.25702	610.5
2919.73665	608
2922.21476	602.6
2924.69136	616.8
2927.16644	597.7
2929.64	601.2
2932.11205	588.8
2934.58258	601.4
2937.05161	600.9
2939.51912	600.9
2941.98513	610.5
2944.44962	597.8
2946.91261	572.6
2949.37409	579.8
2951.83407	583.7
2954.29254	585.7
2956.74951	588
2959.20498	577.7
2961.65895	583.3
2964.11142	577.7
2966.56239	582.8
2969.01186	579.6
2971.45984	586.7
2973.90632	575.5
2976.35131	595.2
2978.7948	584.9
2981.23681	575.3
2983.67732	573.3
2986.11635	583.1
2988.55388	558.7
2990.98993	571.6
2993.4245	558.7
2995.85758	560.1
2998.28917	566.3
3000.71928	556.2
3003.14791	563.8
3005.57506	560.3
3008.00073	548.3
3010.42493	494.1
3012.84764	549.9
3015.26888	556.7
3017.68865	555.3
3020.10694	517.9
3022.52376	539.2
3024.9391	541
3027.35298	540.1
3029.76539	527.4
3032.17632	541.5
3034.5858	528.7
3036.9938	542.9
3039.40034	540.1
3041.80542	528.4
3044.20903	527.8
3046.61118	520.7
3049.01187	540.3
3051.4111	532
3053.80888	526.4
3056.20519	524.1
3058.60005	512.9
3060.99345	539.2
3063.3854	522.9
3065.7759	512.9
3068.16494	507
3070.55254	504.2
3072.93868	528.3
3075.32338	517.7
3077.70662	514.3
3080.08842	508.2
3082.46878	500.4
3084.84769	524.5
3087.22515	502.2
3089.60118	517.4
3091.97576	509.2
3094.3489	521.4
3096.72061	508.6
3099.09087	496.8
3101.4597	507.8
3103.82709	500.6
3106.19305	489.9
3108.55757	503.4
3110.92066	488.3
3113.28232	505.5
3115.64255	506.9
3118.00134	508.7
3120.35871	492.8
3122.71466	483.4
3125.06917	494.5
3127.42226	495
3129.77393	469.7
3132.12417	494.3
3134.47299	493.6
3136.82039	481.4
3139.16636	462.1
3141.51092	482.5
3143.85406	492
3146.19579	474.6
3148.53609	476.4
3150.87499	482.4
3153.21246	477.6
3155.54853	484.8
3157.88318	483.1
3160.21642	488
3162.54826	482.3
3164.87868	488.5
3167.2077	452.3
3169.5353	472.6
3171.86151	483.6
3174.18631	474.4
3176.5097	472.8
3178.83169	474.4
3181.15228	485.2
3183.47147	461.5
3185.78926	454
3188.10565	472.6
3190.42065	452.1
3192.73424	464.5
3195.04645	457.4
3197.35725	448.1
3199.66667	464.3
3201.97469	459.2
3204.28132	451.5
3206.58656	459.3
3208.8904	468.3
3211.19287	458.1
3213.49394	448.6
3215.79363	440.2
3218.09193	461.1
3220.38884	459.3
3222.68438	469.2
3224.97853	441.6
3227.2713	462.3
3229.56269	449
3231.8527	450.4
3234.14133	443.8
3236.42858	442.6
3238.71446	430.9
3240.99896	447.6
3243.28209	436.2
3245.56384	450.1
3247.84423	437.1
3250.12324	447
3252.40088	445.1
3254.67715	439.3
3256.95205	432.9
3259.22558	450.3
3261.49775	441.9
3263.76855	436
3266.03799	445
3268.30606	444.7
3270.57277	449.2
3272.83812	431.9
3275.10211	435
3277.36474	451.8
3279.62601	448.2
3281.88593	424.7
3284.14448	410.6
3286.40168	430.8
3288.65753	422.5
3290.91202	420.7
3293.16516	413.7
3295.41695	440.2
3297.66738	436.6
3299.91647	421.1
3302.16421	438.9
3304.4106	408.3
3306.65564	438.1
3308.89933	406.8
3311.14169	421.8
3313.38269	431.3
3315.62236	408.6
3317.86068	409.9
3320.09766	414.7
3322.3333	393.6
3324.5676	404
3326.80056	408.1
3329.03219	405.4
3331.26248	-0.7
3333.49143	-0.6
3335.71905	-0.1
