Data from AgNPs_UA_20uM_CRN_500uM_SU_RamanShift__79__13-49-40-306.txt Node

Date: Thu Aug 04 13:49:40 BST 2022
User: TCL
Spectrometer: QEP01345
Trigger mode: 4
Integration Time (sec): 1.000000E0
Scans to average: 10
Electric dark correction enabled: true
Nonlinearity correction enabled: false
Boxcar width: 0
XAxis mode: Raman Shifts
Number of Pixels in Spectrum: 1044
>>>>>Begin Spectral Data<<<<<
46.04893	-2.825
50.45542	-0.325
54.85868	0.675
59.25871	-0.225
63.6555	12.775
68.04907	11.275
72.43941	14.075
76.82654	12.575
81.21044	14.175
85.59113	15.575
89.96862	14.875
94.34289	15.375
98.71396	15.675
103.08183	16.675
107.4465	16.175
111.80798	17.675
116.16626	20.475
120.52136	20.075
124.87327	19.175
129.222	23.375
133.56755	21.475
137.90993	24.975
142.24913	27.175
146.58517	27.475
150.91804	33.075
155.24774	42.475
159.57429	54.575
163.89768	68.875
168.21792	89.275
172.53501	127.675
176.84895	172.475
181.15975	253.175
185.46741	345.575
189.77193	483.375
194.07331	648.175
198.37157	836.875
202.6667	1037.575
206.9587	1241.175
211.24758	1439.375
215.53334	1644.275
219.81599	1864.475
224.09553	2101.975
228.37195	2387.575
232.64527	2676.275
236.91549	2976.975
241.18261	3216.175
245.44663	3406.875
249.70755	3568.375
253.96539	3708.275
258.22014	3806.075
262.4718	3915.475
266.72039	3996.875
270.96589	4016.575
275.20832	3994.175
279.44768	3953.075
283.68397	3869.775
287.91719	3837.675
292.14735	3841.675
296.37445	3923.175
300.59849	4050.975
304.81948	4240.775
309.03742	4400.875
313.25231	4484.375
317.46415	4406.975
321.67296	4221.175
325.87872	4035.675
330.08145	3927.075
334.28114	3939.675
338.47781	3957.275
342.67145	4061.775
346.86207	4206.175
351.04966	4355.775
355.23424	4540.375
359.4158	4671.075
363.59435	4742.075
367.76989	4750.475
371.94243	4747.675
376.11196	4723.975
380.27849	4720.475
384.44203	4698.775
388.60257	4712.375
392.76012	4752.975
396.91468	4797.975
401.06626	4886.775
405.21485	4922.875
409.36047	4827.075
413.50311	4643.775
417.64277	4479.675
421.77947	4364.775
425.9132	4324.775
430.04396	4357.975
434.17176	4404.375
438.2966	4485.075
442.41849	4587.975
446.53742	4734.175
450.6534	4881.875
454.76644	4943.975
458.87653	4935.375
462.98368	4889.475
467.08789	4805.575
471.18916	4721.875
475.2875	4587.175
479.38291	4496.575
483.4754	4440.175
487.56496	4389.075
491.6516	4376.975
495.73531	4351.175
499.81612	4357.675
503.89401	4381.475
507.96899	4414.975
512.04106	4453.575
516.11023	4509.475
520.1765	4558.775
524.23987	4580.475
528.30034	4560.775
532.35792	4534.875
536.41261	4493.575
540.46441	4416.275
544.51333	4385.475
548.55936	4437.775
552.60252	4498.875
556.64279	4589.575
560.6802	4643.675
564.71473	4694.675
568.7464	4757.275
572.7752	4775.575
576.80114	4677.275
580.82422	4562.575
584.84444	4562.575
588.86181	4607.975
592.87633	4730.375
596.888	4823.375
600.89682	5026.475
604.9028	5635.575
608.90594	6930.575
612.90624	8250.275
616.90371	7519.475
620.89834	5676.875
624.89015	4949.475
628.87913	4862.575
632.86528	4870.175
636.84862	4871.275
640.82913	4726.375
644.80683	4539.675
648.78172	4421.375
652.75379	4470.575
656.72306	4640.175
660.68952	4809.275
664.65319	4747.075
668.61405	4620.975
672.57211	4561.575
676.52738	4529.575
680.47986	4496.075
684.42955	4444.175
688.37646	4440.875
692.32058	4481.175
696.26192	4536.275
700.20048	4609.175
704.13626	4621.275
708.06928	4584.275
711.99952	4536.975
715.927	4530.675
719.85171	4576.375
723.77365	4554.875
727.69284	4510.175
731.60928	4484.275
735.52295	4484.775
739.43388	4517.675
743.34206	4577.175
747.24749	4575.175
751.15017	4577.975
755.05012	4656.875
758.94733	4865.775
762.8418	5344.175
766.73354	6070.475
770.62254	6705.975
774.50882	6849.275
778.39237	6445.975
782.27321	5791.075
786.15132	5188.275
790.02671	4834.275
793.89938	4662.075
797.76935	4589.975
801.6366	4569.175
805.50115	4531.275
809.36299	4503.075
813.22213	4503.975
817.07857	4493.775
820.93231	4499.775
824.78336	4506.275
828.63172	4535.075
832.47738	4553.275
836.32036	4535.575
840.16066	4540.275
843.99827	4565.275
847.8332	4562.175
851.66546	4533.875
855.49504	4539.975
859.32195	4562.075
863.1462	4548.675
866.96777	4538.475
870.78668	4516.575
874.60293	4525.075
878.41652	4534.475
882.22745	4584.475
886.03573	4609.275
889.84136	4609.975
893.64433	4568.075
897.44466	4541.975
901.24235	4568.675
905.0374	4538.375
908.8298	4526.775
912.61957	4517.975
916.40671	4536.775
920.19121	4565.175
923.97308	4646.075
927.75233	4686.775
931.52895	4715.875
935.30295	4690.675
939.07433	4580.775
942.84309	4515.975
946.60924	4481.575
950.37278	4446.775
954.13371	4435.875
957.89203	4444.675
961.64774	4424.075
965.40086	4401.075
969.15137	4390.975
972.89929	4390.575
976.64461	4403.375
980.38733	4411.275
984.12747	4429.175
987.86502	4465.175
991.59999	4539.375
995.33237	4617.775
999.06217	4741.375
1002.78939	4878.675
1006.51404	4946.575
1010.23611	5008.975
1013.95561	5049.075
1017.67255	5063.675
1021.38692	5034.175
1025.09872	5017.975
1028.80796	5056.575
1032.51465	5151.275
1036.21877	5235.375
1039.92035	5223.375
1043.61937	5172.775
1047.31584	5103.375
1051.00976	5002.275
1054.70114	4951.975
1058.38998	4952.875
1062.07627	4967.275
1065.76003	5008.175
1069.44126	5069.775
1073.11995	5133.875
1076.79611	5186.375
1080.46974	5229.275
1084.14085	5313.775
1087.80943	5395.675
1091.47549	5412.175
1095.13903	5320.475
1098.80005	5207.975
1102.45857	5123.875
1106.11456	5083.675
1109.76805	5112.775
1113.41903	5182.175
1117.06751	5298.475
1120.71348	5458.575
1124.35696	5633.075
1127.99793	5744.575
1131.63641	5656.775
1135.2724	5457.075
1138.90589	5298.175
1142.5369	5161.075
1146.16542	5125.575
1149.79145	5080.675
1153.415	5035.975
1157.03607	5050.075
1160.65467	5113.075
1164.27079	5242.675
1167.88443	5440.175
1171.49561	5752.375
1175.10432	6233.075
1178.71056	6894.975
1182.31434	7440.075
1185.91565	7686.875
1189.51451	7607.175
1193.11091	7319.075
1196.70485	6950.975
1200.29634	6637.875
1203.88538	6369.675
1207.47197	6063.375
1211.05612	5827.075
1214.63782	5657.375
1218.21708	5600.275
1221.79391	5603.375
1225.36829	5624.575
1228.94024	5617.675
1232.50976	5568.675
1236.07685	5541.075
1239.6415	5538.575
1243.20374	5537.575
1246.76355	5610.475
1250.32093	5673.975
1253.8759	5811.375
1257.42845	5991.275
1260.97859	6165.575
1264.52631	6308.675
1268.07163	6431.275
1271.61453	6554.275
1275.15503	6670.075
1278.69312	6746.675
1282.22882	6848.875
1285.76211	6978.075
1289.29301	7163.875
1292.82151	7330.775
1296.34761	7567.375
1299.87133	7907.275
1303.39266	8465.675
1306.9116	9241.575
1310.42815	10008.775
1313.94233	10257.075
1317.45412	9867.775
1320.96354	9233.275
1324.47058	8579.875
1327.97525	8011.775
1331.47754	7698.375
1334.97747	7666.675
1338.47502	7796.775
1341.97022	7990.875
1345.46305	8375.375
1348.95352	8829.475
1352.44163	9412.775
1355.92738	10174.375
1359.41078	11260.675
1362.89183	11960.275
1366.37053	11353.875
1369.84688	9681.975
1373.32088	8155.775
1376.79254	7314.175
1380.26186	6926.775
1383.72883	6732.675
1387.19347	6582.975
1390.65578	6347.875
1394.11575	6165.975
1397.57339	6024.975
1401.0287	5981.275
1404.48168	5964.975
1407.93234	5998.775
1411.38068	6105.875
1414.82669	6206.475
1418.27039	6227.575
1421.71177	6178.575
1425.15083	6129.975
1428.58758	6158.675
1432.02203	6263.075
1435.45416	6354.675
1438.88399	6355.875
1442.31151	6318.075
1445.73673	6290.575
1449.15965	6257.875
1452.58027	6211.075
1455.9986	6125.875
1459.41463	6114.275
1462.82837	6170.675
1466.23982	6254.275
1469.64898	6369.975
1473.05586	6445.175
1476.46045	6529.875
1479.86276	6584.075
1483.26279	6658.075
1486.66054	6795.475
1490.05602	6981.975
1493.44922	7338.775
1496.84016	7832.075
1500.22882	8585.175
1503.61521	9548.575
1506.99934	10449.875
1510.38121	11002.875
1513.76081	10806.475
1517.13816	9934.475
1520.51324	8788.675
1523.88607	7934.075
1527.25665	7428.075
1530.62498	7176.175
1533.99105	7036.875
1537.35488	6963.575
1540.71647	6911.875
1544.07581	6840.775
1547.4329	6774.475
1550.78776	6716.375
1554.14038	6636.275
1557.49077	6628.375
1560.83892	6672.775
1564.18484	6806.175
1567.52853	6969.675
1570.86999	7105.875
1574.20922	7114.275
1577.54624	6982.675
1580.88103	6668.975
1584.2136	6348.275
1587.54395	6221.575
1590.87208	6340.675
1594.19801	6726.175
1597.52172	7167.375
1600.84321	7442.575
1604.16251	7340.475
1607.47959	7099.775
1610.79447	6714.075
1614.10715	6256.375
1617.41763	5874.575
1620.7259	5604.275
1624.03199	5488.775
1627.33587	5487.275
1630.63757	5607.275
1633.93707	5905.675
1637.23439	6349.075
1640.52951	6996.175
1643.82246	7809.675
1647.11321	8525.875
1650.40179	8717.875
1653.68819	8126.775
1656.97241	7029.375
1660.25446	6035.575
1663.53433	5372.375
1666.81203	4999.675
1670.08756	4771.475
1673.36092	4640.775
1676.63211	4556.175
1679.90115	4483.775
1683.16801	4426.975
1686.43272	4380.275
1689.69527	4365.675
1692.95567	4342.575
1696.2139	4347.075
1699.46999	4323.375
1702.72392	4332.975
1705.97571	4317.475
1709.22535	4329.275
1712.47284	4312.875
1715.71819	4300.575
1718.96139	4313.575
1722.20246	4306.275
1725.44139	4286.275
1728.67818	4254.475
1731.91284	4227.375
1735.14537	4227.575
1738.37576	4184.875
1741.60403	4183.175
1744.83017	4184.475
1748.05418	4183.875
1751.27607	4165.175
1754.49584	4143.675
1757.71349	4136.775
1760.92903	4120.975
1764.14244	4121.875
1767.35375	4119.775
1770.56294	4104.575
1773.77002	4109.675
1776.97499	4091.175
1780.17785	4085.975
1783.37861	4081.775
1786.57727	4072.775
1789.77382	4069.675
1792.96828	4067.575
1796.16064	4045.875
1799.3509	4043.475
1802.53907	4040.275
1805.72514	4053.975
1808.90913	4041.175
1812.09102	4019.675
1815.27083	4004.875
1818.44856	4013.775
1821.6242	3995.675
1824.79776	3997.575
1827.96924	3992.075
1831.13864	3976.775
1834.30597	3984.875
1837.47122	3986.875
1840.6344	3967.275
1843.7955	3945.075
1846.95454	3964.475
1850.11151	3945.675
1853.26642	3954.275
1856.41926	3951.675
1859.57004	3947.475
1862.71876	3945.775
1865.86542	3966.675
1869.01003	3939.475
1872.15258	3935.575
1875.29308	3940.575
1878.43152	3940.575
1881.56792	3916.075
1884.70227	3921.575
1887.83457	3917.975
1890.96482	3928.875
1894.09304	3926.075
1897.21921	3920.775
1900.34335	3896.475
1903.46544	3893.375
1906.58551	3911.875
1909.70353	3913.375
1912.81953	3903.675
1915.93349	3898.775
1919.04543	3897.275
1922.15534	3892.075
1925.26322	3884.075
1928.36908	3863.375
1931.47292	3869.175
1934.57473	3862.375
1937.67453	3862.975
1940.77232	3868.575
1943.86808	3849.975
1946.96184	3840.675
1950.05358	3826.975
1953.14331	3810.875
1956.23103	3798.475
1959.31675	3768.575
1962.40046	3781.575
1965.48217	3755.575
1968.56188	3753.575
1971.63959	3742.875
1974.7153	3735.975
1977.78901	3725.075
1980.86073	3722.675
1983.93046	3718.375
1986.99819	3695.875
1990.06394	3676.375
1993.1277	3664.475
1996.18947	3657.075
1999.24925	3662.375
2002.30706	3646.875
2005.36288	3621.975
2008.41672	3621.675
2011.46859	3619.475
2014.51848	3585.475
2017.56639	3587.775
2020.61233	3581.775
2023.6563	3561.675
2026.6983	3579.075
2029.73833	3558.875
2032.7764	3562.075
2035.8125	3543.475
2038.84664	3563.375
2041.87881	3544.075
2044.90903	3540.375
2047.93729	3524.375
2050.96359	3518.375
2053.98794	3507.375
2057.01034	3508.075
2060.03078	3517.575
2063.04927	3496.875
2066.06582	3505.175
2069.08042	3501.675
2072.09307	3493.575
2075.10378	3498.975
2078.11255	3518.775
2081.11938	3500.375
2084.12426	3483.775
2087.12722	3489.375
2090.12824	3487.875
2093.12732	3487.275
2096.12447	3484.075
2099.11969	3499.175
2102.11299	3486.275
2105.10435	3497.175
2108.09379	3497.775
2111.08131	3491.575
2114.0669	3490.175
2117.05057	3479.875
2120.03233	3494.075
2123.01216	3496.175
2125.99008	3503.775
2128.96609	3506.975
2131.94018	3505.275
2134.91236	3521.775
2137.88263	3504.575
2140.851	3519.275
2143.81746	3506.475
2146.78201	3520.675
2149.74466	3525.175
2152.7054	3508.375
2155.66425	3508.275
2158.6212	3521.375
2161.57625	3521.475
2164.52941	3514.175
2167.48067	3514.275
2170.43004	3501.075
2173.37752	3505.075
2176.32311	3496.575
2179.26681	3506.675
2182.20863	3502.675
2185.14856	3509.775
2188.08661	3505.575
2191.02278	3512.275
2193.95707	3505.375
2196.88948	3508.575
2199.82001	3494.275
2202.74867	3502.375
2205.67545	3508.175
2208.60037	3509.275
2211.52341	3502.075
2214.44458	3488.275
2217.36388	3475.475
2220.28132	3477.475
2223.1969	3451.075
2226.11061	3456.075
2229.02246	3436.375
2231.93245	3445.575
2234.84058	3451.975
2237.74686	3440.875
2240.65128	3431.675
2243.55385	3440.175
2246.45456	3430.875
2249.35343	3431.375
2252.25044	3410.375
2255.14561	3432.675
2258.03893	3426.675
2260.93041	3420.475
2263.82004	3402.275
2266.70783	3402.375
2269.59378	3393.275
2272.4779	3387.275
2275.36017	3372.975
2278.24061	3368.075
2281.11922	3355.775
2283.996	3342.875
2286.87094	3350.775
2289.74405	3335.975
2292.61534	3338.175
2295.4848	3338.775
2298.35243	3346.475
2301.21824	3338.475
2304.08223	3336.075
2306.94439	3330.675
2309.80474	3340.375
2312.66327	3345.075
2315.51999	3327.475
2318.37489	3332.975
2321.22797	3339.375
2324.07925	3326.975
2326.92871	3314.475
2329.77637	3320.175
2332.62222	3328.175
2335.46626	3313.475
2338.3085	3320.475
2341.14893	3325.675
2343.98756	3322.575
2346.8244	3311.775
2349.65943	3319.775
2352.49267	3318.975
2355.32411	3312.175
2358.15376	3316.175
2360.98161	3313.775
2363.80768	3304.475
2366.63195	3308.175
2369.45444	3297.975
2372.27514	3289.875
2375.09405	3310.575
2377.91118	3292.175
2380.72652	3274.375
2383.54009	3266.375
2386.35187	3260.775
2389.16188	3253.675
2391.97011	3246.475
2394.77657	3246.175
2397.58125	3243.075
2400.38416	3236.075
2403.18529	3225.775
2405.98466	3239.675
2408.78226	3223.075
2411.57809	3207.775
2414.37216	3201.975
2417.16446	3202.475
2419.955	3189.275
2422.74378	3207.775
2425.5308	3190.875
2428.31606	3182.475
2431.09956	3189.275
2433.88131	3195.975
2436.6613	3177.675
2439.43954	3189.975
2442.21603	3191.975
2444.99077	3193.375
2447.76377	3190.275
2450.53501	3184.975
2453.30451	3168.675
2456.07226	3169.875
2458.83827	3169.975
2461.60254	3170.175
2464.36507	3159.475
2467.12586	3163.975
2469.88492	3166.675
2472.64224	3166.175
2475.39782	3156.175
2478.15167	3170.075
2480.90379	3156.975
2483.65417	3182.675
2486.40283	3183.475
2489.14976	3170.675
2491.89497	3169.975
2494.63845	3173.975
2497.3802	3180.375
2500.12024	3163.175
2502.85855	3167.675
2505.59514	3142.175
2508.33002	3133.075
2511.06318	3130.475
2513.79462	3130.775
2516.52435	3128.375
2519.25237	3129.275
2521.97867	3122.675
2524.70327	3117.975
2527.42616	3113.775
2530.14734	3112.675
2532.86681	3122.175
2535.58458	3119.875
2538.30065	3103.875
2541.01501	3108.075
2543.72768	3114.475
2546.43864	3113.275
2549.14791	3111.375
2551.85548	3110.375
2554.56136	3107.775
2557.26554	3100.875
2559.96803	3087.575
2562.66883	3070.375
2565.36794	3092.575
2568.06536	3068.675
2570.7611	3053.375
2573.45514	3057.075
2576.14751	3060.175
2578.83819	3051.075
2581.52719	3055.375
2584.21451	3048.775
2586.90015	3046.775
2589.58411	3040.275
2592.2664	3043.375
2594.94701	3046.875
2597.62594	3035.975
2600.30321	3034.675
2602.9788	3035.975
2605.65273	3027.375
2608.32498	3035.275
2610.99557	3031.275
2613.66449	3035.575
2616.33175	3018.675
2618.99734	3026.575
2621.66128	3026.775
2624.32355	3014.875
2626.98416	3031.175
2629.64311	3031.175
2632.30041	3022.675
2634.95605	3018.675
2637.61004	3007.675
2640.26238	3003.875
2642.91306	3010.175
2645.56209	3005.975
2648.20948	2999.075
2650.85521	3011.875
2653.4993	3002.575
2656.14175	2992.975
2658.78255	2991.975
2661.42171	2996.675
2664.05923	3008.175
2666.6951	3010.875
2669.32934	3025.275
2671.96194	3006.475
2674.59291	3000.875
2677.22224	3012.575
2679.84993	3011.375
2682.476	3003.075
2685.10043	2994.175
2687.72324	2995.275
2690.34441	2989.575
2692.96396	3004.075
2695.58188	2982.175
2698.19818	2975.775
2700.81285	2989.975
2703.4259	2976.975
2706.03733	2985.775
2708.64714	2987.775
2711.25533	2967.775
2713.86191	2979.175
2716.46687	2984.875
2719.07021	2982.075
2721.67194	2991.975
2724.27206	2998.175
2726.87057	2988.775
2729.46747	2993.475
2732.06276	2995.575
2734.65644	2980.775
2737.24852	2992.675
2739.83899	2981.075
2742.42786	2972.375
2745.01513	2980.775
2747.60079	2965.575
2750.18486	2973.075
2752.76733	2961.075
2755.3482	2966.075
2757.92747	2944.575
2760.50515	2943.375
2763.08123	2952.375
2765.65573	2956.775
2768.22863	2951.075
2770.79994	2932.275
2773.36967	2951.975
2775.9378	2943.975
2778.50435	2931.475
2781.06932	2944.475
2783.6327	2937.275
2786.1945	2943.475
2788.75471	2930.175
2791.31335	2926.175
2793.87041	2911.375
2796.42589	2925.475
2798.97979	2907.875
2801.53212	2903.475
2804.08288	2914.075
2806.63206	2890.175
2809.17967	2900.175
2811.72571	2891.475
2814.27018	2904.175
2816.81308	2877.675
2819.35442	2875.275
2821.89419	2872.375
2824.43239	2866.475
2826.96904	2865.075
2829.50412	2854.775
2832.03763	2863.275
2834.56959	2856.475
2837.1	2845.375
2839.62884	2846.975
2842.15613	2859.575
2844.68186	2852.975
2847.20604	2848.575
2849.72867	2827.575
2852.24974	2830.275
2854.76927	2839.075
2857.28724	2826.675
2859.80367	2821.975
2862.31855	2812.975
2864.83189	2814.575
2867.34368	2810.875
2869.85393	2815.775
2872.36264	2816.475
2874.8698	2801.575
2877.37543	2801.075
2879.87952	2805.775
2882.38207	2797.975
2884.88308	2805.775
2887.38256	2787.975
2889.88051	2798.675
2892.37692	2791.475
2894.8718	2786.875
2897.36515	2789.575
2899.85698	2786.675
2902.34727	2796.275
2904.83604	2801.475
2907.32328	2812.475
2909.809	2810.375
2912.29319	2812.975
2914.77587	2799.575
2917.25702	2809.075
2919.73665	2807.875
2922.21476	2815.175
2924.69136	2820.475
2927.16644	2822.775
2929.64	2797.375
2932.11205	2809.775
2934.58258	2780.075
2937.05161	2785.475
2939.51912	2777.675
2941.98513	2775.275
2944.44962	2778.275
2946.91261	2769.675
2949.37409	2776.075
2951.83407	2797.875
2954.29254	2781.475
2956.74951	2767.875
2959.20498	2764.775
2961.65895	2766.875
2964.11142	2750.475
2966.56239	2753.075
2969.01186	2758.975
2971.45984	2752.475
2973.90632	2749.875
2976.35131	2760.975
2978.7948	2740.675
2981.23681	2739.575
2983.67732	2733.975
2986.11635	2722.175
2988.55388	2720.875
2990.98993	2716.375
2993.4245	2715.575
2995.85758	2720.775
2998.28917	2702.675
3000.71928	2699.775
3003.14791	2691.175
3005.57506	2681.075
3008.00073	2677.475
3010.42493	2663.275
3012.84764	2667.475
3015.26888	2659.775
3017.68865	2650.875
3020.10694	2653.575
3022.52376	2652.075
3024.9391	2649.975
3027.35298	2636.075
3029.76539	2623.975
3032.17632	2623.675
3034.5858	2622.475
3036.9938	2631.875
3039.40034	2618.075
3041.80542	2612.775
3044.20903	2613.075
3046.61118	2613.275
3049.01187	2588.175
3051.4111	2583.375
3053.80888	2595.075
3056.20519	2587.675
3058.60005	2570.875
3060.99345	2567.375
3063.3854	2559.375
3065.7759	2568.475
3068.16494	2564.075
3070.55254	2546.975
3072.93868	2538.575
3075.32338	2543.275
3077.70662	2514.675
3080.08842	2530.775
3082.46878	2521.675
3084.84769	2504.275
3087.22515	2505.375
3089.60118	2500.675
3091.97576	2507.175
3094.3489	2513.075
3096.72061	2499.775
3099.09087	2493.775
3101.4597	2511.375
3103.82709	2493.875
3106.19305	2493.275
3108.55757	2503.775
3110.92066	2482.575
3113.28232	2494.175
3115.64255	2477.375
3118.00134	2469.275
3120.35871	2469.075
3122.71466	2463.075
3125.06917	2469.875
3127.42226	2455.675
3129.77393	2456.175
3132.12417	2445.475
3134.47299	2438.675
3136.82039	2440.275
3139.16636	2435.375
3141.51092	2441.575
3143.85406	2435.375
3146.19579	2434.775
3148.53609	2447.675
3150.87499	2445.375
3153.21246	2444.775
3155.54853	2447.775
3157.88318	2450.775
3160.21642	2446.075
3162.54826	2450.075
3164.87868	2432.475
3167.2077	2436.975
3169.5353	2429.675
3171.86151	2429.475
3174.18631	2431.475
3176.5097	2428.675
3178.83169	2421.175
3181.15228	2419.175
3183.47147	2413.075
3185.78926	2400.175
3188.10565	2403.375
3190.42065	2399.575
3192.73424	2394.775
3195.04645	2391.175
3197.35725	2386.075
3199.66667	2387.375
3201.97469	2385.975
3204.28132	2384.675
3206.58656	2389.775
3208.8904	2387.575
3211.19287	2397.275
3213.49394	2405.775
3215.79363	2400.275
3218.09193	2401.475
3220.38884	2392.075
3222.68438	2396.375
3224.97853	2382.575
3227.2713	2395.275
3229.56269	2387.375
3231.8527	2392.375
3234.14133	2378.775
3236.42858	2385.575
3238.71446	2367.075
3240.99896	2358.375
3243.28209	2367.875
3245.56384	2355.875
3247.84423	2360.975
3250.12324	2346.575
3252.40088	2358.175
3254.67715	2343.975
3256.95205	2343.075
3259.22558	2354.375
3261.49775	2339.875
3263.76855	2340.575
3266.03799	2346.375
3268.30606	2353.775
3270.57277	2355.675
3272.83812	2336.775
3275.10211	2322.075
3277.36474	2313.575
3279.62601	2332.375
3281.88593	2315.975
3284.14448	2312.175
3286.40168	2311.475
3288.65753	2322.475
3290.91202	2315.075
3293.16516	2298.475
3295.41695	2292.175
3297.66738	2292.675
3299.91647	2275.175
3302.16421	2272.075
3304.4106	2249.475
3306.65564	2239.175
3308.89933	2233.775
3311.14169	2209.175
3313.38269	2200.975
3315.62236	2175.275
3317.86068	2159.075
3320.09766	2137.075
3322.3333	2121.875
3324.5676	2108.475
3326.80056	2079.275
3329.03219	2064.075
3331.26248	2.975
3333.49143	-0.025
3335.71905	-1.225
