Data from AgNPs_UA_10uM_CRN_500uM_SU_RamanShift__48__13-13-20-262.txt Node

Date: Thu Aug 04 13:13:20 BST 2022
User: TCL
Spectrometer: QEP01345
Trigger mode: 4
Integration Time (sec): 1.000000E0
Scans to average: 10
Electric dark correction enabled: true
Nonlinearity correction enabled: false
Boxcar width: 0
XAxis mode: Raman Shifts
Number of Pixels in Spectrum: 1044
>>>>>Begin Spectral Data<<<<<
46.04893	0.1375
50.45542	-1.3625
54.85868	0.6375
59.25871	1.0375
63.6555	20.8375
68.04907	20.7375
72.43941	23.6375
76.82654	22.1375
81.21044	25.7375
85.59113	24.6375
89.96862	25.8375
94.34289	26.2375
98.71396	26.8375
103.08183	28.2375
107.4465	28.1375
111.80798	29.9375
116.16626	32.0375
120.52136	36.4375
124.87327	36.6375
129.222	37.3375
133.56755	40.4375
137.90993	42.0375
142.24913	49.6375
146.58517	56.9375
150.91804	65.4375
155.24774	79.2375
159.57429	96.0375
163.89768	129.9375
168.21792	171.4375
172.53501	239.1375
176.84895	332.2375
181.15975	475.4375
185.46741	669.3375
189.77193	935.0375
194.07331	1265.8375
198.37157	1623.0375
202.6667	1998.6375
206.9587	2387.9375
211.24758	2779.3375
215.53334	3174.2375
219.81599	3577.0375
224.09553	4037.5375
228.37195	4539.1375
232.64527	5100.3375
236.91549	5635.5375
241.18261	6157.6375
245.44663	6603.7375
249.70755	6971.0375
253.96539	7302.9375
258.22014	7589.5375
262.4718	7825.9375
266.72039	7926.2375
270.96589	7980.4375
275.20832	7966.3375
279.44768	7878.6375
283.68397	7777.0375
287.91719	7654.7375
292.14735	7653.5375
296.37445	7728.0375
300.59849	7872.5375
304.81948	8085.7375
309.03742	8233.8375
313.25231	8311.2375
317.46415	8274.6375
321.67296	8067.0375
325.87872	7852.0375
330.08145	7735.3375
334.28114	7746.8375
338.47781	7820.4375
342.67145	7935.8375
346.86207	8108.8375
351.04966	8390.7375
355.23424	8638.1375
359.4158	8865.5375
363.59435	8982.5375
367.76989	9058.9375
371.94243	9084.9375
376.11196	9098.6375
380.27849	9111.0375
384.44203	9170.7375
388.60257	9237.6375
392.76012	9314.9375
396.91468	9435.6375
401.06626	9581.8375
405.21485	9632.7375
409.36047	9550.4375
413.50311	9385.4375
417.64277	9188.5375
421.77947	9049.8375
425.9132	8978.1375
430.04396	8941.1375
434.17176	8997.2375
438.2966	9044.6375
442.41849	9194.8375
446.53742	9363.9375
450.6534	9491.4375
454.76644	9648.9375
458.87653	9736.9375
462.98368	9790.4375
467.08789	9749.9375
471.18916	9653.3375
475.2875	9512.4375
479.38291	9347.7375
483.4754	9267.1375
487.56496	9211.6375
491.6516	9175.9375
495.73531	9191.8375
499.81612	9219.7375
503.89401	9291.8375
507.96899	9354.5375
512.04106	9355.6375
516.11023	9420.1375
520.1765	9432.7375
524.23987	9455.8375
528.30034	9490.2375
532.35792	9463.4375
536.41261	9421.2375
540.46441	9329.6375
544.51333	9336.2375
548.55936	9403.5375
552.60252	9499.2375
556.64279	9618.7375
560.6802	9739.6375
564.71473	9825.1375
568.7464	9853.2375
572.7752	9782.3375
576.80114	9554.4375
580.82422	9416.9375
584.84444	9375.0375
588.86181	9376.4375
592.87633	9423.0375
596.888	9560.0375
600.89682	9958.5375
604.9028	10854.6375
608.90594	12625.5375
612.90624	14327.0375
616.90371	13376.9375
620.89834	11014.3375
624.89015	10016.8375
628.87913	9970.9375
632.86528	10131.1375
636.84862	10254.5375
640.82913	10084.7375
644.80683	9826.8375
648.78172	9648.3375
652.75379	9643.6375
656.72306	9865.6375
660.68952	10099.6375
664.65319	10080.8375
668.61405	10019.7375
672.57211	10162.3375
676.52738	10187.9375
680.47986	9946.1375
684.42955	9754.1375
688.37646	9696.9375
692.32058	9767.1375
696.26192	9947.1375
700.20048	10115.2375
704.13626	10159.2375
708.06928	10063.4375
711.99952	9941.4375
715.927	9920.0375
719.85171	9967.2375
723.77365	9990.9375
727.69284	9938.1375
731.60928	9886.5375
735.52295	9871.9375
739.43388	9897.0375
743.34206	9938.4375
747.24749	9932.7375
751.15017	9903.8375
755.05012	9980.4375
758.94733	10222.6375
762.8418	10834.0375
766.73354	11756.0375
770.62254	12491.1375
774.50882	12710.8375
778.39237	12537.8375
782.27321	12002.1375
786.15132	11248.6375
790.02671	10621.1375
793.89938	10287.7375
797.76935	10122.2375
801.6366	9981.4375
805.50115	9942.4375
809.36299	9922.3375
813.22213	9931.3375
817.07857	9936.7375
820.93231	9916.4375
824.78336	9940.7375
828.63172	9939.2375
832.47738	9952.4375
836.32036	9950.2375
840.16066	9949.5375
843.99827	9943.0375
847.8332	9925.6375
851.66546	9970.7375
855.49504	9979.5375
859.32195	9983.0375
863.1462	9995.7375
866.96777	9993.4375
870.78668	10000.2375
874.60293	10034.9375
878.41652	10092.9375
882.22745	10169.8375
886.03573	10200.7375
889.84136	10197.9375
893.64433	10164.6375
897.44466	10132.0375
901.24235	10102.0375
905.0374	10119.4375
908.8298	10067.8375
912.61957	10073.5375
916.40671	10032.1375
920.19121	10061.5375
923.97308	10093.4375
927.75233	10147.3375
931.52895	10231.9375
935.30295	10195.5375
939.07433	10057.4375
942.84309	9994.4375
946.60924	9972.8375
950.37278	9964.4375
954.13371	9961.1375
957.89203	9961.0375
961.64774	9980.9375
965.40086	9941.6375
969.15137	9918.0375
972.89929	9916.3375
976.64461	9928.8375
980.38733	9954.2375
984.12747	9953.3375
987.86502	10022.4375
991.59999	10044.6375
995.33237	10086.6375
999.06217	10176.1375
1002.78939	10269.9375
1006.51404	10418.0375
1010.23611	10604.2375
1013.95561	10692.6375
1017.67255	10714.0375
1021.38692	10678.7375
1025.09872	10630.1375
1028.80796	10511.6375
1032.51465	10475.8375
1036.21877	10432.8375
1039.92035	10493.4375
1043.61937	10563.1375
1047.31584	10572.6375
1051.00976	10615.5375
1054.70114	10631.5375
1058.38998	10676.4375
1062.07627	10717.5375
1065.76003	10782.0375
1069.44126	10927.2375
1073.11995	11128.4375
1076.79611	11370.5375
1080.46974	11500.0375
1084.14085	11559.0375
1087.80943	11620.3375
1091.47549	11672.1375
1095.13903	11804.7375
1098.80005	11923.8375
1102.45857	12032.3375
1106.11456	11975.1375
1109.76805	11707.8375
1113.41903	11623.7375
1117.06751	11669.9375
1120.71348	11733.0375
1124.35696	11860.4375
1127.99793	11921.5375
1131.63641	11766.7375
1135.2724	11526.2375
1138.90589	11365.5375
1142.5369	11252.5375
1146.16542	11204.1375
1149.79145	11132.5375
1153.415	11017.1375
1157.03607	10926.6375
1160.65467	10956.5375
1164.27079	11099.4375
1167.88443	11346.8375
1171.49561	11714.3375
1175.10432	12242.1375
1178.71056	12973.6375
1182.31434	13626.9375
1185.91565	13928.4375
1189.51451	13988.3375
1193.11091	13936.8375
1196.70485	13832.5375
1200.29634	13607.3375
1203.88538	13333.9375
1207.47197	12981.9375
1211.05612	12641.2375
1214.63782	12329.9375
1218.21708	12021.1375
1221.79391	11769.0375
1225.36829	11618.3375
1228.94024	11572.5375
1232.50976	11538.3375
1236.07685	11575.3375
1239.6415	11622.2375
1243.20374	11677.8375
1246.76355	11768.9375
1250.32093	11857.4375
1253.8759	12034.6375
1257.42845	12307.0375
1260.97859	12612.9375
1264.52631	12840.1375
1268.07163	13052.0375
1271.61453	13114.1375
1275.15503	13120.8375
1278.69312	13077.6375
1282.22882	13032.4375
1285.76211	13082.5375
1289.29301	13143.5375
1292.82151	13290.0375
1296.34761	13468.5375
1299.87133	13776.7375
1303.39266	14298.9375
1306.9116	15116.2375
1310.42815	15895.8375
1313.94233	16238.6375
1317.45412	15914.5375
1320.96354	15347.3375
1324.47058	14776.5375
1327.97525	14191.6375
1331.47754	13798.3375
1334.97747	13647.2375
1338.47502	13818.5375
1341.97022	14272.5375
1345.46305	15053.7375
1348.95352	16119.0375
1352.44163	17154.1375
1355.92738	18040.9375
1359.41078	18827.1375
1362.89183	19301.6375
1366.37053	18407.5375
1369.84688	16397.5375
1373.32088	14556.2375
1376.79254	13533.3375
1380.26186	12980.3375
1383.72883	12637.6375
1387.19347	12318.1375
1390.65578	12001.8375
1394.11575	11724.9375
1397.57339	11522.5375
1401.0287	11416.0375
1404.48168	11390.6375
1407.93234	11501.7375
1411.38068	11666.2375
1414.82669	11841.2375
1418.27039	11842.9375
1421.71177	11829.3375
1425.15083	11762.8375
1428.58758	11637.5375
1432.02203	11628.5375
1435.45416	11603.8375
1438.88399	11601.1375
1442.31151	11589.3375
1445.73673	11632.5375
1449.15965	11668.3375
1452.58027	11636.8375
1455.9986	11620.9375
1459.41463	11625.0375
1462.82837	11701.8375
1466.23982	11858.8375
1469.64898	12035.7375
1473.05586	12204.5375
1476.46045	12300.6375
1479.86276	12436.0375
1483.26279	12539.2375
1486.66054	12723.1375
1490.05602	13046.4375
1493.44922	13556.2375
1496.84016	14277.8375
1500.22882	15298.3375
1503.61521	16440.6375
1506.99934	17442.4375
1510.38121	17882.7375
1513.76081	17514.0375
1517.13816	16440.4375
1520.51324	15142.2375
1523.88607	14060.0375
1527.25665	13391.6375
1530.62498	13043.0375
1533.99105	12874.9375
1537.35488	12775.5375
1540.71647	12748.6375
1544.07581	12663.3375
1547.4329	12614.3375
1550.78776	12477.1375
1554.14038	12339.8375
1557.49077	12287.6375
1560.83892	12348.7375
1564.18484	12553.7375
1567.52853	12761.8375
1570.86999	12927.9375
1574.20922	12998.0375
1577.54624	12868.9375
1580.88103	12502.4375
1584.2136	12054.7375
1587.54395	11812.0375
1590.87208	11816.5375
1594.19801	12037.4375
1597.52172	12386.2375
1600.84321	12571.5375
1604.16251	12551.6375
1607.47959	12434.6375
1610.79447	12165.6375
1614.10715	11754.6375
1617.41763	11284.5375
1620.7259	10946.3375
1624.03199	10748.2375
1627.33587	10677.6375
1630.63757	10705.0375
1633.93707	10928.7375
1637.23439	11381.6375
1640.52951	12117.2375
1643.82246	13096.0375
1647.11321	14021.3375
1650.40179	14446.7375
1653.68819	13912.6375
1656.97241	12723.3375
1660.25446	11537.0375
1663.53433	10737.7375
1666.81203	10253.4375
1670.08756	10004.4375
1673.36092	9835.4375
1676.63211	9725.9375
1679.90115	9632.0375
1683.16801	9526.2375
1686.43272	9464.9375
1689.69527	9415.5375
1692.95567	9337.8375
1696.2139	9317.4375
1699.46999	9294.6375
1702.72392	9298.6375
1705.97571	9262.1375
1709.22535	9266.6375
1712.47284	9273.6375
1715.71819	9272.1375
1718.96139	9276.6375
1722.20246	9246.4375
1725.44139	9232.1375
1728.67818	9204.7375
1731.91284	9143.8375
1735.14537	9089.7375
1738.37576	9071.1375
1741.60403	9026.8375
1744.83017	9015.8375
1748.05418	9008.1375
1751.27607	8988.9375
1754.49584	8986.1375
1757.71349	8966.8375
1760.92903	8966.6375
1764.14244	8920.4375
1767.35375	8911.5375
1770.56294	8896.4375
1773.77002	8877.4375
1776.97499	8841.4375
1780.17785	8821.7375
1783.37861	8816.1375
1786.57727	8795.5375
1789.77382	8808.2375
1792.96828	8762.9375
1796.16064	8767.7375
1799.3509	8746.4375
1802.53907	8732.0375
1805.72514	8722.2375
1808.90913	8701.1375
1812.09102	8685.2375
1815.27083	8636.3375
1818.44856	8617.1375
1821.6242	8601.1375
1824.79776	8579.4375
1827.96924	8602.0375
1831.13864	8560.0375
1834.30597	8551.4375
1837.47122	8536.6375
1840.6344	8504.5375
1843.7955	8505.7375
1846.95454	8512.3375
1850.11151	8505.0375
1853.26642	8476.8375
1856.41926	8498.3375
1859.57004	8495.8375
1862.71876	8503.0375
1865.86542	8474.1375
1869.01003	8466.1375
1872.15258	8443.3375
1875.29308	8411.1375
1878.43152	8390.3375
1881.56792	8402.9375
1884.70227	8382.0375
1887.83457	8355.5375
1890.96482	8341.4375
1894.09304	8326.1375
1897.21921	8325.1375
1900.34335	8300.8375
1903.46544	8280.3375
1906.58551	8281.9375
1909.70353	8256.8375
1912.81953	8283.0375
1915.93349	8276.8375
1919.04543	8218.9375
1922.15534	8209.6375
1925.26322	8201.9375
1928.36908	8188.7375
1931.47292	8150.0375
1934.57473	8149.9375
1937.67453	8129.5375
1940.77232	8103.1375
1943.86808	8066.8375
1946.96184	8050.9375
1950.05358	8039.3375
1953.14331	8027.2375
1956.23103	7997.1375
1959.31675	7953.9375
1962.40046	7937.1375
1965.48217	7908.2375
1968.56188	7868.5375
1971.63959	7858.0375
1974.7153	7841.0375
1977.78901	7820.8375
1980.86073	7825.2375
1983.93046	7766.1375
1986.99819	7731.6375
1990.06394	7706.6375
1993.1277	7679.4375
1996.18947	7658.8375
1999.24925	7636.9375
2002.30706	7595.0375
2005.36288	7577.9375
2008.41672	7535.0375
2011.46859	7518.2375
2014.51848	7511.9375
2017.56639	7483.9375
2020.61233	7442.2375
2023.6563	7450.4375
2026.6983	7415.1375
2029.73833	7388.8375
2032.7764	7369.6375
2035.8125	7353.1375
2038.84664	7317.9375
2041.87881	7317.3375
2044.90903	7312.6375
2047.93729	7282.4375
2050.96359	7286.8375
2053.98794	7265.1375
2057.01034	7249.1375
2060.03078	7245.3375
2063.04927	7231.0375
2066.06582	7225.9375
2069.08042	7213.5375
2072.09307	7211.4375
2075.10378	7191.9375
2078.11255	7177.6375
2081.11938	7174.5375
2084.12426	7146.6375
2087.12722	7160.7375
2090.12824	7156.9375
2093.12732	7153.2375
2096.12447	7151.1375
2099.11969	7172.3375
2102.11299	7169.7375
2105.10435	7150.0375
2108.09379	7171.9375
2111.08131	7153.0375
2114.0669	7147.9375
2117.05057	7181.7375
2120.03233	7186.9375
2123.01216	7173.4375
2125.99008	7165.0375
2128.96609	7183.9375
2131.94018	7190.3375
2134.91236	7179.3375
2137.88263	7167.0375
2140.851	7164.1375
2143.81746	7168.8375
2146.78201	7155.1375
2149.74466	7142.9375
2152.7054	7168.6375
2155.66425	7161.1375
2158.6212	7149.4375
2161.57625	7120.2375
2164.52941	7140.8375
2167.48067	7143.0375
2170.43004	7133.8375
2173.37752	7115.2375
2176.32311	7127.1375
2179.26681	7106.7375
2182.20863	7128.5375
2185.14856	7121.3375
2188.08661	7113.2375
2191.02278	7128.5375
2193.95707	7108.0375
2196.88948	7099.9375
2199.82001	7098.0375
2202.74867	7071.5375
2205.67545	7095.2375
2208.60037	7063.8375
2211.52341	7040.7375
2214.44458	7005.8375
2217.36388	7007.7375
2220.28132	6977.8375
2223.1969	6947.9375
2226.11061	6941.0375
2229.02246	6951.2375
2231.93245	6935.3375
2234.84058	6920.1375
2237.74686	6907.3375
2240.65128	6859.3375
2243.55385	6855.9375
2246.45456	6856.6375
2249.35343	6857.3375
2252.25044	6827.5375
2255.14561	6822.0375
2258.03893	6840.1375
2260.93041	6811.2375
2263.82004	6795.0375
2266.70783	6772.3375
2269.59378	6745.5375
2272.4779	6727.4375
2275.36017	6719.7375
2278.24061	6712.1375
2281.11922	6691.0375
2283.996	6663.7375
2286.87094	6672.7375
2289.74405	6636.4375
2292.61534	6642.0375
2295.4848	6618.6375
2298.35243	6625.7375
2301.21824	6597.1375
2304.08223	6575.3375
2306.94439	6593.0375
2309.80474	6599.3375
2312.66327	6564.7375
2315.51999	6544.3375
2318.37489	6551.6375
2321.22797	6536.9375
2324.07925	6510.2375
2326.92871	6507.8375
2329.77637	6506.2375
2332.62222	6484.9375
2335.46626	6461.7375
2338.3085	6472.0375
2341.14893	6449.3375
2343.98756	6459.6375
2346.8244	6444.7375
2349.65943	6428.6375
2352.49267	6413.5375
2355.32411	6405.5375
2358.15376	6406.3375
2360.98161	6383.4375
2363.80768	6407.7375
2366.63195	6393.4375
2369.45444	6383.7375
2372.27514	6395.4375
2375.09405	6369.8375
2377.91118	6355.4375
2380.72652	6353.4375
2383.54009	6334.3375
2386.35187	6310.6375
2389.16188	6286.2375
2391.97011	6272.3375
2394.77657	6242.9375
2397.58125	6265.5375
2400.38416	6241.7375
2403.18529	6222.6375
2405.98466	6239.4375
2408.78226	6211.3375
2411.57809	6173.3375
2414.37216	6184.0375
2417.16446	6171.2375
2419.955	6172.3375
2422.74378	6158.5375
2425.5308	6164.1375
2428.31606	6165.7375
2431.09956	6152.0375
2433.88131	6135.7375
2436.6613	6131.7375
2439.43954	6127.7375
2442.21603	6111.6375
2444.99077	6084.9375
2447.76377	6116.3375
2450.53501	6109.9375
2453.30451	6096.9375
2456.07226	6082.4375
2458.83827	6074.2375
2461.60254	6052.6375
2464.36507	6037.9375
2467.12586	6015.0375
2469.88492	6019.5375
2472.64224	6022.2375
2475.39782	6017.7375
2478.15167	6001.6375
2480.90379	6009.7375
2483.65417	5978.2375
2486.40283	5980.1375
2489.14976	5992.7375
2491.89497	5996.1375
2494.63845	5979.3375
2497.3802	5972.7375
2500.12024	5958.1375
2502.85855	5937.3375
2505.59514	5945.6375
2508.33002	5931.8375
2511.06318	5910.1375
2513.79462	5894.9375
2516.52435	5890.1375
2519.25237	5875.1375
2521.97867	5860.7375
2524.70327	5842.5375
2527.42616	5838.4375
2530.14734	5837.3375
2532.86681	5823.1375
2535.58458	5820.0375
2538.30065	5830.1375
2541.01501	5825.8375
2543.72768	5812.5375
2546.43864	5799.7375
2549.14791	5791.6375
2551.85548	5805.2375
2554.56136	5779.3375
2557.26554	5761.6375
2559.96803	5741.3375
2562.66883	5714.6375
2565.36794	5687.6375
2568.06536	5702.3375
2570.7611	5662.1375
2573.45514	5645.7375
2576.14751	5666.4375
2578.83819	5637.5375
2581.52719	5624.0375
2584.21451	5623.7375
2586.90015	5606.9375
2589.58411	5594.6375
2592.2664	5587.5375
2594.94701	5573.7375
2597.62594	5564.2375
2600.30321	5547.6375
2602.9788	5533.6375
2605.65273	5531.7375
2608.32498	5531.0375
2610.99557	5513.1375
2613.66449	5497.5375
2616.33175	5492.7375
2618.99734	5495.7375
2621.66128	5466.2375
2624.32355	5444.0375
2626.98416	5455.4375
2629.64311	5426.8375
2632.30041	5418.9375
2634.95605	5413.8375
2637.61004	5397.5375
2640.26238	5371.0375
2642.91306	5375.7375
2645.56209	5370.7375
2648.20948	5375.0375
2650.85521	5369.9375
2653.4993	5360.3375
2656.14175	5346.5375
2658.78255	5340.0375
2661.42171	5332.9375
2664.05923	5355.8375
2666.6951	5357.3375
2669.32934	5369.7375
2671.96194	5347.7375
2674.59291	5353.0375
2677.22224	5357.3375
2679.84993	5360.1375
2682.476	5335.3375
2685.10043	5346.4375
2687.72324	5337.1375
2690.34441	5344.6375
2692.96396	5332.0375
2695.58188	5326.2375
2698.19818	5329.5375
2700.81285	5304.1375
2703.4259	5310.5375
2706.03733	5303.1375
2708.64714	5288.0375
2711.25533	5292.8375
2713.86191	5289.8375
2716.46687	5288.0375
2719.07021	5294.8375
2721.67194	5300.8375
2724.27206	5287.8375
2726.87057	5273.0375
2729.46747	5274.8375
2732.06276	5266.1375
2734.65644	5276.1375
2737.24852	5245.4375
2739.83899	5231.4375
2742.42786	5238.7375
2745.01513	5221.5375
2747.60079	5207.9375
2750.18486	5199.9375
2752.76733	5185.3375
2755.3482	5198.9375
2757.92747	5178.7375
2760.50515	5158.7375
2763.08123	5169.4375
2765.65573	5129.4375
2768.22863	5120.0375
2770.79994	5102.9375
2773.36967	5122.0375
2775.9378	5116.2375
2778.50435	5089.0375
2781.06932	5084.0375
2783.6327	5096.8375
2786.1945	5074.6375
2788.75471	5072.6375
2791.31335	5052.3375
2793.87041	5045.1375
2796.42589	5012.3375
2798.97979	5019.8375
2801.53212	5016.1375
2804.08288	4991.8375
2806.63206	4986.9375
2809.17967	4980.1375
2811.72571	4966.5375
2814.27018	4958.2375
2816.81308	4934.2375
2819.35442	4933.6375
2821.89419	4917.5375
2824.43239	4903.4375
2826.96904	4903.8375
2829.50412	4878.9375
2832.03763	4870.3375
2834.56959	4860.1375
2837.1	4844.2375
2839.62884	4829.8375
2842.15613	4822.0375
2844.68186	4837.6375
2847.20604	4830.8375
2849.72867	4822.6375
2852.24974	4789.8375
2854.76927	4776.4375
2857.28724	4770.9375
2859.80367	4764.7375
2862.31855	4765.1375
2864.83189	4761.6375
2867.34368	4761.0375
2869.85393	4752.3375
2872.36264	4741.0375
2874.8698	4741.1375
2877.37543	4746.6375
2879.87952	4723.1375
2882.38207	4712.2375
2884.88308	4690.2375
2887.38256	4703.1375
2889.88051	4691.2375
2892.37692	4684.3375
2894.8718	4678.1375
2897.36515	4687.4375
2899.85698	4672.7375
2902.34727	4686.5375
2904.83604	4695.7375
2907.32328	4671.9375
2909.809	4685.6375
2912.29319	4672.1375
2914.77587	4690.7375
2917.25702	4682.4375
2919.73665	4685.7375
2922.21476	4681.7375
2924.69136	4652.6375
2927.16644	4652.5375
2929.64	4639.5375
2932.11205	4643.2375
2934.58258	4601.3375
2937.05161	4624.5375
2939.51912	4613.3375
2941.98513	4598.5375
2944.44962	4607.6375
2946.91261	4589.4375
2949.37409	4597.4375
2951.83407	4577.8375
2954.29254	4597.5375
2956.74951	4577.8375
2959.20498	4569.4375
2961.65895	4570.7375
2964.11142	4574.7375
2966.56239	4568.5375
2969.01186	4564.4375
2971.45984	4551.6375
2973.90632	4554.4375
2976.35131	4545.4375
2978.7948	4538.4375
2981.23681	4532.9375
2983.67732	4524.5375
2986.11635	4516.9375
2988.55388	4502.5375
2990.98993	4495.8375
2993.4245	4469.6375
2995.85758	4452.1375
2998.28917	4442.3375
3000.71928	4441.7375
3003.14791	4438.2375
3005.57506	4401.1375
3008.00073	4392.1375
3010.42493	4391.2375
3012.84764	4376.2375
3015.26888	4377.8375
3017.68865	4362.0375
3020.10694	4360.2375
3022.52376	4333.3375
3024.9391	4323.2375
3027.35298	4309.9375
3029.76539	4305.9375
3032.17632	4287.8375
3034.5858	4293.4375
3036.9938	4280.1375
3039.40034	4269.2375
3041.80542	4262.3375
3044.20903	4240.8375
3046.61118	4247.4375
3049.01187	4232.6375
3051.4111	4233.6375
3053.80888	4196.3375
3056.20519	4188.3375
3058.60005	4173.0375
3060.99345	4185.8375
3063.3854	4160.1375
3065.7759	4155.3375
3068.16494	4141.5375
3070.55254	4132.1375
3072.93868	4120.7375
3075.32338	4097.0375
3077.70662	4095.9375
3080.08842	4080.8375
3082.46878	4079.8375
3084.84769	4077.2375
3087.22515	4062.6375
3089.60118	4051.4375
3091.97576	4054.9375
3094.3489	4044.9375
3096.72061	4049.1375
3099.09087	4036.5375
3101.4597	4031.8375
3103.82709	4044.7375
3106.19305	4032.0375
3108.55757	4027.6375
3110.92066	4017.9375
3113.28232	4005.0375
3115.64255	4003.0375
3118.00134	3998.8375
3120.35871	3981.4375
3122.71466	3953.3375
3125.06917	3964.9375
3127.42226	3946.7375
3129.77393	3933.8375
3132.12417	3933.8375
3134.47299	3928.7375
3136.82039	3907.4375
3139.16636	3909.2375
3141.51092	3934.0375
3143.85406	3917.4375
3146.19579	3916.7375
3148.53609	3909.9375
3150.87499	3901.1375
3153.21246	3889.2375
3155.54853	3896.7375
3157.88318	3885.8375
3160.21642	3890.6375
3162.54826	3869.8375
3164.87868	3887.5375
3167.2077	3882.8375
3169.5353	3874.4375
3171.86151	3868.2375
3174.18631	3841.5375
3176.5097	3834.9375
3178.83169	3835.6375
3181.15228	3825.5375
3183.47147	3819.1375
3185.78926	3802.9375
3188.10565	3791.0375
3190.42065	3770.6375
3192.73424	3782.2375
3195.04645	3775.9375
3197.35725	3781.9375
3199.66667	3770.9375
3201.97469	3766.5375
3204.28132	3755.6375
3206.58656	3750.6375
3208.8904	3773.3375
3211.19287	3759.0375
3213.49394	3750.1375
3215.79363	3755.1375
3218.09193	3741.0375
3220.38884	3755.3375
3222.68438	3751.1375
3224.97853	3738.6375
3227.2713	3739.3375
3229.56269	3734.3375
3231.8527	3720.0375
3234.14133	3710.2375
3236.42858	3695.2375
3238.71446	3696.1375
3240.99896	3676.5375
3243.28209	3677.5375
3245.56384	3658.9375
3247.84423	3654.2375
3250.12324	3640.7375
3252.40088	3639.6375
3254.67715	3633.7375
3256.95205	3631.6375
3259.22558	3616.7375
3261.49775	3621.0375
3263.76855	3626.1375
3266.03799	3622.1375
3268.30606	3623.9375
3270.57277	3633.5375
3272.83812	3602.3375
3275.10211	3594.8375
3277.36474	3591.9375
3279.62601	3570.9375
3281.88593	3565.7375
3284.14448	3557.7375
3286.40168	3550.4375
3288.65753	3550.5375
3290.91202	3536.7375
3293.16516	3542.2375
3295.41695	3535.1375
3297.66738	3520.8375
3299.91647	3502.6375
3302.16421	3484.1375
3304.4106	3464.1375
3306.65564	3431.2375
3308.89933	3419.9375
3311.14169	3375.7375
3313.38269	3341.0375
3315.62236	3324.7375
3317.86068	3295.6375
3320.09766	3281.0375
3322.3333	3245.4375
3324.5676	3235.7375
3326.80056	3171.6375
3329.03219	3144.9375
3331.26248	0.6375
3333.49143	0.2375
3335.71905	0.0375
