Data from AgNPs_UA_50uM_CRN_500uM_SU_RamanShift__38__14-02-10-321.txt Node

Date: Thu Aug 04 14:02:10 BST 2022
User: TCL
Spectrometer: QEP01345
Trigger mode: 4
Integration Time (sec): 1.000000E0
Scans to average: 10
Electric dark correction enabled: true
Nonlinearity correction enabled: false
Boxcar width: 0
XAxis mode: Raman Shifts
Number of Pixels in Spectrum: 1044
>>>>>Begin Spectral Data<<<<<
46.04893	0.6875
50.45542	-1.8125
54.85868	0.2875
59.25871	0.1875
63.6555	14.9875
68.04907	14.3875
72.43941	16.3875
76.82654	15.9875
81.21044	16.5875
85.59113	19.4875
89.96862	19.0875
94.34289	19.6875
98.71396	20.7875
103.08183	20.5875
107.4465	19.4875
111.80798	20.3875
116.16626	21.1875
120.52136	23.8875
124.87327	26.0875
129.222	27.4875
133.56755	30.7875
137.90993	29.9875
142.24913	32.8875
146.58517	38.9875
150.91804	43.3875
155.24774	54.9875
159.57429	67.6875
163.89768	91.9875
168.21792	119.4875
172.53501	162.4875
176.84895	233.1875
181.15975	325.1875
185.46741	461.5875
189.77193	646.2875
194.07331	867.8875
198.37157	1121.3875
202.6667	1395.4875
206.9587	1663.3875
211.24758	1937.3875
215.53334	2211.9875
219.81599	2525.7875
224.09553	2848.3875
228.37195	3230.0875
232.64527	3621.9875
236.91549	4004.7875
241.18261	4337.8875
245.44663	4605.6875
249.70755	4834.4875
253.96539	4996.4875
258.22014	5171.1875
262.4718	5308.5875
266.72039	5382.3875
270.96589	5425.1875
275.20832	5388.6875
279.44768	5309.7875
283.68397	5219.4875
287.91719	5176.4875
292.14735	5169.8875
296.37445	5253.8875
300.59849	5457.6875
304.81948	5646.2875
309.03742	5862.2875
313.25231	5995.7875
317.46415	5940.0875
321.67296	5676.8875
325.87872	5412.8875
330.08145	5249.9875
334.28114	5262.1875
338.47781	5319.3875
342.67145	5446.8875
346.86207	5609.8875
351.04966	5858.9875
355.23424	6115.1875
359.4158	6275.0875
363.59435	6342.6875
367.76989	6355.1875
371.94243	6352.5875
376.11196	6272.7875
380.27849	6254.5875
384.44203	6247.6875
388.60257	6243.9875
392.76012	6283.4875
396.91468	6355.0875
401.06626	6445.6875
405.21485	6484.6875
409.36047	6380.2875
413.50311	6158.5875
417.64277	5967.0875
421.77947	5818.6875
425.9132	5760.1875
430.04396	5750.4875
434.17176	5786.6875
438.2966	5831.1875
442.41849	5943.1875
446.53742	6062.9875
450.6534	6163.6875
454.76644	6211.6875
458.87653	6257.3875
462.98368	6264.7875
467.08789	6225.6875
471.18916	6132.9875
475.2875	6007.1875
479.38291	5901.6875
483.4754	5842.0875
487.56496	5820.9875
491.6516	5788.7875
495.73531	5776.6875
499.81612	5801.9875
503.89401	5858.1875
507.96899	5894.3875
512.04106	5944.9875
516.11023	6007.1875
520.1765	6059.3875
524.23987	6043.3875
528.30034	6037.6875
532.35792	6021.8875
536.41261	5953.2875
540.46441	5910.2875
544.51333	5874.4875
548.55936	5923.0875
552.60252	5983.7875
556.64279	6092.2875
560.6802	6160.1875
564.71473	6255.5875
568.7464	6369.5875
572.7752	6334.0875
576.80114	6149.8875
580.82422	5997.6875
584.84444	5927.4875
588.86181	5905.2875
592.87633	5946.5875
596.888	6055.7875
600.89682	6340.7875
604.9028	7086.9875
608.90594	8686.2875
612.90624	10378.0875
616.90371	9537.1875
620.89834	7282.1875
624.89015	6353.2875
628.87913	6230.8875
632.86528	6376.8875
636.84862	6462.5875
640.82913	6355.5875
644.80683	6097.3875
648.78172	5964.1875
652.75379	5978.8875
656.72306	6171.8875
660.68952	6380.1875
664.65319	6317.7875
668.61405	6174.0875
672.57211	6183.0875
676.52738	6186.8875
680.47986	6068.8875
684.42955	5983.1875
688.37646	5944.5875
692.32058	5984.5875
696.26192	6092.4875
700.20048	6187.5875
704.13626	6199.1875
708.06928	6130.5875
711.99952	6113.9875
715.927	6091.9875
719.85171	6118.8875
723.77365	6133.9875
727.69284	6117.5875
731.60928	6042.7875
735.52295	6022.1875
739.43388	6044.2875
743.34206	6069.9875
747.24749	6072.8875
751.15017	6088.8875
755.05012	6164.1875
758.94733	6371.0875
762.8418	6989.0875
766.73354	7861.3875
770.62254	8554.3875
774.50882	8696.3875
778.39237	8356.4875
782.27321	7711.6875
786.15132	7004.9875
790.02671	6489.8875
793.89938	6234.5875
797.76935	6147.1875
801.6366	6082.8875
805.50115	6028.7875
809.36299	6035.3875
813.22213	6017.9875
817.07857	6002.1875
820.93231	6025.9875
824.78336	6023.3875
828.63172	6029.1875
832.47738	6041.1875
836.32036	6027.8875
840.16066	6009.6875
843.99827	6009.1875
847.8332	6000.3875
851.66546	5994.9875
855.49504	6009.9875
859.32195	6031.0875
863.1462	6006.2875
866.96777	6015.7875
870.78668	6028.7875
874.60293	6036.0875
878.41652	6082.9875
882.22745	6106.1875
886.03573	6126.9875
889.84136	6148.9875
893.64433	6127.7875
897.44466	6076.0875
901.24235	6095.5875
905.0374	6070.1875
908.8298	6050.6875
912.61957	6022.1875
916.40671	6042.4875
920.19121	6031.8875
923.97308	6097.5875
927.75233	6142.1875
931.52895	6176.6875
935.30295	6128.5875
939.07433	6039.2875
942.84309	5947.4875
946.60924	5938.9875
950.37278	5918.6875
954.13371	5916.9875
957.89203	5898.1875
961.64774	5888.4875
965.40086	5892.3875
969.15137	5882.4875
972.89929	5881.0875
976.64461	5873.8875
980.38733	5882.5875
984.12747	5901.4875
987.86502	5904.6875
991.59999	5940.5875
995.33237	5977.9875
999.06217	6012.1875
1002.78939	6113.1875
1006.51404	6213.6875
1010.23611	6287.4875
1013.95561	6347.5875
1017.67255	6353.4875
1021.38692	6321.0875
1025.09872	6243.3875
1028.80796	6188.6875
1032.51465	6176.1875
1036.21877	6180.0875
1039.92035	6196.9875
1043.61937	6236.2875
1047.31584	6260.3875
1051.00976	6265.5875
1054.70114	6282.5875
1058.38998	6289.3875
1062.07627	6294.0875
1065.76003	6360.0875
1069.44126	6420.0875
1073.11995	6535.9875
1076.79611	6653.2875
1080.46974	6804.1875
1084.14085	6868.1875
1087.80943	6951.0875
1091.47549	6983.4875
1095.13903	6929.9875
1098.80005	6911.8875
1102.45857	6909.1875
1106.11456	6868.3875
1109.76805	6817.9875
1113.41903	6804.4875
1117.06751	6904.5875
1120.71348	7037.4875
1124.35696	7232.9875
1127.99793	7350.3875
1131.63641	7238.7875
1135.2724	7001.3875
1138.90589	6772.5875
1142.5369	6671.9875
1146.16542	6625.6875
1149.79145	6574.1875
1153.415	6520.0875
1157.03607	6460.7875
1160.65467	6512.0875
1164.27079	6650.3875
1167.88443	6826.4875
1171.49561	7123.2875
1175.10432	7617.3875
1178.71056	8236.1875
1182.31434	8801.1875
1185.91565	8932.6875
1189.51451	8823.4875
1193.11091	8589.0875
1196.70485	8372.5875
1200.29634	8139.3875
1203.88538	7936.0875
1207.47197	7614.3875
1211.05612	7355.1875
1214.63782	7138.9875
1218.21708	6957.9875
1221.79391	6851.2875
1225.36829	6782.6875
1228.94024	6777.4875
1232.50976	6783.6875
1236.07685	6799.1875
1239.6415	6812.1875
1243.20374	6859.9875
1246.76355	6870.1875
1250.32093	6941.0875
1253.8759	7058.6875
1257.42845	7211.9875
1260.97859	7436.6875
1264.52631	7607.9875
1268.07163	7752.0875
1271.61453	7822.5875
1275.15503	7825.2875
1278.69312	7796.7875
1282.22882	7803.8875
1285.76211	7895.3875
1289.29301	8024.1875
1292.82151	8184.7875
1296.34761	8344.4875
1299.87133	8630.9875
1303.39266	9105.7875
1306.9116	9869.9875
1310.42815	10644.9875
1313.94233	10893.6875
1317.45412	10410.1875
1320.96354	9737.4875
1324.47058	9107.8875
1327.97525	8566.5875
1331.47754	8278.7875
1334.97747	8191.2875
1338.47502	8279.1875
1341.97022	8562.3875
1345.46305	9103.0875
1348.95352	9827.4875
1352.44163	10667.4875
1355.92738	11542.3875
1359.41078	12579.1875
1362.89183	13486.0875
1366.37053	12899.4875
1369.84688	11051.0875
1373.32088	9369.9875
1376.79254	8395.5875
1380.26186	7963.3875
1383.72883	7688.8875
1387.19347	7441.2875
1390.65578	7196.2875
1394.11575	6966.1875
1397.57339	6836.5875
1401.0287	6741.1875
1404.48168	6728.2875
1407.93234	6760.3875
1411.38068	6834.1875
1414.82669	6915.7875
1418.27039	6991.7875
1421.71177	6971.4875
1425.15083	6904.4875
1428.58758	6859.4875
1432.02203	6865.2875
1435.45416	6886.3875
1438.88399	6897.6875
1442.31151	6886.1875
1445.73673	6933.2875
1449.15965	6946.4875
1452.58027	6879.9875
1455.9986	6844.5875
1459.41463	6820.3875
1462.82837	6890.7875
1466.23982	7014.0875
1469.64898	7133.3875
1473.05586	7246.0875
1476.46045	7321.1875
1479.86276	7387.9875
1483.26279	7467.9875
1486.66054	7645.6875
1490.05602	7878.4875
1493.44922	8285.7875
1496.84016	8900.4875
1500.22882	9786.8875
1503.61521	10934.0875
1506.99934	12027.4875
1510.38121	12670.6875
1513.76081	12501.0875
1517.13816	11473.9875
1520.51324	10124.0875
1523.88607	9017.3875
1527.25665	8336.8875
1530.62498	7990.5875
1533.99105	7820.1875
1537.35488	7728.7875
1540.71647	7645.0875
1544.07581	7558.1875
1547.4329	7512.4875
1550.78776	7449.8875
1554.14038	7381.2875
1557.49077	7445.3875
1560.83892	7520.5875
1564.18484	7739.3875
1567.52853	7984.7875
1570.86999	8168.2875
1574.20922	8259.7875
1577.54624	8128.8875
1580.88103	7761.7875
1584.2136	7337.5875
1587.54395	7065.1875
1590.87208	7046.9875
1594.19801	7220.9875
1597.52172	7453.4875
1600.84321	7532.1875
1604.16251	7480.6875
1607.47959	7361.0875
1610.79447	7152.0875
1614.10715	6888.2875
1617.41763	6593.6875
1620.7259	6418.0875
1624.03199	6292.9875
1627.33587	6272.2875
1630.63757	6307.8875
1633.93707	6502.3875
1637.23439	6825.6875
1640.52951	7372.6875
1643.82246	8178.7875
1647.11321	9066.4875
1650.40179	9553.9875
1653.68819	9197.3875
1656.97241	8238.7875
1660.25446	7227.0875
1663.53433	6548.4875
1666.81203	6112.5875
1670.08756	5879.5875
1673.36092	5720.9875
1676.63211	5645.6875
1679.90115	5568.4875
1683.16801	5511.2875
1686.43272	5473.1875
1689.69527	5437.6875
1692.95567	5400.1875
1696.2139	5377.7875
1699.46999	5369.9875
1702.72392	5375.1875
1705.97571	5371.1875
1709.22535	5366.6875
1712.47284	5350.9875
1715.71819	5364.8875
1718.96139	5342.3875
1722.20246	5342.9875
1725.44139	5334.0875
1728.67818	5297.8875
1731.91284	5248.8875
1735.14537	5257.3875
1738.37576	5204.1875
1741.60403	5203.7875
1744.83017	5188.8875
1748.05418	5187.6875
1751.27607	5167.3875
1754.49584	5144.9875
1757.71349	5144.0875
1760.92903	5150.1875
1764.14244	5139.2875
1767.35375	5140.0875
1770.56294	5123.8875
1773.77002	5099.4875
1776.97499	5091.4875
1780.17785	5068.3875
1783.37861	5045.6875
1786.57727	5040.2875
1789.77382	5018.0875
1792.96828	5013.0875
1796.16064	5018.0875
1799.3509	5019.1875
1802.53907	5001.4875
1805.72514	4989.5875
1808.90913	4981.9875
1812.09102	4943.8875
1815.27083	4956.2875
1818.44856	4937.6875
1821.6242	4937.3875
1824.79776	4923.0875
1827.96924	4917.0875
1831.13864	4886.0875
1834.30597	4890.5875
1837.47122	4874.1875
1840.6344	4874.0875
1843.7955	4860.4875
1846.95454	4866.1875
1850.11151	4874.8875
1853.26642	4858.9875
1856.41926	4845.1875
1859.57004	4863.9875
1862.71876	4847.8875
1865.86542	4845.5875
1869.01003	4822.7875
1872.15258	4824.0875
1875.29308	4823.2875
1878.43152	4810.5875
1881.56792	4818.5875
1884.70227	4815.3875
1887.83457	4789.1875
1890.96482	4796.3875
1894.09304	4778.9875
1897.21921	4777.4875
1900.34335	4755.4875
1903.46544	4742.6875
1906.58551	4736.8875
1909.70353	4742.6875
1912.81953	4712.1875
1915.93349	4718.2875
1919.04543	4720.6875
1922.15534	4693.3875
1925.26322	4702.2875
1928.36908	4692.9875
1931.47292	4672.6875
1934.57473	4672.1875
1937.67453	4651.8875
1940.77232	4610.4875
1943.86808	4617.6875
1946.96184	4593.1875
1950.05358	4595.2875
1953.14331	4573.7875
1956.23103	4554.8875
1959.31675	4539.3875
1962.40046	4539.0875
1965.48217	4534.5875
1968.56188	4506.2875
1971.63959	4512.2875
1974.7153	4503.6875
1977.78901	4479.7875
1980.86073	4475.8875
1983.93046	4461.0875
1986.99819	4423.1875
1990.06394	4425.3875
1993.1277	4407.2875
1996.18947	4388.8875
1999.24925	4379.5875
2002.30706	4347.0875
2005.36288	4343.8875
2008.41672	4315.2875
2011.46859	4304.8875
2014.51848	4299.8875
2017.56639	4293.8875
2020.61233	4283.4875
2023.6563	4249.0875
2026.6983	4243.5875
2029.73833	4220.2875
2032.7764	4210.9875
2035.8125	4200.9875
2038.84664	4191.0875
2041.87881	4193.2875
2044.90903	4171.3875
2047.93729	4171.3875
2050.96359	4169.5875
2053.98794	4144.9875
2057.01034	4148.3875
2060.03078	4151.0875
2063.04927	4153.6875
2066.06582	4151.9875
2069.08042	4150.8875
2072.09307	4124.1875
2075.10378	4120.3875
2078.11255	4120.8875
2081.11938	4118.9875
2084.12426	4105.1875
2087.12722	4114.8875
2090.12824	4111.0875
2093.12732	4115.0875
2096.12447	4116.3875
2099.11969	4110.7875
2102.11299	4105.7875
2105.10435	4103.3875
2108.09379	4114.2875
2111.08131	4102.2875
2114.0669	4111.4875
2117.05057	4111.3875
2120.03233	4116.4875
2123.01216	4125.4875
2125.99008	4119.2875
2128.96609	4126.7875
2131.94018	4117.8875
2134.91236	4108.7875
2137.88263	4122.7875
2140.851	4111.6875
2143.81746	4112.7875
2146.78201	4122.1875
2149.74466	4108.1875
2152.7054	4115.2875
2155.66425	4102.1875
2158.6212	4115.7875
2161.57625	4102.1875
2164.52941	4103.5875
2167.48067	4112.2875
2170.43004	4087.2875
2173.37752	4109.1875
2176.32311	4086.0875
2179.26681	4085.5875
2182.20863	4106.0875
2185.14856	4099.5875
2188.08661	4099.2875
2191.02278	4085.2875
2193.95707	4079.0875
2196.88948	4071.3875
2199.82001	4069.9875
2202.74867	4067.7875
2205.67545	4052.9875
2208.60037	4040.3875
2211.52341	4046.1875
2214.44458	4028.0875
2217.36388	4031.8875
2220.28132	4035.8875
2223.1969	3995.2875
2226.11061	3982.7875
2229.02246	3970.7875
2231.93245	3970.2875
2234.84058	3982.9875
2237.74686	3970.8875
2240.65128	3969.9875
2243.55385	3940.5875
2246.45456	3936.1875
2249.35343	3938.3875
2252.25044	3937.4875
2255.14561	3937.5875
2258.03893	3929.2875
2260.93041	3923.1875
2263.82004	3922.1875
2266.70783	3911.5875
2269.59378	3894.1875
2272.4779	3895.4875
2275.36017	3876.5875
2278.24061	3866.8875
2281.11922	3857.0875
2283.996	3850.6875
2286.87094	3839.8875
2289.74405	3815.1875
2292.61534	3827.2875
2295.4848	3823.0875
2298.35243	3823.7875
2301.21824	3818.3875
2304.08223	3810.1875
2306.94439	3789.4875
2309.80474	3819.7875
2312.66327	3801.5875
2315.51999	3801.8875
2318.37489	3793.4875
2321.22797	3782.8875
2324.07925	3770.9875
2326.92871	3747.9875
2329.77637	3748.4875
2332.62222	3747.7875
2335.46626	3737.9875
2338.3085	3734.0875
2341.14893	3739.8875
2343.98756	3728.9875
2346.8244	3721.6875
2349.65943	3711.6875
2352.49267	3712.0875
2355.32411	3707.3875
2358.15376	3709.1875
2360.98161	3709.6875
2363.80768	3719.0875
2366.63195	3697.4875
2369.45444	3701.3875
2372.27514	3707.2875
2375.09405	3706.2875
2377.91118	3687.9875
2380.72652	3688.2875
2383.54009	3669.0875
2386.35187	3666.2875
2389.16188	3655.5875
2391.97011	3653.5875
2394.77657	3632.3875
2397.58125	3618.3875
2400.38416	3610.6875
2403.18529	3600.4875
2405.98466	3598.4875
2408.78226	3600.1875
2411.57809	3590.0875
2414.37216	3583.3875
2417.16446	3586.4875
2419.955	3572.2875
2422.74378	3578.1875
2425.5308	3566.3875
2428.31606	3577.1875
2431.09956	3569.9875
2433.88131	3541.4875
2436.6613	3551.3875
2439.43954	3550.1875
2442.21603	3563.1875
2444.99077	3544.3875
2447.76377	3553.8875
2450.53501	3531.7875
2453.30451	3543.9875
2456.07226	3543.0875
2458.83827	3525.1875
2461.60254	3538.6875
2464.36507	3521.9875
2467.12586	3520.9875
2469.88492	3510.9875
2472.64224	3516.2875
2475.39782	3503.7875
2478.15167	3506.8875
2480.90379	3496.3875
2483.65417	3505.0875
2486.40283	3505.8875
2489.14976	3512.6875
2491.89497	3496.3875
2494.63845	3503.9875
2497.3802	3492.5875
2500.12024	3488.2875
2502.85855	3480.0875
2505.59514	3465.2875
2508.33002	3452.7875
2511.06318	3454.0875
2513.79462	3444.2875
2516.52435	3435.7875
2519.25237	3425.0875
2521.97867	3413.5875
2524.70327	3415.0875
2527.42616	3411.5875
2530.14734	3408.3875
2532.86681	3408.1875
2535.58458	3408.3875
2538.30065	3408.6875
2541.01501	3390.4875
2543.72768	3377.7875
2546.43864	3381.6875
2549.14791	3369.4875
2551.85548	3364.7875
2554.56136	3356.2875
2557.26554	3361.2875
2559.96803	3356.5875
2562.66883	3348.7875
2565.36794	3343.6875
2568.06536	3327.4875
2570.7611	3317.6875
2573.45514	3311.5875
2576.14751	3307.3875
2578.83819	3293.3875
2581.52719	3289.9875
2584.21451	3275.4875
2586.90015	3284.7875
2589.58411	3280.1875
2592.2664	3272.6875
2594.94701	3249.3875
2597.62594	3264.1875
2600.30321	3251.8875
2602.9788	3248.5875
2605.65273	3235.2875
2608.32498	3227.8875
2610.99557	3233.6875
2613.66449	3212.7875
2616.33175	3230.4875
2618.99734	3215.8875
2621.66128	3213.5875
2624.32355	3205.2875
2626.98416	3194.5875
2629.64311	3177.4875
2632.30041	3168.1875
2634.95605	3173.0875
2637.61004	3166.5875
2640.26238	3151.4875
2642.91306	3150.5875
2645.56209	3152.3875
2648.20948	3153.7875
2650.85521	3145.7875
2653.4993	3149.2875
2656.14175	3142.9875
2658.78255	3137.5875
2661.42171	3132.7875
2664.05923	3137.1875
2666.6951	3136.2875
2669.32934	3145.8875
2671.96194	3137.6875
2674.59291	3130.2875
2677.22224	3128.8875
2679.84993	3137.9875
2682.476	3119.9875
2685.10043	3119.4875
2687.72324	3137.1875
2690.34441	3121.6875
2692.96396	3114.5875
2695.58188	3118.7875
2698.19818	3123.0875
2700.81285	3111.3875
2703.4259	3111.8875
2706.03733	3134.1875
2708.64714	3109.5875
2711.25533	3115.0875
2713.86191	3106.3875
2716.46687	3107.7875
2719.07021	3108.4875
2721.67194	3107.7875
2724.27206	3099.3875
2726.87057	3100.6875
2729.46747	3107.6875
2732.06276	3101.3875
2734.65644	3113.6875
2737.24852	3085.3875
2739.83899	3082.4875
2742.42786	3079.3875
2745.01513	3085.1875
2747.60079	3073.5875
2750.18486	3060.0875
2752.76733	3069.7875
2755.3482	3057.0875
2757.92747	3045.0875
2760.50515	3040.4875
2763.08123	3047.5875
2765.65573	3031.8875
2768.22863	3025.3875
2770.79994	3023.4875
2773.36967	3014.0875
2775.9378	3017.0875
2778.50435	3009.6875
2781.06932	3008.0875
2783.6327	3002.7875
2786.1945	2991.6875
2788.75471	2999.3875
2791.31335	2978.7875
2793.87041	2971.9875
2796.42589	2971.3875
2798.97979	2976.9875
2801.53212	2952.9875
2804.08288	2962.0875
2806.63206	2958.1875
2809.17967	2935.7875
2811.72571	2937.0875
2814.27018	2924.5875
2816.81308	2920.5875
2819.35442	2921.9875
2821.89419	2896.2875
2824.43239	2896.7875
2826.96904	2892.0875
2829.50412	2898.0875
2832.03763	2879.5875
2834.56959	2887.3875
2837.1	2868.8875
2839.62884	2873.4875
2842.15613	2868.0875
2844.68186	2857.5875
2847.20604	2856.7875
2849.72867	2851.0875
2852.24974	2854.3875
2854.76927	2842.9875
2857.28724	2845.7875
2859.80367	2841.7875
2862.31855	2831.4875
2864.83189	2835.1875
2867.34368	2822.2875
2869.85393	2824.3875
2872.36264	2818.1875
2874.8698	2826.3875
2877.37543	2837.2875
2879.87952	2806.9875
2882.38207	2809.5875
2884.88308	2795.5875
2887.38256	2806.2875
2889.88051	2785.4875
2892.37692	2799.3875
2894.8718	2780.3875
2897.36515	2783.0875
2899.85698	2774.0875
2902.34727	2780.6875
2904.83604	2777.5875
2907.32328	2799.2875
2909.809	2786.4875
2912.29319	2795.1875
2914.77587	2793.5875
2917.25702	2796.3875
2919.73665	2787.9875
2922.21476	2793.5875
2924.69136	2780.7875
2927.16644	2785.9875
2929.64	2776.1875
2932.11205	2775.8875
2934.58258	2757.7875
2937.05161	2768.2875
2939.51912	2757.1875
2941.98513	2750.9875
2944.44962	2756.5875
2946.91261	2739.6875
2949.37409	2746.3875
2951.83407	2746.7875
2954.29254	2746.8875
2956.74951	2744.5875
2959.20498	2727.4875
2961.65895	2731.4875
2964.11142	2726.2875
2966.56239	2720.1875
2969.01186	2711.5875
2971.45984	2709.6875
2973.90632	2716.8875
2976.35131	2717.9875
2978.7948	2717.3875
2981.23681	2706.7875
2983.67732	2696.9875
2986.11635	2687.0875
2988.55388	2686.5875
2990.98993	2683.9875
2993.4245	2677.5875
2995.85758	2666.7875
2998.28917	2669.7875
3000.71928	2663.9875
3003.14791	2646.9875
3005.57506	2652.8875
3008.00073	2637.9875
3010.42493	2628.9875
3012.84764	2628.6875
3015.26888	2632.2875
3017.68865	2615.5875
3020.10694	2608.2875
3022.52376	2608.7875
3024.9391	2582.1875
3027.35298	2584.0875
3029.76539	2584.2875
3032.17632	2576.5875
3034.5858	2576.6875
3036.9938	2563.2875
3039.40034	2563.2875
3041.80542	2549.5875
3044.20903	2553.0875
3046.61118	2543.8875
3049.01187	2540.0875
3051.4111	2536.1875
3053.80888	2531.9875
3056.20519	2525.2875
3058.60005	2512.1875
3060.99345	2515.8875
3063.3854	2511.9875
3065.7759	2508.2875
3068.16494	2493.1875
3070.55254	2478.5875
3072.93868	2485.8875
3075.32338	2474.4875
3077.70662	2469.8875
3080.08842	2464.4875
3082.46878	2465.8875
3084.84769	2453.4875
3087.22515	2445.2875
3089.60118	2441.3875
3091.97576	2441.0875
3094.3489	2450.6875
3096.72061	2447.6875
3099.09087	2441.2875
3101.4597	2439.9875
3103.82709	2438.3875
3106.19305	2418.8875
3108.55757	2429.5875
3110.92066	2416.2875
3113.28232	2419.1875
3115.64255	2410.6875
3118.00134	2413.5875
3120.35871	2410.1875
3122.71466	2391.9875
3125.06917	2385.8875
3127.42226	2376.8875
3129.77393	2382.0875
3132.12417	2380.3875
3134.47299	2378.3875
3136.82039	2366.1875
3139.16636	2374.5875
3141.51092	2360.9875
3143.85406	2360.4875
3146.19579	2353.9875
3148.53609	2355.8875
3150.87499	2355.1875
3153.21246	2364.9875
3155.54853	2363.8875
3157.88318	2359.9875
3160.21642	2372.0875
3162.54826	2356.0875
3164.87868	2365.1875
3167.2077	2342.1875
3169.5353	2349.0875
3171.86151	2342.4875
3174.18631	2349.1875
3176.5097	2352.8875
3178.83169	2347.7875
3181.15228	2334.8875
3183.47147	2334.2875
3185.78926	2321.2875
3188.10565	2312.1875
3190.42065	2306.4875
3192.73424	2309.8875
3195.04645	2308.7875
3197.35725	2295.1875
3199.66667	2293.7875
3201.97469	2299.7875
3204.28132	2294.6875
3206.58656	2294.7875
3208.8904	2296.0875
3211.19287	2296.9875
3213.49394	2309.4875
3215.79363	2296.4875
3218.09193	2299.9875
3220.38884	2301.5875
3222.68438	2298.8875
3224.97853	2295.1875
3227.2713	2280.3875
3229.56269	2278.2875
3231.8527	2270.4875
3234.14133	2265.5875
3236.42858	2260.5875
3238.71446	2255.3875
3240.99896	2253.5875
3243.28209	2246.4875
3245.56384	2240.8875
3247.84423	2249.7875
3250.12324	2238.9875
3252.40088	2241.5875
3254.67715	2241.3875
3256.95205	2233.3875
3259.22558	2221.4875
3261.49775	2217.7875
3263.76855	2232.2875
3266.03799	2215.9875
3268.30606	2221.6875
3270.57277	2224.0875
3272.83812	2214.5875
3275.10211	2192.1875
3277.36474	2207.5875
3279.62601	2186.9875
3281.88593	2190.6875
3284.14448	2183.3875
3286.40168	2192.4875
3288.65753	2195.7875
3290.91202	2179.7875
3293.16516	2166.9875
3295.41695	2171.8875
3297.66738	2158.9875
3299.91647	2154.9875
3302.16421	2130.6875
3304.4106	2121.5875
3306.65564	2103.8875
3308.89933	2093.2875
3311.14169	2081.8875
3313.38269	2060.0875
3315.62236	2045.2875
3317.86068	2031.7875
3320.09766	2008.6875
3322.3333	1994.5875
3324.5676	1987.6875
3326.80056	1948.9875
3329.03219	1937.8875
3331.26248	0.1875
3333.49143	0.6875
3335.71905	-0.0125
