Data from AgNPs_UA_10uM_CRN_500uM_SU_RamanShift__45__13-12-50-262.txt Node

Date: Thu Aug 04 13:12:50 BST 2022
User: TCL
Spectrometer: QEP01345
Trigger mode: 4
Integration Time (sec): 1.000000E0
Scans to average: 10
Electric dark correction enabled: true
Nonlinearity correction enabled: false
Boxcar width: 0
XAxis mode: Raman Shifts
Number of Pixels in Spectrum: 1044
>>>>>Begin Spectral Data<<<<<
46.04893	-0.3375
50.45542	-0.6375
54.85868	0.3625
59.25871	-1.3375
63.6555	20.7625
68.04907	21.6625
72.43941	21.7625
76.82654	23.4625
81.21044	23.0625
85.59113	25.7625
89.96862	27.1625
94.34289	25.9625
98.71396	27.3625
103.08183	29.1625
107.4465	28.5625
111.80798	29.3625
116.16626	30.6625
120.52136	31.3625
124.87327	35.8625
129.222	36.8625
133.56755	36.2625
137.90993	40.7625
142.24913	47.1625
146.58517	52.8625
150.91804	61.3625
155.24774	76.5625
159.57429	93.8625
163.89768	122.0625
168.21792	162.5625
172.53501	222.1625
176.84895	314.4625
181.15975	448.3625
185.46741	629.2625
189.77193	871.8625
194.07331	1170.1625
198.37157	1520.2625
202.6667	1874.0625
206.9587	2229.0625
211.24758	2587.5625
215.53334	2942.8625
219.81599	3330.8625
224.09553	3734.6625
228.37195	4220.4625
232.64527	4709.9625
236.91549	5221.9625
241.18261	5705.8625
245.44663	6153.8625
249.70755	6495.5625
253.96539	6815.8625
258.22014	7089.7625
262.4718	7322.5625
266.72039	7459.4625
270.96589	7505.4625
275.20832	7510.5625
279.44768	7422.5625
283.68397	7306.2625
287.91719	7207.9625
292.14735	7187.2625
296.37445	7263.7625
300.59849	7382.7625
304.81948	7535.7625
309.03742	7632.6625
313.25231	7708.3625
317.46415	7659.8625
321.67296	7475.8625
325.87872	7316.6625
330.08145	7220.1625
334.28114	7252.6625
338.47781	7305.2625
342.67145	7419.5625
346.86207	7600.3625
351.04966	7829.2625
355.23424	8058.9625
359.4158	8228.5625
363.59435	8384.5625
367.76989	8450.5625
371.94243	8511.4625
376.11196	8531.3625
380.27849	8559.2625
384.44203	8623.1625
388.60257	8667.4625
392.76012	8748.8625
396.91468	8858.5625
401.06626	8982.4625
405.21485	9028.5625
409.36047	9004.8625
413.50311	8821.4625
417.64277	8638.0625
421.77947	8517.8625
425.9132	8486.5625
430.04396	8461.7625
434.17176	8507.7625
438.2966	8589.3625
442.41849	8712.2625
446.53742	8859.0625
450.6534	9044.8625
454.76644	9163.6625
458.87653	9267.2625
462.98368	9280.5625
467.08789	9247.4625
471.18916	9156.7625
475.2875	9044.0625
479.38291	8911.2625
483.4754	8846.4625
487.56496	8754.1625
491.6516	8736.9625
495.73531	8717.4625
499.81612	8751.2625
503.89401	8841.8625
507.96899	8873.1625
512.04106	8900.5625
516.11023	8935.8625
520.1765	8960.0625
524.23987	8970.9625
528.30034	8972.8625
532.35792	9003.7625
536.41261	8943.0625
540.46441	8881.9625
544.51333	8845.9625
548.55936	8927.1625
552.60252	9014.0625
556.64279	9136.8625
560.6802	9254.8625
564.71473	9301.4625
568.7464	9297.3625
572.7752	9252.0625
576.80114	9094.3625
580.82422	8975.1625
584.84444	8961.4625
588.86181	8980.2625
592.87633	9047.1625
596.888	9183.6625
600.89682	9519.1625
604.9028	10326.4625
608.90594	11855.3625
612.90624	13259.9625
616.90371	12458.6625
620.89834	10401.9625
624.89015	9590.7625
628.87913	9535.4625
632.86528	9685.4625
636.84862	9728.0625
640.82913	9606.7625
644.80683	9351.6625
648.78172	9215.0625
652.75379	9227.3625
656.72306	9396.2625
660.68952	9613.8625
664.65319	9615.5625
668.61405	9551.7625
672.57211	9655.6625
676.52738	9686.4625
680.47986	9471.4625
684.42955	9306.3625
688.37646	9275.6625
692.32058	9331.7625
696.26192	9493.0625
700.20048	9670.9625
704.13626	9696.8625
708.06928	9613.9625
711.99952	9497.4625
715.927	9498.9625
719.85171	9550.8625
723.77365	9558.4625
727.69284	9498.2625
731.60928	9429.7625
735.52295	9445.9625
739.43388	9496.0625
743.34206	9526.9625
747.24749	9518.0625
751.15017	9507.6625
755.05012	9582.9625
758.94733	9787.8625
762.8418	10327.5625
766.73354	11086.6625
770.62254	11743.9625
774.50882	11960.5625
778.39237	11766.8625
782.27321	11295.8625
786.15132	10660.0625
790.02671	10107.1625
793.89938	9820.6625
797.76935	9691.9625
801.6366	9580.2625
805.50115	9551.8625
809.36299	9550.5625
813.22213	9533.1625
817.07857	9539.1625
820.93231	9543.2625
824.78336	9529.3625
828.63172	9543.8625
832.47738	9562.7625
836.32036	9549.3625
840.16066	9553.5625
843.99827	9569.1625
847.8332	9567.9625
851.66546	9572.2625
855.49504	9601.4625
859.32195	9640.3625
863.1462	9601.2625
866.96777	9619.6625
870.78668	9612.1625
874.60293	9652.8625
878.41652	9692.9625
882.22745	9771.7625
886.03573	9780.7625
889.84136	9799.8625
893.64433	9786.9625
897.44466	9729.2625
901.24235	9694.5625
905.0374	9703.6625
908.8298	9710.6625
912.61957	9684.9625
916.40671	9686.3625
920.19121	9689.6625
923.97308	9722.5625
927.75233	9760.1625
931.52895	9819.8625
935.30295	9782.2625
939.07433	9693.5625
942.84309	9648.3625
946.60924	9632.8625
950.37278	9630.1625
954.13371	9606.2625
957.89203	9615.6625
961.64774	9613.2625
965.40086	9563.8625
969.15137	9556.9625
972.89929	9575.9625
976.64461	9548.3625
980.38733	9591.3625
984.12747	9606.2625
987.86502	9643.5625
991.59999	9686.0625
995.33237	9738.9625
999.06217	9848.3625
1002.78939	9970.7625
1006.51404	10108.3625
1010.23611	10243.7625
1013.95561	10366.2625
1017.67255	10392.7625
1021.38692	10389.2625
1025.09872	10321.6625
1028.80796	10232.7625
1032.51465	10234.2625
1036.21877	10259.4625
1039.92035	10285.9625
1043.61937	10291.1625
1047.31584	10303.2625
1051.00976	10302.4625
1054.70114	10317.0625
1058.38998	10339.4625
1062.07627	10365.9625
1065.76003	10448.3625
1069.44126	10538.6625
1073.11995	10737.4625
1076.79611	10962.3625
1080.46974	11055.6625
1084.14085	11103.5625
1087.80943	11170.7625
1091.47549	11223.6625
1095.13903	11311.5625
1098.80005	11368.7625
1102.45857	11450.0625
1106.11456	11383.3625
1109.76805	11198.1625
1113.41903	11109.5625
1117.06751	11144.9625
1120.71348	11258.1625
1124.35696	11342.4625
1127.99793	11389.4625
1131.63641	11286.7625
1135.2724	11085.1625
1138.90589	10914.2625
1142.5369	10828.7625
1146.16542	10773.3625
1149.79145	10743.9625
1153.415	10586.6625
1157.03607	10538.8625
1160.65467	10541.2625
1164.27079	10712.1625
1167.88443	10952.8625
1171.49561	11288.8625
1175.10432	11795.1625
1178.71056	12435.5625
1182.31434	13057.1625
1185.91565	13388.4625
1189.51451	13451.7625
1193.11091	13438.6625
1196.70485	13286.1625
1200.29634	13070.3625
1203.88538	12773.2625
1207.47197	12427.9625
1211.05612	12115.8625
1214.63782	11861.8625
1218.21708	11596.3625
1221.79391	11395.0625
1225.36829	11264.2625
1228.94024	11204.5625
1232.50976	11200.4625
1236.07685	11198.1625
1239.6415	11258.2625
1243.20374	11290.5625
1246.76355	11356.3625
1250.32093	11455.3625
1253.8759	11643.7625
1257.42845	11896.7625
1260.97859	12169.9625
1264.52631	12413.8625
1268.07163	12573.0625
1271.61453	12652.4625
1275.15503	12688.5625
1278.69312	12701.8625
1282.22882	12692.8625
1285.76211	12707.8625
1289.29301	12812.5625
1292.82151	12956.1625
1296.34761	13133.1625
1299.87133	13395.0625
1303.39266	13933.0625
1306.9116	14668.3625
1310.42815	15393.7625
1313.94233	15694.0625
1317.45412	15440.9625
1320.96354	14965.1625
1324.47058	14420.3625
1327.97525	13910.9625
1331.47754	13555.0625
1334.97747	13472.7625
1338.47502	13674.0625
1341.97022	14093.5625
1345.46305	14773.6625
1348.95352	15648.3625
1352.44163	16478.9625
1355.92738	17199.7625
1359.41078	17832.5625
1362.89183	18184.7625
1366.37053	17337.9625
1369.84688	15598.9625
1373.32088	13978.0625
1376.79254	13026.2625
1380.26186	12545.2625
1383.72883	12294.4625
1387.19347	12008.1625
1390.65578	11745.9625
1394.11575	11486.0625
1397.57339	11300.6625
1401.0287	11177.8625
1404.48168	11213.1625
1407.93234	11308.0625
1411.38068	11499.9625
1414.82669	11618.8625
1418.27039	11659.1625
1421.71177	11608.4625
1425.15083	11575.7625
1428.58758	11485.8625
1432.02203	11502.1625
1435.45416	11539.7625
1438.88399	11503.1625
1442.31151	11487.1625
1445.73673	11502.0625
1449.15965	11505.3625
1452.58027	11499.4625
1455.9986	11457.1625
1459.41463	11458.6625
1462.82837	11516.7625
1466.23982	11686.2625
1469.64898	11816.4625
1473.05586	11965.2625
1476.46045	12056.8625
1479.86276	12155.0625
1483.26279	12271.7625
1486.66054	12467.5625
1490.05602	12721.6625
1493.44922	13185.7625
1496.84016	13825.1625
1500.22882	14723.1625
1503.61521	15696.2625
1506.99934	16543.8625
1510.38121	16909.0625
1513.76081	16566.0625
1517.13816	15663.7625
1520.51324	14489.6625
1523.88607	13593.8625
1527.25665	13006.0625
1530.62498	12735.2625
1533.99105	12547.3625
1537.35488	12469.2625
1540.71647	12420.2625
1544.07581	12395.3625
1547.4329	12316.2625
1550.78776	12195.1625
1554.14038	12074.0625
1557.49077	12002.2625
1560.83892	12069.6625
1564.18484	12230.9625
1567.52853	12397.3625
1570.86999	12498.0625
1574.20922	12535.7625
1577.54624	12434.3625
1580.88103	12097.8625
1584.2136	11733.1625
1587.54395	11556.7625
1590.87208	11619.8625
1594.19801	11895.5625
1597.52172	12319.7625
1600.84321	12524.8625
1604.16251	12541.4625
1607.47959	12381.7625
1610.79447	12079.7625
1614.10715	11602.2625
1617.41763	11136.9625
1620.7259	10774.4625
1624.03199	10579.8625
1627.33587	10504.9625
1630.63757	10564.6625
1633.93707	10819.6625
1637.23439	11323.3625
1640.52951	12030.5625
1643.82246	12914.9625
1647.11321	13797.7625
1650.40179	14013.1625
1653.68819	13417.1625
1656.97241	12260.7625
1660.25446	11169.1625
1663.53433	10442.5625
1666.81203	10005.7625
1670.08756	9735.3625
1673.36092	9615.1625
1676.63211	9504.8625
1679.90115	9400.5625
1683.16801	9335.6625
1686.43272	9254.2625
1689.69527	9208.9625
1692.95567	9193.4625
1696.2139	9128.0625
1699.46999	9116.3625
1702.72392	9110.7625
1705.97571	9086.7625
1709.22535	9079.6625
1712.47284	9074.3625
1715.71819	9105.9625
1718.96139	9102.0625
1722.20246	9060.6625
1725.44139	9067.8625
1728.67818	9027.4625
1731.91284	8968.0625
1735.14537	8943.9625
1738.37576	8916.5625
1741.60403	8881.1625
1744.83017	8868.2625
1748.05418	8860.8625
1751.27607	8831.8625
1754.49584	8811.1625
1757.71349	8805.0625
1760.92903	8806.4625
1764.14244	8756.1625
1767.35375	8762.3625
1770.56294	8726.9625
1773.77002	8734.0625
1776.97499	8721.4625
1780.17785	8681.3625
1783.37861	8675.5625
1786.57727	8669.6625
1789.77382	8678.3625
1792.96828	8641.7625
1796.16064	8643.2625
1799.3509	8631.4625
1802.53907	8610.7625
1805.72514	8592.4625
1808.90913	8570.4625
1812.09102	8557.3625
1815.27083	8535.9625
1818.44856	8483.5625
1821.6242	8477.7625
1824.79776	8454.8625
1827.96924	8464.2625
1831.13864	8445.0625
1834.30597	8455.1625
1837.47122	8409.5625
1840.6344	8390.2625
1843.7955	8412.3625
1846.95454	8402.5625
1850.11151	8396.0625
1853.26642	8402.4625
1856.41926	8399.0625
1859.57004	8403.3625
1862.71876	8375.1625
1865.86542	8388.2625
1869.01003	8371.6625
1872.15258	8346.6625
1875.29308	8329.7625
1878.43152	8316.9625
1881.56792	8322.7625
1884.70227	8304.1625
1887.83457	8261.8625
1890.96482	8267.7625
1894.09304	8230.4625
1897.21921	8242.6625
1900.34335	8227.4625
1903.46544	8223.0625
1906.58551	8215.1625
1909.70353	8201.3625
1912.81953	8167.9625
1915.93349	8166.5625
1919.04543	8161.0625
1922.15534	8130.3625
1925.26322	8123.2625
1928.36908	8116.0625
1931.47292	8089.0625
1934.57473	8087.9625
1937.67453	8046.8625
1940.77232	8057.6625
1943.86808	7998.1625
1946.96184	7988.7625
1950.05358	7969.3625
1953.14331	7965.8625
1956.23103	7934.9625
1959.31675	7883.1625
1962.40046	7879.8625
1965.48217	7857.3625
1968.56188	7812.7625
1971.63959	7801.1625
1974.7153	7777.1625
1977.78901	7783.6625
1980.86073	7758.9625
1983.93046	7710.3625
1986.99819	7686.5625
1990.06394	7667.9625
1993.1277	7657.3625
1996.18947	7608.6625
1999.24925	7585.1625
2002.30706	7553.2625
2005.36288	7523.6625
2008.41672	7530.0625
2011.46859	7498.9625
2014.51848	7469.5625
2017.56639	7425.0625
2020.61233	7410.8625
2023.6563	7396.8625
2026.6983	7377.4625
2029.73833	7359.2625
2032.7764	7307.1625
2035.8125	7329.0625
2038.84664	7314.5625
2041.87881	7288.6625
2044.90903	7254.4625
2047.93729	7266.6625
2050.96359	7234.5625
2053.98794	7252.7625
2057.01034	7234.6625
2060.03078	7215.8625
2063.04927	7197.9625
2066.06582	7191.0625
2069.08042	7180.5625
2072.09307	7169.1625
2075.10378	7179.0625
2078.11255	7156.9625
2081.11938	7148.0625
2084.12426	7140.4625
2087.12722	7141.4625
2090.12824	7131.1625
2093.12732	7143.9625
2096.12447	7139.5625
2099.11969	7151.3625
2102.11299	7162.6625
2105.10435	7158.1625
2108.09379	7139.7625
2111.08131	7146.9625
2114.0669	7133.6625
2117.05057	7156.3625
2120.03233	7177.8625
2123.01216	7167.2625
2125.99008	7149.7625
2128.96609	7167.0625
2131.94018	7184.9625
2134.91236	7178.7625
2137.88263	7169.8625
2140.851	7156.8625
2143.81746	7167.0625
2146.78201	7166.3625
2149.74466	7144.5625
2152.7054	7164.9625
2155.66425	7154.4625
2158.6212	7155.0625
2161.57625	7144.1625
2164.52941	7130.1625
2167.48067	7133.1625
2170.43004	7103.8625
2173.37752	7116.2625
2176.32311	7116.0625
2179.26681	7118.4625
2182.20863	7138.7625
2185.14856	7127.2625
2188.08661	7134.3625
2191.02278	7102.2625
2193.95707	7103.3625
2196.88948	7097.2625
2199.82001	7086.7625
2202.74867	7085.3625
2205.67545	7113.7625
2208.60037	7083.7625
2211.52341	7045.7625
2214.44458	7026.1625
2217.36388	7013.3625
2220.28132	6987.9625
2223.1969	6957.4625
2226.11061	6963.4625
2229.02246	6957.3625
2231.93245	6939.6625
2234.84058	6929.0625
2237.74686	6932.0625
2240.65128	6892.4625
2243.55385	6899.5625
2246.45456	6873.8625
2249.35343	6854.7625
2252.25044	6852.6625
2255.14561	6847.1625
2258.03893	6843.8625
2260.93041	6838.3625
2263.82004	6818.5625
2266.70783	6801.4625
2269.59378	6772.8625
2272.4779	6745.2625
2275.36017	6735.2625
2278.24061	6757.6625
2281.11922	6705.7625
2283.996	6689.6625
2286.87094	6687.4625
2289.74405	6672.4625
2292.61534	6667.3625
2295.4848	6645.2625
2298.35243	6648.2625
2301.21824	6637.6625
2304.08223	6619.7625
2306.94439	6624.3625
2309.80474	6619.7625
2312.66327	6605.9625
2315.51999	6607.2625
2318.37489	6589.6625
2321.22797	6574.7625
2324.07925	6566.3625
2326.92871	6566.8625
2329.77637	6550.3625
2332.62222	6535.0625
2335.46626	6520.0625
2338.3085	6506.6625
2341.14893	6495.1625
2343.98756	6496.4625
2346.8244	6501.3625
2349.65943	6499.9625
2352.49267	6490.7625
2355.32411	6448.9625
2358.15376	6455.8625
2360.98161	6463.0625
2363.80768	6446.9625
2366.63195	6442.3625
2369.45444	6429.4625
2372.27514	6432.3625
2375.09405	6423.1625
2377.91118	6408.4625
2380.72652	6387.1625
2383.54009	6386.8625
2386.35187	6352.5625
2389.16188	6349.7625
2391.97011	6322.9625
2394.77657	6311.7625
2397.58125	6287.7625
2400.38416	6278.2625
2403.18529	6265.8625
2405.98466	6270.5625
2408.78226	6236.8625
2411.57809	6269.2625
2414.37216	6235.5625
2417.16446	6222.7625
2419.955	6231.3625
2422.74378	6207.1625
2425.5308	6212.3625
2428.31606	6200.4625
2431.09956	6198.4625
2433.88131	6193.6625
2436.6613	6186.8625
2439.43954	6165.7625
2442.21603	6166.8625
2444.99077	6164.9625
2447.76377	6168.9625
2450.53501	6145.9625
2453.30451	6138.0625
2456.07226	6147.3625
2458.83827	6119.7625
2461.60254	6117.0625
2464.36507	6107.0625
2467.12586	6087.3625
2469.88492	6080.0625
2472.64224	6106.3625
2475.39782	6094.8625
2478.15167	6071.8625
2480.90379	6057.0625
2483.65417	6045.6625
2486.40283	6048.9625
2489.14976	6069.1625
2491.89497	6048.3625
2494.63845	6067.4625
2497.3802	6023.4625
2500.12024	6035.5625
2502.85855	6009.3625
2505.59514	6003.0625
2508.33002	6018.3625
2511.06318	5967.3625
2513.79462	5962.0625
2516.52435	5964.8625
2519.25237	5948.5625
2521.97867	5945.4625
2524.70327	5932.7625
2527.42616	5914.8625
2530.14734	5911.5625
2532.86681	5890.1625
2535.58458	5917.0625
2538.30065	5903.3625
2541.01501	5891.6625
2543.72768	5881.9625
2546.43864	5899.8625
2549.14791	5850.1625
2551.85548	5857.1625
2554.56136	5836.1625
2557.26554	5833.3625
2559.96803	5843.1625
2562.66883	5811.2625
2565.36794	5793.5625
2568.06536	5784.2625
2570.7611	5744.3625
2573.45514	5743.2625
2576.14751	5755.9625
2578.83819	5732.6625
2581.52719	5721.9625
2584.21451	5693.3625
2586.90015	5698.3625
2589.58411	5697.9625
2592.2664	5689.3625
2594.94701	5665.5625
2597.62594	5668.2625
2600.30321	5642.5625
2602.9788	5641.7625
2605.65273	5641.6625
2608.32498	5627.8625
2610.99557	5623.9625
2613.66449	5624.1625
2616.33175	5607.7625
2618.99734	5591.1625
2621.66128	5593.9625
2624.32355	5560.2625
2626.98416	5550.8625
2629.64311	5533.4625
2632.30041	5531.3625
2634.95605	5526.9625
2637.61004	5511.0625
2640.26238	5494.4625
2642.91306	5504.5625
2645.56209	5493.8625
2648.20948	5480.4625
2650.85521	5476.4625
2653.4993	5465.9625
2656.14175	5475.4625
2658.78255	5471.6625
2661.42171	5456.5625
2664.05923	5477.8625
2666.6951	5460.0625
2669.32934	5488.4625
2671.96194	5476.9625
2674.59291	5470.1625
2677.22224	5480.8625
2679.84993	5459.7625
2682.476	5460.2625
2685.10043	5465.5625
2687.72324	5454.8625
2690.34441	5477.7625
2692.96396	5463.6625
2695.58188	5456.0625
2698.19818	5437.9625
2700.81285	5436.4625
2703.4259	5423.7625
2706.03733	5427.4625
2708.64714	5419.7625
2711.25533	5426.0625
2713.86191	5404.5625
2716.46687	5413.3625
2719.07021	5412.0625
2721.67194	5401.6625
2724.27206	5405.9625
2726.87057	5404.3625
2729.46747	5383.3625
2732.06276	5388.4625
2734.65644	5405.7625
2737.24852	5378.1625
2739.83899	5383.7625
2742.42786	5388.7625
2745.01513	5335.1625
2747.60079	5355.3625
2750.18486	5326.3625
2752.76733	5344.8625
2755.3482	5326.8625
2757.92747	5318.9625
2760.50515	5310.5625
2763.08123	5295.6625
2765.65573	5270.6625
2768.22863	5267.5625
2770.79994	5244.4625
2773.36967	5246.0625
2775.9378	5248.4625
2778.50435	5243.9625
2781.06932	5232.7625
2783.6327	5237.7625
2786.1945	5216.7625
2788.75471	5227.0625
2791.31335	5208.2625
2793.87041	5173.1625
2796.42589	5171.7625
2798.97979	5160.7625
2801.53212	5157.1625
2804.08288	5136.9625
2806.63206	5107.9625
2809.17967	5125.9625
2811.72571	5119.2625
2814.27018	5108.0625
2816.81308	5098.1625
2819.35442	5075.7625
2821.89419	5075.7625
2824.43239	5052.8625
2826.96904	5049.7625
2829.50412	5035.0625
2832.03763	5011.0625
2834.56959	5001.0625
2837.1	4997.4625
2839.62884	4993.7625
2842.15613	4984.3625
2844.68186	4986.9625
2847.20604	4983.2625
2849.72867	4958.7625
2852.24974	4948.3625
2854.76927	4931.4625
2857.28724	4935.9625
2859.80367	4915.7625
2862.31855	4917.0625
2864.83189	4894.9625
2867.34368	4915.8625
2869.85393	4885.6625
2872.36264	4867.9625
2874.8698	4871.5625
2877.37543	4885.4625
2879.87952	4881.7625
2882.38207	4851.6625
2884.88308	4862.7625
2887.38256	4862.6625
2889.88051	4851.9625
2892.37692	4848.3625
2894.8718	4857.2625
2897.36515	4836.4625
2899.85698	4837.1625
2902.34727	4827.5625
2904.83604	4835.9625
2907.32328	4839.0625
2909.809	4839.6625
2912.29319	4852.6625
2914.77587	4833.8625
2917.25702	4831.7625
2919.73665	4840.8625
2922.21476	4840.2625
2924.69136	4817.5625
2927.16644	4830.1625
2929.64	4812.4625
2932.11205	4788.2625
2934.58258	4767.6625
2937.05161	4786.5625
2939.51912	4802.3625
2941.98513	4777.9625
2944.44962	4764.7625
2946.91261	4744.5625
2949.37409	4775.6625
2951.83407	4757.1625
2954.29254	4758.4625
2956.74951	4737.7625
2959.20498	4747.3625
2961.65895	4741.5625
2964.11142	4744.4625
2966.56239	4724.5625
2969.01186	4734.7625
2971.45984	4726.9625
2973.90632	4720.4625
2976.35131	4714.2625
2978.7948	4693.8625
2981.23681	4694.1625
2983.67732	4675.8625
2986.11635	4674.1625
2988.55388	4656.9625
2990.98993	4646.3625
2993.4245	4642.4625
2995.85758	4617.5625
2998.28917	4615.6625
3000.71928	4609.1625
3003.14791	4589.7625
3005.57506	4586.0625
3008.00073	4559.1625
3010.42493	4563.5625
3012.84764	4551.5625
3015.26888	4541.9625
3017.68865	4531.7625
3020.10694	4516.4625
3022.52376	4515.7625
3024.9391	4495.1625
3027.35298	4476.7625
3029.76539	4466.9625
3032.17632	4467.0625
3034.5858	4470.6625
3036.9938	4452.3625
3039.40034	4435.3625
3041.80542	4426.9625
3044.20903	4410.2625
3046.61118	4386.9625
3049.01187	4390.4625
3051.4111	4380.4625
3053.80888	4369.3625
3056.20519	4343.8625
3058.60005	4354.8625
3060.99345	4344.1625
3063.3854	4325.2625
3065.7759	4325.2625
3068.16494	4304.3625
3070.55254	4310.2625
3072.93868	4291.9625
3075.32338	4283.8625
3077.70662	4250.3625
3080.08842	4265.9625
3082.46878	4261.3625
3084.84769	4234.6625
3087.22515	4234.5625
3089.60118	4226.5625
3091.97576	4226.9625
3094.3489	4216.2625
3096.72061	4222.5625
3099.09087	4190.5625
3101.4597	4201.3625
3103.82709	4206.9625
3106.19305	4211.4625
3108.55757	4189.1625
3110.92066	4184.9625
3113.28232	4170.9625
3115.64255	4151.2625
3118.00134	4149.5625
3120.35871	4152.8625
3122.71466	4144.6625
3125.06917	4128.3625
3127.42226	4120.0625
3129.77393	4125.5625
3132.12417	4098.0625
3134.47299	4084.3625
3136.82039	4087.6625
3139.16636	4073.9625
3141.51092	4075.8625
3143.85406	4078.4625
3146.19579	4070.7625
3148.53609	4086.2625
3150.87499	4063.1625
3153.21246	4051.1625
3155.54853	4061.3625
3157.88318	4057.5625
3160.21642	4054.5625
3162.54826	4062.4625
3164.87868	4041.7625
3167.2077	4043.3625
3169.5353	4032.0625
3171.86151	4030.7625
3174.18631	4022.2625
3176.5097	4002.7625
3178.83169	4003.5625
3181.15228	3990.6625
3183.47147	3977.5625
3185.78926	3983.1625
3188.10565	3950.7625
3190.42065	3951.7625
3192.73424	3951.4625
3195.04645	3935.6625
3197.35725	3944.5625
3199.66667	3935.3625
3201.97469	3940.5625
3204.28132	3938.2625
3206.58656	3927.7625
3208.8904	3933.7625
3211.19287	3922.1625
3213.49394	3932.4625
3215.79363	3919.5625
3218.09193	3921.6625
3220.38884	3933.9625
3222.68438	3911.3625
3224.97853	3900.3625
3227.2713	3908.4625
3229.56269	3902.2625
3231.8527	3898.2625
3234.14133	3889.2625
3236.42858	3866.0625
3238.71446	3864.8625
3240.99896	3856.3625
3243.28209	3852.9625
3245.56384	3834.1625
3247.84423	3821.6625
3250.12324	3820.5625
3252.40088	3827.1625
3254.67715	3813.6625
3256.95205	3812.5625
3259.22558	3812.5625
3261.49775	3793.1625
3263.76855	3804.3625
3266.03799	3808.3625
3268.30606	3807.6625
3270.57277	3792.2625
3272.83812	3792.0625
3275.10211	3766.2625
3277.36474	3767.7625
3279.62601	3741.1625
3281.88593	3745.7625
3284.14448	3738.6625
3286.40168	3734.6625
3288.65753	3730.7625
3290.91202	3719.2625
3293.16516	3713.3625
3295.41695	3703.6625
3297.66738	3695.3625
3299.91647	3686.1625
3302.16421	3652.5625
3304.4106	3620.3625
3306.65564	3613.8625
3308.89933	3569.7625
3311.14169	3544.3625
3313.38269	3515.4625
3315.62236	3488.1625
3317.86068	3470.1625
3320.09766	3446.7625
3322.3333	3411.7625
3324.5676	3395.4625
3326.80056	3338.9625
3329.03219	3310.5625
3331.26248	2.4625
3333.49143	-0.1375
3335.71905	-0.7375
