Data from AgNPs_UA_20uM_CRN_500uM_SU_RamanShift__70__13-48-10-304.txt Node

Date: Thu Aug 04 13:48:10 BST 2022
User: TCL
Spectrometer: QEP01345
Trigger mode: 4
Integration Time (sec): 1.000000E0
Scans to average: 10
Electric dark correction enabled: true
Nonlinearity correction enabled: false
Boxcar width: 0
XAxis mode: Raman Shifts
Number of Pixels in Spectrum: 1044
>>>>>Begin Spectral Data<<<<<
46.04893	-1.3875
50.45542	-0.4875
54.85868	1.4125
59.25871	-0.1875
63.6555	12.3125
68.04907	7.1125
72.43941	13.1125
76.82654	9.7125
81.21044	10.5125
85.59113	12.9125
89.96862	13.2125
94.34289	13.4125
98.71396	13.8125
103.08183	13.9125
107.4465	13.0125
111.80798	16.6125
116.16626	14.9125
120.52136	17.8125
124.87327	15.6125
129.222	18.4125
133.56755	18.3125
137.90993	19.4125
142.24913	22.0125
146.58517	22.8125
150.91804	28.6125
155.24774	32.5125
159.57429	39.4125
163.89768	52.9125
168.21792	68.2125
172.53501	93.5125
176.84895	126.3125
181.15975	180.5125
185.46741	248.6125
189.77193	347.1125
194.07331	465.4125
198.37157	597.1125
202.6667	739.6125
206.9587	875.8125
211.24758	1011.5125
215.53334	1155.3125
219.81599	1297.5125
224.09553	1450.8125
228.37195	1632.6125
232.64527	1824.8125
236.91549	2025.2125
241.18261	2205.0125
245.44663	2384.5125
249.70755	2529.2125
253.96539	2662.0125
258.22014	2762.3125
262.4718	2855.1125
266.72039	2942.6125
270.96589	2965.5125
275.20832	2963.9125
279.44768	2929.6125
283.68397	2893.3125
287.91719	2844.4125
292.14735	2840.3125
296.37445	2858.1125
300.59849	2914.5125
304.81948	2963.4125
309.03742	3027.8125
313.25231	3054.8125
317.46415	3027.3125
321.67296	2961.5125
325.87872	2883.3125
330.08145	2864.8125
334.28114	2880.6125
338.47781	2914.0125
342.67145	2978.8125
346.86207	3053.9125
351.04966	3110.8125
355.23424	3220.4125
359.4158	3294.5125
363.59435	3346.2125
367.76989	3382.4125
371.94243	3416.4125
376.11196	3429.4125
380.27849	3474.3125
384.44203	3488.4125
388.60257	3516.2125
392.76012	3539.4125
396.91468	3584.3125
401.06626	3654.1125
405.21485	3712.7125
409.36047	3696.0125
413.50311	3624.1125
417.64277	3555.9125
421.77947	3512.0125
425.9132	3496.7125
430.04396	3551.9125
434.17176	3610.7125
438.2966	3728.3125
442.41849	3900.6125
446.53742	4095.7125
450.6534	4297.2125
454.76644	4426.4125
458.87653	4403.7125
462.98368	4284.6125
467.08789	4144.5125
471.18916	3966.7125
475.2875	3807.4125
479.38291	3659.5125
483.4754	3575.5125
487.56496	3516.8125
491.6516	3476.0125
495.73531	3442.8125
499.81612	3439.7125
503.89401	3446.6125
507.96899	3462.9125
512.04106	3479.2125
516.11023	3527.4125
520.1765	3559.9125
524.23987	3591.6125
528.30034	3597.2125
532.35792	3611.0125
536.41261	3547.1125
540.46441	3492.8125
544.51333	3481.5125
548.55936	3506.5125
552.60252	3572.0125
556.64279	3616.5125
560.6802	3617.9125
564.71473	3603.1125
568.7464	3602.4125
572.7752	3609.4125
576.80114	3621.0125
580.82422	3634.6125
584.84444	3719.1125
588.86181	3896.2125
592.87633	4078.1125
596.888	4186.8125
600.89682	4286.0125
604.9028	4631.4125
608.90594	5272.4125
612.90624	5767.2125
616.90371	5257.6125
620.89834	4299.1125
624.89015	3951.2125
628.87913	3856.2125
632.86528	3831.5125
636.84862	3756.7125
640.82913	3659.3125
644.80683	3547.3125
648.78172	3520.9125
652.75379	3538.2125
656.72306	3658.9125
660.68952	3747.6125
664.65319	3738.1125
668.61405	3673.6125
672.57211	3676.6125
676.52738	3676.1125
680.47986	3616.7125
684.42955	3562.3125
688.37646	3559.7125
692.32058	3602.7125
696.26192	3664.6125
700.20048	3720.6125
704.13626	3727.1125
708.06928	3681.7125
711.99952	3630.6125
715.927	3646.1125
719.85171	3669.8125
723.77365	3657.2125
727.69284	3603.3125
731.60928	3591.2125
735.52295	3606.9125
739.43388	3646.4125
743.34206	3674.2125
747.24749	3700.0125
751.15017	3713.8125
755.05012	3765.1125
758.94733	3883.1125
762.8418	4126.3125
766.73354	4461.9125
770.62254	4788.0125
774.50882	4914.0125
778.39237	4732.0125
782.27321	4372.2125
786.15132	4013.3125
790.02671	3812.5125
793.89938	3715.6125
797.76935	3672.3125
801.6366	3647.0125
805.50115	3634.4125
809.36299	3628.2125
813.22213	3621.1125
817.07857	3611.8125
820.93231	3608.7125
824.78336	3611.7125
828.63172	3625.1125
832.47738	3624.9125
836.32036	3625.8125
840.16066	3631.8125
843.99827	3641.7125
847.8332	3628.2125
851.66546	3638.1125
855.49504	3632.4125
859.32195	3633.1125
863.1462	3624.9125
866.96777	3605.8125
870.78668	3597.1125
874.60293	3633.0125
878.41652	3630.3125
882.22745	3657.3125
886.03573	3672.7125
889.84136	3654.4125
893.64433	3637.0125
897.44466	3628.4125
901.24235	3620.1125
905.0374	3606.1125
908.8298	3598.1125
912.61957	3592.9125
916.40671	3621.4125
920.19121	3663.8125
923.97308	3695.4125
927.75233	3730.4125
931.52895	3722.7125
935.30295	3701.4125
939.07433	3638.1125
942.84309	3579.7125
946.60924	3576.5125
950.37278	3566.6125
954.13371	3540.2125
957.89203	3535.8125
961.64774	3519.3125
965.40086	3510.7125
969.15137	3508.8125
972.89929	3508.4125
976.64461	3510.9125
980.38733	3514.8125
984.12747	3544.2125
987.86502	3570.8125
991.59999	3633.0125
995.33237	3702.2125
999.06217	3839.5125
1002.78939	3984.2125
1006.51404	4051.2125
1010.23611	4088.3125
1013.95561	4171.8125
1017.67255	4216.3125
1021.38692	4175.5125
1025.09872	4085.6125
1028.80796	4073.9125
1032.51465	4127.5125
1036.21877	4169.6125
1039.92035	4167.8125
1043.61937	4118.2125
1047.31584	4043.4125
1051.00976	3978.0125
1054.70114	3956.3125
1058.38998	3943.2125
1062.07627	3959.7125
1065.76003	3987.3125
1069.44126	4013.2125
1073.11995	4055.6125
1076.79611	4085.4125
1080.46974	4119.2125
1084.14085	4168.9125
1087.80943	4194.3125
1091.47549	4204.7125
1095.13903	4139.8125
1098.80005	4063.2125
1102.45857	4008.8125
1106.11456	4001.6125
1109.76805	4021.2125
1113.41903	4103.7125
1117.06751	4155.7125
1120.71348	4231.8125
1124.35696	4321.3125
1127.99793	4383.0125
1131.63641	4327.0125
1135.2724	4232.5125
1138.90589	4140.6125
1142.5369	4091.9125
1146.16542	4029.0125
1149.79145	4042.3125
1153.415	4031.3125
1157.03607	4070.0125
1160.65467	4134.4125
1164.27079	4250.2125
1167.88443	4390.7125
1171.49561	4659.5125
1175.10432	5021.7125
1178.71056	5509.1125
1182.31434	6014.0125
1185.91565	6393.9125
1189.51451	6509.2125
1193.11091	6341.5125
1196.70485	5962.3125
1200.29634	5536.7125
1203.88538	5211.6125
1207.47197	4924.3125
1211.05612	4723.8125
1214.63782	4646.2125
1218.21708	4622.6125
1221.79391	4649.3125
1225.36829	4688.7125
1228.94024	4714.9125
1232.50976	4709.3125
1236.07685	4764.4125
1239.6415	4829.7125
1243.20374	4866.9125
1246.76355	4838.9125
1250.32093	4888.8125
1253.8759	4978.5125
1257.42845	5150.9125
1260.97859	5328.1125
1264.52631	5470.5125
1268.07163	5579.0125
1271.61453	5648.2125
1275.15503	5692.2125
1278.69312	5731.5125
1282.22882	5850.3125
1285.76211	6005.5125
1289.29301	6182.5125
1292.82151	6374.2125
1296.34761	6516.0125
1299.87133	6690.1125
1303.39266	6934.6125
1306.9116	7317.4125
1310.42815	7707.4125
1313.94233	7889.1125
1317.45412	7814.7125
1320.96354	7649.8125
1324.47058	7501.8125
1327.97525	7491.9125
1331.47754	7624.6125
1334.97747	7819.0125
1338.47502	7934.9125
1341.97022	7964.4125
1345.46305	7978.2125
1348.95352	8114.0125
1352.44163	8381.2125
1355.92738	8784.2125
1359.41078	9186.8125
1362.89183	9368.7125
1366.37053	8894.5125
1369.84688	7980.2125
1373.32088	7122.7125
1376.79254	6603.3125
1380.26186	6366.6125
1383.72883	6244.7125
1387.19347	6054.3125
1390.65578	5795.0125
1394.11575	5567.4125
1397.57339	5436.9125
1401.0287	5448.5125
1404.48168	5635.6125
1407.93234	5843.9125
1411.38068	6063.0125
1414.82669	6092.8125
1418.27039	5956.1125
1421.71177	5841.6125
1425.15083	5819.2125
1428.58758	5928.4125
1432.02203	6085.2125
1435.45416	6188.1125
1438.88399	6180.6125
1442.31151	6112.1125
1445.73673	6031.0125
1449.15965	5969.8125
1452.58027	5857.6125
1455.9986	5721.5125
1459.41463	5684.7125
1462.82837	5737.7125
1466.23982	5885.8125
1469.64898	6021.8125
1473.05586	6162.3125
1476.46045	6259.3125
1479.86276	6330.3125
1483.26279	6349.5125
1486.66054	6370.5125
1490.05602	6461.4125
1493.44922	6557.7125
1496.84016	6741.5125
1500.22882	6981.5125
1503.61521	7290.6125
1506.99934	7598.9125
1510.38121	7717.2125
1513.76081	7559.7125
1517.13816	7148.5125
1520.51324	6716.7125
1523.88607	6443.6125
1527.25665	6339.3125
1530.62498	6349.2125
1533.99105	6347.9125
1537.35488	6379.1125
1540.71647	6361.4125
1544.07581	6260.2125
1547.4329	6139.1125
1550.78776	5941.0125
1554.14038	5745.5125
1557.49077	5624.8125
1560.83892	5557.1125
1564.18484	5556.1125
1567.52853	5576.2125
1570.86999	5636.2125
1574.20922	5627.5125
1577.54624	5585.4125
1580.88103	5434.2125
1584.2136	5334.4125
1587.54395	5384.2125
1590.87208	5643.4125
1594.19801	6146.3125
1597.52172	6796.7125
1600.84321	7274.4125
1604.16251	7288.8125
1607.47959	6852.2125
1610.79447	6209.8125
1614.10715	5595.9125
1617.41763	5143.5125
1620.7259	4874.9125
1624.03199	4735.4125
1627.33587	4724.4125
1630.63757	4832.7125
1633.93707	5127.1125
1637.23439	5578.6125
1640.52951	6216.7125
1643.82246	6886.0125
1647.11321	7315.3125
1650.40179	7127.7125
1653.68819	6438.6125
1656.97241	5554.0125
1660.25446	4834.4125
1663.53433	4376.9125
1666.81203	4090.4125
1670.08756	3915.1125
1673.36092	3812.2125
1676.63211	3722.9125
1679.90115	3665.6125
1683.16801	3624.5125
1686.43272	3602.6125
1689.69527	3564.9125
1692.95567	3568.0125
1696.2139	3556.4125
1699.46999	3523.1125
1702.72392	3518.5125
1705.97571	3542.9125
1709.22535	3527.9125
1712.47284	3522.3125
1715.71819	3516.0125
1718.96139	3510.7125
1722.20246	3491.4125
1725.44139	3489.2125
1728.67818	3463.7125
1731.91284	3452.6125
1735.14537	3431.9125
1738.37576	3420.9125
1741.60403	3395.8125
1744.83017	3399.3125
1748.05418	3393.3125
1751.27607	3385.6125
1754.49584	3366.6125
1757.71349	3355.7125
1760.92903	3360.5125
1764.14244	3354.6125
1767.35375	3361.4125
1770.56294	3352.5125
1773.77002	3355.9125
1776.97499	3346.0125
1780.17785	3332.5125
1783.37861	3337.8125
1786.57727	3324.1125
1789.77382	3315.0125
1792.96828	3318.4125
1796.16064	3302.2125
1799.3509	3306.4125
1802.53907	3293.3125
1805.72514	3310.9125
1808.90913	3299.0125
1812.09102	3288.1125
1815.27083	3288.7125
1818.44856	3270.9125
1821.6242	3263.1125
1824.79776	3257.9125
1827.96924	3253.8125
1831.13864	3246.8125
1834.30597	3258.9125
1837.47122	3239.0125
1840.6344	3241.6125
1843.7955	3237.3125
1846.95454	3232.9125
1850.11151	3234.6125
1853.26642	3239.7125
1856.41926	3236.6125
1859.57004	3241.5125
1862.71876	3221.9125
1865.86542	3229.8125
1869.01003	3225.9125
1872.15258	3220.8125
1875.29308	3210.2125
1878.43152	3226.6125
1881.56792	3223.5125
1884.70227	3214.1125
1887.83457	3217.1125
1890.96482	3211.1125
1894.09304	3200.4125
1897.21921	3192.1125
1900.34335	3199.8125
1903.46544	3201.8125
1906.58551	3198.6125
1909.70353	3202.6125
1912.81953	3190.2125
1915.93349	3199.9125
1919.04543	3181.0125
1922.15534	3183.7125
1925.26322	3199.4125
1928.36908	3171.5125
1931.47292	3153.9125
1934.57473	3172.0125
1937.67453	3170.1125
1940.77232	3159.5125
1943.86808	3152.2125
1946.96184	3136.9125
1950.05358	3142.9125
1953.14331	3133.5125
1956.23103	3113.1125
1959.31675	3090.9125
1962.40046	3081.3125
1965.48217	3074.8125
1968.56188	3072.4125
1971.63959	3056.3125
1974.7153	3058.0125
1977.78901	3042.4125
1980.86073	3031.3125
1983.93046	3022.8125
1986.99819	3019.9125
1990.06394	3009.3125
1993.1277	2995.3125
1996.18947	3005.0125
1999.24925	2978.9125
2002.30706	2971.0125
2005.36288	2972.8125
2008.41672	2947.9125
2011.46859	2954.0125
2014.51848	2937.2125
2017.56639	2936.8125
2020.61233	2919.3125
2023.6563	2914.5125
2026.6983	2921.2125
2029.73833	2898.0125
2032.7764	2888.3125
2035.8125	2881.3125
2038.84664	2890.0125
2041.87881	2888.0125
2044.90903	2871.0125
2047.93729	2876.1125
2050.96359	2880.3125
2053.98794	2866.3125
2057.01034	2871.3125
2060.03078	2854.2125
2063.04927	2841.9125
2066.06582	2847.8125
2069.08042	2835.7125
2072.09307	2845.5125
2075.10378	2840.3125
2078.11255	2834.5125
2081.11938	2830.5125
2084.12426	2830.6125
2087.12722	2823.4125
2090.12824	2831.7125
2093.12732	2838.2125
2096.12447	2835.5125
2099.11969	2835.9125
2102.11299	2832.8125
2105.10435	2835.7125
2108.09379	2824.0125
2111.08131	2831.1125
2114.0669	2817.4125
2117.05057	2824.9125
2120.03233	2834.3125
2123.01216	2813.7125
2125.99008	2824.4125
2128.96609	2839.0125
2131.94018	2831.2125
2134.91236	2818.6125
2137.88263	2833.0125
2140.851	2823.4125
2143.81746	2829.1125
2146.78201	2831.0125
2149.74466	2822.8125
2152.7054	2829.8125
2155.66425	2832.7125
2158.6212	2834.3125
2161.57625	2832.5125
2164.52941	2819.1125
2167.48067	2831.2125
2170.43004	2814.5125
2173.37752	2813.0125
2176.32311	2814.9125
2179.26681	2816.2125
2182.20863	2801.0125
2185.14856	2806.7125
2188.08661	2818.5125
2191.02278	2815.0125
2193.95707	2804.8125
2196.88948	2816.0125
2199.82001	2800.1125
2202.74867	2812.2125
2205.67545	2819.2125
2208.60037	2806.9125
2211.52341	2811.2125
2214.44458	2793.3125
2217.36388	2792.1125
2220.28132	2762.9125
2223.1969	2769.6125
2226.11061	2756.2125
2229.02246	2764.1125
2231.93245	2750.0125
2234.84058	2758.6125
2237.74686	2747.5125
2240.65128	2748.7125
2243.55385	2747.0125
2246.45456	2736.9125
2249.35343	2742.7125
2252.25044	2740.1125
2255.14561	2739.6125
2258.03893	2730.0125
2260.93041	2730.2125
2263.82004	2717.4125
2266.70783	2718.7125
2269.59378	2702.2125
2272.4779	2706.0125
2275.36017	2681.0125
2278.24061	2664.4125
2281.11922	2669.4125
2283.996	2663.1125
2286.87094	2647.5125
2289.74405	2648.2125
2292.61534	2654.8125
2295.4848	2656.6125
2298.35243	2663.0125
2301.21824	2650.6125
2304.08223	2646.8125
2306.94439	2652.5125
2309.80474	2650.1125
2312.66327	2655.8125
2315.51999	2641.9125
2318.37489	2635.7125
2321.22797	2649.0125
2324.07925	2633.6125
2326.92871	2619.7125
2329.77637	2626.5125
2332.62222	2617.6125
2335.46626	2618.2125
2338.3085	2621.7125
2341.14893	2621.1125
2343.98756	2624.4125
2346.8244	2617.3125
2349.65943	2634.5125
2352.49267	2620.3125
2355.32411	2620.6125
2358.15376	2614.9125
2360.98161	2616.0125
2363.80768	2613.5125
2366.63195	2611.3125
2369.45444	2600.1125
2372.27514	2594.8125
2375.09405	2606.7125
2377.91118	2601.5125
2380.72652	2606.7125
2383.54009	2576.3125
2386.35187	2577.8125
2389.16188	2561.1125
2391.97011	2563.0125
2394.77657	2558.2125
2397.58125	2547.4125
2400.38416	2539.7125
2403.18529	2547.7125
2405.98466	2541.3125
2408.78226	2531.5125
2411.57809	2518.3125
2414.37216	2518.9125
2417.16446	2521.5125
2419.955	2512.8125
2422.74378	2523.4125
2425.5308	2499.8125
2428.31606	2509.8125
2431.09956	2502.5125
2433.88131	2503.4125
2436.6613	2513.9125
2439.43954	2510.1125
2442.21603	2496.2125
2444.99077	2486.7125
2447.76377	2504.9125
2450.53501	2487.2125
2453.30451	2491.2125
2456.07226	2476.3125
2458.83827	2496.5125
2461.60254	2486.9125
2464.36507	2481.4125
2467.12586	2475.9125
2469.88492	2468.7125
2472.64224	2486.5125
2475.39782	2481.5125
2478.15167	2487.7125
2480.90379	2482.5125
2483.65417	2479.8125
2486.40283	2481.4125
2489.14976	2496.9125
2491.89497	2493.2125
2494.63845	2482.4125
2497.3802	2490.7125
2500.12024	2477.7125
2502.85855	2476.5125
2505.59514	2466.9125
2508.33002	2468.3125
2511.06318	2457.1125
2513.79462	2458.8125
2516.52435	2462.2125
2519.25237	2466.7125
2521.97867	2453.8125
2524.70327	2448.9125
2527.42616	2453.6125
2530.14734	2444.0125
2532.86681	2461.6125
2535.58458	2451.8125
2538.30065	2449.1125
2541.01501	2451.2125
2543.72768	2436.5125
2546.43864	2451.0125
2549.14791	2433.7125
2551.85548	2437.5125
2554.56136	2436.3125
2557.26554	2440.3125
2559.96803	2427.4125
2562.66883	2413.0125
2565.36794	2414.4125
2568.06536	2411.2125
2570.7611	2402.4125
2573.45514	2394.7125
2576.14751	2400.0125
2578.83819	2401.4125
2581.52719	2397.5125
2584.21451	2384.4125
2586.90015	2386.5125
2589.58411	2385.6125
2592.2664	2382.7125
2594.94701	2383.9125
2597.62594	2390.6125
2600.30321	2390.1125
2602.9788	2396.6125
2605.65273	2384.9125
2608.32498	2386.1125
2610.99557	2372.4125
2613.66449	2373.1125
2616.33175	2372.0125
2618.99734	2381.5125
2621.66128	2379.4125
2624.32355	2379.2125
2626.98416	2390.8125
2629.64311	2367.7125
2632.30041	2376.0125
2634.95605	2372.1125
2637.61004	2376.7125
2640.26238	2381.6125
2642.91306	2370.6125
2645.56209	2358.4125
2648.20948	2359.7125
2650.85521	2352.9125
2653.4993	2356.7125
2656.14175	2362.0125
2658.78255	2365.9125
2661.42171	2351.0125
2664.05923	2370.6125
2666.6951	2372.6125
2669.32934	2374.3125
2671.96194	2369.9125
2674.59291	2376.1125
2677.22224	2375.1125
2679.84993	2383.5125
2682.476	2371.5125
2685.10043	2372.9125
2687.72324	2358.9125
2690.34441	2376.0125
2692.96396	2380.1125
2695.58188	2360.4125
2698.19818	2360.5125
2700.81285	2370.2125
2703.4259	2372.3125
2706.03733	2369.6125
2708.64714	2352.6125
2711.25533	2361.1125
2713.86191	2362.8125
2716.46687	2364.2125
2719.07021	2365.9125
2721.67194	2369.5125
2724.27206	2375.9125
2726.87057	2365.8125
2729.46747	2374.0125
2732.06276	2365.4125
2734.65644	2365.8125
2737.24852	2371.2125
2739.83899	2367.9125
2742.42786	2364.0125
2745.01513	2362.8125
2747.60079	2365.7125
2750.18486	2364.7125
2752.76733	2349.2125
2755.3482	2362.3125
2757.92747	2349.4125
2760.50515	2347.9125
2763.08123	2341.6125
2765.65573	2353.3125
2768.22863	2344.9125
2770.79994	2343.9125
2773.36967	2349.2125
2775.9378	2338.7125
2778.50435	2345.1125
2781.06932	2343.8125
2783.6327	2346.3125
2786.1945	2344.5125
2788.75471	2330.3125
2791.31335	2333.2125
2793.87041	2333.1125
2796.42589	2322.1125
2798.97979	2324.6125
2801.53212	2318.8125
2804.08288	2317.0125
2806.63206	2324.3125
2809.17967	2311.1125
2811.72571	2301.8125
2814.27018	2310.9125
2816.81308	2307.9125
2819.35442	2297.8125
2821.89419	2286.7125
2824.43239	2277.4125
2826.96904	2279.7125
2829.50412	2288.2125
2832.03763	2279.3125
2834.56959	2284.9125
2837.1	2272.4125
2839.62884	2272.1125
2842.15613	2276.4125
2844.68186	2279.2125
2847.20604	2277.8125
2849.72867	2277.2125
2852.24974	2260.6125
2854.76927	2255.1125
2857.28724	2253.8125
2859.80367	2245.5125
2862.31855	2242.3125
2864.83189	2254.1125
2867.34368	2237.3125
2869.85393	2242.8125
2872.36264	2240.0125
2874.8698	2231.5125
2877.37543	2219.1125
2879.87952	2216.7125
2882.38207	2233.3125
2884.88308	2224.2125
2887.38256	2223.5125
2889.88051	2218.4125
2892.37692	2209.3125
2894.8718	2210.0125
2897.36515	2207.4125
2899.85698	2212.8125
2902.34727	2221.1125
2904.83604	2226.9125
2907.32328	2211.5125
2909.809	2222.3125
2912.29319	2220.0125
2914.77587	2213.9125
2917.25702	2225.1125
2919.73665	2216.0125
2922.21476	2226.5125
2924.69136	2210.3125
2927.16644	2218.9125
2929.64	2220.3125
2932.11205	2208.5125
2934.58258	2204.5125
2937.05161	2206.3125
2939.51912	2197.3125
2941.98513	2189.5125
2944.44962	2195.7125
2946.91261	2181.3125
2949.37409	2195.2125
2951.83407	2196.0125
2954.29254	2184.4125
2956.74951	2186.0125
2959.20498	2190.5125
2961.65895	2177.8125
2964.11142	2174.9125
2966.56239	2175.5125
2969.01186	2181.2125
2971.45984	2175.2125
2973.90632	2173.9125
2976.35131	2164.8125
2978.7948	2159.7125
2981.23681	2151.8125
2983.67732	2140.3125
2986.11635	2138.8125
2988.55388	2133.1125
2990.98993	2132.3125
2993.4245	2119.7125
2995.85758	2118.0125
2998.28917	2106.1125
3000.71928	2112.2125
3003.14791	2095.7125
3005.57506	2096.6125
3008.00073	2077.9125
3010.42493	2080.2125
3012.84764	2063.8125
3015.26888	2061.3125
3017.68865	2067.2125
3020.10694	2070.2125
3022.52376	2056.4125
3024.9391	2054.4125
3027.35298	2037.7125
3029.76539	2030.3125
3032.17632	2043.3125
3034.5858	2037.8125
3036.9938	2037.2125
3039.40034	2025.6125
3041.80542	2022.5125
3044.20903	2019.6125
3046.61118	2008.5125
3049.01187	2005.8125
3051.4111	2001.7125
3053.80888	2002.9125
3056.20519	1999.4125
3058.60005	1982.0125
3060.99345	1978.1125
3063.3854	1979.2125
3065.7759	1973.0125
3068.16494	1971.6125
3070.55254	1962.4125
3072.93868	1962.0125
3075.32338	1951.0125
3077.70662	1940.5125
3080.08842	1923.6125
3082.46878	1918.0125
3084.84769	1921.8125
3087.22515	1925.7125
3089.60118	1923.9125
3091.97576	1917.9125
3094.3489	1914.0125
3096.72061	1905.9125
3099.09087	1906.3125
3101.4597	1908.0125
3103.82709	1911.4125
3106.19305	1906.0125
3108.55757	1898.9125
3110.92066	1892.1125
3113.28232	1888.8125
3115.64255	1882.1125
3118.00134	1876.8125
3120.35871	1860.9125
3122.71466	1879.8125
3125.06917	1870.1125
3127.42226	1860.7125
3129.77393	1863.1125
3132.12417	1854.4125
3134.47299	1850.5125
3136.82039	1854.1125
3139.16636	1857.9125
3141.51092	1850.8125
3143.85406	1854.8125
3146.19579	1841.6125
3148.53609	1843.7125
3150.87499	1856.6125
3153.21246	1844.5125
3155.54853	1845.3125
3157.88318	1837.3125
3160.21642	1851.2125
3162.54826	1837.5125
3164.87868	1841.3125
3167.2077	1823.2125
3169.5353	1825.8125
3171.86151	1829.1125
3174.18631	1820.4125
3176.5097	1828.0125
3178.83169	1817.8125
3181.15228	1817.5125
3183.47147	1816.0125
3185.78926	1812.2125
3188.10565	1804.4125
3190.42065	1800.1125
3192.73424	1794.2125
3195.04645	1800.8125
3197.35725	1785.9125
3199.66667	1783.6125
3201.97469	1786.7125
3204.28132	1781.8125
3206.58656	1783.9125
3208.8904	1783.2125
3211.19287	1788.1125
3213.49394	1791.4125
3215.79363	1785.8125
3218.09193	1784.7125
3220.38884	1786.3125
3222.68438	1788.1125
3224.97853	1769.5125
3227.2713	1778.5125
3229.56269	1774.9125
3231.8527	1773.9125
3234.14133	1773.5125
3236.42858	1767.4125
3238.71446	1754.6125
3240.99896	1760.5125
3243.28209	1754.9125
3245.56384	1751.8125
3247.84423	1746.2125
3250.12324	1754.7125
3252.40088	1752.3125
3254.67715	1749.6125
3256.95205	1732.6125
3259.22558	1731.7125
3261.49775	1738.2125
3263.76855	1738.7125
3266.03799	1741.5125
3268.30606	1735.7125
3270.57277	1739.8125
3272.83812	1729.2125
3275.10211	1719.0125
3277.36474	1717.7125
3279.62601	1711.4125
3281.88593	1712.0125
3284.14448	1703.4125
3286.40168	1709.6125
3288.65753	1710.4125
3290.91202	1698.6125
3293.16516	1701.6125
3295.41695	1697.8125
3297.66738	1676.3125
3299.91647	1671.2125
3302.16421	1669.2125
3304.4106	1658.8125
3306.65564	1637.0125
3308.89933	1639.9125
3311.14169	1620.0125
3313.38269	1605.6125
3315.62236	1588.0125
3317.86068	1581.3125
3320.09766	1557.0125
3322.3333	1545.4125
3324.5676	1538.9125
3326.80056	1524.9125
3329.03219	1503.6125
3331.26248	2.1125
3333.49143	-0.4875
3335.71905	-1.6875
