Data from AgNPs_UA_20uM_CRN_500uM_SU_RamanShift__22__13-40-10-295.txt Node

Date: Thu Aug 04 13:40:10 BST 2022
User: TCL
Spectrometer: QEP01345
Trigger mode: 4
Integration Time (sec): 1.000000E0
Scans to average: 10
Electric dark correction enabled: true
Nonlinearity correction enabled: false
Boxcar width: 0
XAxis mode: Raman Shifts
Number of Pixels in Spectrum: 1044
>>>>>Begin Spectral Data<<<<<
46.04893	-1.1125
50.45542	-0.4125
54.85868	0.9875
59.25871	0.5875
63.6555	16.7875
68.04907	14.4875
72.43941	18.0875
76.82654	17.1875
81.21044	17.2875
85.59113	19.5875
89.96862	19.6875
94.34289	20.6875
98.71396	19.2875
103.08183	22.5875
107.4465	19.9875
111.80798	25.1875
116.16626	25.3875
120.52136	27.7875
124.87327	25.5875
129.222	31.0875
133.56755	29.3875
137.90993	33.6875
142.24913	38.0875
146.58517	41.3875
150.91804	48.1875
155.24774	60.6875
159.57429	78.9875
163.89768	101.2875
168.21792	132.7875
172.53501	184.5875
176.84895	260.8875
181.15975	376.5875
185.46741	530.6875
189.77193	724.5875
194.07331	978.9875
198.37157	1269.4875
202.6667	1582.9875
206.9587	1891.3875
211.24758	2192.2875
215.53334	2518.0875
219.81599	2869.1875
224.09553	3259.0875
228.37195	3696.6875
232.64527	4163.5875
236.91549	4616.1875
241.18261	5012.9875
245.44663	5297.8875
249.70755	5500.5875
253.96539	5654.5875
258.22014	5813.0875
262.4718	5948.6875
266.72039	6030.1875
270.96589	6043.4875
275.20832	5997.6875
279.44768	5882.6875
283.68397	5777.5875
287.91719	5727.9875
292.14735	5758.3875
296.37445	5896.4875
300.59849	6161.5875
304.81948	6477.9875
309.03742	6789.2875
313.25231	7000.0875
317.46415	6899.1875
321.67296	6587.4875
325.87872	6210.4875
330.08145	6014.3875
334.28114	5969.0875
338.47781	6058.5875
342.67145	6210.7875
346.86207	6434.6875
351.04966	6722.7875
355.23424	7038.1875
359.4158	7230.5875
363.59435	7309.6875
367.76989	7284.3875
371.94243	7221.7875
376.11196	7163.5875
380.27849	7106.1875
384.44203	7052.2875
388.60257	7022.1875
392.76012	7076.5875
396.91468	7213.7875
401.06626	7321.5875
405.21485	7362.9875
409.36047	7191.8875
413.50311	6880.4875
417.64277	6599.2875
421.77947	6436.4875
425.9132	6376.1875
430.04396	6381.4875
434.17176	6415.5875
438.2966	6472.8875
442.41849	6616.7875
446.53742	6752.2875
450.6534	6871.3875
454.76644	6927.9875
458.87653	6936.3875
462.98368	6890.1875
467.08789	6857.0875
471.18916	6751.9875
475.2875	6615.7875
479.38291	6477.1875
483.4754	6383.9875
487.56496	6333.2875
491.6516	6296.3875
495.73531	6326.9875
499.81612	6336.2875
503.89401	6397.4875
507.96899	6452.7875
512.04106	6547.1875
516.11023	6624.4875
520.1765	6681.9875
524.23987	6695.9875
528.30034	6684.7875
532.35792	6661.0875
536.41261	6564.3875
540.46441	6470.6875
544.51333	6440.9875
548.55936	6479.6875
552.60252	6581.8875
556.64279	6704.5875
560.6802	6779.7875
564.71473	6920.1875
568.7464	7048.2875
572.7752	7030.6875
576.80114	6801.9875
580.82422	6603.7875
584.84444	6515.0875
588.86181	6476.4875
592.87633	6523.9875
596.888	6675.1875
600.89682	7005.9875
604.9028	7993.1875
608.90594	10095.5875
612.90624	12264.2875
616.90371	11278.5875
620.89834	8269.6875
624.89015	6976.0875
628.87913	6808.4875
632.86528	7004.5875
636.84862	7147.5875
640.82913	7005.3875
644.80683	6699.1875
648.78172	6523.4875
652.75379	6546.6875
656.72306	6786.2875
660.68952	6996.0875
664.65319	6889.0875
668.61405	6670.6875
672.57211	6626.4875
676.52738	6649.2875
680.47986	6542.7875
684.42955	6433.0875
688.37646	6383.3875
692.32058	6398.1875
696.26192	6526.4875
700.20048	6638.7875
704.13626	6661.3875
708.06928	6632.4875
711.99952	6578.4875
715.927	6559.0875
719.85171	6609.5875
723.77365	6634.0875
727.69284	6606.5875
731.60928	6532.3875
735.52295	6502.8875
739.43388	6543.3875
743.34206	6560.4875
747.24749	6582.8875
751.15017	6577.1875
755.05012	6673.0875
758.94733	7017.5875
762.8418	7837.2875
766.73354	9090.1875
770.62254	10068.7875
774.50882	10186.9875
778.39237	9624.1875
782.27321	8662.6875
786.15132	7683.1875
790.02671	7062.9875
793.89938	6725.8875
797.76935	6579.3875
801.6366	6533.0875
805.50115	6480.6875
809.36299	6456.4875
813.22213	6442.8875
817.07857	6452.8875
820.93231	6449.0875
824.78336	6472.6875
828.63172	6499.9875
832.47738	6512.7875
836.32036	6480.7875
840.16066	6433.5875
843.99827	6440.6875
847.8332	6445.8875
851.66546	6450.1875
855.49504	6462.5875
859.32195	6469.5875
863.1462	6467.4875
866.96777	6465.0875
870.78668	6443.4875
874.60293	6490.1875
878.41652	6536.7875
882.22745	6575.5875
886.03573	6628.0875
889.84136	6628.9875
893.64433	6601.6875
897.44466	6564.7875
901.24235	6542.0875
905.0374	6548.5875
908.8298	6500.0875
912.61957	6465.8875
916.40671	6465.8875
920.19121	6494.9875
923.97308	6583.2875
927.75233	6659.5875
931.52895	6725.5875
935.30295	6622.1875
939.07433	6500.6875
942.84309	6386.3875
946.60924	6341.0875
950.37278	6329.4875
954.13371	6321.9875
957.89203	6332.9875
961.64774	6331.5875
965.40086	6315.3875
969.15137	6308.3875
972.89929	6313.6875
976.64461	6296.9875
980.38733	6303.8875
984.12747	6345.1875
987.86502	6365.4875
991.59999	6402.6875
995.33237	6443.4875
999.06217	6520.7875
1002.78939	6661.2875
1006.51404	6808.9875
1010.23611	6950.8875
1013.95561	7006.1875
1017.67255	7016.7875
1021.38692	6938.7875
1025.09872	6847.2875
1028.80796	6739.3875
1032.51465	6694.6875
1036.21877	6707.1875
1039.92035	6767.7875
1043.61937	6810.8875
1047.31584	6841.6875
1051.00976	6848.9875
1054.70114	6844.1875
1058.38998	6855.9875
1062.07627	6862.7875
1065.76003	6933.8875
1069.44126	7039.1875
1073.11995	7199.2875
1076.79611	7383.2875
1080.46974	7535.7875
1084.14085	7666.3875
1087.80943	7780.9875
1091.47549	7857.7875
1095.13903	7838.7875
1098.80005	7711.2875
1102.45857	7595.8875
1106.11456	7448.7875
1109.76805	7367.1875
1113.41903	7416.0875
1117.06751	7558.0875
1120.71348	7808.4875
1124.35696	8118.5875
1127.99793	8321.2875
1131.63641	8171.2875
1135.2724	7816.2875
1138.90589	7566.3875
1142.5369	7452.3875
1146.16542	7406.9875
1149.79145	7366.2875
1153.415	7252.0875
1157.03607	7169.2875
1160.65467	7209.4875
1164.27079	7374.5875
1167.88443	7635.2875
1171.49561	8041.0875
1175.10432	8692.5875
1178.71056	9573.0875
1182.31434	10365.2875
1185.91565	10588.7875
1189.51451	10406.4875
1193.11091	10125.3875
1196.70485	9849.6875
1200.29634	9599.3875
1203.88538	9335.5875
1207.47197	8976.4875
1211.05612	8592.9875
1214.63782	8307.3875
1218.21708	8064.2875
1221.79391	7875.7875
1225.36829	7762.9875
1228.94024	7699.8875
1232.50976	7681.4875
1236.07685	7694.6875
1239.6415	7730.2875
1243.20374	7739.4875
1246.76355	7820.3875
1250.32093	7930.1875
1253.8759	8125.6875
1257.42845	8366.4875
1260.97859	8659.3875
1264.52631	8859.6875
1268.07163	9034.4875
1271.61453	9146.7875
1275.15503	9145.6875
1278.69312	9160.6875
1282.22882	9178.1875
1285.76211	9294.1875
1289.29301	9510.9875
1292.82151	9765.9875
1296.34761	9988.6875
1299.87133	10377.9875
1303.39266	11043.4875
1306.9116	12086.1875
1310.42815	13111.1875
1313.94233	13418.8875
1317.45412	12770.2875
1320.96354	11794.3875
1324.47058	10905.6875
1327.97525	10181.2875
1331.47754	9769.6875
1334.97747	9700.4875
1338.47502	9840.0875
1341.97022	10248.1875
1345.46305	11000.2875
1348.95352	12043.9875
1352.44163	13231.2875
1355.92738	14475.1875
1359.41078	16052.0875
1362.89183	17323.4875
1366.37053	16646.3875
1369.84688	13964.0875
1373.32088	11490.4875
1376.79254	10098.6875
1380.26186	9473.3875
1383.72883	9102.3875
1387.19347	8759.1875
1390.65578	8435.0875
1394.11575	8187.0875
1397.57339	7988.2875
1401.0287	7867.7875
1404.48168	7808.1875
1407.93234	7793.8875
1411.38068	7885.6875
1414.82669	7917.5875
1418.27039	8008.0875
1421.71177	7954.8875
1425.15083	7854.4875
1428.58758	7791.3875
1432.02203	7846.0875
1435.45416	7920.4875
1438.88399	8007.4875
1442.31151	8063.3875
1445.73673	8107.2875
1449.15965	8156.5875
1452.58027	8148.4875
1455.9986	8078.7875
1459.41463	8066.0875
1462.82837	8157.4875
1466.23982	8311.9875
1469.64898	8533.2875
1473.05586	8683.4875
1476.46045	8751.1875
1479.86276	8832.8875
1483.26279	8945.3875
1486.66054	9167.8875
1490.05602	9493.8875
1493.44922	9995.9875
1496.84016	10835.5875
1500.22882	12100.9875
1503.61521	13753.1875
1506.99934	15330.3875
1510.38121	16270.0875
1513.76081	15982.5875
1517.13816	14505.3875
1520.51324	12651.0875
1523.88607	11180.9875
1527.25665	10262.1875
1530.62498	9823.9875
1533.99105	9633.4875
1537.35488	9516.8875
1540.71647	9451.9875
1544.07581	9358.3875
1547.4329	9262.7875
1550.78776	9152.6875
1554.14038	9004.4875
1557.49077	8933.5875
1560.83892	9016.0875
1564.18484	9247.6875
1567.52853	9602.9875
1570.86999	9923.6875
1574.20922	10032.4875
1577.54624	9882.6875
1580.88103	9343.9875
1584.2136	8707.7875
1587.54395	8364.1875
1590.87208	8293.9875
1594.19801	8558.6875
1597.52172	8937.5875
1600.84321	9144.7875
1604.16251	9074.3875
1607.47959	8907.8875
1610.79447	8616.2875
1614.10715	8211.8875
1617.41763	7798.8875
1620.7259	7468.4875
1624.03199	7286.0875
1627.33587	7239.5875
1630.63757	7299.9875
1633.93707	7522.3875
1637.23439	7975.9875
1640.52951	8675.3875
1643.82246	9727.3875
1647.11321	10901.4875
1650.40179	11574.3875
1653.68819	11211.6875
1656.97241	9920.8875
1660.25446	8516.7875
1663.53433	7530.0875
1666.81203	6958.2875
1670.08756	6627.8875
1673.36092	6435.3875
1676.63211	6309.8875
1679.90115	6196.9875
1683.16801	6124.4875
1686.43272	6078.6875
1689.69527	6028.7875
1692.95567	5994.7875
1696.2139	5968.9875
1699.46999	5948.0875
1702.72392	5947.7875
1705.97571	5919.5875
1709.22535	5939.9875
1712.47284	5928.4875
1715.71819	5917.0875
1718.96139	5913.7875
1722.20246	5903.3875
1725.44139	5860.8875
1728.67818	5836.3875
1731.91284	5802.5875
1735.14537	5760.6875
1738.37576	5749.6875
1741.60403	5727.2875
1744.83017	5717.1875
1748.05418	5722.3875
1751.27607	5706.1875
1754.49584	5658.8875
1757.71349	5660.3875
1760.92903	5631.7875
1764.14244	5651.1875
1767.35375	5616.1875
1770.56294	5617.8875
1773.77002	5598.7875
1776.97499	5596.0875
1780.17785	5555.3875
1783.37861	5535.1875
1786.57727	5533.2875
1789.77382	5517.5875
1792.96828	5505.9875
1796.16064	5497.8875
1799.3509	5477.8875
1802.53907	5478.5875
1805.72514	5480.8875
1808.90913	5446.7875
1812.09102	5442.3875
1815.27083	5433.5875
1818.44856	5395.6875
1821.6242	5386.9875
1824.79776	5389.2875
1827.96924	5378.9875
1831.13864	5374.8875
1834.30597	5357.1875
1837.47122	5353.0875
1840.6344	5337.8875
1843.7955	5327.9875
1846.95454	5324.1875
1850.11151	5315.2875
1853.26642	5328.0875
1856.41926	5333.4875
1859.57004	5322.7875
1862.71876	5293.2875
1865.86542	5294.3875
1869.01003	5284.2875
1872.15258	5289.1875
1875.29308	5286.7875
1878.43152	5276.1875
1881.56792	5257.3875
1884.70227	5263.9875
1887.83457	5257.3875
1890.96482	5248.0875
1894.09304	5237.9875
1897.21921	5211.0875
1900.34335	5209.6875
1903.46544	5208.2875
1906.58551	5205.2875
1909.70353	5208.8875
1912.81953	5193.3875
1915.93349	5205.3875
1919.04543	5176.6875
1922.15534	5169.4875
1925.26322	5154.8875
1928.36908	5138.3875
1931.47292	5130.8875
1934.57473	5119.0875
1937.67453	5098.9875
1940.77232	5109.1875
1943.86808	5089.6875
1946.96184	5056.1875
1950.05358	5051.4875
1953.14331	5041.7875
1956.23103	5001.8875
1959.31675	4985.0875
1962.40046	4987.0875
1965.48217	4972.4875
1968.56188	4956.6875
1971.63959	4948.1875
1974.7153	4952.3875
1977.78901	4925.6875
1980.86073	4903.5875
1983.93046	4885.9875
1986.99819	4881.8875
1990.06394	4857.5875
1993.1277	4840.6875
1996.18947	4837.3875
1999.24925	4813.4875
2002.30706	4798.9875
2005.36288	4777.4875
2008.41672	4755.0875
2011.46859	4732.3875
2014.51848	4718.6875
2017.56639	4712.5875
2020.61233	4718.1875
2023.6563	4700.1875
2026.6983	4686.3875
2029.73833	4673.7875
2032.7764	4648.5875
2035.8125	4639.1875
2038.84664	4621.5875
2041.87881	4621.4875
2044.90903	4618.8875
2047.93729	4605.6875
2050.96359	4607.6875
2053.98794	4591.1875
2057.01034	4589.6875
2060.03078	4562.0875
2063.04927	4561.7875
2066.06582	4563.0875
2069.08042	4550.2875
2072.09307	4559.1875
2075.10378	4543.4875
2078.11255	4552.2875
2081.11938	4545.8875
2084.12426	4555.9875
2087.12722	4539.2875
2090.12824	4531.0875
2093.12732	4531.9875
2096.12447	4547.2875
2099.11969	4531.6875
2102.11299	4539.1875
2105.10435	4560.0875
2108.09379	4542.5875
2111.08131	4528.4875
2114.0669	4543.1875
2117.05057	4537.2875
2120.03233	4555.7875
2123.01216	4551.9875
2125.99008	4546.0875
2128.96609	4555.2875
2131.94018	4573.6875
2134.91236	4558.4875
2137.88263	4564.5875
2140.851	4549.0875
2143.81746	4551.4875
2146.78201	4553.5875
2149.74466	4540.1875
2152.7054	4531.7875
2155.66425	4539.9875
2158.6212	4559.5875
2161.57625	4543.2875
2164.52941	4536.8875
2167.48067	4543.4875
2170.43004	4527.5875
2173.37752	4517.1875
2176.32311	4526.7875
2179.26681	4521.6875
2182.20863	4520.5875
2185.14856	4520.5875
2188.08661	4538.0875
2191.02278	4524.2875
2193.95707	4523.1875
2196.88948	4516.6875
2199.82001	4518.7875
2202.74867	4500.9875
2205.67545	4499.8875
2208.60037	4494.7875
2211.52341	4482.0875
2214.44458	4475.8875
2217.36388	4470.8875
2220.28132	4434.1875
2223.1969	4436.5875
2226.11061	4422.0875
2229.02246	4416.3875
2231.93245	4397.4875
2234.84058	4389.2875
2237.74686	4407.1875
2240.65128	4399.1875
2243.55385	4388.8875
2246.45456	4385.2875
2249.35343	4383.8875
2252.25044	4367.6875
2255.14561	4376.6875
2258.03893	4371.2875
2260.93041	4373.3875
2263.82004	4356.2875
2266.70783	4343.9875
2269.59378	4325.1875
2272.4779	4326.1875
2275.36017	4305.9875
2278.24061	4296.2875
2281.11922	4287.1875
2283.996	4264.1875
2286.87094	4263.3875
2289.74405	4265.6875
2292.61534	4263.0875
2295.4848	4240.0875
2298.35243	4243.7875
2301.21824	4241.2875
2304.08223	4241.6875
2306.94439	4246.1875
2309.80474	4250.6875
2312.66327	4241.7875
2315.51999	4213.8875
2318.37489	4201.9875
2321.22797	4209.5875
2324.07925	4200.7875
2326.92871	4182.7875
2329.77637	4178.9875
2332.62222	4169.8875
2335.46626	4176.2875
2338.3085	4173.8875
2341.14893	4152.8875
2343.98756	4162.7875
2346.8244	4167.6875
2349.65943	4160.4875
2352.49267	4169.0875
2355.32411	4177.2875
2358.15376	4168.7875
2360.98161	4166.5875
2363.80768	4169.1875
2366.63195	4170.5875
2369.45444	4162.2875
2372.27514	4158.4875
2375.09405	4144.0875
2377.91118	4149.9875
2380.72652	4133.4875
2383.54009	4121.2875
2386.35187	4108.6875
2389.16188	4086.1875
2391.97011	4084.0875
2394.77657	4069.0875
2397.58125	4066.1875
2400.38416	4052.9875
2403.18529	4053.2875
2405.98466	4043.8875
2408.78226	4042.7875
2411.57809	4019.4875
2414.37216	4022.1875
2417.16446	4037.5875
2419.955	4006.1875
2422.74378	3999.7875
2425.5308	4013.5875
2428.31606	4002.8875
2431.09956	4006.9875
2433.88131	4003.9875
2436.6613	3988.6875
2439.43954	4011.3875
2442.21603	3990.0875
2444.99077	3976.6875
2447.76377	3984.9875
2450.53501	3979.2875
2453.30451	3983.1875
2456.07226	3988.6875
2458.83827	3972.6875
2461.60254	3971.3875
2464.36507	3967.1875
2467.12586	3967.8875
2469.88492	3955.6875
2472.64224	3963.3875
2475.39782	3959.1875
2478.15167	3947.3875
2480.90379	3950.0875
2483.65417	3959.4875
2486.40283	3969.1875
2489.14976	3970.2875
2491.89497	3962.3875
2494.63845	3970.4875
2497.3802	3968.7875
2500.12024	3946.7875
2502.85855	3927.3875
2505.59514	3919.5875
2508.33002	3921.0875
2511.06318	3896.9875
2513.79462	3887.6875
2516.52435	3889.8875
2519.25237	3869.8875
2521.97867	3884.3875
2524.70327	3880.7875
2527.42616	3857.7875
2530.14734	3857.0875
2532.86681	3844.4875
2535.58458	3852.5875
2538.30065	3855.3875
2541.01501	3845.7875
2543.72768	3849.3875
2546.43864	3835.6875
2549.14791	3833.5875
2551.85548	3839.2875
2554.56136	3832.3875
2557.26554	3822.9875
2559.96803	3831.8875
2562.66883	3812.4875
2565.36794	3809.4875
2568.06536	3810.1875
2570.7611	3766.5875
2573.45514	3777.6875
2576.14751	3772.2875
2578.83819	3758.6875
2581.52719	3749.8875
2584.21451	3742.5875
2586.90015	3726.1875
2589.58411	3706.7875
2592.2664	3698.7875
2594.94701	3717.3875
2597.62594	3689.7875
2600.30321	3697.1875
2602.9788	3709.9875
2605.65273	3689.9875
2608.32498	3685.0875
2610.99557	3684.5875
2613.66449	3689.0875
2616.33175	3667.9875
2618.99734	3665.2875
2621.66128	3648.1875
2624.32355	3648.9875
2626.98416	3656.9875
2629.64311	3636.7875
2632.30041	3635.3875
2634.95605	3619.6875
2637.61004	3611.3875
2640.26238	3605.6875
2642.91306	3612.6875
2645.56209	3601.7875
2648.20948	3603.4875
2650.85521	3600.4875
2653.4993	3600.1875
2656.14175	3598.7875
2658.78255	3595.2875
2661.42171	3598.4875
2664.05923	3608.2875
2666.6951	3618.7875
2669.32934	3613.7875
2671.96194	3597.9875
2674.59291	3603.5875
2677.22224	3608.0875
2679.84993	3611.8875
2682.476	3606.3875
2685.10043	3578.6875
2687.72324	3583.8875
2690.34441	3584.4875
2692.96396	3585.1875
2695.58188	3575.5875
2698.19818	3581.0875
2700.81285	3587.0875
2703.4259	3579.1875
2706.03733	3585.7875
2708.64714	3573.8875
2711.25533	3560.9875
2713.86191	3550.5875
2716.46687	3570.5875
2719.07021	3582.9875
2721.67194	3579.0875
2724.27206	3575.3875
2726.87057	3572.8875
2729.46747	3574.6875
2732.06276	3559.2875
2734.65644	3544.4875
2737.24852	3558.4875
2739.83899	3558.8875
2742.42786	3546.1875
2745.01513	3562.8875
2747.60079	3547.9875
2750.18486	3524.0875
2752.76733	3523.2875
2755.3482	3531.1875
2757.92747	3506.8875
2760.50515	3504.0875
2763.08123	3512.7875
2765.65573	3484.1875
2768.22863	3489.3875
2770.79994	3466.2875
2773.36967	3464.4875
2775.9378	3475.3875
2778.50435	3470.6875
2781.06932	3459.7875
2783.6327	3449.5875
2786.1945	3457.2875
2788.75471	3438.2875
2791.31335	3436.9875
2793.87041	3435.4875
2796.42589	3420.5875
2798.97979	3424.5875
2801.53212	3401.0875
2804.08288	3412.1875
2806.63206	3411.2875
2809.17967	3407.1875
2811.72571	3397.7875
2814.27018	3408.8875
2816.81308	3387.6875
2819.35442	3370.5875
2821.89419	3361.8875
2824.43239	3369.0875
2826.96904	3357.1875
2829.50412	3371.1875
2832.03763	3342.4875
2834.56959	3333.4875
2837.1	3334.4875
2839.62884	3321.0875
2842.15613	3315.4875
2844.68186	3319.8875
2847.20604	3303.6875
2849.72867	3308.4875
2852.24974	3295.5875
2854.76927	3286.9875
2857.28724	3283.4875
2859.80367	3283.5875
2862.31855	3284.4875
2864.83189	3272.1875
2867.34368	3282.4875
2869.85393	3280.3875
2872.36264	3278.3875
2874.8698	3268.1875
2877.37543	3264.2875
2879.87952	3269.1875
2882.38207	3255.9875
2884.88308	3251.7875
2887.38256	3247.7875
2889.88051	3251.8875
2892.37692	3245.2875
2894.8718	3223.4875
2897.36515	3240.9875
2899.85698	3233.0875
2902.34727	3232.5875
2904.83604	3230.6875
2907.32328	3239.4875
2909.809	3238.8875
2912.29319	3248.1875
2914.77587	3253.6875
2917.25702	3239.3875
2919.73665	3248.1875
2922.21476	3252.5875
2924.69136	3240.2875
2927.16644	3235.8875
2929.64	3228.8875
2932.11205	3226.3875
2934.58258	3213.5875
2937.05161	3208.1875
2939.51912	3197.0875
2941.98513	3198.0875
2944.44962	3176.5875
2946.91261	3182.9875
2949.37409	3179.4875
2951.83407	3189.4875
2954.29254	3184.3875
2956.74951	3173.4875
2959.20498	3174.1875
2961.65895	3162.6875
2964.11142	3142.5875
2966.56239	3168.8875
2969.01186	3168.9875
2971.45984	3160.9875
2973.90632	3161.0875
2976.35131	3144.7875
2978.7948	3140.2875
2981.23681	3130.9875
2983.67732	3131.2875
2986.11635	3126.4875
2988.55388	3120.2875
2990.98993	3114.4875
2993.4245	3084.8875
2995.85758	3111.9875
2998.28917	3101.9875
3000.71928	3089.6875
3003.14791	3083.9875
3005.57506	3067.3875
3008.00073	3055.3875
3010.42493	3051.1875
3012.84764	3036.9875
3015.26888	3031.9875
3017.68865	3027.2875
3020.10694	3025.2875
3022.52376	3024.8875
3024.9391	3007.7875
3027.35298	3001.2875
3029.76539	2980.8875
3032.17632	2977.7875
3034.5858	2978.2875
3036.9938	2982.8875
3039.40034	2964.8875
3041.80542	2956.1875
3044.20903	2959.7875
3046.61118	2945.4875
3049.01187	2937.3875
3051.4111	2935.8875
3053.80888	2930.6875
3056.20519	2922.9875
3058.60005	2920.0875
3060.99345	2902.1875
3063.3854	2910.8875
3065.7759	2906.9875
3068.16494	2905.3875
3070.55254	2883.9875
3072.93868	2883.0875
3075.32338	2875.4875
3077.70662	2846.2875
3080.08842	2855.5875
3082.46878	2832.1875
3084.84769	2835.1875
3087.22515	2824.7875
3089.60118	2827.2875
3091.97576	2830.9875
3094.3489	2834.6875
3096.72061	2832.1875
3099.09087	2812.0875
3101.4597	2819.9875
3103.82709	2805.6875
3106.19305	2799.9875
3108.55757	2804.4875
3110.92066	2803.0875
3113.28232	2788.7875
3115.64255	2780.0875
3118.00134	2766.8875
3120.35871	2765.4875
3122.71466	2769.1875
3125.06917	2767.4875
3127.42226	2757.1875
3129.77393	2749.4875
3132.12417	2746.6875
3134.47299	2746.2875
3136.82039	2734.2875
3139.16636	2721.1875
3141.51092	2728.8875
3143.85406	2722.0875
3146.19579	2738.6875
3148.53609	2729.7875
3150.87499	2724.0875
3153.21246	2722.4875
3155.54853	2725.3875
3157.88318	2729.5875
3160.21642	2723.3875
3162.54826	2720.9875
3164.87868	2711.5875
3167.2077	2714.7875
3169.5353	2708.7875
3171.86151	2711.1875
3174.18631	2690.7875
3176.5097	2694.9875
3178.83169	2690.6875
3181.15228	2690.0875
3183.47147	2676.5875
3185.78926	2667.4875
3188.10565	2664.8875
3190.42065	2656.1875
3192.73424	2652.6875
3195.04645	2639.6875
3197.35725	2632.6875
3199.66667	2637.6875
3201.97469	2639.5875
3204.28132	2637.4875
3206.58656	2634.4875
3208.8904	2645.4875
3211.19287	2631.8875
3213.49394	2639.6875
3215.79363	2646.4875
3218.09193	2634.6875
3220.38884	2630.3875
3222.68438	2630.8875
3224.97853	2627.4875
3227.2713	2629.8875
3229.56269	2628.0875
3231.8527	2615.4875
3234.14133	2605.3875
3236.42858	2595.1875
3238.71446	2586.9875
3240.99896	2585.4875
3243.28209	2569.8875
3245.56384	2584.3875
3247.84423	2572.2875
3250.12324	2565.9875
3252.40088	2562.0875
3254.67715	2567.4875
3256.95205	2559.0875
3259.22558	2552.1875
3261.49775	2549.5875
3263.76855	2562.4875
3266.03799	2555.6875
3268.30606	2550.7875
3270.57277	2560.5875
3272.83812	2549.5875
3275.10211	2549.2875
3277.36474	2534.7875
3279.62601	2519.4875
3281.88593	2519.1875
3284.14448	2511.2875
3286.40168	2511.7875
3288.65753	2514.9875
3290.91202	2504.9875
3293.16516	2494.4875
3295.41695	2499.0875
3297.66738	2479.6875
3299.91647	2483.3875
3302.16421	2457.8875
3304.4106	2451.6875
3306.65564	2429.4875
3308.89933	2414.4875
3311.14169	2399.0875
3313.38269	2374.9875
3315.62236	2355.8875
3317.86068	2328.1875
3320.09766	2317.3875
3322.3333	2289.9875
3324.5676	2284.0875
3326.80056	2237.3875
3329.03219	2226.3875
3331.26248	2.5875
3333.49143	-1.6125
3335.71905	-0.6125
