Data from AgNPs_UA_50uM_CRN_500uM_SU_RamanShift__87__14-10-20-330.txt Node

Date: Thu Aug 04 14:10:20 BST 2022
User: TCL
Spectrometer: QEP01345
Trigger mode: 4
Integration Time (sec): 1.000000E0
Scans to average: 10
Electric dark correction enabled: true
Nonlinearity correction enabled: false
Boxcar width: 0
XAxis mode: Raman Shifts
Number of Pixels in Spectrum: 1044
>>>>>Begin Spectral Data<<<<<
46.04893	0.925
50.45542	0.325
54.85868	-0.375
59.25871	-0.975
63.6555	12.525
68.04907	10.825
72.43941	13.125
76.82654	14.525
81.21044	15.525
85.59113	16.425
89.96862	17.525
94.34289	17.525
98.71396	18.225
103.08183	17.225
107.4465	16.325
111.80798	16.825
116.16626	17.525
120.52136	17.825
124.87327	19.725
129.222	22.025
133.56755	24.125
137.90993	26.125
142.24913	27.725
146.58517	29.025
150.91804	35.525
155.24774	43.525
159.57429	56.125
163.89768	68.425
168.21792	91.425
172.53501	125.625
176.84895	174.225
181.15975	249.525
185.46741	351.125
189.77193	480.625
194.07331	643.725
198.37157	834.525
202.6667	1022.325
206.9587	1209.625
211.24758	1409.025
215.53334	1613.625
219.81599	1807.525
224.09553	2036.025
228.37195	2288.425
232.64527	2570.225
236.91549	2835.125
241.18261	3095.825
245.44663	3308.725
249.70755	3508.625
253.96539	3675.525
258.22014	3809.025
262.4718	3933.325
266.72039	4058.025
270.96589	4094.925
275.20832	4086.625
279.44768	4034.125
283.68397	3970.925
287.91719	3946.925
292.14735	3920.225
296.37445	3976.325
300.59849	4067.925
304.81948	4197.125
309.03742	4311.225
313.25231	4351.125
317.46415	4261.925
321.67296	4145.825
325.87872	3999.825
330.08145	3946.525
334.28114	3972.525
338.47781	4039.325
342.67145	4116.425
346.86207	4229.125
351.04966	4375.825
355.23424	4543.325
359.4158	4644.225
363.59435	4723.125
367.76989	4762.525
371.94243	4805.225
376.11196	4822.725
380.27849	4840.125
384.44203	4841.725
388.60257	4872.225
392.76012	4899.725
396.91468	4962.525
401.06626	5062.325
405.21485	5128.325
409.36047	5082.225
413.50311	4942.425
417.64277	4810.125
421.77947	4738.725
425.9132	4737.725
430.04396	4794.025
434.17176	4917.225
438.2966	5098.625
442.41849	5334.525
446.53742	5614.525
450.6534	5888.225
454.76644	6070.125
458.87653	6031.425
462.98368	5866.925
467.08789	5618.525
471.18916	5377.925
475.2875	5139.325
479.38291	4939.725
483.4754	4800.725
487.56496	4718.025
491.6516	4650.825
495.73531	4631.725
499.81612	4605.325
503.89401	4644.825
507.96899	4668.225
512.04106	4701.425
516.11023	4753.925
520.1765	4830.525
524.23987	4879.925
528.30034	4910.125
532.35792	4898.525
536.41261	4833.625
540.46441	4724.125
544.51333	4704.925
548.55936	4730.925
552.60252	4799.925
556.64279	4903.325
560.6802	4904.825
564.71473	4880.325
568.7464	4910.625
572.7752	4912.725
576.80114	4922.025
580.82422	4922.025
584.84444	5005.425
588.86181	5260.125
592.87633	5544.425
596.888	5692.025
600.89682	5800.725
604.9028	6305.325
608.90594	7374.125
612.90624	8234.925
616.90371	7470.825
620.89834	5941.625
624.89015	5360.825
628.87913	5277.425
632.86528	5190.825
636.84862	5092.925
640.82913	4921.325
644.80683	4748.925
648.78172	4661.425
652.75379	4694.825
656.72306	4868.625
660.68952	4988.825
664.65319	4971.625
668.61405	4875.025
672.57211	4844.925
676.52738	4857.425
680.47986	4755.425
684.42955	4710.325
688.37646	4719.925
692.32058	4772.425
696.26192	4859.825
700.20048	4952.625
704.13626	4955.125
708.06928	4863.025
711.99952	4823.625
715.927	4836.425
719.85171	4871.525
723.77365	4873.925
727.69284	4814.425
731.60928	4789.225
735.52295	4813.825
739.43388	4860.225
743.34206	4899.525
747.24749	4919.025
751.15017	4955.725
755.05012	5016.225
758.94733	5185.325
762.8418	5594.625
766.73354	6150.825
770.62254	6669.425
774.50882	6877.225
778.39237	6579.625
782.27321	5970.325
786.15132	5410.425
790.02671	5084.525
793.89938	4944.225
797.76935	4896.125
801.6366	4874.825
805.50115	4850.625
809.36299	4827.025
813.22213	4807.225
817.07857	4780.925
820.93231	4784.325
824.78336	4791.325
828.63172	4809.825
832.47738	4812.625
836.32036	4834.025
840.16066	4859.325
843.99827	4846.025
847.8332	4836.025
851.66546	4820.325
855.49504	4823.025
859.32195	4801.225
863.1462	4785.325
866.96777	4777.625
870.78668	4782.425
874.60293	4783.825
878.41652	4796.225
882.22745	4837.125
886.03573	4857.625
889.84136	4839.425
893.64433	4815.125
897.44466	4817.225
901.24235	4786.425
905.0374	4787.425
908.8298	4765.525
912.61957	4756.725
916.40671	4791.725
920.19121	4834.525
923.97308	4930.125
927.75233	4986.425
931.52895	4992.625
935.30295	4927.825
939.07433	4828.225
942.84309	4753.425
946.60924	4737.225
950.37278	4719.425
954.13371	4667.325
957.89203	4656.125
961.64774	4639.525
965.40086	4617.125
969.15137	4622.925
972.89929	4589.825
976.64461	4597.125
980.38733	4631.625
984.12747	4659.825
987.86502	4693.725
991.59999	4791.525
995.33237	4921.425
999.06217	5152.125
1002.78939	5350.625
1006.51404	5429.925
1010.23611	5496.725
1013.95561	5610.425
1017.67255	5676.025
1021.38692	5579.925
1025.09872	5496.425
1028.80796	5532.725
1032.51465	5663.825
1036.21877	5777.325
1039.92035	5752.125
1043.61937	5643.725
1047.31584	5474.925
1051.00976	5322.725
1054.70114	5262.825
1058.38998	5258.025
1062.07627	5246.725
1065.76003	5276.525
1069.44126	5299.125
1073.11995	5336.725
1076.79611	5395.125
1080.46974	5460.725
1084.14085	5537.725
1087.80943	5612.625
1091.47549	5561.625
1095.13903	5468.825
1098.80005	5359.725
1102.45857	5276.725
1106.11456	5277.325
1109.76805	5328.325
1113.41903	5429.625
1117.06751	5523.525
1120.71348	5679.725
1124.35696	5824.225
1127.99793	5915.225
1131.63641	5840.225
1135.2724	5695.225
1138.90589	5559.425
1142.5369	5442.725
1146.16542	5391.425
1149.79145	5355.525
1153.415	5357.525
1157.03607	5411.525
1160.65467	5494.725
1164.27079	5672.125
1167.88443	5925.525
1171.49561	6319.425
1175.10432	6908.625
1178.71056	7718.625
1182.31434	8440.125
1185.91565	8915.325
1189.51451	8962.625
1193.11091	8646.825
1196.70485	8032.125
1200.29634	7452.325
1203.88538	6985.425
1207.47197	6581.725
1211.05612	6318.925
1214.63782	6227.125
1218.21708	6214.625
1221.79391	6270.425
1225.36829	6298.725
1228.94024	6307.525
1232.50976	6261.425
1236.07685	6286.525
1239.6415	6368.325
1243.20374	6399.425
1246.76355	6397.625
1250.32093	6476.925
1253.8759	6641.625
1257.42845	6867.325
1260.97859	7146.725
1264.52631	7325.425
1268.07163	7512.425
1271.61453	7578.625
1275.15503	7655.725
1278.69312	7785.425
1282.22882	7963.325
1285.76211	8199.125
1289.29301	8469.925
1292.82151	8728.825
1296.34761	8963.025
1299.87133	9269.325
1303.39266	9742.425
1306.9116	10468.725
1310.42815	11221.425
1313.94233	11543.525
1317.45412	11322.225
1320.96354	10822.525
1324.47058	10376.025
1327.97525	10131.825
1331.47754	10157.525
1334.97747	10383.025
1338.47502	10591.625
1341.97022	10745.425
1345.46305	10831.825
1348.95352	11139.425
1352.44163	11585.225
1355.92738	12234.325
1359.41078	13010.125
1362.89183	13330.725
1366.37053	12607.125
1369.84688	11167.925
1373.32088	9817.525
1376.79254	9028.125
1380.26186	8627.825
1383.72883	8410.825
1387.19347	8118.125
1390.65578	7732.725
1394.11575	7440.625
1397.57339	7309.525
1401.0287	7372.025
1404.48168	7578.325
1407.93234	7877.125
1411.38068	8112.625
1414.82669	8157.625
1418.27039	8008.625
1421.71177	7791.625
1425.15083	7728.225
1428.58758	7863.625
1432.02203	8098.525
1435.45416	8225.525
1438.88399	8252.125
1442.31151	8203.525
1445.73673	8121.625
1449.15965	8067.425
1452.58027	7886.525
1455.9986	7683.225
1459.41463	7623.425
1462.82837	7699.325
1466.23982	7929.425
1469.64898	8170.225
1473.05586	8360.625
1476.46045	8534.125
1479.86276	8643.325
1483.26279	8697.325
1486.66054	8739.425
1490.05602	8818.325
1493.44922	8963.025
1496.84016	9172.425
1500.22882	9582.925
1503.61521	10132.925
1506.99934	10661.625
1510.38121	10887.625
1513.76081	10658.825
1517.13816	9992.425
1520.51324	9250.825
1523.88607	8731.625
1527.25665	8517.425
1530.62498	8496.625
1533.99105	8523.325
1537.35488	8567.125
1540.71647	8578.925
1544.07581	8488.725
1547.4329	8309.525
1550.78776	8044.125
1554.14038	7786.625
1557.49077	7600.725
1560.83892	7518.325
1564.18484	7505.525
1567.52853	7588.625
1570.86999	7637.025
1574.20922	7660.025
1577.54624	7568.225
1580.88103	7360.225
1584.2136	7184.725
1587.54395	7231.525
1590.87208	7627.925
1594.19801	8413.025
1597.52172	9349.925
1600.84321	10042.125
1604.16251	9968.825
1607.47959	9299.125
1610.79447	8357.425
1614.10715	7459.725
1617.41763	6820.625
1620.7259	6421.125
1624.03199	6259.425
1627.33587	6255.125
1630.63757	6430.225
1633.93707	6863.525
1637.23439	7530.025
1640.52951	8376.725
1643.82246	9337.925
1647.11321	9959.425
1650.40179	9778.225
1653.68819	8837.025
1656.97241	7595.425
1660.25446	6562.325
1663.53433	5892.725
1666.81203	5490.725
1670.08756	5231.025
1673.36092	5064.025
1676.63211	4950.125
1679.90115	4878.925
1683.16801	4807.225
1686.43272	4778.725
1689.69527	4744.725
1692.95567	4705.325
1696.2139	4699.025
1699.46999	4679.525
1702.72392	4676.125
1705.97571	4676.225
1709.22535	4679.125
1712.47284	4676.425
1715.71819	4667.125
1718.96139	4661.625
1722.20246	4640.125
1725.44139	4623.625
1728.67818	4593.925
1731.91284	4577.925
1735.14537	4554.825
1738.37576	4533.625
1741.60403	4520.325
1744.83017	4502.525
1748.05418	4500.225
1751.27607	4481.225
1754.49584	4466.025
1757.71349	4468.325
1760.92903	4466.725
1764.14244	4460.925
1767.35375	4465.225
1770.56294	4464.525
1773.77002	4447.925
1776.97499	4422.625
1780.17785	4416.825
1783.37861	4415.525
1786.57727	4404.825
1789.77382	4412.425
1792.96828	4412.025
1796.16064	4412.525
1799.3509	4402.125
1802.53907	4405.725
1805.72514	4398.725
1808.90913	4380.725
1812.09102	4357.725
1815.27083	4354.725
1818.44856	4350.025
1821.6242	4327.125
1824.79776	4343.425
1827.96924	4318.325
1831.13864	4289.225
1834.30597	4304.625
1837.47122	4287.025
1840.6344	4285.725
1843.7955	4296.525
1846.95454	4298.525
1850.11151	4291.925
1853.26642	4303.025
1856.41926	4299.325
1859.57004	4312.425
1862.71876	4293.125
1865.86542	4288.625
1869.01003	4296.125
1872.15258	4287.625
1875.29308	4282.625
1878.43152	4287.825
1881.56792	4296.125
1884.70227	4290.825
1887.83457	4277.325
1890.96482	4272.825
1894.09304	4270.225
1897.21921	4268.125
1900.34335	4275.025
1903.46544	4270.525
1906.58551	4245.425
1909.70353	4240.425
1912.81953	4250.525
1915.93349	4252.525
1919.04543	4237.625
1922.15534	4222.925
1925.26322	4225.225
1928.36908	4230.825
1931.47292	4230.225
1934.57473	4205.525
1937.67453	4218.525
1940.77232	4192.625
1943.86808	4187.025
1946.96184	4190.125
1950.05358	4171.925
1953.14331	4160.225
1956.23103	4146.425
1959.31675	4121.925
1962.40046	4109.425
1965.48217	4102.925
1968.56188	4098.925
1971.63959	4076.025
1974.7153	4077.625
1977.78901	4053.725
1980.86073	4053.225
1983.93046	4046.025
1986.99819	4026.925
1990.06394	4017.425
1993.1277	4007.525
1996.18947	3988.225
1999.24925	3970.925
2002.30706	3958.525
2005.36288	3932.725
2008.41672	3939.725
2011.46859	3920.625
2014.51848	3923.525
2017.56639	3911.425
2020.61233	3898.225
2023.6563	3899.425
2026.6983	3867.425
2029.73833	3855.825
2032.7764	3844.825
2035.8125	3854.125
2038.84664	3858.625
2041.87881	3851.525
2044.90903	3830.225
2047.93729	3834.725
2050.96359	3824.225
2053.98794	3817.325
2057.01034	3824.325
2060.03078	3826.425
2063.04927	3820.725
2066.06582	3821.625
2069.08042	3810.025
2072.09307	3794.725
2075.10378	3797.025
2078.11255	3799.325
2081.11938	3798.925
2084.12426	3794.125
2087.12722	3791.425
2090.12824	3781.725
2093.12732	3793.225
2096.12447	3780.325
2099.11969	3800.325
2102.11299	3790.025
2105.10435	3775.225
2108.09379	3784.825
2111.08131	3795.625
2114.0669	3773.625
2117.05057	3775.125
2120.03233	3779.425
2123.01216	3783.825
2125.99008	3782.825
2128.96609	3789.225
2131.94018	3786.425
2134.91236	3786.225
2137.88263	3782.925
2140.851	3787.425
2143.81746	3774.625
2146.78201	3784.025
2149.74466	3787.425
2152.7054	3780.725
2155.66425	3770.325
2158.6212	3786.625
2161.57625	3778.725
2164.52941	3784.225
2167.48067	3785.725
2170.43004	3769.625
2173.37752	3782.925
2176.32311	3775.425
2179.26681	3777.925
2182.20863	3786.925
2185.14856	3778.925
2188.08661	3776.525
2191.02278	3774.725
2193.95707	3774.525
2196.88948	3767.525
2199.82001	3767.725
2202.74867	3780.325
2205.67545	3785.625
2208.60037	3776.625
2211.52341	3781.925
2214.44458	3758.125
2217.36388	3767.625
2220.28132	3752.625
2223.1969	3732.625
2226.11061	3715.925
2229.02246	3717.625
2231.93245	3732.825
2234.84058	3714.125
2237.74686	3707.825
2240.65128	3700.225
2243.55385	3692.525
2246.45456	3691.125
2249.35343	3682.025
2252.25044	3694.925
2255.14561	3680.025
2258.03893	3677.225
2260.93041	3673.125
2263.82004	3656.425
2266.70783	3643.225
2269.59378	3642.525
2272.4779	3635.025
2275.36017	3620.525
2278.24061	3604.925
2281.11922	3592.925
2283.996	3590.625
2286.87094	3578.825
2289.74405	3583.125
2292.61534	3578.325
2295.4848	3580.625
2298.35243	3589.925
2301.21824	3588.725
2304.08223	3578.525
2306.94439	3569.825
2309.80474	3584.125
2312.66327	3571.325
2315.51999	3600.925
2318.37489	3593.925
2321.22797	3577.625
2324.07925	3574.225
2326.92871	3554.725
2329.77637	3550.725
2332.62222	3565.325
2335.46626	3550.925
2338.3085	3543.225
2341.14893	3574.125
2343.98756	3565.925
2346.8244	3554.225
2349.65943	3559.325
2352.49267	3573.025
2355.32411	3559.525
2358.15376	3549.125
2360.98161	3546.425
2363.80768	3548.025
2366.63195	3548.125
2369.45444	3532.925
2372.27514	3538.425
2375.09405	3522.325
2377.91118	3515.925
2380.72652	3506.825
2383.54009	3504.725
2386.35187	3496.325
2389.16188	3487.525
2391.97011	3486.225
2394.77657	3466.625
2397.58125	3465.725
2400.38416	3454.625
2403.18529	3440.625
2405.98466	3452.725
2408.78226	3439.425
2411.57809	3421.525
2414.37216	3418.225
2417.16446	3416.125
2419.955	3425.925
2422.74378	3413.925
2425.5308	3410.325
2428.31606	3395.925
2431.09956	3404.525
2433.88131	3409.125
2436.6613	3394.925
2439.43954	3404.125
2442.21603	3391.125
2444.99077	3389.225
2447.76377	3396.525
2450.53501	3381.725
2453.30451	3388.525
2456.07226	3386.125
2458.83827	3387.725
2461.60254	3365.425
2464.36507	3378.725
2467.12586	3372.025
2469.88492	3382.025
2472.64224	3367.725
2475.39782	3367.125
2478.15167	3356.825
2480.90379	3369.625
2483.65417	3388.625
2486.40283	3390.525
2489.14976	3395.525
2491.89497	3388.925
2494.63845	3394.525
2497.3802	3378.625
2500.12024	3374.225
2502.85855	3395.925
2505.59514	3387.725
2508.33002	3381.725
2511.06318	3367.425
2513.79462	3356.025
2516.52435	3363.025
2519.25237	3352.225
2521.97867	3346.825
2524.70327	3350.125
2527.42616	3342.425
2530.14734	3334.225
2532.86681	3345.725
2535.58458	3358.825
2538.30065	3345.525
2541.01501	3338.325
2543.72768	3329.325
2546.43864	3336.925
2549.14791	3328.825
2551.85548	3336.125
2554.56136	3326.525
2557.26554	3311.525
2559.96803	3313.725
2562.66883	3311.625
2565.36794	3296.725
2568.06536	3289.625
2570.7611	3296.925
2573.45514	3303.225
2576.14751	3284.625
2578.83819	3275.525
2581.52719	3279.925
2584.21451	3270.225
2586.90015	3276.625
2589.58411	3268.125
2592.2664	3273.325
2594.94701	3274.525
2597.62594	3274.225
2600.30321	3282.425
2602.9788	3274.525
2605.65273	3266.925
2608.32498	3262.425
2610.99557	3271.225
2613.66449	3272.225
2616.33175	3267.625
2618.99734	3281.725
2621.66128	3261.925
2624.32355	3271.625
2626.98416	3268.725
2629.64311	3273.025
2632.30041	3284.925
2634.95605	3269.025
2637.61004	3273.325
2640.26238	3258.425
2642.91306	3258.925
2645.56209	3262.325
2648.20948	3254.125
2650.85521	3248.125
2653.4993	3250.325
2656.14175	3232.225
2658.78255	3245.225
2661.42171	3252.425
2664.05923	3260.825
2666.6951	3261.625
2669.32934	3253.525
2671.96194	3250.725
2674.59291	3245.525
2677.22224	3248.025
2679.84993	3246.625
2682.476	3255.925
2685.10043	3240.625
2687.72324	3246.125
2690.34441	3250.225
2692.96396	3245.425
2695.58188	3240.525
2698.19818	3241.825
2700.81285	3242.625
2703.4259	3242.125
2706.03733	3255.525
2708.64714	3263.925
2711.25533	3227.725
2713.86191	3226.625
2716.46687	3221.525
2719.07021	3245.325
2721.67194	3237.325
2724.27206	3240.825
2726.87057	3231.125
2729.46747	3247.325
2732.06276	3245.025
2734.65644	3252.825
2737.24852	3243.925
2739.83899	3240.425
2742.42786	3240.525
2745.01513	3228.425
2747.60079	3234.325
2750.18486	3235.625
2752.76733	3230.925
2755.3482	3223.925
2757.92747	3216.525
2760.50515	3216.625
2763.08123	3227.725
2765.65573	3210.925
2768.22863	3206.225
2770.79994	3211.225
2773.36967	3195.725
2775.9378	3219.925
2778.50435	3215.425
2781.06932	3224.125
2783.6327	3211.425
2786.1945	3220.825
2788.75471	3216.325
2791.31335	3197.625
2793.87041	3217.425
2796.42589	3208.225
2798.97979	3201.925
2801.53212	3176.925
2804.08288	3181.525
2806.63206	3178.825
2809.17967	3168.725
2811.72571	3144.725
2814.27018	3155.025
2816.81308	3146.225
2819.35442	3144.425
2821.89419	3139.325
2824.43239	3132.525
2826.96904	3127.125
2829.50412	3137.025
2832.03763	3134.825
2834.56959	3129.325
2837.1	3122.725
2839.62884	3119.525
2842.15613	3110.225
2844.68186	3115.725
2847.20604	3116.525
2849.72867	3103.025
2852.24974	3098.225
2854.76927	3101.625
2857.28724	3084.425
2859.80367	3090.725
2862.31855	3081.525
2864.83189	3086.825
2867.34368	3086.225
2869.85393	3074.925
2872.36264	3066.325
2874.8698	3061.825
2877.37543	3068.925
2879.87952	3063.225
2882.38207	3050.625
2884.88308	3057.625
2887.38256	3040.925
2889.88051	3048.125
2892.37692	3053.225
2894.8718	3057.125
2897.36515	3043.825
2899.85698	3050.525
2902.34727	3041.125
2904.83604	3044.625
2907.32328	3055.825
2909.809	3048.825
2912.29319	3063.125
2914.77587	3068.125
2917.25702	3062.525
2919.73665	3052.625
2922.21476	3058.625
2924.69136	3048.925
2927.16644	3044.425
2929.64	3043.825
2932.11205	3039.425
2934.58258	3033.125
2937.05161	3040.225
2939.51912	3049.625
2941.98513	3030.525
2944.44962	3039.125
2946.91261	3021.725
2949.37409	3029.425
2951.83407	3008.325
2954.29254	3016.825
2956.74951	3012.325
2959.20498	3014.925
2961.65895	3002.325
2964.11142	2995.025
2966.56239	2984.925
2969.01186	2984.725
2971.45984	2996.625
2973.90632	2981.925
2976.35131	2977.625
2978.7948	2969.425
2981.23681	2964.225
2983.67732	2961.025
2986.11635	2953.425
2988.55388	2939.625
2990.98993	2923.025
2993.4245	2924.225
2995.85758	2915.025
2998.28917	2911.925
3000.71928	2910.325
3003.14791	2898.025
3005.57506	2895.425
3008.00073	2876.625
3010.42493	2877.825
3012.84764	2871.325
3015.26888	2861.225
3017.68865	2849.725
3020.10694	2838.525
3022.52376	2832.525
3024.9391	2827.625
3027.35298	2826.225
3029.76539	2821.325
3032.17632	2812.925
3034.5858	2806.625
3036.9938	2805.225
3039.40034	2802.325
3041.80542	2798.325
3044.20903	2793.725
3046.61118	2785.825
3049.01187	2781.125
3051.4111	2772.425
3053.80888	2759.925
3056.20519	2765.425
3058.60005	2746.825
3060.99345	2743.125
3063.3854	2740.825
3065.7759	2726.725
3068.16494	2716.325
3070.55254	2700.625
3072.93868	2704.025
3075.32338	2676.625
3077.70662	2681.825
3080.08842	2684.225
3082.46878	2659.325
3084.84769	2669.225
3087.22515	2647.425
3089.60118	2652.825
3091.97576	2656.925
3094.3489	2656.325
3096.72061	2656.625
3099.09087	2645.925
3101.4597	2650.125
3103.82709	2645.825
3106.19305	2633.025
3108.55757	2631.125
3110.92066	2623.525
3113.28232	2622.325
3115.64255	2611.925
3118.00134	2628.425
3120.35871	2606.225
3122.71466	2595.325
3125.06917	2583.425
3127.42226	2572.725
3129.77393	2581.325
3132.12417	2568.325
3134.47299	2582.525
3136.82039	2571.225
3139.16636	2579.525
3141.51092	2559.325
3143.85406	2565.525
3146.19579	2551.325
3148.53609	2552.625
3150.87499	2560.025
3153.21246	2562.425
3155.54853	2563.425
3157.88318	2563.925
3160.21642	2576.625
3162.54826	2546.025
3164.87868	2558.825
3167.2077	2544.625
3169.5353	2531.725
3171.86151	2521.525
3174.18631	2530.425
3176.5097	2532.125
3178.83169	2542.025
3181.15228	2528.825
3183.47147	2518.525
3185.78926	2514.625
3188.10565	2504.825
3190.42065	2503.725
3192.73424	2501.525
3195.04645	2491.125
3197.35725	2483.725
3199.66667	2482.725
3201.97469	2486.025
3204.28132	2492.525
3206.58656	2485.925
3208.8904	2486.925
3211.19287	2500.825
3213.49394	2492.325
3215.79363	2489.325
3218.09193	2486.025
3220.38884	2485.125
3222.68438	2476.825
3224.97853	2478.725
3227.2713	2470.025
3229.56269	2466.725
3231.8527	2459.325
3234.14133	2467.525
3236.42858	2454.325
3238.71446	2465.825
3240.99896	2445.725
3243.28209	2456.625
3245.56384	2449.725
3247.84423	2438.725
3250.12324	2445.825
3252.40088	2436.625
3254.67715	2434.525
3256.95205	2418.125
3259.22558	2414.625
3261.49775	2421.425
3263.76855	2418.725
3266.03799	2413.925
3268.30606	2408.125
3270.57277	2412.325
3272.83812	2401.525
3275.10211	2399.125
3277.36474	2387.825
3279.62601	2379.225
3281.88593	2389.425
3284.14448	2382.225
3286.40168	2382.725
3288.65753	2386.525
3290.91202	2384.925
3293.16516	2379.725
3295.41695	2372.325
3297.66738	2361.525
3299.91647	2342.825
3302.16421	2321.925
3304.4106	2317.525
3306.65564	2306.725
3308.89933	2270.825
3311.14169	2264.525
3313.38269	2252.125
3315.62236	2230.225
3317.86068	2215.425
3320.09766	2198.125
3322.3333	2175.125
3324.5676	2172.825
3326.80056	2124.725
3329.03219	2120.525
3331.26248	0.925
3333.49143	-0.575
3335.71905	-0.175
