Data from AgNPs_UA_5uM_CRN_500uM_SU_RamanShift__148__11-54-03-169.txt Node

Date: Thu Aug 04 11:54:03 BST 2022
User: TCL
Spectrometer: QEP01345
Trigger mode: 4
Integration Time (sec): 1.000000E0
Scans to average: 10
Electric dark correction enabled: true
Nonlinearity correction enabled: false
Boxcar width: 0
XAxis mode: Raman Shifts
Number of Pixels in Spectrum: 1044
>>>>>Begin Spectral Data<<<<<
46.04893	0.1875
50.45542	-0.2125
54.85868	0.4875
59.25871	-0.7125
63.6555	-57.7125
68.04907	-39.0125
72.43941	-72.6125
76.82654	-57.1125
81.21044	-54.6125
85.59113	-48.2125
89.96862	-74.0125
94.34289	-55.7125
98.71396	-78.3125
103.08183	-57.5125
107.4465	-49.0125
111.80798	-55.4125
116.16626	-44.2125
120.52136	-74.3125
124.87327	-48.9125
129.222	-62.0125
133.56755	-50.5125
137.90993	-63.6125
142.24913	-52.2125
146.58517	-43.5125
150.91804	-39.9125
155.24774	-29.2125
159.57429	-8.0125
163.89768	-4.2125
168.21792	39.9875
172.53501	58.9875
176.84895	145.5875
181.15975	281.3875
185.46741	429.4875
189.77193	620.9875
194.07331	909.4875
198.37157	1206.2875
202.6667	1494.0875
206.9587	1828.3875
211.24758	2134.3875
215.53334	2466.0875
219.81599	2825.3875
224.09553	3244.6875
228.37195	3697.5875
232.64527	4155.2875
236.91549	4636.8875
241.18261	5011.5875
245.44663	5316.9875
249.70755	5506.9875
253.96539	5657.5875
258.22014	5768.9875
262.4718	5816.8875
266.72039	5856.5875
270.96589	5809.5875
275.20832	5720.1875
279.44768	5595.5875
283.68397	5476.7875
287.91719	5435.8875
292.14735	5444.7875
296.37445	5601.0875
300.59849	5860.0875
304.81948	6202.5875
309.03742	6566.5875
313.25231	6775.1875
317.46415	6739.1875
321.67296	6331.2875
325.87872	5970.2875
330.08145	5766.6875
334.28114	5728.0875
338.47781	5818.7875
342.67145	5937.5875
346.86207	6180.7875
351.04966	6541.1875
355.23424	6932.4875
359.4158	7211.3875
363.59435	7225.5875
367.76989	7170.0875
371.94243	7064.2875
376.11196	6945.0875
380.27849	6860.7875
384.44203	6817.6875
388.60257	6768.5875
392.76012	6793.0875
396.91468	6921.6875
401.06626	7054.0875
405.21485	7106.7875
409.36047	6940.8875
413.50311	6640.4875
417.64277	6355.3875
421.77947	6162.5875
425.9132	6100.1875
430.04396	6079.9875
434.17176	6137.6875
438.2966	6227.3875
442.41849	6325.3875
446.53742	6450.0875
450.6534	6539.2875
454.76644	6606.6875
458.87653	6633.6875
462.98368	6605.0875
467.08789	6552.8875
471.18916	6473.7875
475.2875	6370.5875
479.38291	6270.3875
483.4754	6151.9875
487.56496	6120.6875
491.6516	6075.6875
495.73531	6080.2875
499.81612	6111.5875
503.89401	6207.1875
507.96899	6247.3875
512.04106	6344.8875
516.11023	6435.7875
520.1765	6534.6875
524.23987	6561.0875
528.30034	6560.6875
532.35792	6467.4875
536.41261	6443.8875
540.46441	6332.9875
544.51333	6294.6875
548.55936	6325.3875
552.60252	6465.6875
556.64279	6563.1875
560.6802	6699.2875
564.71473	6810.8875
568.7464	7021.7875
572.7752	6974.6875
576.80114	6652.1875
580.82422	6415.2875
584.84444	6312.1875
588.86181	6307.4875
592.87633	6351.0875
596.888	6473.1875
600.89682	6827.8875
604.9028	7740.8875
608.90594	9762.7875
612.90624	12020.8875
616.90371	11175.4875
620.89834	8242.8875
624.89015	6977.3875
628.87913	6796.0875
632.86528	6947.2875
636.84862	7089.6875
640.82913	6980.2875
644.80683	6647.2875
648.78172	6468.5875
652.75379	6522.2875
656.72306	6740.2875
660.68952	6972.4875
664.65319	6872.1875
668.61405	6670.3875
672.57211	6597.9875
676.52738	6600.8875
680.47986	6507.9875
684.42955	6439.4875
688.37646	6389.7875
692.32058	6393.2875
696.26192	6474.4875
700.20048	6552.3875
704.13626	6610.7875
708.06928	6543.9875
711.99952	6509.3875
715.927	6498.0875
719.85171	6528.8875
723.77365	6585.9875
727.69284	6531.8875
731.60928	6550.9875
735.52295	6519.3875
739.43388	6561.5875
743.34206	6578.5875
747.24749	6590.5875
751.15017	6615.5875
755.05012	6675.4875
758.94733	7036.4875
762.8418	7822.9875
766.73354	9068.5875
770.62254	10014.2875
774.50882	10097.5875
778.39237	9629.6875
782.27321	8755.1875
786.15132	7770.7875
790.02671	7126.3875
793.89938	6753.8875
797.76935	6647.7875
801.6366	6561.2875
805.50115	6543.3875
809.36299	6524.7875
813.22213	6518.8875
817.07857	6528.9875
820.93231	6518.0875
824.78336	6548.7875
828.63172	6567.1875
832.47738	6562.3875
836.32036	6583.8875
840.16066	6544.6875
843.99827	6529.4875
847.8332	6558.2875
851.66546	6554.4875
855.49504	6561.1875
859.32195	6590.9875
863.1462	6571.5875
866.96777	6556.6875
870.78668	6556.3875
874.60293	6577.4875
878.41652	6590.8875
882.22745	6687.3875
886.03573	6706.9875
889.84136	6716.0875
893.64433	6713.2875
897.44466	6684.4875
901.24235	6690.1875
905.0374	6691.7875
908.8298	6613.0875
912.61957	6584.1875
916.40671	6559.5875
920.19121	6611.3875
923.97308	6671.4875
927.75233	6734.1875
931.52895	6827.6875
935.30295	6777.8875
939.07433	6666.2875
942.84309	6532.4875
946.60924	6508.0875
950.37278	6473.8875
954.13371	6476.0875
957.89203	6483.5875
961.64774	6502.2875
965.40086	6462.3875
969.15137	6444.8875
972.89929	6463.1875
976.64461	6469.2875
980.38733	6477.7875
984.12747	6494.8875
987.86502	6507.6875
991.59999	6552.3875
995.33237	6609.9875
999.06217	6684.5875
1002.78939	6768.4875
1006.51404	6903.0875
1010.23611	7023.8875
1013.95561	7079.1875
1017.67255	7066.1875
1021.38692	7050.7875
1025.09872	6983.9875
1028.80796	6896.4875
1032.51465	6896.9875
1036.21877	6899.4875
1039.92035	6931.3875
1043.61937	6957.5875
1047.31584	7010.6875
1051.00976	7042.0875
1054.70114	7062.0875
1058.38998	7039.2875
1062.07627	7063.2875
1065.76003	7092.9875
1069.44126	7175.7875
1073.11995	7246.8875
1076.79611	7374.1875
1080.46974	7528.2875
1084.14085	7687.4875
1087.80943	7787.7875
1091.47549	7834.3875
1095.13903	7771.4875
1098.80005	7667.9875
1102.45857	7555.5875
1106.11456	7522.1875
1109.76805	7464.7875
1113.41903	7551.2875
1117.06751	7698.2875
1120.71348	7940.7875
1124.35696	8330.1875
1127.99793	8574.7875
1131.63641	8435.1875
1135.2724	8044.1875
1138.90589	7778.9875
1142.5369	7588.4875
1146.16542	7495.3875
1149.79145	7419.5875
1153.415	7340.5875
1157.03607	7315.8875
1160.65467	7418.7875
1164.27079	7601.9875
1167.88443	7817.0875
1171.49561	8228.8875
1175.10432	8773.5875
1178.71056	9615.5875
1182.31434	10355.3875
1185.91565	10593.0875
1189.51451	10463.8875
1193.11091	10231.8875
1196.70485	10035.2875
1200.29634	9826.4875
1203.88538	9582.4875
1207.47197	9178.0875
1211.05612	8779.2875
1214.63782	8408.5875
1218.21708	8172.9875
1221.79391	8000.3875
1225.36829	7933.5875
1228.94024	7904.6875
1232.50976	7922.4875
1236.07685	7932.1875
1239.6415	7953.6875
1243.20374	7999.8875
1246.76355	8033.7875
1250.32093	8109.4875
1253.8759	8184.0875
1257.42845	8377.0875
1260.97859	8589.1875
1264.52631	8787.7875
1268.07163	8915.6875
1271.61453	9050.1875
1275.15503	9086.0875
1278.69312	9097.1875
1282.22882	9150.5875
1285.76211	9343.6875
1289.29301	9579.5875
1292.82151	9831.8875
1296.34761	10056.8875
1299.87133	10417.1875
1303.39266	11077.6875
1306.9116	12160.6875
1310.42815	13305.0875
1313.94233	13719.5875
1317.45412	13002.8875
1320.96354	11899.1875
1324.47058	10970.5875
1327.97525	10256.9875
1331.47754	9894.6875
1334.97747	9809.8875
1338.47502	9938.3875
1341.97022	10286.5875
1345.46305	10960.5875
1348.95352	11968.8875
1352.44163	13138.4875
1355.92738	14350.2875
1359.41078	15856.4875
1362.89183	17238.2875
1366.37053	16595.8875
1369.84688	13940.8875
1373.32088	11451.3875
1376.79254	10189.0875
1380.26186	9605.1875
1383.72883	9227.3875
1387.19347	8868.1875
1390.65578	8501.1875
1394.11575	8306.9875
1397.57339	8157.0875
1401.0287	8054.7875
1404.48168	8004.4875
1407.93234	8044.2875
1411.38068	8057.1875
1414.82669	8136.8875
1418.27039	8207.0875
1421.71177	8174.6875
1425.15083	8116.4875
1428.58758	8023.2875
1432.02203	8066.6875
1435.45416	8168.9875
1438.88399	8151.1875
1442.31151	8130.6875
1445.73673	8214.4875
1449.15965	8284.3875
1452.58027	8299.0875
1455.9986	8271.9875
1459.41463	8283.0875
1462.82837	8361.7875
1466.23982	8543.5875
1469.64898	8778.9875
1473.05586	8892.3875
1476.46045	8977.2875
1479.86276	9026.4875
1483.26279	9119.7875
1486.66054	9289.6875
1490.05602	9531.0875
1493.44922	10042.4875
1496.84016	10831.4875
1500.22882	12116.9875
1503.61521	13692.6875
1506.99934	15315.7875
1510.38121	16441.7875
1513.76081	16349.0875
1517.13816	14899.8875
1520.51324	12918.8875
1523.88607	11347.7875
1527.25665	10396.4875
1530.62498	9907.8875
1533.99105	9732.5875
1537.35488	9601.4875
1540.71647	9547.7875
1544.07581	9450.0875
1547.4329	9353.4875
1550.78776	9242.8875
1554.14038	9133.8875
1557.49077	9089.2875
1560.83892	9159.3875
1564.18484	9383.4875
1567.52853	9688.2875
1570.86999	9980.4875
1574.20922	10092.0875
1577.54624	9985.5875
1580.88103	9521.9875
1584.2136	8905.8875
1587.54395	8587.0875
1590.87208	8517.8875
1594.19801	8694.2875
1597.52172	9059.0875
1600.84321	9225.9875
1604.16251	9088.8875
1607.47959	8892.7875
1610.79447	8709.4875
1614.10715	8436.9875
1617.41763	8142.6875
1620.7259	7843.1875
1624.03199	7698.6875
1627.33587	7637.1875
1630.63757	7681.4875
1633.93707	7904.7875
1637.23439	8297.8875
1640.52951	8955.0875
1643.82246	9916.3875
1647.11321	10984.7875
1650.40179	11647.0875
1653.68819	11281.9875
1656.97241	10096.6875
1660.25446	8790.0875
1663.53433	7869.3875
1666.81203	7290.4875
1670.08756	6962.3875
1673.36092	6804.2875
1676.63211	6671.8875
1679.90115	6584.5875
1683.16801	6505.8875
1686.43272	6391.1875
1689.69527	6341.8875
1692.95567	6278.9875
1696.2139	6289.7875
1699.46999	6209.8875
1702.72392	6206.4875
1705.97571	6234.8875
1709.22535	6200.5875
1712.47284	6260.9875
1715.71819	6256.3875
1718.96139	6237.9875
1722.20246	6220.5875
1725.44139	6208.0875
1728.67818	6172.5875
1731.91284	6119.6875
1735.14537	6092.2875
1738.37576	6066.0875
1741.60403	6047.0875
1744.83017	6031.9875
1748.05418	6029.8875
1751.27607	6041.3875
1754.49584	5990.8875
1757.71349	5970.5875
1760.92903	5953.7875
1764.14244	5923.3875
1767.35375	5921.4875
1770.56294	5907.0875
1773.77002	5890.0875
1776.97499	5909.5875
1780.17785	5881.8875
1783.37861	5882.3875
1786.57727	5882.4875
1789.77382	5827.0875
1792.96828	5858.6875
1796.16064	5846.8875
1799.3509	5847.8875
1802.53907	5845.6875
1805.72514	5807.8875
1808.90913	5789.2875
1812.09102	5785.3875
1815.27083	5787.0875
1818.44856	5755.9875
1821.6242	5739.2875
1824.79776	5721.7875
1827.96924	5708.8875
1831.13864	5701.5875
1834.30597	5707.5875
1837.47122	5682.8875
1840.6344	5681.0875
1843.7955	5665.9875
1846.95454	5665.6875
1850.11151	5677.8875
1853.26642	5631.0875
1856.41926	5648.9875
1859.57004	5663.7875
1862.71876	5632.9875
1865.86542	5639.4875
1869.01003	5639.2875
1872.15258	5581.4875
1875.29308	5620.3875
1878.43152	5605.8875
1881.56792	5610.8875
1884.70227	5567.7875
1887.83457	5555.8875
1890.96482	5555.4875
1894.09304	5557.1875
1897.21921	5554.0875
1900.34335	5538.2875
1903.46544	5518.3875
1906.58551	5543.7875
1909.70353	5539.4875
1912.81953	5519.4875
1915.93349	5507.3875
1919.04543	5511.0875
1922.15534	5498.8875
1925.26322	5478.3875
1928.36908	5464.0875
1931.47292	5455.7875
1934.57473	5472.6875
1937.67453	5418.8875
1940.77232	5404.0875
1943.86808	5400.5875
1946.96184	5396.1875
1950.05358	5369.2875
1953.14331	5354.2875
1956.23103	5358.8875
1959.31675	5300.5875
1962.40046	5276.1875
1965.48217	5294.0875
1968.56188	5279.9875
1971.63959	5260.3875
1974.7153	5263.6875
1977.78901	5249.8875
1980.86073	5215.1875
1983.93046	5186.8875
1986.99819	5091.9875
1990.06394	5117.8875
1993.1277	5159.0875
1996.18947	5127.9875
1999.24925	5075.4875
2002.30706	5080.9875
2005.36288	5090.9875
2008.41672	5068.6875
2011.46859	5026.7875
2014.51848	5015.9875
2017.56639	4994.2875
2020.61233	4981.9875
2023.6563	4977.2875
2026.6983	4936.4875
2029.73833	4943.8875
2032.7764	4952.3875
2035.8125	4893.9875
2038.84664	4892.6875
2041.87881	4886.5875
2044.90903	4905.6875
2047.93729	4889.7875
2050.96359	4850.9875
2053.98794	4858.6875
2057.01034	4854.2875
2060.03078	4849.2875
2063.04927	4846.4875
2066.06582	4819.6875
2069.08042	4824.5875
2072.09307	4851.4875
2075.10378	4812.3875
2078.11255	4814.5875
2081.11938	4822.0875
2084.12426	4809.7875
2087.12722	4798.7875
2090.12824	4796.0875
2093.12732	4808.9875
2096.12447	4813.2875
2099.11969	4806.8875
2102.11299	4800.2875
2105.10435	4824.7875
2108.09379	4816.6875
2111.08131	4797.7875
2114.0669	4813.7875
2117.05057	4805.3875
2120.03233	4805.2875
2123.01216	4807.7875
2125.99008	4813.0875
2128.96609	4808.1875
2131.94018	4830.4875
2134.91236	4813.1875
2137.88263	4814.0875
2140.851	4820.3875
2143.81746	4836.1875
2146.78201	4827.6875
2149.74466	4815.5875
2152.7054	4839.8875
2155.66425	4810.6875
2158.6212	4797.7875
2161.57625	4768.7875
2164.52941	4762.0875
2167.48067	4767.2875
2170.43004	4778.7875
2173.37752	4781.7875
2176.32311	4779.2875
2179.26681	4767.4875
2182.20863	4787.4875
2185.14856	4778.8875
2188.08661	4768.5875
2191.02278	4780.5875
2193.95707	4772.2875
2196.88948	4735.8875
2199.82001	4753.6875
2202.74867	4752.2875
2205.67545	4741.9875
2208.60037	4739.9875
2211.52341	4731.4875
2214.44458	4715.4875
2217.36388	4699.0875
2220.28132	4685.0875
2223.1969	4672.0875
2226.11061	4665.8875
2229.02246	4659.2875
2231.93245	4655.7875
2234.84058	4638.2875
2237.74686	4633.9875
2240.65128	4622.9875
2243.55385	4614.7875
2246.45456	4590.7875
2249.35343	4605.0875
2252.25044	4593.4875
2255.14561	4599.6875
2258.03893	4585.3875
2260.93041	4574.1875
2263.82004	4569.7875
2266.70783	4563.5875
2269.59378	4555.4875
2272.4779	4514.9875
2275.36017	4529.8875
2278.24061	4515.9875
2281.11922	4482.6875
2283.996	4485.6875
2286.87094	4471.5875
2289.74405	4476.8875
2292.61534	4473.1875
2295.4848	4472.3875
2298.35243	4454.8875
2301.21824	4448.3875
2304.08223	4450.4875
2306.94439	4438.4875
2309.80474	4449.3875
2312.66327	4436.1875
2315.51999	4412.2875
2318.37489	4408.6875
2321.22797	4396.6875
2324.07925	4378.1875
2326.92871	4380.2875
2329.77637	4370.4875
2332.62222	4351.9875
2335.46626	4329.2875
2338.3085	4319.5875
2341.14893	4341.0875
2343.98756	4365.5875
2346.8244	4320.1875
2349.65943	4310.8875
2352.49267	4321.4875
2355.32411	4323.1875
2358.15376	4318.3875
2360.98161	4323.7875
2363.80768	4310.8875
2366.63195	4310.9875
2369.45444	4320.8875
2372.27514	4316.4875
2375.09405	4314.7875
2377.91118	4275.1875
2380.72652	4283.0875
2383.54009	4271.8875
2386.35187	4269.7875
2389.16188	4255.8875
2391.97011	4229.2875
2394.77657	4220.4875
2397.58125	4230.7875
2400.38416	4211.8875
2403.18529	4206.6875
2405.98466	4186.3875
2408.78226	4186.1875
2411.57809	4169.2875
2414.37216	4157.2875
2417.16446	4158.5875
2419.955	4133.3875
2422.74378	4165.8875
2425.5308	4131.6875
2428.31606	4159.1875
2431.09956	4152.3875
2433.88131	4128.5875
2436.6613	4123.1875
2439.43954	4098.9875
2442.21603	4123.8875
2444.99077	4111.7875
2447.76377	4111.4875
2450.53501	4114.5875
2453.30451	4078.8875
2456.07226	4107.8875
2458.83827	4078.7875
2461.60254	4036.6875
2464.36507	4087.9875
2467.12586	4053.9875
2469.88492	4067.4875
2472.64224	4060.5875
2475.39782	4041.3875
2478.15167	4067.8875
2480.90379	4028.2875
2483.65417	4060.7875
2486.40283	4053.0875
2489.14976	4065.8875
2491.89497	4053.3875
2494.63845	4038.8875
2497.3802	4031.0875
2500.12024	4034.5875
2502.85855	4027.0875
2505.59514	4021.3875
2508.33002	4020.4875
2511.06318	3983.7875
2513.79462	3998.2875
2516.52435	3950.3875
2519.25237	3946.0875
2521.97867	3951.2875
2524.70327	3943.2875
2527.42616	3942.5875
2530.14734	3944.7875
2532.86681	3926.2875
2535.58458	3930.2875
2538.30065	3921.8875
2541.01501	3922.0875
2543.72768	3901.0875
2546.43864	3901.2875
2549.14791	3900.1875
2551.85548	3868.8875
2554.56136	3874.6875
2557.26554	3883.3875
2559.96803	3875.9875
2562.66883	3882.8875
2565.36794	3848.6875
2568.06536	3809.1875
2570.7611	3840.4875
2573.45514	3823.9875
2576.14751	3818.8875
2578.83819	3790.8875
2581.52719	3778.4875
2584.21451	3791.9875
2586.90015	3772.5875
2589.58411	3757.7875
2592.2664	3755.0875
2594.94701	3744.1875
2597.62594	3758.7875
2600.30321	3690.2875
2602.9788	3707.9875
2605.65273	3709.5875
2608.32498	3721.1875
2610.99557	3728.9875
2613.66449	3679.1875
2616.33175	3706.5875
2618.99734	3716.6875
2621.66128	3694.4875
2624.32355	3699.3875
2626.98416	3651.5875
2629.64311	3659.9875
2632.30041	3660.3875
2634.95605	3626.6875
2637.61004	3619.3875
2640.26238	3624.6875
2642.91306	3619.5875
2645.56209	3631.4875
2648.20948	3626.4875
2650.85521	3606.3875
2653.4993	3629.8875
2656.14175	3608.1875
2658.78255	3619.0875
2661.42171	3581.0875
2664.05923	3621.6875
2666.6951	3612.0875
2669.32934	3620.8875
2671.96194	3634.6875
2674.59291	3624.0875
2677.22224	3612.2875
2679.84993	3608.9875
2682.476	3601.5875
2685.10043	3596.9875
2687.72324	3576.1875
2690.34441	3592.2875
2692.96396	3589.7875
2695.58188	3593.0875
2698.19818	3592.5875
2700.81285	3590.8875
2703.4259	3549.7875
2706.03733	3532.3875
2708.64714	3534.7875
2711.25533	3564.5875
2713.86191	3571.9875
2716.46687	3566.3875
2719.07021	3579.3875
2721.67194	3557.4875
2724.27206	3586.5875
2726.87057	3566.8875
2729.46747	3548.5875
2732.06276	3578.7875
2734.65644	3533.0875
2737.24852	3552.1875
2739.83899	3518.4875
2742.42786	3522.8875
2745.01513	3524.8875
2747.60079	3518.6875
2750.18486	3501.0875
2752.76733	3513.8875
2755.3482	3491.4875
2757.92747	3484.9875
2760.50515	3479.3875
2763.08123	3482.7875
2765.65573	3477.3875
2768.22863	3462.6875
2770.79994	3462.2875
2773.36967	3444.8875
2775.9378	3447.1875
2778.50435	3426.8875
2781.06932	3431.3875
2783.6327	3418.6875
2786.1945	3439.5875
2788.75471	3414.7875
2791.31335	3412.8875
2793.87041	3403.4875
2796.42589	3385.2875
2798.97979	3378.1875
2801.53212	3378.2875
2804.08288	3391.7875
2806.63206	3371.7875
2809.17967	3363.7875
2811.72571	3377.5875
2814.27018	3358.1875
2816.81308	3349.4875
2819.35442	3314.9875
2821.89419	3317.7875
2824.43239	3314.0875
2826.96904	3322.4875
2829.50412	3318.9875
2832.03763	3315.4875
2834.56959	3317.8875
2837.1	3297.8875
2839.62884	3300.9875
2842.15613	3295.4875
2844.68186	3306.1875
2847.20604	3263.2875
2849.72867	3260.6875
2852.24974	3261.1875
2854.76927	3234.6875
2857.28724	3197.0875
2859.80367	3260.9875
2862.31855	3262.3875
2864.83189	3248.4875
2867.34368	3249.2875
2869.85393	3259.5875
2872.36264	3225.1875
2874.8698	3238.6875
2877.37543	3232.5875
2879.87952	3227.8875
2882.38207	3197.9875
2884.88308	3209.7875
2887.38256	3209.7875
2889.88051	3197.4875
2892.37692	3206.7875
2894.8718	3182.9875
2897.36515	3217.7875
2899.85698	3200.7875
2902.34727	3194.5875
2904.83604	3190.1875
2907.32328	3215.4875
2909.809	3202.6875
2912.29319	3206.7875
2914.77587	3215.1875
2917.25702	3221.6875
2919.73665	3217.7875
2922.21476	3225.3875
2924.69136	3221.8875
2927.16644	3200.2875
2929.64	3207.7875
2932.11205	3197.1875
2934.58258	3193.6875
2937.05161	3172.6875
2939.51912	3169.0875
2941.98513	3189.4875
2944.44962	3163.6875
2946.91261	3154.3875
2949.37409	3150.1875
2951.83407	3147.3875
2954.29254	3138.4875
2956.74951	3141.5875
2959.20498	3122.9875
2961.65895	3132.0875
2964.11142	3117.3875
2966.56239	3113.3875
2969.01186	3125.6875
2971.45984	3105.2875
2973.90632	3100.4875
2976.35131	3111.2875
2978.7948	3102.5875
2981.23681	3089.4875
2983.67732	3101.2875
2986.11635	3075.7875
2988.55388	3050.8875
2990.98993	3061.7875
2993.4245	3049.4875
2995.85758	3031.3875
2998.28917	3033.9875
3000.71928	3016.2875
3003.14791	3014.0875
3005.57506	3010.3875
3008.00073	2987.2875
3010.42493	2936.7875
3012.84764	2980.9875
3015.26888	2986.4875
3017.68865	2982.4875
3020.10694	2922.2875
3022.52376	2943.7875
3024.9391	2937.6875
3027.35298	2923.8875
3029.76539	2912.5875
3032.17632	2911.9875
3034.5858	2893.9875
3036.9938	2911.4875
3039.40034	2906.4875
3041.80542	2885.7875
3044.20903	2873.0875
3046.61118	2860.7875
3049.01187	2876.2875
3051.4111	2865.6875
3053.80888	2858.3875
3056.20519	2843.1875
3058.60005	2821.1875
3060.99345	2856.4875
3063.3854	2815.1875
3065.7759	2806.8875
3068.16494	2805.6875
3070.55254	2777.4875
3072.93868	2802.7875
3075.32338	2780.5875
3077.70662	2774.1875
3080.08842	2768.4875
3082.46878	2754.1875
3084.84769	2761.5875
3087.22515	2749.3875
3089.60118	2767.2875
3091.97576	2752.8875
3094.3489	2755.9875
3096.72061	2755.1875
3099.09087	2739.9875
3101.4597	2764.9875
3103.82709	2737.3875
3106.19305	2716.0875
3108.55757	2733.2875
3110.92066	2719.2875
3113.28232	2715.9875
3115.64255	2705.3875
3118.00134	2718.4875
3120.35871	2694.5875
3122.71466	2672.3875
3125.06917	2681.3875
3127.42226	2673.0875
3129.77393	2647.8875
3132.12417	2660.4875
3134.47299	2664.5875
3136.82039	2639.1875
3139.16636	2628.6875
3141.51092	2638.2875
3143.85406	2645.5875
3146.19579	2628.7875
3148.53609	2632.7875
3150.87499	2636.0875
3153.21246	2619.1875
3155.54853	2626.5875
3157.88318	2631.7875
3160.21642	2641.1875
3162.54826	2621.7875
3164.87868	2632.8875
3167.2077	2596.3875
3169.5353	2608.3875
3171.86151	2616.7875
3174.18631	2597.5875
3176.5097	2595.2875
3178.83169	2595.8875
3181.15228	2598.1875
3183.47147	2572.9875
3185.78926	2550.0875
3188.10565	2561.1875
3190.42065	2544.1875
3192.73424	2555.2875
3195.04645	2538.8875
3197.35725	2523.5875
3199.66667	2546.0875
3201.97469	2540.4875
3204.28132	2518.4875
3206.58656	2539.1875
3208.8904	2541.0875
3211.19287	2529.6875
3213.49394	2520.6875
3215.79363	2511.2875
3218.09193	2525.4875
3220.38884	2523.3875
3222.68438	2531.4875
3224.97853	2491.9875
3227.2713	2516.3875
3229.56269	2502.7875
3231.8527	2500.3875
3234.14133	2490.4875
3236.42858	2496.4875
3238.71446	2451.7875
3240.99896	2475.3875
3243.28209	2461.1875
3245.56384	2462.8875
3247.84423	2449.3875
3250.12324	2456.8875
3252.40088	2452.3875
3254.67715	2440.2875
3256.95205	2445.5875
3259.22558	2450.1875
3261.49775	2444.1875
3263.76855	2428.9875
3266.03799	2447.1875
3268.30606	2430.5875
3270.57277	2437.3875
3272.83812	2416.6875
3275.10211	2413.2875
3277.36474	2421.3875
3279.62601	2418.4875
3281.88593	2397.7875
3284.14448	2370.2875
3286.40168	2387.2875
3288.65753	2369.5875
3290.91202	2383.0875
3293.16516	2349.3875
3295.41695	2383.8875
3297.66738	2370.4875
3299.91647	2353.1875
3302.16421	2338.1875
3304.4106	2303.0875
3306.65564	2315.5875
3308.89933	2275.7875
3311.14169	2271.9875
3313.38269	2266.2875
3315.62236	2245.3875
3317.86068	2222.1875
3320.09766	2209.2875
3322.3333	2179.5875
3324.5676	2174.6875
3326.80056	2136.2875
3329.03219	2137.7875
3331.26248	0.2875
3333.49143	-0.5125
3335.71905	0.3875
