Data from AgNPs_UA_50uM_CRN_500uM_SU_RamanShift__10__13-57-30-316.txt Node

Date: Thu Aug 04 13:57:30 BST 2022
User: TCL
Spectrometer: QEP01345
Trigger mode: 4
Integration Time (sec): 1.000000E0
Scans to average: 10
Electric dark correction enabled: true
Nonlinearity correction enabled: false
Boxcar width: 0
XAxis mode: Raman Shifts
Number of Pixels in Spectrum: 1044
>>>>>Begin Spectral Data<<<<<
46.04893	2.175
50.45542	-0.825
54.85868	0.575
59.25871	-0.525
63.6555	14.475
68.04907	12.775
72.43941	15.975
76.82654	15.575
81.21044	16.275
85.59113	17.075
89.96862	18.375
94.34289	19.375
98.71396	19.575
103.08183	18.575
107.4465	18.375
111.80798	19.575
116.16626	20.875
120.52136	22.275
124.87327	25.075
129.222	24.475
133.56755	28.275
137.90993	29.175
142.24913	31.975
146.58517	38.075
150.91804	44.675
155.24774	50.575
159.57429	69.175
163.89768	85.775
168.21792	114.575
172.53501	159.675
176.84895	229.075
181.15975	322.375
185.46741	453.575
189.77193	638.475
194.07331	851.975
198.37157	1098.475
202.6667	1360.875
206.9587	1631.275
211.24758	1899.675
215.53334	2182.275
219.81599	2486.075
224.09553	2836.575
228.37195	3203.275
232.64527	3604.275
236.91549	4007.675
241.18261	4319.875
245.44663	4563.675
249.70755	4726.675
253.96539	4863.975
258.22014	4986.675
262.4718	5096.475
266.72039	5160.875
270.96589	5182.575
275.20832	5130.075
279.44768	5053.875
283.68397	4934.675
287.91719	4901.775
292.14735	4932.075
296.37445	5068.475
300.59849	5305.775
304.81948	5602.575
309.03742	5907.075
313.25231	6106.675
317.46415	6048.775
321.67296	5730.275
325.87872	5370.475
330.08145	5163.475
334.28114	5139.475
338.47781	5191.775
342.67145	5345.475
346.86207	5508.875
351.04966	5802.975
355.23424	6117.875
359.4158	6269.775
363.59435	6347.175
367.76989	6299.175
371.94243	6216.375
376.11196	6142.775
380.27849	6066.775
384.44203	6031.775
388.60257	5995.075
392.76012	6056.275
396.91468	6122.375
401.06626	6227.875
405.21485	6277.275
409.36047	6123.275
413.50311	5835.375
417.64277	5564.675
421.77947	5379.475
425.9132	5326.775
430.04396	5333.875
434.17176	5368.175
438.2966	5454.275
442.41849	5561.575
446.53742	5682.675
450.6534	5783.775
454.76644	5847.875
458.87653	5828.275
462.98368	5800.975
467.08789	5759.275
471.18916	5643.175
475.2875	5499.375
479.38291	5387.975
483.4754	5305.175
487.56496	5249.475
491.6516	5256.575
495.73531	5243.775
499.81612	5265.275
503.89401	5294.475
507.96899	5348.575
512.04106	5408.075
516.11023	5514.675
520.1765	5534.475
524.23987	5577.875
528.30034	5558.575
532.35792	5543.675
536.41261	5499.975
540.46441	5374.175
544.51333	5330.475
548.55936	5353.175
552.60252	5468.675
556.64279	5593.775
560.6802	5660.275
564.71473	5765.475
568.7464	5908.175
572.7752	5912.675
576.80114	5676.475
580.82422	5497.875
584.84444	5401.675
588.86181	5379.575
592.87633	5419.975
596.888	5529.775
600.89682	5857.975
604.9028	6697.175
608.90594	8619.675
612.90624	10638.975
616.90371	9739.075
620.89834	6975.075
624.89015	5794.175
628.87913	5652.575
632.86528	5818.175
636.84862	5895.375
640.82913	5758.875
644.80683	5492.675
648.78172	5338.275
652.75379	5347.375
656.72306	5556.975
660.68952	5782.775
664.65319	5674.075
668.61405	5459.875
672.57211	5395.675
676.52738	5378.175
680.47986	5332.575
684.42955	5239.075
688.37646	5193.075
692.32058	5232.575
696.26192	5311.675
700.20048	5412.875
704.13626	5424.075
708.06928	5397.475
711.99952	5344.675
715.927	5329.675
719.85171	5369.675
723.77365	5401.575
727.69284	5363.075
731.60928	5302.075
735.52295	5290.375
739.43388	5312.375
743.34206	5336.975
747.24749	5336.275
751.15017	5337.075
755.05012	5431.675
758.94733	5733.075
762.8418	6493.575
766.73354	7612.675
770.62254	8476.675
774.50882	8590.575
778.39237	8000.375
782.27321	7128.975
786.15132	6266.175
790.02671	5710.175
793.89938	5451.075
797.76935	5325.975
801.6366	5267.575
805.50115	5225.975
809.36299	5208.075
813.22213	5186.875
817.07857	5182.775
820.93231	5194.075
824.78336	5215.275
828.63172	5213.175
832.47738	5252.775
836.32036	5218.275
840.16066	5184.875
843.99827	5178.975
847.8332	5170.475
851.66546	5160.575
855.49504	5188.275
859.32195	5192.375
863.1462	5179.075
866.96777	5185.975
870.78668	5184.675
874.60293	5196.875
878.41652	5229.275
882.22745	5244.075
886.03573	5280.775
889.84136	5283.375
893.64433	5268.575
897.44466	5252.475
901.24235	5247.575
905.0374	5235.475
908.8298	5199.975
912.61957	5169.775
916.40671	5165.175
920.19121	5217.575
923.97308	5266.775
927.75233	5345.775
931.52895	5385.475
935.30295	5325.375
939.07433	5177.575
942.84309	5069.775
946.60924	5038.875
950.37278	5032.675
954.13371	5035.575
957.89203	5026.175
961.64774	5012.675
965.40086	5005.375
969.15137	5001.475
972.89929	4988.275
976.64461	4983.575
980.38733	4981.675
984.12747	5004.375
987.86502	5030.375
991.59999	5068.375
995.33237	5111.275
999.06217	5213.275
1002.78939	5300.075
1006.51404	5452.675
1010.23611	5571.675
1013.95561	5612.175
1017.67255	5593.075
1021.38692	5554.875
1025.09872	5440.975
1028.80796	5357.875
1032.51465	5350.775
1036.21877	5367.575
1039.92035	5401.875
1043.61937	5437.775
1047.31584	5456.775
1051.00976	5451.675
1054.70114	5431.875
1058.38998	5427.375
1062.07627	5453.275
1065.76003	5499.475
1069.44126	5592.575
1073.11995	5699.575
1076.79611	5815.775
1080.46974	5977.375
1084.14085	6094.075
1087.80943	6168.975
1091.47549	6218.075
1095.13903	6161.675
1098.80005	6058.575
1102.45857	5925.075
1106.11456	5834.175
1109.76805	5795.375
1113.41903	5840.975
1117.06751	5971.275
1120.71348	6207.175
1124.35696	6528.375
1127.99793	6702.775
1131.63641	6583.675
1135.2724	6258.175
1138.90589	5998.875
1142.5369	5896.475
1146.16542	5871.675
1149.79145	5807.675
1153.415	5732.775
1157.03607	5697.875
1160.65467	5724.675
1164.27079	5867.975
1167.88443	6082.075
1171.49561	6432.475
1175.10432	7002.475
1178.71056	7782.675
1182.31434	8444.275
1185.91565	8602.275
1189.51451	8414.075
1193.11091	8157.675
1196.70485	7842.675
1200.29634	7625.375
1203.88538	7393.875
1207.47197	7038.275
1211.05612	6738.575
1214.63782	6520.675
1218.21708	6320.475
1221.79391	6205.075
1225.36829	6112.775
1228.94024	6080.675
1232.50976	6066.075
1236.07685	6056.975
1239.6415	6069.575
1243.20374	6108.575
1246.76355	6158.875
1250.32093	6250.175
1253.8759	6394.475
1257.42845	6646.275
1260.97859	6875.275
1264.52631	7067.775
1268.07163	7198.875
1271.61453	7277.775
1275.15503	7298.875
1278.69312	7284.175
1282.22882	7320.575
1285.76211	7475.175
1289.29301	7675.175
1292.82151	7891.575
1296.34761	8073.975
1299.87133	8415.275
1303.39266	9041.375
1306.9116	9963.675
1310.42815	10912.875
1313.94233	11191.875
1317.45412	10607.275
1320.96354	9707.375
1324.47058	8915.675
1327.97525	8240.275
1331.47754	7855.675
1334.97747	7762.275
1338.47502	7902.775
1341.97022	8229.875
1345.46305	8831.175
1348.95352	9683.875
1352.44163	10659.175
1355.92738	11755.175
1359.41078	13215.275
1362.89183	14384.475
1366.37053	13718.175
1369.84688	11414.675
1373.32088	9258.675
1376.79254	8095.975
1380.26186	7551.675
1383.72883	7243.675
1387.19347	6952.675
1390.65578	6670.575
1394.11575	6476.975
1397.57339	6304.475
1401.0287	6205.275
1404.48168	6141.275
1407.93234	6158.475
1411.38068	6239.175
1414.82669	6328.675
1418.27039	6383.575
1421.71177	6349.775
1425.15083	6280.875
1428.58758	6235.675
1432.02203	6298.475
1435.45416	6369.975
1438.88399	6416.975
1442.31151	6425.475
1445.73673	6482.675
1449.15965	6519.675
1452.58027	6464.775
1455.9986	6406.475
1459.41463	6390.675
1462.82837	6433.875
1466.23982	6570.575
1469.64898	6733.775
1473.05586	6830.775
1476.46045	6902.775
1479.86276	6951.275
1483.26279	7060.475
1486.66054	7259.375
1490.05602	7539.975
1493.44922	7981.375
1496.84016	8695.175
1500.22882	9789.275
1503.61521	11221.075
1506.99934	12673.775
1510.38121	13564.575
1513.76081	13392.875
1517.13816	12149.575
1520.51324	10461.675
1523.88607	9108.875
1527.25665	8281.275
1530.62498	7863.275
1533.99105	7657.975
1537.35488	7532.075
1540.71647	7436.275
1544.07581	7374.775
1547.4329	7294.275
1550.78776	7212.175
1554.14038	7133.275
1557.49077	7146.275
1560.83892	7247.075
1564.18484	7462.675
1567.52853	7786.075
1570.86999	8022.475
1574.20922	8071.975
1577.54624	7924.575
1580.88103	7470.375
1584.2136	6947.775
1587.54395	6638.975
1590.87208	6602.275
1594.19801	6847.375
1597.52172	7171.875
1600.84321	7296.575
1604.16251	7235.175
1607.47959	7070.675
1610.79447	6818.675
1614.10715	6493.675
1617.41763	6121.675
1620.7259	5859.275
1624.03199	5740.875
1627.33587	5712.875
1630.63757	5779.375
1633.93707	6007.475
1637.23439	6399.875
1640.52951	7063.775
1643.82246	8010.675
1647.11321	9080.575
1650.40179	9674.475
1653.68819	9302.075
1656.97241	8100.175
1660.25446	6861.875
1663.53433	5990.175
1666.81203	5469.975
1670.08756	5183.675
1673.36092	5005.975
1676.63211	4903.575
1679.90115	4796.975
1683.16801	4744.875
1686.43272	4702.175
1689.69527	4669.875
1692.95567	4630.575
1696.2139	4626.275
1699.46999	4590.875
1702.72392	4602.875
1705.97571	4590.275
1709.22535	4591.375
1712.47284	4610.275
1715.71819	4589.875
1718.96139	4586.075
1722.20246	4580.175
1725.44139	4543.875
1728.67818	4521.875
1731.91284	4483.575
1735.14537	4470.275
1738.37576	4448.475
1741.60403	4432.175
1744.83017	4422.875
1748.05418	4403.575
1751.27607	4404.675
1754.49584	4389.775
1757.71349	4372.175
1760.92903	4374.775
1764.14244	4370.175
1767.35375	4369.675
1770.56294	4337.875
1773.77002	4343.775
1776.97499	4302.875
1780.17785	4309.375
1783.37861	4298.875
1786.57727	4257.475
1789.77382	4268.675
1792.96828	4259.675
1796.16064	4247.975
1799.3509	4238.775
1802.53907	4250.175
1805.72514	4225.675
1808.90913	4223.275
1812.09102	4213.975
1815.27083	4181.675
1818.44856	4181.975
1821.6242	4171.475
1824.79776	4170.375
1827.96924	4138.175
1831.13864	4139.675
1834.30597	4137.475
1837.47122	4118.775
1840.6344	4123.775
1843.7955	4112.775
1846.95454	4116.375
1850.11151	4123.875
1853.26642	4124.575
1856.41926	4115.675
1859.57004	4104.175
1862.71876	4116.775
1865.86542	4098.075
1869.01003	4101.075
1872.15258	4090.875
1875.29308	4097.775
1878.43152	4083.675
1881.56792	4084.275
1884.70227	4072.875
1887.83457	4065.875
1890.96482	4061.975
1894.09304	4053.075
1897.21921	4045.075
1900.34335	4030.875
1903.46544	4024.275
1906.58551	4025.375
1909.70353	4011.375
1912.81953	4016.575
1915.93349	4017.075
1919.04543	4004.575
1922.15534	3987.075
1925.26322	3982.675
1928.36908	3990.175
1931.47292	3965.975
1934.57473	3953.775
1937.67453	3953.875
1940.77232	3923.975
1943.86808	3918.175
1946.96184	3919.675
1950.05358	3906.075
1953.14331	3902.675
1956.23103	3880.475
1959.31675	3861.275
1962.40046	3854.575
1965.48217	3839.975
1968.56188	3834.075
1971.63959	3836.375
1974.7153	3825.475
1977.78901	3825.575
1980.86073	3803.275
1983.93046	3801.275
1986.99819	3775.275
1990.06394	3754.775
1993.1277	3727.975
1996.18947	3725.075
1999.24925	3717.375
2002.30706	3706.675
2005.36288	3698.375
2008.41672	3686.375
2011.46859	3677.375
2014.51848	3652.175
2017.56639	3652.975
2020.61233	3636.875
2023.6563	3624.875
2026.6983	3618.175
2029.73833	3598.875
2032.7764	3586.575
2035.8125	3583.875
2038.84664	3585.375
2041.87881	3573.475
2044.90903	3567.575
2047.93729	3551.275
2050.96359	3553.475
2053.98794	3531.775
2057.01034	3541.175
2060.03078	3543.775
2063.04927	3538.175
2066.06582	3540.575
2069.08042	3531.475
2072.09307	3504.575
2075.10378	3496.175
2078.11255	3499.875
2081.11938	3515.075
2084.12426	3514.675
2087.12722	3518.275
2090.12824	3511.575
2093.12732	3511.975
2096.12447	3537.675
2099.11969	3538.175
2102.11299	3511.775
2105.10435	3515.075
2108.09379	3523.075
2111.08131	3517.775
2114.0669	3514.375
2117.05057	3508.475
2120.03233	3518.975
2123.01216	3516.575
2125.99008	3526.975
2128.96609	3542.975
2131.94018	3537.575
2134.91236	3524.375
2137.88263	3530.075
2140.851	3540.275
2143.81746	3528.075
2146.78201	3536.675
2149.74466	3534.775
2152.7054	3518.575
2155.66425	3521.475
2158.6212	3530.475
2161.57625	3519.375
2164.52941	3521.475
2167.48067	3518.075
2170.43004	3515.975
2173.37752	3512.975
2176.32311	3520.175
2179.26681	3516.975
2182.20863	3519.375
2185.14856	3516.675
2188.08661	3511.775
2191.02278	3505.175
2193.95707	3500.575
2196.88948	3494.275
2199.82001	3495.975
2202.74867	3482.475
2205.67545	3486.875
2208.60037	3479.975
2211.52341	3481.575
2214.44458	3471.275
2217.36388	3481.975
2220.28132	3455.475
2223.1969	3432.975
2226.11061	3431.375
2229.02246	3421.975
2231.93245	3421.875
2234.84058	3429.975
2237.74686	3412.375
2240.65128	3408.275
2243.55385	3406.575
2246.45456	3403.175
2249.35343	3414.275
2252.25044	3397.575
2255.14561	3389.875
2258.03893	3392.375
2260.93041	3382.275
2263.82004	3393.075
2266.70783	3374.275
2269.59378	3382.575
2272.4779	3355.975
2275.36017	3338.775
2278.24061	3339.175
2281.11922	3337.975
2283.996	3325.975
2286.87094	3320.475
2289.74405	3321.175
2292.61534	3311.075
2295.4848	3309.875
2298.35243	3313.775
2301.21824	3311.975
2304.08223	3299.075
2306.94439	3301.875
2309.80474	3307.275
2312.66327	3300.375
2315.51999	3297.075
2318.37489	3296.275
2321.22797	3275.175
2324.07925	3275.775
2326.92871	3267.375
2329.77637	3254.975
2332.62222	3259.975
2335.46626	3249.475
2338.3085	3243.475
2341.14893	3263.875
2343.98756	3242.775
2346.8244	3249.275
2349.65943	3242.375
2352.49267	3238.675
2355.32411	3242.975
2358.15376	3237.875
2360.98161	3242.675
2363.80768	3253.775
2366.63195	3240.675
2369.45444	3247.275
2372.27514	3247.975
2375.09405	3226.875
2377.91118	3233.775
2380.72652	3234.175
2383.54009	3223.775
2386.35187	3207.275
2389.16188	3190.575
2391.97011	3200.575
2394.77657	3185.875
2397.58125	3162.375
2400.38416	3159.275
2403.18529	3157.575
2405.98466	3162.075
2408.78226	3158.575
2411.57809	3145.575
2414.37216	3133.975
2417.16446	3132.875
2419.955	3135.075
2422.74378	3149.975
2425.5308	3132.375
2428.31606	3129.275
2431.09956	3121.275
2433.88131	3132.775
2436.6613	3116.475
2439.43954	3131.775
2442.21603	3125.075
2444.99077	3124.975
2447.76377	3114.175
2450.53501	3118.375
2453.30451	3120.775
2456.07226	3116.575
2458.83827	3114.575
2461.60254	3113.675
2464.36507	3106.075
2467.12586	3096.475
2469.88492	3107.975
2472.64224	3102.275
2475.39782	3103.675
2478.15167	3093.075
2480.90379	3098.775
2483.65417	3096.675
2486.40283	3101.575
2489.14976	3107.275
2491.89497	3117.575
2494.63845	3119.675
2497.3802	3109.075
2500.12024	3096.275
2502.85855	3086.375
2505.59514	3081.175
2508.33002	3084.475
2511.06318	3074.775
2513.79462	3066.175
2516.52435	3056.975
2519.25237	3041.375
2521.97867	3043.075
2524.70327	3028.975
2527.42616	3027.475
2530.14734	3038.475
2532.86681	3027.375
2535.58458	3018.975
2538.30065	3027.575
2541.01501	3038.175
2543.72768	3019.675
2546.43864	3025.575
2549.14791	3018.375
2551.85548	3022.675
2554.56136	3009.075
2557.26554	3013.975
2559.96803	3012.575
2562.66883	2996.675
2565.36794	3008.575
2568.06536	2979.075
2570.7611	2965.175
2573.45514	2966.075
2576.14751	2968.475
2578.83819	2946.375
2581.52719	2942.575
2584.21451	2933.675
2586.90015	2941.875
2589.58411	2932.075
2592.2664	2924.175
2594.94701	2936.475
2597.62594	2921.475
2600.30321	2927.975
2602.9788	2917.475
2605.65273	2912.075
2608.32498	2914.675
2610.99557	2906.575
2613.66449	2909.275
2616.33175	2903.575
2618.99734	2896.175
2621.66128	2894.375
2624.32355	2891.875
2626.98416	2887.475
2629.64311	2875.075
2632.30041	2873.375
2634.95605	2860.275
2637.61004	2862.275
2640.26238	2849.575
2642.91306	2855.975
2645.56209	2855.575
2648.20948	2855.275
2650.85521	2847.075
2653.4993	2855.075
2656.14175	2845.575
2658.78255	2845.875
2661.42171	2840.075
2664.05923	2855.775
2666.6951	2866.275
2669.32934	2843.575
2671.96194	2842.975
2674.59291	2838.375
2677.22224	2843.075
2679.84993	2855.975
2682.476	2850.275
2685.10043	2843.175
2687.72324	2851.775
2690.34441	2853.075
2692.96396	2834.075
2695.58188	2832.975
2698.19818	2829.075
2700.81285	2838.575
2703.4259	2833.475
2706.03733	2845.875
2708.64714	2839.575
2711.25533	2837.575
2713.86191	2829.875
2716.46687	2844.375
2719.07021	2830.875
2721.67194	2832.875
2724.27206	2835.775
2726.87057	2828.875
2729.46747	2824.475
2732.06276	2829.775
2734.65644	2827.475
2737.24852	2835.375
2739.83899	2830.775
2742.42786	2834.675
2745.01513	2806.175
2747.60079	2816.275
2750.18486	2809.075
2752.76733	2814.975
2755.3482	2797.975
2757.92747	2790.775
2760.50515	2784.475
2763.08123	2776.275
2765.65573	2778.675
2768.22863	2768.275
2770.79994	2758.475
2773.36967	2756.575
2775.9378	2751.375
2778.50435	2766.175
2781.06932	2750.275
2783.6327	2755.375
2786.1945	2743.375
2788.75471	2741.275
2791.31335	2742.175
2793.87041	2734.675
2796.42589	2747.075
2798.97979	2734.675
2801.53212	2741.475
2804.08288	2726.675
2806.63206	2725.975
2809.17967	2711.175
2811.72571	2700.375
2814.27018	2713.275
2816.81308	2715.475
2819.35442	2695.575
2821.89419	2704.975
2824.43239	2683.475
2826.96904	2685.375
2829.50412	2687.275
2832.03763	2665.575
2834.56959	2669.675
2837.1	2659.175
2839.62884	2660.775
2842.15613	2659.175
2844.68186	2652.175
2847.20604	2641.875
2849.72867	2635.375
2852.24974	2653.075
2854.76927	2642.075
2857.28724	2631.375
2859.80367	2638.275
2862.31855	2632.775
2864.83189	2642.175
2867.34368	2634.475
2869.85393	2642.475
2872.36264	2626.275
2874.8698	2620.475
2877.37543	2635.275
2879.87952	2628.575
2882.38207	2626.475
2884.88308	2614.075
2887.38256	2612.375
2889.88051	2603.275
2892.37692	2605.675
2894.8718	2600.475
2897.36515	2605.375
2899.85698	2599.375
2902.34727	2604.075
2904.83604	2604.275
2907.32328	2601.175
2909.809	2601.875
2912.29319	2620.875
2914.77587	2610.675
2917.25702	2625.875
2919.73665	2613.775
2922.21476	2612.975
2924.69136	2611.575
2927.16644	2605.575
2929.64	2600.575
2932.11205	2591.675
2934.58258	2582.875
2937.05161	2584.575
2939.51912	2591.975
2941.98513	2579.175
2944.44962	2563.575
2946.91261	2560.075
2949.37409	2577.075
2951.83407	2572.175
2954.29254	2572.675
2956.74951	2564.175
2959.20498	2560.375
2961.65895	2549.875
2964.11142	2546.975
2966.56239	2551.275
2969.01186	2536.675
2971.45984	2547.975
2973.90632	2540.875
2976.35131	2537.075
2978.7948	2534.975
2981.23681	2530.975
2983.67732	2537.175
2986.11635	2525.575
2988.55388	2515.275
2990.98993	2520.075
2993.4245	2506.775
2995.85758	2502.975
2998.28917	2500.775
3000.71928	2493.575
3003.14791	2502.475
3005.57506	2480.675
3008.00073	2475.975
3010.42493	2475.075
3012.84764	2466.475
3015.26888	2460.575
3017.68865	2463.675
3020.10694	2457.875
3022.52376	2431.675
3024.9391	2439.875
3027.35298	2435.575
3029.76539	2428.975
3032.17632	2428.075
3034.5858	2413.275
3036.9938	2402.375
3039.40034	2395.275
3041.80542	2402.075
3044.20903	2401.175
3046.61118	2395.875
3049.01187	2385.075
3051.4111	2376.875
3053.80888	2377.075
3056.20519	2370.975
3058.60005	2366.275
3060.99345	2368.875
3063.3854	2372.075
3065.7759	2356.675
3068.16494	2350.375
3070.55254	2349.975
3072.93868	2339.775
3075.32338	2316.675
3077.70662	2325.975
3080.08842	2305.475
3082.46878	2314.975
3084.84769	2295.975
3087.22515	2291.075
3089.60118	2306.675
3091.97576	2301.375
3094.3489	2299.375
3096.72061	2307.475
3099.09087	2305.375
3101.4597	2295.275
3103.82709	2289.975
3106.19305	2288.575
3108.55757	2290.975
3110.92066	2278.975
3113.28232	2286.275
3115.64255	2278.275
3118.00134	2265.875
3120.35871	2263.075
3122.71466	2260.375
3125.06917	2252.475
3127.42226	2243.475
3129.77393	2250.775
3132.12417	2253.575
3134.47299	2235.575
3136.82039	2227.975
3139.16636	2239.475
3141.51092	2230.775
3143.85406	2229.075
3146.19579	2233.275
3148.53609	2238.375
3150.87499	2233.075
3153.21246	2235.875
3155.54853	2231.775
3157.88318	2232.975
3160.21642	2250.275
3162.54826	2231.275
3164.87868	2226.375
3167.2077	2219.375
3169.5353	2222.775
3171.86151	2216.775
3174.18631	2215.575
3176.5097	2213.875
3178.83169	2206.675
3181.15228	2209.775
3183.47147	2199.275
3185.78926	2188.275
3188.10565	2187.975
3190.42065	2176.175
3192.73424	2178.975
3195.04645	2174.075
3197.35725	2174.675
3199.66667	2180.175
3201.97469	2177.375
3204.28132	2166.575
3206.58656	2175.175
3208.8904	2182.175
3211.19287	2177.875
3213.49394	2165.675
3215.79363	2184.175
3218.09193	2177.175
3220.38884	2179.875
3222.68438	2182.675
3224.97853	2173.975
3227.2713	2167.975
3229.56269	2156.375
3231.8527	2162.275
3234.14133	2162.375
3236.42858	2149.175
3238.71446	2146.575
3240.99896	2135.075
3243.28209	2130.075
3245.56384	2128.775
3247.84423	2131.575
3250.12324	2116.175
3252.40088	2120.575
3254.67715	2130.375
3256.95205	2107.375
3259.22558	2116.175
3261.49775	2108.175
3263.76855	2107.275
3266.03799	2098.475
3268.30606	2114.075
3270.57277	2100.775
3272.83812	2098.975
3275.10211	2090.575
3277.36474	2092.375
3279.62601	2091.375
3281.88593	2083.075
3284.14448	2083.575
3286.40168	2069.975
3288.65753	2088.075
3290.91202	2077.475
3293.16516	2076.475
3295.41695	2065.775
3297.66738	2068.775
3299.91647	2045.675
3302.16421	2042.375
3304.4106	2018.775
3306.65564	2012.075
3308.89933	2001.875
3311.14169	1978.575
3313.38269	1973.675
3315.62236	1954.175
3317.86068	1942.675
3320.09766	1930.875
3322.3333	1908.875
3324.5676	1898.375
3326.80056	1871.875
3329.03219	1858.475
3331.26248	-0.425
3333.49143	-0.525
3335.71905	-0.425
