Data from AgNPs_UA_5uM_CRN_500uM_SU_RamanShift__118__11-49-03-163.txt Node

Date: Thu Aug 04 11:49:03 BST 2022
User: TCL
Spectrometer: QEP01345
Trigger mode: 4
Integration Time (sec): 1.000000E0
Scans to average: 10
Electric dark correction enabled: true
Nonlinearity correction enabled: false
Boxcar width: 0
XAxis mode: Raman Shifts
Number of Pixels in Spectrum: 1044
>>>>>Begin Spectral Data<<<<<
46.04893	-1.225
50.45542	1.275
54.85868	0.875
59.25871	-0.825
63.6555	-58.225
68.04907	-39.725
72.43941	-72.925
76.82654	-57.825
81.21044	-57.425
85.59113	-49.625
89.96862	-76.625
94.34289	-57.325
98.71396	-77.725
103.08183	-58.125
107.4465	-50.925
111.80798	-59.225
116.16626	-48.025
120.52136	-75.125
124.87327	-53.825
129.222	-64.625
133.56755	-51.825
137.90993	-65.125
142.24913	-54.225
146.58517	-47.125
150.91804	-46.325
155.24774	-37.225
159.57429	-19.125
163.89768	-16.325
168.21792	22.475
172.53501	34.175
176.84895	106.475
181.15975	219.675
185.46741	350.475
189.77193	500.575
194.07331	751.375
198.37157	1002.475
202.6667	1239.375
206.9587	1520.875
211.24758	1789.675
215.53334	2056.375
219.81599	2351.975
224.09553	2701.875
228.37195	3063.475
232.64527	3454.475
236.91549	3883.675
241.18261	4233.775
245.44663	4531.275
249.70755	4755.475
253.96539	4897.275
258.22014	4995.175
262.4718	5054.175
266.72039	5077.575
270.96589	5023.175
275.20832	4943.975
279.44768	4837.175
283.68397	4743.575
287.91719	4671.975
292.14735	4657.575
296.37445	4735.975
300.59849	4891.175
304.81948	5049.175
309.03742	5258.975
313.25231	5375.075
317.46415	5313.775
321.67296	5095.475
325.87872	4887.675
330.08145	4803.475
334.28114	4796.875
338.47781	4845.175
342.67145	4942.275
346.86207	5104.175
351.04966	5322.675
355.23424	5559.275
359.4158	5727.575
363.59435	5759.175
367.76989	5759.575
371.94243	5729.475
376.11196	5668.175
380.27849	5664.975
384.44203	5683.575
388.60257	5664.075
392.76012	5676.375
396.91468	5780.475
401.06626	5894.975
405.21485	5894.075
409.36047	5839.475
413.50311	5686.275
417.64277	5534.375
421.77947	5417.275
425.9132	5380.075
430.04396	5389.775
434.17176	5440.375
438.2966	5541.175
442.41849	5593.575
446.53742	5696.575
450.6534	5811.175
454.76644	5862.075
458.87653	5881.175
462.98368	5891.775
467.08789	5871.175
471.18916	5866.775
475.2875	5814.275
479.38291	5734.375
483.4754	5651.275
487.56496	5613.875
491.6516	5571.175
495.73531	5554.775
499.81612	5550.875
503.89401	5620.475
507.96899	5655.275
512.04106	5719.275
516.11023	5770.175
520.1765	5846.075
524.23987	5848.275
528.30034	5884.275
532.35792	5863.875
536.41261	5815.475
540.46441	5761.575
544.51333	5742.575
548.55936	5791.575
552.60252	5900.975
556.64279	5946.575
560.6802	6030.175
564.71473	6081.175
568.7464	6159.375
572.7752	6140.175
576.80114	5976.975
580.82422	5846.675
584.84444	5795.975
588.86181	5797.375
592.87633	5824.975
596.888	5907.375
600.89682	6159.675
604.9028	6749.375
608.90594	7949.875
612.90624	9289.775
616.90371	8739.975
620.89834	6992.475
624.89015	6279.675
628.87913	6157.475
632.86528	6278.075
636.84862	6366.775
640.82913	6294.275
644.80683	6121.175
648.78172	6045.675
652.75379	6061.275
656.72306	6168.475
660.68952	6323.175
664.65319	6274.575
668.61405	6156.575
672.57211	6131.375
676.52738	6150.375
680.47986	6092.175
684.42955	6059.175
688.37646	6004.475
692.32058	6014.075
696.26192	6061.175
700.20048	6149.275
704.13626	6174.875
708.06928	6155.775
711.99952	6116.975
715.927	6084.275
719.85171	6099.475
723.77365	6130.475
727.69284	6128.475
731.60928	6149.075
735.52295	6097.075
739.43388	6148.875
743.34206	6163.975
747.24749	6189.075
751.15017	6194.475
755.05012	6198.275
758.94733	6430.475
762.8418	6879.875
766.73354	7637.475
770.62254	8205.875
774.50882	8262.875
778.39237	8019.575
782.27321	7489.175
786.15132	6898.675
790.02671	6516.275
793.89938	6254.275
797.76935	6222.475
801.6366	6175.675
805.50115	6143.175
809.36299	6153.075
813.22213	6146.475
817.07857	6143.975
820.93231	6161.775
824.78336	6159.475
828.63172	6179.375
832.47738	6163.075
836.32036	6199.875
840.16066	6206.975
843.99827	6196.175
847.8332	6197.675
851.66546	6206.675
855.49504	6225.475
859.32195	6250.975
863.1462	6235.775
866.96777	6259.675
870.78668	6259.375
874.60293	6271.775
878.41652	6277.975
882.22745	6336.575
886.03573	6364.075
889.84136	6338.275
893.64433	6349.775
897.44466	6343.675
901.24235	6364.175
905.0374	6337.775
908.8298	6281.375
912.61957	6272.675
916.40671	6263.175
920.19121	6288.575
923.97308	6359.075
927.75233	6389.475
931.52895	6388.575
935.30295	6432.175
939.07433	6348.675
942.84309	6242.175
946.60924	6248.075
950.37278	6212.575
954.13371	6205.675
957.89203	6237.175
961.64774	6256.475
965.40086	6218.575
969.15137	6188.275
972.89929	6229.875
976.64461	6202.275
980.38733	6242.475
984.12747	6227.075
987.86502	6263.975
991.59999	6293.475
995.33237	6374.975
999.06217	6469.575
1002.78939	6532.875
1006.51404	6693.075
1010.23611	6804.575
1013.95561	6850.975
1017.67255	6894.975
1021.38692	6886.875
1025.09872	6787.775
1028.80796	6692.375
1032.51465	6691.275
1036.21877	6693.775
1039.92035	6716.475
1043.61937	6748.175
1047.31584	6764.675
1051.00976	6802.275
1054.70114	6821.275
1058.38998	6803.375
1062.07627	6815.975
1065.76003	6855.075
1069.44126	6934.075
1073.11995	7038.075
1076.79611	7167.675
1080.46974	7287.975
1084.14085	7348.375
1087.80943	7380.775
1091.47549	7451.975
1095.13903	7468.575
1098.80005	7461.475
1102.45857	7346.875
1106.11456	7235.675
1109.76805	7122.475
1113.41903	7142.575
1117.06751	7243.275
1120.71348	7364.375
1124.35696	7563.675
1127.99793	7716.475
1131.63641	7643.375
1135.2724	7453.075
1138.90589	7319.575
1142.5369	7238.575
1146.16542	7226.275
1149.79145	7189.175
1153.415	7136.175
1157.03607	7054.475
1160.65467	7071.075
1164.27079	7187.975
1167.88443	7307.775
1171.49561	7570.775
1175.10432	7896.775
1178.71056	8410.175
1182.31434	8884.475
1185.91565	9100.175
1189.51451	9101.475
1193.11091	9050.175
1196.70485	8978.575
1200.29634	8910.975
1203.88538	8807.075
1207.47197	8560.675
1211.05612	8351.475
1214.63782	8159.575
1218.21708	7996.475
1221.79391	7816.575
1225.36829	7669.775
1228.94024	7621.875
1232.50976	7621.575
1236.07685	7630.775
1239.6415	7669.675
1243.20374	7690.175
1246.76355	7754.275
1250.32093	7826.175
1253.8759	7926.175
1257.42845	8131.375
1260.97859	8334.775
1264.52631	8473.175
1268.07163	8512.275
1271.61453	8583.775
1275.15503	8611.875
1278.69312	8619.075
1282.22882	8645.875
1285.76211	8742.975
1289.29301	8865.775
1292.82151	9029.275
1296.34761	9167.175
1299.87133	9469.175
1303.39266	9886.675
1306.9116	10501.375
1310.42815	11158.775
1313.94233	11351.475
1317.45412	10978.575
1320.96354	10449.175
1324.47058	9940.475
1327.97525	9513.475
1331.47754	9291.875
1334.97747	9265.875
1338.47502	9364.575
1341.97022	9678.975
1345.46305	10186.275
1348.95352	10843.875
1352.44163	11572.175
1355.92738	12174.375
1359.41078	12951.175
1362.89183	13515.775
1366.37053	12970.375
1369.84688	11352.875
1373.32088	9888.175
1376.79254	9118.275
1380.26186	8742.875
1383.72883	8517.875
1387.19347	8275.775
1390.65578	8092.275
1394.11575	7957.975
1397.57339	7840.775
1401.0287	7769.775
1404.48168	7744.275
1407.93234	7774.975
1411.38068	7808.675
1414.82669	7870.775
1418.27039	7900.975
1421.71177	7872.675
1425.15083	7791.875
1428.58758	7747.575
1432.02203	7777.275
1435.45416	7849.775
1438.88399	7887.675
1442.31151	7898.575
1445.73673	8015.275
1449.15965	8076.475
1452.58027	8102.775
1455.9986	8091.475
1459.41463	8084.575
1462.82837	8193.875
1466.23982	8314.775
1469.64898	8503.475
1473.05586	8574.175
1476.46045	8623.875
1479.86276	8645.975
1483.26279	8646.075
1486.66054	8721.775
1490.05602	8854.175
1493.44922	9119.475
1496.84016	9625.975
1500.22882	10403.275
1503.61521	11306.675
1506.99934	12206.375
1510.38121	12720.775
1513.76081	12608.975
1517.13816	11786.575
1520.51324	10668.375
1523.88607	9806.575
1527.25665	9286.875
1530.62498	9042.375
1533.99105	8947.175
1537.35488	8946.975
1540.71647	8970.175
1544.07581	8996.875
1547.4329	8911.675
1550.78776	8829.475
1554.14038	8637.075
1557.49077	8538.975
1560.83892	8532.975
1564.18484	8603.975
1567.52853	8711.475
1570.86999	8879.175
1574.20922	8913.575
1577.54624	8848.275
1580.88103	8595.275
1584.2136	8219.275
1587.54395	8092.375
1590.87208	8118.275
1594.19801	8278.375
1597.52172	8570.475
1600.84321	8748.475
1604.16251	8765.875
1607.47959	8672.375
1610.79447	8524.475
1614.10715	8180.175
1617.41763	7889.975
1620.7259	7600.275
1624.03199	7447.775
1627.33587	7388.975
1630.63757	7418.175
1633.93707	7616.175
1637.23439	7898.975
1640.52951	8373.175
1643.82246	8984.175
1647.11321	9637.075
1650.40179	9932.075
1653.68819	9622.675
1656.97241	8820.975
1660.25446	7978.175
1663.53433	7371.375
1666.81203	6959.075
1670.08756	6753.475
1673.36092	6640.375
1676.63211	6534.675
1679.90115	6488.575
1683.16801	6401.775
1686.43272	6334.075
1689.69527	6293.975
1692.95567	6238.575
1696.2139	6207.575
1699.46999	6165.375
1702.72392	6146.375
1705.97571	6165.675
1709.22535	6134.875
1712.47284	6169.875
1715.71819	6194.575
1718.96139	6193.375
1722.20246	6175.275
1725.44139	6160.375
1728.67818	6138.575
1731.91284	6118.475
1735.14537	6086.175
1738.37576	6076.075
1741.60403	6053.375
1744.83017	6033.675
1748.05418	6028.675
1751.27607	6045.975
1754.49584	6005.575
1757.71349	5980.375
1760.92903	5983.975
1764.14244	5944.675
1767.35375	5935.975
1770.56294	5932.175
1773.77002	5914.075
1776.97499	5941.175
1780.17785	5926.875
1783.37861	5914.175
1786.57727	5947.675
1789.77382	5879.575
1792.96828	5909.775
1796.16064	5906.375
1799.3509	5884.675
1802.53907	5884.275
1805.72514	5866.475
1808.90913	5837.975
1812.09102	5841.575
1815.27083	5806.875
1818.44856	5819.275
1821.6242	5803.375
1824.79776	5791.075
1827.96924	5766.975
1831.13864	5754.875
1834.30597	5772.875
1837.47122	5762.775
1840.6344	5743.075
1843.7955	5743.875
1846.95454	5720.675
1850.11151	5745.575
1853.26642	5711.375
1856.41926	5719.175
1859.57004	5722.675
1862.71876	5719.075
1865.86542	5711.075
1869.01003	5694.875
1872.15258	5686.875
1875.29308	5699.875
1878.43152	5698.075
1881.56792	5683.275
1884.70227	5667.575
1887.83457	5666.475
1890.96482	5645.475
1894.09304	5621.075
1897.21921	5635.875
1900.34335	5632.175
1903.46544	5609.375
1906.58551	5634.875
1909.70353	5622.575
1912.81953	5616.875
1915.93349	5598.075
1919.04543	5589.775
1922.15534	5585.375
1925.26322	5580.375
1928.36908	5577.875
1931.47292	5558.775
1934.57473	5555.075
1937.67453	5541.575
1940.77232	5512.475
1943.86808	5511.975
1946.96184	5516.575
1950.05358	5474.875
1953.14331	5434.875
1956.23103	5451.475
1959.31675	5411.975
1962.40046	5377.675
1965.48217	5399.275
1968.56188	5372.775
1971.63959	5354.075
1974.7153	5360.975
1977.78901	5366.775
1980.86073	5319.375
1983.93046	5277.275
1986.99819	5217.575
1990.06394	5242.875
1993.1277	5253.275
1996.18947	5243.075
1999.24925	5219.175
2002.30706	5211.275
2005.36288	5181.875
2008.41672	5167.575
2011.46859	5146.275
2014.51848	5141.275
2017.56639	5116.175
2020.61233	5106.575
2023.6563	5101.875
2026.6983	5045.275
2029.73833	5052.975
2032.7764	5071.075
2035.8125	5006.775
2038.84664	5013.475
2041.87881	5009.075
2044.90903	5017.175
2047.93729	4993.975
2050.96359	4973.675
2053.98794	4987.775
2057.01034	4990.375
2060.03078	4956.875
2063.04927	4958.575
2066.06582	4962.575
2069.08042	4955.375
2072.09307	4949.375
2075.10378	4943.575
2078.11255	4955.075
2081.11938	4936.375
2084.12426	4933.375
2087.12722	4946.275
2090.12824	4926.475
2093.12732	4957.575
2096.12447	4954.075
2099.11969	4941.475
2102.11299	4930.575
2105.10435	4947.575
2108.09379	4951.375
2111.08131	4928.975
2114.0669	4928.375
2117.05057	4941.375
2120.03233	4921.975
2123.01216	4942.675
2125.99008	4953.175
2128.96609	4950.375
2131.94018	4968.875
2134.91236	4953.675
2137.88263	4937.575
2140.851	4970.875
2143.81746	4986.075
2146.78201	4952.575
2149.74466	4961.375
2152.7054	4966.175
2155.66425	4952.875
2158.6212	4959.075
2161.57625	4922.675
2164.52941	4903.575
2167.48067	4927.775
2170.43004	4917.775
2173.37752	4929.575
2176.32311	4918.175
2179.26681	4930.575
2182.20863	4924.175
2185.14856	4921.275
2188.08661	4926.175
2191.02278	4938.175
2193.95707	4910.875
2196.88948	4899.975
2199.82001	4912.675
2202.74867	4893.775
2205.67545	4892.875
2208.60037	4902.375
2211.52341	4877.375
2214.44458	4873.275
2217.36388	4855.875
2220.28132	4843.275
2223.1969	4823.275
2226.11061	4826.675
2229.02246	4815.675
2231.93245	4820.075
2234.84058	4803.075
2237.74686	4793.075
2240.65128	4777.375
2243.55385	4771.175
2246.45456	4754.875
2249.35343	4762.975
2252.25044	4746.475
2255.14561	4743.375
2258.03893	4734.575
2260.93041	4724.975
2263.82004	4737.375
2266.70783	4720.575
2269.59378	4696.475
2272.4779	4666.575
2275.36017	4681.275
2278.24061	4678.375
2281.11922	4628.375
2283.996	4640.075
2286.87094	4619.975
2289.74405	4626.675
2292.61534	4634.975
2295.4848	4618.575
2298.35243	4615.375
2301.21824	4602.975
2304.08223	4597.475
2306.94439	4618.175
2309.80474	4610.975
2312.66327	4601.775
2315.51999	4588.275
2318.37489	4583.375
2321.22797	4556.775
2324.07925	4554.175
2326.92871	4553.175
2329.77637	4519.275
2332.62222	4521.675
2335.46626	4500.475
2338.3085	4505.475
2341.14893	4507.075
2343.98756	4517.275
2346.8244	4485.175
2349.65943	4491.175
2352.49267	4494.975
2355.32411	4507.975
2358.15376	4488.975
2360.98161	4491.275
2363.80768	4462.675
2366.63195	4480.175
2369.45444	4488.475
2372.27514	4463.375
2375.09405	4469.275
2377.91118	4436.175
2380.72652	4435.275
2383.54009	4409.675
2386.35187	4443.875
2389.16188	4399.875
2391.97011	4408.975
2394.77657	4392.075
2397.58125	4387.375
2400.38416	4391.375
2403.18529	4376.075
2405.98466	4363.175
2408.78226	4360.975
2411.57809	4348.375
2414.37216	4335.875
2417.16446	4348.875
2419.955	4323.575
2422.74378	4341.975
2425.5308	4320.375
2428.31606	4326.675
2431.09956	4331.975
2433.88131	4280.675
2436.6613	4315.975
2439.43954	4291.675
2442.21603	4270.575
2444.99077	4281.375
2447.76377	4309.075
2450.53501	4285.275
2453.30451	4264.475
2456.07226	4270.175
2458.83827	4252.075
2461.60254	4205.375
2464.36507	4252.275
2467.12586	4227.175
2469.88492	4233.975
2472.64224	4250.775
2475.39782	4212.275
2478.15167	4224.375
2480.90379	4236.875
2483.65417	4221.075
2486.40283	4227.775
2489.14976	4231.975
2491.89497	4211.975
2494.63845	4218.575
2497.3802	4192.475
2500.12024	4200.875
2502.85855	4184.475
2505.59514	4185.375
2508.33002	4184.775
2511.06318	4167.175
2513.79462	4176.975
2516.52435	4129.975
2519.25237	4100.075
2521.97867	4126.075
2524.70327	4129.375
2527.42616	4129.275
2530.14734	4142.975
2532.86681	4125.475
2535.58458	4123.575
2538.30065	4112.375
2541.01501	4122.675
2543.72768	4101.675
2546.43864	4100.775
2549.14791	4100.675
2551.85548	4072.275
2554.56136	4071.475
2557.26554	4082.075
2559.96803	4065.175
2562.66883	4053.975
2565.36794	4041.375
2568.06536	3989.975
2570.7611	4028.475
2573.45514	4013.475
2576.14751	3989.975
2578.83819	3982.775
2581.52719	3956.675
2584.21451	3975.175
2586.90015	3955.875
2589.58411	3936.575
2592.2664	3947.075
2594.94701	3938.575
2597.62594	3951.775
2600.30321	3878.375
2602.9788	3907.175
2605.65273	3897.275
2608.32498	3892.875
2610.99557	3916.275
2613.66449	3870.775
2616.33175	3887.275
2618.99734	3907.575
2621.66128	3886.175
2624.32355	3874.375
2626.98416	3863.575
2629.64311	3849.375
2632.30041	3854.975
2634.95605	3818.975
2637.61004	3817.975
2640.26238	3812.275
2642.91306	3810.575
2645.56209	3830.475
2648.20948	3813.175
2650.85521	3782.475
2653.4993	3800.575
2656.14175	3812.875
2658.78255	3807.275
2661.42171	3761.375
2664.05923	3807.475
2666.6951	3803.175
2669.32934	3819.275
2671.96194	3817.975
2674.59291	3792.975
2677.22224	3802.175
2679.84993	3826.175
2682.476	3796.075
2685.10043	3783.075
2687.72324	3778.375
2690.34441	3770.975
2692.96396	3781.075
2695.58188	3791.875
2698.19818	3783.575
2700.81285	3776.375
2703.4259	3766.275
2706.03733	3723.675
2708.64714	3731.675
2711.25533	3765.275
2713.86191	3770.175
2716.46687	3760.675
2719.07021	3752.975
2721.67194	3748.275
2724.27206	3773.475
2726.87057	3753.675
2729.46747	3740.075
2732.06276	3761.675
2734.65644	3719.775
2737.24852	3737.475
2739.83899	3711.975
2742.42786	3722.975
2745.01513	3720.375
2747.60079	3712.475
2750.18486	3690.075
2752.76733	3697.175
2755.3482	3692.875
2757.92747	3702.175
2760.50515	3667.075
2763.08123	3666.375
2765.65573	3666.875
2768.22863	3656.675
2770.79994	3646.575
2773.36967	3632.775
2775.9378	3642.675
2778.50435	3634.375
2781.06932	3630.075
2783.6327	3616.375
2786.1945	3626.875
2788.75471	3627.575
2791.31335	3606.075
2793.87041	3595.475
2796.42589	3572.875
2798.97979	3570.175
2801.53212	3567.775
2804.08288	3588.575
2806.63206	3564.375
2809.17967	3535.975
2811.72571	3564.775
2814.27018	3536.075
2816.81308	3529.475
2819.35442	3502.675
2821.89419	3510.675
2824.43239	3492.175
2826.96904	3506.975
2829.50412	3487.075
2832.03763	3486.275
2834.56959	3491.775
2837.1	3473.775
2839.62884	3481.675
2842.15613	3481.775
2844.68186	3479.875
2847.20604	3451.475
2849.72867	3435.275
2852.24974	3442.875
2854.76927	3389.675
2857.28724	3357.975
2859.80367	3410.375
2862.31855	3412.975
2864.83189	3402.075
2867.34368	3417.275
2869.85393	3414.875
2872.36264	3391.275
2874.8698	3384.775
2877.37543	3386.175
2879.87952	3378.975
2882.38207	3359.275
2884.88308	3369.175
2887.38256	3378.975
2889.88051	3368.975
2892.37692	3363.975
2894.8718	3348.075
2897.36515	3373.575
2899.85698	3357.775
2902.34727	3372.075
2904.83604	3372.175
2907.32328	3373.775
2909.809	3369.775
2912.29319	3366.475
2914.77587	3359.675
2917.25702	3360.575
2919.73665	3373.875
2922.21476	3372.875
2924.69136	3367.175
2927.16644	3358.275
2929.64	3355.175
2932.11205	3334.975
2934.58258	3345.975
2937.05161	3334.575
2939.51912	3352.875
2941.98513	3361.775
2944.44962	3330.975
2946.91261	3293.775
2949.37409	3318.075
2951.83407	3317.375
2954.29254	3310.875
2956.74951	3319.375
2959.20498	3288.275
2961.65895	3273.775
2964.11142	3275.175
2966.56239	3283.175
2969.01186	3277.875
2971.45984	3269.275
2973.90632	3262.875
2976.35131	3264.175
2978.7948	3261.075
2981.23681	3247.975
2983.67732	3247.475
2986.11635	3234.475
2988.55388	3204.675
2990.98993	3240.175
2993.4245	3202.275
2995.85758	3193.175
2998.28917	3181.475
3000.71928	3181.075
3003.14791	3173.275
3005.57506	3170.075
3008.00073	3156.375
3010.42493	3088.975
3012.84764	3145.175
3015.26888	3132.475
3017.68865	3113.375
3020.10694	3074.975
3022.52376	3106.575
3024.9391	3088.575
3027.35298	3082.575
3029.76539	3049.075
3032.17632	3076.575
3034.5858	3066.375
3036.9938	3063.875
3039.40034	3069.675
3041.80542	3052.675
3044.20903	3037.775
3046.61118	3035.375
3049.01187	3043.075
3051.4111	3026.275
3053.80888	2994.475
3056.20519	2995.875
3058.60005	2977.375
3060.99345	3014.475
3063.3854	2972.475
3065.7759	2966.175
3068.16494	2950.475
3070.55254	2939.675
3072.93868	2949.275
3075.32338	2929.175
3077.70662	2929.975
3080.08842	2917.875
3082.46878	2909.675
3084.84769	2920.375
3087.22515	2888.575
3089.60118	2928.475
3091.97576	2905.875
3094.3489	2915.375
3096.72061	2902.175
3099.09087	2884.275
3101.4597	2897.975
3103.82709	2885.875
3106.19305	2873.375
3108.55757	2876.775
3110.92066	2856.075
3113.28232	2856.275
3115.64255	2872.675
3118.00134	2857.675
3120.35871	2834.075
3122.71466	2827.075
3125.06917	2824.675
3127.42226	2807.075
3129.77393	2796.775
3132.12417	2811.375
3134.47299	2809.575
3136.82039	2795.875
3139.16636	2767.175
3141.51092	2790.475
3143.85406	2796.775
3146.19579	2767.875
3148.53609	2769.275
3150.87499	2770.775
3153.21246	2781.175
3155.54853	2792.775
3157.88318	2776.175
3160.21642	2784.275
3162.54826	2779.375
3164.87868	2777.975
3167.2077	2737.675
3169.5353	2746.975
3171.86151	2768.275
3174.18631	2749.875
3176.5097	2743.075
3178.83169	2747.775
3181.15228	2746.575
3183.47147	2721.975
3185.78926	2703.175
3188.10565	2723.375
3190.42065	2689.675
3192.73424	2699.275
3195.04645	2696.775
3197.35725	2681.975
3199.66667	2679.575
3201.97469	2687.275
3204.28132	2664.475
3206.58656	2673.675
3208.8904	2691.475
3211.19287	2685.575
3213.49394	2664.375
3215.79363	2652.975
3218.09193	2671.675
3220.38884	2646.275
3222.68438	2651.275
3224.97853	2638.175
3227.2713	2668.575
3229.56269	2631.675
3231.8527	2653.275
3234.14133	2634.575
3236.42858	2629.575
3238.71446	2600.575
3240.99896	2621.175
3243.28209	2601.375
3245.56384	2619.675
3247.84423	2601.575
3250.12324	2596.575
3252.40088	2593.975
3254.67715	2567.075
3256.95205	2570.275
3259.22558	2589.275
3261.49775	2578.975
3263.76855	2577.475
3266.03799	2574.875
3268.30606	2572.775
3270.57277	2568.075
3272.83812	2552.875
3275.10211	2538.675
3277.36474	2570.175
3279.62601	2547.175
3281.88593	2523.475
3284.14448	2509.375
3286.40168	2522.575
3288.65753	2510.575
3290.91202	2514.375
3293.16516	2490.775
3295.41695	2521.875
3297.66738	2505.175
3299.91647	2479.675
3302.16421	2487.275
3304.4106	2424.075
3306.65564	2452.675
3308.89933	2400.675
3311.14169	2404.275
3313.38269	2386.375
3315.62236	2360.775
3317.86068	2346.475
3320.09766	2341.375
3322.3333	2310.275
3324.5676	2287.975
3326.80056	2258.075
3329.03219	2234.675
3331.26248	-0.425
3333.49143	-0.425
3335.71905	0.675
