Data from AgNPs_UA_5uM_CRN_500uM_SU_RamanShift__40__11-36-03-146.txt Node

Date: Thu Aug 04 11:36:03 BST 2022
User: TCL
Spectrometer: QEP01345
Trigger mode: 4
Integration Time (sec): 1.000000E0
Scans to average: 10
Electric dark correction enabled: true
Nonlinearity correction enabled: false
Boxcar width: 0
XAxis mode: Raman Shifts
Number of Pixels in Spectrum: 1044
>>>>>Begin Spectral Data<<<<<
46.04893	0.325
50.45542	-0.475
54.85868	0.625
59.25871	-0.375
63.6555	-53.875
68.04907	-34.375
72.43941	-66.475
76.82654	-51.275
81.21044	-50.075
85.59113	-44.775
89.96862	-70.175
94.34289	-47.775
98.71396	-71.975
103.08183	-51.875
107.4465	-41.775
111.80798	-48.375
116.16626	-37.175
120.52136	-62.775
124.87327	-38.275
129.222	-51.675
133.56755	-35.075
137.90993	-44.475
142.24913	-31.075
146.58517	-17.175
150.91804	-11.075
155.24774	9.525
159.57429	42.125
163.89768	68.725
168.21792	140.725
172.53501	205.925
176.84895	348.425
181.15975	568.625
185.46741	857.025
189.77193	1195.425
194.07331	1701.625
198.37157	2212.825
202.6667	2762.425
206.9587	3350.125
211.24758	4000.625
215.53334	4716.325
219.81599	5552.925
224.09553	6509.425
228.37195	7492.625
232.64527	8429.425
236.91549	9209.625
241.18261	9571.425
245.44663	9692.525
249.70755	9640.725
253.96539	9642.225
258.22014	9746.125
262.4718	9823.725
266.72039	9833.525
270.96589	9569.825
275.20832	9166.625
279.44768	8752.525
283.68397	8444.625
287.91719	8360.925
292.14735	8559.925
296.37445	9222.125
300.59849	10347.125
304.81948	11907.925
309.03742	13739.225
313.25231	15074.125
317.46415	14880.525
321.67296	13041.125
325.87872	10893.725
330.08145	9681.625
334.28114	9396.925
338.47781	9762.025
342.67145	10438.525
346.86207	11547.625
351.04966	13230.425
355.23424	14894.925
359.4158	15497.225
363.59435	14899.825
367.76989	13874.625
371.94243	12892.325
376.11196	12065.025
380.27849	11455.925
384.44203	10982.025
388.60257	10713.225
392.76012	10767.125
396.91468	11128.925
401.06626	11573.925
405.21485	11579.325
409.36047	10809.625
413.50311	9520.425
417.64277	8324.225
421.77947	7548.825
425.9132	7205.125
430.04396	7034.525
434.17176	7001.725
438.2966	7147.925
442.41849	7400.525
446.53742	7666.425
450.6534	7801.425
454.76644	7804.825
458.87653	7657.625
462.98368	7475.225
467.08789	7298.725
471.18916	7046.125
475.2875	6678.425
479.38291	6403.925
483.4754	6211.025
487.56496	6115.125
491.6516	6041.425
495.73531	6024.925
499.81612	6089.925
503.89401	6296.625
507.96899	6510.625
512.04106	6834.625
516.11023	7143.525
520.1765	7400.025
524.23987	7525.825
528.30034	7475.725
532.35792	7352.325
536.41261	7173.725
540.46441	6921.025
544.51333	6740.025
548.55936	6704.825
552.60252	6885.025
556.64279	7171.825
560.6802	7687.125
564.71473	8867.625
568.7464	10409.525
572.7752	10368.825
576.80114	8408.125
580.82422	6803.325
584.84444	6125.225
588.86181	5898.025
592.87633	5896.425
596.888	6137.925
600.89682	7095.125
604.9028	10264.825
608.90594	18382.925
612.90624	28201.725
616.90371	25488.525
620.89834	13301.625
624.89015	8005.525
628.87913	7434.025
632.86528	8228.625
636.84862	8468.225
640.82913	7474.825
644.80683	6200.625
648.78172	5655.725
652.75379	5863.725
656.72306	6810.725
660.68952	7714.825
664.65319	7192.525
668.61405	5953.525
672.57211	5434.925
676.52738	5416.625
680.47986	5356.025
684.42955	5196.325
688.37646	5090.525
692.32058	5096.725
696.26192	5177.125
700.20048	5344.425
704.13626	5398.725
708.06928	5301.625
711.99952	5252.525
715.927	5333.025
719.85171	5601.625
723.77365	5784.525
727.69284	5593.725
731.60928	5401.025
735.52295	5329.525
739.43388	5428.225
743.34206	5469.225
747.24749	5472.125
751.15017	5519.325
755.05012	5921.625
758.94733	7532.225
762.8418	11164.325
766.73354	15733.525
770.62254	18115.025
774.50882	17124.925
778.39237	15228.125
782.27321	12449.625
786.15132	8997.125
790.02671	6769.325
793.89938	5741.025
797.76935	5418.225
801.6366	5238.825
805.50115	5147.425
809.36299	5089.325
813.22213	5058.525
817.07857	5068.725
820.93231	5117.125
824.78336	5238.925
828.63172	5370.225
832.47738	5445.325
836.32036	5321.525
840.16066	5057.025
843.99827	4882.425
847.8332	4830.525
851.66546	4825.025
855.49504	4804.525
859.32195	4804.825
863.1462	4737.425
866.96777	4719.125
870.78668	4729.825
874.60293	4764.725
878.41652	4864.625
882.22745	5063.225
886.03573	5142.425
889.84136	5107.625
893.64433	5067.325
897.44466	5101.425
901.24235	5098.925
905.0374	4985.425
908.8298	4788.925
912.61957	4638.325
916.40671	4541.625
920.19121	4614.325
923.97308	4860.925
927.75233	5344.125
931.52895	5889.225
935.30295	5585.025
939.07433	4848.825
942.84309	4381.025
946.60924	4221.825
950.37278	4136.025
954.13371	4128.225
957.89203	4113.925
961.64774	4127.125
965.40086	4091.725
969.15137	4058.525
972.89929	4084.725
976.64461	4049.825
980.38733	4066.725
984.12747	4037.725
987.86502	4035.625
991.59999	4088.025
995.33237	4163.825
999.06217	4294.625
1002.78939	4540.425
1006.51404	4895.725
1010.23611	5049.725
1013.95561	4889.625
1017.67255	4651.925
1021.38692	4442.025
1025.09872	4278.125
1028.80796	4192.025
1032.51465	4239.925
1036.21877	4278.625
1039.92035	4373.125
1043.61937	4440.425
1047.31584	4526.125
1051.00976	4553.025
1054.70114	4488.125
1058.38998	4412.625
1062.07627	4369.525
1065.76003	4370.825
1069.44126	4435.525
1073.11995	4566.125
1076.79611	4882.625
1080.46974	5492.425
1084.14085	6370.225
1087.80943	7091.625
1091.47549	7006.025
1095.13903	6277.825
1098.80005	5521.825
1102.45857	5143.825
1106.11456	5084.425
1109.76805	5236.225
1113.41903	5703.125
1117.06751	6506.725
1120.71348	7777.725
1124.35696	9635.525
1127.99793	10876.525
1131.63641	9863.425
1135.2724	7914.125
1138.90589	6622.625
1142.5369	5897.425
1146.16542	5434.925
1149.79145	5157.825
1153.415	5087.125
1157.03607	5166.625
1160.65467	5440.425
1164.27079	5947.425
1167.88443	6658.525
1171.49561	7884.425
1175.10432	9934.825
1178.71056	12763.525
1182.31434	14659.325
1185.91565	14258.825
1189.51451	12454.625
1193.11091	10558.925
1196.70485	9322.025
1200.29634	8822.625
1203.88538	8258.825
1207.47197	7079.225
1211.05612	5997.325
1214.63782	5297.225
1218.21708	4979.625
1221.79391	4861.625
1225.36829	4837.725
1228.94024	4862.625
1232.50976	4843.325
1236.07685	4851.225
1239.6415	4924.925
1243.20374	5067.725
1246.76355	5271.725
1250.32093	5541.325
1253.8759	5911.025
1257.42845	6553.325
1260.97859	7373.225
1264.52631	8118.925
1268.07163	8457.025
1271.61453	8419.425
1275.15503	8112.925
1278.69312	7817.025
1282.22882	8077.825
1285.76211	9148.025
1289.29301	10615.825
1292.82151	11542.725
1296.34761	11951.525
1299.87133	12934.225
1303.39266	15424.325
1306.9116	20000.025
1310.42815	25750.025
1313.94233	27935.925
1317.45412	23709.525
1320.96354	17354.525
1324.47058	12484.025
1327.97525	9531.625
1331.47754	8103.025
1334.97747	7615.725
1338.47502	7822.125
1341.97022	8964.425
1345.46305	11434.325
1348.95352	14954.525
1352.44163	18608.025
1355.92738	23230.225
1359.41078	31287.025
1362.89183	39614.225
1366.37053	37426.825
1369.84688	25521.825
1373.32088	15884.225
1376.79254	11753.625
1380.26186	9854.025
1383.72883	8432.425
1387.19347	7102.725
1390.65578	6148.325
1394.11575	5605.025
1397.57339	5345.025
1401.0287	5169.025
1404.48168	4956.725
1407.93234	4881.125
1411.38068	5015.825
1414.82669	5439.825
1418.27039	5926.225
1421.71177	6008.625
1425.15083	5809.525
1428.58758	5918.425
1432.02203	6575.925
1435.45416	7039.225
1438.88399	6709.725
1442.31151	6271.425
1445.73673	6169.125
1449.15965	6111.025
1452.58027	5946.025
1455.9986	5715.125
1459.41463	5523.425
1462.82837	5515.525
1466.23982	5801.425
1469.64898	6157.325
1473.05586	6295.825
1476.46045	6246.825
1479.86276	6295.725
1483.26279	6606.825
1486.66054	7356.025
1490.05602	8460.025
1493.44922	10281.325
1496.84016	13163.425
1500.22882	17561.625
1503.61521	23802.625
1506.99934	31907.925
1510.38121	40143.125
1513.76081	43731.125
1517.13816	38996.925
1520.51324	29204.925
1523.88607	20139.325
1527.25665	14238.925
1530.62498	10882.625
1533.99105	8937.825
1537.35488	7688.525
1540.71647	6974.925
1544.07581	6671.425
1547.4329	6674.125
1550.78776	6854.525
1554.14038	7245.925
1557.49077	7883.525
1560.83892	9042.325
1564.18484	10780.425
1567.52853	12657.125
1570.86999	13670.225
1574.20922	13689.225
1577.54624	12880.025
1580.88103	10715.125
1584.2136	8129.425
1587.54395	6643.225
1590.87208	6285.225
1594.19801	6767.825
1597.52172	7591.925
1600.84321	7631.225
1604.16251	6754.825
1607.47959	5864.625
1610.79447	5336.025
1614.10715	4936.825
1617.41763	4649.625
1620.7259	4527.125
1624.03199	4606.925
1627.33587	4829.425
1630.63757	5275.825
1633.93707	6113.925
1637.23439	7598.125
1640.52951	10309.825
1643.82246	14974.025
1647.11321	21232.925
1650.40179	26150.825
1653.68819	25655.225
1656.97241	19778.725
1660.25446	13140.625
1663.53433	8644.325
1666.81203	6207.425
1670.08756	4967.825
1673.36092	4310.925
1676.63211	3883.625
1679.90115	3603.325
1683.16801	3433.425
1686.43272	3284.225
1689.69527	3201.425
1692.95567	3100.025
1696.2139	3062.025
1699.46999	2989.125
1702.72392	2984.425
1705.97571	2996.725
1709.22535	2967.425
1712.47284	3023.425
1715.71819	3053.725
1718.96139	3060.325
1722.20246	3011.925
1725.44139	2941.225
1728.67818	2876.425
1731.91284	2781.625
1735.14537	2716.825
1738.37576	2672.625
1741.60403	2651.925
1744.83017	2609.525
1748.05418	2587.325
1751.27607	2568.225
1754.49584	2512.925
1757.71349	2441.025
1760.92903	2421.625
1764.14244	2348.225
1767.35375	2319.325
1770.56294	2268.025
1773.77002	2195.225
1776.97499	2191.525
1780.17785	2141.625
1783.37861	2111.725
1786.57727	2128.225
1789.77382	2053.125
1792.96828	2087.725
1796.16064	2087.725
1799.3509	2072.625
1802.53907	2073.625
1805.72514	2052.925
1808.90913	2031.925
1812.09102	2022.725
1815.27083	2000.425
1818.44856	1987.025
1821.6242	1983.125
1824.79776	1972.425
1827.96924	1953.525
1831.13864	1931.325
1834.30597	1925.625
1837.47122	1888.325
1840.6344	1856.225
1843.7955	1833.725
1846.95454	1813.425
1850.11151	1823.825
1853.26642	1776.025
1856.41926	1795.525
1859.57004	1801.625
1862.71876	1794.725
1865.86542	1808.125
1869.01003	1811.325
1872.15258	1796.825
1875.29308	1813.125
1878.43152	1825.325
1881.56792	1811.825
1884.70227	1788.025
1887.83457	1781.125
1890.96482	1745.825
1894.09304	1740.025
1897.21921	1752.325
1900.34335	1741.525
1903.46544	1721.925
1906.58551	1737.325
1909.70353	1731.325
1912.81953	1735.025
1915.93349	1722.925
1919.04543	1697.825
1922.15534	1692.925
1925.26322	1673.125
1928.36908	1642.825
1931.47292	1625.025
1934.57473	1611.725
1937.67453	1561.625
1940.77232	1528.125
1943.86808	1517.725
1946.96184	1522.125
1950.05358	1501.625
1953.14331	1487.325
1956.23103	1516.225
1959.31675	1492.025
1962.40046	1474.925
1965.48217	1522.425
1968.56188	1536.125
1971.63959	1562.025
1974.7153	1559.525
1977.78901	1546.225
1980.86073	1506.225
1983.93046	1457.525
1986.99819	1362.225
1990.06394	1373.925
1993.1277	1397.325
1996.18947	1371.825
1999.24925	1344.325
2002.30706	1344.225
2005.36288	1346.625
2008.41672	1323.325
2011.46859	1306.725
2014.51848	1290.925
2017.56639	1279.825
2020.61233	1270.225
2023.6563	1288.825
2026.6983	1245.725
2029.73833	1253.725
2032.7764	1265.625
2035.8125	1219.125
2038.84664	1228.225
2041.87881	1232.525
2044.90903	1239.225
2047.93729	1227.725
2050.96359	1214.725
2053.98794	1205.925
2057.01034	1208.625
2060.03078	1177.825
2063.04927	1156.925
2066.06582	1158.425
2069.08042	1138.225
2072.09307	1134.525
2075.10378	1140.125
2078.11255	1139.325
2081.11938	1138.825
2084.12426	1139.625
2087.12722	1130.325
2090.12824	1126.925
2093.12732	1130.625
2096.12447	1139.825
2099.11969	1127.425
2102.11299	1117.525
2105.10435	1152.825
2108.09379	1129.325
2111.08131	1127.025
2114.0669	1154.125
2117.05057	1150.525
2120.03233	1154.925
2123.01216	1183.925
2125.99008	1217.325
2128.96609	1204.525
2131.94018	1209.925
2134.91236	1185.825
2137.88263	1160.625
2140.851	1149.225
2143.81746	1143.425
2146.78201	1119.425
2149.74466	1080.925
2152.7054	1088.925
2155.66425	1072.125
2158.6212	1049.025
2161.57625	1016.925
2164.52941	1005.225
2167.48067	1024.725
2170.43004	1025.625
2173.37752	1056.725
2176.32311	1049.225
2179.26681	1054.125
2182.20863	1063.825
2185.14856	1067.225
2188.08661	1059.625
2191.02278	1052.325
2193.95707	1021.425
2196.88948	1003.025
2199.82001	1005.325
2202.74867	993.125
2205.67545	997.525
2208.60037	1005.025
2211.52341	995.625
2214.44458	987.725
2217.36388	987.325
2220.28132	970.725
2223.1969	957.925
2226.11061	964.425
2229.02246	953.125
2231.93245	951.325
2234.84058	944.625
2237.74686	934.625
2240.65128	936.825
2243.55385	954.225
2246.45456	934.125
2249.35343	968.025
2252.25044	983.825
2255.14561	1009.025
2258.03893	1040.725
2260.93041	1064.925
2263.82004	1076.325
2266.70783	1089.225
2269.59378	1061.925
2272.4779	1043.625
2275.36017	1058.625
2278.24061	1045.425
2281.11922	1007.225
2283.996	1029.925
2286.87094	986.325
2289.74405	982.025
2292.61534	975.925
2295.4848	954.425
2298.35243	944.825
2301.21824	924.825
2304.08223	922.525
2306.94439	925.725
2309.80474	925.425
2312.66327	923.025
2315.51999	914.925
2318.37489	913.125
2321.22797	890.725
2324.07925	897.325
2326.92871	898.725
2329.77637	883.525
2332.62222	886.425
2335.46626	882.525
2338.3085	891.725
2341.14893	909.325
2343.98756	918.825
2346.8244	899.125
2349.65943	909.825
2352.49267	931.225
2355.32411	938.225
2358.15376	955.725
2360.98161	978.925
2363.80768	976.725
2366.63195	1004.925
2369.45444	1020.825
2372.27514	1025.325
2375.09405	1039.325
2377.91118	1007.025
2380.72652	994.625
2383.54009	983.725
2386.35187	982.125
2389.16188	943.025
2391.97011	929.325
2394.77657	913.625
2397.58125	904.625
2400.38416	884.925
2403.18529	880.125
2405.98466	861.925
2408.78226	864.525
2411.57809	855.925
2414.37216	853.025
2417.16446	861.025
2419.955	843.825
2422.74378	867.725
2425.5308	855.025
2428.31606	862.025
2431.09956	882.425
2433.88131	877.325
2436.6613	896.825
2439.43954	901.025
2442.21603	897.425
2444.99077	899.025
2447.76377	926.325
2450.53501	927.125
2453.30451	921.425
2456.07226	936.725
2458.83827	934.325
2461.60254	886.425
2464.36507	920.325
2467.12586	904.125
2469.88492	920.525
2472.64224	915.625
2475.39782	913.425
2478.15167	934.125
2480.90379	959.325
2483.65417	990.625
2486.40283	1014.925
2489.14976	1027.725
2491.89497	1024.425
2494.63845	1021.725
2497.3802	1017.925
2500.12024	1002.025
2502.85855	996.225
2505.59514	975.625
2508.33002	949.925
2511.06318	899.725
2513.79462	878.525
2516.52435	823.525
2519.25237	786.525
2521.97867	779.025
2524.70327	772.025
2527.42616	762.125
2530.14734	778.825
2532.86681	755.825
2535.58458	757.825
2538.30065	750.725
2541.01501	780.525
2543.72768	763.325
2546.43864	779.825
2549.14791	788.225
2551.85548	781.925
2554.56136	796.625
2557.26554	803.325
2559.96803	810.225
2562.66883	820.825
2565.36794	809.725
2568.06536	796.125
2570.7611	821.625
2573.45514	811.425
2576.14751	802.725
2578.83819	788.425
2581.52719	780.725
2584.21451	779.225
2586.90015	756.725
2589.58411	745.225
2592.2664	751.825
2594.94701	764.525
2597.62594	758.025
2600.30321	716.825
2602.9788	740.525
2605.65273	740.825
2608.32498	738.225
2610.99557	774.325
2613.66449	742.225
2616.33175	765.125
2618.99734	774.325
2621.66128	777.525
2624.32355	763.025
2626.98416	740.725
2629.64311	734.525
2632.30041	722.125
2634.95605	704.925
2637.61004	693.925
2640.26238	672.025
2642.91306	663.525
2645.56209	694.125
2648.20948	687.525
2650.85521	667.525
2653.4993	699.625
2656.14175	697.025
2658.78255	685.825
2661.42171	672.925
2664.05923	710.125
2666.6951	726.425
2669.32934	745.525
2671.96194	755.425
2674.59291	742.825
2677.22224	747.825
2679.84993	743.025
2682.476	726.525
2685.10043	722.625
2687.72324	710.625
2690.34441	708.525
2692.96396	705.525
2695.58188	716.025
2698.19818	706.325
2700.81285	684.425
2703.4259	692.425
2706.03733	657.725
2708.64714	666.125
2711.25533	701.825
2713.86191	713.125
2716.46687	712.325
2719.07021	709.925
2721.67194	713.125
2724.27206	728.525
2726.87057	692.425
2729.46747	679.825
2732.06276	676.425
2734.65644	659.325
2737.24852	660.425
2739.83899	638.125
2742.42786	642.225
2745.01513	653.525
2747.60079	623.625
2750.18486	609.125
2752.76733	615.325
2755.3482	599.025
2757.92747	593.425
2760.50515	577.725
2763.08123	573.925
2765.65573	577.725
2768.22863	569.825
2770.79994	561.125
2773.36967	570.025
2775.9378	562.225
2778.50435	564.725
2781.06932	567.225
2783.6327	555.825
2786.1945	583.325
2788.75471	577.025
2791.31335	588.225
2793.87041	590.525
2796.42589	583.525
2798.97979	586.625
2801.53212	603.325
2804.08288	633.525
2806.63206	627.325
2809.17967	625.125
2811.72571	658.925
2814.27018	679.125
2816.81308	690.725
2819.35442	675.325
2821.89419	713.425
2824.43239	718.125
2826.96904	750.625
2829.50412	734.525
2832.03763	728.925
2834.56959	713.825
2837.1	698.325
2839.62884	692.325
2842.15613	686.725
2844.68186	690.925
2847.20604	680.425
2849.72867	678.325
2852.24974	696.325
2854.76927	684.325
2857.28724	662.925
2859.80367	731.725
2862.31855	765.625
2864.83189	779.925
2867.34368	797.025
2869.85393	827.025
2872.36264	803.225
2874.8698	817.125
2877.37543	820.425
2879.87952	804.725
2882.38207	768.525
2884.88308	765.025
2887.38256	753.625
2889.88051	738.225
2892.37692	733.025
2894.8718	709.525
2897.36515	724.425
2899.85698	723.225
2902.34727	724.725
2904.83604	742.225
2907.32328	776.825
2909.809	795.725
2912.29319	793.825
2914.77587	811.225
2917.25702	824.825
2919.73665	818.025
2922.21476	788.825
2924.69136	766.625
2927.16644	742.925
2929.64	726.125
2932.11205	701.525
2934.58258	699.925
2937.05161	685.825
2939.51912	692.125
2941.98513	699.625
2944.44962	690.025
2946.91261	667.925
2949.37409	676.925
2951.83407	676.025
2954.29254	686.025
2956.74951	697.925
2959.20498	685.125
2961.65895	686.725
2964.11142	679.825
2966.56239	678.325
2969.01186	673.825
2971.45984	664.025
2973.90632	653.125
2976.35131	676.025
2978.7948	666.325
2981.23681	664.425
2983.67732	675.325
2986.11635	674.925
2988.55388	652.325
2990.98993	673.925
2993.4245	668.725
2995.85758	663.125
2998.28917	668.725
3000.71928	672.525
3003.14791	676.725
3005.57506	670.125
3008.00073	660.925
3010.42493	606.825
3012.84764	663.925
3015.26888	661.825
3017.68865	655.425
3020.10694	610.225
3022.52376	633.525
3024.9391	620.525
3027.35298	610.825
3029.76539	595.225
3032.17632	582.125
3034.5858	566.625
3036.9938	564.425
3039.40034	542.525
3041.80542	520.125
3044.20903	507.925
3046.61118	494.325
3049.01187	508.125
3051.4111	489.125
3053.80888	489.725
3056.20519	486.525
3058.60005	467.825
3060.99345	499.725
3063.3854	474.725
3065.7759	466.725
3068.16494	455.725
3070.55254	453.925
3072.93868	470.425
3075.32338	461.025
3077.70662	451.325
3080.08842	448.425
3082.46878	433.025
3084.84769	453.225
3087.22515	432.025
3089.60118	445.025
3091.97576	423.125
3094.3489	435.525
3096.72061	427.825
3099.09087	412.325
3101.4597	429.325
3103.82709	424.325
3106.19305	405.025
3108.55757	414.325
3110.92066	413.925
3113.28232	423.225
3115.64255	428.125
3118.00134	431.725
3120.35871	414.125
3122.71466	400.525
3125.06917	415.425
3127.42226	413.925
3129.77393	397.925
3132.12417	418.825
3134.47299	427.125
3136.82039	407.325
3139.16636	387.625
3141.51092	422.825
3143.85406	421.625
3146.19579	402.625
3148.53609	406.425
3150.87499	416.025
3153.21246	419.025
3155.54853	424.525
3157.88318	428.225
3160.21642	435.125
3162.54826	421.125
3164.87868	431.125
3167.2077	388.825
3169.5353	402.925
3171.86151	406.625
3174.18631	387.325
3176.5097	377.425
3178.83169	383.225
3181.15228	374.825
3183.47147	345.925
3185.78926	332.025
3188.10565	349.725
3190.42065	328.125
3192.73424	342.725
3195.04645	333.725
3197.35725	325.025
3199.66667	341.625
3201.97469	340.825
3204.28132	337.225
3206.58656	350.825
3208.8904	362.225
3211.19287	352.525
3213.49394	349.125
3215.79363	354.525
3218.09193	366.125
3220.38884	361.825
3222.68438	354.725
3224.97853	340.525
3227.2713	362.025
3229.56269	344.325
3231.8527	343.925
3234.14133	333.025
3236.42858	336.125
3238.71446	315.125
3240.99896	334.825
3243.28209	316.825
3245.56384	331.425
3247.84423	322.025
3250.12324	329.325
3252.40088	327.625
3254.67715	321.025
3256.95205	313.225
3259.22558	324.725
3261.49775	328.725
3263.76855	322.025
3266.03799	329.325
3268.30606	330.025
3270.57277	340.625
3272.83812	327.325
3275.10211	334.925
3277.36474	359.825
3279.62601	359.825
3281.88593	352.025
3284.14448	347.825
3286.40168	375.825
3288.65753	376.525
3290.91202	394.025
3293.16516	388.325
3295.41695	424.825
3297.66738	440.725
3299.91647	431.325
3302.16421	451.225
3304.4106	421.325
3306.65564	455.825
3308.89933	436.525
3311.14169	450.025
3313.38269	454.325
3315.62236	449.925
3317.86068	451.425
3320.09766	464.125
3322.3333	451.425
3324.5676	459.225
3326.80056	465.225
3329.03219	477.725
3331.26248	-1.275
3333.49143	-0.475
3335.71905	1.225
