Data from AgNPs_UA_5uM_CRN_500uM_SU_RamanShift__46__11-37-03-147.txt Node

Date: Thu Aug 04 11:37:03 BST 2022
User: TCL
Spectrometer: QEP01345
Trigger mode: 4
Integration Time (sec): 1.000000E0
Scans to average: 10
Electric dark correction enabled: true
Nonlinearity correction enabled: false
Boxcar width: 0
XAxis mode: Raman Shifts
Number of Pixels in Spectrum: 1044
>>>>>Begin Spectral Data<<<<<
46.04893	-0.2
50.45542	-0.2
54.85868	0.4
59.25871	-1.2
63.6555	-55.1
68.04907	-37.5
72.43941	-69.3
76.82654	-55.3
81.21044	-55.6
85.59113	-46
89.96862	-72.8
94.34289	-53.6
98.71396	-73.4
103.08183	-54.3
107.4465	-45.1
111.80798	-52.1
116.16626	-41.1
120.52136	-70.1
124.87327	-43.9
129.222	-55.7
133.56755	-42.5
137.90993	-52.7
142.24913	-40.9
146.58517	-29.6
150.91804	-23.9
155.24774	-6.6
159.57429	20.5
163.89768	38.4
168.21792	101.3
172.53501	144.9
176.84895	264.7
181.15975	452.9
185.46741	673.8
189.77193	953
194.07331	1370.2
198.37157	1806.6
202.6667	2253.4
206.9587	2759.4
211.24758	3283.3
215.53334	3871.1
219.81599	4540.2
224.09553	5323.5
228.37195	6140.4
232.64527	6903.9
236.91549	7550.1
241.18261	7883.2
245.44663	7985.8
249.70755	7951.7
253.96539	7963.5
258.22014	7999.3
262.4718	8076.6
266.72039	8061.7
270.96589	7871.9
275.20832	7583.8
279.44768	7260.6
283.68397	7019.7
287.91719	6944.5
292.14735	7102.5
296.37445	7631.2
300.59849	8520.2
304.81948	9758.4
309.03742	11189.1
313.25231	12240.3
317.46415	12078.9
321.67296	10603.9
325.87872	8913.9
330.08145	7955.4
334.28114	7730.2
338.47781	8018.2
342.67145	8548.6
346.86207	9424.4
351.04966	10783.7
355.23424	12140.2
359.4158	12699.7
363.59435	12246.3
367.76989	11440.1
371.94243	10640.6
376.11196	9989.1
380.27849	9531.6
384.44203	9162.6
388.60257	8956.6
392.76012	8997.6
396.91468	9285.3
401.06626	9643.3
405.21485	9675.1
409.36047	9070.5
413.50311	8054.7
417.64277	7111.2
421.77947	6503
425.9132	6237.4
430.04396	6092.8
434.17176	6079.5
438.2966	6183.3
442.41849	6381.1
446.53742	6578
450.6534	6712.6
454.76644	6726.4
458.87653	6615.7
462.98368	6490.8
467.08789	6359.7
471.18916	6159.3
475.2875	5884.4
479.38291	5647
483.4754	5484
487.56496	5434.6
491.6516	5365.6
495.73531	5373.3
499.81612	5456.9
503.89401	5595
507.96899	5807.3
512.04106	6037.7
516.11023	6317
520.1765	6539.8
524.23987	6633.1
528.30034	6574.5
532.35792	6419.5
536.41261	6255.6
540.46441	6033.9
544.51333	5886.8
548.55936	5874.5
552.60252	6036
556.64279	6238.6
560.6802	6647.3
564.71473	7540.9
568.7464	8678.9
572.7752	8621.5
576.80114	7115.6
580.82422	5923.3
584.84444	5416.8
588.86181	5263.1
592.87633	5273.2
596.888	5466.9
600.89682	6236.5
604.9028	8710.1
608.90594	15074.5
612.90624	22794.8
616.90371	20670.3
620.89834	11131.6
624.89015	6939.8
628.87913	6445
632.86528	7047.5
636.84862	7350
640.82913	6621.9
644.80683	5604.8
648.78172	5141.6
652.75379	5298.9
656.72306	6024.7
660.68952	6762.3
664.65319	6372.2
668.61405	5421.8
672.57211	5023.7
676.52738	5013.3
680.47986	4946.8
684.42955	4793.3
688.37646	4741.4
692.32058	4722.8
696.26192	4808.6
700.20048	4954.8
704.13626	4978.6
708.06928	4905.1
711.99952	4867.8
715.927	4935.2
719.85171	5127.9
723.77365	5262.8
727.69284	5136.5
731.60928	4988.5
735.52295	4922.4
739.43388	4979.9
743.34206	5029.9
747.24749	5026.9
751.15017	5073.7
755.05012	5375.1
758.94733	6597.2
762.8418	9419.7
766.73354	13129.6
770.62254	14990.5
774.50882	14234.3
778.39237	12853.4
782.27321	10734.9
786.15132	7996.7
790.02671	6147.2
793.89938	5295.5
797.76935	5015.8
801.6366	4863.4
805.50115	4785.9
809.36299	4753.9
813.22213	4747.9
817.07857	4744.6
820.93231	4769
824.78336	4885.5
828.63172	4990.8
832.47738	5021.5
836.32036	4926.2
840.16066	4740.1
843.99827	4617.9
847.8332	4568.9
851.66546	4580.4
855.49504	4563.1
859.32195	4553.5
863.1462	4495.2
866.96777	4492.9
870.78668	4490.5
874.60293	4525
878.41652	4568.7
882.22745	4725.9
886.03573	4811.5
889.84136	4788.3
893.64433	4763.9
897.44466	4756.2
901.24235	4774.5
905.0374	4685.7
908.8298	4527.2
912.61957	4413.2
916.40671	4312.2
920.19121	4380.7
923.97308	4565.4
927.75233	4942.9
931.52895	5323.4
935.30295	5115.6
939.07433	4554.5
942.84309	4181.2
946.60924	4059.7
950.37278	3987.1
954.13371	3979.2
957.89203	3969.7
961.64774	3969.4
965.40086	3956.1
969.15137	3921.2
972.89929	3956.4
976.64461	3929.5
980.38733	3944
984.12747	3925.5
987.86502	3927.2
991.59999	3963.1
995.33237	4031.2
999.06217	4138.1
1002.78939	4302.4
1006.51404	4584.8
1010.23611	4730.4
1013.95561	4605.7
1017.67255	4422.8
1021.38692	4273.1
1025.09872	4138.9
1028.80796	4049.3
1032.51465	4090.2
1036.21877	4122
1039.92035	4201.5
1043.61937	4260.5
1047.31584	4334.9
1051.00976	4357.2
1054.70114	4287.3
1058.38998	4224.9
1062.07627	4216.4
1065.76003	4207
1069.44126	4267.1
1073.11995	4390.3
1076.79611	4637.5
1080.46974	5110.9
1084.14085	5803.8
1087.80943	6388.7
1091.47549	6353
1095.13903	5795.8
1098.80005	5192.7
1102.45857	4897.3
1106.11456	4849.3
1109.76805	4951
1113.41903	5308.5
1117.06751	5904.6
1120.71348	6898.6
1124.35696	8368.2
1127.99793	9390
1131.63641	8634.3
1135.2724	7090.3
1138.90589	6037.4
1142.5369	5442.9
1146.16542	5080.5
1149.79145	4824.1
1153.415	4745.8
1157.03607	4803.3
1160.65467	5020.2
1164.27079	5385.5
1167.88443	5937.4
1171.49561	6921.2
1175.10432	8541.3
1178.71056	10877.2
1182.31434	12522.8
1185.91565	12289.1
1189.51451	10816.9
1193.11091	9222.3
1196.70485	8224.2
1200.29634	7794.9
1203.88538	7334
1207.47197	6375.3
1211.05612	5487.6
1214.63782	4927.9
1218.21708	4667.9
1221.79391	4561.5
1225.36829	4552
1228.94024	4548.9
1232.50976	4545.3
1236.07685	4551.4
1239.6415	4605.6
1243.20374	4709.3
1246.76355	4843.3
1250.32093	5054.7
1253.8759	5300.2
1257.42845	5758.4
1260.97859	6372.8
1264.52631	6986.6
1268.07163	7302.8
1271.61453	7350.6
1275.15503	7158.9
1278.69312	6936
1282.22882	7107.7
1285.76211	7937.7
1289.29301	9117.1
1292.82151	9891.1
1296.34761	10234.8
1299.87133	11001.6
1303.39266	12990.6
1306.9116	16695.6
1310.42815	21172.4
1313.94233	22681.2
1317.45412	19182.5
1320.96354	14265.7
1324.47058	10552.8
1327.97525	8267
1331.47754	7112.6
1334.97747	6758.8
1338.47502	6905.9
1341.97022	7791.6
1345.46305	9784.3
1348.95352	12616.6
1352.44163	15524.7
1355.92738	19040
1359.41078	25231.6
1362.89183	31982.3
1366.37053	30602.8
1369.84688	21199.9
1373.32088	13417.4
1376.79254	10037.9
1380.26186	8554
1383.72883	7400.3
1387.19347	6329.3
1390.65578	5525.9
1394.11575	5092.2
1397.57339	4869.4
1401.0287	4724.1
1404.48168	4562.5
1407.93234	4504.3
1411.38068	4590.5
1414.82669	4906.6
1418.27039	5305.1
1421.71177	5410.9
1425.15083	5210.2
1428.58758	5222.3
1432.02203	5639
1435.45416	5976.8
1438.88399	5738.5
1442.31151	5430.7
1445.73673	5368.5
1449.15965	5349.7
1452.58027	5224.8
1455.9986	5069.9
1459.41463	4946.1
1462.82837	4972.3
1466.23982	5185.5
1469.64898	5511.1
1473.05586	5638.6
1476.46045	5603
1479.86276	5638.8
1483.26279	5889.6
1486.66054	6460.6
1490.05602	7360.1
1493.44922	8871.2
1496.84016	11229.1
1500.22882	14898.7
1503.61521	20035.6
1506.99934	26579.4
1510.38121	32890.9
1513.76081	35102.8
1517.13816	30796.7
1520.51324	22896.4
1523.88607	15863.8
1527.25665	11504.5
1530.62498	9042.5
1533.99105	7632
1537.35488	6719.1
1540.71647	6187.9
1544.07581	5979.2
1547.4329	5962
1550.78776	6138.8
1554.14038	6435.2
1557.49077	6907.4
1560.83892	7752.4
1564.18484	9041.5
1567.52853	10511.2
1570.86999	11480.6
1574.20922	11629
1577.54624	11044.1
1580.88103	9332.6
1584.2136	7228
1587.54395	5989.9
1590.87208	5649.8
1594.19801	6034.4
1597.52172	6688.8
1600.84321	6693.6
1604.16251	5990.2
1607.47959	5299
1610.79447	4891.4
1614.10715	4577.9
1617.41763	4322
1620.7259	4229.4
1624.03199	4235.6
1627.33587	4395.9
1630.63757	4730.9
1633.93707	5330.2
1637.23439	6422.6
1640.52951	8415.3
1643.82246	11842.3
1647.11321	16543.1
1650.40179	20281.1
1653.68819	20019.7
1656.97241	15709.5
1660.25446	10720.5
1663.53433	7302.2
1666.81203	5433
1670.08756	4488.3
1673.36092	3983.4
1676.63211	3636.3
1679.90115	3465.1
1683.16801	3317.2
1686.43272	3189.2
1689.69527	3130.1
1692.95567	3044.6
1696.2139	3014.5
1699.46999	2936.1
1702.72392	2939
1705.97571	2956
1709.22535	2931
1712.47284	2982.1
1715.71819	3013.4
1718.96139	3012.1
1722.20246	2981.4
1725.44139	2930.7
1728.67818	2881.8
1731.91284	2796.9
1735.14537	2755.3
1738.37576	2727.5
1741.60403	2705.8
1744.83017	2671
1748.05418	2654.2
1751.27607	2635.3
1754.49584	2591.9
1757.71349	2533.8
1760.92903	2517.3
1764.14244	2453.8
1767.35375	2436.6
1770.56294	2389.1
1773.77002	2355.4
1776.97499	2341
1780.17785	2295.4
1783.37861	2287.7
1786.57727	2296.1
1789.77382	2219.2
1792.96828	2253.5
1796.16064	2267.9
1799.3509	2257.6
1802.53907	2251.3
1805.72514	2225.2
1808.90913	2209.2
1812.09102	2195.6
1815.27083	2197.3
1818.44856	2162.9
1821.6242	2170.8
1824.79776	2158.7
1827.96924	2139.8
1831.13864	2116.2
1834.30597	2115.3
1837.47122	2091.5
1840.6344	2064
1843.7955	2036.6
1846.95454	2016.6
1850.11151	2030.4
1853.26642	2002.9
1856.41926	1997.6
1859.57004	2014.3
1862.71876	2015.7
1865.86542	2015.6
1869.01003	2019
1872.15258	2006.8
1875.29308	2021.9
1878.43152	2022.2
1881.56792	2012.4
1884.70227	1996.1
1887.83457	1995.3
1890.96482	1961.8
1894.09304	1963.8
1897.21921	1954.3
1900.34335	1969.7
1903.46544	1951.6
1906.58551	1959.1
1909.70353	1959.8
1912.81953	1952.6
1915.93349	1947.1
1919.04543	1933.5
1922.15534	1916.2
1925.26322	1920.5
1928.36908	1875.3
1931.47292	1872.8
1934.57473	1862.8
1937.67453	1827.2
1940.77232	1799.9
1943.86808	1780.5
1946.96184	1777.7
1950.05358	1751.5
1953.14331	1752
1956.23103	1763.1
1959.31675	1752.6
1962.40046	1713.7
1965.48217	1759.8
1968.56188	1773.5
1971.63959	1770.8
1974.7153	1789.5
1977.78901	1785.1
1980.86073	1751.4
1983.93046	1714.9
1986.99819	1626.5
1990.06394	1648.8
1993.1277	1661
1996.18947	1652.2
1999.24925	1599.3
2002.30706	1618
2005.36288	1627.2
2008.41672	1600.1
2011.46859	1575.8
2014.51848	1574
2017.56639	1558.4
2020.61233	1554.6
2023.6563	1562.7
2026.6983	1515.8
2029.73833	1522.9
2032.7764	1538.1
2035.8125	1495.4
2038.84664	1511.9
2041.87881	1501.2
2044.90903	1516.4
2047.93729	1508.6
2050.96359	1484.8
2053.98794	1491
2057.01034	1482.2
2060.03078	1460.8
2063.04927	1444
2066.06582	1443.4
2069.08042	1427.3
2072.09307	1432.2
2075.10378	1440.4
2078.11255	1429.2
2081.11938	1423.6
2084.12426	1422.3
2087.12722	1417.4
2090.12824	1416
2093.12732	1415.5
2096.12447	1427.2
2099.11969	1419.2
2102.11299	1414
2105.10435	1451.1
2108.09379	1420.3
2111.08131	1419.7
2114.0669	1430.7
2117.05057	1429.4
2120.03233	1429.7
2123.01216	1466
2125.99008	1475
2128.96609	1466.7
2131.94018	1495.9
2134.91236	1457.8
2137.88263	1442.1
2140.851	1431.8
2143.81746	1443.4
2146.78201	1407.8
2149.74466	1387.8
2152.7054	1387.9
2155.66425	1364.7
2158.6212	1363.9
2161.57625	1336.5
2164.52941	1319
2167.48067	1339.8
2170.43004	1339.3
2173.37752	1362.6
2176.32311	1360.1
2179.26681	1362.6
2182.20863	1367.7
2185.14856	1363.1
2188.08661	1360.5
2191.02278	1362.6
2193.95707	1329
2196.88948	1315.6
2199.82001	1320.5
2202.74867	1305.9
2205.67545	1312
2208.60037	1324.2
2211.52341	1319.4
2214.44458	1310.9
2217.36388	1309.1
2220.28132	1292.5
2223.1969	1280.4
2226.11061	1285.7
2229.02246	1274.7
2231.93245	1274.5
2234.84058	1267
2237.74686	1259.5
2240.65128	1250.5
2243.55385	1261.6
2246.45456	1250.3
2249.35343	1274.3
2252.25044	1279.3
2255.14561	1291.9
2258.03893	1321.6
2260.93041	1328.4
2263.82004	1341.5
2266.70783	1346.5
2269.59378	1335
2272.4779	1320.7
2275.36017	1338.6
2278.24061	1321.7
2281.11922	1293.9
2283.996	1302.3
2286.87094	1268.1
2289.74405	1277.7
2292.61534	1260.9
2295.4848	1245.2
2298.35243	1231.7
2301.21824	1217.1
2304.08223	1217.3
2306.94439	1231.9
2309.80474	1222.8
2312.66327	1219
2315.51999	1219.1
2318.37489	1205.7
2321.22797	1191.4
2324.07925	1196.8
2326.92871	1192.9
2329.77637	1181
2332.62222	1188.9
2335.46626	1177.9
2338.3085	1175.2
2341.14893	1200.4
2343.98756	1197.7
2346.8244	1188
2349.65943	1196.3
2352.49267	1212.8
2355.32411	1220.1
2358.15376	1219.8
2360.98161	1254.5
2363.80768	1247.5
2366.63195	1276.5
2369.45444	1289.6
2372.27514	1292.9
2375.09405	1304.5
2377.91118	1261.2
2380.72652	1262.7
2383.54009	1251.1
2386.35187	1252.7
2389.16188	1226.1
2391.97011	1212.7
2394.77657	1196.7
2397.58125	1188
2400.38416	1177.4
2403.18529	1154.5
2405.98466	1142.2
2408.78226	1150.2
2411.57809	1136.9
2414.37216	1126.6
2417.16446	1139
2419.955	1114.4
2422.74378	1139.7
2425.5308	1124.7
2428.31606	1138.3
2431.09956	1154.5
2433.88131	1140.2
2436.6613	1147.2
2439.43954	1156.5
2442.21603	1154.7
2444.99077	1151
2447.76377	1179.8
2450.53501	1173
2453.30451	1176.3
2456.07226	1200.5
2458.83827	1181
2461.60254	1138.3
2464.36507	1181
2467.12586	1161.2
2469.88492	1169.5
2472.64224	1178.7
2475.39782	1160
2478.15167	1201.9
2480.90379	1202.3
2483.65417	1226.4
2486.40283	1245.5
2489.14976	1267.9
2491.89497	1254.5
2494.63845	1260.1
2497.3802	1238.5
2500.12024	1235.2
2502.85855	1220.4
2505.59514	1212.6
2508.33002	1186.9
2511.06318	1144.9
2513.79462	1141.4
2516.52435	1074.1
2519.25237	1049.4
2521.97867	1047.9
2524.70327	1043.5
2527.42616	1038.4
2530.14734	1037.1
2532.86681	1007.7
2535.58458	1031.1
2538.30065	1021.3
2541.01501	1043.5
2543.72768	1037.6
2546.43864	1042.1
2549.14791	1051.5
2551.85548	1037.4
2554.56136	1043.7
2557.26554	1058.5
2559.96803	1057.9
2562.66883	1057.7
2565.36794	1052.4
2568.06536	1037.8
2570.7611	1064.3
2573.45514	1060.4
2576.14751	1048.5
2578.83819	1029.7
2581.52719	1029.9
2584.21451	1027
2586.90015	1002.3
2589.58411	1002.3
2592.2664	1006
2594.94701	1007.1
2597.62594	1014.3
2600.30321	960.9
2602.9788	975
2605.65273	986
2608.32498	986.2
2610.99557	1013.3
2613.66449	988.3
2616.33175	999.4
2618.99734	1005.7
2621.66128	1016.3
2624.32355	992.8
2626.98416	983.2
2629.64311	965.2
2632.30041	962.2
2634.95605	938.9
2637.61004	931
2640.26238	918.7
2642.91306	910.8
2645.56209	935.2
2648.20948	920.3
2650.85521	912.5
2653.4993	937
2656.14175	926.4
2658.78255	928
2661.42171	902.5
2664.05923	943.7
2666.6951	957.3
2669.32934	966.7
2671.96194	984.7
2674.59291	967.8
2677.22224	970.8
2679.84993	973.6
2682.476	958.5
2685.10043	944.5
2687.72324	940.1
2690.34441	939.1
2692.96396	934.5
2695.58188	948.5
2698.19818	936.1
2700.81285	916.7
2703.4259	915.2
2706.03733	890.7
2708.64714	897.4
2711.25533	938.8
2713.86191	935.4
2716.46687	937.8
2719.07021	934.1
2721.67194	937.2
2724.27206	946.9
2726.87057	922.3
2729.46747	907.4
2732.06276	908.5
2734.65644	888.3
2737.24852	893.9
2739.83899	871.9
2742.42786	886.2
2745.01513	883.7
2747.60079	856.6
2750.18486	848.9
2752.76733	854.9
2755.3482	838.5
2757.92747	841.1
2760.50515	832.4
2763.08123	817.9
2765.65573	822
2768.22863	814.8
2770.79994	807.1
2773.36967	811.5
2775.9378	806.7
2778.50435	808.6
2781.06932	805.1
2783.6327	801.4
2786.1945	830.7
2788.75471	814.7
2791.31335	813.8
2793.87041	821.1
2796.42589	811.6
2798.97979	809.8
2801.53212	835.1
2804.08288	845.3
2806.63206	846.1
2809.17967	839.2
2811.72571	874.3
2814.27018	881.1
2816.81308	892
2819.35442	864.7
2821.89419	901.6
2824.43239	899.4
2826.96904	932.4
2829.50412	912.4
2832.03763	908.2
2834.56959	897.5
2837.1	886.1
2839.62884	877.5
2842.15613	874.3
2844.68186	880.4
2847.20604	860.2
2849.72867	871.9
2852.24974	878.2
2854.76927	861.7
2857.28724	837
2859.80367	914.3
2862.31855	929
2864.83189	942
2867.34368	953.6
2869.85393	975.2
2872.36264	962.8
2874.8698	967.9
2877.37543	969
2879.87952	957.5
2882.38207	927.7
2884.88308	924.5
2887.38256	912.2
2889.88051	901.4
2892.37692	898.3
2894.8718	876.2
2897.36515	889.1
2899.85698	895.2
2902.34727	891.8
2904.83604	910.6
2907.32328	926.6
2909.809	949.8
2912.29319	957.4
2914.77587	967.2
2917.25702	977.9
2919.73665	968.4
2922.21476	951.6
2924.69136	940.8
2927.16644	911.5
2929.64	896.1
2932.11205	877.4
2934.58258	875.3
2937.05161	864.1
2939.51912	857.7
2941.98513	880
2944.44962	865.5
2946.91261	847.7
2949.37409	856.6
2951.83407	849.7
2954.29254	862.5
2956.74951	864.1
2959.20498	852
2961.65895	855.5
2964.11142	843.3
2966.56239	847.2
2969.01186	835
2971.45984	836.7
2973.90632	825
2976.35131	846.5
2978.7948	844.8
2981.23681	840
2983.67732	844.9
2986.11635	855.4
2988.55388	831.6
2990.98993	844.1
2993.4245	842.5
2995.85758	835.3
2998.28917	840.5
3000.71928	833.1
3003.14791	842.2
3005.57506	829.6
3008.00073	823.6
3010.42493	768
3012.84764	826.9
3015.26888	823.9
3017.68865	810.1
3020.10694	769.3
3022.52376	791.4
3024.9391	787.3
3027.35298	778
3029.76539	758.6
3032.17632	743.3
3034.5858	743.5
3036.9938	737.7
3039.40034	727.2
3041.80542	701.5
3044.20903	685
3046.61118	676
3049.01187	697.8
3051.4111	687.1
3053.80888	672.6
3056.20519	675.3
3058.60005	660.3
3060.99345	686.2
3063.3854	672.7
3065.7759	655
3068.16494	652.9
3070.55254	639.7
3072.93868	657.4
3075.32338	653.1
3077.70662	643.7
3080.08842	642.5
3082.46878	622.4
3084.84769	644.7
3087.22515	621.2
3089.60118	633.1
3091.97576	623.2
3094.3489	627.4
3096.72061	621.2
3099.09087	603.4
3101.4597	617.8
3103.82709	614.4
3106.19305	600.1
3108.55757	616
3110.92066	607.1
3113.28232	621.6
3115.64255	620.6
3118.00134	622.6
3120.35871	606
3122.71466	590.7
3125.06917	605.9
3127.42226	602.3
3129.77393	591
3132.12417	607.2
3134.47299	613.5
3136.82039	596.7
3139.16636	579
3141.51092	602.2
3143.85406	610.6
3146.19579	590.6
3148.53609	593
3150.87499	600.8
3153.21246	597.3
3155.54853	604
3157.88318	610.5
3160.21642	612.7
3162.54826	608.1
3164.87868	607.8
3167.2077	572.7
3169.5353	593.5
3171.86151	595.4
3174.18631	573.3
3176.5097	570.5
3178.83169	573.7
3181.15228	575.1
3183.47147	548.1
3185.78926	532.3
3188.10565	550.6
3190.42065	527
3192.73424	541.1
3195.04645	531.9
3197.35725	521.2
3199.66667	538.9
3201.97469	537.7
3204.28132	530.8
3206.58656	542.7
3208.8904	549.8
3211.19287	544.1
3213.49394	538.3
3215.79363	539.5
3218.09193	553.8
3220.38884	545.6
3222.68438	543.2
3224.97853	530.9
3227.2713	552.7
3229.56269	534.2
3231.8527	538.4
3234.14133	530.4
3236.42858	527.5
3238.71446	501.1
3240.99896	521.6
3243.28209	509.1
3245.56384	521.4
3247.84423	511.5
3250.12324	524
3252.40088	518.5
3254.67715	510.6
3256.95205	498
3259.22558	514.4
3261.49775	512.5
3263.76855	502.9
3266.03799	513.2
3268.30606	510.7
3270.57277	513.2
3272.83812	505.3
3275.10211	513.3
3277.36474	530.8
3279.62601	533.7
3281.88593	509.6
3284.14448	506.1
3286.40168	533.6
3288.65753	530.1
3290.91202	539.9
3293.16516	531.5
3295.41695	570.7
3297.66738	573.6
3299.91647	558.3
3302.16421	573.5
3304.4106	541.9
3306.65564	572.5
3308.89933	542.3
3311.14169	557.3
3313.38269	561.9
3315.62236	548.7
3317.86068	549.1
3320.09766	564.8
3322.3333	546.8
3324.5676	549.8
3326.80056	545.6
3329.03219	558.1
3331.26248	-1
3333.49143	0
3335.71905	1.4
