Data from AgNPs_UA_5uM_CRN_500uM_SU_RamanShift__28__11-34-03-144.txt Node

Date: Thu Aug 04 11:34:03 BST 2022
User: TCL
Spectrometer: QEP01345
Trigger mode: 4
Integration Time (sec): 1.000000E0
Scans to average: 10
Electric dark correction enabled: true
Nonlinearity correction enabled: false
Boxcar width: 0
XAxis mode: Raman Shifts
Number of Pixels in Spectrum: 1044
>>>>>Begin Spectral Data<<<<<
46.04893	0.2
50.45542	0.1
54.85868	-0
59.25871	-1.8
63.6555	-55
68.04907	-33.2
72.43941	-67.4
76.82654	-52.1
81.21044	-52.5
85.59113	-43.4
89.96862	-70.5
94.34289	-49.5
98.71396	-71.6
103.08183	-52.3
107.4465	-41.5
111.80798	-51.8
116.16626	-36.1
120.52136	-64.5
124.87327	-38.9
129.222	-51.1
133.56755	-34
137.90993	-45.8
142.24913	-30.4
146.58517	-19.8
150.91804	-13.3
155.24774	9.5
159.57429	38.9
163.89768	65.9
168.21792	138.8
172.53501	205.3
176.84895	346.7
181.15975	573
185.46741	847.5
189.77193	1195.2
194.07331	1687.3
198.37157	2204.2
202.6667	2751.1
206.9587	3365.4
211.24758	3979.3
215.53334	4709.8
219.81599	5535.6
224.09553	6494.3
228.37195	7503.6
232.64527	8429
236.91549	9169.7
241.18261	9568.1
245.44663	9669.3
249.70755	9611.7
253.96539	9624.6
258.22014	9716.6
262.4718	9812.3
266.72039	9807.8
270.96589	9560.2
275.20832	9143.6
279.44768	8754.9
283.68397	8410.7
287.91719	8359.6
292.14735	8539.4
296.37445	9182.1
300.59849	10329.1
304.81948	11913.6
309.03742	13717.5
313.25231	15026.2
317.46415	14847.6
321.67296	13048.8
325.87872	10878.9
330.08145	9645.2
334.28114	9389.3
338.47781	9700.6
342.67145	10417.7
346.86207	11549
351.04966	13213.6
355.23424	14870.6
359.4158	15518.6
363.59435	14905
367.76989	13866.7
371.94243	12898.1
376.11196	12075.1
380.27849	11461.1
384.44203	10984.3
388.60257	10707.5
392.76012	10741.9
396.91468	11099.7
401.06626	11579.2
405.21485	11570.5
409.36047	10821.8
413.50311	9506.3
417.64277	8300.8
421.77947	7524.6
425.9132	7174
430.04396	7029.9
434.17176	6992.4
438.2966	7157.5
442.41849	7390.5
446.53742	7647.6
450.6534	7786.5
454.76644	7789.3
458.87653	7631.1
462.98368	7468.1
467.08789	7281.7
471.18916	7011.5
475.2875	6678.9
479.38291	6389.7
483.4754	6195.9
487.56496	6112.5
491.6516	6022.9
495.73531	6005.2
499.81612	6065.2
503.89401	6279.3
507.96899	6517.8
512.04106	6806.2
516.11023	7136.3
520.1765	7383.3
524.23987	7488.7
528.30034	7478.3
532.35792	7324.4
536.41261	7160.4
540.46441	6908.9
544.51333	6700
548.55936	6712.1
552.60252	6890.9
556.64279	7166.7
560.6802	7693.2
564.71473	8855
568.7464	10424.5
572.7752	10368.6
576.80114	8407.6
580.82422	6788.3
584.84444	6103.5
588.86181	5875.9
592.87633	5889
596.888	6111.5
600.89682	7072.7
604.9028	10240.3
608.90594	18390
612.90624	28213.7
616.90371	25488.2
620.89834	13307.3
624.89015	8002.2
628.87913	7412.9
632.86528	8207.6
636.84862	8460.9
640.82913	7476.8
644.80683	6203.9
648.78172	5648.2
652.75379	5855.7
656.72306	6789
660.68952	7722.9
664.65319	7203.7
668.61405	5949.7
672.57211	5433.7
676.52738	5426
680.47986	5345.5
684.42955	5179.8
688.37646	5082.7
692.32058	5081
696.26192	5182
700.20048	5344
704.13626	5397.3
708.06928	5291
711.99952	5257.7
715.927	5331.8
719.85171	5592.1
723.77365	5783.8
727.69284	5604.1
731.60928	5396.3
735.52295	5338.8
739.43388	5412.4
743.34206	5468.7
747.24749	5458.6
751.15017	5508.1
755.05012	5910.3
758.94733	7512.6
762.8418	11135.9
766.73354	15745.4
770.62254	18080.5
774.50882	17139.4
778.39237	15234.3
782.27321	12448.1
786.15132	8991.1
790.02671	6752.6
793.89938	5751.3
797.76935	5404.4
801.6366	5238.6
805.50115	5142.2
809.36299	5082.5
813.22213	5061.9
817.07857	5073.5
820.93231	5116.9
824.78336	5232
828.63172	5373.4
832.47738	5451.4
836.32036	5313.1
840.16066	5049.6
843.99827	4884.3
847.8332	4826.9
851.66546	4838.6
855.49504	4800.2
859.32195	4775.4
863.1462	4740.2
866.96777	4713.8
870.78668	4705
874.60293	4765.2
878.41652	4853.8
882.22745	5053.6
886.03573	5138.2
889.84136	5108.2
893.64433	5077.8
897.44466	5082.7
901.24235	5086
905.0374	4989.4
908.8298	4773.1
912.61957	4641.5
916.40671	4554
920.19121	4617
923.97308	4863.6
927.75233	5347.3
931.52895	5851.7
935.30295	5563.9
939.07433	4842.6
942.84309	4372.6
946.60924	4215.1
950.37278	4131.3
954.13371	4132.7
957.89203	4120.6
961.64774	4112.8
965.40086	4085.2
969.15137	4055.3
972.89929	4080.2
976.64461	4045
980.38733	4031.4
984.12747	4032.5
987.86502	4047.1
991.59999	4067.2
995.33237	4170.1
999.06217	4285.5
1002.78939	4518.5
1006.51404	4898.3
1010.23611	5053.2
1013.95561	4860.1
1017.67255	4636.7
1021.38692	4444.1
1025.09872	4270.6
1028.80796	4157.9
1032.51465	4212.3
1036.21877	4264.3
1039.92035	4374.7
1043.61937	4438.1
1047.31584	4512.1
1051.00976	4553
1054.70114	4451.9
1058.38998	4386.9
1062.07627	4350.7
1065.76003	4366.6
1069.44126	4412.7
1073.11995	4541
1076.79611	4890.1
1080.46974	5470.6
1084.14085	6346.4
1087.80943	7072.7
1091.47549	6988.5
1095.13903	6283.7
1098.80005	5516.9
1102.45857	5117.3
1106.11456	5064.2
1109.76805	5212.7
1113.41903	5720.9
1117.06751	6491.6
1120.71348	7746.9
1124.35696	9618.3
1127.99793	10852.5
1131.63641	9846
1135.2724	7914.4
1138.90589	6604.9
1142.5369	5874.7
1146.16542	5427.7
1149.79145	5133.5
1153.415	5062.6
1157.03607	5154
1160.65467	5428.5
1164.27079	5922.7
1167.88443	6603.2
1171.49561	7846.7
1175.10432	9909.5
1178.71056	12726.2
1182.31434	14614.1
1185.91565	14243.7
1189.51451	12385.5
1193.11091	10508.5
1196.70485	9294.3
1200.29634	8798.4
1203.88538	8163.7
1207.47197	7020
1211.05612	5963.8
1214.63782	5252.9
1218.21708	4967
1221.79391	4837.5
1225.36829	4826.1
1228.94024	4816.3
1232.50976	4813.8
1236.07685	4846.7
1239.6415	4910.6
1243.20374	5055.4
1246.76355	5259.1
1250.32093	5530.3
1253.8759	5887.4
1257.42845	6520.2
1260.97859	7334.5
1264.52631	8087.3
1268.07163	8431.7
1271.61453	8397.7
1275.15503	8078.5
1278.69312	7786.2
1282.22882	8012.5
1285.76211	9100.3
1289.29301	10543.3
1292.82151	11524.8
1296.34761	11907.2
1299.87133	12887.7
1303.39266	15349.5
1306.9116	19966.5
1310.42815	25646.7
1313.94233	27851.6
1317.45412	23689.6
1320.96354	17290.9
1324.47058	12431.6
1327.97525	9524.7
1331.47754	8039
1334.97747	7563.3
1338.47502	7787.4
1341.97022	8904.9
1345.46305	11372.9
1348.95352	14863.8
1352.44163	18496.9
1355.92738	23140.8
1359.41078	31197.2
1362.89183	39520.1
1366.37053	37284.2
1369.84688	25406.8
1373.32088	15828.6
1376.79254	11702.2
1380.26186	9833.9
1383.72883	8399.5
1387.19347	7079.4
1390.65578	6106
1394.11575	5599.9
1397.57339	5319
1401.0287	5132.8
1404.48168	4937.5
1407.93234	4848.6
1411.38068	4970.5
1414.82669	5415.8
1418.27039	5896.1
1421.71177	5999.8
1425.15083	5756.1
1428.58758	5871.8
1432.02203	6535.6
1435.45416	7009.4
1438.88399	6691.9
1442.31151	6239.4
1445.73673	6147.9
1449.15965	6068.3
1452.58027	5910
1455.9986	5685.4
1459.41463	5472.5
1462.82837	5498.9
1466.23982	5776
1469.64898	6145.1
1473.05586	6269.8
1476.46045	6216.9
1479.86276	6257.6
1483.26279	6561.9
1486.66054	7296.7
1490.05602	8409.1
1493.44922	10201.9
1496.84016	13070.5
1500.22882	17461.3
1503.61521	23695.2
1506.99934	31811.4
1510.38121	40034.7
1513.76081	43613.8
1517.13816	38986.6
1520.51324	29233.1
1523.88607	20113.7
1527.25665	14190.2
1530.62498	10828.7
1533.99105	8882.6
1537.35488	7628
1540.71647	6927.7
1544.07581	6638.3
1547.4329	6644.6
1550.78776	6814.1
1554.14038	7181.3
1557.49077	7852.3
1560.83892	8990.8
1564.18484	10756.8
1567.52853	12594.7
1570.86999	13605.2
1574.20922	13634.4
1577.54624	12834.6
1580.88103	10681.5
1584.2136	8092.8
1587.54395	6616.8
1590.87208	6249
1594.19801	6727.7
1597.52172	7578.7
1600.84321	7606.5
1604.16251	6701.9
1607.47959	5828.1
1610.79447	5305.5
1614.10715	4902.9
1617.41763	4629.8
1620.7259	4488.5
1624.03199	4566.9
1627.33587	4785.3
1630.63757	5257.2
1633.93707	6080.2
1637.23439	7572.6
1640.52951	10250.2
1643.82246	14887.2
1647.11321	21159.3
1650.40179	26106.4
1653.68819	25548.6
1656.97241	19731.9
1660.25446	13078.1
1663.53433	8612.7
1666.81203	6202
1670.08756	4958.6
1673.36092	4269
1676.63211	3858.2
1679.90115	3594.7
1683.16801	3402.9
1686.43272	3268.5
1689.69527	3182.9
1692.95567	3099.7
1696.2139	3051.7
1699.46999	2980
1702.72392	2963.6
1705.97571	2980.6
1709.22535	2959.1
1712.47284	3010.3
1715.71819	3032.8
1718.96139	3031.5
1722.20246	2998.2
1725.44139	2938
1728.67818	2859.2
1731.91284	2765.7
1735.14537	2706.7
1738.37576	2656.8
1741.60403	2638
1744.83017	2596.9
1748.05418	2571.9
1751.27607	2552.5
1754.49584	2505.7
1757.71349	2420.6
1760.92903	2405.6
1764.14244	2320.4
1767.35375	2284.7
1770.56294	2239.6
1773.77002	2193.3
1776.97499	2180.5
1780.17785	2133.6
1783.37861	2098.6
1786.57727	2099.1
1789.77382	2040.7
1792.96828	2077.6
1796.16064	2075.6
1799.3509	2067.6
1802.53907	2068.5
1805.72514	2037.8
1808.90913	2003.4
1812.09102	2004.8
1815.27083	1993.7
1818.44856	1978.5
1821.6242	1973.9
1824.79776	1954.5
1827.96924	1943.5
1831.13864	1924.4
1834.30597	1909.7
1837.47122	1868.1
1840.6344	1839.4
1843.7955	1813.1
1846.95454	1797.9
1850.11151	1819
1853.26642	1773.1
1856.41926	1779.4
1859.57004	1784.9
1862.71876	1780
1865.86542	1802.4
1869.01003	1799.8
1872.15258	1773.3
1875.29308	1803.4
1878.43152	1814.4
1881.56792	1802.7
1884.70227	1777.3
1887.83457	1769.2
1890.96482	1737.6
1894.09304	1727.6
1897.21921	1732.2
1900.34335	1730.7
1903.46544	1718.1
1906.58551	1733.1
1909.70353	1723.1
1912.81953	1712.9
1915.93349	1713
1919.04543	1696.3
1922.15534	1673
1925.26322	1658.1
1928.36908	1636.1
1931.47292	1618.4
1934.57473	1614
1937.67453	1554.4
1940.77232	1519.5
1943.86808	1509.6
1946.96184	1513.7
1950.05358	1488.6
1953.14331	1476.6
1956.23103	1491.6
1959.31675	1492.8
1962.40046	1459.6
1965.48217	1505.7
1968.56188	1531.4
1971.63959	1537
1974.7153	1560.3
1977.78901	1530.9
1980.86073	1502.7
1983.93046	1439.8
1986.99819	1362.5
1990.06394	1375.3
1993.1277	1384.3
1996.18947	1368.8
1999.24925	1332.5
2002.30706	1343.4
2005.36288	1333
2008.41672	1323
2011.46859	1295.9
2014.51848	1294.1
2017.56639	1282.4
2020.61233	1261.4
2023.6563	1277.8
2026.6983	1239.2
2029.73833	1236.3
2032.7764	1261
2035.8125	1215.5
2038.84664	1223.9
2041.87881	1211.7
2044.90903	1230.6
2047.93729	1223
2050.96359	1199.9
2053.98794	1200.5
2057.01034	1200
2060.03078	1167.4
2063.04927	1152.9
2066.06582	1157.8
2069.08042	1126.3
2072.09307	1134.6
2075.10378	1129.3
2078.11255	1129.9
2081.11938	1132.6
2084.12426	1127.4
2087.12722	1126.4
2090.12824	1117.8
2093.12732	1127.1
2096.12447	1127
2099.11969	1120.7
2102.11299	1109.1
2105.10435	1134.4
2108.09379	1125
2111.08131	1114.2
2114.0669	1134.8
2117.05057	1142.3
2120.03233	1142.8
2123.01216	1174.3
2125.99008	1202.6
2128.96609	1196.3
2131.94018	1205.1
2134.91236	1175.2
2137.88263	1156.4
2140.851	1150.6
2143.81746	1141.7
2146.78201	1109.2
2149.74466	1084
2152.7054	1080
2155.66425	1054.3
2158.6212	1047.8
2161.57625	1015.5
2164.52941	997.7
2167.48067	1019.9
2170.43004	1020.5
2173.37752	1051.1
2176.32311	1044.4
2179.26681	1056.3
2182.20863	1062.9
2185.14856	1057.9
2188.08661	1056.5
2191.02278	1047
2193.95707	1014.7
2196.88948	992.4
2199.82001	1001.9
2202.74867	987.7
2205.67545	993.4
2208.60037	994.7
2211.52341	996.9
2214.44458	978.8
2217.36388	982.6
2220.28132	967.1
2223.1969	956.8
2226.11061	951.7
2229.02246	944.3
2231.93245	951.7
2234.84058	933.2
2237.74686	932.3
2240.65128	921.7
2243.55385	945.3
2246.45456	930.1
2249.35343	969.6
2252.25044	970.4
2255.14561	1005.3
2258.03893	1031.7
2260.93041	1050.2
2263.82004	1062.8
2266.70783	1069.1
2269.59378	1055.5
2272.4779	1037.4
2275.36017	1059.6
2278.24061	1038.8
2281.11922	1011.8
2283.996	1021.4
2286.87094	986
2289.74405	988.3
2292.61534	962.4
2295.4848	939.6
2298.35243	933.9
2301.21824	916.6
2304.08223	911.5
2306.94439	921.3
2309.80474	919.7
2312.66327	920.5
2315.51999	906
2318.37489	918.4
2321.22797	899.7
2324.07925	893.5
2326.92871	888.5
2329.77637	878.6
2332.62222	880.6
2335.46626	873.6
2338.3085	880.3
2341.14893	895.6
2343.98756	910.5
2346.8244	902.1
2349.65943	905.3
2352.49267	920.8
2355.32411	934.1
2358.15376	945.6
2360.98161	976
2363.80768	978.1
2366.63195	998.6
2369.45444	1017.2
2372.27514	1018.4
2375.09405	1044.7
2377.91118	991.9
2380.72652	989.3
2383.54009	971.5
2386.35187	969.3
2389.16188	937.1
2391.97011	931.2
2394.77657	903.8
2397.58125	903.2
2400.38416	882.5
2403.18529	873.1
2405.98466	850.7
2408.78226	862.6
2411.57809	858.1
2414.37216	847.3
2417.16446	860.4
2419.955	831.5
2422.74378	866.7
2425.5308	849.2
2428.31606	867.5
2431.09956	877.4
2433.88131	862.4
2436.6613	884.4
2439.43954	890.2
2442.21603	886.6
2444.99077	896
2447.76377	920.6
2450.53501	918
2453.30451	921.1
2456.07226	939.7
2458.83827	925.1
2461.60254	881.7
2464.36507	924
2467.12586	895.8
2469.88492	910.4
2472.64224	914.4
2475.39782	907.8
2478.15167	931.9
2480.90379	946.9
2483.65417	984.1
2486.40283	1007.1
2489.14976	1027.9
2491.89497	1014.6
2494.63845	1023.7
2497.3802	1008.4
2500.12024	1005.1
2502.85855	981.8
2505.59514	961.5
2508.33002	936.7
2511.06318	897
2513.79462	874.1
2516.52435	822.3
2519.25237	781
2521.97867	773.4
2524.70327	767
2527.42616	754.7
2530.14734	765.2
2532.86681	745
2535.58458	751.1
2538.30065	748.4
2541.01501	775.3
2543.72768	768.9
2546.43864	776.8
2549.14791	783
2551.85548	780.9
2554.56136	791.6
2557.26554	808.9
2559.96803	803.3
2562.66883	814.3
2565.36794	805
2568.06536	794.9
2570.7611	812.9
2573.45514	805.3
2576.14751	801.3
2578.83819	782.7
2581.52719	774.8
2584.21451	773.6
2586.90015	745.8
2589.58411	737.1
2592.2664	750.5
2594.94701	758.9
2597.62594	764.3
2600.30321	697.7
2602.9788	731.1
2605.65273	733.1
2608.32498	740.3
2610.99557	772.8
2613.66449	742.9
2616.33175	764
2618.99734	774.9
2621.66128	771
2624.32355	758.9
2626.98416	740.9
2629.64311	726.2
2632.30041	719.1
2634.95605	698.8
2637.61004	680.8
2640.26238	663.7
2642.91306	668.3
2645.56209	687
2648.20948	672.9
2650.85521	667.7
2653.4993	692.8
2656.14175	689.3
2658.78255	684.4
2661.42171	662.9
2664.05923	716.6
2666.6951	718.4
2669.32934	731.5
2671.96194	751.8
2674.59291	734.4
2677.22224	743.7
2679.84993	741.7
2682.476	723.6
2685.10043	719.5
2687.72324	708.8
2690.34441	703
2692.96396	694.6
2695.58188	706.6
2698.19818	697.5
2700.81285	675.9
2703.4259	681
2706.03733	655.9
2708.64714	661.5
2711.25533	698.8
2713.86191	709
2716.46687	703.9
2719.07021	698.3
2721.67194	708
2724.27206	718.9
2726.87057	690.6
2729.46747	674.7
2732.06276	671.9
2734.65644	655.6
2737.24852	658.9
2739.83899	629.4
2742.42786	637.1
2745.01513	645
2747.60079	619.5
2750.18486	605.3
2752.76733	605.9
2755.3482	594
2757.92747	591.4
2760.50515	567.7
2763.08123	570.7
2765.65573	573.5
2768.22863	563.6
2770.79994	557.3
2773.36967	564
2775.9378	565.4
2778.50435	563.3
2781.06932	566.6
2783.6327	560.4
2786.1945	585.1
2788.75471	568.5
2791.31335	582.1
2793.87041	586.5
2796.42589	582.7
2798.97979	584.5
2801.53212	599.1
2804.08288	624.7
2806.63206	617.6
2809.17967	627.3
2811.72571	652.2
2814.27018	675.3
2816.81308	687.6
2819.35442	672.9
2821.89419	714.6
2824.43239	708.5
2826.96904	743.4
2829.50412	721.2
2832.03763	723.5
2834.56959	711
2837.1	701
2839.62884	685.2
2842.15613	679.5
2844.68186	684
2847.20604	669.4
2849.72867	675.6
2852.24974	696.4
2854.76927	683
2857.28724	654.8
2859.80367	733.9
2862.31855	754.4
2864.83189	770.1
2867.34368	789.4
2869.85393	813.3
2872.36264	801.1
2874.8698	816.1
2877.37543	823
2879.87952	803.6
2882.38207	763
2884.88308	763.3
2887.38256	751.7
2889.88051	728.5
2892.37692	727.3
2894.8718	696.7
2897.36515	722.1
2899.85698	722
2902.34727	724.1
2904.83604	740.8
2907.32328	769.7
2909.809	788.1
2912.29319	797.6
2914.77587	815.2
2917.25702	822.7
2919.73665	806.5
2922.21476	785.7
2924.69136	771.8
2927.16644	732.9
2929.64	717.9
2932.11205	697.6
2934.58258	694.2
2937.05161	681.7
2939.51912	687.5
2941.98513	697.2
2944.44962	682.3
2946.91261	662
2949.37409	672.1
2951.83407	671.7
2954.29254	681
2956.74951	693.2
2959.20498	673.1
2961.65895	683.8
2964.11142	675.7
2966.56239	666.9
2969.01186	670
2971.45984	662.6
2973.90632	646.9
2976.35131	666.8
2978.7948	669
2981.23681	659.1
2983.67732	668.2
2986.11635	672.9
2988.55388	646.2
2990.98993	666
2993.4245	667.7
2995.85758	657.3
2998.28917	668.8
3000.71928	671.9
3003.14791	666.6
3005.57506	658.7
3008.00073	659.8
3010.42493	597.6
3012.84764	659.2
3015.26888	656.9
3017.68865	649.4
3020.10694	608
3022.52376	631.6
3024.9391	624.9
3027.35298	605.7
3029.76539	584.6
3032.17632	582
3034.5858	561.5
3036.9938	557.7
3039.40034	540.4
3041.80542	520
3044.20903	506.8
3046.61118	489.3
3049.01187	505.5
3051.4111	489.1
3053.80888	484.2
3056.20519	479.9
3058.60005	464.5
3060.99345	491.6
3063.3854	471.9
3065.7759	464.7
3068.16494	451.1
3070.55254	447.8
3072.93868	470.2
3075.32338	448.8
3077.70662	450.4
3080.08842	440.5
3082.46878	436.1
3084.84769	448.7
3087.22515	434
3089.60118	445.8
3091.97576	424.9
3094.3489	429.6
3096.72061	423.6
3099.09087	413.6
3101.4597	426.4
3103.82709	410.1
3106.19305	409.5
3108.55757	417.4
3110.92066	406.1
3113.28232	421.3
3115.64255	424.1
3118.00134	427.8
3120.35871	408.8
3122.71466	399.4
3125.06917	411.9
3127.42226	409
3129.77393	395.4
3132.12417	416.6
3134.47299	426.1
3136.82039	406.7
3139.16636	385.5
3141.51092	412.7
3143.85406	415
3146.19579	400.2
3148.53609	407.3
3150.87499	415.6
3153.21246	411.1
3155.54853	421.4
3157.88318	426.2
3160.21642	422.3
3162.54826	419.5
3164.87868	423.7
3167.2077	382.3
3169.5353	408.1
3171.86151	409.2
3174.18631	379.5
3176.5097	376.4
3178.83169	377.5
3181.15228	374.5
3183.47147	346.3
3185.78926	331.8
3188.10565	341.7
3190.42065	328.9
3192.73424	341.3
3195.04645	334.7
3197.35725	323.1
3199.66667	344.3
3201.97469	342.2
3204.28132	330.1
3206.58656	345.6
3208.8904	362.3
3211.19287	356.7
3213.49394	348.1
3215.79363	349.7
3218.09193	363.2
3220.38884	356.5
3222.68438	354
3224.97853	339.8
3227.2713	363.6
3229.56269	342.5
3231.8527	344.5
3234.14133	336
3236.42858	334.3
3238.71446	312.6
3240.99896	332.9
3243.28209	319.8
3245.56384	335.5
3247.84423	323.5
3250.12324	333.1
3252.40088	327
3254.67715	317.1
3256.95205	312.4
3259.22558	327.5
3261.49775	320.7
3263.76855	317.9
3266.03799	328.5
3268.30606	333.1
3270.57277	329.2
3272.83812	324.9
3275.10211	331.3
3277.36474	356.9
3279.62601	357
3281.88593	345.8
3284.14448	344.1
3286.40168	374.4
3288.65753	378
3290.91202	388.6
3293.16516	387.6
3295.41695	423.5
3297.66738	438.3
3299.91647	425.2
3302.16421	449.6
3304.4106	417
3306.65564	452.5
3308.89933	437.1
3311.14169	445
3313.38269	454.1
3315.62236	439
3317.86068	447.1
3320.09766	462.8
3322.3333	448.8
3324.5676	459.8
3326.80056	462
3329.03219	477.5
3331.26248	-0.1
3333.49143	0.3
3335.71905	1.1
