Data from AgNPs_UA_5uM_CRN_500uM_SU_RamanShift__80__11-42-43-155.txt Node

Date: Thu Aug 04 11:42:43 BST 2022
User: TCL
Spectrometer: QEP01345
Trigger mode: 4
Integration Time (sec): 1.000000E0
Scans to average: 10
Electric dark correction enabled: true
Nonlinearity correction enabled: false
Boxcar width: 0
XAxis mode: Raman Shifts
Number of Pixels in Spectrum: 1044
>>>>>Begin Spectral Data<<<<<
46.04893	0.425
50.45542	-0.775
54.85868	0.525
59.25871	-0.475
63.6555	-62.575
68.04907	-44.875
72.43941	-75.775
76.82654	-60.475
81.21044	-58.975
85.59113	-53.375
89.96862	-77.975
94.34289	-59.875
98.71396	-82.175
103.08183	-63.775
107.4465	-56.275
111.80798	-61.575
116.16626	-51.075
120.52136	-79.975
124.87327	-56.575
129.222	-69.375
133.56755	-59.675
137.90993	-71.275
142.24913	-62.375
146.58517	-56.075
150.91804	-56.875
155.24774	-45.675
159.57429	-32.175
163.89768	-37.675
168.21792	-1.575
172.53501	-1.375
176.84895	57.625
181.15975	153.125
185.46741	246.125
189.77193	356.925
194.07331	560.625
198.37157	741.825
202.6667	923.725
206.9587	1137.025
211.24758	1337.325
215.53334	1548.625
219.81599	1754.525
224.09553	2013.325
228.37195	2299.025
232.64527	2564.325
236.91549	2851.325
241.18261	3086.525
245.44663	3304.125
249.70755	3481.425
253.96539	3641.325
258.22014	3812.825
262.4718	3911.025
266.72039	3969.725
270.96589	3983.825
275.20832	3949.425
279.44768	3891.125
283.68397	3812.525
287.91719	3756.425
292.14735	3741.125
296.37445	3785.825
300.59849	3919.625
304.81948	4045.025
309.03742	4223.925
313.25231	4381.125
317.46415	4374.325
321.67296	4167.325
325.87872	3948.725
330.08145	3849.125
334.28114	3827.525
338.47781	3892.625
342.67145	4003.925
346.86207	4149.925
351.04966	4364.625
355.23424	4585.225
359.4158	4732.225
363.59435	4702.525
367.76989	4639.425
371.94243	4573.025
376.11196	4511.525
380.27849	4517.025
384.44203	4468.325
388.60257	4470.525
392.76012	4507.125
396.91468	4602.625
401.06626	4710.425
405.21485	4682.525
409.36047	4624.725
413.50311	4496.925
417.64277	4408.625
421.77947	4301.425
425.9132	4291.925
430.04396	4296.725
434.17176	4307.225
438.2966	4380.525
442.41849	4415.025
446.53742	4482.625
450.6534	4531.625
454.76644	4573.525
458.87653	4592.125
462.98368	4592.125
467.08789	4572.425
471.18916	4547.025
475.2875	4530.925
479.38291	4502.025
483.4754	4474.925
487.56496	4500.425
491.6516	4477.825
495.73531	4477.825
499.81612	4504.525
503.89401	4568.025
507.96899	4586.725
512.04106	4642.925
516.11023	4674.525
520.1765	4739.725
524.23987	4742.625
528.30034	4765.225
532.35792	4738.925
536.41261	4737.225
540.46441	4706.625
544.51333	4695.325
548.55936	4705.925
552.60252	4778.325
556.64279	4823.225
560.6802	4904.525
564.71473	5024.425
568.7464	5160.325
572.7752	5178.325
576.80114	4961.325
580.82422	4833.425
584.84444	4754.025
588.86181	4759.325
592.87633	4769.525
596.888	4832.425
600.89682	5007.625
604.9028	5435.525
608.90594	6373.525
612.90624	7546.325
616.90371	7174.025
620.89834	5757.925
624.89015	5136.125
628.87913	5087.125
632.86528	5186.525
636.84862	5248.925
640.82913	5176.425
644.80683	5004.625
648.78172	4965.025
652.75379	5006.925
656.72306	5103.525
660.68952	5244.925
664.65319	5202.525
668.61405	5088.125
672.57211	5045.425
676.52738	5099.725
680.47986	5070.125
684.42955	5032.725
688.37646	5050.125
692.32058	5053.225
696.26192	5095.925
700.20048	5130.825
704.13626	5161.025
708.06928	5145.325
711.99952	5159.125
715.927	5158.325
719.85171	5185.525
723.77365	5213.725
727.69284	5197.725
731.60928	5209.125
735.52295	5209.025
739.43388	5229.925
743.34206	5250.925
747.24749	5272.225
751.15017	5282.425
755.05012	5333.425
758.94733	5503.625
762.8418	5902.625
766.73354	6466.825
770.62254	6795.825
774.50882	6713.725
778.39237	6522.625
782.27321	6236.625
786.15132	5834.025
790.02671	5569.925
793.89938	5388.725
797.76935	5371.125
801.6366	5344.525
805.50115	5326.325
809.36299	5331.625
813.22213	5351.325
817.07857	5357.725
820.93231	5347.825
824.78336	5395.625
828.63172	5385.425
832.47738	5410.425
836.32036	5424.225
840.16066	5398.725
843.99827	5391.825
847.8332	5406.425
851.66546	5413.125
855.49504	5408.325
859.32195	5432.625
863.1462	5416.725
866.96777	5443.625
870.78668	5431.325
874.60293	5464.525
878.41652	5476.225
882.22745	5528.825
886.03573	5550.325
889.84136	5540.025
893.64433	5551.425
897.44466	5542.625
901.24235	5546.325
905.0374	5547.425
908.8298	5545.725
912.61957	5501.725
916.40671	5462.325
920.19121	5498.425
923.97308	5533.125
927.75233	5577.825
931.52895	5606.125
935.30295	5631.625
939.07433	5542.425
942.84309	5480.825
946.60924	5450.825
950.37278	5435.125
954.13371	5460.125
957.89203	5433.025
961.64774	5457.025
965.40086	5441.525
969.15137	5410.625
972.89929	5468.825
976.64461	5440.025
980.38733	5459.625
984.12747	5441.925
987.86502	5452.125
991.59999	5462.925
995.33237	5500.925
999.06217	5530.225
1002.78939	5552.925
1006.51404	5631.725
1010.23611	5645.225
1013.95561	5650.525
1017.67255	5647.925
1021.38692	5642.925
1025.09872	5637.425
1028.80796	5576.725
1032.51465	5621.025
1036.21877	5599.825
1039.92035	5628.525
1043.61937	5631.625
1047.31584	5665.125
1051.00976	5694.725
1054.70114	5701.125
1058.38998	5694.025
1062.07627	5691.725
1065.76003	5690.325
1069.44126	5744.325
1073.11995	5765.025
1076.79611	5862.025
1080.46974	5943.025
1084.14085	6020.025
1087.80943	6097.625
1091.47549	6109.525
1095.13903	6049.025
1098.80005	5995.425
1102.45857	5932.925
1106.11456	5933.525
1109.76805	5900.325
1113.41903	5969.425
1117.06751	6020.425
1120.71348	6141.525
1124.35696	6340.725
1127.99793	6469.025
1131.63641	6408.125
1135.2724	6179.825
1138.90589	6037.225
1142.5369	5930.325
1146.16542	5877.225
1149.79145	5829.125
1153.415	5812.725
1157.03607	5798.425
1160.65467	5837.525
1164.27079	5897.025
1167.88443	5988.025
1171.49561	6172.025
1175.10432	6406.225
1178.71056	6797.725
1182.31434	7095.925
1185.91565	7122.525
1189.51451	6971.525
1193.11091	6784.225
1196.70485	6648.325
1200.29634	6574.825
1203.88538	6464.125
1207.47197	6300.625
1211.05612	6137.025
1214.63782	6039.025
1218.21708	5986.925
1221.79391	5946.525
1225.36829	5915.525
1228.94024	5931.525
1232.50976	5923.425
1236.07685	5933.025
1239.6415	5970.125
1243.20374	5984.725
1246.76355	6015.525
1250.32093	6075.825
1253.8759	6092.025
1257.42845	6184.025
1260.97859	6269.625
1264.52631	6405.425
1268.07163	6466.725
1271.61453	6495.225
1275.15503	6473.425
1278.69312	6448.425
1282.22882	6461.925
1285.76211	6560.525
1289.29301	6687.625
1292.82151	6798.125
1296.34761	6847.225
1299.87133	6953.625
1303.39266	7238.825
1306.9116	7739.825
1310.42815	8355.025
1313.94233	8626.825
1317.45412	8222.925
1320.96354	7645.125
1324.47058	7165.525
1327.97525	6806.925
1331.47754	6587.225
1334.97747	6521.825
1338.47502	6521.525
1341.97022	6683.425
1345.46305	7011.025
1348.95352	7433.925
1352.44163	7862.425
1355.92738	8292.525
1359.41078	9036.425
1362.89183	9866.325
1366.37053	9681.825
1369.84688	8438.525
1373.32088	7324.025
1376.79254	6805.725
1380.26186	6525.625
1383.72883	6322.925
1387.19347	6134.025
1390.65578	5971.225
1394.11575	5859.325
1397.57339	5826.125
1401.0287	5807.325
1404.48168	5764.025
1407.93234	5794.625
1411.38068	5802.425
1414.82669	5845.925
1418.27039	5904.525
1421.71177	5931.125
1425.15083	5863.925
1428.58758	5846.525
1432.02203	5891.425
1435.45416	5944.525
1438.88399	5889.325
1442.31151	5852.725
1445.73673	5837.025
1449.15965	5831.225
1452.58027	5793.325
1455.9986	5781.725
1459.41463	5787.925
1462.82837	5795.825
1466.23982	5838.525
1469.64898	5901.925
1473.05586	5917.225
1476.46045	5951.725
1479.86276	5984.225
1483.26279	6022.125
1486.66054	6145.525
1490.05602	6257.925
1493.44922	6497.025
1496.84016	6840.625
1500.22882	7387.125
1503.61521	8076.425
1506.99934	8917.425
1510.38121	9683.525
1513.76081	9951.225
1517.13816	9387.425
1520.51324	8349.525
1523.88607	7451.425
1527.25665	6873.625
1530.62498	6527.425
1533.99105	6358.325
1537.35488	6253.125
1540.71647	6193.025
1544.07581	6153.425
1547.4329	6158.425
1550.78776	6166.825
1554.14038	6193.125
1557.49077	6234.425
1560.83892	6363.125
1564.18484	6534.125
1567.52853	6717.625
1570.86999	6855.525
1574.20922	6891.825
1577.54624	6790.425
1580.88103	6583.525
1584.2136	6272.225
1587.54395	6149.925
1590.87208	6126.225
1594.19801	6155.725
1597.52172	6286.125
1600.84321	6326.825
1604.16251	6217.425
1607.47959	6093.525
1610.79447	6034.925
1614.10715	5942.225
1617.41763	5870.025
1620.7259	5788.825
1624.03199	5791.725
1627.33587	5759.425
1630.63757	5789.425
1633.93707	5892.725
1637.23439	6089.525
1640.52951	6393.325
1643.82246	6871.625
1647.11321	7499.725
1650.40179	7913.825
1653.68819	7829.325
1656.97241	7238.925
1660.25446	6538.125
1663.53433	6082.825
1666.81203	5799.125
1670.08756	5654.025
1673.36092	5612.625
1676.63211	5534.925
1679.90115	5513.425
1683.16801	5472.125
1686.43272	5413.925
1689.69527	5408.525
1692.95567	5384.325
1696.2139	5388.525
1699.46999	5348.725
1702.72392	5356.925
1705.97571	5382.425
1709.22535	5379.725
1712.47284	5399.025
1715.71819	5430.225
1718.96139	5418.625
1722.20246	5412.225
1725.44139	5395.725
1728.67818	5403.725
1731.91284	5372.325
1735.14537	5350.925
1738.37576	5350.725
1741.60403	5341.125
1744.83017	5316.225
1748.05418	5330.725
1751.27607	5326.825
1754.49584	5302.125
1757.71349	5283.125
1760.92903	5286.325
1764.14244	5243.625
1767.35375	5273.225
1770.56294	5234.725
1773.77002	5236.725
1776.97499	5251.425
1780.17785	5249.025
1783.37861	5263.025
1786.57727	5269.025
1789.77382	5216.625
1792.96828	5255.125
1796.16064	5263.725
1799.3509	5246.925
1802.53907	5252.725
1805.72514	5228.225
1808.90913	5218.925
1812.09102	5220.325
1815.27083	5207.425
1818.44856	5193.025
1821.6242	5187.825
1824.79776	5183.925
1827.96924	5170.625
1831.13864	5149.325
1834.30597	5159.825
1837.47122	5136.425
1840.6344	5144.325
1843.7955	5132.625
1846.95454	5108.225
1850.11151	5177.825
1853.26642	5107.725
1856.41926	5110.225
1859.57004	5128.725
1862.71876	5116.625
1865.86542	5128.225
1869.01003	5128.025
1872.15258	5100.825
1875.29308	5128.425
1878.43152	5125.625
1881.56792	5093.325
1884.70227	5065.725
1887.83457	5084.525
1890.96482	5063.525
1894.09304	5071.225
1897.21921	5058.325
1900.34335	5063.125
1903.46544	5023.925
1906.58551	5064.525
1909.70353	5055.225
1912.81953	5045.925
1915.93349	5034.925
1919.04543	5034.325
1922.15534	4996.825
1925.26322	5008.925
1928.36908	5002.525
1931.47292	5003.825
1934.57473	5000.525
1937.67453	4988.925
1940.77232	4952.625
1943.86808	4946.225
1946.96184	4933.425
1950.05358	4921.725
1953.14331	4893.625
1956.23103	4916.625
1959.31675	4872.525
1962.40046	4819.725
1965.48217	4849.125
1968.56188	4847.525
1971.63959	4820.525
1974.7153	4812.925
1977.78901	4814.525
1980.86073	4800.325
1983.93046	4751.425
1986.99819	4678.025
1990.06394	4727.725
1993.1277	4760.825
1996.18947	4720.925
1999.24925	4683.825
2002.30706	4696.825
2005.36288	4684.925
2008.41672	4675.425
2011.46859	4647.025
2014.51848	4627.825
2017.56639	4614.525
2020.61233	4601.125
2023.6563	4596.225
2026.6983	4555.425
2029.73833	4585.425
2032.7764	4580.125
2035.8125	4518.025
2038.84664	4536.725
2041.87881	4522.825
2044.90903	4533.825
2047.93729	4515.025
2050.96359	4494.925
2053.98794	4513.525
2057.01034	4521.825
2060.03078	4491.425
2063.04927	4488.725
2066.06582	4491.325
2069.08042	4475.325
2072.09307	4479.925
2075.10378	4490.225
2078.11255	4473.625
2081.11938	4474.325
2084.12426	4476.425
2087.12722	4478.125
2090.12824	4470.325
2093.12732	4474.225
2096.12447	4473.825
2099.11969	4471.825
2102.11299	4452.325
2105.10435	4496.625
2108.09379	4492.225
2111.08131	4473.725
2114.0669	4474.325
2117.05057	4476.425
2120.03233	4477.625
2123.01216	4493.625
2125.99008	4500.925
2128.96609	4514.525
2131.94018	4514.125
2134.91236	4501.925
2137.88263	4503.425
2140.851	4505.925
2143.81746	4539.825
2146.78201	4523.825
2149.74466	4512.625
2152.7054	4530.925
2155.66425	4515.525
2158.6212	4492.525
2161.57625	4481.925
2164.52941	4451.625
2167.48067	4492.425
2170.43004	4487.225
2173.37752	4483.825
2176.32311	4491.225
2179.26681	4487.125
2182.20863	4497.625
2185.14856	4503.325
2188.08661	4489.525
2191.02278	4515.025
2193.95707	4487.225
2196.88948	4472.025
2199.82001	4490.325
2202.74867	4476.125
2205.67545	4495.325
2208.60037	4483.625
2211.52341	4464.625
2214.44458	4461.225
2217.36388	4439.725
2220.28132	4426.325
2223.1969	4417.425
2226.11061	4421.325
2229.02246	4404.625
2231.93245	4405.125
2234.84058	4388.925
2237.74686	4379.925
2240.65128	4378.225
2243.55385	4375.525
2246.45456	4361.225
2249.35343	4373.025
2252.25044	4367.525
2255.14561	4357.725
2258.03893	4348.325
2260.93041	4353.025
2263.82004	4342.025
2266.70783	4338.525
2269.59378	4304.025
2272.4779	4301.425
2275.36017	4298.725
2278.24061	4270.225
2281.11922	4248.825
2283.996	4267.425
2286.87094	4249.825
2289.74405	4248.325
2292.61534	4242.125
2295.4848	4245.825
2298.35243	4228.525
2301.21824	4229.825
2304.08223	4221.325
2306.94439	4230.925
2309.80474	4217.325
2312.66327	4227.025
2315.51999	4205.525
2318.37489	4208.525
2321.22797	4171.925
2324.07925	4187.125
2326.92871	4180.525
2329.77637	4164.025
2332.62222	4154.225
2335.46626	4133.725
2338.3085	4117.225
2341.14893	4149.225
2343.98756	4140.625
2346.8244	4112.225
2349.65943	4114.625
2352.49267	4105.025
2355.32411	4125.625
2358.15376	4107.425
2360.98161	4119.025
2363.80768	4087.625
2366.63195	4099.025
2369.45444	4107.125
2372.27514	4088.325
2375.09405	4101.925
2377.91118	4071.825
2380.72652	4069.325
2383.54009	4050.825
2386.35187	4073.425
2389.16188	4040.125
2391.97011	4050.125
2394.77657	4029.425
2397.58125	4035.425
2400.38416	4030.425
2403.18529	4017.225
2405.98466	3995.225
2408.78226	4005.825
2411.57809	3978.825
2414.37216	3966.225
2417.16446	3984.225
2419.955	3957.525
2422.74378	3979.325
2425.5308	3954.825
2428.31606	3979.725
2431.09956	3962.625
2433.88131	3953.025
2436.6613	3953.025
2439.43954	3930.225
2442.21603	3939.525
2444.99077	3908.525
2447.76377	3923.425
2450.53501	3921.925
2453.30451	3913.725
2456.07226	3932.725
2458.83827	3904.125
2461.60254	3859.925
2464.36507	3882.925
2467.12586	3872.525
2469.88492	3876.225
2472.64224	3876.125
2475.39782	3861.625
2478.15167	3877.925
2480.90379	3857.525
2483.65417	3867.025
2486.40283	3872.025
2489.14976	3871.425
2491.89497	3837.925
2494.63845	3843.125
2497.3802	3842.525
2500.12024	3834.425
2502.85855	3837.525
2505.59514	3829.325
2508.33002	3817.925
2511.06318	3797.925
2513.79462	3807.425
2516.52435	3778.425
2519.25237	3753.325
2521.97867	3752.625
2524.70327	3772.325
2527.42616	3761.625
2530.14734	3769.825
2532.86681	3748.725
2535.58458	3760.025
2538.30065	3745.025
2541.01501	3752.625
2543.72768	3728.925
2546.43864	3730.825
2549.14791	3717.425
2551.85548	3697.325
2554.56136	3688.225
2557.26554	3706.525
2559.96803	3694.325
2562.66883	3693.425
2565.36794	3676.825
2568.06536	3639.525
2570.7611	3655.725
2573.45514	3662.525
2576.14751	3645.025
2578.83819	3629.025
2581.52719	3607.125
2584.21451	3617.625
2586.90015	3604.325
2589.58411	3579.425
2592.2664	3593.625
2594.94701	3594.625
2597.62594	3592.625
2600.30321	3530.725
2602.9788	3535.525
2605.65273	3532.425
2608.32498	3542.325
2610.99557	3554.725
2613.66449	3516.325
2616.33175	3545.325
2618.99734	3534.925
2621.66128	3537.425
2624.32355	3507.325
2626.98416	3483.625
2629.64311	3480.025
2632.30041	3480.825
2634.95605	3465.825
2637.61004	3466.025
2640.26238	3439.325
2642.91306	3440.925
2645.56209	3466.525
2648.20948	3457.525
2650.85521	3433.025
2653.4993	3464.325
2656.14175	3444.925
2658.78255	3423.525
2661.42171	3397.025
2664.05923	3443.125
2666.6951	3447.725
2669.32934	3456.825
2671.96194	3444.625
2674.59291	3430.925
2677.22224	3434.325
2679.84993	3432.225
2682.476	3437.925
2685.10043	3421.925
2687.72324	3409.025
2690.34441	3411.625
2692.96396	3408.025
2695.58188	3430.025
2698.19818	3418.425
2700.81285	3402.225
2703.4259	3408.525
2706.03733	3375.825
2708.64714	3373.225
2711.25533	3400.025
2713.86191	3396.325
2716.46687	3396.025
2719.07021	3389.225
2721.67194	3382.525
2724.27206	3397.025
2726.87057	3392.725
2729.46747	3386.225
2732.06276	3394.925
2734.65644	3372.825
2737.24852	3381.425
2739.83899	3340.525
2742.42786	3378.425
2745.01513	3372.025
2747.60079	3356.425
2750.18486	3327.825
2752.76733	3341.525
2755.3482	3321.025
2757.92747	3328.125
2760.50515	3317.225
2763.08123	3309.125
2765.65573	3311.325
2768.22863	3291.625
2770.79994	3301.325
2773.36967	3294.425
2775.9378	3271.925
2778.50435	3288.525
2781.06932	3271.925
2783.6327	3255.425
2786.1945	3260.925
2788.75471	3252.825
2791.31335	3240.625
2793.87041	3234.225
2796.42589	3225.725
2798.97979	3213.025
2801.53212	3203.725
2804.08288	3235.725
2806.63206	3194.325
2809.17967	3181.225
2811.72571	3196.025
2814.27018	3178.425
2816.81308	3165.825
2819.35442	3122.125
2821.89419	3162.125
2824.43239	3139.325
2826.96904	3166.725
2829.50412	3144.225
2832.03763	3139.125
2834.56959	3142.825
2837.1	3131.825
2839.62884	3118.625
2842.15613	3133.925
2844.68186	3130.525
2847.20604	3111.125
2849.72867	3096.425
2852.24974	3098.325
2854.76927	3066.925
2857.28724	3025.125
2859.80367	3064.825
2862.31855	3090.025
2864.83189	3066.425
2867.34368	3072.725
2869.85393	3077.225
2872.36264	3047.225
2874.8698	3054.025
2877.37543	3062.125
2879.87952	3054.025
2882.38207	3038.625
2884.88308	3035.025
2887.38256	3047.425
2889.88051	3042.225
2892.37692	3032.425
2894.8718	3021.125
2897.36515	3029.525
2899.85698	3016.225
2902.34727	3009.825
2904.83604	3019.025
2907.32328	3032.325
2909.809	3024.025
2912.29319	3019.925
2914.77587	3019.925
2917.25702	3034.625
2919.73665	3028.925
2922.21476	3034.025
2924.69136	3041.125
2927.16644	3014.225
2929.64	3020.925
2932.11205	3000.425
2934.58258	2996.625
2937.05161	2993.225
2939.51912	2997.425
2941.98513	3004.225
2944.44962	2997.225
2946.91261	2958.425
2949.37409	2980.825
2951.83407	2982.225
2954.29254	2979.825
2956.74951	2988.825
2959.20498	2974.325
2961.65895	2970.625
2964.11142	2972.125
2966.56239	2970.125
2969.01186	2960.225
2971.45984	2972.725
2973.90632	2954.725
2976.35131	2969.125
2978.7948	2960.425
2981.23681	2950.725
2983.67732	2954.125
2986.11635	2945.025
2988.55388	2928.025
2990.98993	2936.325
2993.4245	2910.425
2995.85758	2894.425
2998.28917	2908.725
3000.71928	2894.225
3003.14791	2881.725
3005.57506	2883.025
3008.00073	2874.125
3010.42493	2819.525
3012.84764	2867.725
3015.26888	2869.325
3017.68865	2871.925
3020.10694	2820.425
3022.52376	2833.625
3024.9391	2841.425
3027.35298	2821.425
3029.76539	2811.825
3032.17632	2824.525
3034.5858	2812.025
3036.9938	2824.725
3039.40034	2812.625
3041.80542	2808.525
3044.20903	2794.225
3046.61118	2792.425
3049.01187	2800.425
3051.4111	2783.025
3053.80888	2765.525
3056.20519	2768.225
3058.60005	2749.525
3060.99345	2779.525
3063.3854	2738.125
3065.7759	2731.725
3068.16494	2724.025
3070.55254	2718.825
3072.93868	2725.725
3075.32338	2711.225
3077.70662	2698.425
3080.08842	2699.025
3082.46878	2684.325
3084.84769	2703.725
3087.22515	2692.825
3089.60118	2709.225
3091.97576	2679.825
3094.3489	2687.325
3096.72061	2689.425
3099.09087	2674.825
3101.4597	2693.225
3103.82709	2688.925
3106.19305	2665.725
3108.55757	2678.025
3110.92066	2649.025
3113.28232	2677.825
3115.64255	2678.025
3118.00134	2658.625
3120.35871	2647.925
3122.71466	2636.525
3125.06917	2635.125
3127.42226	2630.125
3129.77393	2614.525
3132.12417	2616.225
3134.47299	2617.825
3136.82039	2596.525
3139.16636	2580.925
3141.51092	2610.325
3143.85406	2618.925
3146.19579	2593.725
3148.53609	2596.025
3150.87499	2611.825
3153.21246	2596.125
3155.54853	2595.825
3157.88318	2596.025
3160.21642	2608.125
3162.54826	2597.625
3164.87868	2606.425
3167.2077	2572.125
3169.5353	2592.325
3171.86151	2594.525
3174.18631	2578.425
3176.5097	2577.025
3178.83169	2590.925
3181.15228	2581.425
3183.47147	2559.525
3185.78926	2553.225
3188.10565	2560.325
3190.42065	2535.525
3192.73424	2546.825
3195.04645	2544.925
3197.35725	2518.225
3199.66667	2531.525
3201.97469	2529.525
3204.28132	2536.525
3206.58656	2537.925
3208.8904	2549.325
3211.19287	2524.125
3213.49394	2524.425
3215.79363	2510.425
3218.09193	2535.325
3220.38884	2525.825
3222.68438	2525.225
3224.97853	2496.625
3227.2713	2534.725
3229.56269	2516.825
3231.8527	2514.225
3234.14133	2501.825
3236.42858	2496.325
3238.71446	2472.725
3240.99896	2488.025
3243.28209	2471.125
3245.56384	2497.425
3247.84423	2470.325
3250.12324	2472.825
3252.40088	2470.625
3254.67715	2446.925
3256.95205	2451.825
3259.22558	2460.925
3261.49775	2453.625
3263.76855	2463.025
3266.03799	2463.525
3268.30606	2460.125
3270.57277	2474.425
3272.83812	2445.825
3275.10211	2443.725
3277.36474	2452.125
3279.62601	2445.125
3281.88593	2428.625
3284.14448	2393.625
3286.40168	2421.525
3288.65753	2393.425
3290.91202	2399.725
3293.16516	2385.425
3295.41695	2416.925
3297.66738	2407.025
3299.91647	2374.225
3302.16421	2385.625
3304.4106	2322.125
3306.65564	2347.025
3308.89933	2315.125
3311.14169	2298.225
3313.38269	2286.425
3315.62236	2262.725
3317.86068	2261.225
3320.09766	2246.625
3322.3333	2202.525
3324.5676	2200.725
3326.80056	2159.825
3329.03219	2159.325
3331.26248	-0.175
3333.49143	-1.375
3335.71905	1.125
