Data from AgNPs_UA_10uM_CRN_500uM_SU_RamanShift__73__13-17-30-268.txt Node

Date: Thu Aug 04 13:17:30 BST 2022
User: TCL
Spectrometer: QEP01345
Trigger mode: 4
Integration Time (sec): 1.000000E0
Scans to average: 10
Electric dark correction enabled: true
Nonlinearity correction enabled: false
Boxcar width: 0
XAxis mode: Raman Shifts
Number of Pixels in Spectrum: 1044
>>>>>Begin Spectral Data<<<<<
46.04893	-0.2375
50.45542	-0.3375
54.85868	0.7625
59.25871	-0.9375
63.6555	23.5625
68.04907	22.7625
72.43941	22.5625
76.82654	22.7625
81.21044	24.5625
85.59113	26.2625
89.96862	30.0625
94.34289	28.8625
98.71396	28.9625
103.08183	32.7625
107.4465	32.8625
111.80798	30.7625
116.16626	33.8625
120.52136	35.7625
124.87327	36.2625
129.222	38.9625
133.56755	39.9625
137.90993	44.9625
142.24913	49.8625
146.58517	56.0625
150.91804	69.0625
155.24774	81.8625
159.57429	103.5625
163.89768	134.3625
168.21792	181.1625
172.53501	249.5625
176.84895	350.3625
181.15975	492.8625
185.46741	703.9625
189.77193	971.3625
194.07331	1307.2625
198.37157	1689.2625
202.6667	2100.3625
206.9587	2495.3625
211.24758	2896.8625
215.53334	3299.1625
219.81599	3735.1625
224.09553	4200.0625
228.37195	4718.7625
232.64527	5292.0625
236.91549	5850.4625
241.18261	6374.1625
245.44663	6826.6625
249.70755	7185.7625
253.96539	7525.0625
258.22014	7814.5625
262.4718	8054.8625
266.72039	8207.1625
270.96589	8257.9625
275.20832	8239.3625
279.44768	8143.8625
283.68397	8015.9625
287.91719	7923.0625
292.14735	7907.8625
296.37445	8008.7625
300.59849	8193.4625
304.81948	8396.5625
309.03742	8571.9625
313.25231	8685.0625
317.46415	8574.7625
321.67296	8369.8625
325.87872	8120.7625
330.08145	8026.2625
334.28114	8025.5625
338.47781	8110.1625
342.67145	8220.4625
346.86207	8420.3625
351.04966	8712.6625
355.23424	8983.9625
359.4158	9212.6625
363.59435	9333.7625
367.76989	9415.7625
371.94243	9431.4625
376.11196	9450.3625
380.27849	9487.4625
384.44203	9538.1625
388.60257	9618.3625
392.76012	9724.1625
396.91468	9833.9625
401.06626	9995.1625
405.21485	10049.2625
409.36047	9974.9625
413.50311	9773.2625
417.64277	9546.0625
421.77947	9393.7625
425.9132	9311.5625
430.04396	9292.6625
434.17176	9349.1625
438.2966	9451.8625
442.41849	9595.8625
446.53742	9806.7625
450.6534	10004.3625
454.76644	10176.9625
458.87653	10255.7625
462.98368	10277.4625
467.08789	10222.0625
471.18916	10077.8625
475.2875	9877.2625
479.38291	9673.9625
483.4754	9598.5625
487.56496	9505.6625
491.6516	9494.0625
495.73531	9475.9625
499.81612	9528.6625
503.89401	9592.2625
507.96899	9636.7625
512.04106	9655.6625
516.11023	9712.0625
520.1765	9735.2625
524.23987	9732.9625
528.30034	9742.7625
532.35792	9738.0625
536.41261	9652.1625
540.46441	9575.1625
544.51333	9556.8625
548.55936	9608.4625
552.60252	9740.4625
556.64279	9885.8625
560.6802	10000.0625
564.71473	10045.6625
568.7464	10116.6625
572.7752	10037.2625
576.80114	9859.8625
580.82422	9706.8625
584.84444	9679.0625
588.86181	9702.1625
592.87633	9782.0625
596.888	9942.6625
600.89682	10369.9625
604.9028	11413.8625
608.90594	13425.8625
612.90624	15247.3625
616.90371	14067.5625
620.89834	11462.6625
624.89015	10453.0625
628.87913	10367.3625
632.86528	10518.3625
636.84862	10578.1625
640.82913	10334.9625
644.80683	9983.8625
648.78172	9803.1625
652.75379	9830.5625
656.72306	10074.4625
660.68952	10373.3625
664.65319	10368.5625
668.61405	10294.1625
672.57211	10431.8625
676.52738	10417.7625
680.47986	10158.9625
684.42955	9929.1625
688.37646	9906.9625
692.32058	10005.4625
696.26192	10191.8625
700.20048	10393.5625
704.13626	10412.6625
708.06928	10283.3625
711.99952	10147.5625
715.927	10123.7625
719.85171	10192.3625
723.77365	10196.1625
727.69284	10086.6625
731.60928	10043.4625
735.52295	10039.2625
739.43388	10070.6625
743.34206	10119.0625
747.24749	10142.9625
751.15017	10122.9625
755.05012	10212.1625
758.94733	10520.9625
762.8418	11187.8625
766.73354	12191.8625
770.62254	13051.8625
774.50882	13331.1625
778.39237	13034.5625
782.27321	12374.8625
786.15132	11510.8625
790.02671	10864.1625
793.89938	10504.3625
797.76935	10348.3625
801.6366	10199.4625
805.50115	10155.8625
809.36299	10153.9625
813.22213	10127.0625
817.07857	10110.5625
820.93231	10094.4625
824.78336	10099.8625
828.63172	10139.0625
832.47738	10159.8625
836.32036	10131.8625
840.16066	10162.9625
843.99827	10128.8625
847.8332	10138.6625
851.66546	10144.6625
855.49504	10181.9625
859.32195	10176.2625
863.1462	10180.7625
866.96777	10139.0625
870.78668	10166.6625
874.60293	10196.2625
878.41652	10232.2625
882.22745	10342.0625
886.03573	10358.3625
889.84136	10363.9625
893.64433	10309.1625
897.44466	10279.8625
901.24235	10279.7625
905.0374	10259.8625
908.8298	10246.6625
912.61957	10209.0625
916.40671	10221.7625
920.19121	10250.6625
923.97308	10276.8625
927.75233	10387.0625
931.52895	10431.7625
935.30295	10398.1625
939.07433	10242.1625
942.84309	10194.5625
946.60924	10153.1625
950.37278	10136.2625
954.13371	10132.5625
957.89203	10089.4625
961.64774	10111.6625
965.40086	10100.7625
969.15137	10072.3625
972.89929	10094.7625
976.64461	10081.2625
980.38733	10093.3625
984.12747	10110.8625
987.86502	10171.1625
991.59999	10216.3625
995.33237	10330.4625
999.06217	10433.2625
1002.78939	10577.1625
1006.51404	10735.9625
1010.23611	10891.7625
1013.95561	10994.0625
1017.67255	11068.3625
1021.38692	11053.1625
1025.09872	11015.0625
1028.80796	10957.9625
1032.51465	10989.2625
1036.21877	11043.3625
1039.92035	11061.7625
1043.61937	11066.2625
1047.31584	11022.9625
1051.00976	10999.9625
1054.70114	11038.2625
1058.38998	11066.9625
1062.07627	11125.0625
1065.76003	11204.7625
1069.44126	11312.6625
1073.11995	11515.7625
1076.79611	11722.0625
1080.46974	11851.8625
1084.14085	11879.0625
1087.80943	11961.7625
1091.47549	12016.6625
1095.13903	12023.2625
1098.80005	12092.0625
1102.45857	12245.9625
1106.11456	12264.7625
1109.76805	12060.3625
1113.41903	11979.8625
1117.06751	12050.6625
1120.71348	12200.2625
1124.35696	12312.8625
1127.99793	12364.7625
1131.63641	12189.8625
1135.2724	11926.1625
1138.90589	11720.4625
1142.5369	11548.2625
1146.16542	11444.3625
1149.79145	11346.6625
1153.415	11267.7625
1157.03607	11271.9625
1160.65467	11377.1625
1164.27079	11565.4625
1167.88443	11862.9625
1171.49561	12365.3625
1175.10432	13017.4625
1178.71056	13917.1625
1182.31434	14692.4625
1185.91565	15113.0625
1189.51451	15210.1625
1193.11091	15112.5625
1196.70485	14849.2625
1200.29634	14494.3625
1203.88538	14038.8625
1207.47197	13553.2625
1211.05612	13061.9625
1214.63782	12633.5625
1218.21708	12324.0625
1221.79391	12194.9625
1225.36829	12149.6625
1228.94024	12145.9625
1232.50976	12134.2625
1236.07685	12167.3625
1239.6415	12203.1625
1243.20374	12256.9625
1246.76355	12346.0625
1250.32093	12421.3625
1253.8759	12602.2625
1257.42845	12897.3625
1260.97859	13221.1625
1264.52631	13530.7625
1268.07163	13747.1625
1271.61453	13915.1625
1275.15503	13951.3625
1278.69312	13983.2625
1282.22882	14023.0625
1285.76211	14114.8625
1289.29301	14266.6625
1292.82151	14482.5625
1296.34761	14727.3625
1299.87133	15122.0625
1303.39266	15797.9625
1306.9116	16763.7625
1310.42815	17782.4625
1313.94233	18208.2625
1317.45412	17861.7625
1320.96354	17145.4625
1324.47058	16401.5625
1327.97525	15715.4625
1331.47754	15336.8625
1334.97747	15269.2625
1338.47502	15507.0625
1341.97022	16038.5625
1345.46305	16845.3625
1348.95352	17894.9625
1352.44163	19029.2625
1355.92738	20092.5625
1359.41078	21152.0625
1362.89183	21654.1625
1366.37053	20504.6625
1369.84688	18109.4625
1373.32088	16020.7625
1376.79254	14792.5625
1380.26186	14176.0625
1383.72883	13796.6625
1387.19347	13439.8625
1390.65578	13106.5625
1394.11575	12766.8625
1397.57339	12509.7625
1401.0287	12394.8625
1404.48168	12425.8625
1407.93234	12568.9625
1411.38068	12841.7625
1414.82669	13023.7625
1418.27039	13083.8625
1421.71177	13077.4625
1425.15083	12993.6625
1428.58758	12904.6625
1432.02203	12911.2625
1435.45416	12971.9625
1438.88399	12890.0625
1442.31151	12853.5625
1445.73673	12815.9625
1449.15965	12818.3625
1452.58027	12750.5625
1455.9986	12700.5625
1459.41463	12704.5625
1462.82837	12818.4625
1466.23982	13033.5625
1469.64898	13216.5625
1473.05586	13410.4625
1476.46045	13563.4625
1479.86276	13739.3625
1483.26279	13895.4625
1486.66054	14126.3625
1490.05602	14476.9625
1493.44922	15064.8625
1496.84016	15875.1625
1500.22882	16977.1625
1503.61521	18238.4625
1506.99934	19336.8625
1510.38121	19837.9625
1513.76081	19455.6625
1517.13816	18222.8625
1520.51324	16703.6625
1523.88607	15497.8625
1527.25665	14759.3625
1530.62498	14343.8625
1533.99105	14220.5625
1537.35488	14092.6625
1540.71647	13996.0625
1544.07581	13908.0625
1547.4329	13785.0625
1550.78776	13617.2625
1554.14038	13484.7625
1557.49077	13439.8625
1560.83892	13574.7625
1564.18484	13777.7625
1567.52853	13999.5625
1570.86999	14123.4625
1574.20922	14165.7625
1577.54624	14033.4625
1580.88103	13584.1625
1584.2136	13103.8625
1587.54395	12852.5625
1590.87208	12987.1625
1594.19801	13411.1625
1597.52172	13924.7625
1600.84321	14193.6625
1604.16251	14150.1625
1607.47959	13923.9625
1610.79447	13477.0625
1614.10715	12910.4625
1617.41763	12295.0625
1620.7259	11871.1625
1624.03199	11628.5625
1627.33587	11567.6625
1630.63757	11693.9625
1633.93707	12055.2625
1637.23439	12733.2625
1640.52951	13725.9625
1643.82246	14972.7625
1647.11321	16085.4625
1650.40179	16373.6625
1653.68819	15494.0625
1656.97241	13890.4625
1660.25446	12437.8625
1663.53433	11492.3625
1666.81203	10860.9625
1670.08756	10535.5625
1673.36092	10312.5625
1676.63211	10173.3625
1679.90115	10057.7625
1683.16801	9966.3625
1686.43272	9861.5625
1689.69527	9813.0625
1692.95567	9779.0625
1696.2139	9725.6625
1699.46999	9712.2625
1702.72392	9691.0625
1705.97571	9678.3625
1709.22535	9687.4625
1712.47284	9699.8625
1715.71819	9689.1625
1718.96139	9674.3625
1722.20246	9649.7625
1725.44139	9632.8625
1728.67818	9586.4625
1731.91284	9545.3625
1735.14537	9487.1625
1738.37576	9468.5625
1741.60403	9433.0625
1744.83017	9391.3625
1748.05418	9382.6625
1751.27607	9384.6625
1754.49584	9337.5625
1757.71349	9339.9625
1760.92903	9310.0625
1764.14244	9301.3625
1767.35375	9274.4625
1770.56294	9272.7625
1773.77002	9262.6625
1776.97499	9240.4625
1780.17785	9187.5625
1783.37861	9184.8625
1786.57727	9186.2625
1789.77382	9154.0625
1792.96828	9152.2625
1796.16064	9114.7625
1799.3509	9131.8625
1802.53907	9100.3625
1805.72514	9099.1625
1808.90913	9039.2625
1812.09102	9050.5625
1815.27083	9025.6625
1818.44856	8995.0625
1821.6242	8968.1625
1824.79776	8971.8625
1827.96924	8962.3625
1831.13864	8938.2625
1834.30597	8913.4625
1837.47122	8887.3625
1840.6344	8877.5625
1843.7955	8867.8625
1846.95454	8870.6625
1850.11151	8874.4625
1853.26642	8859.7625
1856.41926	8857.9625
1859.57004	8871.0625
1862.71876	8855.0625
1865.86542	8859.1625
1869.01003	8825.2625
1872.15258	8815.4625
1875.29308	8793.2625
1878.43152	8807.9625
1881.56792	8805.5625
1884.70227	8768.7625
1887.83457	8755.1625
1890.96482	8710.1625
1894.09304	8708.0625
1897.21921	8700.7625
1900.34335	8692.3625
1903.46544	8665.4625
1906.58551	8671.3625
1909.70353	8670.2625
1912.81953	8666.8625
1915.93349	8656.1625
1919.04543	8611.3625
1922.15534	8591.2625
1925.26322	8613.4625
1928.36908	8570.8625
1931.47292	8564.8625
1934.57473	8548.2625
1937.67453	8520.6625
1940.77232	8507.8625
1943.86808	8469.4625
1946.96184	8441.4625
1950.05358	8418.8625
1953.14331	8414.0625
1956.23103	8386.0625
1959.31675	8355.0625
1962.40046	8318.0625
1965.48217	8282.1625
1968.56188	8264.6625
1971.63959	8233.0625
1974.7153	8222.6625
1977.78901	8212.8625
1980.86073	8204.9625
1983.93046	8153.9625
1986.99819	8125.7625
1990.06394	8097.6625
1993.1277	8079.2625
1996.18947	8041.5625
1999.24925	7994.6625
2002.30706	7987.0625
2005.36288	7936.5625
2008.41672	7914.7625
2011.46859	7910.8625
2014.51848	7889.5625
2017.56639	7868.4625
2020.61233	7833.5625
2023.6563	7830.6625
2026.6983	7768.4625
2029.73833	7757.4625
2032.7764	7740.1625
2035.8125	7733.8625
2038.84664	7718.5625
2041.87881	7691.8625
2044.90903	7678.1625
2047.93729	7651.9625
2050.96359	7674.5625
2053.98794	7631.7625
2057.01034	7634.8625
2060.03078	7619.8625
2063.04927	7597.6625
2066.06582	7590.3625
2069.08042	7591.8625
2072.09307	7585.0625
2075.10378	7553.9625
2078.11255	7552.2625
2081.11938	7554.8625
2084.12426	7531.0625
2087.12722	7556.3625
2090.12824	7548.0625
2093.12732	7551.1625
2096.12447	7531.7625
2099.11969	7549.3625
2102.11299	7528.1625
2105.10435	7532.1625
2108.09379	7534.8625
2111.08131	7526.0625
2114.0669	7540.9625
2117.05057	7553.1625
2120.03233	7556.2625
2123.01216	7573.4625
2125.99008	7546.7625
2128.96609	7560.8625
2131.94018	7573.4625
2134.91236	7570.8625
2137.88263	7563.8625
2140.851	7556.2625
2143.81746	7576.8625
2146.78201	7572.6625
2149.74466	7528.0625
2152.7054	7544.8625
2155.66425	7542.8625
2158.6212	7547.0625
2161.57625	7525.7625
2164.52941	7531.5625
2167.48067	7535.4625
2170.43004	7521.5625
2173.37752	7507.9625
2176.32311	7504.9625
2179.26681	7507.9625
2182.20863	7517.0625
2185.14856	7519.8625
2188.08661	7497.9625
2191.02278	7512.5625
2193.95707	7508.4625
2196.88948	7492.5625
2199.82001	7486.3625
2202.74867	7471.4625
2205.67545	7475.1625
2208.60037	7479.5625
2211.52341	7444.8625
2214.44458	7441.6625
2217.36388	7421.0625
2220.28132	7382.7625
2223.1969	7366.2625
2226.11061	7343.4625
2229.02246	7329.2625
2231.93245	7308.2625
2234.84058	7314.1625
2237.74686	7295.4625
2240.65128	7269.9625
2243.55385	7262.1625
2246.45456	7263.2625
2249.35343	7256.6625
2252.25044	7235.1625
2255.14561	7240.6625
2258.03893	7209.8625
2260.93041	7195.4625
2263.82004	7196.6625
2266.70783	7178.1625
2269.59378	7155.3625
2272.4779	7131.1625
2275.36017	7121.1625
2278.24061	7121.7625
2281.11922	7079.2625
2283.996	7076.9625
2286.87094	7042.9625
2289.74405	7057.3625
2292.61534	7035.6625
2295.4848	7001.0625
2298.35243	7009.9625
2301.21824	7026.0625
2304.08223	6988.6625
2306.94439	6981.1625
2309.80474	6991.1625
2312.66327	6979.5625
2315.51999	6965.7625
2318.37489	6965.6625
2321.22797	6963.2625
2324.07925	6946.6625
2326.92871	6922.6625
2329.77637	6911.4625
2332.62222	6904.6625
2335.46626	6887.4625
2338.3085	6862.5625
2341.14893	6863.5625
2343.98756	6852.4625
2346.8244	6875.9625
2349.65943	6847.6625
2352.49267	6844.5625
2355.32411	6833.3625
2358.15376	6836.3625
2360.98161	6831.5625
2363.80768	6840.1625
2366.63195	6827.5625
2369.45444	6821.8625
2372.27514	6833.9625
2375.09405	6784.3625
2377.91118	6780.6625
2380.72652	6769.6625
2383.54009	6744.0625
2386.35187	6724.7625
2389.16188	6717.9625
2391.97011	6687.4625
2394.77657	6673.7625
2397.58125	6657.0625
2400.38416	6663.0625
2403.18529	6669.6625
2405.98466	6635.9625
2408.78226	6638.6625
2411.57809	6589.5625
2414.37216	6604.8625
2417.16446	6601.2625
2419.955	6571.9625
2422.74378	6565.5625
2425.5308	6563.2625
2428.31606	6576.9625
2431.09956	6563.2625
2433.88131	6525.4625
2436.6613	6543.9625
2439.43954	6526.7625
2442.21603	6521.7625
2444.99077	6541.6625
2447.76377	6527.0625
2450.53501	6508.4625
2453.30451	6505.4625
2456.07226	6500.0625
2458.83827	6498.7625
2461.60254	6461.4625
2464.36507	6459.6625
2467.12586	6435.3625
2469.88492	6451.6625
2472.64224	6454.3625
2475.39782	6455.8625
2478.15167	6429.0625
2480.90379	6430.7625
2483.65417	6415.9625
2486.40283	6407.5625
2489.14976	6414.2625
2491.89497	6437.9625
2494.63845	6418.5625
2497.3802	6403.1625
2500.12024	6385.8625
2502.85855	6368.3625
2505.59514	6368.7625
2508.33002	6369.0625
2511.06318	6347.9625
2513.79462	6330.5625
2516.52435	6335.6625
2519.25237	6348.4625
2521.97867	6293.5625
2524.70327	6300.5625
2527.42616	6275.4625
2530.14734	6274.1625
2532.86681	6260.7625
2535.58458	6278.3625
2538.30065	6265.9625
2541.01501	6271.8625
2543.72768	6249.7625
2546.43864	6246.9625
2549.14791	6241.7625
2551.85548	6229.7625
2554.56136	6203.6625
2557.26554	6213.1625
2559.96803	6186.5625
2562.66883	6160.5625
2565.36794	6163.1625
2568.06536	6149.3625
2570.7611	6113.2625
2573.45514	6096.9625
2576.14751	6081.4625
2578.83819	6069.3625
2581.52719	6071.4625
2584.21451	6077.7625
2586.90015	6069.6625
2589.58411	6045.7625
2592.2664	6043.5625
2594.94701	6044.6625
2597.62594	6031.2625
2600.30321	5999.4625
2602.9788	6004.3625
2605.65273	5999.7625
2608.32498	5988.5625
2610.99557	5983.4625
2613.66449	5978.6625
2616.33175	5969.6625
2618.99734	5975.3625
2621.66128	5953.2625
2624.32355	5930.0625
2626.98416	5924.2625
2629.64311	5910.4625
2632.30041	5915.3625
2634.95605	5914.9625
2637.61004	5872.1625
2640.26238	5868.5625
2642.91306	5877.8625
2645.56209	5868.2625
2648.20948	5871.7625
2650.85521	5844.1625
2653.4993	5848.4625
2656.14175	5838.8625
2658.78255	5831.2625
2661.42171	5845.5625
2664.05923	5848.7625
2666.6951	5858.6625
2669.32934	5865.8625
2671.96194	5858.4625
2674.59291	5853.0625
2677.22224	5842.8625
2679.84993	5841.7625
2682.476	5863.0625
2685.10043	5842.5625
2687.72324	5847.7625
2690.34441	5842.5625
2692.96396	5828.3625
2695.58188	5843.7625
2698.19818	5817.5625
2700.81285	5822.5625
2703.4259	5806.8625
2706.03733	5792.1625
2708.64714	5791.4625
2711.25533	5794.1625
2713.86191	5779.0625
2716.46687	5804.2625
2719.07021	5806.7625
2721.67194	5805.9625
2724.27206	5783.1625
2726.87057	5805.1625
2729.46747	5788.2625
2732.06276	5783.7625
2734.65644	5783.1625
2737.24852	5773.5625
2739.83899	5761.6625
2742.42786	5751.0625
2745.01513	5726.1625
2747.60079	5724.3625
2750.18486	5698.0625
2752.76733	5716.3625
2755.3482	5711.7625
2757.92747	5701.3625
2760.50515	5680.7625
2763.08123	5686.9625
2765.65573	5669.3625
2768.22863	5653.8625
2770.79994	5657.8625
2773.36967	5631.8625
2775.9378	5626.9625
2778.50435	5623.1625
2781.06932	5622.8625
2783.6327	5634.4625
2786.1945	5638.4625
2788.75471	5609.8625
2791.31335	5588.0625
2793.87041	5591.3625
2796.42589	5554.5625
2798.97979	5552.7625
2801.53212	5539.1625
2804.08288	5543.4625
2806.63206	5503.6625
2809.17967	5486.9625
2811.72571	5479.7625
2814.27018	5489.5625
2816.81308	5474.2625
2819.35442	5470.7625
2821.89419	5456.4625
2824.43239	5428.2625
2826.96904	5434.1625
2829.50412	5436.6625
2832.03763	5396.2625
2834.56959	5395.4625
2837.1	5363.8625
2839.62884	5386.7625
2842.15613	5376.6625
2844.68186	5365.4625
2847.20604	5371.0625
2849.72867	5360.4625
2852.24974	5344.0625
2854.76927	5335.6625
2857.28724	5319.7625
2859.80367	5327.4625
2862.31855	5311.2625
2864.83189	5323.9625
2867.34368	5292.7625
2869.85393	5286.2625
2872.36264	5272.6625
2874.8698	5275.8625
2877.37543	5277.7625
2879.87952	5269.0625
2882.38207	5269.1625
2884.88308	5236.1625
2887.38256	5256.7625
2889.88051	5244.9625
2892.37692	5234.2625
2894.8718	5231.0625
2897.36515	5225.1625
2899.85698	5212.4625
2902.34727	5223.1625
2904.83604	5234.6625
2907.32328	5231.8625
2909.809	5229.1625
2912.29319	5249.6625
2914.77587	5239.5625
2917.25702	5243.0625
2919.73665	5233.8625
2922.21476	5253.3625
2924.69136	5228.3625
2927.16644	5205.7625
2929.64	5202.1625
2932.11205	5186.4625
2934.58258	5177.2625
2937.05161	5173.3625
2939.51912	5200.7625
2941.98513	5178.9625
2944.44962	5169.4625
2946.91261	5134.8625
2949.37409	5152.3625
2951.83407	5141.2625
2954.29254	5143.0625
2956.74951	5123.9625
2959.20498	5131.4625
2961.65895	5130.0625
2964.11142	5108.7625
2966.56239	5106.7625
2969.01186	5131.7625
2971.45984	5116.6625
2973.90632	5096.8625
2976.35131	5092.8625
2978.7948	5071.3625
2981.23681	5086.8625
2983.67732	5066.6625
2986.11635	5061.6625
2988.55388	5044.0625
2990.98993	5017.2625
2993.4245	5037.8625
2995.85758	4997.2625
2998.28917	4991.1625
3000.71928	4983.1625
3003.14791	4961.5625
3005.57506	4956.1625
3008.00073	4931.9625
3010.42493	4926.4625
3012.84764	4914.6625
3015.26888	4917.8625
3017.68865	4908.7625
3020.10694	4900.1625
3022.52376	4886.9625
3024.9391	4859.9625
3027.35298	4832.1625
3029.76539	4817.0625
3032.17632	4828.1625
3034.5858	4816.1625
3036.9938	4819.2625
3039.40034	4779.2625
3041.80542	4778.0625
3044.20903	4766.4625
3046.61118	4760.0625
3049.01187	4746.0625
3051.4111	4748.3625
3053.80888	4728.2625
3056.20519	4715.5625
3058.60005	4712.0625
3060.99345	4696.1625
3063.3854	4688.8625
3065.7759	4665.7625
3068.16494	4645.0625
3070.55254	4643.2625
3072.93868	4629.7625
3075.32338	4609.9625
3077.70662	4601.7625
3080.08842	4590.9625
3082.46878	4577.3625
3084.84769	4575.1625
3087.22515	4572.1625
3089.60118	4570.4625
3091.97576	4546.9625
3094.3489	4566.0625
3096.72061	4542.2625
3099.09087	4531.0625
3101.4597	4537.3625
3103.82709	4532.0625
3106.19305	4537.0625
3108.55757	4521.8625
3110.92066	4504.9625
3113.28232	4501.8625
3115.64255	4494.1625
3118.00134	4470.5625
3120.35871	4468.5625
3122.71466	4458.7625
3125.06917	4451.8625
3127.42226	4441.5625
3129.77393	4427.8625
3132.12417	4425.4625
3134.47299	4414.2625
3136.82039	4409.8625
3139.16636	4409.0625
3141.51092	4405.6625
3143.85406	4397.6625
3146.19579	4386.3625
3148.53609	4381.4625
3150.87499	4387.8625
3153.21246	4388.6625
3155.54853	4402.5625
3157.88318	4392.9625
3160.21642	4361.6625
3162.54826	4365.0625
3164.87868	4365.6625
3167.2077	4347.4625
3169.5353	4350.9625
3171.86151	4345.3625
3174.18631	4324.4625
3176.5097	4328.9625
3178.83169	4302.2625
3181.15228	4311.8625
3183.47147	4278.7625
3185.78926	4289.9625
3188.10565	4259.6625
3190.42065	4262.7625
3192.73424	4244.0625
3195.04645	4244.1625
3197.35725	4246.7625
3199.66667	4246.3625
3201.97469	4235.6625
3204.28132	4222.4625
3206.58656	4248.7625
3208.8904	4234.5625
3211.19287	4234.6625
3213.49394	4227.2625
3215.79363	4230.5625
3218.09193	4225.5625
3220.38884	4232.8625
3222.68438	4225.4625
3224.97853	4225.0625
3227.2713	4207.1625
3229.56269	4201.0625
3231.8527	4199.5625
3234.14133	4170.4625
3236.42858	4166.3625
3238.71446	4151.8625
3240.99896	4154.7625
3243.28209	4157.0625
3245.56384	4131.4625
3247.84423	4121.0625
3250.12324	4104.2625
3252.40088	4092.1625
3254.67715	4099.9625
3256.95205	4096.1625
3259.22558	4089.9625
3261.49775	4083.3625
3263.76855	4101.6625
3266.03799	4097.3625
3268.30606	4093.0625
3270.57277	4090.7625
3272.83812	4063.0625
3275.10211	4053.4625
3277.36474	4051.2625
3279.62601	4040.7625
3281.88593	4032.8625
3284.14448	4017.6625
3286.40168	4026.2625
3288.65753	4029.3625
3290.91202	4008.0625
3293.16516	4007.3625
3295.41695	3990.3625
3297.66738	3975.6625
3299.91647	3962.5625
3302.16421	3952.2625
3304.4106	3911.4625
3306.65564	3891.2625
3308.89933	3853.6625
3311.14169	3828.8625
3313.38269	3785.6625
3315.62236	3756.4625
3317.86068	3736.9625
3320.09766	3712.0625
3322.3333	3684.1625
3324.5676	3652.4625
3326.80056	3598.7625
3329.03219	3579.4625
3331.26248	1.0625
3333.49143	-0.6375
3335.71905	1.0625
