Data from AgNPs_UA_5uM_CRN_500uM_SU_RamanShift__182__11-59-43-176.txt Node

Date: Thu Aug 04 11:59:43 BST 2022
User: TCL
Spectrometer: QEP01345
Trigger mode: 4
Integration Time (sec): 1.000000E0
Scans to average: 10
Electric dark correction enabled: true
Nonlinearity correction enabled: false
Boxcar width: 0
XAxis mode: Raman Shifts
Number of Pixels in Spectrum: 1044
>>>>>Begin Spectral Data<<<<<
46.04893	-0.9125
50.45542	-0.0125
54.85868	0.2875
59.25871	-0.7125
63.6555	-57.4125
68.04907	-38.0125
72.43941	-71.8125
76.82654	-54.4125
81.21044	-56.2125
85.59113	-49.9125
89.96862	-75.3125
94.34289	-55.2125
98.71396	-77.3125
103.08183	-56.7125
107.4465	-49.5125
111.80798	-56.0125
116.16626	-43.7125
120.52136	-73.4125
124.87327	-51.7125
129.222	-61.7125
133.56755	-51.1125
137.90993	-63.2125
142.24913	-49.9125
146.58517	-42.5125
150.91804	-40.1125
155.24774	-30.3125
159.57429	-8.4125
163.89768	-7.0125
168.21792	37.9875
172.53501	57.1875
176.84895	141.8875
181.15975	271.3875
185.46741	421.2875
189.77193	600.4875
194.07331	899.5875
198.37157	1179.0875
202.6667	1468.6875
206.9587	1787.1875
211.24758	2108.0875
215.53334	2420.6875
219.81599	2789.3875
224.09553	3182.0875
228.37195	3624.6875
232.64527	4089.3875
236.91549	4559.9875
241.18261	4915.4875
245.44663	5178.9875
249.70755	5356.7875
253.96539	5501.3875
258.22014	5601.0875
262.4718	5661.3875
266.72039	5709.0875
270.96589	5677.0875
275.20832	5579.0875
279.44768	5482.2875
283.68397	5348.7875
287.91719	5315.7875
292.14735	5342.2875
296.37445	5489.4875
300.59849	5795.5875
304.81948	6136.2875
309.03742	6493.8875
313.25231	6749.8875
317.46415	6703.1875
321.67296	6282.5875
325.87872	5901.2875
330.08145	5676.6875
334.28114	5649.1875
338.47781	5720.4875
342.67145	5862.6875
346.86207	6088.0875
351.04966	6468.6875
355.23424	6849.4875
359.4158	7134.4875
363.59435	7169.3875
367.76989	7086.1875
371.94243	6983.5875
376.11196	6836.1875
380.27849	6776.7875
384.44203	6704.3875
388.60257	6668.3875
392.76012	6671.0875
396.91468	6786.7875
401.06626	6938.2875
405.21485	6983.7875
409.36047	6825.7875
413.50311	6506.3875
417.64277	6213.5875
421.77947	5998.1875
425.9132	5937.8875
430.04396	5927.5875
434.17176	5989.2875
438.2966	6057.9875
442.41849	6159.2875
446.53742	6249.7875
450.6534	6360.6875
454.76644	6423.0875
458.87653	6445.6875
462.98368	6401.9875
467.08789	6345.7875
471.18916	6266.6875
475.2875	6153.2875
479.38291	6063.4875
483.4754	5968.7875
487.56496	5902.5875
491.6516	5854.1875
495.73531	5881.1875
499.81612	5895.3875
503.89401	5986.9875
507.96899	6035.5875
512.04106	6151.3875
516.11023	6241.8875
520.1765	6308.4875
524.23987	6359.8875
528.30034	6333.5875
532.35792	6267.3875
536.41261	6214.5875
540.46441	6139.4875
544.51333	6062.2875
548.55936	6109.4875
552.60252	6240.3875
556.64279	6349.3875
560.6802	6472.3875
564.71473	6600.5875
568.7464	6790.1875
572.7752	6767.9875
576.80114	6452.6875
580.82422	6203.2875
584.84444	6104.4875
588.86181	6090.6875
592.87633	6103.0875
596.888	6268.5875
600.89682	6619.2875
604.9028	7585.8875
608.90594	9668.9875
612.90624	12009.0875
616.90371	11156.9875
620.89834	8067.6875
624.89015	6753.0875
628.87913	6559.3875
632.86528	6707.3875
636.84862	6884.2875
640.82913	6740.5875
644.80683	6402.9875
648.78172	6220.8875
652.75379	6230.7875
656.72306	6490.4875
660.68952	6729.7875
664.65319	6642.1875
668.61405	6395.0875
672.57211	6356.5875
676.52738	6340.7875
680.47986	6243.5875
684.42955	6157.4875
688.37646	6096.0875
692.32058	6100.1875
696.26192	6172.8875
700.20048	6276.7875
704.13626	6299.9875
708.06928	6263.7875
711.99952	6240.4875
715.927	6217.2875
719.85171	6259.0875
723.77365	6300.9875
727.69284	6282.5875
731.60928	6271.3875
735.52295	6243.0875
739.43388	6265.3875
743.34206	6281.9875
747.24749	6294.4875
751.15017	6320.2875
755.05012	6406.8875
758.94733	6788.7875
762.8418	7615.9875
766.73354	8932.3875
770.62254	9932.1875
774.50882	9973.6875
778.39237	9488.4875
782.27321	8571.6875
786.15132	7547.4875
790.02671	6875.2875
793.89938	6480.9875
797.76935	6358.8875
801.6366	6278.3875
805.50115	6245.7875
809.36299	6245.8875
813.22213	6225.5875
817.07857	6221.5875
820.93231	6241.9875
824.78336	6244.4875
828.63172	6268.6875
832.47738	6272.5875
836.32036	6262.4875
840.16066	6251.1875
843.99827	6234.2875
847.8332	6228.4875
851.66546	6232.7875
855.49504	6254.5875
859.32195	6286.8875
863.1462	6247.4875
866.96777	6265.7875
870.78668	6246.0875
874.60293	6276.4875
878.41652	6289.7875
882.22745	6366.0875
886.03573	6403.9875
889.84136	6398.1875
893.64433	6405.2875
897.44466	6400.5875
901.24235	6389.7875
905.0374	6383.8875
908.8298	6300.1875
912.61957	6290.6875
916.40671	6245.3875
920.19121	6284.8875
923.97308	6383.0875
927.75233	6432.9875
931.52895	6508.2875
935.30295	6468.3875
939.07433	6323.0875
942.84309	6201.5875
946.60924	6194.2875
950.37278	6141.5875
954.13371	6149.4875
957.89203	6143.8875
961.64774	6156.7875
965.40086	6141.2875
969.15137	6115.4875
972.89929	6161.6875
976.64461	6137.9875
980.38733	6157.1875
984.12747	6158.5875
987.86502	6181.3875
991.59999	6208.4875
995.33237	6262.8875
999.06217	6345.9875
1002.78939	6412.7875
1006.51404	6548.4875
1010.23611	6681.1875
1013.95561	6717.6875
1017.67255	6725.2875
1021.38692	6704.2875
1025.09872	6637.3875
1028.80796	6542.4875
1032.51465	6534.9875
1036.21877	6539.1875
1039.92035	6572.6875
1043.61937	6615.4875
1047.31584	6668.6875
1051.00976	6717.7875
1054.70114	6704.3875
1058.38998	6675.0875
1062.07627	6716.7875
1065.76003	6746.3875
1069.44126	6818.7875
1073.11995	6902.5875
1076.79611	7038.4875
1080.46974	7172.5875
1084.14085	7342.8875
1087.80943	7453.1875
1091.47549	7504.0875
1095.13903	7429.3875
1098.80005	7300.2875
1102.45857	7198.8875
1106.11456	7162.6875
1109.76805	7087.4875
1113.41903	7220.9875
1117.06751	7389.7875
1120.71348	7650.8875
1124.35696	8018.6875
1127.99793	8317.6875
1131.63641	8148.1875
1135.2724	7738.1875
1138.90589	7454.2875
1142.5369	7256.2875
1146.16542	7133.2875
1149.79145	7051.4875
1153.415	7006.5875
1157.03607	7001.3875
1160.65467	7075.2875
1164.27079	7266.2875
1167.88443	7526.3875
1171.49561	7950.6875
1175.10432	8535.2875
1178.71056	9424.3875
1182.31434	10205.5875
1185.91565	10467.1875
1189.51451	10316.1875
1193.11091	10044.3875
1196.70485	9811.7875
1200.29634	9597.3875
1203.88538	9329.9875
1207.47197	8883.8875
1211.05612	8441.1875
1214.63782	8044.2875
1218.21708	7804.4875
1221.79391	7642.2875
1225.36829	7562.1875
1228.94024	7579.8875
1232.50976	7561.2875
1236.07685	7578.9875
1239.6415	7629.2875
1243.20374	7629.6875
1246.76355	7701.0875
1250.32093	7737.6875
1253.8759	7834.9875
1257.42845	8008.2875
1260.97859	8195.1875
1264.52631	8451.8875
1268.07163	8588.6875
1271.61453	8731.0875
1275.15503	8756.9875
1278.69312	8758.0875
1282.22882	8830.0875
1285.76211	9028.2875
1289.29301	9279.0875
1292.82151	9545.9875
1296.34761	9769.5875
1299.87133	10159.0875
1303.39266	10863.5875
1306.9116	11983.8875
1310.42815	13220.7875
1313.94233	13639.3875
1317.45412	12846.5875
1320.96354	11709.8875
1324.47058	10734.0875
1327.97525	9992.9875
1331.47754	9579.9875
1334.97747	9484.3875
1338.47502	9588.0875
1341.97022	9960.1875
1345.46305	10654.5875
1348.95352	11753.8875
1352.44163	12996.9875
1355.92738	14303.2875
1359.41078	15939.5875
1362.89183	17450.4875
1366.37053	16808.9875
1369.84688	13966.1875
1373.32088	11360.4875
1376.79254	9980.4875
1380.26186	9339.4875
1383.72883	8956.0875
1387.19347	8542.6875
1390.65578	8186.7875
1394.11575	7966.3875
1397.57339	7795.6875
1401.0287	7691.2875
1404.48168	7650.9875
1407.93234	7655.4875
1411.38068	7693.4875
1414.82669	7749.1875
1418.27039	7886.6875
1421.71177	7857.6875
1425.15083	7729.1875
1428.58758	7678.2875
1432.02203	7704.7875
1435.45416	7784.9875
1438.88399	7777.1875
1442.31151	7764.4875
1445.73673	7847.9875
1449.15965	7889.5875
1452.58027	7907.6875
1455.9986	7908.9875
1459.41463	7923.5875
1462.82837	8011.5875
1466.23982	8194.0875
1469.64898	8393.5875
1473.05586	8540.6875
1476.46045	8642.9875
1479.86276	8723.4875
1483.26279	8779.6875
1486.66054	8973.3875
1490.05602	9257.3875
1493.44922	9789.9875
1496.84016	10659.8875
1500.22882	11990.8875
1503.61521	13699.1875
1506.99934	15457.7875
1510.38121	16644.1875
1513.76081	16526.0875
1517.13816	14991.0875
1520.51324	12885.3875
1523.88607	11204.7875
1527.25665	10213.8875
1530.62498	9685.7875
1533.99105	9492.9875
1537.35488	9362.4875
1540.71647	9270.1875
1544.07581	9153.6875
1547.4329	9039.5875
1550.78776	8924.4875
1554.14038	8854.1875
1557.49077	8804.8875
1560.83892	8917.4875
1564.18484	9129.9875
1567.52853	9485.4875
1570.86999	9785.5875
1574.20922	9916.0875
1577.54624	9806.9875
1580.88103	9277.0875
1584.2136	8642.6875
1587.54395	8260.3875
1590.87208	8187.4875
1594.19801	8358.1875
1597.52172	8721.3875
1600.84321	8870.4875
1604.16251	8746.8875
1607.47959	8534.2875
1610.79447	8342.8875
1614.10715	8061.9875
1617.41763	7776.7875
1620.7259	7497.9875
1624.03199	7354.5875
1627.33587	7267.0875
1630.63757	7332.5875
1633.93707	7552.2875
1637.23439	7996.2875
1640.52951	8653.2875
1643.82246	9622.7875
1647.11321	10779.2875
1650.40179	11502.2875
1653.68819	11157.8875
1656.97241	9907.2875
1660.25446	8546.0875
1663.53433	7543.3875
1666.81203	6945.2875
1670.08756	6622.3875
1673.36092	6435.3875
1676.63211	6295.1875
1679.90115	6212.0875
1683.16801	6130.9875
1686.43272	6054.5875
1689.69527	5988.8875
1692.95567	5947.6875
1696.2139	5929.8875
1699.46999	5874.4875
1702.72392	5879.9875
1705.97571	5863.1875
1709.22535	5851.0875
1712.47284	5900.2875
1715.71819	5885.1875
1718.96139	5893.7875
1722.20246	5883.4875
1725.44139	5852.6875
1728.67818	5822.1875
1731.91284	5771.0875
1735.14537	5739.4875
1738.37576	5725.1875
1741.60403	5688.3875
1744.83017	5657.5875
1748.05418	5690.1875
1751.27607	5647.4875
1754.49584	5628.0875
1757.71349	5598.2875
1760.92903	5612.4875
1764.14244	5572.4875
1767.35375	5570.5875
1770.56294	5570.2875
1773.77002	5531.6875
1776.97499	5537.7875
1780.17785	5524.3875
1783.37861	5515.2875
1786.57727	5524.8875
1789.77382	5466.7875
1792.96828	5488.1875
1796.16064	5496.7875
1799.3509	5489.0875
1802.53907	5484.6875
1805.72514	5446.0875
1808.90913	5434.8875
1812.09102	5415.2875
1815.27083	5429.3875
1818.44856	5388.9875
1821.6242	5393.3875
1824.79776	5361.7875
1827.96924	5374.1875
1831.13864	5346.6875
1834.30597	5354.9875
1837.47122	5329.4875
1840.6344	5324.5875
1843.7955	5296.9875
1846.95454	5288.0875
1850.11151	5313.6875
1853.26642	5262.3875
1856.41926	5274.0875
1859.57004	5287.9875
1862.71876	5277.5875
1865.86542	5270.5875
1869.01003	5272.3875
1872.15258	5242.0875
1875.29308	5277.3875
1878.43152	5255.9875
1881.56792	5238.2875
1884.70227	5214.9875
1887.83457	5213.5875
1890.96482	5194.9875
1894.09304	5199.5875
1897.21921	5200.9875
1900.34335	5196.0875
1903.46544	5168.4875
1906.58551	5185.4875
1909.70353	5185.0875
1912.81953	5166.0875
1915.93349	5172.1875
1919.04543	5147.9875
1922.15534	5126.9875
1925.26322	5135.3875
1928.36908	5098.9875
1931.47292	5117.1875
1934.57473	5109.0875
1937.67453	5078.2875
1940.77232	5061.3875
1943.86808	5040.9875
1946.96184	5061.5875
1950.05358	5025.5875
1953.14331	5006.3875
1956.23103	5015.4875
1959.31675	4971.1875
1962.40046	4921.6875
1965.48217	4953.5875
1968.56188	4940.4875
1971.63959	4911.3875
1974.7153	4920.6875
1977.78901	4910.1875
1980.86073	4887.1875
1983.93046	4849.3875
1986.99819	4773.8875
1990.06394	4799.1875
1993.1277	4815.6875
1996.18947	4793.6875
1999.24925	4748.8875
2002.30706	4757.5875
2005.36288	4757.8875
2008.41672	4730.0875
2011.46859	4693.6875
2014.51848	4678.7875
2017.56639	4655.3875
2020.61233	4649.3875
2023.6563	4645.4875
2026.6983	4600.5875
2029.73833	4614.1875
2032.7764	4630.4875
2035.8125	4573.0875
2038.84664	4575.6875
2041.87881	4572.8875
2044.90903	4561.8875
2047.93729	4561.0875
2050.96359	4533.4875
2053.98794	4536.7875
2057.01034	4546.0875
2060.03078	4532.9875
2063.04927	4508.9875
2066.06582	4516.2875
2069.08042	4508.7875
2072.09307	4500.1875
2075.10378	4498.7875
2078.11255	4501.0875
2081.11938	4488.4875
2084.12426	4474.8875
2087.12722	4487.2875
2090.12824	4473.6875
2093.12732	4486.4875
2096.12447	4494.0875
2099.11969	4477.2875
2102.11299	4476.7875
2105.10435	4481.3875
2108.09379	4482.3875
2111.08131	4478.7875
2114.0669	4475.8875
2117.05057	4485.3875
2120.03233	4477.6875
2123.01216	4484.1875
2125.99008	4494.5875
2128.96609	4497.8875
2131.94018	4516.1875
2134.91236	4492.1875
2137.88263	4483.7875
2140.851	4486.3875
2143.81746	4508.3875
2146.78201	4504.9875
2149.74466	4478.0875
2152.7054	4498.1875
2155.66425	4478.6875
2158.6212	4485.5875
2161.57625	4444.8875
2164.52941	4422.5875
2167.48067	4452.6875
2170.43004	4445.7875
2173.37752	4464.7875
2176.32311	4452.8875
2179.26681	4439.2875
2182.20863	4463.6875
2185.14856	4465.5875
2188.08661	4448.2875
2191.02278	4469.5875
2193.95707	4436.6875
2196.88948	4424.0875
2199.82001	4435.3875
2202.74867	4401.7875
2205.67545	4400.5875
2208.60037	4420.3875
2211.52341	4408.1875
2214.44458	4406.9875
2217.36388	4381.7875
2220.28132	4366.8875
2223.1969	4344.5875
2226.11061	4340.2875
2229.02246	4331.1875
2231.93245	4342.7875
2234.84058	4329.5875
2237.74686	4311.7875
2240.65128	4292.7875
2243.55385	4302.6875
2246.45456	4281.8875
2249.35343	4290.8875
2252.25044	4256.6875
2255.14561	4290.3875
2258.03893	4274.6875
2260.93041	4260.5875
2263.82004	4255.0875
2266.70783	4245.9875
2269.59378	4231.3875
2272.4779	4205.7875
2275.36017	4203.3875
2278.24061	4206.7875
2281.11922	4161.6875
2283.996	4182.2875
2286.87094	4171.4875
2289.74405	4167.9875
2292.61534	4173.6875
2295.4848	4149.8875
2298.35243	4154.8875
2301.21824	4118.2875
2304.08223	4145.4875
2306.94439	4133.9875
2309.80474	4143.7875
2312.66327	4122.7875
2315.51999	4106.9875
2318.37489	4114.4875
2321.22797	4084.5875
2324.07925	4086.9875
2326.92871	4091.9875
2329.77637	4060.0875
2332.62222	4060.6875
2335.46626	4036.2875
2338.3085	4022.4875
2341.14893	4051.8875
2343.98756	4053.2875
2346.8244	4021.1875
2349.65943	4014.2875
2352.49267	4025.9875
2355.32411	4028.9875
2358.15376	4025.7875
2360.98161	4036.8875
2363.80768	4016.2875
2366.63195	3997.2875
2369.45444	4033.9875
2372.27514	4003.2875
2375.09405	4035.1875
2377.91118	3972.2875
2380.72652	3990.3875
2383.54009	3984.1875
2386.35187	3987.2875
2389.16188	3960.0875
2391.97011	3947.9875
2394.77657	3928.5875
2397.58125	3941.3875
2400.38416	3924.1875
2403.18529	3908.0875
2405.98466	3897.9875
2408.78226	3905.5875
2411.57809	3883.9875
2414.37216	3877.0875
2417.16446	3862.5875
2419.955	3850.0875
2422.74378	3864.9875
2425.5308	3858.9875
2428.31606	3846.0875
2431.09956	3855.0875
2433.88131	3825.4875
2436.6613	3842.6875
2439.43954	3830.0875
2442.21603	3824.7875
2444.99077	3822.8875
2447.76377	3831.2875
2450.53501	3811.4875
2453.30451	3798.8875
2456.07226	3811.5875
2458.83827	3804.4875
2461.60254	3748.1875
2464.36507	3798.0875
2467.12586	3784.5875
2469.88492	3784.3875
2472.64224	3778.3875
2475.39782	3765.1875
2478.15167	3775.7875
2480.90379	3760.7875
2483.65417	3778.7875
2486.40283	3784.1875
2489.14976	3802.2875
2491.89497	3772.9875
2494.63845	3771.2875
2497.3802	3746.2875
2500.12024	3767.9875
2502.85855	3752.8875
2505.59514	3754.9875
2508.33002	3745.1875
2511.06318	3710.5875
2513.79462	3711.9875
2516.52435	3671.4875
2519.25237	3672.2875
2521.97867	3657.1875
2524.70327	3666.3875
2527.42616	3655.2875
2530.14734	3671.6875
2532.86681	3640.2875
2535.58458	3656.9875
2538.30065	3627.8875
2541.01501	3658.7875
2543.72768	3641.1875
2546.43864	3643.5875
2549.14791	3622.1875
2551.85548	3612.8875
2554.56136	3615.5875
2557.26554	3608.8875
2559.96803	3617.6875
2562.66883	3605.2875
2565.36794	3580.2875
2568.06536	3551.3875
2570.7611	3572.8875
2573.45514	3561.5875
2576.14751	3554.1875
2578.83819	3530.7875
2581.52719	3515.6875
2584.21451	3524.8875
2586.90015	3494.1875
2589.58411	3483.1875
2592.2664	3485.4875
2594.94701	3499.4875
2597.62594	3495.7875
2600.30321	3412.6875
2602.9788	3441.2875
2605.65273	3433.3875
2608.32498	3442.3875
2610.99557	3454.9875
2613.66449	3429.1875
2616.33175	3446.0875
2618.99734	3450.9875
2621.66128	3449.5875
2624.32355	3412.7875
2626.98416	3417.6875
2629.64311	3398.3875
2632.30041	3391.8875
2634.95605	3395.8875
2637.61004	3380.6875
2640.26238	3366.6875
2642.91306	3356.9875
2645.56209	3384.3875
2648.20948	3367.4875
2650.85521	3349.2875
2653.4993	3361.6875
2656.14175	3360.9875
2658.78255	3343.6875
2661.42171	3321.8875
2664.05923	3365.4875
2666.6951	3363.1875
2669.32934	3368.3875
2671.96194	3369.0875
2674.59291	3352.7875
2677.22224	3368.4875
2679.84993	3358.0875
2682.476	3347.5875
2685.10043	3348.5875
2687.72324	3331.0875
2690.34441	3336.2875
2692.96396	3324.0875
2695.58188	3350.5875
2698.19818	3345.5875
2700.81285	3326.6875
2703.4259	3324.4875
2706.03733	3295.3875
2708.64714	3307.2875
2711.25533	3315.8875
2713.86191	3325.9875
2716.46687	3307.3875
2719.07021	3309.0875
2721.67194	3312.1875
2724.27206	3335.5875
2726.87057	3316.1875
2729.46747	3307.0875
2732.06276	3308.5875
2734.65644	3284.9875
2737.24852	3284.9875
2739.83899	3270.2875
2742.42786	3282.5875
2745.01513	3285.2875
2747.60079	3256.9875
2750.18486	3257.0875
2752.76733	3262.1875
2755.3482	3244.7875
2757.92747	3246.6875
2760.50515	3235.6875
2763.08123	3224.8875
2765.65573	3228.7875
2768.22863	3220.2875
2770.79994	3209.7875
2773.36967	3195.1875
2775.9378	3194.3875
2778.50435	3191.0875
2781.06932	3198.3875
2783.6327	3177.6875
2786.1945	3193.4875
2788.75471	3184.4875
2791.31335	3172.7875
2793.87041	3173.1875
2796.42589	3147.0875
2798.97979	3133.0875
2801.53212	3141.0875
2804.08288	3156.0875
2806.63206	3149.1875
2809.17967	3112.9875
2811.72571	3123.8875
2814.27018	3123.4875
2816.81308	3107.7875
2819.35442	3055.9875
2821.89419	3095.6875
2824.43239	3081.2875
2826.96904	3112.0875
2829.50412	3077.4875
2832.03763	3087.6875
2834.56959	3086.9875
2837.1	3062.5875
2839.62884	3064.2875
2842.15613	3061.4875
2844.68186	3069.7875
2847.20604	3041.3875
2849.72867	3040.2875
2852.24974	3028.9875
2854.76927	3010.3875
2857.28724	2974.9875
2859.80367	3042.4875
2862.31855	3038.6875
2864.83189	3030.6875
2867.34368	3025.5875
2869.85393	3032.1875
2872.36264	3003.7875
2874.8698	3012.3875
2877.37543	3016.4875
2879.87952	3008.9875
2882.38207	2983.2875
2884.88308	2991.0875
2887.38256	2991.7875
2889.88051	2988.7875
2892.37692	2974.9875
2894.8718	2967.2875
2897.36515	2982.1875
2899.85698	2976.1875
2902.34727	2969.4875
2904.83604	2975.6875
2907.32328	2989.9875
2909.809	2986.4875
2912.29319	2991.4875
2914.77587	2985.3875
2917.25702	3011.3875
2919.73665	3003.6875
2922.21476	2997.1875
2924.69136	3005.3875
2927.16644	2980.2875
2929.64	2994.2875
2932.11205	2983.6875
2934.58258	2971.9875
2937.05161	2967.5875
2939.51912	2964.5875
2941.98513	2983.2875
2944.44962	2950.7875
2946.91261	2923.9875
2949.37409	2935.0875
2951.83407	2921.8875
2954.29254	2921.3875
2956.74951	2924.5875
2959.20498	2907.9875
2961.65895	2918.4875
2964.11142	2891.4875
2966.56239	2894.8875
2969.01186	2901.5875
2971.45984	2900.3875
2973.90632	2890.2875
2976.35131	2899.3875
2978.7948	2896.4875
2981.23681	2868.3875
2983.67732	2874.8875
2986.11635	2868.2875
2988.55388	2837.8875
2990.98993	2858.2875
2993.4245	2838.3875
2995.85758	2823.0875
2998.28917	2820.3875
3000.71928	2809.9875
3003.14791	2808.8875
3005.57506	2787.3875
3008.00073	2778.7875
3010.42493	2708.4875
3012.84764	2783.5875
3015.26888	2777.6875
3017.68865	2766.5875
3020.10694	2725.4875
3022.52376	2730.0875
3024.9391	2731.6875
3027.35298	2717.5875
3029.76539	2704.4875
3032.17632	2727.3875
3034.5858	2702.0875
3036.9938	2705.3875
3039.40034	2702.7875
3041.80542	2685.1875
3044.20903	2677.2875
3046.61118	2669.2875
3049.01187	2668.9875
3051.4111	2654.7875
3053.80888	2652.5875
3056.20519	2648.9875
3058.60005	2624.7875
3060.99345	2641.7875
3063.3854	2618.9875
3065.7759	2622.8875
3068.16494	2601.0875
3070.55254	2597.0875
3072.93868	2610.0875
3075.32338	2595.0875
3077.70662	2583.5875
3080.08842	2571.0875
3082.46878	2553.7875
3084.84769	2578.0875
3087.22515	2564.1875
3089.60118	2567.7875
3091.97576	2564.7875
3094.3489	2558.4875
3096.72061	2552.6875
3099.09087	2532.3875
3101.4597	2547.4875
3103.82709	2542.8875
3106.19305	2521.6875
3108.55757	2526.3875
3110.92066	2526.8875
3113.28232	2531.0875
3115.64255	2517.3875
3118.00134	2516.9875
3120.35871	2490.2875
3122.71466	2496.6875
3125.06917	2495.9875
3127.42226	2480.3875
3129.77393	2464.6875
3132.12417	2480.6875
3134.47299	2480.5875
3136.82039	2446.7875
3139.16636	2430.7875
3141.51092	2461.6875
3143.85406	2456.6875
3146.19579	2439.9875
3148.53609	2450.4875
3150.87499	2441.2875
3153.21246	2442.6875
3155.54853	2443.8875
3157.88318	2444.1875
3160.21642	2448.5875
3162.54826	2444.3875
3164.87868	2435.7875
3167.2077	2408.4875
3169.5353	2420.8875
3171.86151	2425.5875
3174.18631	2415.0875
3176.5097	2417.1875
3178.83169	2414.6875
3181.15228	2423.9875
3183.47147	2380.7875
3185.78926	2362.6875
3188.10565	2385.6875
3190.42065	2354.9875
3192.73424	2372.4875
3195.04645	2356.4875
3197.35725	2346.7875
3199.66667	2354.1875
3201.97469	2344.5875
3204.28132	2333.2875
3206.58656	2350.8875
3208.8904	2362.0875
3211.19287	2350.7875
3213.49394	2347.5875
3215.79363	2337.1875
3218.09193	2354.3875
3220.38884	2339.4875
3222.68438	2337.7875
3224.97853	2319.9875
3227.2713	2344.6875
3229.56269	2320.4875
3231.8527	2319.2875
3234.14133	2311.5875
3236.42858	2303.5875
3238.71446	2273.1875
3240.99896	2297.4875
3243.28209	2277.1875
3245.56384	2289.0875
3247.84423	2270.1875
3250.12324	2276.5875
3252.40088	2280.1875
3254.67715	2266.1875
3256.95205	2258.1875
3259.22558	2262.8875
3261.49775	2264.3875
3263.76855	2252.2875
3266.03799	2259.9875
3268.30606	2261.0875
3270.57277	2266.2875
3272.83812	2234.1875
3275.10211	2230.3875
3277.36474	2249.1875
3279.62601	2237.0875
3281.88593	2216.9875
3284.14448	2202.5875
3286.40168	2222.7875
3288.65753	2205.5875
3290.91202	2207.0875
3293.16516	2183.3875
3295.41695	2213.1875
3297.66738	2198.2875
3299.91647	2183.5875
3302.16421	2181.7875
3304.4106	2136.5875
3306.65564	2157.3875
3308.89933	2111.9875
3311.14169	2114.0875
3313.38269	2102.9875
3315.62236	2076.5875
3317.86068	2064.3875
3320.09766	2068.6875
3322.3333	2017.5875
3324.5676	2022.2875
3326.80056	1994.4875
3329.03219	1978.0875
3331.26248	-0.6125
3333.49143	0.2875
3335.71905	1.0875
