Data from AgNPs_UA_5uM_CRN_500uM_SU_RamanShift__207__12-03-53-179.txt Node

Date: Thu Aug 04 12:03:53 BST 2022
User: TCL
Spectrometer: QEP01345
Trigger mode: 4
Integration Time (sec): 1.000000E0
Scans to average: 10
Electric dark correction enabled: true
Nonlinearity correction enabled: false
Boxcar width: 0
XAxis mode: Raman Shifts
Number of Pixels in Spectrum: 1044
>>>>>Begin Spectral Data<<<<<
46.04893	-0.575
50.45542	0.525
54.85868	-0.375
59.25871	-0.375
63.6555	-58.475
68.04907	-38.675
72.43941	-72.375
76.82654	-57.375
81.21044	-57.475
85.59113	-47.675
89.96862	-73.775
94.34289	-54.875
98.71396	-76.575
103.08183	-59.175
107.4465	-49.775
111.80798	-56.375
116.16626	-41.675
120.52136	-74.675
124.87327	-50.275
129.222	-61.275
133.56755	-50.375
137.90993	-61.875
142.24913	-49.975
146.58517	-44.475
150.91804	-42.175
155.24774	-27.975
159.57429	-7.775
163.89768	-6.275
168.21792	39.125
172.53501	59.525
176.84895	137.225
181.15975	275.925
185.46741	424.225
189.77193	611.425
194.07331	901.525
198.37157	1189.625
202.6667	1482.825
206.9587	1794.725
211.24758	2104.325
215.53334	2435.925
219.81599	2801.725
224.09553	3206.425
228.37195	3645.725
232.64527	4119.725
236.91549	4572.625
241.18261	4942.725
245.44663	5225.425
249.70755	5383.125
253.96539	5512.925
258.22014	5613.025
262.4718	5676.725
266.72039	5727.525
270.96589	5698.325
275.20832	5601.525
279.44768	5482.725
283.68397	5385.925
287.91719	5335.025
292.14735	5373.725
296.37445	5537.725
300.59849	5828.125
304.81948	6181.525
309.03742	6540.325
313.25231	6787.625
317.46415	6729.425
321.67296	6330.525
325.87872	5929.325
330.08145	5732.725
334.28114	5697.625
338.47781	5747.025
342.67145	5900.125
346.86207	6140.225
351.04966	6512.725
355.23424	6898.525
359.4158	7186.725
363.59435	7208.225
367.76989	7123.625
371.94243	7000.925
376.11196	6887.925
380.27849	6821.725
384.44203	6735.125
388.60257	6691.425
392.76012	6706.725
396.91468	6825.325
401.06626	6976.325
405.21485	7030.225
409.36047	6849.125
413.50311	6529.125
417.64277	6225.725
421.77947	6028.525
425.9132	5963.125
430.04396	5956.125
434.17176	5991.325
438.2966	6069.025
442.41849	6172.125
446.53742	6273.225
450.6534	6367.625
454.76644	6469.825
458.87653	6460.025
462.98368	6429.025
467.08789	6377.225
471.18916	6282.625
475.2875	6141.225
479.38291	6047.025
483.4754	5938.025
487.56496	5908.625
491.6516	5860.125
495.73531	5881.725
499.81612	5915.525
503.89401	5986.525
507.96899	6033.825
512.04106	6132.825
516.11023	6254.525
520.1765	6329.125
524.23987	6358.425
528.30034	6342.425
532.35792	6272.425
536.41261	6217.025
540.46441	6108.225
544.51333	6056.425
548.55936	6104.025
552.60252	6228.325
556.64279	6331.225
560.6802	6472.225
564.71473	6609.225
568.7464	6776.925
572.7752	6769.025
576.80114	6466.825
580.82422	6232.425
584.84444	6103.225
588.86181	6082.525
592.87633	6136.925
596.888	6244.925
600.89682	6627.425
604.9028	7616.925
608.90594	9745.725
612.90624	12103.925
616.90371	11217.225
620.89834	8105.225
624.89015	6751.925
628.87913	6550.725
632.86528	6708.225
636.84862	6870.225
640.82913	6755.725
644.80683	6388.025
648.78172	6197.225
652.75379	6226.225
656.72306	6468.025
660.68952	6708.425
664.65319	6626.525
668.61405	6396.025
672.57211	6330.325
676.52738	6303.725
680.47986	6217.025
684.42955	6126.425
688.37646	6069.425
692.32058	6084.725
696.26192	6160.825
700.20048	6260.325
704.13626	6307.225
708.06928	6252.625
711.99952	6222.525
715.927	6178.625
719.85171	6240.525
723.77365	6272.625
727.69284	6246.725
731.60928	6233.025
735.52295	6201.425
739.43388	6252.025
743.34206	6268.725
747.24749	6286.625
751.15017	6315.325
755.05012	6375.325
758.94733	6745.425
762.8418	7636.525
766.73354	8968.025
770.62254	9974.825
774.50882	10066.025
778.39237	9563.725
782.27321	8624.725
786.15132	7541.025
790.02671	6842.225
793.89938	6467.725
797.76935	6346.525
801.6366	6260.025
805.50115	6215.725
809.36299	6205.925
813.22213	6183.625
817.07857	6213.625
820.93231	6217.925
824.78336	6228.625
828.63172	6247.825
832.47738	6244.225
836.32036	6261.025
840.16066	6219.225
843.99827	6208.525
847.8332	6187.125
851.66546	6215.025
855.49504	6222.725
859.32195	6232.425
863.1462	6228.425
866.96777	6250.725
870.78668	6217.625
874.60293	6218.225
878.41652	6258.225
882.22745	6331.625
886.03573	6346.625
889.84136	6381.725
893.64433	6340.825
897.44466	6345.825
901.24235	6343.625
905.0374	6336.225
908.8298	6276.225
912.61957	6245.125
916.40671	6189.625
920.19121	6257.925
923.97308	6342.225
927.75233	6401.725
931.52895	6464.225
935.30295	6443.225
939.07433	6291.325
942.84309	6174.225
946.60924	6148.725
950.37278	6102.025
954.13371	6097.325
957.89203	6100.925
961.64774	6109.225
965.40086	6092.225
969.15137	6070.625
972.89929	6106.425
976.64461	6107.725
980.38733	6119.225
984.12747	6108.325
987.86502	6113.925
991.59999	6149.325
995.33237	6231.425
999.06217	6292.425
1002.78939	6378.625
1006.51404	6518.425
1010.23611	6637.825
1013.95561	6674.125
1017.67255	6670.225
1021.38692	6634.325
1025.09872	6575.725
1028.80796	6492.325
1032.51465	6492.125
1036.21877	6499.325
1039.92035	6542.925
1043.61937	6563.725
1047.31584	6615.725
1051.00976	6668.925
1054.70114	6663.025
1058.38998	6655.625
1062.07627	6681.925
1065.76003	6700.525
1069.44126	6754.625
1073.11995	6838.525
1076.79611	6972.725
1080.46974	7131.225
1084.14085	7302.625
1087.80943	7454.525
1091.47549	7473.625
1095.13903	7378.825
1098.80005	7258.025
1102.45857	7159.625
1106.11456	7121.325
1109.76805	7075.125
1113.41903	7191.225
1117.06751	7365.125
1120.71348	7614.025
1124.35696	7997.325
1127.99793	8308.225
1131.63641	8129.725
1135.2724	7721.525
1138.90589	7412.225
1142.5369	7242.825
1146.16542	7107.425
1149.79145	7007.025
1153.415	6955.425
1157.03607	6966.525
1160.65467	7054.225
1164.27079	7278.325
1167.88443	7523.025
1171.49561	7946.425
1175.10432	8573.125
1178.71056	9458.225
1182.31434	10304.825
1185.91565	10548.425
1189.51451	10393.325
1193.11091	10123.025
1196.70485	9871.925
1200.29634	9668.925
1203.88538	9361.725
1207.47197	8898.325
1211.05612	8441.725
1214.63782	8017.525
1218.21708	7745.125
1221.79391	7624.625
1225.36829	7526.825
1228.94024	7539.325
1232.50976	7536.925
1236.07685	7584.425
1239.6415	7591.625
1243.20374	7609.525
1246.76355	7655.625
1250.32093	7729.925
1253.8759	7787.625
1257.42845	7994.925
1260.97859	8175.725
1264.52631	8415.125
1268.07163	8567.525
1271.61453	8720.325
1275.15503	8761.325
1278.69312	8776.525
1282.22882	8823.825
1285.76211	9038.225
1289.29301	9290.725
1292.82151	9565.625
1296.34761	9801.925
1299.87133	10191.625
1303.39266	10896.025
1306.9116	12066.025
1310.42815	13321.025
1313.94233	13735.725
1317.45412	12946.325
1320.96354	11788.525
1324.47058	10751.925
1327.97525	9986.225
1331.47754	9587.925
1334.97747	9477.825
1338.47502	9600.025
1341.97022	9972.925
1345.46305	10718.825
1348.95352	11794.425
1352.44163	13094.425
1355.92738	14476.625
1359.41078	16206.125
1362.89183	17700.225
1366.37053	17034.425
1369.84688	14172.225
1373.32088	11423.825
1376.79254	10015.125
1380.26186	9344.025
1383.72883	8936.625
1387.19347	8529.525
1390.65578	8178.225
1394.11575	7925.425
1397.57339	7759.625
1401.0287	7656.825
1404.48168	7606.625
1407.93234	7625.925
1411.38068	7650.925
1414.82669	7727.925
1418.27039	7817.025
1421.71177	7803.125
1425.15083	7708.325
1428.58758	7635.525
1432.02203	7652.125
1435.45416	7738.525
1438.88399	7759.125
1442.31151	7715.125
1445.73673	7777.125
1449.15965	7856.225
1452.58027	7885.825
1455.9986	7853.725
1459.41463	7867.025
1462.82837	7957.425
1466.23982	8150.925
1469.64898	8356.725
1473.05586	8511.425
1476.46045	8607.425
1479.86276	8679.825
1483.26279	8771.925
1486.66054	8966.025
1490.05602	9272.625
1493.44922	9825.525
1496.84016	10698.825
1500.22882	12126.025
1503.61521	13858.825
1506.99934	15661.425
1510.38121	16889.825
1513.76081	16744.325
1517.13816	15146.125
1520.51324	12981.925
1523.88607	11267.325
1527.25665	10243.125
1530.62498	9743.125
1533.99105	9521.725
1537.35488	9424.225
1540.71647	9294.825
1544.07581	9160.825
1547.4329	9042.525
1550.78776	8909.825
1554.14038	8818.825
1557.49077	8806.925
1560.83892	8923.325
1564.18484	9141.025
1567.52853	9448.825
1570.86999	9786.825
1574.20922	9935.625
1577.54624	9842.425
1580.88103	9309.725
1584.2136	8624.225
1587.54395	8253.925
1590.87208	8159.425
1594.19801	8322.825
1597.52172	8698.025
1600.84321	8856.725
1604.16251	8706.025
1607.47959	8511.025
1610.79447	8311.225
1614.10715	8020.725
1617.41763	7719.925
1620.7259	7460.725
1624.03199	7306.625
1627.33587	7238.225
1630.63757	7285.125
1633.93707	7530.925
1637.23439	7928.425
1640.52951	8654.925
1643.82246	9654.025
1647.11321	10824.425
1650.40179	11535.625
1653.68819	11204.225
1656.97241	9937.525
1660.25446	8532.825
1663.53433	7515.325
1666.81203	6899.825
1670.08756	6564.225
1673.36092	6386.925
1676.63211	6219.925
1679.90115	6135.625
1683.16801	6031.125
1686.43272	5961.425
1689.69527	5917.525
1692.95567	5843.225
1696.2139	5842.925
1699.46999	5778.725
1702.72392	5779.725
1705.97571	5791.825
1709.22535	5775.625
1712.47284	5806.325
1715.71819	5821.725
1718.96139	5823.925
1722.20246	5798.325
1725.44139	5791.225
1728.67818	5739.025
1731.91284	5693.525
1735.14537	5674.425
1738.37576	5637.325
1741.60403	5594.025
1744.83017	5592.525
1748.05418	5580.925
1751.27607	5601.725
1754.49584	5533.125
1757.71349	5521.625
1760.92903	5516.325
1764.14244	5471.425
1767.35375	5477.725
1770.56294	5455.525
1773.77002	5440.125
1776.97499	5450.525
1780.17785	5432.225
1783.37861	5398.225
1786.57727	5437.525
1789.77382	5357.825
1792.96828	5393.025
1796.16064	5407.825
1799.3509	5390.125
1802.53907	5400.925
1805.72514	5352.025
1808.90913	5327.825
1812.09102	5333.825
1815.27083	5324.625
1818.44856	5315.925
1821.6242	5305.925
1824.79776	5280.125
1827.96924	5265.425
1831.13864	5252.125
1834.30597	5264.925
1837.47122	5232.125
1840.6344	5232.725
1843.7955	5216.425
1846.95454	5189.625
1850.11151	5222.525
1853.26642	5187.225
1856.41926	5193.725
1859.57004	5183.625
1862.71876	5184.625
1865.86542	5185.225
1869.01003	5181.225
1872.15258	5150.625
1875.29308	5172.225
1878.43152	5181.325
1881.56792	5152.025
1884.70227	5116.425
1887.83457	5129.425
1890.96482	5105.725
1894.09304	5116.925
1897.21921	5082.325
1900.34335	5098.225
1903.46544	5077.625
1906.58551	5098.425
1909.70353	5104.325
1912.81953	5082.125
1915.93349	5069.125
1919.04543	5064.325
1922.15534	5039.725
1925.26322	5030.125
1928.36908	5019.825
1931.47292	5041.825
1934.57473	5030.625
1937.67453	4990.725
1940.77232	4970.025
1943.86808	4951.825
1946.96184	4961.025
1950.05358	4927.025
1953.14331	4924.225
1956.23103	4914.325
1959.31675	4885.025
1962.40046	4834.725
1965.48217	4868.925
1968.56188	4848.625
1971.63959	4829.025
1974.7153	4834.225
1977.78901	4814.525
1980.86073	4794.325
1983.93046	4758.625
1986.99819	4689.725
1990.06394	4699.825
1993.1277	4724.925
1996.18947	4706.325
1999.24925	4648.225
2002.30706	4671.025
2005.36288	4652.425
2008.41672	4637.125
2011.46859	4606.625
2014.51848	4599.125
2017.56639	4575.625
2020.61233	4558.625
2023.6563	4561.825
2026.6983	4517.325
2029.73833	4521.425
2032.7764	4538.825
2035.8125	4499.025
2038.84664	4493.025
2041.87881	4492.225
2044.90903	4482.825
2047.93729	4476.425
2050.96359	4434.325
2053.98794	4467.025
2057.01034	4466.125
2060.03078	4431.425
2063.04927	4411.025
2066.06582	4430.025
2069.08042	4401.325
2072.09307	4419.725
2075.10378	4404.425
2078.11255	4404.125
2081.11938	4407.525
2084.12426	4396.825
2087.12722	4381.125
2090.12824	4390.725
2093.12732	4387.025
2096.12447	4388.325
2099.11969	4393.125
2102.11299	4387.725
2105.10435	4402.325
2108.09379	4390.725
2111.08131	4380.525
2114.0669	4388.925
2117.05057	4382.225
2120.03233	4371.525
2123.01216	4391.125
2125.99008	4394.825
2128.96609	4398.825
2131.94018	4423.625
2134.91236	4417.325
2137.88263	4399.825
2140.851	4400.825
2143.81746	4415.825
2146.78201	4418.425
2149.74466	4400.425
2152.7054	4408.725
2155.66425	4384.525
2158.6212	4388.625
2161.57625	4362.125
2164.52941	4355.525
2167.48067	4350.925
2170.43004	4358.225
2173.37752	4366.325
2176.32311	4373.525
2179.26681	4359.025
2182.20863	4370.725
2185.14856	4368.025
2188.08661	4360.225
2191.02278	4377.925
2193.95707	4338.925
2196.88948	4334.025
2199.82001	4336.525
2202.74867	4319.825
2205.67545	4331.225
2208.60037	4329.925
2211.52341	4300.325
2214.44458	4297.525
2217.36388	4299.325
2220.28132	4276.325
2223.1969	4255.125
2226.11061	4250.725
2229.02246	4240.325
2231.93245	4242.125
2234.84058	4237.225
2237.74686	4228.525
2240.65128	4208.625
2243.55385	4194.925
2246.45456	4180.525
2249.35343	4213.225
2252.25044	4189.825
2255.14561	4191.425
2258.03893	4196.325
2260.93041	4185.425
2263.82004	4170.525
2266.70783	4183.225
2269.59378	4136.525
2272.4779	4121.825
2275.36017	4129.225
2278.24061	4110.925
2281.11922	4078.525
2283.996	4093.225
2286.87094	4076.925
2289.74405	4073.625
2292.61534	4061.725
2295.4848	4054.625
2298.35243	4065.825
2301.21824	4038.925
2304.08223	4053.325
2306.94439	4051.825
2309.80474	4055.125
2312.66327	4044.225
2315.51999	4017.225
2318.37489	4026.125
2321.22797	4023.525
2324.07925	3996.125
2326.92871	3983.925
2329.77637	3973.925
2332.62222	3976.625
2335.46626	3948.225
2338.3085	3938.825
2341.14893	3963.825
2343.98756	3965.225
2346.8244	3931.325
2349.65943	3928.925
2352.49267	3940.125
2355.32411	3942.525
2358.15376	3929.625
2360.98161	3944.225
2363.80768	3917.825
2366.63195	3924.025
2369.45444	3943.525
2372.27514	3921.625
2375.09405	3948.925
2377.91118	3895.525
2380.72652	3898.525
2383.54009	3887.925
2386.35187	3897.225
2389.16188	3866.925
2391.97011	3863.525
2394.77657	3844.125
2397.58125	3868.425
2400.38416	3838.125
2403.18529	3821.925
2405.98466	3809.625
2408.78226	3817.625
2411.57809	3793.825
2414.37216	3787.925
2417.16446	3799.225
2419.955	3763.725
2422.74378	3782.525
2425.5308	3758.525
2428.31606	3779.025
2431.09956	3770.525
2433.88131	3736.725
2436.6613	3755.025
2439.43954	3751.225
2442.21603	3733.725
2444.99077	3726.825
2447.76377	3752.825
2450.53501	3735.125
2453.30451	3730.825
2456.07226	3732.225
2458.83827	3721.325
2461.60254	3678.425
2464.36507	3705.025
2467.12586	3695.825
2469.88492	3692.025
2472.64224	3704.725
2475.39782	3676.825
2478.15167	3700.325
2480.90379	3685.925
2483.65417	3694.325
2486.40283	3701.725
2489.14976	3712.125
2491.89497	3692.225
2494.63845	3694.725
2497.3802	3688.225
2500.12024	3663.825
2502.85855	3666.925
2505.59514	3666.525
2508.33002	3653.725
2511.06318	3620.325
2513.79462	3638.725
2516.52435	3603.925
2519.25237	3581.025
2521.97867	3583.525
2524.70327	3582.725
2527.42616	3577.325
2530.14734	3600.825
2532.86681	3552.625
2535.58458	3577.225
2538.30065	3557.625
2541.01501	3577.325
2543.72768	3555.725
2546.43864	3551.025
2549.14791	3547.625
2551.85548	3528.625
2554.56136	3538.125
2557.26554	3527.125
2559.96803	3508.625
2562.66883	3520.925
2565.36794	3497.425
2568.06536	3458.125
2570.7611	3498.825
2573.45514	3474.925
2576.14751	3465.825
2578.83819	3458.625
2581.52719	3449.325
2584.21451	3437.425
2586.90015	3422.825
2589.58411	3414.725
2592.2664	3413.025
2594.94701	3413.725
2597.62594	3415.925
2600.30321	3342.925
2602.9788	3373.525
2605.65273	3366.725
2608.32498	3371.925
2610.99557	3378.125
2613.66449	3353.625
2616.33175	3368.925
2618.99734	3360.125
2621.66128	3351.525
2624.32355	3342.425
2626.98416	3317.725
2629.64311	3310.525
2632.30041	3318.525
2634.95605	3303.125
2637.61004	3286.525
2640.26238	3268.425
2642.91306	3271.025
2645.56209	3298.825
2648.20948	3279.925
2650.85521	3278.125
2653.4993	3296.225
2656.14175	3290.825
2658.78255	3270.325
2661.42171	3239.925
2664.05923	3283.825
2666.6951	3284.625
2669.32934	3285.725
2671.96194	3293.025
2674.59291	3277.925
2677.22224	3284.725
2679.84993	3278.725
2682.476	3261.325
2685.10043	3275.725
2687.72324	3262.125
2690.34441	3259.225
2692.96396	3250.125
2695.58188	3278.625
2698.19818	3258.725
2700.81285	3246.725
2703.4259	3237.225
2706.03733	3202.725
2708.64714	3216.125
2711.25533	3247.625
2713.86191	3244.925
2716.46687	3228.825
2719.07021	3241.425
2721.67194	3230.625
2724.27206	3253.225
2726.87057	3225.725
2729.46747	3217.625
2732.06276	3229.025
2734.65644	3209.625
2737.24852	3216.425
2739.83899	3189.625
2742.42786	3207.025
2745.01513	3215.025
2747.60079	3192.125
2750.18486	3184.625
2752.76733	3176.125
2755.3482	3178.525
2757.92747	3174.025
2760.50515	3143.725
2763.08123	3149.325
2765.65573	3146.725
2768.22863	3134.225
2770.79994	3144.225
2773.36967	3123.525
2775.9378	3110.325
2778.50435	3104.225
2781.06932	3107.925
2783.6327	3096.825
2786.1945	3113.725
2788.75471	3103.025
2791.31335	3091.225
2793.87041	3109.125
2796.42589	3081.525
2798.97979	3075.025
2801.53212	3076.725
2804.08288	3077.225
2806.63206	3049.425
2809.17967	3040.125
2811.72571	3049.725
2814.27018	3043.125
2816.81308	3028.225
2819.35442	2991.825
2821.89419	3004.025
2824.43239	3001.625
2826.96904	3025.325
2829.50412	3004.425
2832.03763	3003.525
2834.56959	3003.125
2837.1	2999.325
2839.62884	2994.225
2842.15613	2980.525
2844.68186	2999.325
2847.20604	2970.325
2849.72867	2969.125
2852.24974	2976.425
2854.76927	2924.525
2857.28724	2904.025
2859.80367	2956.925
2862.31855	2953.125
2864.83189	2955.725
2867.34368	2953.125
2869.85393	2955.325
2872.36264	2931.225
2874.8698	2934.625
2877.37543	2932.425
2879.87952	2924.225
2882.38207	2912.825
2884.88308	2917.725
2887.38256	2912.925
2889.88051	2916.625
2892.37692	2910.025
2894.8718	2890.625
2897.36515	2913.825
2899.85698	2902.825
2902.34727	2895.125
2904.83604	2917.225
2907.32328	2925.125
2909.809	2916.925
2912.29319	2912.125
2914.77587	2918.225
2917.25702	2934.625
2919.73665	2938.825
2922.21476	2943.225
2924.69136	2933.725
2927.16644	2927.525
2929.64	2915.125
2932.11205	2890.825
2934.58258	2901.025
2937.05161	2887.325
2939.51912	2898.425
2941.98513	2907.025
2944.44962	2886.425
2946.91261	2852.725
2949.37409	2856.425
2951.83407	2862.125
2954.29254	2860.225
2956.74951	2849.825
2959.20498	2838.325
2961.65895	2842.725
2964.11142	2826.025
2966.56239	2829.525
2969.01186	2831.925
2971.45984	2814.025
2973.90632	2821.725
2976.35131	2829.025
2978.7948	2812.125
2981.23681	2801.425
2983.67732	2818.725
2986.11635	2801.025
2988.55388	2787.725
2990.98993	2770.625
2993.4245	2768.525
2995.85758	2755.425
2998.28917	2747.225
3000.71928	2738.925
3003.14791	2726.825
3005.57506	2723.125
3008.00073	2699.825
3010.42493	2652.525
3012.84764	2705.525
3015.26888	2712.525
3017.68865	2702.425
3020.10694	2647.025
3022.52376	2680.825
3024.9391	2661.925
3027.35298	2662.625
3029.76539	2640.125
3032.17632	2642.225
3034.5858	2640.125
3036.9938	2656.625
3039.40034	2637.425
3041.80542	2624.325
3044.20903	2610.925
3046.61118	2603.925
3049.01187	2614.925
3051.4111	2586.125
3053.80888	2577.225
3056.20519	2574.125
3058.60005	2563.825
3060.99345	2589.625
3063.3854	2554.225
3065.7759	2548.425
3068.16494	2538.225
3070.55254	2527.325
3072.93868	2538.225
3075.32338	2531.125
3077.70662	2527.225
3080.08842	2507.625
3082.46878	2497.125
3084.84769	2521.525
3087.22515	2494.525
3089.60118	2514.525
3091.97576	2500.625
3094.3489	2501.225
3096.72061	2487.725
3099.09087	2483.625
3101.4597	2480.625
3103.82709	2478.925
3106.19305	2466.625
3108.55757	2482.525
3110.92066	2451.325
3113.28232	2464.325
3115.64255	2464.325
3118.00134	2457.725
3120.35871	2435.125
3122.71466	2422.725
3125.06917	2430.225
3127.42226	2415.025
3129.77393	2391.925
3132.12417	2407.825
3134.47299	2415.425
3136.82039	2403.025
3139.16636	2373.425
3141.51092	2397.625
3143.85406	2389.625
3146.19579	2383.925
3148.53609	2387.825
3150.87499	2386.225
3153.21246	2376.925
3155.54853	2387.025
3157.88318	2385.325
3160.21642	2391.225
3162.54826	2382.025
3164.87868	2379.225
3167.2077	2338.025
3169.5353	2361.425
3171.86151	2373.625
3174.18631	2367.325
3176.5097	2357.625
3178.83169	2351.625
3181.15228	2356.625
3183.47147	2320.325
3185.78926	2309.625
3188.10565	2322.725
3190.42065	2288.925
3192.73424	2311.325
3195.04645	2307.925
3197.35725	2284.925
3199.66667	2303.925
3201.97469	2295.625
3204.28132	2288.025
3206.58656	2295.625
3208.8904	2300.725
3211.19287	2297.925
3213.49394	2284.225
3215.79363	2276.625
3218.09193	2288.325
3220.38884	2283.625
3222.68438	2282.325
3224.97853	2268.425
3227.2713	2285.225
3229.56269	2255.725
3231.8527	2265.925
3234.14133	2255.525
3236.42858	2245.325
3238.71446	2225.225
3240.99896	2247.225
3243.28209	2234.825
3245.56384	2235.125
3247.84423	2223.025
3250.12324	2235.125
3252.40088	2222.725
3254.67715	2209.025
3256.95205	2198.425
3259.22558	2213.625
3261.49775	2210.725
3263.76855	2196.925
3266.03799	2201.225
3268.30606	2204.825
3270.57277	2197.625
3272.83812	2190.325
3275.10211	2179.225
3277.36474	2187.425
3279.62601	2193.725
3281.88593	2160.725
3284.14448	2146.825
3286.40168	2170.925
3288.65753	2163.525
3290.91202	2151.625
3293.16516	2132.525
3295.41695	2156.125
3297.66738	2148.825
3299.91647	2131.525
3302.16421	2121.125
3304.4106	2092.025
3306.65564	2108.125
3308.89933	2058.925
3311.14169	2062.925
3313.38269	2049.525
3315.62236	2035.925
3317.86068	2020.825
3320.09766	2022.025
3322.3333	1982.225
3324.5676	1972.525
3326.80056	1934.925
3329.03219	1924.625
3331.26248	0.125
3333.49143	-0.375
3335.71905	0.825
