Data from AgNPs_UA_10uM_CRN_500uM_SU_RamanShift__139__13-28-30-281.txt Node

Date: Thu Aug 04 13:28:30 BST 2022
User: TCL
Spectrometer: QEP01345
Trigger mode: 4
Integration Time (sec): 1.000000E0
Scans to average: 10
Electric dark correction enabled: true
Nonlinearity correction enabled: false
Boxcar width: 0
XAxis mode: Raman Shifts
Number of Pixels in Spectrum: 1044
>>>>>Begin Spectral Data<<<<<
46.04893	0.2
50.45542	-0.3
54.85868	0.8
59.25871	-0.3
63.6555	21.3
68.04907	21.9
72.43941	23.1
76.82654	21.6
81.21044	22.4
85.59113	25.6
89.96862	24.8
94.34289	26.7
98.71396	25.6
103.08183	26.2
107.4465	28.1
111.80798	28.9
116.16626	31.5
120.52136	31.8
124.87327	35.7
129.222	35.3
133.56755	36.8
137.90993	40
142.24913	48.5
146.58517	50.7
150.91804	62.1
155.24774	76.9
159.57429	93.3
163.89768	122.3
168.21792	160.3
172.53501	223.6
176.84895	314.4
181.15975	445.4
185.46741	624.5
189.77193	859.6
194.07331	1158.8
198.37157	1500.8
202.6667	1840.1
206.9587	2190.6
211.24758	2530
215.53334	2886
219.81599	3244.9
224.09553	3671.4
228.37195	4123.7
232.64527	4627.5
236.91549	5131
241.18261	5592.2
245.44663	5993
249.70755	6297
253.96539	6586.3
258.22014	6854.2
262.4718	7072.6
266.72039	7238.4
270.96589	7278.7
275.20832	7258.3
279.44768	7162.4
283.68397	7045.3
287.91719	6962.9
292.14735	6966.3
296.37445	7062.2
300.59849	7234.8
304.81948	7445.3
309.03742	7603.5
313.25231	7672.5
317.46415	7570.5
321.67296	7335.8
325.87872	7112
330.08145	6999.3
334.28114	7010.4
338.47781	7128.9
342.67145	7263.3
346.86207	7451.8
351.04966	7708
355.23424	7993.6
359.4158	8197.7
363.59435	8337.7
367.76989	8415
371.94243	8443
376.11196	8466.8
380.27849	8472.2
384.44203	8532.5
388.60257	8561.8
392.76012	8599.9
396.91468	8723.6
401.06626	8859.3
405.21485	8899.1
409.36047	8848
413.50311	8612
417.64277	8362.7
421.77947	8252.4
425.9132	8195.5
430.04396	8220.4
434.17176	8306.9
438.2966	8457
442.41849	8678.7
446.53742	8974.7
450.6534	9217.7
454.76644	9371.3
458.87653	9373.4
462.98368	9314.3
467.08789	9138.5
471.18916	8929.6
475.2875	8703.4
479.38291	8482
483.4754	8364.1
487.56496	8275.6
491.6516	8240.6
495.73531	8208.1
499.81612	8246.4
503.89401	8299
507.96899	8365.5
512.04106	8395.1
516.11023	8451.4
520.1765	8520.2
524.23987	8563.5
528.30034	8565.2
532.35792	8511.4
536.41261	8422.7
540.46441	8298.6
544.51333	8249.2
548.55936	8322.5
552.60252	8455.2
556.64279	8599.4
560.6802	8675.4
564.71473	8718
568.7464	8795
572.7752	8803.7
576.80114	8689.6
580.82422	8613.2
584.84444	8647
588.86181	8799
592.87633	9001.9
596.888	9209.3
600.89682	9520.2
604.9028	10447.1
608.90594	12389.9
612.90624	14102.9
616.90371	12938.3
620.89834	10370.5
624.89015	9437.1
628.87913	9368.1
632.86528	9352.7
636.84862	9230.4
640.82913	8946.9
644.80683	8623.6
648.78172	8434.6
652.75379	8494
656.72306	8787
660.68952	9031.9
664.65319	8973.4
668.61405	8844.9
672.57211	8864.8
676.52738	8830.1
680.47986	8686.1
684.42955	8590.8
688.37646	8564.5
692.32058	8651.5
696.26192	8806.6
700.20048	8961.5
704.13626	8951.6
708.06928	8828.9
711.99952	8742.9
715.927	8737.5
719.85171	8813.3
723.77365	8813.8
727.69284	8707.2
731.60928	8650.4
735.52295	8668.7
739.43388	8731.4
743.34206	8803.8
747.24749	8829.5
751.15017	8836.3
755.05012	8949
758.94733	9264
762.8418	9967.4
766.73354	10967
770.62254	11878.5
774.50882	12102.9
778.39237	11628.4
782.27321	10763.4
786.15132	9899.7
790.02671	9307.9
793.89938	9061.4
797.76935	8948.9
801.6366	8871.4
805.50115	8850.1
809.36299	8794.5
813.22213	8762.5
817.07857	8743.2
820.93231	8740.5
824.78336	8745
828.63172	8768.3
832.47738	8776.3
836.32036	8797.7
840.16066	8834.1
843.99827	8865
847.8332	8864.5
851.66546	8835.2
855.49504	8830.3
859.32195	8820
863.1462	8786.2
866.96777	8765.2
870.78668	8762.7
874.60293	8781.4
878.41652	8814.1
882.22745	8885.9
886.03573	8913.6
889.84136	8944
893.64433	8904
897.44466	8877.8
901.24235	8841.6
905.0374	8819.2
908.8298	8788.1
912.61957	8781.4
916.40671	8824.2
920.19121	8907.1
923.97308	9022.3
927.75233	9150.8
931.52895	9223
935.30295	9126
939.07433	8948.7
942.84309	8847.2
946.60924	8792.5
950.37278	8784.3
954.13371	8712.1
957.89203	8666.8
961.64774	8657.9
965.40086	8637.2
969.15137	8607.6
972.89929	8621.8
976.64461	8628.6
980.38733	8645.7
984.12747	8691.8
987.86502	8748
991.59999	8883.9
995.33237	9069.1
999.06217	9381.8
1002.78939	9691.9
1006.51404	9824.6
1010.23611	9898.1
1013.95561	9999.8
1017.67255	10071.8
1021.38692	10107.5
1025.09872	10116.5
1028.80796	10268.2
1032.51465	10559.8
1036.21877	10784.2
1039.92035	10731.5
1043.61937	10522
1047.31584	10212.4
1051.00976	9954.9
1054.70114	9819.9
1058.38998	9806.2
1062.07627	9813.1
1065.76003	9808.8
1069.44126	9826.4
1073.11995	9916.3
1076.79611	10055
1080.46974	10196.1
1084.14085	10301.2
1087.80943	10408.6
1091.47549	10360
1095.13903	10280.4
1098.80005	10157.5
1102.45857	10138.9
1106.11456	10129.9
1109.76805	10120.4
1113.41903	10189.1
1117.06751	10340
1120.71348	10516.9
1124.35696	10695.7
1127.99793	10803.4
1131.63641	10656.8
1135.2724	10411.9
1138.90589	10193
1142.5369	10033.6
1146.16542	9907.3
1149.79145	9830.6
1153.415	9821.6
1157.03607	9883.9
1160.65467	9991.6
1164.27079	10236.3
1167.88443	10631.7
1171.49561	11244.9
1175.10432	12131.8
1178.71056	13266.5
1182.31434	14254.3
1185.91565	14718.8
1189.51451	14650.8
1193.11091	14169.6
1196.70485	13500.1
1200.29634	12932.1
1203.88538	12412.1
1207.47197	11878.4
1211.05612	11467.1
1214.63782	11198.3
1218.21708	11127.6
1221.79391	11202.3
1225.36829	11280.3
1228.94024	11247.3
1232.50976	11101.7
1236.07685	10976.7
1239.6415	10956.9
1243.20374	11006
1246.76355	11075.6
1250.32093	11252.2
1253.8759	11475.8
1257.42845	11805.4
1260.97859	12129.5
1264.52631	12456.2
1268.07163	12721.6
1271.61453	12941.7
1275.15503	13197.7
1278.69312	13424.4
1282.22882	13669.3
1285.76211	13853.9
1289.29301	13976
1292.82151	14215.2
1296.34761	14521.4
1299.87133	15095.6
1303.39266	16071.2
1306.9116	17497.9
1310.42815	18930.3
1313.94233	19602.6
1317.45412	19120.4
1320.96354	18118.1
1324.47058	16960.4
1327.97525	16044.5
1331.47754	15548.8
1334.97747	15479.6
1338.47502	15684.6
1341.97022	16125.2
1345.46305	16716.1
1348.95352	17496
1352.44163	18373.1
1355.92738	19392.8
1359.41078	20801.7
1362.89183	21630
1366.37053	20491.8
1369.84688	17953.3
1373.32088	15631.1
1376.79254	14302.2
1380.26186	13683.6
1383.72883	13330.7
1387.19347	13005
1390.65578	12608.9
1394.11575	12303.5
1397.57339	12174.7
1401.0287	12210.9
1404.48168	12320.1
1407.93234	12472.7
1411.38068	12701
1414.82669	12843.8
1418.27039	12736.3
1421.71177	12585.1
1425.15083	12491.6
1428.58758	12501.6
1432.02203	12670.5
1435.45416	12853.1
1438.88399	12898
1442.31151	12837.3
1445.73673	12810.1
1449.15965	12758.6
1452.58027	12663.4
1455.9986	12548.5
1459.41463	12534
1462.82837	12622.8
1466.23982	12854.6
1469.64898	13114.6
1473.05586	13304.8
1476.46045	13422
1479.86276	13589.1
1483.26279	13702.3
1486.66054	13849.4
1490.05602	14135.2
1493.44922	14558.9
1496.84016	15147
1500.22882	16005.5
1503.61521	17080.3
1506.99934	18164.7
1510.38121	18781
1513.76081	18475.1
1517.13816	17343.9
1520.51324	15941.3
1523.88607	14816.2
1527.25665	14177.9
1530.62498	13865.9
1533.99105	13719.5
1537.35488	13638.2
1540.71647	13523.1
1544.07581	13420
1547.4329	13300
1550.78776	13176.2
1554.14038	12984.7
1557.49077	12884.2
1560.83892	12946.1
1564.18484	13084.1
1567.52853	13245.9
1570.86999	13344.3
1574.20922	13335.4
1577.54624	13173.8
1580.88103	12739
1584.2136	12372.6
1587.54395	12334.5
1590.87208	12751.6
1594.19801	13609.5
1597.52172	14624.5
1600.84321	15169.2
1604.16251	14947
1607.47959	14249.5
1610.79447	13320.5
1614.10715	12369.8
1617.41763	11562
1620.7259	11094.1
1624.03199	10854.6
1627.33587	10849.2
1630.63757	11135.6
1633.93707	11734.2
1637.23439	12614.1
1640.52951	13761.4
1643.82246	14994.1
1647.11321	15927.9
1650.40179	15905
1653.68819	14734
1656.97241	12969.3
1660.25446	11441.9
1663.53433	10430.3
1666.81203	9804.8
1670.08756	9464.5
1673.36092	9217.4
1676.63211	9057.3
1679.90115	8926.3
1683.16801	8830
1686.43272	8726.7
1689.69527	8715.8
1692.95567	8651.2
1696.2139	8635.5
1699.46999	8625.6
1702.72392	8603.1
1705.97571	8576.2
1709.22535	8603.4
1712.47284	8587
1715.71819	8597.1
1718.96139	8575.7
1722.20246	8572.6
1725.44139	8520.6
1728.67818	8501.8
1731.91284	8443.6
1735.14537	8404.5
1738.37576	8373
1741.60403	8343.2
1744.83017	8319.3
1748.05418	8319
1751.27607	8291.9
1754.49584	8261.2
1757.71349	8286.3
1760.92903	8272.2
1764.14244	8251.9
1767.35375	8229.8
1770.56294	8201.5
1773.77002	8225
1776.97499	8197.2
1780.17785	8168
1783.37861	8164
1786.57727	8157.7
1789.77382	8154.6
1792.96828	8138.3
1796.16064	8135
1799.3509	8126.3
1802.53907	8119.4
1805.72514	8120.8
1808.90913	8074.2
1812.09102	8072.8
1815.27083	8050.5
1818.44856	8020.7
1821.6242	8011.6
1824.79776	8001.1
1827.96924	7985
1831.13864	7967.5
1834.30597	7970.3
1837.47122	7947.5
1840.6344	7916.9
1843.7955	7924.4
1846.95454	7939.3
1850.11151	7925.6
1853.26642	7931.3
1856.41926	7938.3
1859.57004	7949.2
1862.71876	7941.1
1865.86542	7945
1869.01003	7937.7
1872.15258	7894.7
1875.29308	7882.8
1878.43152	7896.6
1881.56792	7886.7
1884.70227	7873.5
1887.83457	7839.4
1890.96482	7848.6
1894.09304	7832.3
1897.21921	7832.9
1900.34335	7823.3
1903.46544	7812.1
1906.58551	7830.1
1909.70353	7789.7
1912.81953	7809.4
1915.93349	7812.5
1919.04543	7799.8
1922.15534	7773.2
1925.26322	7787.5
1928.36908	7747.7
1931.47292	7744.8
1934.57473	7731.2
1937.67453	7710.1
1940.77232	7719.7
1943.86808	7682.7
1946.96184	7653.9
1950.05358	7638.3
1953.14331	7626.5
1956.23103	7594.7
1959.31675	7554
1962.40046	7540
1965.48217	7513.3
1968.56188	7502.9
1971.63959	7477.9
1974.7153	7460.9
1977.78901	7445.6
1980.86073	7455.4
1983.93046	7389.8
1986.99819	7387.2
1990.06394	7362.9
1993.1277	7344.4
1996.18947	7293
1999.24925	7296
2002.30706	7246.3
2005.36288	7246
2008.41672	7232.8
2011.46859	7187.9
2014.51848	7192.3
2017.56639	7168.5
2020.61233	7138.8
2023.6563	7104.7
2026.6983	7133.5
2029.73833	7091.3
2032.7764	7089.1
2035.8125	7080.9
2038.84664	7059.4
2041.87881	7063.1
2044.90903	7012.8
2047.93729	7021.6
2050.96359	7036.6
2053.98794	6998.2
2057.01034	7008.2
2060.03078	6999.6
2063.04927	6991.9
2066.06582	6990.8
2069.08042	6972.3
2072.09307	6958.4
2075.10378	6977.1
2078.11255	6941.7
2081.11938	6944.2
2084.12426	6932.5
2087.12722	6913.5
2090.12824	6933.5
2093.12732	6930.4
2096.12447	6944.1
2099.11969	6928.4
2102.11299	6936
2105.10435	6940
2108.09379	6951.3
2111.08131	6928.1
2114.0669	6948.9
2117.05057	6946.4
2120.03233	6963.1
2123.01216	6978.1
2125.99008	6949.7
2128.96609	6952.1
2131.94018	6966.7
2134.91236	6965.2
2137.88263	6954.5
2140.851	6965.3
2143.81746	6973.4
2146.78201	6974.2
2149.74466	6977.7
2152.7054	6980.4
2155.66425	6952.7
2158.6212	6969.5
2161.57625	6962.5
2164.52941	6945.8
2167.48067	6940.6
2170.43004	6937.5
2173.37752	6942.1
2176.32311	6943.1
2179.26681	6948.6
2182.20863	6952.8
2185.14856	6965
2188.08661	6962.7
2191.02278	6963.5
2193.95707	6954.6
2196.88948	6958.4
2199.82001	6954.5
2202.74867	6958.8
2205.67545	6948.8
2208.60037	6955.4
2211.52341	6939.3
2214.44458	6906.6
2217.36388	6909.1
2220.28132	6913.1
2223.1969	6895.6
2226.11061	6874.8
2229.02246	6860.8
2231.93245	6856
2234.84058	6845.7
2237.74686	6809.9
2240.65128	6810.1
2243.55385	6809.3
2246.45456	6797.3
2249.35343	6775.1
2252.25044	6764.1
2255.14561	6762.5
2258.03893	6778.5
2260.93041	6764.4
2263.82004	6756.7
2266.70783	6750.4
2269.59378	6705.4
2272.4779	6700.2
2275.36017	6671.6
2278.24061	6655.8
2281.11922	6632.7
2283.996	6622.7
2286.87094	6613.9
2289.74405	6603
2292.61534	6612
2295.4848	6594
2298.35243	6605.5
2301.21824	6589.6
2304.08223	6581.3
2306.94439	6605.1
2309.80474	6612.7
2312.66327	6618.6
2315.51999	6605.9
2318.37489	6600.3
2321.22797	6597.7
2324.07925	6583.2
2326.92871	6568.4
2329.77637	6579.3
2332.62222	6558.5
2335.46626	6568.6
2338.3085	6564.4
2341.14893	6575.2
2343.98756	6597.4
2346.8244	6592.3
2349.65943	6580.2
2352.49267	6578.6
2355.32411	6567.7
2358.15376	6553.6
2360.98161	6556.8
2363.80768	6542.1
2366.63195	6533.8
2369.45444	6529.8
2372.27514	6521.6
2375.09405	6494.7
2377.91118	6508.6
2380.72652	6485.6
2383.54009	6453.4
2386.35187	6453.2
2389.16188	6446.3
2391.97011	6411.9
2394.77657	6407.5
2397.58125	6394.8
2400.38416	6364.5
2403.18529	6373.8
2405.98466	6388.2
2408.78226	6341.2
2411.57809	6334
2414.37216	6323.9
2417.16446	6302.2
2419.955	6293.8
2422.74378	6300
2425.5308	6279.7
2428.31606	6309.6
2431.09956	6283.1
2433.88131	6268.1
2436.6613	6274.4
2439.43954	6259.2
2442.21603	6271.3
2444.99077	6256.1
2447.76377	6271.2
2450.53501	6250.8
2453.30451	6251.9
2456.07226	6235.7
2458.83827	6231.8
2461.60254	6230.8
2464.36507	6233.7
2467.12586	6218.8
2469.88492	6219.7
2472.64224	6225.2
2475.39782	6206.1
2478.15167	6238.2
2480.90379	6204
2483.65417	6219.9
2486.40283	6214.1
2489.14976	6206.6
2491.89497	6231
2494.63845	6243.7
2497.3802	6228.3
2500.12024	6211.7
2502.85855	6204.1
2505.59514	6206.9
2508.33002	6203.3
2511.06318	6185.7
2513.79462	6172.8
2516.52435	6173
2519.25237	6141.7
2521.97867	6146.2
2524.70327	6139.3
2527.42616	6127.8
2530.14734	6116.7
2532.86681	6119.4
2535.58458	6148.2
2538.30065	6133.3
2541.01501	6130.9
2543.72768	6130.5
2546.43864	6119.3
2549.14791	6103.3
2551.85548	6097.4
2554.56136	6089.4
2557.26554	6087.4
2559.96803	6079.3
2562.66883	6045.7
2565.36794	6028.7
2568.06536	6041.9
2570.7611	6027.9
2573.45514	6036.4
2576.14751	6017.9
2578.83819	6008
2581.52719	5986.2
2584.21451	6028.6
2586.90015	6003.3
2589.58411	5989.1
2592.2664	5991
2594.94701	6011.5
2597.62594	6003.5
2600.30321	5976.7
2602.9788	5982.6
2605.65273	5977.6
2608.32498	5991.4
2610.99557	5954.4
2613.66449	5977
2616.33175	5965
2618.99734	5969
2621.66128	5945.9
2624.32355	5976.5
2626.98416	5950.6
2629.64311	5947.2
2632.30041	5963.9
2634.95605	5955.6
2637.61004	5937.7
2640.26238	5929.8
2642.91306	5918.1
2645.56209	5913.6
2648.20948	5900.7
2650.85521	5894.3
2653.4993	5897.2
2656.14175	5898.2
2658.78255	5879.2
2661.42171	5876.8
2664.05923	5877.9
2666.6951	5905
2669.32934	5914.7
2671.96194	5918
2674.59291	5911.6
2677.22224	5924.6
2679.84993	5904.7
2682.476	5892.2
2685.10043	5906.6
2687.72324	5893.3
2690.34441	5888.7
2692.96396	5865.5
2695.58188	5848
2698.19818	5867.2
2700.81285	5872
2703.4259	5850.7
2706.03733	5839.6
2708.64714	5836.1
2711.25533	5860.6
2713.86191	5839.2
2716.46687	5850
2719.07021	5852.8
2721.67194	5863.5
2724.27206	5843.4
2726.87057	5871.6
2729.46747	5855.3
2732.06276	5846.5
2734.65644	5861.2
2737.24852	5847.8
2739.83899	5829.4
2742.42786	5825.8
2745.01513	5825.9
2747.60079	5809.9
2750.18486	5800.2
2752.76733	5790.1
2755.3482	5787.5
2757.92747	5784.7
2760.50515	5774
2763.08123	5776.9
2765.65573	5790.8
2768.22863	5764.2
2770.79994	5760.5
2773.36967	5751.8
2775.9378	5754.1
2778.50435	5767.8
2781.06932	5765.8
2783.6327	5763
2786.1945	5756.3
2788.75471	5744.9
2791.31335	5718.5
2793.87041	5710.3
2796.42589	5708
2798.97979	5685.1
2801.53212	5663.7
2804.08288	5662.8
2806.63206	5654.5
2809.17967	5651.6
2811.72571	5650
2814.27018	5647.5
2816.81308	5613.9
2819.35442	5621.2
2821.89419	5624.1
2824.43239	5614.5
2826.96904	5600.8
2829.50412	5614.1
2832.03763	5564.6
2834.56959	5564.4
2837.1	5560.4
2839.62884	5544.1
2842.15613	5531
2844.68186	5544
2847.20604	5528.1
2849.72867	5544.1
2852.24974	5511.4
2854.76927	5511.7
2857.28724	5503.1
2859.80367	5501.6
2862.31855	5493.1
2864.83189	5493.1
2867.34368	5506.2
2869.85393	5492.8
2872.36264	5463.4
2874.8698	5481.4
2877.37543	5481.6
2879.87952	5468.3
2882.38207	5456.5
2884.88308	5453
2887.38256	5457.7
2889.88051	5451.5
2892.37692	5442.2
2894.8718	5461.5
2897.36515	5450.7
2899.85698	5450.4
2902.34727	5458.5
2904.83604	5455.6
2907.32328	5471.1
2909.809	5483.1
2912.29319	5489.7
2914.77587	5485.5
2917.25702	5478.7
2919.73665	5477.8
2922.21476	5475.6
2924.69136	5458.9
2927.16644	5464.9
2929.64	5435.1
2932.11205	5432.9
2934.58258	5399.9
2937.05161	5418.3
2939.51912	5419.4
2941.98513	5419.7
2944.44962	5403
2946.91261	5386.7
2949.37409	5402.5
2951.83407	5400.2
2954.29254	5383.8
2956.74951	5370.2
2959.20498	5380.9
2961.65895	5371.8
2964.11142	5380.4
2966.56239	5378.3
2969.01186	5371.8
2971.45984	5350.5
2973.90632	5360.3
2976.35131	5320.3
2978.7948	5332.3
2981.23681	5316.1
2983.67732	5310.9
2986.11635	5283.2
2988.55388	5286.5
2990.98993	5252.3
2993.4245	5253.3
2995.85758	5219
2998.28917	5212.1
3000.71928	5195.6
3003.14791	5198.2
3005.57506	5188.7
3008.00073	5159.5
3010.42493	5150.2
3012.84764	5150
3015.26888	5145.3
3017.68865	5140.3
3020.10694	5127
3022.52376	5106.7
3024.9391	5099.3
3027.35298	5064.2
3029.76539	5074.3
3032.17632	5059.4
3034.5858	5067.2
3036.9938	5054.3
3039.40034	5039.2
3041.80542	5033
3044.20903	5026.5
3046.61118	5041
3049.01187	5011.4
3051.4111	4994.7
3053.80888	4975.6
3056.20519	4962.1
3058.60005	4957.6
3060.99345	4949.4
3063.3854	4944.5
3065.7759	4913
3068.16494	4902.2
3070.55254	4884.1
3072.93868	4869.3
3075.32338	4868.7
3077.70662	4860.1
3080.08842	4836.7
3082.46878	4844.1
3084.84769	4822.3
3087.22515	4826.5
3089.60118	4803
3091.97576	4796.1
3094.3489	4798.5
3096.72061	4806
3099.09087	4788.8
3101.4597	4801.6
3103.82709	4798.3
3106.19305	4774.9
3108.55757	4800.5
3110.92066	4763.8
3113.28232	4752.6
3115.64255	4742.7
3118.00134	4732.3
3120.35871	4743.8
3122.71466	4728.6
3125.06917	4729.4
3127.42226	4703.4
3129.77393	4699.9
3132.12417	4676.6
3134.47299	4665.3
3136.82039	4671.4
3139.16636	4668.8
3141.51092	4673.2
3143.85406	4654.6
3146.19579	4665.3
3148.53609	4650.2
3150.87499	4652.6
3153.21246	4643.9
3155.54853	4659.9
3157.88318	4659.8
3160.21642	4645.8
3162.54826	4635.1
3164.87868	4654.4
3167.2077	4613.9
3169.5353	4624.1
3171.86151	4621.9
3174.18631	4591.2
3176.5097	4595.4
3178.83169	4589.5
3181.15228	4585.1
3183.47147	4577.7
3185.78926	4567.7
3188.10565	4564.8
3190.42065	4520.5
3192.73424	4540.3
3195.04645	4536
3197.35725	4531.6
3199.66667	4539.8
3201.97469	4524.6
3204.28132	4519.1
3206.58656	4525.2
3208.8904	4523.1
3211.19287	4522.5
3213.49394	4526.4
3215.79363	4520.1
3218.09193	4536.1
3220.38884	4522.3
3222.68438	4530.4
3224.97853	4524.2
3227.2713	4516.3
3229.56269	4500.5
3231.8527	4509.7
3234.14133	4486.3
3236.42858	4474
3238.71446	4466.4
3240.99896	4452.7
3243.28209	4466.5
3245.56384	4438.9
3247.84423	4442
3250.12324	4421.2
3252.40088	4433.9
3254.67715	4421.8
3256.95205	4421.3
3259.22558	4422.1
3261.49775	4424.9
3263.76855	4418
3266.03799	4404.8
3268.30606	4412.4
3270.57277	4414.7
3272.83812	4396.8
3275.10211	4377.7
3277.36474	4389.4
3279.62601	4377.9
3281.88593	4363.7
3284.14448	4347.6
3286.40168	4373.1
3288.65753	4358.7
3290.91202	4358.6
3293.16516	4334.7
3295.41695	4326.7
3297.66738	4328.2
3299.91647	4312.8
3302.16421	4279.7
3304.4106	4235.1
3306.65564	4221.9
3308.89933	4202.7
3311.14169	4160
3313.38269	4127.2
3315.62236	4105
3317.86068	4076.8
3320.09766	4043.8
3322.3333	4011.9
3324.5676	3984.9
3326.80056	3926.9
3329.03219	3889.7
3331.26248	1.4
3333.49143	-1.3
3335.71905	1
