Data from AgNPs_UA_5uM_CRN_500uM_SU_RamanShift__154__11-55-03-170.txt Node

Date: Thu Aug 04 11:55:03 BST 2022
User: TCL
Spectrometer: QEP01345
Trigger mode: 4
Integration Time (sec): 1.000000E0
Scans to average: 10
Electric dark correction enabled: true
Nonlinearity correction enabled: false
Boxcar width: 0
XAxis mode: Raman Shifts
Number of Pixels in Spectrum: 1044
>>>>>Begin Spectral Data<<<<<
46.04893	0.1875
50.45542	1.4875
54.85868	-0.0125
59.25871	-0.6125
63.6555	-56.9125
68.04907	-37.5125
72.43941	-70.6125
76.82654	-55.8125
81.21044	-57.0125
85.59113	-49.4125
89.96862	-74.5125
94.34289	-55.8125
98.71396	-75.3125
103.08183	-57.9125
107.4465	-49.5125
111.80798	-55.0125
116.16626	-43.6125
120.52136	-73.2125
124.87327	-49.6125
129.222	-62.3125
133.56755	-46.5125
137.90993	-61.8125
142.24913	-49.2125
146.58517	-40.1125
150.91804	-39.7125
155.24774	-29.6125
159.57429	-9.6125
163.89768	-4.3125
168.21792	40.1875
172.53501	60.5875
176.84895	144.3875
181.15975	275.4875
185.46741	424.5875
189.77193	607.9875
194.07331	908.3875
198.37157	1188.4875
202.6667	1478.2875
206.9587	1796.6875
211.24758	2116.9875
215.53334	2450.2875
219.81599	2795.1875
224.09553	3207.4875
228.37195	3657.5875
232.64527	4102.1875
236.91549	4581.6875
241.18261	4946.2875
245.44663	5250.0875
249.70755	5420.4875
253.96539	5585.5875
258.22014	5687.8875
262.4718	5739.1875
266.72039	5787.1875
270.96589	5732.3875
275.20832	5646.5875
279.44768	5521.0875
283.68397	5414.7875
287.91719	5343.4875
292.14735	5363.5875
296.37445	5533.1875
300.59849	5802.0875
304.81948	6147.4875
309.03742	6496.5875
313.25231	6716.5875
317.46415	6673.6875
321.67296	6280.7875
325.87872	5895.1875
330.08145	5693.7875
334.28114	5664.4875
338.47781	5738.4875
342.67145	5879.7875
346.86207	6119.0875
351.04966	6490.3875
355.23424	6871.2875
359.4158	7146.3875
363.59435	7185.3875
367.76989	7111.0875
371.94243	6985.8875
376.11196	6868.9875
380.27849	6809.0875
384.44203	6738.2875
388.60257	6699.9875
392.76012	6726.0875
396.91468	6829.6875
401.06626	6986.3875
405.21485	7024.5875
409.36047	6859.2875
413.50311	6558.2875
417.64277	6273.0875
421.77947	6078.7875
425.9132	6001.8875
430.04396	5993.5875
434.17176	6059.1875
438.2966	6143.5875
442.41849	6234.6875
446.53742	6340.1875
450.6534	6448.6875
454.76644	6524.3875
458.87653	6526.8875
462.98368	6526.4875
467.08789	6454.6875
471.18916	6388.7875
475.2875	6276.4875
479.38291	6162.3875
483.4754	6069.0875
487.56496	6012.7875
491.6516	5980.3875
495.73531	5984.2875
499.81612	6000.2875
503.89401	6088.8875
507.96899	6132.9875
512.04106	6245.2875
516.11023	6345.4875
520.1765	6427.9875
524.23987	6453.4875
528.30034	6446.4875
532.35792	6388.9875
536.41261	6336.0875
540.46441	6246.0875
544.51333	6182.3875
548.55936	6226.0875
552.60252	6340.1875
556.64279	6453.0875
560.6802	6578.3875
564.71473	6701.8875
568.7464	6906.4875
572.7752	6858.4875
576.80114	6534.3875
580.82422	6299.9875
584.84444	6217.7875
588.86181	6188.1875
592.87633	6233.8875
596.888	6349.4875
600.89682	6714.4875
604.9028	7636.8875
608.90594	9666.2875
612.90624	11931.4875
616.90371	11106.5875
620.89834	8135.1875
624.89015	6884.7875
628.87913	6679.2875
632.86528	6829.2875
636.84862	6997.7875
640.82913	6879.7875
644.80683	6526.0875
648.78172	6375.4875
652.75379	6368.1875
656.72306	6614.2875
660.68952	6854.6875
664.65319	6766.8875
668.61405	6543.3875
672.57211	6477.5875
676.52738	6485.0875
680.47986	6382.8875
684.42955	6284.1875
688.37646	6269.4875
692.32058	6281.7875
696.26192	6323.3875
700.20048	6444.9875
704.13626	6465.5875
708.06928	6435.6875
711.99952	6402.0875
715.927	6352.4875
719.85171	6391.2875
723.77365	6467.3875
727.69284	6417.7875
731.60928	6400.8875
735.52295	6402.3875
739.43388	6438.6875
743.34206	6440.3875
747.24749	6480.9875
751.15017	6477.8875
755.05012	6552.1875
758.94733	6920.3875
762.8418	7700.1875
766.73354	8963.4875
770.62254	9899.0875
774.50882	10009.6875
778.39237	9518.2875
782.27321	8647.3875
786.15132	7652.4875
790.02671	7001.6875
793.89938	6624.7875
797.76935	6531.9875
801.6366	6446.8875
805.50115	6425.7875
809.36299	6396.7875
813.22213	6397.2875
817.07857	6398.4875
820.93231	6388.2875
824.78336	6421.6875
828.63172	6451.8875
832.47738	6441.5875
836.32036	6467.4875
840.16066	6422.6875
843.99827	6416.1875
847.8332	6406.1875
851.66546	6424.3875
855.49504	6420.6875
859.32195	6453.7875
863.1462	6430.6875
866.96777	6449.1875
870.78668	6416.5875
874.60293	6481.0875
878.41652	6464.5875
882.22745	6551.7875
886.03573	6573.6875
889.84136	6576.4875
893.64433	6581.1875
897.44466	6566.6875
901.24235	6551.2875
905.0374	6556.2875
908.8298	6499.1875
912.61957	6471.6875
916.40671	6405.3875
920.19121	6466.9875
923.97308	6542.9875
927.75233	6611.4875
931.52895	6683.6875
935.30295	6662.9875
939.07433	6511.0875
942.84309	6414.7875
946.60924	6370.0875
950.37278	6332.8875
954.13371	6337.6875
957.89203	6330.7875
961.64774	6340.0875
965.40086	6342.0875
969.15137	6304.1875
972.89929	6338.0875
976.64461	6347.1875
980.38733	6335.8875
984.12747	6355.1875
987.86502	6367.9875
991.59999	6408.5875
995.33237	6484.4875
999.06217	6557.6875
1002.78939	6619.3875
1006.51404	6778.6875
1010.23611	6862.2875
1013.95561	6927.6875
1017.67255	6943.4875
1021.38692	6920.1875
1025.09872	6845.0875
1028.80796	6759.1875
1032.51465	6760.3875
1036.21877	6752.5875
1039.92035	6778.1875
1043.61937	6825.2875
1047.31584	6876.2875
1051.00976	6907.6875
1054.70114	6903.9875
1058.38998	6917.8875
1062.07627	6914.6875
1065.76003	6931.3875
1069.44126	7016.9875
1073.11995	7109.3875
1076.79611	7239.2875
1080.46974	7356.6875
1084.14085	7535.9875
1087.80943	7652.8875
1091.47549	7692.5875
1095.13903	7625.6875
1098.80005	7511.3875
1102.45857	7409.6875
1106.11456	7385.1875
1109.76805	7307.8875
1113.41903	7434.5875
1117.06751	7559.8875
1120.71348	7810.0875
1124.35696	8178.2875
1127.99793	8453.3875
1131.63641	8309.8875
1135.2724	7910.8875
1138.90589	7621.7875
1142.5369	7445.7875
1146.16542	7353.9875
1149.79145	7256.5875
1153.415	7203.8875
1157.03607	7185.1875
1160.65467	7265.2875
1164.27079	7456.7875
1167.88443	7701.2875
1171.49561	8075.8875
1175.10432	8651.4875
1178.71056	9496.9875
1182.31434	10228.9875
1185.91565	10482.8875
1189.51451	10333.4875
1193.11091	10093.7875
1196.70485	9891.1875
1200.29634	9695.9875
1203.88538	9434.3875
1207.47197	9012.1875
1211.05612	8609.0875
1214.63782	8256.8875
1218.21708	7994.5875
1221.79391	7857.1875
1225.36829	7767.5875
1228.94024	7742.6875
1232.50976	7765.5875
1236.07685	7790.4875
1239.6415	7803.6875
1243.20374	7839.3875
1246.76355	7878.7875
1250.32093	7960.2875
1253.8759	8031.5875
1257.42845	8199.5875
1260.97859	8415.5875
1264.52631	8627.1875
1268.07163	8753.6875
1271.61453	8899.1875
1275.15503	8934.3875
1278.69312	8927.3875
1282.22882	8992.9875
1285.76211	9192.1875
1289.29301	9423.9875
1292.82151	9673.4875
1296.34761	9894.5875
1299.87133	10265.2875
1303.39266	10954.1875
1306.9116	12025.0875
1310.42815	13208.8875
1313.94233	13613.1875
1317.45412	12858.2875
1320.96354	11776.4875
1324.47058	10796.2875
1327.97525	10106.1875
1331.47754	9708.0875
1334.97747	9621.3875
1338.47502	9753.5875
1341.97022	10097.9875
1345.46305	10783.0875
1348.95352	11814.9875
1352.44163	13004.2875
1355.92738	14222.0875
1359.41078	15760.3875
1362.89183	17141.7875
1366.37053	16521.5875
1369.84688	13820.4875
1373.32088	11347.0875
1376.79254	10054.3875
1380.26186	9447.7875
1383.72883	9078.5875
1387.19347	8668.5875
1390.65578	8357.1875
1394.11575	8122.8875
1397.57339	7982.8875
1401.0287	7891.2875
1404.48168	7854.0875
1407.93234	7861.8875
1411.38068	7879.1875
1414.82669	7957.2875
1418.27039	8064.3875
1421.71177	8046.9875
1425.15083	7942.2875
1428.58758	7864.3875
1432.02203	7898.5875
1435.45416	8004.8875
1438.88399	7992.7875
1442.31151	7980.7875
1445.73673	8052.6875
1449.15965	8090.8875
1452.58027	8103.0875
1455.9986	8111.6875
1459.41463	8104.3875
1462.82837	8210.9875
1466.23982	8388.2875
1469.64898	8581.0875
1473.05586	8720.6875
1476.46045	8801.1875
1479.86276	8875.6875
1483.26279	8956.7875
1486.66054	9132.5875
1490.05602	9380.2875
1493.44922	9885.5875
1496.84016	10697.3875
1500.22882	11976.8875
1503.61521	13579.5875
1506.99934	15228.3875
1510.38121	16354.5875
1513.76081	16222.6875
1517.13816	14811.7875
1520.51324	12814.6875
1523.88607	11194.6875
1527.25665	10261.7875
1530.62498	9762.2875
1533.99105	9567.5875
1537.35488	9473.3875
1540.71647	9368.8875
1544.07581	9279.7875
1547.4329	9188.3875
1550.78776	9086.2875
1554.14038	8975.4875
1557.49077	8943.4875
1560.83892	9014.3875
1564.18484	9218.8875
1567.52853	9521.6875
1570.86999	9813.1875
1574.20922	9953.7875
1577.54624	9863.2875
1580.88103	9388.3875
1584.2136	8736.2875
1587.54395	8440.5875
1590.87208	8362.5875
1594.19801	8540.4875
1597.52172	8877.7875
1600.84321	9030.8875
1604.16251	8901.5875
1607.47959	8720.2875
1610.79447	8547.3875
1614.10715	8254.5875
1617.41763	7966.6875
1620.7259	7705.9875
1624.03199	7531.4875
1627.33587	7493.8875
1630.63757	7535.5875
1633.93707	7758.7875
1637.23439	8157.8875
1640.52951	8823.2875
1643.82246	9744.7875
1647.11321	10834.6875
1650.40179	11495.0875
1653.68819	11148.6875
1656.97241	9972.7875
1660.25446	8655.5875
1663.53433	7707.1875
1666.81203	7130.9875
1670.08756	6813.3875
1673.36092	6653.9875
1676.63211	6513.9875
1679.90115	6420.5875
1683.16801	6343.9875
1686.43272	6251.5875
1689.69527	6214.3875
1692.95567	6154.2875
1696.2139	6133.4875
1699.46999	6082.6875
1702.72392	6072.7875
1705.97571	6061.5875
1709.22535	6056.6875
1712.47284	6102.2875
1715.71819	6109.8875
1718.96139	6112.7875
1722.20246	6086.6875
1725.44139	6062.1875
1728.67818	6018.7875
1731.91284	5983.8875
1735.14537	5941.4875
1738.37576	5932.6875
1741.60403	5909.9875
1744.83017	5879.6875
1748.05418	5892.3875
1751.27607	5896.0875
1754.49584	5852.0875
1757.71349	5817.5875
1760.92903	5825.4875
1764.14244	5779.5875
1767.35375	5787.2875
1770.56294	5771.9875
1773.77002	5759.7875
1776.97499	5755.6875
1780.17785	5740.3875
1783.37861	5717.8875
1786.57727	5734.1875
1789.77382	5691.8875
1792.96828	5710.8875
1796.16064	5727.2875
1799.3509	5696.4875
1802.53907	5717.7875
1805.72514	5685.9875
1808.90913	5640.5875
1812.09102	5642.1875
1815.27083	5643.8875
1818.44856	5621.9875
1821.6242	5609.6875
1824.79776	5596.6875
1827.96924	5566.8875
1831.13864	5562.7875
1834.30597	5567.1875
1837.47122	5546.4875
1840.6344	5550.3875
1843.7955	5529.6875
1846.95454	5506.6875
1850.11151	5529.5875
1853.26642	5508.6875
1856.41926	5524.1875
1859.57004	5508.5875
1862.71876	5511.2875
1865.86542	5493.1875
1869.01003	5493.0875
1872.15258	5472.2875
1875.29308	5476.2875
1878.43152	5470.4875
1881.56792	5444.6875
1884.70227	5428.3875
1887.83457	5447.7875
1890.96482	5398.3875
1894.09304	5414.3875
1897.21921	5396.8875
1900.34335	5415.8875
1903.46544	5385.2875
1906.58551	5424.9875
1909.70353	5392.5875
1912.81953	5385.1875
1915.93349	5389.7875
1919.04543	5359.4875
1922.15534	5346.3875
1925.26322	5356.2875
1928.36908	5339.3875
1931.47292	5326.5875
1934.57473	5341.8875
1937.67453	5305.2875
1940.77232	5267.0875
1943.86808	5259.4875
1946.96184	5267.0875
1950.05358	5229.5875
1953.14331	5209.1875
1956.23103	5221.4875
1959.31675	5187.4875
1962.40046	5148.8875
1965.48217	5169.5875
1968.56188	5156.0875
1971.63959	5129.0875
1974.7153	5126.8875
1977.78901	5123.0875
1980.86073	5113.2875
1983.93046	5051.7875
1986.99819	4982.8875
1990.06394	5003.5875
1993.1277	5015.1875
1996.18947	4996.5875
1999.24925	4965.9875
2002.30706	4965.6875
2005.36288	4947.6875
2008.41672	4934.2875
2011.46859	4898.7875
2014.51848	4896.9875
2017.56639	4874.3875
2020.61233	4858.3875
2023.6563	4860.1875
2026.6983	4811.0875
2029.73833	4810.5875
2032.7764	4821.1875
2035.8125	4783.3875
2038.84664	4781.4875
2041.87881	4755.7875
2044.90903	4762.7875
2047.93729	4755.6875
2050.96359	4728.9875
2053.98794	4743.7875
2057.01034	4760.7875
2060.03078	4725.8875
2063.04927	4702.3875
2066.06582	4717.9875
2069.08042	4701.5875
2072.09307	4712.3875
2075.10378	4712.7875
2078.11255	4690.1875
2081.11938	4698.5875
2084.12426	4690.7875
2087.12722	4679.0875
2090.12824	4678.5875
2093.12732	4678.8875
2096.12447	4688.3875
2099.11969	4683.2875
2102.11299	4687.1875
2105.10435	4696.5875
2108.09379	4688.6875
2111.08131	4678.0875
2114.0669	4681.6875
2117.05057	4667.5875
2120.03233	4662.2875
2123.01216	4691.3875
2125.99008	4690.0875
2128.96609	4690.8875
2131.94018	4714.3875
2134.91236	4699.6875
2137.88263	4713.3875
2140.851	4700.4875
2143.81746	4707.2875
2146.78201	4702.7875
2149.74466	4692.2875
2152.7054	4699.2875
2155.66425	4683.4875
2158.6212	4679.5875
2161.57625	4648.9875
2164.52941	4637.6875
2167.48067	4657.4875
2170.43004	4646.4875
2173.37752	4665.3875
2176.32311	4650.7875
2179.26681	4654.2875
2182.20863	4648.5875
2185.14856	4651.8875
2188.08661	4645.4875
2191.02278	4662.7875
2193.95707	4627.2875
2196.88948	4626.2875
2199.82001	4638.4875
2202.74867	4625.3875
2205.67545	4622.1875
2208.60037	4621.0875
2211.52341	4602.5875
2214.44458	4581.3875
2217.36388	4581.6875
2220.28132	4572.8875
2223.1969	4531.4875
2226.11061	4544.2875
2229.02246	4539.4875
2231.93245	4529.7875
2234.84058	4509.3875
2237.74686	4511.7875
2240.65128	4484.5875
2243.55385	4497.2875
2246.45456	4482.3875
2249.35343	4505.5875
2252.25044	4477.9875
2255.14561	4478.1875
2258.03893	4483.5875
2260.93041	4457.6875
2263.82004	4443.1875
2266.70783	4446.0875
2269.59378	4420.2875
2272.4779	4402.1875
2275.36017	4399.2875
2278.24061	4400.6875
2281.11922	4343.1875
2283.996	4369.7875
2286.87094	4350.6875
2289.74405	4368.7875
2292.61534	4368.8875
2295.4848	4338.2875
2298.35243	4333.8875
2301.21824	4332.1875
2304.08223	4315.1875
2306.94439	4316.6875
2309.80474	4325.7875
2312.66327	4322.2875
2315.51999	4301.0875
2318.37489	4295.0875
2321.22797	4271.8875
2324.07925	4270.7875
2326.92871	4270.2875
2329.77637	4262.5875
2332.62222	4250.9875
2335.46626	4231.9875
2338.3085	4221.6875
2341.14893	4243.2875
2343.98756	4224.1875
2346.8244	4216.1875
2349.65943	4207.0875
2352.49267	4210.2875
2355.32411	4219.6875
2358.15376	4208.7875
2360.98161	4215.3875
2363.80768	4189.0875
2366.63195	4188.1875
2369.45444	4195.3875
2372.27514	4192.5875
2375.09405	4217.1875
2377.91118	4166.2875
2380.72652	4159.5875
2383.54009	4154.3875
2386.35187	4166.8875
2389.16188	4125.2875
2391.97011	4134.9875
2394.77657	4120.6875
2397.58125	4118.6875
2400.38416	4103.8875
2403.18529	4086.8875
2405.98466	4077.9875
2408.78226	4080.8875
2411.57809	4077.3875
2414.37216	4049.8875
2417.16446	4050.2875
2419.955	4046.1875
2422.74378	4059.3875
2425.5308	4040.6875
2428.31606	4046.8875
2431.09956	4043.1875
2433.88131	3994.7875
2436.6613	4020.2875
2439.43954	4001.9875
2442.21603	4016.0875
2444.99077	3993.6875
2447.76377	4010.0875
2450.53501	4004.0875
2453.30451	3982.1875
2456.07226	3987.3875
2458.83827	3981.7875
2461.60254	3938.0875
2464.36507	3983.5875
2467.12586	3945.9875
2469.88492	3943.8875
2472.64224	3961.9875
2475.39782	3937.8875
2478.15167	3961.1875
2480.90379	3940.5875
2483.65417	3955.9875
2486.40283	3961.9875
2489.14976	3963.7875
2491.89497	3936.6875
2494.63845	3950.4875
2497.3802	3941.3875
2500.12024	3936.6875
2502.85855	3925.4875
2505.59514	3910.0875
2508.33002	3914.9875
2511.06318	3882.4875
2513.79462	3890.2875
2516.52435	3866.7875
2519.25237	3845.9875
2521.97867	3844.4875
2524.70327	3845.9875
2527.42616	3852.0875
2530.14734	3862.0875
2532.86681	3823.0875
2535.58458	3815.2875
2538.30065	3813.7875
2541.01501	3826.6875
2543.72768	3803.6875
2546.43864	3806.6875
2549.14791	3794.3875
2551.85548	3780.2875
2554.56136	3782.7875
2557.26554	3788.4875
2559.96803	3774.7875
2562.66883	3763.6875
2565.36794	3749.1875
2568.06536	3714.1875
2570.7611	3736.1875
2573.45514	3710.1875
2576.14751	3710.6875
2578.83819	3701.4875
2581.52719	3690.1875
2584.21451	3702.5875
2586.90015	3680.3875
2589.58411	3643.1875
2592.2664	3685.0875
2594.94701	3666.2875
2597.62594	3667.7875
2600.30321	3592.0875
2602.9788	3609.8875
2605.65273	3615.1875
2608.32498	3607.6875
2610.99557	3633.0875
2613.66449	3597.7875
2616.33175	3613.2875
2618.99734	3600.6875
2621.66128	3606.6875
2624.32355	3578.6875
2626.98416	3573.0875
2629.64311	3554.8875
2632.30041	3562.7875
2634.95605	3546.2875
2637.61004	3540.3875
2640.26238	3503.3875
2642.91306	3521.8875
2645.56209	3552.0875
2648.20948	3520.3875
2650.85521	3507.6875
2653.4993	3538.3875
2656.14175	3524.2875
2658.78255	3518.6875
2661.42171	3493.3875
2664.05923	3522.2875
2666.6951	3526.4875
2669.32934	3518.8875
2671.96194	3532.2875
2674.59291	3527.0875
2677.22224	3532.0875
2679.84993	3526.0875
2682.476	3509.2875
2685.10043	3515.3875
2687.72324	3505.6875
2690.34441	3486.3875
2692.96396	3491.3875
2695.58188	3510.6875
2698.19818	3494.0875
2700.81285	3481.7875
2703.4259	3485.6875
2706.03733	3454.4875
2708.64714	3453.8875
2711.25533	3470.6875
2713.86191	3483.0875
2716.46687	3478.0875
2719.07021	3474.8875
2721.67194	3462.2875
2724.27206	3485.5875
2726.87057	3473.4875
2729.46747	3464.8875
2732.06276	3463.6875
2734.65644	3457.8875
2737.24852	3453.3875
2739.83899	3430.9875
2742.42786	3430.3875
2745.01513	3445.5875
2747.60079	3421.4875
2750.18486	3411.0875
2752.76733	3414.8875
2755.3482	3403.8875
2757.92747	3422.7875
2760.50515	3398.6875
2763.08123	3388.1875
2765.65573	3378.9875
2768.22863	3383.0875
2770.79994	3366.6875
2773.36967	3360.0875
2775.9378	3346.7875
2778.50435	3347.6875
2781.06932	3350.6875
2783.6327	3340.2875
2786.1945	3347.3875
2788.75471	3346.6875
2791.31335	3315.1875
2793.87041	3326.4875
2796.42589	3308.7875
2798.97979	3290.7875
2801.53212	3302.1875
2804.08288	3308.2875
2806.63206	3306.0875
2809.17967	3263.7875
2811.72571	3278.6875
2814.27018	3281.2875
2816.81308	3263.6875
2819.35442	3218.1875
2821.89419	3252.3875
2824.43239	3213.2875
2826.96904	3263.6875
2829.50412	3227.7875
2832.03763	3223.5875
2834.56959	3227.8875
2837.1	3217.0875
2839.62884	3225.1875
2842.15613	3203.9875
2844.68186	3213.3875
2847.20604	3175.0875
2849.72867	3190.1875
2852.24974	3192.9875
2854.76927	3154.3875
2857.28724	3099.9875
2859.80367	3168.7875
2862.31855	3172.3875
2864.83189	3154.4875
2867.34368	3153.1875
2869.85393	3171.5875
2872.36264	3143.8875
2874.8698	3147.1875
2877.37543	3152.3875
2879.87952	3148.7875
2882.38207	3120.9875
2884.88308	3128.6875
2887.38256	3134.4875
2889.88051	3128.7875
2892.37692	3120.4875
2894.8718	3113.7875
2897.36515	3131.6875
2899.85698	3112.0875
2902.34727	3114.0875
2904.83604	3121.1875
2907.32328	3128.5875
2909.809	3128.6875
2912.29319	3120.0875
2914.77587	3140.6875
2917.25702	3157.8875
2919.73665	3152.7875
2922.21476	3148.5875
2924.69136	3135.2875
2927.16644	3132.0875
2929.64	3118.1875
2932.11205	3109.2875
2934.58258	3099.0875
2937.05161	3102.9875
2939.51912	3105.6875
2941.98513	3111.7875
2944.44962	3089.6875
2946.91261	3065.5875
2949.37409	3079.1875
2951.83407	3072.3875
2954.29254	3069.7875
2956.74951	3068.5875
2959.20498	3045.4875
2961.65895	3049.5875
2964.11142	3031.2875
2966.56239	3043.1875
2969.01186	3045.2875
2971.45984	3038.9875
2973.90632	3033.1875
2976.35131	3048.4875
2978.7948	3022.3875
2981.23681	3002.8875
2983.67732	3006.4875
2986.11635	2998.7875
2988.55388	2963.4875
2990.98993	2983.9875
2993.4245	2966.2875
2995.85758	2961.4875
2998.28917	2948.1875
3000.71928	2930.7875
3003.14791	2947.4875
3005.57506	2921.8875
3008.00073	2906.1875
3010.42493	2844.0875
3012.84764	2897.8875
3015.26888	2900.9875
3017.68865	2899.9875
3020.10694	2850.4875
3022.52376	2864.3875
3024.9391	2862.3875
3027.35298	2848.7875
3029.76539	2846.8875
3032.17632	2833.7875
3034.5858	2825.7875
3036.9938	2828.1875
3039.40034	2830.5875
3041.80542	2814.6875
3044.20903	2815.2875
3046.61118	2792.4875
3049.01187	2801.4875
3051.4111	2804.5875
3053.80888	2785.3875
3056.20519	2757.3875
3058.60005	2756.3875
3060.99345	2780.7875
3063.3854	2756.1875
3065.7759	2726.3875
3068.16494	2726.6875
3070.55254	2715.7875
3072.93868	2726.6875
3075.32338	2708.5875
3077.70662	2705.5875
3080.08842	2697.0875
3082.46878	2685.8875
3084.84769	2711.3875
3087.22515	2686.1875
3089.60118	2688.6875
3091.97576	2668.5875
3094.3489	2682.5875
3096.72061	2659.4875
3099.09087	2660.2875
3101.4597	2679.3875
3103.82709	2672.7875
3106.19305	2658.2875
3108.55757	2654.3875
3110.92066	2642.8875
3113.28232	2660.1875
3115.64255	2647.7875
3118.00134	2644.5875
3120.35871	2615.2875
3122.71466	2595.9875
3125.06917	2610.0875
3127.42226	2603.8875
3129.77393	2587.8875
3132.12417	2594.3875
3134.47299	2607.5875
3136.82039	2585.1875
3139.16636	2556.0875
3141.51092	2573.5875
3143.85406	2574.6875
3146.19579	2564.3875
3148.53609	2556.0875
3150.87499	2568.0875
3153.21246	2550.9875
3155.54853	2565.8875
3157.88318	2557.3875
3160.21642	2569.9875
3162.54826	2564.5875
3164.87868	2561.2875
3167.2077	2530.8875
3169.5353	2550.3875
3171.86151	2550.1875
3174.18631	2542.7875
3176.5097	2533.5875
3178.83169	2531.3875
3181.15228	2534.1875
3183.47147	2502.7875
3185.78926	2483.6875
3188.10565	2500.2875
3190.42065	2479.3875
3192.73424	2482.5875
3195.04645	2470.8875
3197.35725	2462.7875
3199.66667	2474.5875
3201.97469	2471.1875
3204.28132	2459.5875
3206.58656	2467.7875
3208.8904	2478.5875
3211.19287	2470.9875
3213.49394	2458.2875
3215.79363	2445.8875
3218.09193	2462.3875
3220.38884	2454.6875
3222.68438	2445.4875
3224.97853	2426.7875
3227.2713	2454.1875
3229.56269	2436.3875
3231.8527	2442.1875
3234.14133	2425.6875
3236.42858	2418.8875
3238.71446	2397.6875
3240.99896	2423.7875
3243.28209	2386.4875
3245.56384	2407.1875
3247.84423	2391.7875
3250.12324	2389.2875
3252.40088	2390.3875
3254.67715	2372.0875
3256.95205	2369.6875
3259.22558	2383.7875
3261.49775	2374.9875
3263.76855	2375.7875
3266.03799	2383.5875
3268.30606	2380.4875
3270.57277	2363.9875
3272.83812	2353.3875
3275.10211	2350.3875
3277.36474	2361.7875
3279.62601	2340.0875
3281.88593	2330.9875
3284.14448	2306.5875
3286.40168	2323.4875
3288.65753	2304.6875
3290.91202	2311.0875
3293.16516	2290.6875
3295.41695	2322.0875
3297.66738	2318.9875
3299.91647	2290.0875
3302.16421	2280.7875
3304.4106	2239.2875
3306.65564	2256.2875
3308.89933	2224.7875
3311.14169	2219.1875
3313.38269	2208.3875
3315.62236	2191.9875
3317.86068	2169.9875
3320.09766	2158.5875
3322.3333	2119.5875
3324.5676	2122.3875
3326.80056	2085.3875
3329.03219	2080.8875
3331.26248	0.1875
3333.49143	-1.2125
3335.71905	-0.6125
