Data from AgNPs_UA_50uM_CRN_500uM_SU_RamanShift__47__14-03-40-323.txt Node

Date: Thu Aug 04 14:03:40 BST 2022
User: TCL
Spectrometer: QEP01345
Trigger mode: 4
Integration Time (sec): 1.000000E0
Scans to average: 10
Electric dark correction enabled: true
Nonlinearity correction enabled: false
Boxcar width: 0
XAxis mode: Raman Shifts
Number of Pixels in Spectrum: 1044
>>>>>Begin Spectral Data<<<<<
46.04893	1.675
50.45542	-0.725
54.85868	0.475
59.25871	-1.125
63.6555	18.175
68.04907	15.975
72.43941	17.775
76.82654	18.875
81.21044	17.175
85.59113	21.175
89.96862	21.975
94.34289	22.375
98.71396	24.475
103.08183	22.575
107.4465	25.175
111.80798	24.375
116.16626	24.075
120.52136	27.775
124.87327	29.075
129.222	33.175
133.56755	35.275
137.90993	35.075
142.24913	40.275
146.58517	45.575
150.91804	54.975
155.24774	63.875
159.57429	82.875
163.89768	104.775
168.21792	140.975
172.53501	197.675
176.84895	276.775
181.15975	396.975
185.46741	561.875
189.77193	779.975
194.07331	1060.575
198.37157	1364.175
202.6667	1694.375
206.9587	2014.075
211.24758	2350.075
215.53334	2697.475
219.81599	3054.075
224.09553	3467.975
228.37195	3939.475
232.64527	4410.875
236.91549	4883.775
241.18261	5275.875
245.44663	5588.175
249.70755	5823.675
253.96539	6038.175
258.22014	6226.675
262.4718	6394.675
266.72039	6506.975
270.96589	6522.275
275.20832	6472.675
279.44768	6375.675
283.68397	6266.975
287.91719	6187.475
292.14735	6215.375
296.37445	6329.175
300.59849	6574.975
304.81948	6865.975
309.03742	7161.875
313.25231	7327.175
317.46415	7243.375
321.67296	6899.875
325.87872	6538.275
330.08145	6357.175
334.28114	6335.275
338.47781	6421.675
342.67145	6568.575
346.86207	6812.075
351.04966	7098.675
355.23424	7431.675
359.4158	7637.275
363.59435	7745.875
367.76989	7725.575
371.94243	7656.275
376.11196	7589.975
380.27849	7553.975
384.44203	7542.675
388.60257	7537.775
392.76012	7579.975
396.91468	7714.775
401.06626	7815.375
405.21485	7831.275
409.36047	7717.275
413.50311	7410.075
417.64277	7148.775
421.77947	6953.675
425.9132	6871.275
430.04396	6839.075
434.17176	6900.675
438.2966	6979.075
442.41849	7069.475
446.53742	7218.575
450.6534	7385.775
454.76644	7468.375
458.87653	7501.975
462.98368	7492.175
467.08789	7455.975
471.18916	7311.775
475.2875	7136.675
479.38291	7000.775
483.4754	6932.875
487.56496	6879.475
491.6516	6841.675
495.73531	6839.475
499.81612	6850.175
503.89401	6919.375
507.96899	6949.875
512.04106	7021.675
516.11023	7078.975
520.1765	7146.275
524.23987	7155.075
528.30034	7139.975
532.35792	7113.175
536.41261	7041.575
540.46441	6942.275
544.51333	6904.875
548.55936	6950.075
552.60252	7047.575
556.64279	7205.275
560.6802	7304.175
564.71473	7430.675
568.7464	7567.675
572.7752	7531.375
576.80114	7258.775
580.82422	7028.375
584.84444	6923.575
588.86181	6921.575
592.87633	6944.775
596.888	7094.775
600.89682	7481.075
604.9028	8473.975
608.90594	10629.575
612.90624	12834.075
616.90371	11749.675
620.89834	8733.275
624.89015	7490.775
628.87913	7343.375
632.86528	7524.875
636.84862	7628.275
640.82913	7434.175
644.80683	7089.875
648.78172	6905.975
652.75379	6940.875
656.72306	7193.975
660.68952	7462.775
664.65319	7396.575
668.61405	7215.875
672.57211	7247.575
676.52738	7248.275
680.47986	7075.875
684.42955	6927.275
688.37646	6860.175
692.32058	6935.175
696.26192	7072.175
700.20048	7211.175
704.13626	7211.875
708.06928	7122.675
711.99952	7058.675
715.927	7046.975
719.85171	7093.275
723.77365	7113.675
727.69284	7049.075
731.60928	6963.575
735.52295	6948.175
739.43388	6977.075
743.34206	7005.475
747.24749	7014.475
751.15017	7034.375
755.05012	7104.375
758.94733	7423.575
762.8418	8200.275
766.73354	9353.075
770.62254	10255.175
774.50882	10392.775
778.39237	9960.275
782.27321	9159.575
786.15132	8210.575
790.02671	7542.975
793.89938	7214.175
797.76935	7064.675
801.6366	6983.175
805.50115	6937.475
809.36299	6907.475
813.22213	6894.775
817.07857	6897.475
820.93231	6888.075
824.78336	6928.075
828.63172	6936.775
832.47738	6953.475
836.32036	6910.575
840.16066	6863.375
843.99827	6857.975
847.8332	6848.875
851.66546	6862.775
855.49504	6867.675
859.32195	6878.775
863.1462	6871.275
866.96777	6883.875
870.78668	6862.175
874.60293	6875.075
878.41652	6920.575
882.22745	6977.275
886.03573	7012.075
889.84136	6991.875
893.64433	6956.175
897.44466	6938.975
901.24235	6936.875
905.0374	6928.475
908.8298	6871.875
912.61957	6851.475
916.40671	6872.075
920.19121	6885.875
923.97308	6942.875
927.75233	7049.575
931.52895	7088.575
935.30295	7013.275
939.07433	6867.675
942.84309	6770.975
946.60924	6731.375
950.37278	6728.875
954.13371	6704.575
957.89203	6697.875
961.64774	6702.375
965.40086	6680.275
969.15137	6681.975
972.89929	6662.075
976.64461	6661.375
980.38733	6664.075
984.12747	6687.475
987.86502	6695.375
991.59999	6734.175
995.33237	6778.475
999.06217	6866.975
1002.78939	6966.875
1006.51404	7101.875
1010.23611	7229.275
1013.95561	7277.575
1017.67255	7299.875
1021.38692	7252.375
1025.09872	7154.375
1028.80796	7084.975
1032.51465	7093.075
1036.21877	7093.875
1039.92035	7142.875
1043.61937	7158.975
1047.31584	7168.275
1051.00976	7173.175
1054.70114	7190.075
1058.38998	7201.675
1062.07627	7250.275
1065.76003	7305.675
1069.44126	7386.475
1073.11995	7531.875
1076.79611	7693.875
1080.46974	7830.775
1084.14085	7954.675
1087.80943	8054.175
1091.47549	8083.875
1095.13903	8046.675
1098.80005	7992.675
1102.45857	8012.775
1106.11456	7970.975
1109.76805	7872.975
1113.41903	7900.075
1117.06751	7997.375
1120.71348	8193.375
1124.35696	8461.075
1127.99793	8603.775
1131.63641	8461.275
1135.2724	8108.675
1138.90589	7843.875
1142.5369	7698.875
1146.16542	7597.875
1149.79145	7548.875
1153.415	7451.675
1157.03607	7401.575
1160.65467	7489.275
1164.27079	7638.575
1167.88443	7889.275
1171.49561	8267.075
1175.10432	8915.475
1178.71056	9753.975
1182.31434	10462.475
1185.91565	10652.275
1189.51451	10500.175
1193.11091	10187.175
1196.70485	9862.675
1200.29634	9576.775
1203.88538	9269.775
1207.47197	8887.175
1211.05612	8500.775
1214.63782	8221.975
1218.21708	7994.775
1221.79391	7884.675
1225.36829	7780.875
1228.94024	7789.475
1232.50976	7793.075
1236.07685	7818.675
1239.6415	7852.375
1243.20374	7878.275
1246.76355	7947.775
1250.32093	8021.575
1253.8759	8142.675
1257.42845	8378.275
1260.97859	8663.775
1264.52631	8919.275
1268.07163	9091.275
1271.61453	9172.275
1275.15503	9190.175
1278.69312	9178.575
1282.22882	9159.775
1285.76211	9322.375
1289.29301	9497.275
1292.82151	9727.675
1296.34761	9922.775
1299.87133	10292.275
1303.39266	10944.275
1306.9116	11944.475
1310.42815	13036.775
1313.94233	13359.475
1317.45412	12740.275
1320.96354	11804.175
1324.47058	10961.875
1327.97525	10261.875
1331.47754	9821.375
1334.97747	9734.175
1338.47502	9872.575
1341.97022	10266.175
1345.46305	10928.275
1348.95352	11890.375
1352.44163	12967.875
1355.92738	14150.175
1359.41078	15574.975
1362.89183	16695.375
1366.37053	15875.475
1369.84688	13410.875
1373.32088	11195.175
1376.79254	9983.475
1380.26186	9411.375
1383.72883	9041.175
1387.19347	8730.975
1390.65578	8409.675
1394.11575	8130.975
1397.57339	7935.575
1401.0287	7807.575
1404.48168	7794.875
1407.93234	7828.075
1411.38068	7998.475
1414.82669	8145.275
1418.27039	8224.375
1421.71177	8204.175
1425.15083	8137.575
1428.58758	8076.575
1432.02203	8104.375
1435.45416	8145.775
1438.88399	8139.875
1442.31151	8120.675
1445.73673	8119.075
1449.15965	8141.075
1452.58027	8096.375
1455.9986	8009.375
1459.41463	7961.575
1462.82837	8034.075
1466.23982	8160.975
1469.64898	8358.175
1473.05586	8464.675
1476.46045	8579.575
1479.86276	8648.375
1483.26279	8834.875
1486.66054	9035.575
1490.05602	9366.075
1493.44922	9861.575
1496.84016	10669.975
1500.22882	11856.575
1503.61521	13325.475
1506.99934	14772.275
1510.38121	15665.275
1513.76081	15479.475
1517.13816	14168.475
1520.51324	12359.475
1523.88607	10869.875
1527.25665	9945.375
1530.62498	9448.175
1533.99105	9174.575
1537.35488	9025.075
1540.71647	8908.675
1544.07581	8823.075
1547.4329	8742.975
1550.78776	8670.275
1554.14038	8634.075
1557.49077	8708.675
1560.83892	8868.175
1564.18484	9136.975
1567.52853	9477.575
1570.86999	9688.775
1574.20922	9759.675
1577.54624	9583.375
1580.88103	9117.375
1584.2136	8546.675
1587.54395	8212.375
1590.87208	8193.175
1594.19801	8470.675
1597.52172	8786.675
1600.84321	8923.075
1604.16251	8809.075
1607.47959	8613.675
1610.79447	8353.975
1614.10715	7997.675
1617.41763	7597.375
1620.7259	7338.575
1624.03199	7230.175
1627.33587	7191.575
1630.63757	7297.275
1633.93707	7555.375
1637.23439	8046.875
1640.52951	8835.975
1643.82246	9948.375
1647.11321	11179.675
1650.40179	11798.675
1653.68819	11260.475
1656.97241	9899.875
1660.25446	8487.575
1663.53433	7549.075
1666.81203	6987.875
1670.08756	6673.875
1673.36092	6476.775
1676.63211	6348.475
1679.90115	6264.075
1683.16801	6192.275
1686.43272	6135.975
1689.69527	6073.975
1692.95567	6035.375
1696.2139	6015.675
1699.46999	5996.375
1702.72392	5991.675
1705.97571	5988.675
1709.22535	5998.175
1712.47284	6005.675
1715.71819	5994.475
1718.96139	6004.475
1722.20246	5967.375
1725.44139	5942.875
1728.67818	5912.275
1731.91284	5850.275
1735.14537	5847.875
1738.37576	5824.175
1741.60403	5780.675
1744.83017	5773.075
1748.05418	5789.175
1751.27607	5747.975
1754.49584	5722.975
1757.71349	5727.675
1760.92903	5712.775
1764.14244	5700.275
1767.35375	5692.575
1770.56294	5677.675
1773.77002	5653.075
1776.97499	5634.175
1780.17785	5602.175
1783.37861	5600.575
1786.57727	5578.675
1789.77382	5559.175
1792.96828	5557.475
1796.16064	5560.975
1799.3509	5557.475
1802.53907	5552.075
1805.72514	5514.775
1808.90913	5512.275
1812.09102	5486.075
1815.27083	5475.575
1818.44856	5449.575
1821.6242	5465.775
1824.79776	5422.875
1827.96924	5425.575
1831.13864	5398.375
1834.30597	5408.475
1837.47122	5388.175
1840.6344	5377.775
1843.7955	5363.875
1846.95454	5365.675
1850.11151	5362.075
1853.26642	5357.375
1856.41926	5351.775
1859.57004	5347.575
1862.71876	5344.075
1865.86542	5324.075
1869.01003	5327.975
1872.15258	5320.075
1875.29308	5328.775
1878.43152	5312.375
1881.56792	5305.475
1884.70227	5289.575
1887.83457	5278.875
1890.96482	5278.275
1894.09304	5272.975
1897.21921	5252.075
1900.34335	5240.875
1903.46544	5215.575
1906.58551	5218.575
1909.70353	5202.975
1912.81953	5196.875
1915.93349	5200.575
1919.04543	5191.975
1922.15534	5178.475
1925.26322	5164.175
1928.36908	5158.775
1931.47292	5138.875
1934.57473	5131.675
1937.67453	5109.475
1940.77232	5086.875
1943.86808	5084.875
1946.96184	5070.075
1950.05358	5034.875
1953.14331	5028.475
1956.23103	5003.375
1959.31675	4987.175
1962.40046	4987.075
1965.48217	4976.375
1968.56188	4955.975
1971.63959	4949.275
1974.7153	4932.275
1977.78901	4929.775
1980.86073	4903.075
1983.93046	4893.575
1986.99819	4862.075
1990.06394	4847.175
1993.1277	4828.775
1996.18947	4802.175
1999.24925	4804.075
2002.30706	4774.275
2005.36288	4755.175
2008.41672	4724.275
2011.46859	4715.375
2014.51848	4706.975
2017.56639	4688.175
2020.61233	4679.475
2023.6563	4661.675
2026.6983	4654.475
2029.73833	4625.575
2032.7764	4609.575
2035.8125	4598.975
2038.84664	4592.175
2041.87881	4587.375
2044.90903	4560.175
2047.93729	4562.775
2050.96359	4558.875
2053.98794	4535.575
2057.01034	4530.975
2060.03078	4534.875
2063.04927	4535.975
2066.06582	4555.075
2069.08042	4519.775
2072.09307	4509.575
2075.10378	4491.575
2078.11255	4498.975
2081.11938	4491.775
2084.12426	4497.175
2087.12722	4493.775
2090.12824	4493.075
2093.12732	4499.775
2096.12447	4495.575
2099.11969	4506.075
2102.11299	4497.375
2105.10435	4512.975
2108.09379	4487.475
2111.08131	4479.775
2114.0669	4493.675
2117.05057	4499.575
2120.03233	4489.575
2123.01216	4487.575
2125.99008	4487.575
2128.96609	4504.275
2131.94018	4520.175
2134.91236	4495.075
2137.88263	4496.075
2140.851	4505.475
2143.81746	4499.975
2146.78201	4502.575
2149.74466	4485.675
2152.7054	4485.875
2155.66425	4472.975
2158.6212	4485.875
2161.57625	4470.075
2164.52941	4477.875
2167.48067	4463.075
2170.43004	4466.175
2173.37752	4455.075
2176.32311	4468.175
2179.26681	4471.075
2182.20863	4451.375
2185.14856	4479.075
2188.08661	4462.475
2191.02278	4438.275
2193.95707	4428.875
2196.88948	4429.575
2199.82001	4428.475
2202.74867	4433.775
2205.67545	4416.175
2208.60037	4402.575
2211.52341	4415.475
2214.44458	4401.975
2217.36388	4384.175
2220.28132	4375.975
2223.1969	4352.675
2226.11061	4344.875
2229.02246	4327.875
2231.93245	4339.475
2234.84058	4329.775
2237.74686	4294.675
2240.65128	4316.375
2243.55385	4284.675
2246.45456	4280.675
2249.35343	4294.575
2252.25044	4284.075
2255.14561	4295.875
2258.03893	4284.275
2260.93041	4273.775
2263.82004	4269.675
2266.70783	4264.675
2269.59378	4237.275
2272.4779	4245.875
2275.36017	4204.975
2278.24061	4199.375
2281.11922	4199.475
2283.996	4197.575
2286.87094	4182.875
2289.74405	4156.375
2292.61534	4156.575
2295.4848	4157.375
2298.35243	4164.875
2301.21824	4155.875
2304.08223	4141.675
2306.94439	4128.575
2309.80474	4122.575
2312.66327	4137.375
2315.51999	4123.275
2318.37489	4111.775
2321.22797	4119.775
2324.07925	4092.375
2326.92871	4073.675
2329.77637	4072.475
2332.62222	4062.975
2335.46626	4056.475
2338.3085	4064.875
2341.14893	4050.675
2343.98756	4049.175
2346.8244	4053.775
2349.65943	4054.975
2352.49267	4040.475
2355.32411	4054.575
2358.15376	4040.375
2360.98161	4024.575
2363.80768	4040.375
2366.63195	4039.675
2369.45444	4020.175
2372.27514	4024.975
2375.09405	4024.675
2377.91118	4012.875
2380.72652	4011.975
2383.54009	3991.875
2386.35187	3987.275
2389.16188	3969.375
2391.97011	3964.275
2394.77657	3951.075
2397.58125	3932.875
2400.38416	3935.475
2403.18529	3923.175
2405.98466	3918.175
2408.78226	3918.775
2411.57809	3893.775
2414.37216	3896.275
2417.16446	3888.775
2419.955	3891.675
2422.74378	3877.975
2425.5308	3884.675
2428.31606	3876.175
2431.09956	3882.775
2433.88131	3854.575
2436.6613	3861.675
2439.43954	3861.675
2442.21603	3881.075
2444.99077	3863.375
2447.76377	3856.075
2450.53501	3849.275
2453.30451	3839.375
2456.07226	3851.575
2458.83827	3841.675
2461.60254	3832.875
2464.36507	3834.175
2467.12586	3825.975
2469.88492	3833.375
2472.64224	3824.575
2475.39782	3813.575
2478.15167	3812.775
2480.90379	3816.175
2483.65417	3821.075
2486.40283	3800.275
2489.14976	3825.375
2491.89497	3815.375
2494.63845	3798.375
2497.3802	3790.175
2500.12024	3791.975
2502.85855	3790.975
2505.59514	3785.075
2508.33002	3766.975
2511.06318	3759.675
2513.79462	3749.275
2516.52435	3727.075
2519.25237	3730.675
2521.97867	3710.475
2524.70327	3704.675
2527.42616	3699.875
2530.14734	3706.875
2532.86681	3703.975
2535.58458	3705.975
2538.30065	3696.875
2541.01501	3690.875
2543.72768	3693.275
2546.43864	3682.575
2549.14791	3662.175
2551.85548	3667.275
2554.56136	3658.075
2557.26554	3669.175
2559.96803	3641.075
2562.66883	3645.375
2565.36794	3629.475
2568.06536	3622.875
2570.7611	3623.875
2573.45514	3607.275
2576.14751	3607.675
2578.83819	3576.975
2581.52719	3583.475
2584.21451	3566.175
2586.90015	3570.475
2589.58411	3566.475
2592.2664	3551.675
2594.94701	3558.075
2597.62594	3548.875
2600.30321	3529.275
2602.9788	3536.575
2605.65273	3528.975
2608.32498	3530.775
2610.99557	3530.275
2613.66449	3515.275
2616.33175	3536.075
2618.99734	3501.275
2621.66128	3493.275
2624.32355	3484.775
2626.98416	3477.775
2629.64311	3480.975
2632.30041	3475.375
2634.95605	3463.675
2637.61004	3445.275
2640.26238	3430.275
2642.91306	3457.075
2645.56209	3422.975
2648.20948	3447.975
2650.85521	3429.275
2653.4993	3427.875
2656.14175	3424.275
2658.78255	3428.275
2661.42171	3435.375
2664.05923	3424.675
2666.6951	3449.075
2669.32934	3426.475
2671.96194	3426.075
2674.59291	3424.275
2677.22224	3429.875
2679.84993	3423.775
2682.476	3424.175
2685.10043	3415.775
2687.72324	3412.875
2690.34441	3416.275
2692.96396	3401.275
2695.58188	3398.875
2698.19818	3394.075
2700.81285	3413.375
2703.4259	3405.175
2706.03733	3420.875
2708.64714	3408.875
2711.25533	3401.375
2713.86191	3378.475
2716.46687	3389.975
2719.07021	3384.475
2721.67194	3388.575
2724.27206	3388.475
2726.87057	3379.575
2729.46747	3390.675
2732.06276	3378.775
2734.65644	3384.375
2737.24852	3386.575
2739.83899	3376.475
2742.42786	3379.575
2745.01513	3359.275
2747.60079	3364.875
2750.18486	3359.275
2752.76733	3355.375
2755.3482	3356.575
2757.92747	3334.775
2760.50515	3333.875
2763.08123	3328.375
2765.65573	3322.675
2768.22863	3292.575
2770.79994	3285.075
2773.36967	3284.975
2775.9378	3294.275
2778.50435	3304.375
2781.06932	3273.475
2783.6327	3273.675
2786.1945	3265.975
2788.75471	3274.475
2791.31335	3256.975
2793.87041	3260.375
2796.42589	3249.475
2798.97979	3248.375
2801.53212	3249.275
2804.08288	3242.075
2806.63206	3223.075
2809.17967	3217.275
2811.72571	3193.975
2814.27018	3212.475
2816.81308	3198.575
2819.35442	3200.075
2821.89419	3182.275
2824.43239	3184.175
2826.96904	3169.475
2829.50412	3180.075
2832.03763	3171.275
2834.56959	3162.975
2837.1	3145.375
2839.62884	3146.575
2842.15613	3146.675
2844.68186	3145.175
2847.20604	3136.275
2849.72867	3127.575
2852.24974	3127.275
2854.76927	3115.975
2857.28724	3114.575
2859.80367	3105.775
2862.31855	3105.875
2864.83189	3107.975
2867.34368	3118.475
2869.85393	3116.575
2872.36264	3096.575
2874.8698	3095.375
2877.37543	3094.675
2879.87952	3087.175
2882.38207	3077.075
2884.88308	3065.375
2887.38256	3059.575
2889.88051	3056.275
2892.37692	3065.675
2894.8718	3062.075
2897.36515	3053.375
2899.85698	3042.175
2902.34727	3032.475
2904.83604	3055.775
2907.32328	3064.275
2909.809	3080.875
2912.29319	3067.075
2914.77587	3077.375
2917.25702	3064.675
2919.73665	3071.975
2922.21476	3064.275
2924.69136	3056.275
2927.16644	3055.375
2929.64	3047.175
2932.11205	3045.075
2934.58258	3027.775
2937.05161	3027.475
2939.51912	3027.675
2941.98513	3011.275
2944.44962	3007.075
2946.91261	2995.575
2949.37409	2999.675
2951.83407	2998.875
2954.29254	3007.575
2956.74951	2998.575
2959.20498	2994.075
2961.65895	2991.175
2964.11142	2987.175
2966.56239	2990.675
2969.01186	2986.075
2971.45984	2983.175
2973.90632	2973.675
2976.35131	2973.675
2978.7948	2957.075
2981.23681	2965.875
2983.67732	2958.275
2986.11635	2943.575
2988.55388	2938.675
2990.98993	2930.375
2993.4245	2934.075
2995.85758	2928.575
2998.28917	2924.175
3000.71928	2917.975
3003.14791	2902.375
3005.57506	2901.575
3008.00073	2891.375
3010.42493	2882.075
3012.84764	2876.075
3015.26888	2871.875
3017.68865	2867.775
3020.10694	2852.575
3022.52376	2847.575
3024.9391	2833.975
3027.35298	2831.675
3029.76539	2826.275
3032.17632	2819.475
3034.5858	2820.575
3036.9938	2806.575
3039.40034	2792.675
3041.80542	2793.375
3044.20903	2787.675
3046.61118	2780.275
3049.01187	2754.275
3051.4111	2768.375
3053.80888	2763.975
3056.20519	2752.075
3058.60005	2772.575
3060.99345	2756.975
3063.3854	2745.575
3065.7759	2732.375
3068.16494	2716.475
3070.55254	2714.175
3072.93868	2702.475
3075.32338	2699.675
3077.70662	2692.775
3080.08842	2688.175
3082.46878	2684.075
3084.84769	2668.675
3087.22515	2660.175
3089.60118	2662.375
3091.97576	2672.775
3094.3489	2657.975
3096.72061	2662.475
3099.09087	2664.075
3101.4597	2653.575
3103.82709	2652.075
3106.19305	2648.775
3108.55757	2648.475
3110.92066	2625.875
3113.28232	2639.375
3115.64255	2631.875
3118.00134	2626.175
3120.35871	2620.475
3122.71466	2597.075
3125.06917	2592.875
3127.42226	2595.675
3129.77393	2600.275
3132.12417	2590.275
3134.47299	2593.775
3136.82039	2593.875
3139.16636	2588.475
3141.51092	2578.775
3143.85406	2572.675
3146.19579	2569.175
3148.53609	2573.275
3150.87499	2565.475
3153.21246	2572.075
3155.54853	2573.575
3157.88318	2569.175
3160.21642	2574.775
3162.54826	2579.775
3164.87868	2564.175
3167.2077	2563.775
3169.5353	2553.175
3171.86151	2549.575
3174.18631	2546.075
3176.5097	2537.675
3178.83169	2535.975
3181.15228	2526.175
3183.47147	2533.275
3185.78926	2532.575
3188.10565	2496.275
3190.42065	2510.075
3192.73424	2500.175
3195.04645	2497.275
3197.35725	2496.475
3199.66667	2487.975
3201.97469	2496.475
3204.28132	2490.675
3206.58656	2489.075
3208.8904	2504.575
3211.19287	2487.075
3213.49394	2495.775
3215.79363	2488.175
3218.09193	2494.375
3220.38884	2485.775
3222.68438	2486.375
3224.97853	2482.975
3227.2713	2476.775
3229.56269	2468.775
3231.8527	2462.875
3234.14133	2457.675
3236.42858	2443.475
3238.71446	2445.875
3240.99896	2431.975
3243.28209	2432.375
3245.56384	2423.475
3247.84423	2436.175
3250.12324	2434.475
3252.40088	2416.975
3254.67715	2425.275
3256.95205	2408.875
3259.22558	2419.775
3261.49775	2411.075
3263.76855	2400.675
3266.03799	2404.875
3268.30606	2406.875
3270.57277	2400.075
3272.83812	2386.975
3275.10211	2401.075
3277.36474	2387.575
3279.62601	2384.275
3281.88593	2369.175
3284.14448	2373.075
3286.40168	2374.475
3288.65753	2370.275
3290.91202	2375.275
3293.16516	2363.575
3295.41695	2350.875
3297.66738	2350.075
3299.91647	2338.775
3302.16421	2312.575
3304.4106	2304.075
3306.65564	2303.475
3308.89933	2284.675
3311.14169	2272.675
3313.38269	2231.175
3315.62236	2208.575
3317.86068	2201.675
3320.09766	2182.175
3322.3333	2170.375
3324.5676	2149.775
3326.80056	2112.675
3329.03219	2102.675
3331.26248	1.075
3333.49143	0.675
3335.71905	-1.325
