Data from AgNPs_UA_10uM_CRN_500uM_SU_RamanShift__123__13-25-50-278.txt Node

Date: Thu Aug 04 13:25:50 BST 2022
User: TCL
Spectrometer: QEP01345
Trigger mode: 4
Integration Time (sec): 1.000000E0
Scans to average: 10
Electric dark correction enabled: true
Nonlinearity correction enabled: false
Boxcar width: 0
XAxis mode: Raman Shifts
Number of Pixels in Spectrum: 1044
>>>>>Begin Spectral Data<<<<<
46.04893	0.2
50.45542	-1
54.85868	0.5
59.25871	-1.2
63.6555	21.3
68.04907	22.6
72.43941	24.1
76.82654	24.9
81.21044	23.5
85.59113	26.7
89.96862	26.5
94.34289	29.7
98.71396	28.6
103.08183	30.8
107.4465	31.8
111.80798	31.3
116.16626	33.3
120.52136	35
124.87327	37
129.222	37.9
133.56755	39.9
137.90993	42.8
142.24913	49.4
146.58517	56.5
150.91804	63.1
155.24774	81.6
159.57429	99.3
163.89768	132.8
168.21792	176.4
172.53501	241.7
176.84895	336.8
181.15975	492.4
185.46741	687.5
189.77193	959.5
194.07331	1290.5
198.37157	1663.2
202.6667	2052.4
206.9587	2457.1
211.24758	2841.5
215.53334	3238.1
219.81599	3663.7
224.09553	4152
228.37195	4685.2
232.64527	5244.3
236.91549	5793.1
241.18261	6307.7
245.44663	6686.3
249.70755	7023.5
253.96539	7303.1
258.22014	7559.4
262.4718	7768
266.72039	7908.8
270.96589	7968.3
275.20832	7919.1
279.44768	7812.2
283.68397	7667.8
287.91719	7603.4
292.14735	7629.6
296.37445	7754.3
300.59849	7961.6
304.81948	8274.8
309.03742	8521.1
313.25231	8684.1
317.46415	8591.4
321.67296	8288.9
325.87872	7942.7
330.08145	7775.5
334.28114	7760.7
338.47781	7874.6
342.67145	7993.6
346.86207	8238.2
351.04966	8572.4
355.23424	8900.4
359.4158	9135.5
363.59435	9265.9
367.76989	9283.5
371.94243	9262.6
376.11196	9209.6
380.27849	9232.9
384.44203	9221.6
388.60257	9265.1
392.76012	9339.3
396.91468	9470.8
401.06626	9628.7
405.21485	9653.5
409.36047	9537.1
413.50311	9235.9
417.64277	8958.7
421.77947	8788.4
425.9132	8717.2
430.04396	8703.8
434.17176	8762.5
438.2966	8874.3
442.41849	9047.4
446.53742	9293.8
450.6534	9477.6
454.76644	9625.9
458.87653	9663.6
462.98368	9627.8
467.08789	9547.7
471.18916	9378.2
475.2875	9162.6
479.38291	8991.8
483.4754	8846.4
487.56496	8798.7
491.6516	8728.6
495.73531	8737.6
499.81612	8771.3
503.89401	8859.7
507.96899	8910.8
512.04106	8968.8
516.11023	8996.3
520.1765	9073.9
524.23987	9106.3
528.30034	9078.7
532.35792	9053
536.41261	8989.7
540.46441	8851.6
544.51333	8818.6
548.55936	8879.6
552.60252	9026.7
556.64279	9202.9
560.6802	9339.2
564.71473	9450.6
568.7464	9532.9
572.7752	9543.4
576.80114	9319.1
580.82422	9132.7
584.84444	9093.5
588.86181	9137.4
592.87633	9265.6
596.888	9440.5
600.89682	9838.5
604.9028	10978.7
608.90594	13290.2
612.90624	15496
616.90371	14254.6
620.89834	11047.5
624.89015	9803.2
628.87913	9732.4
632.86528	9827.5
636.84862	9860.7
640.82913	9552.6
644.80683	9213.9
648.78172	8996.7
652.75379	9024.8
656.72306	9334
660.68952	9632.5
664.65319	9562.8
668.61405	9383.3
672.57211	9441.4
676.52738	9438.7
680.47986	9254.2
684.42955	9053.2
688.37646	9020.7
692.32058	9130.8
696.26192	9310.9
700.20048	9470.9
704.13626	9488
708.06928	9348.9
711.99952	9238.2
715.927	9251.8
719.85171	9317.1
723.77365	9314.8
727.69284	9244
731.60928	9156.6
735.52295	9141.6
739.43388	9186.8
743.34206	9253.7
747.24749	9275.2
751.15017	9270.7
755.05012	9392.5
758.94733	9746.6
762.8418	10594.5
766.73354	11869.6
770.62254	12881.4
774.50882	13039.6
778.39237	12541.4
782.27321	11607.9
786.15132	10623.2
790.02671	9914
793.89938	9580.6
797.76935	9433.2
801.6366	9316.3
805.50115	9259.2
809.36299	9211.6
813.22213	9196.7
817.07857	9175.6
820.93231	9188.1
824.78336	9180.5
828.63172	9212
832.47738	9226.6
836.32036	9208.4
840.16066	9223
843.99827	9232
847.8332	9193.2
851.66546	9211
855.49504	9209.9
859.32195	9226.1
863.1462	9217
866.96777	9185.7
870.78668	9199.8
874.60293	9229.5
878.41652	9280.6
882.22745	9382.4
886.03573	9395.5
889.84136	9411.2
893.64433	9357.5
897.44466	9306.3
901.24235	9275.5
905.0374	9252
908.8298	9242.8
912.61957	9244
916.40671	9238.9
920.19121	9285.8
923.97308	9392.2
927.75233	9495.8
931.52895	9567.6
935.30295	9493.9
939.07433	9330.1
942.84309	9219.2
946.60924	9167.8
950.37278	9142.3
954.13371	9115.1
957.89203	9100.7
961.64774	9078.5
965.40086	9070.1
969.15137	9047.6
972.89929	9057.2
976.64461	9068.3
980.38733	9078.6
984.12747	9110.2
987.86502	9174.2
991.59999	9244.1
995.33237	9379
999.06217	9561.6
1002.78939	9764.7
1006.51404	9951
1010.23611	10060.4
1013.95561	10176.6
1017.67255	10221
1021.38692	10208.6
1025.09872	10188.1
1028.80796	10230.4
1032.51465	10368.3
1036.21877	10459.3
1039.92035	10471.3
1043.61937	10395.5
1047.31584	10270.8
1051.00976	10178.9
1054.70114	10107.4
1058.38998	10102.5
1062.07627	10142.6
1065.76003	10172.6
1069.44126	10250.1
1073.11995	10417.9
1076.79611	10614.8
1080.46974	10767
1084.14085	10878.5
1087.80943	10992.8
1091.47549	11038.2
1095.13903	10944.7
1098.80005	10901.3
1102.45857	10910.7
1106.11456	10874
1109.76805	10765.9
1113.41903	10788.1
1117.06751	10941.8
1120.71348	11133.2
1124.35696	11377.3
1127.99793	11521.6
1131.63641	11356
1135.2724	11024.6
1138.90589	10760.4
1142.5369	10557.7
1146.16542	10440.7
1149.79145	10355.5
1153.415	10307.1
1157.03607	10283.2
1160.65467	10392
1164.27079	10633.4
1167.88443	11034.2
1171.49561	11578.3
1175.10432	12430.6
1178.71056	13531.9
1182.31434	14498.4
1185.91565	14880
1189.51451	14780.8
1193.11091	14411.1
1196.70485	13911.2
1200.29634	13452.6
1203.88538	13033.5
1207.47197	12487.3
1211.05612	11963.9
1214.63782	11608.1
1218.21708	11387.2
1221.79391	11313.1
1225.36829	11354.3
1228.94024	11319.8
1232.50976	11236.6
1236.07685	11157
1239.6415	11180.7
1243.20374	11184.1
1246.76355	11298.2
1250.32093	11424.6
1253.8759	11652
1257.42845	11998.2
1260.97859	12329.1
1264.52631	12677.5
1268.07163	12935.6
1271.61453	13183
1275.15503	13285
1278.69312	13383.1
1282.22882	13497.7
1285.76211	13670
1289.29301	13865.2
1292.82151	14104.3
1296.34761	14433.8
1299.87133	14965.9
1303.39266	15916.6
1306.9116	17272.3
1310.42815	18697.5
1313.94233	19329.6
1317.45412	18763.2
1320.96354	17653.3
1324.47058	16516.3
1327.97525	15561.1
1331.47754	14980.9
1334.97747	14808.7
1338.47502	14905.2
1341.97022	15382.4
1345.46305	16147
1348.95352	17228.3
1352.44163	18398
1355.92738	19749.2
1359.41078	21334.1
1362.89183	22465.3
1366.37053	21377.8
1369.84688	18470.5
1373.32088	15818.8
1376.79254	14355.3
1380.26186	13692.5
1383.72883	13282.2
1387.19347	12912.1
1390.65578	12505.9
1394.11575	12160.1
1397.57339	11905.2
1401.0287	11814.3
1404.48168	11825.7
1407.93234	11916.4
1411.38068	12112
1414.82669	12241.8
1418.27039	12289.3
1421.71177	12263.5
1425.15083	12192.3
1428.58758	12157.5
1432.02203	12274.1
1435.45416	12403.1
1438.88399	12410.7
1442.31151	12366
1445.73673	12331.9
1449.15965	12289
1452.58027	12227.3
1455.9986	12142.3
1459.41463	12107.8
1462.82837	12192.7
1466.23982	12411.5
1469.64898	12598.4
1473.05586	12779.7
1476.46045	12950.8
1479.86276	13101.3
1483.26279	13256
1486.66054	13451.1
1490.05602	13815.7
1493.44922	14364.6
1496.84016	15221.2
1500.22882	16403
1503.61521	17920.5
1506.99934	19430.3
1510.38121	20329.5
1513.76081	20067.9
1517.13816	18652
1520.51324	16749.7
1523.88607	15237.9
1527.25665	14284.6
1530.62498	13793.8
1533.99105	13564
1537.35488	13433.1
1540.71647	13302.1
1544.07581	13201.1
1547.4329	13060.5
1550.78776	12929.1
1554.14038	12832
1557.49077	12820.7
1560.83892	12967.6
1564.18484	13236.5
1567.52853	13538.8
1570.86999	13742.7
1574.20922	13763.4
1577.54624	13549.7
1580.88103	13015.5
1584.2136	12471.5
1587.54395	12218.7
1590.87208	12400.4
1594.19801	12995.4
1597.52172	13698
1600.84321	13975
1604.16251	13837
1607.47959	13443.9
1610.79447	12871.9
1614.10715	12184
1617.41763	11538.6
1620.7259	11055.3
1624.03199	10802.8
1627.33587	10760.8
1630.63757	10995.5
1633.93707	11482.5
1637.23439	12283.2
1640.52951	13460.3
1643.82246	14903.6
1647.11321	16236.4
1650.40179	16695.2
1653.68819	15733.3
1656.97241	13785.7
1660.25446	12024.7
1663.53433	10829
1666.81203	10088.1
1670.08756	9694
1673.36092	9445.9
1676.63211	9283.1
1679.90115	9134.6
1683.16801	9035.3
1686.43272	8955.5
1689.69527	8896.6
1692.95567	8857.3
1696.2139	8820
1699.46999	8813.4
1702.72392	8785
1705.97571	8765.5
1709.22535	8755.3
1712.47284	8784.5
1715.71819	8783.1
1718.96139	8765.9
1722.20246	8741.3
1725.44139	8725.5
1728.67818	8672.5
1731.91284	8621.3
1735.14537	8561
1738.37576	8549.3
1741.60403	8497.5
1744.83017	8469.6
1748.05418	8461.4
1751.27607	8436.8
1754.49584	8437.4
1757.71349	8427.2
1760.92903	8425.6
1764.14244	8385.5
1767.35375	8377.7
1770.56294	8361.1
1773.77002	8351.9
1776.97499	8302.3
1780.17785	8306.7
1783.37861	8266.9
1786.57727	8253
1789.77382	8237.5
1792.96828	8237.2
1796.16064	8234
1799.3509	8223.2
1802.53907	8218.8
1805.72514	8198.1
1808.90913	8167.5
1812.09102	8153.6
1815.27083	8137.8
1818.44856	8104.9
1821.6242	8085.4
1824.79776	8082.1
1827.96924	8072.4
1831.13864	8040.4
1834.30597	8033.9
1837.47122	8015.9
1840.6344	8015.6
1843.7955	7981.5
1846.95454	8006.6
1850.11151	7978.4
1853.26642	8000.7
1856.41926	7973.1
1859.57004	7987.5
1862.71876	8016.8
1865.86542	7978.7
1869.01003	7986.8
1872.15258	7936.7
1875.29308	7944.4
1878.43152	7945.2
1881.56792	7928.1
1884.70227	7918.1
1887.83457	7899.7
1890.96482	7898.7
1894.09304	7852
1897.21921	7845
1900.34335	7850.2
1903.46544	7850.8
1906.58551	7835.6
1909.70353	7833.5
1912.81953	7828
1915.93349	7822.8
1919.04543	7796.5
1922.15534	7781.2
1925.26322	7778.5
1928.36908	7758.2
1931.47292	7738
1934.57473	7723.7
1937.67453	7689.6
1940.77232	7689.6
1943.86808	7677.1
1946.96184	7636.7
1950.05358	7613.3
1953.14331	7616
1956.23103	7571
1959.31675	7558.3
1962.40046	7552.8
1965.48217	7525.2
1968.56188	7486.2
1971.63959	7471.3
1974.7153	7449.4
1977.78901	7459.7
1980.86073	7445.3
1983.93046	7389.1
1986.99819	7361.1
1990.06394	7342.6
1993.1277	7320
1996.18947	7298.1
1999.24925	7267.3
2002.30706	7242.8
2005.36288	7223.2
2008.41672	7198.9
2011.46859	7166.9
2014.51848	7140.5
2017.56639	7125.7
2020.61233	7106.7
2023.6563	7098.2
2026.6983	7084.1
2029.73833	7051.9
2032.7764	7034.4
2035.8125	7037.5
2038.84664	7018.3
2041.87881	7009.4
2044.90903	7005.2
2047.93729	6977
2050.96359	6966.7
2053.98794	6954.7
2057.01034	6951.5
2060.03078	6953.8
2063.04927	6913
2066.06582	6909.9
2069.08042	6913.9
2072.09307	6903.4
2075.10378	6897.4
2078.11255	6898
2081.11938	6853.1
2084.12426	6864.5
2087.12722	6876.8
2090.12824	6888.8
2093.12732	6864.1
2096.12447	6877
2099.11969	6877.1
2102.11299	6866.8
2105.10435	6884.6
2108.09379	6872
2111.08131	6874.7
2114.0669	6880.7
2117.05057	6899
2120.03233	6913.1
2123.01216	6896.6
2125.99008	6897.4
2128.96609	6895.9
2131.94018	6912
2134.91236	6918.7
2137.88263	6888.9
2140.851	6906.6
2143.81746	6908
2146.78201	6883.3
2149.74466	6901.7
2152.7054	6898.1
2155.66425	6907.8
2158.6212	6897.7
2161.57625	6877.4
2164.52941	6885.6
2167.48067	6881
2170.43004	6885.1
2173.37752	6853.6
2176.32311	6869.3
2179.26681	6878.8
2182.20863	6879.9
2185.14856	6893.2
2188.08661	6885.1
2191.02278	6872.1
2193.95707	6878.6
2196.88948	6880.6
2199.82001	6863.4
2202.74867	6860.1
2205.67545	6867.4
2208.60037	6867
2211.52341	6823.2
2214.44458	6829.2
2217.36388	6796.4
2220.28132	6793.1
2223.1969	6774.6
2226.11061	6745.2
2229.02246	6729.3
2231.93245	6722.8
2234.84058	6718.8
2237.74686	6711.2
2240.65128	6697.6
2243.55385	6679.7
2246.45456	6664.4
2249.35343	6653
2252.25044	6659.3
2255.14561	6671
2258.03893	6656.9
2260.93041	6657.5
2263.82004	6631.5
2266.70783	6612.9
2269.59378	6610.2
2272.4779	6579.5
2275.36017	6562.3
2278.24061	6558.8
2281.11922	6536.3
2283.996	6518
2286.87094	6493.6
2289.74405	6501.1
2292.61534	6489.5
2295.4848	6484.7
2298.35243	6474.1
2301.21824	6470.3
2304.08223	6452.9
2306.94439	6471.7
2309.80474	6468.6
2312.66327	6457.8
2315.51999	6457.1
2318.37489	6466.8
2321.22797	6438.7
2324.07925	6429.5
2326.92871	6424.4
2329.77637	6432.6
2332.62222	6399.1
2335.46626	6409.1
2338.3085	6392.4
2341.14893	6379.8
2343.98756	6408.5
2346.8244	6405.9
2349.65943	6392.7
2352.49267	6374.1
2355.32411	6381.7
2358.15376	6375.1
2360.98161	6378.9
2363.80768	6371.2
2366.63195	6361.7
2369.45444	6359.8
2372.27514	6352.7
2375.09405	6325.4
2377.91118	6326.5
2380.72652	6295.4
2383.54009	6293.9
2386.35187	6287.6
2389.16188	6264.6
2391.97011	6259.1
2394.77657	6231.8
2397.58125	6218.3
2400.38416	6215
2403.18529	6190.7
2405.98466	6198.8
2408.78226	6176.4
2411.57809	6151.7
2414.37216	6146.2
2417.16446	6139.1
2419.955	6143.5
2422.74378	6130.8
2425.5308	6136.9
2428.31606	6128.1
2431.09956	6113
2433.88131	6107.6
2436.6613	6105.4
2439.43954	6113.4
2442.21603	6109.6
2444.99077	6100.3
2447.76377	6098.7
2450.53501	6093.3
2453.30451	6093.9
2456.07226	6084.5
2458.83827	6078.9
2461.60254	6051.4
2464.36507	6035.9
2467.12586	6044.7
2469.88492	6037.4
2472.64224	6047.9
2475.39782	6064
2478.15167	6037.6
2480.90379	6028.6
2483.65417	6035.4
2486.40283	6027.7
2489.14976	6042.6
2491.89497	6050.6
2494.63845	6037.4
2497.3802	6046.7
2500.12024	6025.5
2502.85855	6016.5
2505.59514	6009.5
2508.33002	6012
2511.06318	5984.7
2513.79462	5962.2
2516.52435	5950.5
2519.25237	5934.2
2521.97867	5938.9
2524.70327	5930.9
2527.42616	5909.3
2530.14734	5913.7
2532.86681	5893.3
2535.58458	5926
2538.30065	5905.1
2541.01501	5918.3
2543.72768	5884.2
2546.43864	5890.9
2549.14791	5882
2551.85548	5890.3
2554.56136	5876.7
2557.26554	5862.9
2559.96803	5864.9
2562.66883	5839.3
2565.36794	5824.6
2568.06536	5815.2
2570.7611	5813.9
2573.45514	5799.9
2576.14751	5803.1
2578.83819	5772.7
2581.52719	5774
2584.21451	5766.4
2586.90015	5782.1
2589.58411	5741
2592.2664	5752.3
2594.94701	5747.8
2597.62594	5732.8
2600.30321	5713.4
2602.9788	5721.6
2605.65273	5713.9
2608.32498	5719.7
2610.99557	5696.1
2613.66449	5705.2
2616.33175	5692.7
2618.99734	5704.2
2621.66128	5689.5
2624.32355	5679.5
2626.98416	5669.1
2629.64311	5665.8
2632.30041	5658.7
2634.95605	5649.9
2637.61004	5630.1
2640.26238	5640.8
2642.91306	5632.2
2645.56209	5624.9
2648.20948	5617.3
2650.85521	5625.3
2653.4993	5603.4
2656.14175	5605.1
2658.78255	5596.7
2661.42171	5595
2664.05923	5613.4
2666.6951	5619.2
2669.32934	5627.5
2671.96194	5607.6
2674.59291	5618.7
2677.22224	5614
2679.84993	5616.4
2682.476	5612.5
2685.10043	5616.1
2687.72324	5615
2690.34441	5593.4
2692.96396	5589.7
2695.58188	5601.3
2698.19818	5574.6
2700.81285	5571.7
2703.4259	5580
2706.03733	5557.2
2708.64714	5557.1
2711.25533	5553.6
2713.86191	5547
2716.46687	5586
2719.07021	5573
2721.67194	5544.3
2724.27206	5569.7
2726.87057	5559.6
2729.46747	5553.9
2732.06276	5561.7
2734.65644	5549.1
2737.24852	5538.1
2739.83899	5525.4
2742.42786	5525.4
2745.01513	5515.1
2747.60079	5513.5
2750.18486	5480.5
2752.76733	5501.2
2755.3482	5493.8
2757.92747	5478.4
2760.50515	5462
2763.08123	5463.5
2765.65573	5448
2768.22863	5457.5
2770.79994	5443.3
2773.36967	5439.9
2775.9378	5445.9
2778.50435	5414.4
2781.06932	5433.2
2783.6327	5421.7
2786.1945	5424.6
2788.75471	5418.4
2791.31335	5378.5
2793.87041	5390.8
2796.42589	5363.9
2798.97979	5346.2
2801.53212	5355.2
2804.08288	5350.5
2806.63206	5325.6
2809.17967	5328.3
2811.72571	5325.6
2814.27018	5305.6
2816.81308	5288.2
2819.35442	5295.8
2821.89419	5287.8
2824.43239	5277.2
2826.96904	5260.1
2829.50412	5263.4
2832.03763	5247.4
2834.56959	5226.3
2837.1	5214.9
2839.62884	5211.4
2842.15613	5212.3
2844.68186	5205.2
2847.20604	5214.9
2849.72867	5201.9
2852.24974	5189.8
2854.76927	5173.6
2857.28724	5164.9
2859.80367	5163.6
2862.31855	5152.1
2864.83189	5149.5
2867.34368	5153.2
2869.85393	5140.1
2872.36264	5149.6
2874.8698	5145.8
2877.37543	5117.1
2879.87952	5123.2
2882.38207	5121.6
2884.88308	5126.3
2887.38256	5129.1
2889.88051	5123.3
2892.37692	5096.9
2894.8718	5101
2897.36515	5101.6
2899.85698	5107.1
2902.34727	5103.7
2904.83604	5115.5
2907.32328	5122.2
2909.809	5107.4
2912.29319	5143.5
2914.77587	5135.2
2917.25702	5126.5
2919.73665	5113.3
2922.21476	5129.7
2924.69136	5107.3
2927.16644	5114.1
2929.64	5076.9
2932.11205	5076.2
2934.58258	5057.5
2937.05161	5056.8
2939.51912	5067
2941.98513	5056.3
2944.44962	5042.2
2946.91261	5050.7
2949.37409	5043.2
2951.83407	5042.1
2954.29254	5037.1
2956.74951	5038.8
2959.20498	5018.4
2961.65895	5034.8
2964.11142	5025
2966.56239	5020.4
2969.01186	5026.1
2971.45984	5009.6
2973.90632	5004.2
2976.35131	5002.4
2978.7948	4988.3
2981.23681	4988.3
2983.67732	4979.1
2986.11635	4949
2988.55388	4941.3
2990.98993	4904.4
2993.4245	4903.7
2995.85758	4900.1
2998.28917	4882.1
3000.71928	4877.7
3003.14791	4857
3005.57506	4868.9
3008.00073	4834.7
3010.42493	4819.7
3012.84764	4816.3
3015.26888	4810.8
3017.68865	4812.7
3020.10694	4801.5
3022.52376	4767.5
3024.9391	4769.6
3027.35298	4738
3029.76539	4747.6
3032.17632	4749.1
3034.5858	4742.7
3036.9938	4727.9
3039.40034	4716.9
3041.80542	4700.7
3044.20903	4688.4
3046.61118	4692.7
3049.01187	4661.6
3051.4111	4653.6
3053.80888	4636.2
3056.20519	4640.8
3058.60005	4629
3060.99345	4613.9
3063.3854	4604.3
3065.7759	4587.4
3068.16494	4583.7
3070.55254	4585.1
3072.93868	4541.7
3075.32338	4530.3
3077.70662	4529
3080.08842	4523.3
3082.46878	4521
3084.84769	4503.1
3087.22515	4502.7
3089.60118	4498.8
3091.97576	4490
3094.3489	4494.4
3096.72061	4486.2
3099.09087	4479.5
3101.4597	4475.1
3103.82709	4471.3
3106.19305	4471.9
3108.55757	4470.9
3110.92066	4459.6
3113.28232	4452.2
3115.64255	4449.3
3118.00134	4429.5
3120.35871	4422.2
3122.71466	4416.2
3125.06917	4414
3127.42226	4393.8
3129.77393	4382.4
3132.12417	4362.3
3134.47299	4368.4
3136.82039	4355.9
3139.16636	4351.9
3141.51092	4361.6
3143.85406	4360.7
3146.19579	4347.7
3148.53609	4353.1
3150.87499	4343.5
3153.21246	4340.9
3155.54853	4339.2
3157.88318	4322
3160.21642	4332.2
3162.54826	4330.9
3164.87868	4319.8
3167.2077	4319.4
3169.5353	4306.1
3171.86151	4292.4
3174.18631	4294.7
3176.5097	4291
3178.83169	4265.1
3181.15228	4273.9
3183.47147	4259.5
3185.78926	4254.3
3188.10565	4236.9
3190.42065	4231.4
3192.73424	4226.6
3195.04645	4226.2
3197.35725	4223.9
3199.66667	4214
3201.97469	4207.8
3204.28132	4215.4
3206.58656	4214.6
3208.8904	4210.7
3211.19287	4224.6
3213.49394	4216.6
3215.79363	4206
3218.09193	4211.8
3220.38884	4216.1
3222.68438	4214.4
3224.97853	4203
3227.2713	4197.3
3229.56269	4197.5
3231.8527	4188.6
3234.14133	4174.5
3236.42858	4162.2
3238.71446	4155.8
3240.99896	4147.8
3243.28209	4142.9
3245.56384	4128.5
3247.84423	4126.8
3250.12324	4117.2
3252.40088	4110.7
3254.67715	4109.1
3256.95205	4106.1
3259.22558	4104.9
3261.49775	4098.8
3263.76855	4090
3266.03799	4098.6
3268.30606	4101.4
3270.57277	4094.1
3272.83812	4083.8
3275.10211	4059.2
3277.36474	4047
3279.62601	4039.6
3281.88593	4038.3
3284.14448	4025.4
3286.40168	4034.8
3288.65753	4050.2
3290.91202	4029.4
3293.16516	4007
3295.41695	4023.2
3297.66738	4002.3
3299.91647	3986.2
3302.16421	3961.1
3304.4106	3933.8
3306.65564	3901.2
3308.89933	3889.7
3311.14169	3847.3
3313.38269	3819.6
3315.62236	3792.2
3317.86068	3774.6
3320.09766	3743.3
3322.3333	3715.7
3324.5676	3708.2
3326.80056	3624.9
3329.03219	3614.3
3331.26248	1.7
3333.49143	-0.2
3335.71905	0.2
