Data from AgNPs_UA_10uM_CRN_500uM_SU_RamanShift__56__13-14-40-264.txt Node

Date: Thu Aug 04 13:14:40 BST 2022
User: TCL
Spectrometer: QEP01345
Trigger mode: 4
Integration Time (sec): 1.000000E0
Scans to average: 10
Electric dark correction enabled: true
Nonlinearity correction enabled: false
Boxcar width: 0
XAxis mode: Raman Shifts
Number of Pixels in Spectrum: 1044
>>>>>Begin Spectral Data<<<<<
46.04893	0.2
50.45542	-0.4
54.85868	0.7
59.25871	0.3
63.6555	21.6
68.04907	20.5
72.43941	23.6
76.82654	22.3
81.21044	23.6
85.59113	26.2
89.96862	27.6
94.34289	26.9
98.71396	28.7
103.08183	30.8
107.4465	30.2
111.80798	31
116.16626	34.3
120.52136	35.3
124.87327	37.8
129.222	38
133.56755	41
137.90993	45.8
142.24913	52
146.58517	57.5
150.91804	67.9
155.24774	82.2
159.57429	101.9
163.89768	134.1
168.21792	179
172.53501	249.6
176.84895	345.6
181.15975	500.4
185.46741	708
189.77193	985.7
194.07331	1327.6
198.37157	1699.6
202.6667	2104.3
206.9587	2517.9
211.24758	2932.2
215.53334	3315.5
219.81599	3756.8
224.09553	4254.5
228.37195	4770
232.64527	5363.3
236.91549	5935.6
241.18261	6473.3
245.44663	6922.6
249.70755	7293.7
253.96539	7645.4
258.22014	7926.1
262.4718	8170.1
266.72039	8323.3
270.96589	8368.5
275.20832	8331.6
279.44768	8237.9
283.68397	8109.6
287.91719	8034.1
292.14735	8017
296.37445	8089.1
300.59849	8258.8
304.81948	8463.1
309.03742	8643.5
313.25231	8733.7
317.46415	8676.3
321.67296	8460.8
325.87872	8227.9
330.08145	8120.4
334.28114	8116.8
338.47781	8181.3
342.67145	8317.8
346.86207	8507
351.04966	8776
355.23424	9057.8
359.4158	9289.6
363.59435	9440.3
367.76989	9481.7
371.94243	9509.8
376.11196	9518.4
380.27849	9535.5
384.44203	9598.3
388.60257	9693.5
392.76012	9788.4
396.91468	9914
401.06626	10031.3
405.21485	10098.7
409.36047	10051.1
413.50311	9844.6
417.64277	9632.6
421.77947	9503.6
425.9132	9418.8
430.04396	9357.1
434.17176	9399.2
438.2966	9493.5
442.41849	9623.6
446.53742	9775
450.6534	9971
454.76644	10091
458.87653	10200.2
462.98368	10259.8
467.08789	10236
471.18916	10130.1
475.2875	9950
479.38291	9783.7
483.4754	9699
487.56496	9625.6
491.6516	9616.2
495.73531	9604.2
499.81612	9638.2
503.89401	9737.3
507.96899	9798.8
512.04106	9811.4
516.11023	9856.8
520.1765	9886.1
524.23987	9890.9
528.30034	9880.7
532.35792	9889
536.41261	9807.5
540.46441	9754.8
544.51333	9749.8
548.55936	9819.5
552.60252	9912.8
556.64279	10046.5
560.6802	10164.7
564.71473	10248.9
568.7464	10283.8
572.7752	10206
576.80114	9985.5
580.82422	9840.5
584.84444	9747.6
588.86181	9762.7
592.87633	9794.5
596.888	9963.5
600.89682	10389
604.9028	11368
608.90594	13278.6
612.90624	15068.2
616.90371	14027.4
620.89834	11484
624.89015	10490
628.87913	10399.4
632.86528	10572.3
636.84862	10698
640.82913	10543.2
644.80683	10221.9
648.78172	10031
652.75379	10046.8
656.72306	10300.8
660.68952	10576.2
664.65319	10529.6
668.61405	10480.7
672.57211	10638.4
676.52738	10650.4
680.47986	10411.7
684.42955	10143.3
688.37646	10105
692.32058	10159
696.26192	10407.1
700.20048	10567.1
704.13626	10601
708.06928	10477.7
711.99952	10373.7
715.927	10351.6
719.85171	10390.6
723.77365	10415.6
727.69284	10361.7
731.60928	10286.4
735.52295	10274.7
739.43388	10332.3
743.34206	10352.4
747.24749	10335.2
751.15017	10324
755.05012	10399.4
758.94733	10665.7
762.8418	11312.1
766.73354	12272.4
770.62254	13031
774.50882	13278.3
778.39237	13122.4
782.27321	12598.2
786.15132	11771.5
790.02671	11068
793.89938	10719
797.76935	10535.9
801.6366	10414.2
805.50115	10326.5
809.36299	10336
813.22213	10301.5
817.07857	10328.5
820.93231	10339.8
824.78336	10331.3
828.63172	10370.4
832.47738	10394.8
836.32036	10341.7
840.16066	10336.1
843.99827	10349.1
847.8332	10361.7
851.66546	10377.8
855.49504	10403
859.32195	10407.4
863.1462	10393.1
866.96777	10380.9
870.78668	10413.7
874.60293	10448.4
878.41652	10493.1
882.22745	10568.7
886.03573	10621
889.84136	10616.9
893.64433	10574.1
897.44466	10531.7
901.24235	10518.1
905.0374	10480.4
908.8298	10465.7
912.61957	10487.3
916.40671	10462.6
920.19121	10467.9
923.97308	10498.3
927.75233	10566.7
931.52895	10631.9
935.30295	10584.5
939.07433	10460.2
942.84309	10394.5
946.60924	10376.7
950.37278	10344
954.13371	10315.9
957.89203	10353.7
961.64774	10354.9
965.40086	10341.1
969.15137	10328.2
972.89929	10342.8
976.64461	10337.4
980.38733	10352.9
984.12747	10350.8
987.86502	10388.6
991.59999	10428
995.33237	10479.7
999.06217	10524.9
1002.78939	10647
1006.51404	10801.7
1010.23611	10971.2
1013.95561	11055.2
1017.67255	11088.8
1021.38692	11088.4
1025.09872	11014
1028.80796	10909.1
1032.51465	10870.8
1036.21877	10858.6
1039.92035	10921.4
1043.61937	10934.9
1047.31584	11003.5
1051.00976	11011.4
1054.70114	11055.6
1058.38998	11108.1
1062.07627	11155.8
1065.76003	11215.9
1069.44126	11356.5
1073.11995	11578.4
1076.79611	11828.2
1080.46974	11931.8
1084.14085	11985.2
1087.80943	12057.9
1091.47549	12136.1
1095.13903	12235.6
1098.80005	12364.1
1102.45857	12548.6
1106.11456	12532.6
1109.76805	12239.4
1113.41903	12158.2
1117.06751	12194.9
1120.71348	12296.3
1124.35696	12404.6
1127.99793	12422.7
1131.63641	12256
1135.2724	12001.1
1138.90589	11790.1
1142.5369	11664.4
1146.16542	11612.9
1149.79145	11536.9
1153.415	11418.3
1157.03607	11373.9
1160.65467	11397.6
1164.27079	11548.4
1167.88443	11799.9
1171.49561	12200.2
1175.10432	12804.8
1178.71056	13577.5
1182.31434	14249.9
1185.91565	14555.9
1189.51451	14619.8
1193.11091	14562.2
1196.70485	14422.9
1200.29634	14218
1203.88538	13888.4
1207.47197	13502.8
1211.05612	13094.1
1214.63782	12678.7
1218.21708	12376.8
1221.79391	12124.7
1225.36829	12020
1228.94024	11986.9
1232.50976	11984
1236.07685	12043.7
1239.6415	12075.3
1243.20374	12148.6
1246.76355	12192.4
1250.32093	12317.7
1253.8759	12468
1257.42845	12716.9
1260.97859	13009.2
1264.52631	13292.1
1268.07163	13512.3
1271.61453	13618.1
1275.15503	13568.6
1278.69312	13551.3
1282.22882	13495.1
1285.76211	13521.6
1289.29301	13609
1292.82151	13794.4
1296.34761	13988.3
1299.87133	14294
1303.39266	14841.8
1306.9116	15659.7
1310.42815	16519.3
1313.94233	16878.1
1317.45412	16511.6
1320.96354	15925.8
1324.47058	15284.7
1327.97525	14702.4
1331.47754	14282
1334.97747	14150.9
1338.47502	14307.6
1341.97022	14757.5
1345.46305	15556.6
1348.95352	16708.6
1352.44163	17918.1
1355.92738	18865.9
1359.41078	19787.7
1362.89183	20263.9
1366.37053	19349.2
1369.84688	17218.4
1373.32088	15206.1
1376.79254	14125
1380.26186	13563.5
1383.72883	13161.5
1387.19347	12825.1
1390.65578	12467.3
1394.11575	12184.5
1397.57339	11927.1
1401.0287	11810
1404.48168	11836.1
1407.93234	11930.2
1411.38068	12126.2
1414.82669	12277.9
1418.27039	12350.2
1421.71177	12330.4
1425.15083	12253.8
1428.58758	12131.7
1432.02203	12059.3
1435.45416	12018.3
1438.88399	11970.4
1442.31151	11944
1445.73673	11982.6
1449.15965	11994.2
1452.58027	11998.8
1455.9986	11959.6
1459.41463	11948.2
1462.82837	12044.3
1466.23982	12245.4
1469.64898	12437.1
1473.05586	12616.6
1476.46045	12754.8
1479.86276	12882.9
1483.26279	13035.3
1486.66054	13244.5
1490.05602	13565.9
1493.44922	14071.8
1496.84016	14869
1500.22882	15968.6
1503.61521	17175.7
1506.99934	18212.5
1510.38121	18668.5
1513.76081	18320.4
1517.13816	17166.6
1520.51324	15753.2
1523.88607	14607.7
1527.25665	13913.5
1530.62498	13525.2
1533.99105	13364.7
1537.35488	13293.8
1540.71647	13200.4
1544.07581	13107.3
1547.4329	13012.2
1550.78776	12871.8
1554.14038	12718.6
1557.49077	12687.9
1560.83892	12828.4
1564.18484	13066.7
1567.52853	13301.9
1570.86999	13480.4
1574.20922	13569.4
1577.54624	13460
1580.88103	13034.4
1584.2136	12538.6
1587.54395	12261.2
1590.87208	12265.6
1594.19801	12503.4
1597.52172	12818.3
1600.84321	12958.9
1604.16251	12885.4
1607.47959	12803.1
1610.79447	12509.3
1614.10715	12100.6
1617.41763	11687.7
1620.7259	11363.5
1624.03199	11159.6
1627.33587	11066.8
1630.63757	11132
1633.93707	11339.1
1637.23439	11825.4
1640.52951	12593.9
1643.82246	13597.6
1647.11321	14658.8
1650.40179	15062.4
1653.68819	14488.9
1656.97241	13226.2
1660.25446	11996.3
1663.53433	11168.1
1666.81203	10655.2
1670.08756	10337.2
1673.36092	10170.4
1676.63211	10037.5
1679.90115	9946.3
1683.16801	9860.6
1686.43272	9777.4
1689.69527	9759
1692.95567	9693.1
1696.2139	9659.6
1699.46999	9652.2
1702.72392	9612.7
1705.97571	9601.6
1709.22535	9598.9
1712.47284	9591.9
1715.71819	9613.8
1718.96139	9614.4
1722.20246	9572.3
1725.44139	9551.5
1728.67818	9516.6
1731.91284	9465.9
1735.14537	9402.8
1738.37576	9377.2
1741.60403	9351.6
1744.83017	9342.1
1748.05418	9338.4
1751.27607	9293.7
1754.49584	9283.9
1757.71349	9275.3
1760.92903	9247
1764.14244	9242.3
1767.35375	9213.1
1770.56294	9207.2
1773.77002	9185.3
1776.97499	9137.4
1780.17785	9134.1
1783.37861	9111.3
1786.57727	9094.5
1789.77382	9074.3
1792.96828	9065.3
1796.16064	9042.4
1799.3509	9034.3
1802.53907	9040.2
1805.72514	9024.9
1808.90913	8960.9
1812.09102	8973.7
1815.27083	8922.4
1818.44856	8910.9
1821.6242	8870.8
1824.79776	8878.5
1827.96924	8859.1
1831.13864	8839.2
1834.30597	8839.6
1837.47122	8791.7
1840.6344	8762.7
1843.7955	8770.4
1846.95454	8784.3
1850.11151	8768.7
1853.26642	8755.2
1856.41926	8743.5
1859.57004	8771.7
1862.71876	8759.3
1865.86542	8739
1869.01003	8735.7
1872.15258	8722.1
1875.29308	8693.8
1878.43152	8682
1881.56792	8656.5
1884.70227	8654.8
1887.83457	8610.4
1890.96482	8608.9
1894.09304	8582
1897.21921	8562.6
1900.34335	8548.5
1903.46544	8543.3
1906.58551	8543
1909.70353	8557.1
1912.81953	8523.4
1915.93349	8512.9
1919.04543	8484.3
1922.15534	8454.8
1925.26322	8467
1928.36908	8420
1931.47292	8392.3
1934.57473	8367.7
1937.67453	8362.9
1940.77232	8350.8
1943.86808	8298.5
1946.96184	8284.6
1950.05358	8270.8
1953.14331	8232
1956.23103	8240.3
1959.31675	8198.1
1962.40046	8169.1
1965.48217	8146.3
1968.56188	8108.3
1971.63959	8088.6
1974.7153	8057.1
1977.78901	8073.2
1980.86073	8039.1
1983.93046	7987.8
1986.99819	7946.4
1990.06394	7920.3
1993.1277	7897.6
1996.18947	7859.4
1999.24925	7832.9
2002.30706	7817
2005.36288	7772.7
2008.41672	7757.3
2011.46859	7750.2
2014.51848	7704.8
2017.56639	7680
2020.61233	7664.7
2023.6563	7660
2026.6983	7611.3
2029.73833	7590.1
2032.7764	7570.7
2035.8125	7528.2
2038.84664	7525
2041.87881	7504.2
2044.90903	7511.4
2047.93729	7487.4
2050.96359	7469.6
2053.98794	7450.4
2057.01034	7442.8
2060.03078	7434.9
2063.04927	7402.5
2066.06582	7400.9
2069.08042	7393.6
2072.09307	7386.3
2075.10378	7390.2
2078.11255	7383.4
2081.11938	7368.6
2084.12426	7354.6
2087.12722	7337.8
2090.12824	7347.5
2093.12732	7339.3
2096.12447	7351.7
2099.11969	7368.6
2102.11299	7348.6
2105.10435	7352.1
2108.09379	7346.5
2111.08131	7354
2114.0669	7335.5
2117.05057	7354.3
2120.03233	7369.1
2123.01216	7379.2
2125.99008	7350.4
2128.96609	7335.8
2131.94018	7363.4
2134.91236	7353.1
2137.88263	7351.3
2140.851	7356
2143.81746	7352.9
2146.78201	7360.2
2149.74466	7321.7
2152.7054	7349.7
2155.66425	7336.5
2158.6212	7329.4
2161.57625	7313.1
2164.52941	7298.3
2167.48067	7295.4
2170.43004	7309.1
2173.37752	7283.9
2176.32311	7312.3
2179.26681	7279.9
2182.20863	7282.3
2185.14856	7280.5
2188.08661	7289.3
2191.02278	7300
2193.95707	7288.5
2196.88948	7268.2
2199.82001	7259
2202.74867	7243.2
2205.67545	7239.7
2208.60037	7203.4
2211.52341	7206.4
2214.44458	7179.2
2217.36388	7153.2
2220.28132	7130.2
2223.1969	7115.4
2226.11061	7095.7
2229.02246	7084.2
2231.93245	7074.3
2234.84058	7061.1
2237.74686	7039.7
2240.65128	7046.8
2243.55385	7018.2
2246.45456	7006.8
2249.35343	7001.1
2252.25044	6990
2255.14561	6985.9
2258.03893	6978
2260.93041	6970.6
2263.82004	6932.6
2266.70783	6936.1
2269.59378	6892
2272.4779	6879.3
2275.36017	6874.7
2278.24061	6840.1
2281.11922	6836.4
2283.996	6802.2
2286.87094	6790.5
2289.74405	6802.5
2292.61534	6769.1
2295.4848	6768.3
2298.35243	6740.7
2301.21824	6749.2
2304.08223	6705.4
2306.94439	6735.4
2309.80474	6716.8
2312.66327	6711.2
2315.51999	6701.6
2318.37489	6685
2321.22797	6676.1
2324.07925	6654.6
2326.92871	6622.8
2329.77637	6616.8
2332.62222	6598.3
2335.46626	6592.6
2338.3085	6580.6
2341.14893	6563.7
2343.98756	6578.3
2346.8244	6565.5
2349.65943	6542.6
2352.49267	6540.6
2355.32411	6533.8
2358.15376	6533.9
2360.98161	6540.8
2363.80768	6531.5
2366.63195	6502
2369.45444	6505.8
2372.27514	6520
2375.09405	6494.1
2377.91118	6479.5
2380.72652	6471.4
2383.54009	6458.8
2386.35187	6431
2389.16188	6429.5
2391.97011	6392
2394.77657	6370.9
2397.58125	6365.9
2400.38416	6352.5
2403.18529	6340.5
2405.98466	6335.4
2408.78226	6308.3
2411.57809	6310.7
2414.37216	6292
2417.16446	6288.8
2419.955	6285.9
2422.74378	6276.9
2425.5308	6272.5
2428.31606	6273
2431.09956	6260.2
2433.88131	6231.9
2436.6613	6225
2439.43954	6247
2442.21603	6226.2
2444.99077	6206
2447.76377	6198.5
2450.53501	6203.8
2453.30451	6191.8
2456.07226	6175.9
2458.83827	6167.8
2461.60254	6139.6
2464.36507	6145.4
2467.12586	6127.9
2469.88492	6140.2
2472.64224	6143.2
2475.39782	6138.3
2478.15167	6114
2480.90379	6097.8
2483.65417	6080.7
2486.40283	6074.5
2489.14976	6089.7
2491.89497	6070.8
2494.63845	6078
2497.3802	6066.5
2500.12024	6041.5
2502.85855	6033.3
2505.59514	6028.1
2508.33002	6014.8
2511.06318	5997.5
2513.79462	5988.3
2516.52435	5989.6
2519.25237	5963.9
2521.97867	5947.7
2524.70327	5935.5
2527.42616	5943.1
2530.14734	5916.6
2532.86681	5924.8
2535.58458	5932.9
2538.30065	5904.2
2541.01501	5886.5
2543.72768	5887.1
2546.43864	5883.2
2549.14791	5855.1
2551.85548	5850.9
2554.56136	5851.1
2557.26554	5840.8
2559.96803	5829.7
2562.66883	5795
2565.36794	5773.5
2568.06536	5759
2570.7611	5751.9
2573.45514	5729.6
2576.14751	5738.9
2578.83819	5718.7
2581.52719	5694.7
2584.21451	5689
2586.90015	5698.6
2589.58411	5660.9
2592.2664	5654.7
2594.94701	5641.2
2597.62594	5631.9
2600.30321	5616.5
2602.9788	5612.9
2605.65273	5600.4
2608.32498	5601.3
2610.99557	5569.5
2613.66449	5577.5
2616.33175	5561.2
2618.99734	5557.9
2621.66128	5545.1
2624.32355	5532.3
2626.98416	5504.1
2629.64311	5499.8
2632.30041	5485.4
2634.95605	5472.4
2637.61004	5460.1
2640.26238	5456.1
2642.91306	5439.7
2645.56209	5447
2648.20948	5429.1
2650.85521	5437.3
2653.4993	5426.5
2656.14175	5425.4
2658.78255	5412.5
2661.42171	5396.6
2664.05923	5403.2
2666.6951	5410.8
2669.32934	5422.7
2671.96194	5412.7
2674.59291	5408.8
2677.22224	5416.2
2679.84993	5414
2682.476	5394.4
2685.10043	5400.2
2687.72324	5381.8
2690.34441	5392.4
2692.96396	5380.8
2695.58188	5372.7
2698.19818	5372.3
2700.81285	5358.1
2703.4259	5360.1
2706.03733	5357.5
2708.64714	5358.2
2711.25533	5333.5
2713.86191	5342.1
2716.46687	5352.7
2719.07021	5349.6
2721.67194	5346.8
2724.27206	5328.3
2726.87057	5321.2
2729.46747	5330.7
2732.06276	5319.8
2734.65644	5311.3
2737.24852	5304.7
2739.83899	5296.1
2742.42786	5306
2745.01513	5268.6
2747.60079	5259.6
2750.18486	5256.9
2752.76733	5247.8
2755.3482	5229.8
2757.92747	5222.8
2760.50515	5207.8
2763.08123	5205.1
2765.65573	5187.8
2768.22863	5171.9
2770.79994	5167.8
2773.36967	5167.2
2775.9378	5144.6
2778.50435	5134.3
2781.06932	5133.2
2783.6327	5128.5
2786.1945	5120.2
2788.75471	5117.5
2791.31335	5086.8
2793.87041	5088.8
2796.42589	5066.1
2798.97979	5044.6
2801.53212	5045.4
2804.08288	5021.1
2806.63206	5010.6
2809.17967	5021
2811.72571	5007.7
2814.27018	4990.9
2816.81308	4978.7
2819.35442	4966.5
2821.89419	4955
2824.43239	4950
2826.96904	4924.9
2829.50412	4917
2832.03763	4898.7
2834.56959	4897.6
2837.1	4885.9
2839.62884	4881.7
2842.15613	4862.2
2844.68186	4869.3
2847.20604	4861.6
2849.72867	4859.7
2852.24974	4818.9
2854.76927	4816.3
2857.28724	4812.9
2859.80367	4809.4
2862.31855	4790.7
2864.83189	4791.8
2867.34368	4794.9
2869.85393	4789.6
2872.36264	4773.4
2874.8698	4762.8
2877.37543	4752.3
2879.87952	4753.2
2882.38207	4737.6
2884.88308	4732.5
2887.38256	4728.7
2889.88051	4729.9
2892.37692	4720.1
2894.8718	4722
2897.36515	4721
2899.85698	4706.1
2902.34727	4712.1
2904.83604	4718.5
2907.32328	4712.2
2909.809	4709.9
2912.29319	4717.3
2914.77587	4720.5
2917.25702	4727.7
2919.73665	4721.1
2922.21476	4705.4
2924.69136	4699.2
2927.16644	4685
2929.64	4675
2932.11205	4663.3
2934.58258	4647.6
2937.05161	4668.7
2939.51912	4658.6
2941.98513	4655.8
2944.44962	4635.3
2946.91261	4624.5
2949.37409	4627.6
2951.83407	4613.9
2954.29254	4608.6
2956.74951	4610.8
2959.20498	4602
2961.65895	4603.2
2964.11142	4601.2
2966.56239	4586.3
2969.01186	4590.2
2971.45984	4592.3
2973.90632	4572.5
2976.35131	4568.7
2978.7948	4561.3
2981.23681	4559
2983.67732	4547.7
2986.11635	4537.5
2988.55388	4521.2
2990.98993	4505.1
2993.4245	4497.6
2995.85758	4480.7
2998.28917	4481.2
3000.71928	4459.6
3003.14791	4463.6
3005.57506	4437
3008.00073	4417.2
3010.42493	4418.3
3012.84764	4389.3
3015.26888	4406.8
3017.68865	4379.8
3020.10694	4371.2
3022.52376	4368.8
3024.9391	4349.4
3027.35298	4321.8
3029.76539	4311
3032.17632	4318.9
3034.5858	4309.8
3036.9938	4309.5
3039.40034	4293.8
3041.80542	4281.3
3044.20903	4260.8
3046.61118	4254.4
3049.01187	4227.7
3051.4111	4236.2
3053.80888	4230.1
3056.20519	4206.3
3058.60005	4203.3
3060.99345	4197
3063.3854	4194
3065.7759	4182.8
3068.16494	4162.2
3070.55254	4148.6
3072.93868	4150.5
3075.32338	4118.6
3077.70662	4107.6
3080.08842	4110.8
3082.46878	4102.3
3084.84769	4089.4
3087.22515	4075.6
3089.60118	4089
3091.97576	4076.9
3094.3489	4062.3
3096.72061	4070
3099.09087	4048.7
3101.4597	4041.2
3103.82709	4059.4
3106.19305	4053.7
3108.55757	4041.8
3110.92066	4038.6
3113.28232	4026.4
3115.64255	4013.6
3118.00134	4000.5
3120.35871	3986.4
3122.71466	3980.7
3125.06917	3982.5
3127.42226	3958.8
3129.77393	3943.5
3132.12417	3946.3
3134.47299	3935.3
3136.82039	3931.5
3139.16636	3929.3
3141.51092	3931.2
3143.85406	3915.9
3146.19579	3912
3148.53609	3919.2
3150.87499	3905.2
3153.21246	3911.5
3155.54853	3905.3
3157.88318	3887.6
3160.21642	3890
3162.54826	3893.5
3164.87868	3888.8
3167.2077	3884.7
3169.5353	3869.8
3171.86151	3875.2
3174.18631	3859.1
3176.5097	3856.5
3178.83169	3835.3
3181.15228	3836.7
3183.47147	3817.4
3185.78926	3816.6
3188.10565	3795.7
3190.42065	3786.9
3192.73424	3778.9
3195.04645	3784.6
3197.35725	3767.8
3199.66667	3772.9
3201.97469	3773.6
3204.28132	3768.9
3206.58656	3778.1
3208.8904	3762.3
3211.19287	3765.1
3213.49394	3755.8
3215.79363	3763.2
3218.09193	3760.5
3220.38884	3769.3
3222.68438	3736.9
3224.97853	3746.7
3227.2713	3735.8
3229.56269	3725.9
3231.8527	3715.9
3234.14133	3721.4
3236.42858	3694.7
3238.71446	3691.8
3240.99896	3684.6
3243.28209	3668.8
3245.56384	3654.5
3247.84423	3654.4
3250.12324	3632.8
3252.40088	3638.7
3254.67715	3637.8
3256.95205	3629.1
3259.22558	3637.2
3261.49775	3623.9
3263.76855	3630.9
3266.03799	3623.7
3268.30606	3633.7
3270.57277	3610.5
3272.83812	3597.6
3275.10211	3591.2
3277.36474	3577.8
3279.62601	3579.9
3281.88593	3571
3284.14448	3549.1
3286.40168	3562.5
3288.65753	3545.6
3290.91202	3551.6
3293.16516	3533.7
3295.41695	3530.9
3297.66738	3503.5
3299.91647	3510.8
3302.16421	3481.6
3304.4106	3448.4
3306.65564	3444.9
3308.89933	3406.2
3311.14169	3382.9
3313.38269	3333.5
3315.62236	3321.5
3317.86068	3289.9
3320.09766	3271.8
3322.3333	3240.8
3324.5676	3221.8
3326.80056	3161.2
3329.03219	3142.6
3331.26248	0.4
3333.49143	-0.2
3335.71905	-0.2
