Data from AgNPs_UA_20uM_CRN_500uM_SU_RamanShift__60__13-46-30-302.txt Node

Date: Thu Aug 04 13:46:30 BST 2022
User: TCL
Spectrometer: QEP01345
Trigger mode: 4
Integration Time (sec): 1.000000E0
Scans to average: 10
Electric dark correction enabled: true
Nonlinearity correction enabled: false
Boxcar width: 0
XAxis mode: Raman Shifts
Number of Pixels in Spectrum: 1044
>>>>>Begin Spectral Data<<<<<
46.04893	-1.6625
50.45542	-0.8625
54.85868	-0.1625
59.25871	0.3375
63.6555	15.2375
68.04907	12.7375
72.43941	15.4375
76.82654	16.0375
81.21044	13.5375
85.59113	16.2375
89.96862	17.6375
94.34289	18.3375
98.71396	18.8375
103.08183	21.1375
107.4465	18.8375
111.80798	22.0375
116.16626	21.6375
120.52136	23.7375
124.87327	23.2375
129.222	27.6375
133.56755	24.3375
137.90993	26.3375
142.24913	31.2375
146.58517	35.3375
150.91804	37.7375
155.24774	47.3375
159.57429	61.1375
163.89768	76.4375
168.21792	106.5375
172.53501	143.5375
176.84895	199.2375
181.15975	281.9375
185.46741	391.3375
189.77193	546.0375
194.07331	735.2375
198.37157	942.6375
202.6667	1165.7375
206.9587	1395.0375
211.24758	1605.1375
215.53334	1828.0375
219.81599	2056.9375
224.09553	2320.2375
228.37195	2594.2375
232.64527	2918.8375
236.91549	3236.2375
241.18261	3547.1375
245.44663	3808.5375
249.70755	4036.6375
253.96539	4241.5375
258.22014	4409.0375
262.4718	4562.2375
266.72039	4669.7375
270.96589	4717.7375
275.20832	4729.1375
279.44768	4663.4375
283.68397	4591.2375
287.91719	4514.7375
292.14735	4513.2375
296.37445	4553.8375
300.59849	4619.6375
304.81948	4755.6375
309.03742	4849.7375
313.25231	4858.0375
317.46415	4808.0375
321.67296	4699.5375
325.87872	4575.1375
330.08145	4529.4375
334.28114	4564.8375
338.47781	4620.3375
342.67145	4720.9375
346.86207	4839.5375
351.04966	4962.1375
355.23424	5122.4375
359.4158	5265.2375
363.59435	5342.7375
367.76989	5440.5375
371.94243	5458.5375
376.11196	5495.3375
380.27849	5532.7375
384.44203	5540.8375
388.60257	5591.1375
392.76012	5623.7375
396.91468	5721.3375
401.06626	5803.6375
405.21485	5873.3375
409.36047	5845.0375
413.50311	5715.4375
417.64277	5610.8375
421.77947	5513.2375
425.9132	5508.9375
430.04396	5534.2375
434.17176	5629.7375
438.2966	5762.5375
442.41849	5953.7375
446.53742	6181.0375
450.6534	6438.8375
454.76644	6574.3375
458.87653	6571.0375
462.98368	6470.6375
467.08789	6327.7375
471.18916	6122.6375
475.2875	5941.3375
479.38291	5779.7375
483.4754	5688.5375
487.56496	5630.0375
491.6516	5560.0375
495.73531	5533.1375
499.81612	5525.4375
503.89401	5555.7375
507.96899	5585.2375
512.04106	5614.7375
516.11023	5681.0375
520.1765	5695.8375
524.23987	5739.6375
528.30034	5725.5375
532.35792	5702.6375
536.41261	5625.9375
540.46441	5567.0375
544.51333	5546.9375
548.55936	5608.3375
552.60252	5689.6375
556.64279	5758.7375
560.6802	5777.9375
564.71473	5770.7375
568.7464	5792.0375
572.7752	5796.0375
576.80114	5749.8375
580.82422	5736.0375
584.84444	5817.8375
588.86181	5980.9375
592.87633	6186.0375
596.888	6345.8375
600.89682	6538.2375
604.9028	7112.6375
608.90594	8238.8375
612.90624	9140.8375
616.90371	8402.0375
620.89834	6941.3375
624.89015	6425.2375
628.87913	6385.1375
632.86528	6280.3375
636.84862	6123.4375
640.82913	5946.7375
644.80683	5753.0375
648.78172	5675.6375
652.75379	5727.2375
656.72306	5883.5375
660.68952	6063.3375
664.65319	6036.1375
668.61405	5948.4375
672.57211	5966.5375
676.52738	5947.0375
680.47986	5881.8375
684.42955	5803.6375
688.37646	5785.6375
692.32058	5860.9375
696.26192	5933.4375
700.20048	6036.1375
704.13626	6037.3375
708.06928	5976.7375
711.99952	5914.0375
715.927	5934.6375
719.85171	5938.2375
723.77365	5910.4375
727.69284	5863.5375
731.60928	5823.2375
735.52295	5851.0375
739.43388	5904.8375
743.34206	5945.2375
747.24749	5985.4375
751.15017	6003.8375
755.05012	6098.5375
758.94733	6263.9375
762.8418	6655.6375
766.73354	7211.0375
770.62254	7735.7375
774.50882	7905.6375
778.39237	7638.0375
782.27321	7080.6375
786.15132	6548.8375
790.02671	6219.7375
793.89938	6085.4375
797.76935	6021.5375
801.6366	5983.3375
805.50115	5953.7375
809.36299	5920.5375
813.22213	5919.0375
817.07857	5889.5375
820.93231	5914.4375
824.78336	5904.0375
828.63172	5941.3375
832.47738	5952.1375
836.32036	5967.1375
840.16066	5994.7375
843.99827	6035.8375
847.8332	6012.9375
851.66546	5960.4375
855.49504	5964.1375
859.32195	5980.9375
863.1462	5955.7375
866.96777	5928.8375
870.78668	5904.8375
874.60293	5933.0375
878.41652	5955.6375
882.22745	5988.4375
886.03573	6009.7375
889.84136	6002.9375
893.64433	5973.2375
897.44466	5955.7375
901.24235	5962.3375
905.0374	5947.8375
908.8298	5921.0375
912.61957	5914.3375
916.40671	5964.1375
920.19121	6024.1375
923.97308	6095.6375
927.75233	6193.8375
931.52895	6216.8375
935.30295	6170.0375
939.07433	6051.9375
942.84309	5964.9375
946.60924	5946.1375
950.37278	5914.5375
954.13371	5869.8375
957.89203	5854.3375
961.64774	5839.6375
965.40086	5803.0375
969.15137	5790.7375
972.89929	5787.2375
976.64461	5802.5375
980.38733	5817.9375
984.12747	5859.2375
987.86502	5893.8375
991.59999	5992.2375
995.33237	6153.0375
999.06217	6411.1375
1002.78939	6658.5375
1006.51404	6728.1375
1010.23611	6789.9375
1013.95561	6874.0375
1017.67255	6982.6375
1021.38692	6966.4375
1025.09872	6934.4375
1028.80796	7046.1375
1032.51465	7260.8375
1036.21877	7406.6375
1039.92035	7364.3375
1043.61937	7216.3375
1047.31584	6984.1375
1051.00976	6770.7375
1054.70114	6666.7375
1058.38998	6654.0375
1062.07627	6652.8375
1065.76003	6665.3375
1069.44126	6702.3375
1073.11995	6765.7375
1076.79611	6811.1375
1080.46974	6858.8375
1084.14085	6943.4375
1087.80943	7003.9375
1091.47549	6983.6375
1095.13903	6885.2375
1098.80005	6776.2375
1102.45857	6703.9375
1106.11456	6713.4375
1109.76805	6733.8375
1113.41903	6803.7375
1117.06751	6894.0375
1120.71348	7014.9375
1124.35696	7150.7375
1127.99793	7207.5375
1131.63641	7105.9375
1135.2724	6982.4375
1138.90589	6826.5375
1142.5369	6738.7375
1146.16542	6645.3375
1149.79145	6625.7375
1153.415	6622.6375
1157.03607	6658.7375
1160.65467	6731.2375
1164.27079	6923.9375
1167.88443	7144.9375
1171.49561	7517.3375
1175.10432	8089.5375
1178.71056	8839.7375
1182.31434	9573.9375
1185.91565	10006.3375
1189.51451	10091.6375
1193.11091	9745.7375
1196.70485	9204.1375
1200.29634	8737.3375
1203.88538	8301.5375
1207.47197	7946.6375
1211.05612	7670.2375
1214.63782	7500.4375
1218.21708	7501.0375
1221.79391	7556.7375
1225.36829	7634.3375
1228.94024	7639.2375
1232.50976	7570.3375
1236.07685	7552.9375
1239.6415	7589.9375
1243.20374	7602.1375
1246.76355	7645.5375
1250.32093	7753.8375
1253.8759	7936.0375
1257.42845	8166.2375
1260.97859	8409.9375
1264.52631	8599.0375
1268.07163	8754.7375
1271.61453	8880.1375
1275.15503	9050.0375
1278.69312	9253.4375
1282.22882	9412.3375
1285.76211	9610.7375
1289.29301	9775.0375
1292.82151	9968.0375
1296.34761	10216.7375
1299.87133	10573.5375
1303.39266	11181.4375
1306.9116	11942.3375
1310.42815	12721.9375
1313.94233	13049.7375
1317.45412	12812.3375
1320.96354	12231.9375
1324.47058	11668.6375
1327.97525	11283.5375
1331.47754	11225.5375
1334.97747	11377.9375
1338.47502	11628.3375
1341.97022	11870.4375
1345.46305	12091.3375
1348.95352	12370.5375
1352.44163	12798.1375
1355.92738	13417.1375
1359.41078	14126.3375
1362.89183	14481.8375
1366.37053	13737.8375
1369.84688	12264.8375
1373.32088	10840.2375
1376.79254	10007.7375
1380.26186	9595.2375
1383.72883	9386.4375
1387.19347	9171.8375
1390.65578	8915.2375
1394.11575	8659.8375
1397.57339	8502.4375
1401.0287	8531.8375
1404.48168	8682.5375
1407.93234	8911.0375
1411.38068	9134.0375
1414.82669	9238.7375
1418.27039	9132.6375
1421.71177	8952.4375
1425.15083	8907.8375
1428.58758	8991.6375
1432.02203	9168.7375
1435.45416	9317.4375
1438.88399	9308.5375
1442.31151	9235.3375
1445.73673	9144.2375
1449.15965	9066.7375
1452.58027	8914.5375
1455.9986	8799.8375
1459.41463	8730.5375
1462.82837	8823.0375
1466.23982	8995.8375
1469.64898	9173.0375
1473.05586	9332.1375
1476.46045	9479.9375
1479.86276	9577.5375
1483.26279	9653.4375
1486.66054	9734.1375
1490.05602	9895.7375
1493.44922	10148.9375
1496.84016	10515.2375
1500.22882	10997.0375
1503.61521	11563.8375
1506.99934	12136.8375
1510.38121	12367.1375
1513.76081	12088.8375
1517.13816	11389.2375
1520.51324	10638.0375
1523.88607	10111.0375
1527.25665	9830.0375
1530.62498	9702.8375
1533.99105	9662.5375
1537.35488	9675.8375
1540.71647	9619.1375
1544.07581	9573.2375
1547.4329	9438.0375
1550.78776	9232.3375
1554.14038	9032.7375
1557.49077	8935.9375
1560.83892	8852.5375
1564.18484	8894.2375
1567.52853	8980.4375
1570.86999	8989.1375
1574.20922	8994.7375
1577.54624	8853.7375
1580.88103	8645.2375
1584.2136	8448.6375
1587.54395	8514.4375
1590.87208	8910.3375
1594.19801	9602.4375
1597.52172	10512.3375
1600.84321	11074.2375
1604.16251	11001.9375
1607.47959	10399.1375
1610.79447	9532.9375
1614.10715	8736.2375
1617.41763	8104.9375
1620.7259	7691.7375
1624.03199	7506.5375
1627.33587	7526.2375
1630.63757	7740.4375
1633.93707	8169.4375
1637.23439	8795.2375
1640.52951	9610.8375
1643.82246	10452.7375
1647.11321	10980.9375
1650.40179	10777.5375
1653.68819	9851.4375
1656.97241	8693.4375
1660.25446	7695.8375
1663.53433	7017.3375
1666.81203	6637.1375
1670.08756	6402.7375
1673.36092	6235.6375
1676.63211	6147.3375
1679.90115	6050.2375
1683.16801	5985.2375
1686.43272	5935.9375
1689.69527	5904.0375
1692.95567	5899.5375
1696.2139	5877.9375
1699.46999	5847.2375
1702.72392	5838.7375
1705.97571	5859.4375
1709.22535	5838.8375
1712.47284	5834.4375
1715.71819	5845.1375
1718.96139	5817.8375
1722.20246	5826.3375
1725.44139	5786.7375
1728.67818	5775.5375
1731.91284	5744.0375
1735.14537	5713.0375
1738.37576	5695.5375
1741.60403	5677.0375
1744.83017	5663.3375
1748.05418	5649.9375
1751.27607	5643.9375
1754.49584	5626.0375
1757.71349	5617.8375
1760.92903	5601.2375
1764.14244	5604.3375
1767.35375	5594.5375
1770.56294	5593.9375
1773.77002	5589.7375
1776.97499	5602.6375
1780.17785	5573.8375
1783.37861	5577.9375
1786.57727	5553.4375
1789.77382	5557.8375
1792.96828	5554.9375
1796.16064	5533.7375
1799.3509	5511.6375
1802.53907	5514.3375
1805.72514	5512.8375
1808.90913	5509.9375
1812.09102	5500.5375
1815.27083	5479.5375
1818.44856	5470.7375
1821.6242	5452.2375
1824.79776	5462.5375
1827.96924	5444.0375
1831.13864	5445.3375
1834.30597	5441.7375
1837.47122	5426.4375
1840.6344	5406.6375
1843.7955	5410.6375
1846.95454	5410.7375
1850.11151	5394.7375
1853.26642	5409.2375
1856.41926	5402.3375
1859.57004	5410.1375
1862.71876	5404.0375
1865.86542	5400.9375
1869.01003	5403.3375
1872.15258	5401.0375
1875.29308	5386.3375
1878.43152	5384.5375
1881.56792	5396.4375
1884.70227	5368.0375
1887.83457	5382.0375
1890.96482	5389.2375
1894.09304	5359.9375
1897.21921	5359.0375
1900.34335	5359.0375
1903.46544	5353.5375
1906.58551	5360.0375
1909.70353	5358.0375
1912.81953	5356.5375
1915.93349	5334.1375
1919.04543	5339.5375
1922.15534	5347.2375
1925.26322	5309.8375
1928.36908	5305.4375
1931.47292	5296.7375
1934.57473	5297.8375
1937.67453	5308.3375
1940.77232	5298.0375
1943.86808	5284.6375
1946.96184	5266.6375
1950.05358	5231.4375
1953.14331	5232.4375
1956.23103	5227.8375
1959.31675	5183.6375
1962.40046	5172.4375
1965.48217	5158.2375
1968.56188	5138.5375
1971.63959	5128.9375
1974.7153	5114.2375
1977.78901	5106.2375
1980.86073	5085.1375
1983.93046	5075.3375
1986.99819	5054.5375
1990.06394	5036.3375
1993.1277	5014.3375
1996.18947	5025.7375
1999.24925	5009.8375
2002.30706	4985.5375
2005.36288	4959.4375
2008.41672	4960.5375
2011.46859	4936.0375
2014.51848	4926.8375
2017.56639	4915.8375
2020.61233	4906.1375
2023.6563	4895.6375
2026.6983	4892.5375
2029.73833	4884.6375
2032.7764	4869.4375
2035.8125	4844.0375
2038.84664	4849.3375
2041.87881	4850.2375
2044.90903	4822.7375
2047.93729	4819.9375
2050.96359	4823.0375
2053.98794	4824.8375
2057.01034	4818.2375
2060.03078	4805.9375
2063.04927	4800.4375
2066.06582	4792.9375
2069.08042	4787.0375
2072.09307	4776.7375
2075.10378	4787.9375
2078.11255	4773.4375
2081.11938	4786.3375
2084.12426	4763.6375
2087.12722	4766.1375
2090.12824	4768.9375
2093.12732	4759.4375
2096.12447	4754.1375
2099.11969	4759.6375
2102.11299	4760.6375
2105.10435	4761.8375
2108.09379	4756.1375
2111.08131	4755.6375
2114.0669	4773.6375
2117.05057	4760.1375
2120.03233	4749.3375
2123.01216	4765.4375
2125.99008	4763.1375
2128.96609	4773.1375
2131.94018	4779.4375
2134.91236	4779.4375
2137.88263	4778.7375
2140.851	4775.4375
2143.81746	4776.8375
2146.78201	4781.4375
2149.74466	4779.9375
2152.7054	4762.8375
2155.66425	4776.5375
2158.6212	4786.3375
2161.57625	4772.4375
2164.52941	4767.6375
2167.48067	4766.1375
2170.43004	4775.7375
2173.37752	4753.1375
2176.32311	4765.2375
2179.26681	4754.5375
2182.20863	4774.0375
2185.14856	4762.8375
2188.08661	4766.6375
2191.02278	4776.3375
2193.95707	4768.8375
2196.88948	4761.4375
2199.82001	4772.2375
2202.74867	4764.7375
2205.67545	4764.8375
2208.60037	4768.2375
2211.52341	4754.7375
2214.44458	4745.6375
2217.36388	4736.0375
2220.28132	4725.9375
2223.1969	4705.6375
2226.11061	4702.5375
2229.02246	4680.1375
2231.93245	4679.9375
2234.84058	4679.5375
2237.74686	4678.5375
2240.65128	4674.4375
2243.55385	4672.3375
2246.45456	4663.7375
2249.35343	4657.2375
2252.25044	4652.2375
2255.14561	4634.9375
2258.03893	4638.1375
2260.93041	4629.6375
2263.82004	4622.4375
2266.70783	4621.3375
2269.59378	4588.1375
2272.4779	4586.9375
2275.36017	4565.8375
2278.24061	4536.6375
2281.11922	4546.0375
2283.996	4524.5375
2286.87094	4528.0375
2289.74405	4505.2375
2292.61534	4511.9375
2295.4848	4518.0375
2298.35243	4527.1375
2301.21824	4508.7375
2304.08223	4523.9375
2306.94439	4526.4375
2309.80474	4527.6375
2312.66327	4517.0375
2315.51999	4520.2375
2318.37489	4532.6375
2321.22797	4518.9375
2324.07925	4518.8375
2326.92871	4493.5375
2329.77637	4491.4375
2332.62222	4503.3375
2335.46626	4499.8375
2338.3085	4503.7375
2341.14893	4491.8375
2343.98756	4512.2375
2346.8244	4490.0375
2349.65943	4490.9375
2352.49267	4497.2375
2355.32411	4507.8375
2358.15376	4495.1375
2360.98161	4487.5375
2363.80768	4480.4375
2366.63195	4480.8375
2369.45444	4464.6375
2372.27514	4450.6375
2375.09405	4448.2375
2377.91118	4455.0375
2380.72652	4443.4375
2383.54009	4419.4375
2386.35187	4409.4375
2389.16188	4404.6375
2391.97011	4399.0375
2394.77657	4384.4375
2397.58125	4375.8375
2400.38416	4366.8375
2403.18529	4363.0375
2405.98466	4359.9375
2408.78226	4356.6375
2411.57809	4321.3375
2414.37216	4312.2375
2417.16446	4319.0375
2419.955	4313.6375
2422.74378	4307.8375
2425.5308	4302.6375
2428.31606	4295.8375
2431.09956	4292.6375
2433.88131	4291.1375
2436.6613	4285.2375
2439.43954	4280.2375
2442.21603	4291.1375
2444.99077	4278.2375
2447.76377	4285.2375
2450.53501	4275.9375
2453.30451	4257.4375
2456.07226	4244.8375
2458.83827	4251.6375
2461.60254	4253.4375
2464.36507	4237.0375
2467.12586	4241.1375
2469.88492	4256.2375
2472.64224	4232.0375
2475.39782	4242.1375
2478.15167	4243.9375
2480.90379	4247.4375
2483.65417	4250.6375
2486.40283	4246.4375
2489.14976	4260.6375
2491.89497	4254.4375
2494.63845	4266.8375
2497.3802	4257.3375
2500.12024	4245.9375
2502.85855	4240.8375
2505.59514	4239.6375
2508.33002	4220.9375
2511.06318	4217.7375
2513.79462	4199.8375
2516.52435	4207.8375
2519.25237	4202.7375
2521.97867	4209.9375
2524.70327	4195.9375
2527.42616	4193.4375
2530.14734	4208.2375
2532.86681	4197.2375
2535.58458	4190.8375
2538.30065	4176.4375
2541.01501	4192.6375
2543.72768	4178.8375
2546.43864	4181.1375
2549.14791	4174.9375
2551.85548	4177.0375
2554.56136	4171.1375
2557.26554	4159.6375
2559.96803	4169.0375
2562.66883	4159.2375
2565.36794	4149.3375
2568.06536	4132.4375
2570.7611	4128.4375
2573.45514	4123.5375
2576.14751	4122.8375
2578.83819	4119.9375
2581.52719	4106.9375
2584.21451	4101.6375
2586.90015	4105.8375
2589.58411	4082.9375
2592.2664	4101.7375
2594.94701	4100.5375
2597.62594	4113.2375
2600.30321	4097.3375
2602.9788	4102.0375
2605.65273	4088.0375
2608.32498	4082.5375
2610.99557	4092.8375
2613.66449	4089.7375
2616.33175	4102.2375
2618.99734	4086.5375
2621.66128	4083.7375
2624.32355	4092.2375
2626.98416	4095.6375
2629.64311	4105.3375
2632.30041	4085.2375
2634.95605	4095.8375
2637.61004	4069.2375
2640.26238	4075.5375
2642.91306	4068.5375
2645.56209	4056.2375
2648.20948	4072.4375
2650.85521	4048.7375
2653.4993	4059.5375
2656.14175	4039.9375
2658.78255	4052.2375
2661.42171	4042.7375
2664.05923	4064.3375
2666.6951	4074.2375
2669.32934	4067.5375
2671.96194	4062.6375
2674.59291	4058.9375
2677.22224	4060.3375
2679.84993	4048.7375
2682.476	4049.1375
2685.10043	4051.6375
2687.72324	4036.3375
2690.34441	4045.8375
2692.96396	4048.3375
2695.58188	4035.3375
2698.19818	4030.6375
2700.81285	4049.6375
2703.4259	4039.9375
2706.03733	4040.2375
2708.64714	4026.0375
2711.25533	4008.7375
2713.86191	4024.6375
2716.46687	4012.6375
2719.07021	4032.6375
2721.67194	4036.5375
2724.27206	4038.7375
2726.87057	4044.8375
2729.46747	4026.4375
2732.06276	4028.3375
2734.65644	4028.2375
2737.24852	4020.2375
2739.83899	4016.9375
2742.42786	4026.5375
2745.01513	4006.4375
2747.60079	4008.1375
2750.18486	4012.1375
2752.76733	4002.9375
2755.3482	3999.6375
2757.92747	4014.2375
2760.50515	3989.9375
2763.08123	3988.0375
2765.65573	3992.2375
2768.22863	3971.7375
2770.79994	3973.6375
2773.36967	4001.2375
2775.9378	3984.5375
2778.50435	3990.8375
2781.06932	3977.8375
2783.6327	3975.8375
2786.1945	3965.6375
2788.75471	3969.3375
2791.31335	3954.6375
2793.87041	3944.1375
2796.42589	3948.2375
2798.97979	3948.1375
2801.53212	3921.4375
2804.08288	3940.9375
2806.63206	3928.5375
2809.17967	3924.2375
2811.72571	3917.7375
2814.27018	3903.5375
2816.81308	3888.0375
2819.35442	3896.9375
2821.89419	3881.7375
2824.43239	3870.5375
2826.96904	3877.2375
2829.50412	3878.5375
2832.03763	3852.1375
2834.56959	3863.9375
2837.1	3855.5375
2839.62884	3846.7375
2842.15613	3843.0375
2844.68186	3859.8375
2847.20604	3834.7375
2849.72867	3840.8375
2852.24974	3828.1375
2854.76927	3822.6375
2857.28724	3805.5375
2859.80367	3796.4375
2862.31855	3795.4375
2864.83189	3793.6375
2867.34368	3792.7375
2869.85393	3786.0375
2872.36264	3771.4375
2874.8698	3772.7375
2877.37543	3768.6375
2879.87952	3760.2375
2882.38207	3773.2375
2884.88308	3767.3375
2887.38256	3762.7375
2889.88051	3747.9375
2892.37692	3760.7375
2894.8718	3770.1375
2897.36515	3774.4375
2899.85698	3755.8375
2902.34727	3771.6375
2904.83604	3748.3375
2907.32328	3775.8375
2909.809	3771.8375
2912.29319	3774.4375
2914.77587	3776.1375
2917.25702	3767.8375
2919.73665	3762.2375
2922.21476	3774.7375
2924.69136	3784.0375
2927.16644	3757.1375
2929.64	3752.9375
2932.11205	3756.1375
2934.58258	3742.3375
2937.05161	3741.4375
2939.51912	3725.9375
2941.98513	3732.2375
2944.44962	3724.3375
2946.91261	3712.2375
2949.37409	3720.4375
2951.83407	3738.5375
2954.29254	3713.6375
2956.74951	3723.3375
2959.20498	3713.7375
2961.65895	3694.0375
2964.11142	3682.3375
2966.56239	3692.9375
2969.01186	3697.5375
2971.45984	3694.3375
2973.90632	3687.7375
2976.35131	3670.5375
2978.7948	3656.5375
2981.23681	3647.2375
2983.67732	3631.1375
2986.11635	3630.9375
2988.55388	3629.0375
2990.98993	3618.6375
2993.4245	3614.8375
2995.85758	3604.3375
2998.28917	3588.2375
3000.71928	3590.3375
3003.14791	3577.9375
3005.57506	3572.5375
3008.00073	3565.6375
3010.42493	3535.4375
3012.84764	3534.7375
3015.26888	3528.4375
3017.68865	3526.7375
3020.10694	3514.8375
3022.52376	3504.2375
3024.9391	3493.7375
3027.35298	3490.0375
3029.76539	3470.2375
3032.17632	3472.0375
3034.5858	3470.0375
3036.9938	3465.9375
3039.40034	3461.8375
3041.80542	3446.7375
3044.20903	3454.1375
3046.61118	3453.3375
3049.01187	3430.1375
3051.4111	3435.8375
3053.80888	3416.0375
3056.20519	3405.8375
3058.60005	3399.5375
3060.99345	3390.3375
3063.3854	3382.0375
3065.7759	3387.1375
3068.16494	3361.0375
3070.55254	3347.3375
3072.93868	3351.5375
3075.32338	3329.7375
3077.70662	3322.4375
3080.08842	3316.2375
3082.46878	3299.0375
3084.84769	3284.8375
3087.22515	3281.3375
3089.60118	3287.8375
3091.97576	3291.3375
3094.3489	3291.0375
3096.72061	3278.9375
3099.09087	3271.3375
3101.4597	3262.5375
3103.82709	3264.8375
3106.19305	3257.4375
3108.55757	3263.6375
3110.92066	3260.6375
3113.28232	3252.5375
3115.64255	3237.7375
3118.00134	3233.9375
3120.35871	3230.4375
3122.71466	3220.7375
3125.06917	3221.4375
3127.42226	3204.6375
3129.77393	3197.6375
3132.12417	3192.0375
3134.47299	3186.5375
3136.82039	3181.1375
3139.16636	3189.2375
3141.51092	3180.9375
3143.85406	3176.7375
3146.19579	3191.0375
3148.53609	3175.9375
3150.87499	3184.6375
3153.21246	3153.9375
3155.54853	3160.6375
3157.88318	3169.4375
3160.21642	3171.3375
3162.54826	3151.0375
3164.87868	3163.0375
3167.2077	3143.3375
3169.5353	3147.8375
3171.86151	3145.6375
3174.18631	3138.4375
3176.5097	3139.2375
3178.83169	3125.4375
3181.15228	3121.2375
3183.47147	3103.3375
3185.78926	3121.6375
3188.10565	3101.9375
3190.42065	3103.5375
3192.73424	3103.7375
3195.04645	3076.1375
3197.35725	3084.8375
3199.66667	3073.8375
3201.97469	3082.2375
3204.28132	3067.4375
3206.58656	3071.0375
3208.8904	3082.8375
3211.19287	3083.8375
3213.49394	3083.4375
3215.79363	3076.5375
3218.09193	3086.4375
3220.38884	3072.7375
3222.68438	3080.5375
3224.97853	3065.8375
3227.2713	3066.7375
3229.56269	3070.9375
3231.8527	3073.2375
3234.14133	3060.2375
3236.42858	3038.0375
3238.71446	3047.8375
3240.99896	3040.0375
3243.28209	3036.3375
3245.56384	3025.5375
3247.84423	3031.9375
3250.12324	3020.1375
3252.40088	3010.1375
3254.67715	3008.9375
3256.95205	3000.8375
3259.22558	2998.0375
3261.49775	3000.8375
3263.76855	3008.5375
3266.03799	3000.6375
3268.30606	3012.7375
3270.57277	2993.8375
3272.83812	2999.9375
3275.10211	2979.5375
3277.36474	2975.5375
3279.62601	2980.8375
3281.88593	2950.9375
3284.14448	2957.8375
3286.40168	2961.8375
3288.65753	2957.9375
3290.91202	2945.6375
3293.16516	2934.3375
3295.41695	2933.3375
3297.66738	2923.9375
3299.91647	2894.9375
3302.16421	2888.2375
3304.4106	2881.3375
3306.65564	2849.6375
3308.89933	2824.6375
3311.14169	2822.3375
3313.38269	2786.1375
3315.62236	2771.6375
3317.86068	2741.1375
3320.09766	2727.9375
3322.3333	2697.7375
3324.5676	2684.3375
3326.80056	2648.7375
3329.03219	2628.0375
3331.26248	2.9375
3333.49143	-0.3625
3335.71905	-1.3625
