Data from AgNPs_UA_5uM_CRN_500uM_SU_RamanShift__101__11-46-13-159.txt Node

Date: Thu Aug 04 11:46:13 BST 2022
User: TCL
Spectrometer: QEP01345
Trigger mode: 4
Integration Time (sec): 1.000000E0
Scans to average: 10
Electric dark correction enabled: true
Nonlinearity correction enabled: false
Boxcar width: 0
XAxis mode: Raman Shifts
Number of Pixels in Spectrum: 1044
>>>>>Begin Spectral Data<<<<<
46.04893	-0.175
50.45542	0.525
54.85868	-0.975
59.25871	-0.375
63.6555	-66.275
68.04907	-48.175
72.43941	-79.275
76.82654	-65.575
81.21044	-66.275
85.59113	-57.775
89.96862	-85.975
94.34289	-65.875
98.71396	-86.875
103.08183	-68.975
107.4465	-59.875
111.80798	-65.875
116.16626	-56.275
120.52136	-87.275
124.87327	-64.675
129.222	-77.575
133.56755	-66.275
137.90993	-81.975
142.24913	-71.975
146.58517	-66.975
150.91804	-71.675
155.24774	-67.475
159.57429	-58.375
163.89768	-69.975
168.21792	-47.075
172.53501	-63.875
176.84895	-33.975
181.15975	25.125
185.46741	64.425
189.77193	103.925
194.07331	218.425
198.37157	297.925
202.6667	370.625
206.9587	472.125
211.24758	563.325
215.53334	652.125
219.81599	741.225
224.09553	847.425
228.37195	958.325
232.64527	1077.825
236.91549	1224.125
241.18261	1332.525
245.44663	1476.325
249.70755	1583.825
253.96539	1684.125
258.22014	1790.925
262.4718	1846.025
266.72039	1902.025
270.96589	1910.125
275.20832	1888.825
279.44768	1878.425
283.68397	1846.325
287.91719	1822.825
292.14735	1795.025
296.37445	1799.925
300.59849	1815.825
304.81948	1826.525
309.03742	1856.625
313.25231	1867.325
317.46415	1899.825
321.67296	1844.825
325.87872	1815.425
330.08145	1824.825
334.28114	1833.925
338.47781	1848.825
342.67145	1889.325
346.86207	1916.225
351.04966	1974.025
355.23424	2019.925
359.4158	2079.125
363.59435	2077.525
367.76989	2099.225
371.94243	2103.625
376.11196	2116.025
380.27849	2142.025
384.44203	2153.525
388.60257	2163.225
392.76012	2161.425
396.91468	2224.925
401.06626	2265.125
405.21485	2248.025
409.36047	2267.225
413.50311	2257.425
417.64277	2261.425
421.77947	2239.525
425.9132	2272.425
430.04396	2269.925
434.17176	2287.025
438.2966	2335.725
442.41849	2342.825
446.53742	2372.825
450.6534	2378.425
454.76644	2417.825
458.87653	2449.225
462.98368	2431.825
467.08789	2434.125
471.18916	2442.925
475.2875	2462.825
479.38291	2489.125
483.4754	2473.525
487.56496	2500.225
491.6516	2502.625
495.73531	2505.125
499.81612	2507.225
503.89401	2538.025
507.96899	2542.225
512.04106	2573.625
516.11023	2589.125
520.1765	2599.625
524.23987	2607.225
528.30034	2644.125
532.35792	2610.725
536.41261	2632.825
540.46441	2628.125
544.51333	2631.725
548.55936	2645.125
552.60252	2694.025
556.64279	2689.525
560.6802	2728.725
564.71473	2737.425
568.7464	2771.425
572.7752	2774.625
576.80114	2753.625
580.82422	2757.425
584.84444	2756.625
588.86181	2745.925
592.87633	2770.025
596.888	2784.825
600.89682	2821.125
604.9028	2924.925
608.90594	3079.525
612.90624	3281.825
616.90371	3209.025
620.89834	2987.025
624.89015	2924.925
628.87913	2894.325
632.86528	2929.725
636.84862	2956.425
640.82913	2958.425
644.80683	2936.825
648.78172	2952.525
652.75379	2970.425
656.72306	3006.225
660.68952	3003.525
664.65319	3028.725
668.61405	3014.225
672.57211	3021.325
676.52738	3055.625
680.47986	3039.525
684.42955	3071.525
688.37646	3075.625
692.32058	3076.525
696.26192	3083.325
700.20048	3112.725
704.13626	3117.025
708.06928	3109.525
711.99952	3143.725
715.927	3131.525
719.85171	3143.525
723.77365	3175.925
727.69284	3158.225
731.60928	3183.625
735.52295	3168.525
739.43388	3198.125
743.34206	3211.225
747.24749	3241.125
751.15017	3265.125
755.05012	3237.425
758.94733	3313.825
762.8418	3342.325
766.73354	3453.225
770.62254	3538.925
774.50882	3510.425
778.39237	3490.125
782.27321	3443.425
786.15132	3393.425
790.02671	3369.725
793.89938	3292.525
797.76935	3330.025
801.6366	3322.025
805.50115	3318.225
809.36299	3345.025
813.22213	3350.025
817.07857	3369.625
820.93231	3356.525
824.78336	3371.325
828.63172	3380.525
832.47738	3384.925
836.32036	3419.725
840.16066	3434.325
843.99827	3433.825
847.8332	3440.925
851.66546	3437.225
855.49504	3424.725
859.32195	3465.125
863.1462	3455.925
866.96777	3492.825
870.78668	3468.825
874.60293	3490.025
878.41652	3495.225
882.22745	3525.025
886.03573	3529.425
889.84136	3518.225
893.64433	3548.025
897.44466	3537.825
901.24235	3538.225
905.0374	3571.125
908.8298	3536.025
912.61957	3563.025
916.40671	3511.525
920.19121	3547.625
923.97308	3595.425
927.75233	3549.825
931.52895	3552.625
935.30295	3597.425
939.07433	3581.325
942.84309	3566.925
946.60924	3573.125
950.37278	3565.825
954.13371	3575.625
957.89203	3569.225
961.64774	3586.225
965.40086	3581.425
969.15137	3551.425
972.89929	3589.425
976.64461	3575.125
980.38733	3598.425
984.12747	3594.925
987.86502	3586.925
991.59999	3594.225
995.33237	3648.125
999.06217	3650.725
1002.78939	3645.225
1006.51404	3666.225
1010.23611	3671.325
1013.95561	3695.825
1017.67255	3700.825
1021.38692	3710.725
1025.09872	3709.925
1028.80796	3689.825
1032.51465	3714.625
1036.21877	3701.125
1039.92035	3723.925
1043.61937	3716.725
1047.31584	3742.425
1051.00976	3778.525
1054.70114	3789.025
1058.38998	3793.625
1062.07627	3772.025
1065.76003	3797.725
1069.44126	3810.025
1073.11995	3812.725
1076.79611	3833.225
1080.46974	3857.025
1084.14085	3875.925
1087.80943	3874.425
1091.47549	3883.725
1095.13903	3894.925
1098.80005	3904.125
1102.45857	3872.525
1106.11456	3878.025
1109.76805	3827.025
1113.41903	3885.425
1117.06751	3895.325
1120.71348	3902.125
1124.35696	3951.125
1127.99793	3961.025
1131.63641	3963.225
1135.2724	3930.025
1138.90589	3914.225
1142.5369	3883.025
1146.16542	3893.025
1149.79145	3869.325
1153.415	3859.525
1157.03607	3854.625
1160.65467	3872.225
1164.27079	3891.825
1167.88443	3907.025
1171.49561	3950.425
1175.10432	3989.625
1178.71056	4067.925
1182.31434	4135.125
1185.91565	4169.325
1189.51451	4165.925
1193.11091	4151.225
1196.70485	4131.025
1200.29634	4104.925
1203.88538	4088.825
1207.47197	4038.225
1211.05612	4007.225
1214.63782	3984.625
1218.21708	3990.025
1221.79391	3985.425
1225.36829	3971.225
1228.94024	3974.125
1232.50976	3985.125
1236.07685	3995.325
1239.6415	4005.325
1243.20374	4009.925
1246.76355	4025.925
1250.32093	4080.325
1253.8759	4058.825
1257.42845	4089.025
1260.97859	4090.925
1264.52631	4141.725
1268.07163	4124.425
1271.61453	4139.725
1275.15503	4147.925
1278.69312	4144.625
1282.22882	4153.325
1285.76211	4180.225
1289.29301	4177.625
1292.82151	4215.625
1296.34761	4233.825
1299.87133	4259.225
1303.39266	4317.825
1306.9116	4404.825
1310.42815	4490.325
1313.94233	4538.225
1317.45412	4489.325
1320.96354	4413.925
1324.47058	4324.425
1327.97525	4254.925
1331.47754	4200.625
1334.97747	4189.725
1338.47502	4177.825
1341.97022	4202.425
1345.46305	4281.025
1348.95352	4346.225
1352.44163	4432.025
1355.92738	4488.825
1359.41078	4609.925
1362.89183	4729.125
1366.37053	4703.225
1369.84688	4476.325
1373.32088	4299.025
1376.79254	4207.925
1380.26186	4117.725
1383.72883	4065.225
1387.19347	4030.825
1390.65578	3980.125
1394.11575	3963.225
1397.57339	3958.425
1401.0287	3932.425
1404.48168	3939.225
1407.93234	3940.525
1411.38068	3916.725
1414.82669	3931.725
1418.27039	3957.025
1421.71177	3952.925
1425.15083	3949.925
1428.58758	3927.325
1432.02203	3937.225
1435.45416	3954.425
1438.88399	3938.825
1442.31151	3910.625
1445.73673	3913.925
1449.15965	3896.425
1452.58027	3894.825
1455.9986	3907.125
1459.41463	3907.425
1462.82837	3921.425
1466.23982	3937.425
1469.64898	3953.125
1473.05586	3943.525
1476.46045	3971.225
1479.86276	3973.225
1483.26279	3990.625
1486.66054	4023.825
1490.05602	4048.325
1493.44922	4109.225
1496.84016	4167.825
1500.22882	4265.325
1503.61521	4387.225
1506.99934	4518.925
1510.38121	4645.325
1513.76081	4701.525
1517.13816	4601.025
1520.51324	4442.825
1523.88607	4291.525
1527.25665	4224.825
1530.62498	4168.325
1533.99105	4156.325
1537.35488	4169.525
1540.71647	4157.125
1544.07581	4155.625
1547.4329	4170.325
1550.78776	4157.425
1554.14038	4162.425
1557.49077	4167.125
1560.83892	4196.925
1564.18484	4216.025
1567.52853	4260.625
1570.86999	4281.625
1574.20922	4278.625
1577.54624	4265.225
1580.88103	4240.125
1584.2136	4163.825
1587.54395	4168.225
1590.87208	4172.125
1594.19801	4162.025
1597.52172	4194.525
1600.84321	4220.225
1604.16251	4203.225
1607.47959	4167.525
1610.79447	4156.125
1614.10715	4156.225
1617.41763	4135.925
1620.7259	4108.525
1624.03199	4104.725
1627.33587	4080.725
1630.63757	4058.125
1633.93707	4083.125
1637.23439	4101.625
1640.52951	4188.325
1643.82246	4233.725
1647.11321	4350.925
1650.40179	4379.125
1653.68819	4350.325
1656.97241	4271.325
1660.25446	4170.725
1663.53433	4076.425
1666.81203	4019.825
1670.08756	4024.725
1673.36092	4005.925
1676.63211	3998.125
1679.90115	3977.425
1683.16801	3983.325
1686.43272	3946.525
1689.69527	3955.125
1692.95567	3926.825
1696.2139	3936.525
1699.46999	3911.325
1702.72392	3911.625
1705.97571	3949.425
1709.22535	3922.925
1712.47284	3973.325
1715.71819	3963.425
1718.96139	3979.325
1722.20246	3983.925
1725.44139	3995.225
1728.67818	3978.525
1731.91284	3965.425
1735.14537	3972.225
1738.37576	3956.525
1741.60403	3958.625
1744.83017	3937.525
1748.05418	3964.625
1751.27607	3970.625
1754.49584	3947.925
1757.71349	3917.925
1760.92903	3922.625
1764.14244	3902.425
1767.35375	3911.425
1770.56294	3918.025
1773.77002	3904.425
1776.97499	3931.525
1780.17785	3924.425
1783.37861	3928.825
1786.57727	3954.025
1789.77382	3893.325
1792.96828	3929.525
1796.16064	3946.425
1799.3509	3926.725
1802.53907	3944.425
1805.72514	3921.125
1808.90913	3887.125
1812.09102	3902.025
1815.27083	3905.225
1818.44856	3890.825
1821.6242	3905.325
1824.79776	3893.625
1827.96924	3890.525
1831.13864	3880.325
1834.30597	3904.125
1837.47122	3889.925
1840.6344	3865.125
1843.7955	3865.625
1846.95454	3872.625
1850.11151	3888.925
1853.26642	3853.725
1856.41926	3871.225
1859.57004	3863.525
1862.71876	3870.825
1865.86542	3880.625
1869.01003	3868.225
1872.15258	3839.625
1875.29308	3846.725
1878.43152	3872.825
1881.56792	3851.825
1884.70227	3837.025
1887.83457	3837.025
1890.96482	3832.225
1894.09304	3824.625
1897.21921	3824.025
1900.34335	3836.625
1903.46544	3822.925
1906.58551	3820.125
1909.70353	3820.025
1912.81953	3831.725
1915.93349	3816.525
1919.04543	3801.725
1922.15534	3776.625
1925.26322	3802.225
1928.36908	3792.225
1931.47292	3796.425
1934.57473	3813.725
1937.67453	3760.625
1940.77232	3769.825
1943.86808	3775.025
1946.96184	3758.025
1950.05358	3737.125
1953.14331	3737.425
1956.23103	3725.925
1959.31675	3702.825
1962.40046	3659.325
1965.48217	3688.625
1968.56188	3680.125
1971.63959	3673.925
1974.7153	3675.625
1977.78901	3661.925
1980.86073	3640.925
1983.93046	3619.925
1986.99819	3559.125
1990.06394	3593.525
1993.1277	3601.725
1996.18947	3593.725
1999.24925	3587.225
2002.30706	3585.925
2005.36288	3587.325
2008.41672	3576.825
2011.46859	3552.625
2014.51848	3534.725
2017.56639	3533.225
2020.61233	3531.325
2023.6563	3523.325
2026.6983	3486.025
2029.73833	3493.725
2032.7764	3514.325
2035.8125	3451.225
2038.84664	3473.025
2041.87881	3458.025
2044.90903	3468.725
2047.93729	3471.125
2050.96359	3426.425
2053.98794	3447.325
2057.01034	3467.925
2060.03078	3432.925
2063.04927	3426.525
2066.06582	3444.325
2069.08042	3434.225
2072.09307	3444.925
2075.10378	3440.125
2078.11255	3434.325
2081.11938	3438.925
2084.12426	3437.525
2087.12722	3419.825
2090.12824	3427.125
2093.12732	3432.825
2096.12447	3448.025
2099.11969	3444.625
2102.11299	3429.625
2105.10435	3451.225
2108.09379	3443.325
2111.08131	3433.425
2114.0669	3431.625
2117.05057	3429.625
2120.03233	3423.425
2123.01216	3437.025
2125.99008	3430.425
2128.96609	3445.025
2131.94018	3463.825
2134.91236	3459.625
2137.88263	3446.625
2140.851	3457.025
2143.81746	3480.625
2146.78201	3464.225
2149.74466	3469.025
2152.7054	3480.925
2155.66425	3474.025
2158.6212	3463.525
2161.57625	3462.825
2164.52941	3423.125
2167.48067	3457.125
2170.43004	3453.125
2173.37752	3467.025
2176.32311	3439.525
2179.26681	3467.525
2182.20863	3473.225
2185.14856	3453.925
2188.08661	3464.725
2191.02278	3467.725
2193.95707	3442.825
2196.88948	3436.725
2199.82001	3459.125
2202.74867	3452.225
2205.67545	3436.425
2208.60037	3445.225
2211.52341	3449.225
2214.44458	3432.825
2217.36388	3425.625
2220.28132	3407.525
2223.1969	3395.425
2226.11061	3396.625
2229.02246	3383.725
2231.93245	3394.325
2234.84058	3389.525
2237.74686	3373.025
2240.65128	3369.925
2243.55385	3361.525
2246.45456	3340.725
2249.35343	3369.125
2252.25044	3353.525
2255.14561	3354.925
2258.03893	3355.225
2260.93041	3333.225
2263.82004	3329.125
2266.70783	3327.825
2269.59378	3314.925
2272.4779	3284.025
2275.36017	3309.225
2278.24061	3288.525
2281.11922	3256.425
2283.996	3278.125
2286.87094	3272.025
2289.74405	3274.725
2292.61534	3265.525
2295.4848	3270.625
2298.35243	3262.625
2301.21824	3246.325
2304.08223	3254.825
2306.94439	3248.725
2309.80474	3257.825
2312.66327	3257.925
2315.51999	3222.625
2318.37489	3245.525
2321.22797	3217.225
2324.07925	3210.425
2326.92871	3224.625
2329.77637	3212.025
2332.62222	3216.825
2335.46626	3178.025
2338.3085	3177.625
2341.14893	3182.225
2343.98756	3191.625
2346.8244	3167.925
2349.65943	3160.325
2352.49267	3160.025
2355.32411	3163.725
2358.15376	3155.025
2360.98161	3169.325
2363.80768	3140.425
2366.63195	3153.725
2369.45444	3134.025
2372.27514	3144.425
2375.09405	3153.325
2377.91118	3115.025
2380.72652	3117.525
2383.54009	3111.825
2386.35187	3114.825
2389.16188	3088.525
2391.97011	3103.925
2394.77657	3086.725
2397.58125	3097.325
2400.38416	3093.925
2403.18529	3076.425
2405.98466	3070.225
2408.78226	3068.325
2411.57809	3063.025
2414.37216	3063.225
2417.16446	3061.225
2419.955	3039.325
2422.74378	3051.025
2425.5308	3033.125
2428.31606	3030.125
2431.09956	3044.725
2433.88131	3020.225
2436.6613	3037.625
2439.43954	3029.225
2442.21603	3005.825
2444.99077	3000.925
2447.76377	3018.225
2450.53501	3007.625
2453.30451	2999.925
2456.07226	3022.925
2458.83827	2992.425
2461.60254	2939.925
2464.36507	2993.325
2467.12586	2957.925
2469.88492	2967.825
2472.64224	2970.525
2475.39782	2945.525
2478.15167	2961.725
2480.90379	2940.625
2483.65417	2957.225
2486.40283	2960.125
2489.14976	2963.425
2491.89497	2936.925
2494.63845	2936.725
2497.3802	2919.225
2500.12024	2924.125
2502.85855	2925.825
2505.59514	2934.825
2508.33002	2925.925
2511.06318	2904.325
2513.79462	2921.825
2516.52435	2894.925
2519.25237	2874.925
2521.97867	2885.925
2524.70327	2890.025
2527.42616	2886.825
2530.14734	2896.725
2532.86681	2877.625
2535.58458	2867.325
2538.30065	2858.225
2541.01501	2882.025
2543.72768	2854.425
2546.43864	2858.125
2549.14791	2844.825
2551.85548	2827.325
2554.56136	2820.825
2557.26554	2843.325
2559.96803	2815.325
2562.66883	2815.125
2565.36794	2786.625
2568.06536	2776.725
2570.7611	2794.925
2573.45514	2792.625
2576.14751	2777.625
2578.83819	2761.425
2581.52719	2761.125
2584.21451	2764.025
2586.90015	2738.525
2589.58411	2734.425
2592.2664	2748.725
2594.94701	2741.325
2597.62594	2735.325
2600.30321	2668.325
2602.9788	2699.225
2605.65273	2691.825
2608.32498	2699.725
2610.99557	2718.925
2613.66449	2685.525
2616.33175	2691.525
2618.99734	2693.025
2621.66128	2688.825
2624.32355	2664.925
2626.98416	2661.525
2629.64311	2655.525
2632.30041	2650.225
2634.95605	2647.825
2637.61004	2644.125
2640.26238	2609.925
2642.91306	2619.925
2645.56209	2648.925
2648.20948	2626.525
2650.85521	2612.225
2653.4993	2630.125
2656.14175	2618.925
2658.78255	2609.625
2661.42171	2581.425
2664.05923	2614.225
2666.6951	2620.825
2669.32934	2631.225
2671.96194	2629.525
2674.59291	2603.725
2677.22224	2618.425
2679.84993	2615.625
2682.476	2606.325
2685.10043	2598.425
2687.72324	2582.025
2690.34441	2580.925
2692.96396	2582.825
2695.58188	2599.125
2698.19818	2581.425
2700.81285	2583.625
2703.4259	2577.925
2706.03733	2549.025
2708.64714	2545.025
2711.25533	2570.325
2713.86191	2592.125
2716.46687	2580.725
2719.07021	2569.825
2721.67194	2573.825
2724.27206	2579.725
2726.87057	2567.525
2729.46747	2559.625
2732.06276	2564.725
2734.65644	2557.525
2737.24852	2561.725
2739.83899	2532.725
2742.42786	2554.425
2745.01513	2575.525
2747.60079	2551.525
2750.18486	2532.625
2752.76733	2533.025
2755.3482	2519.425
2757.92747	2527.025
2760.50515	2514.225
2763.08123	2510.225
2765.65573	2510.225
2768.22863	2509.325
2770.79994	2495.025
2773.36967	2482.425
2775.9378	2489.225
2778.50435	2479.225
2781.06932	2473.225
2783.6327	2472.325
2786.1945	2490.725
2788.75471	2460.625
2791.31335	2461.725
2793.87041	2457.025
2796.42589	2429.625
2798.97979	2433.325
2801.53212	2428.325
2804.08288	2432.425
2806.63206	2425.725
2809.17967	2400.325
2811.72571	2413.725
2814.27018	2401.025
2816.81308	2401.125
2819.35442	2356.325
2821.89419	2371.525
2824.43239	2363.725
2826.96904	2378.025
2829.50412	2359.025
2832.03763	2368.525
2834.56959	2360.125
2837.1	2351.825
2839.62884	2354.625
2842.15613	2346.725
2844.68186	2358.725
2847.20604	2331.225
2849.72867	2319.925
2852.24974	2329.025
2854.76927	2298.425
2857.28724	2258.725
2859.80367	2312.325
2862.31855	2320.325
2864.83189	2304.125
2867.34368	2308.525
2869.85393	2318.525
2872.36264	2289.525
2874.8698	2286.625
2877.37543	2298.225
2879.87952	2275.825
2882.38207	2270.825
2884.88308	2282.125
2887.38256	2280.125
2889.88051	2274.125
2892.37692	2282.225
2894.8718	2272.425
2897.36515	2284.725
2899.85698	2269.425
2902.34727	2265.625
2904.83604	2258.925
2907.32328	2264.725
2909.809	2256.825
2912.29319	2254.625
2914.77587	2250.725
2917.25702	2265.825
2919.73665	2267.025
2922.21476	2258.825
2924.69136	2271.625
2927.16644	2241.525
2929.64	2259.725
2932.11205	2253.425
2934.58258	2247.725
2937.05161	2243.125
2939.51912	2244.025
2941.98513	2260.825
2944.44962	2255.425
2946.91261	2222.125
2949.37409	2238.025
2951.83407	2220.525
2954.29254	2231.025
2956.74951	2239.625
2959.20498	2228.625
2961.65895	2215.725
2964.11142	2222.025
2966.56239	2222.825
2969.01186	2227.525
2971.45984	2222.725
2973.90632	2207.225
2976.35131	2223.425
2978.7948	2212.925
2981.23681	2215.525
2983.67732	2203.625
2986.11635	2206.125
2988.55388	2167.725
2990.98993	2186.725
2993.4245	2177.625
2995.85758	2171.025
2998.28917	2168.925
3000.71928	2155.225
3003.14791	2153.325
3005.57506	2163.825
3008.00073	2139.125
3010.42493	2092.425
3012.84764	2142.225
3015.26888	2146.225
3017.68865	2139.225
3020.10694	2105.725
3022.52376	2120.925
3024.9391	2121.125
3027.35298	2111.825
3029.76539	2099.425
3032.17632	2101.825
3034.5858	2093.925
3036.9938	2122.025
3039.40034	2106.625
3041.80542	2092.325
3044.20903	2082.225
3046.61118	2080.825
3049.01187	2101.925
3051.4111	2083.625
3053.80888	2065.025
3056.20519	2068.225
3058.60005	2052.025
3060.99345	2077.425
3063.3854	2041.425
3065.7759	2041.425
3068.16494	2025.825
3070.55254	2020.125
3072.93868	2034.725
3075.32338	2033.225
3077.70662	2011.025
3080.08842	2029.825
3082.46878	2005.925
3084.84769	2025.225
3087.22515	2007.825
3089.60118	2023.325
3091.97576	1998.925
3094.3489	2009.925
3096.72061	2021.325
3099.09087	1997.025
3101.4597	2011.025
3103.82709	2010.425
3106.19305	2006.025
3108.55757	2002.925
3110.92066	1987.325
3113.28232	1994.825
3115.64255	2007.925
3118.00134	1998.825
3120.35871	1982.425
3122.71466	1953.625
3125.06917	1976.525
3127.42226	1962.425
3129.77393	1943.125
3132.12417	1962.725
3134.47299	1962.225
3136.82039	1946.725
3139.16636	1930.325
3141.51092	1945.625
3143.85406	1954.825
3146.19579	1940.625
3148.53609	1925.625
3150.87499	1941.425
3153.21246	1940.225
3155.54853	1943.925
3157.88318	1939.825
3160.21642	1955.125
3162.54826	1952.525
3164.87868	1947.225
3167.2077	1905.625
3169.5353	1935.425
3171.86151	1945.425
3174.18631	1938.225
3176.5097	1925.725
3178.83169	1939.625
3181.15228	1930.425
3183.47147	1910.625
3185.78926	1909.025
3188.10565	1925.725
3190.42065	1898.125
3192.73424	1914.825
3195.04645	1900.225
3197.35725	1887.325
3199.66667	1902.925
3201.97469	1897.125
3204.28132	1885.725
3206.58656	1890.825
3208.8904	1902.925
3211.19287	1893.525
3213.49394	1881.025
3215.79363	1875.425
3218.09193	1889.425
3220.38884	1879.025
3222.68438	1890.425
3224.97853	1861.225
3227.2713	1892.925
3229.56269	1874.825
3231.8527	1876.425
3234.14133	1864.425
3236.42858	1862.425
3238.71446	1840.125
3240.99896	1865.525
3243.28209	1858.025
3245.56384	1859.625
3247.84423	1838.425
3250.12324	1850.525
3252.40088	1850.725
3254.67715	1826.025
3256.95205	1823.625
3259.22558	1845.825
3261.49775	1845.325
3263.76855	1825.025
3266.03799	1833.825
3268.30606	1842.125
3270.57277	1834.925
3272.83812	1824.025
3275.10211	1818.425
3277.36474	1834.325
3279.62601	1821.325
3281.88593	1799.825
3284.14448	1777.425
3286.40168	1793.125
3288.65753	1775.125
3290.91202	1791.525
3293.16516	1769.325
3295.41695	1793.625
3297.66738	1791.625
3299.91647	1767.625
3302.16421	1764.525
3304.4106	1728.125
3306.65564	1748.025
3308.89933	1707.625
3311.14169	1712.525
3313.38269	1707.425
3315.62236	1683.425
3317.86068	1676.725
3320.09766	1669.325
3322.3333	1638.625
3324.5676	1631.425
3326.80056	1599.225
3329.03219	1604.625
3331.26248	-0.775
3333.49143	0.625
3335.71905	0.525
