Data from AgNPs_UA_5uM_CRN_500uM_SU_RamanShift__183__11-59-53-176.txt Node

Date: Thu Aug 04 11:59:53 BST 2022
User: TCL
Spectrometer: QEP01345
Trigger mode: 4
Integration Time (sec): 1.000000E0
Scans to average: 10
Electric dark correction enabled: true
Nonlinearity correction enabled: false
Boxcar width: 0
XAxis mode: Raman Shifts
Number of Pixels in Spectrum: 1044
>>>>>Begin Spectral Data<<<<<
46.04893	0.225
50.45542	-0.075
54.85868	0.825
59.25871	-1.075
63.6555	-57.075
68.04907	-39.275
72.43941	-71.575
76.82654	-56.175
81.21044	-55.175
85.59113	-48.875
89.96862	-75.075
94.34289	-54.275
98.71396	-77.275
103.08183	-58.575
107.4465	-50.575
111.80798	-56.075
116.16626	-44.475
120.52136	-75.175
124.87327	-48.475
129.222	-62.775
133.56755	-49.275
137.90993	-62.975
142.24913	-50.575
146.58517	-43.775
150.91804	-42.375
155.24774	-28.775
159.57429	-11.275
163.89768	-6.475
168.21792	40.725
172.53501	61.525
176.84895	138.025
181.15975	279.425
185.46741	426.825
189.77193	611.525
194.07331	901.725
198.37157	1197.825
202.6667	1485.425
206.9587	1808.225
211.24758	2123.325
215.53334	2445.625
219.81599	2810.225
224.09553	3223.825
228.37195	3657.225
232.64527	4121.325
236.91549	4588.725
241.18261	4964.425
245.44663	5251.025
249.70755	5422.225
253.96539	5569.025
258.22014	5658.225
262.4718	5740.125
266.72039	5771.025
270.96589	5724.825
275.20832	5636.125
279.44768	5519.625
283.68397	5420.425
287.91719	5349.525
292.14735	5394.325
296.37445	5571.625
300.59849	5847.525
304.81948	6209.325
309.03742	6563.525
313.25231	6782.725
317.46415	6765.525
321.67296	6339.825
325.87872	5952.125
330.08145	5748.025
334.28114	5704.125
338.47781	5781.125
342.67145	5900.325
346.86207	6146.725
351.04966	6546.325
355.23424	6945.725
359.4158	7191.125
363.59435	7258.625
367.76989	7178.125
371.94243	7032.825
376.11196	6896.425
380.27849	6853.525
384.44203	6768.225
388.60257	6718.525
392.76012	6734.225
396.91468	6870.225
401.06626	7008.925
405.21485	7059.425
409.36047	6884.525
413.50311	6559.925
417.64277	6282.325
421.77947	6072.325
425.9132	5988.825
430.04396	5964.325
434.17176	6028.925
438.2966	6118.425
442.41849	6205.525
446.53742	6340.325
450.6534	6420.925
454.76644	6509.125
458.87653	6494.625
462.98368	6478.625
467.08789	6401.325
471.18916	6334.225
475.2875	6216.325
479.38291	6094.325
483.4754	6008.225
487.56496	5980.025
491.6516	5916.025
495.73531	5933.725
499.81612	5968.325
503.89401	6064.825
507.96899	6104.425
512.04106	6203.125
516.11023	6300.225
520.1765	6399.525
524.23987	6413.425
528.30034	6420.625
532.35792	6344.725
536.41261	6279.325
540.46441	6179.425
544.51333	6130.125
548.55936	6177.925
552.60252	6293.025
556.64279	6407.225
560.6802	6550.425
564.71473	6680.025
568.7464	6862.125
572.7752	6836.125
576.80114	6526.425
580.82422	6270.525
584.84444	6158.425
588.86181	6145.625
592.87633	6187.225
596.888	6324.025
600.89682	6682.025
604.9028	7643.825
608.90594	9733.125
612.90624	12108.425
616.90371	11239.925
620.89834	8183.925
624.89015	6832.925
628.87913	6616.325
632.86528	6776.125
636.84862	6959.025
640.82913	6812.325
644.80683	6457.625
648.78172	6282.825
652.75379	6302.025
656.72306	6546.925
660.68952	6780.725
664.65319	6694.425
668.61405	6478.225
672.57211	6392.625
676.52738	6382.325
680.47986	6299.825
684.42955	6194.225
688.37646	6160.325
692.32058	6164.925
696.26192	6239.325
700.20048	6342.125
704.13626	6375.325
708.06928	6339.425
711.99952	6313.425
715.927	6277.125
719.85171	6307.125
723.77365	6378.425
727.69284	6327.725
731.60928	6331.925
735.52295	6309.225
739.43388	6344.325
743.34206	6363.225
747.24749	6377.825
751.15017	6386.825
755.05012	6459.325
758.94733	6829.525
762.8418	7688.825
766.73354	9025.325
770.62254	10016.525
774.50882	10094.725
778.39237	9604.225
782.27321	8653.425
786.15132	7621.425
790.02671	6923.725
793.89938	6534.625
797.76935	6420.625
801.6366	6357.225
805.50115	6324.225
809.36299	6309.425
813.22213	6292.525
817.07857	6303.625
820.93231	6291.525
824.78336	6319.925
828.63172	6354.925
832.47738	6349.725
836.32036	6336.925
840.16066	6324.125
843.99827	6300.525
847.8332	6298.625
851.66546	6297.825
855.49504	6314.825
859.32195	6355.825
863.1462	6308.625
866.96777	6327.825
870.78668	6309.925
874.60293	6344.025
878.41652	6358.325
882.22745	6432.925
886.03573	6465.525
889.84136	6468.025
893.64433	6455.925
897.44466	6425.025
901.24235	6446.025
905.0374	6442.725
908.8298	6371.025
912.61957	6323.225
916.40671	6301.625
920.19121	6347.325
923.97308	6438.925
927.75233	6501.725
931.52895	6587.425
935.30295	6525.525
939.07433	6388.425
942.84309	6266.225
946.60924	6228.725
950.37278	6201.625
954.13371	6196.625
957.89203	6210.225
961.64774	6219.325
965.40086	6189.525
969.15137	6178.525
972.89929	6205.125
976.64461	6204.725
980.38733	6207.925
984.12747	6215.725
987.86502	6238.925
991.59999	6258.325
995.33237	6332.525
999.06217	6398.425
1002.78939	6474.225
1006.51404	6612.925
1010.23611	6736.125
1013.95561	6788.425
1017.67255	6768.825
1021.38692	6764.925
1025.09872	6704.625
1028.80796	6601.925
1032.51465	6605.825
1036.21877	6594.825
1039.92035	6646.125
1043.61937	6674.925
1047.31584	6735.525
1051.00976	6764.025
1054.70114	6764.525
1058.38998	6764.225
1062.07627	6764.925
1065.76003	6796.125
1069.44126	6889.025
1073.11995	6945.625
1076.79611	7093.525
1080.46974	7240.725
1084.14085	7415.325
1087.80943	7538.725
1091.47549	7562.625
1095.13903	7489.925
1098.80005	7372.925
1102.45857	7252.725
1106.11456	7214.725
1109.76805	7161.425
1113.41903	7298.825
1117.06751	7447.325
1120.71348	7724.225
1124.35696	8091.325
1127.99793	8377.625
1131.63641	8229.125
1135.2724	7808.625
1138.90589	7526.625
1142.5369	7303.825
1146.16542	7211.025
1149.79145	7104.625
1153.415	7038.025
1157.03607	7062.125
1160.65467	7136.325
1164.27079	7341.225
1167.88443	7584.525
1171.49561	8020.225
1175.10432	8618.325
1178.71056	9522.425
1182.31434	10316.925
1185.91565	10530.925
1189.51451	10404.025
1193.11091	10132.725
1196.70485	9890.725
1200.29634	9684.025
1203.88538	9416.125
1207.47197	8983.725
1211.05612	8512.525
1214.63782	8124.925
1218.21708	7863.825
1221.79391	7708.225
1225.36829	7640.225
1228.94024	7640.425
1232.50976	7620.025
1236.07685	7656.725
1239.6415	7698.025
1243.20374	7717.525
1246.76355	7752.425
1250.32093	7805.625
1253.8759	7884.025
1257.42845	8071.525
1260.97859	8265.425
1264.52631	8493.025
1268.07163	8662.625
1271.61453	8805.725
1275.15503	8821.225
1278.69312	8843.925
1282.22882	8911.425
1285.76211	9101.125
1289.29301	9364.625
1292.82151	9640.525
1296.34761	9843.325
1299.87133	10252.625
1303.39266	10948.725
1306.9116	12084.925
1310.42815	13340.625
1313.94233	13767.325
1317.45412	12976.125
1320.96354	11844.725
1324.47058	10814.825
1327.97525	10063.525
1331.47754	9661.325
1334.97747	9561.725
1338.47502	9652.325
1341.97022	10030.125
1345.46305	10749.125
1348.95352	11836.425
1352.44163	13114.625
1355.92738	14443.825
1359.41078	16078.725
1362.89183	17626.425
1366.37053	16940.525
1369.84688	14114.425
1373.32088	11458.925
1376.79254	10063.225
1380.26186	9418.525
1383.72883	9010.425
1387.19347	8592.825
1390.65578	8268.125
1394.11575	8036.525
1397.57339	7876.925
1401.0287	7764.325
1404.48168	7723.025
1407.93234	7745.025
1411.38068	7750.125
1414.82669	7836.525
1418.27039	7926.525
1421.71177	7931.225
1425.15083	7820.125
1428.58758	7730.325
1432.02203	7756.625
1435.45416	7855.625
1438.88399	7867.725
1442.31151	7842.425
1445.73673	7906.625
1449.15965	7950.625
1452.58027	7989.525
1455.9986	7970.725
1459.41463	7974.725
1462.82837	8069.425
1466.23982	8251.625
1469.64898	8461.825
1473.05586	8627.125
1476.46045	8702.225
1479.86276	8780.725
1483.26279	8877.525
1486.66054	9052.225
1490.05602	9348.625
1493.44922	9873.225
1496.84016	10747.925
1500.22882	12129.825
1503.61521	13847.225
1506.99934	15586.425
1510.38121	16816.325
1513.76081	16717.725
1517.13816	15122.725
1520.51324	13012.825
1523.88607	11282.725
1527.25665	10292.225
1530.62498	9800.925
1533.99105	9569.125
1537.35488	9448.325
1540.71647	9361.325
1544.07581	9232.225
1547.4329	9126.125
1550.78776	8989.625
1554.14038	8898.925
1557.49077	8896.825
1560.83892	8968.725
1564.18484	9199.425
1567.52853	9538.025
1570.86999	9850.425
1574.20922	10010.125
1577.54624	9876.325
1580.88103	9385.425
1584.2136	8700.225
1587.54395	8341.725
1590.87208	8260.225
1594.19801	8431.125
1597.52172	8791.125
1600.84321	8946.425
1604.16251	8817.525
1607.47959	8606.725
1610.79447	8405.625
1614.10715	8135.325
1617.41763	7847.825
1620.7259	7537.925
1624.03199	7411.625
1627.33587	7335.925
1630.63757	7403.725
1633.93707	7616.925
1637.23439	8041.025
1640.52951	8736.025
1643.82246	9715.825
1647.11321	10878.425
1650.40179	11570.825
1653.68819	11241.825
1656.97241	10018.425
1660.25446	8599.125
1663.53433	7620.425
1666.81203	7013.825
1670.08756	6684.225
1673.36092	6494.725
1676.63211	6347.825
1679.90115	6245.625
1683.16801	6174.025
1686.43272	6097.925
1689.69527	6043.225
1692.95567	6007.325
1696.2139	5963.825
1699.46999	5904.925
1702.72392	5889.025
1705.97571	5895.125
1709.22535	5897.125
1712.47284	5942.525
1715.71819	5939.025
1718.96139	5929.425
1722.20246	5923.525
1725.44139	5881.925
1728.67818	5871.425
1731.91284	5817.825
1735.14537	5787.325
1738.37576	5756.125
1741.60403	5743.625
1744.83017	5714.325
1748.05418	5706.425
1751.27607	5726.125
1754.49584	5670.425
1757.71349	5629.225
1760.92903	5647.325
1764.14244	5592.325
1767.35375	5613.225
1770.56294	5591.725
1773.77002	5573.125
1776.97499	5583.225
1780.17785	5551.025
1783.37861	5549.925
1786.57727	5584.525
1789.77382	5504.625
1792.96828	5529.225
1796.16064	5542.425
1799.3509	5535.425
1802.53907	5534.025
1805.72514	5488.025
1808.90913	5470.025
1812.09102	5452.425
1815.27083	5445.825
1818.44856	5440.925
1821.6242	5424.225
1824.79776	5423.625
1827.96924	5423.525
1831.13864	5393.825
1834.30597	5398.925
1837.47122	5375.625
1840.6344	5352.325
1843.7955	5334.125
1846.95454	5346.425
1850.11151	5366.525
1853.26642	5308.525
1856.41926	5327.125
1859.57004	5315.025
1862.71876	5337.425
1865.86542	5333.325
1869.01003	5321.625
1872.15258	5307.025
1875.29308	5292.525
1878.43152	5314.125
1881.56792	5272.725
1884.70227	5259.125
1887.83457	5268.525
1890.96482	5250.125
1894.09304	5229.425
1897.21921	5246.025
1900.34335	5237.925
1903.46544	5198.625
1906.58551	5230.425
1909.70353	5224.525
1912.81953	5200.325
1915.93349	5197.325
1919.04543	5193.825
1922.15534	5172.125
1925.26322	5169.925
1928.36908	5156.225
1931.47292	5144.625
1934.57473	5162.325
1937.67453	5124.525
1940.77232	5107.625
1943.86808	5099.325
1946.96184	5072.025
1950.05358	5059.225
1953.14331	5036.025
1956.23103	5058.725
1959.31675	5004.925
1962.40046	4954.325
1965.48217	4993.625
1968.56188	4973.625
1971.63959	4965.925
1974.7153	4954.025
1977.78901	4944.025
1980.86073	4928.125
1983.93046	4880.525
1986.99819	4818.025
1990.06394	4832.725
1993.1277	4855.725
1996.18947	4818.425
1999.24925	4785.125
2002.30706	4789.725
2005.36288	4768.825
2008.41672	4772.025
2011.46859	4745.825
2014.51848	4740.225
2017.56639	4703.725
2020.61233	4688.425
2023.6563	4683.225
2026.6983	4645.825
2029.73833	4644.525
2032.7764	4663.925
2035.8125	4617.325
2038.84664	4625.225
2041.87881	4612.525
2044.90903	4609.225
2047.93729	4595.525
2050.96359	4564.325
2053.98794	4586.925
2057.01034	4568.925
2060.03078	4569.225
2063.04927	4545.925
2066.06582	4550.925
2069.08042	4522.925
2072.09307	4539.025
2075.10378	4541.725
2078.11255	4527.625
2081.11938	4528.925
2084.12426	4513.625
2087.12722	4514.925
2090.12824	4507.525
2093.12732	4515.625
2096.12447	4517.225
2099.11969	4503.825
2102.11299	4511.025
2105.10435	4532.725
2108.09379	4507.025
2111.08131	4508.125
2114.0669	4506.925
2117.05057	4487.625
2120.03233	4503.325
2123.01216	4520.425
2125.99008	4535.025
2128.96609	4531.325
2131.94018	4546.825
2134.91236	4510.225
2137.88263	4517.625
2140.851	4520.725
2143.81746	4549.225
2146.78201	4524.425
2149.74466	4528.725
2152.7054	4543.625
2155.66425	4535.425
2158.6212	4521.825
2161.57625	4477.425
2164.52941	4459.625
2167.48067	4489.625
2170.43004	4474.225
2173.37752	4486.725
2176.32311	4477.325
2179.26681	4470.025
2182.20863	4501.025
2185.14856	4485.925
2188.08661	4471.825
2191.02278	4484.325
2193.95707	4462.025
2196.88948	4453.325
2199.82001	4458.625
2202.74867	4451.525
2205.67545	4448.825
2208.60037	4457.625
2211.52341	4448.825
2214.44458	4430.325
2217.36388	4402.325
2220.28132	4397.525
2223.1969	4375.425
2226.11061	4368.925
2229.02246	4351.725
2231.93245	4369.125
2234.84058	4329.425
2237.74686	4354.925
2240.65128	4334.825
2243.55385	4336.425
2246.45456	4299.925
2249.35343	4319.125
2252.25044	4292.625
2255.14561	4303.225
2258.03893	4303.525
2260.93041	4292.425
2263.82004	4283.325
2266.70783	4283.925
2269.59378	4276.925
2272.4779	4238.225
2275.36017	4244.325
2278.24061	4236.225
2281.11922	4204.425
2283.996	4220.025
2286.87094	4193.725
2289.74405	4189.325
2292.61534	4187.225
2295.4848	4194.025
2298.35243	4184.725
2301.21824	4174.625
2304.08223	4178.025
2306.94439	4156.725
2309.80474	4166.625
2312.66327	4153.125
2315.51999	4148.225
2318.37489	4134.625
2321.22797	4117.425
2324.07925	4117.425
2326.92871	4097.725
2329.77637	4094.925
2332.62222	4087.825
2335.46626	4058.525
2338.3085	4067.425
2341.14893	4072.625
2343.98756	4092.625
2346.8244	4056.725
2349.65943	4052.025
2352.49267	4053.425
2355.32411	4058.725
2358.15376	4058.325
2360.98161	4056.625
2363.80768	4026.925
2366.63195	4040.925
2369.45444	4050.525
2372.27514	4038.925
2375.09405	4049.125
2377.91118	4008.525
2380.72652	4013.225
2383.54009	4014.625
2386.35187	4006.825
2389.16188	3981.325
2391.97011	3980.325
2394.77657	3978.525
2397.58125	3960.125
2400.38416	3938.425
2403.18529	3942.425
2405.98466	3925.625
2408.78226	3921.725
2411.57809	3920.925
2414.37216	3896.025
2417.16446	3918.425
2419.955	3874.425
2422.74378	3896.625
2425.5308	3881.425
2428.31606	3873.325
2431.09956	3878.525
2433.88131	3872.825
2436.6613	3863.625
2439.43954	3865.725
2442.21603	3847.125
2444.99077	3838.725
2447.76377	3850.425
2450.53501	3837.325
2453.30451	3830.925
2456.07226	3844.425
2458.83827	3822.925
2461.60254	3784.425
2464.36507	3829.325
2467.12586	3803.725
2469.88492	3800.625
2472.64224	3818.925
2475.39782	3790.425
2478.15167	3796.625
2480.90379	3800.625
2483.65417	3804.225
2486.40283	3808.625
2489.14976	3823.425
2491.89497	3793.225
2494.63845	3809.125
2497.3802	3785.425
2500.12024	3779.725
2502.85855	3787.125
2505.59514	3782.725
2508.33002	3766.625
2511.06318	3740.425
2513.79462	3738.725
2516.52435	3714.425
2519.25237	3681.525
2521.97867	3691.025
2524.70327	3695.625
2527.42616	3684.925
2530.14734	3702.225
2532.86681	3681.325
2535.58458	3671.825
2538.30065	3674.425
2541.01501	3671.925
2543.72768	3639.325
2546.43864	3662.325
2549.14791	3659.625
2551.85548	3642.525
2554.56136	3629.025
2557.26554	3648.625
2559.96803	3637.525
2562.66883	3622.925
2565.36794	3596.425
2568.06536	3580.425
2570.7611	3600.825
2573.45514	3585.725
2576.14751	3570.425
2578.83819	3552.425
2581.52719	3537.225
2584.21451	3566.725
2586.90015	3527.325
2589.58411	3509.325
2592.2664	3528.025
2594.94701	3514.925
2597.62594	3524.925
2600.30321	3460.925
2602.9788	3481.925
2605.65273	3467.925
2608.32498	3479.825
2610.99557	3481.725
2613.66449	3454.425
2616.33175	3466.825
2618.99734	3469.925
2621.66128	3454.525
2624.32355	3452.225
2626.98416	3415.525
2629.64311	3423.125
2632.30041	3420.625
2634.95605	3395.925
2637.61004	3394.425
2640.26238	3378.125
2642.91306	3381.125
2645.56209	3389.325
2648.20948	3389.525
2650.85521	3366.025
2653.4993	3403.125
2656.14175	3386.725
2658.78255	3384.225
2661.42171	3333.225
2664.05923	3376.625
2666.6951	3381.525
2669.32934	3379.925
2671.96194	3394.325
2674.59291	3377.725
2677.22224	3388.625
2679.84993	3377.125
2682.476	3374.725
2685.10043	3370.425
2687.72324	3361.625
2690.34441	3358.725
2692.96396	3356.425
2695.58188	3364.025
2698.19818	3357.425
2700.81285	3363.325
2703.4259	3337.425
2706.03733	3315.925
2708.64714	3307.325
2711.25533	3350.325
2713.86191	3350.225
2716.46687	3347.625
2719.07021	3340.425
2721.67194	3343.225
2724.27206	3346.625
2726.87057	3345.425
2729.46747	3324.725
2732.06276	3330.625
2734.65644	3314.225
2737.24852	3314.325
2739.83899	3297.425
2742.42786	3321.225
2745.01513	3311.925
2747.60079	3285.425
2750.18486	3276.825
2752.76733	3294.825
2755.3482	3266.425
2757.92747	3282.225
2760.50515	3251.825
2763.08123	3246.825
2765.65573	3256.925
2768.22863	3248.925
2770.79994	3236.625
2773.36967	3223.725
2775.9378	3215.225
2778.50435	3212.225
2781.06932	3209.125
2783.6327	3196.425
2786.1945	3209.425
2788.75471	3205.325
2791.31335	3197.625
2793.87041	3190.025
2796.42589	3165.925
2798.97979	3167.025
2801.53212	3169.025
2804.08288	3173.425
2806.63206	3146.225
2809.17967	3138.925
2811.72571	3160.225
2814.27018	3136.025
2816.81308	3126.425
2819.35442	3103.025
2821.89419	3115.325
2824.43239	3097.125
2826.96904	3116.125
2829.50412	3113.225
2832.03763	3104.325
2834.56959	3102.025
2837.1	3087.425
2839.62884	3101.025
2842.15613	3084.325
2844.68186	3081.725
2847.20604	3068.025
2849.72867	3053.025
2852.24974	3057.025
2854.76927	3044.425
2857.28724	2992.425
2859.80367	3035.125
2862.31855	3048.625
2864.83189	3041.425
2867.34368	3045.125
2869.85393	3057.725
2872.36264	3029.725
2874.8698	3029.725
2877.37543	3037.425
2879.87952	3030.025
2882.38207	3007.025
2884.88308	3016.725
2887.38256	3022.325
2889.88051	3008.225
2892.37692	3000.925
2894.8718	2996.825
2897.36515	3007.125
2899.85698	3009.825
2902.34727	2990.225
2904.83604	3008.825
2907.32328	3013.925
2909.809	2997.425
2912.29319	3001.925
2914.77587	3013.325
2917.25702	3027.125
2919.73665	3021.625
2922.21476	3024.425
2924.69136	3022.425
2927.16644	2993.425
2929.64	3011.925
2932.11205	2992.625
2934.58258	2991.825
2937.05161	2981.425
2939.51912	2985.325
2941.98513	2997.225
2944.44962	2969.425
2946.91261	2948.225
2949.37409	2971.925
2951.83407	2950.725
2954.29254	2962.325
2956.74951	2950.225
2959.20498	2927.925
2961.65895	2927.025
2964.11142	2916.125
2966.56239	2913.225
2969.01186	2925.625
2971.45984	2924.125
2973.90632	2904.125
2976.35131	2917.525
2978.7948	2912.625
2981.23681	2893.225
2983.67732	2896.825
2986.11635	2892.125
2988.55388	2857.725
2990.98993	2862.825
2993.4245	2862.325
2995.85758	2844.425
2998.28917	2832.925
3000.71928	2825.225
3003.14791	2830.725
3005.57506	2797.425
3008.00073	2803.925
3010.42493	2737.225
3012.84764	2797.825
3015.26888	2791.725
3017.68865	2790.725
3020.10694	2734.025
3022.52376	2749.825
3024.9391	2750.225
3027.35298	2741.825
3029.76539	2731.025
3032.17632	2727.425
3034.5858	2716.525
3036.9938	2726.225
3039.40034	2715.925
3041.80542	2713.825
3044.20903	2693.425
3046.61118	2683.625
3049.01187	2702.825
3051.4111	2663.325
3053.80888	2668.125
3056.20519	2657.325
3058.60005	2644.025
3060.99345	2665.125
3063.3854	2635.625
3065.7759	2618.125
3068.16494	2611.125
3070.55254	2610.625
3072.93868	2620.425
3075.32338	2611.025
3077.70662	2599.725
3080.08842	2598.725
3082.46878	2579.125
3084.84769	2596.725
3087.22515	2573.425
3089.60118	2589.625
3091.97576	2573.625
3094.3489	2590.125
3096.72061	2567.425
3099.09087	2556.925
3101.4597	2568.025
3103.82709	2553.825
3106.19305	2541.025
3108.55757	2550.825
3110.92066	2533.125
3113.28232	2535.925
3115.64255	2539.425
3118.00134	2534.325
3120.35871	2505.825
3122.71466	2504.325
3125.06917	2514.325
3127.42226	2490.625
3129.77393	2484.925
3132.12417	2494.225
3134.47299	2481.125
3136.82039	2470.525
3139.16636	2455.225
3141.51092	2469.225
3143.85406	2476.525
3146.19579	2456.225
3148.53609	2458.825
3150.87499	2458.325
3153.21246	2449.025
3155.54853	2468.225
3157.88318	2456.725
3160.21642	2469.225
3162.54826	2450.225
3164.87868	2452.125
3167.2077	2420.025
3169.5353	2440.425
3171.86151	2450.425
3174.18631	2437.725
3176.5097	2425.225
3178.83169	2432.725
3181.15228	2425.425
3183.47147	2404.925
3185.78926	2386.625
3188.10565	2400.525
3190.42065	2372.625
3192.73424	2393.025
3195.04645	2369.325
3197.35725	2366.725
3199.66667	2371.725
3201.97469	2370.025
3204.28132	2362.525
3206.58656	2366.125
3208.8904	2371.025
3211.19287	2363.025
3213.49394	2364.425
3215.79363	2353.925
3218.09193	2369.425
3220.38884	2360.025
3222.68438	2357.625
3224.97853	2333.425
3227.2713	2354.025
3229.56269	2347.325
3231.8527	2336.625
3234.14133	2327.425
3236.42858	2322.725
3238.71446	2307.325
3240.99896	2317.425
3243.28209	2294.625
3245.56384	2310.025
3247.84423	2289.425
3250.12324	2295.725
3252.40088	2291.425
3254.67715	2277.925
3256.95205	2265.425
3259.22558	2283.025
3261.49775	2285.525
3263.76855	2272.725
3266.03799	2273.025
3268.30606	2276.825
3270.57277	2271.225
3272.83812	2256.225
3275.10211	2246.125
3277.36474	2263.325
3279.62601	2254.125
3281.88593	2224.425
3284.14448	2217.425
3286.40168	2244.025
3288.65753	2217.925
3290.91202	2231.525
3293.16516	2205.025
3295.41695	2229.825
3297.66738	2222.625
3299.91647	2197.525
3302.16421	2192.025
3304.4106	2150.925
3306.65564	2184.425
3308.89933	2133.325
3311.14169	2130.825
3313.38269	2112.725
3315.62236	2093.225
3317.86068	2084.325
3320.09766	2078.125
3322.3333	2037.625
3324.5676	2029.325
3326.80056	2004.625
3329.03219	2008.725
3331.26248	-0.175
3333.49143	0.125
3335.71905	0.325
