Data from AgNPs_UA_5uM_CRN_500uM_SU_RamanShift__242__12-09-43-188.txt Node

Date: Thu Aug 04 12:09:43 BST 2022
User: TCL
Spectrometer: QEP01345
Trigger mode: 4
Integration Time (sec): 1.000000E0
Scans to average: 10
Electric dark correction enabled: true
Nonlinearity correction enabled: false
Boxcar width: 0
XAxis mode: Raman Shifts
Number of Pixels in Spectrum: 1044
>>>>>Begin Spectral Data<<<<<
46.04893	-0.3875
50.45542	-0.7875
54.85868	1.1125
59.25871	-0.9875
63.6555	-58.7875
68.04907	-38.9875
72.43941	-72.5875
76.82654	-57.5875
81.21044	-56.2875
85.59113	-48.5875
89.96862	-76.5875
94.34289	-53.5875
98.71396	-76.3875
103.08183	-58.7875
107.4465	-49.8875
111.80798	-55.8875
116.16626	-42.3875
120.52136	-72.9875
124.87327	-49.0875
129.222	-61.9875
133.56755	-48.9875
137.90993	-61.8875
142.24913	-50.7875
146.58517	-43.7875
150.91804	-40.3875
155.24774	-29.0875
159.57429	-11.1875
163.89768	-5.4875
168.21792	36.8125
172.53501	56.6125
176.84895	141.3125
181.15975	271.1125
185.46741	426.6125
189.77193	600.8125
194.07331	895.0125
198.37157	1180.8125
202.6667	1466.1125
206.9587	1793.8125
211.24758	2100.1125
215.53334	2427.7125
219.81599	2790.7125
224.09553	3190.7125
228.37195	3626.5125
232.64527	4101.4125
236.91549	4557.3125
241.18261	4914.2125
245.44663	5198.2125
249.70755	5380.1125
253.96539	5506.2125
258.22014	5603.3125
262.4718	5674.8125
266.72039	5724.9125
270.96589	5676.2125
275.20832	5592.9125
279.44768	5471.9125
283.68397	5359.1125
287.91719	5324.6125
292.14735	5345.1125
296.37445	5546.6125
300.59849	5817.4125
304.81948	6176.2125
309.03742	6561.7125
313.25231	6789.5125
317.46415	6752.6125
321.67296	6365.4125
325.87872	5943.9125
330.08145	5736.1125
334.28114	5686.7125
338.47781	5757.7125
342.67145	5890.1125
346.86207	6117.2125
351.04966	6484.0125
355.23424	6882.7125
359.4158	7171.7125
363.59435	7177.9125
367.76989	7151.3125
371.94243	6999.9125
376.11196	6867.0125
380.27849	6785.7125
384.44203	6724.9125
388.60257	6698.7125
392.76012	6711.8125
396.91468	6810.8125
401.06626	6969.4125
405.21485	7003.1125
409.36047	6849.6125
413.50311	6515.2125
417.64277	6209.4125
421.77947	6002.2125
425.9132	5948.8125
430.04396	5902.8125
434.17176	5959.1125
438.2966	6063.2125
442.41849	6120.2125
446.53742	6248.8125
450.6534	6351.0125
454.76644	6416.6125
458.87653	6438.3125
462.98368	6414.1125
467.08789	6331.5125
471.18916	6250.5125
475.2875	6123.7125
479.38291	6010.1125
483.4754	5912.4125
487.56496	5872.1125
491.6516	5837.9125
495.73531	5847.4125
499.81612	5850.4125
503.89401	5958.9125
507.96899	6022.0125
512.04106	6113.9125
516.11023	6201.1125
520.1765	6269.4125
524.23987	6319.4125
528.30034	6300.0125
532.35792	6231.7125
536.41261	6163.7125
540.46441	6075.6125
544.51333	6015.1125
548.55936	6069.7125
552.60252	6193.3125
556.64279	6322.0125
560.6802	6418.8125
564.71473	6567.7125
568.7464	6760.7125
572.7752	6718.2125
576.80114	6403.4125
580.82422	6201.5125
584.84444	6089.8125
588.86181	6078.7125
592.87633	6095.3125
596.888	6224.9125
600.89682	6582.1125
604.9028	7592.6125
608.90594	9717.7125
612.90624	12096.4125
616.90371	11216.5125
620.89834	8074.1125
624.89015	6711.1125
628.87913	6504.0125
632.86528	6659.0125
636.84862	6822.8125
640.82913	6701.9125
644.80683	6338.6125
648.78172	6135.1125
652.75379	6167.9125
656.72306	6413.4125
660.68952	6659.3125
664.65319	6575.6125
668.61405	6332.0125
672.57211	6256.6125
676.52738	6234.9125
680.47986	6144.3125
684.42955	6030.1125
688.37646	6003.5125
692.32058	6012.4125
696.26192	6092.5125
700.20048	6182.8125
704.13626	6224.5125
708.06928	6175.4125
711.99952	6138.6125
715.927	6103.0125
719.85171	6177.4125
723.77365	6222.3125
727.69284	6198.2125
731.60928	6159.1125
735.52295	6131.1125
739.43388	6171.5125
743.34206	6203.6125
747.24749	6238.9125
751.15017	6248.1125
755.05012	6304.7125
758.94733	6700.2125
762.8418	7592.9125
766.73354	8937.8125
770.62254	9988.6125
774.50882	10053.1125
778.39237	9530.1125
782.27321	8565.4125
786.15132	7484.4125
790.02671	6803.2125
793.89938	6407.1125
797.76935	6283.4125
801.6366	6189.4125
805.50115	6149.4125
809.36299	6135.8125
813.22213	6118.5125
817.07857	6113.8125
820.93231	6113.8125
824.78336	6130.1125
828.63172	6165.2125
832.47738	6155.0125
836.32036	6171.4125
840.16066	6128.3125
843.99827	6104.7125
847.8332	6118.7125
851.66546	6132.4125
855.49504	6130.9125
859.32195	6169.9125
863.1462	6154.8125
866.96777	6135.8125
870.78668	6108.3125
874.60293	6148.3125
878.41652	6184.4125
882.22745	6256.3125
886.03573	6293.5125
889.84136	6263.6125
893.64433	6273.1125
897.44466	6257.5125
901.24235	6253.3125
905.0374	6251.9125
908.8298	6191.6125
912.61957	6185.8125
916.40671	6113.4125
920.19121	6179.1125
923.97308	6266.2125
927.75233	6313.2125
931.52895	6374.0125
935.30295	6345.2125
939.07433	6189.6125
942.84309	6076.8125
946.60924	6046.6125
950.37278	6004.0125
954.13371	6000.0125
957.89203	5993.5125
961.64774	6028.8125
965.40086	5983.1125
969.15137	5972.0125
972.89929	6020.7125
976.64461	6012.0125
980.38733	5996.3125
984.12747	6011.4125
987.86502	6033.4125
991.59999	6059.3125
995.33237	6119.7125
999.06217	6174.3125
1002.78939	6264.9125
1006.51404	6398.4125
1010.23611	6518.4125
1013.95561	6556.1125
1017.67255	6579.2125
1021.38692	6551.1125
1025.09872	6474.3125
1028.80796	6389.1125
1032.51465	6398.2125
1036.21877	6401.9125
1039.92035	6423.6125
1043.61937	6464.2125
1047.31584	6502.3125
1051.00976	6549.1125
1054.70114	6555.3125
1058.38998	6535.3125
1062.07627	6559.8125
1065.76003	6616.9125
1069.44126	6692.2125
1073.11995	6735.7125
1076.79611	6874.8125
1080.46974	7040.0125
1084.14085	7211.9125
1087.80943	7335.5125
1091.47549	7378.3125
1095.13903	7275.8125
1098.80005	7150.5125
1102.45857	7045.9125
1106.11456	7027.2125
1109.76805	6957.5125
1113.41903	7084.3125
1117.06751	7266.7125
1120.71348	7530.7125
1124.35696	7927.9125
1127.99793	8208.8125
1131.63641	8049.2125
1135.2724	7653.4125
1138.90589	7317.4125
1142.5369	7101.6125
1146.16542	7021.5125
1149.79145	6886.0125
1153.415	6869.1125
1157.03607	6864.2125
1160.65467	6973.1125
1164.27079	7170.8125
1167.88443	7436.2125
1171.49561	7878.6125
1175.10432	8515.0125
1178.71056	9449.4125
1182.31434	10246.0125
1185.91565	10531.5125
1189.51451	10388.2125
1193.11091	10101.7125
1196.70485	9865.9125
1200.29634	9615.5125
1203.88538	9313.3125
1207.47197	8837.9125
1211.05612	8343.5125
1214.63782	7940.9125
1218.21708	7661.6125
1221.79391	7520.2125
1225.36829	7430.5125
1228.94024	7435.2125
1232.50976	7457.5125
1236.07685	7472.2125
1239.6415	7500.5125
1243.20374	7513.3125
1246.76355	7560.1125
1250.32093	7609.2125
1253.8759	7706.3125
1257.42845	7895.1125
1260.97859	8081.9125
1264.52631	8324.0125
1268.07163	8502.1125
1271.61453	8645.4125
1275.15503	8698.4125
1278.69312	8682.6125
1282.22882	8751.2125
1285.76211	8957.5125
1289.29301	9206.5125
1292.82151	9461.4125
1296.34761	9715.5125
1299.87133	10113.9125
1303.39266	10873.8125
1306.9116	12014.4125
1310.42815	13300.2125
1313.94233	13724.1125
1317.45412	12912.3125
1320.96354	11748.2125
1324.47058	10724.0125
1327.97525	9948.1125
1331.47754	9512.1125
1334.97747	9406.5125
1338.47502	9507.2125
1341.97022	9891.1125
1345.46305	10651.8125
1348.95352	11784.6125
1352.44163	13122.5125
1355.92738	14553.6125
1359.41078	16261.6125
1362.89183	17814.8125
1366.37053	17173.6125
1369.84688	14259.7125
1373.32088	11482.2125
1376.79254	10008.4125
1380.26186	9307.6125
1383.72883	8882.4125
1387.19347	8467.8125
1390.65578	8091.9125
1394.11575	7845.7125
1397.57339	7671.9125
1401.0287	7564.4125
1404.48168	7511.2125
1407.93234	7539.2125
1411.38068	7564.0125
1414.82669	7620.5125
1418.27039	7692.1125
1421.71177	7696.5125
1425.15083	7598.0125
1428.58758	7523.3125
1432.02203	7551.4125
1435.45416	7634.3125
1438.88399	7645.0125
1442.31151	7632.6125
1445.73673	7670.7125
1449.15965	7729.2125
1452.58027	7751.6125
1455.9986	7722.2125
1459.41463	7764.8125
1462.82837	7852.9125
1466.23982	8030.4125
1469.64898	8271.9125
1473.05586	8426.9125
1476.46045	8512.1125
1479.86276	8577.6125
1483.26279	8704.5125
1486.66054	8897.0125
1490.05602	9231.0125
1493.44922	9788.8125
1496.84016	10683.3125
1500.22882	12112.7125
1503.61521	13899.5125
1506.99934	15721.6125
1510.38121	16987.6125
1513.76081	16793.7125
1517.13816	15182.6125
1520.51324	12985.9125
1523.88607	11240.0125
1527.25665	10207.9125
1530.62498	9705.0125
1533.99105	9485.6125
1537.35488	9381.1125
1540.71647	9266.5125
1544.07581	9149.1125
1547.4329	8989.0125
1550.78776	8855.7125
1554.14038	8764.5125
1557.49077	8722.8125
1560.83892	8836.7125
1564.18484	9077.8125
1567.52853	9436.9125
1570.86999	9753.8125
1574.20922	9902.0125
1577.54624	9794.6125
1580.88103	9254.4125
1584.2136	8563.1125
1587.54395	8168.2125
1590.87208	8069.1125
1594.19801	8241.6125
1597.52172	8617.7125
1600.84321	8761.2125
1604.16251	8617.4125
1607.47959	8388.8125
1610.79447	8211.5125
1614.10715	7920.4125
1617.41763	7626.1125
1620.7259	7339.8125
1624.03199	7195.7125
1627.33587	7114.4125
1630.63757	7169.1125
1633.93707	7388.1125
1637.23439	7820.2125
1640.52951	8552.4125
1643.82246	9555.8125
1647.11321	10736.4125
1650.40179	11517.4125
1653.68819	11160.2125
1656.97241	9864.1125
1660.25446	8455.7125
1663.53433	7401.6125
1666.81203	6799.8125
1670.08756	6438.9125
1673.36092	6262.3125
1676.63211	6091.3125
1679.90115	6007.7125
1683.16801	5933.3125
1686.43272	5833.7125
1689.69527	5801.9125
1692.95567	5734.0125
1696.2139	5719.0125
1699.46999	5679.5125
1702.72392	5671.2125
1705.97571	5675.6125
1709.22535	5651.3125
1712.47284	5703.7125
1715.71819	5693.8125
1718.96139	5685.8125
1722.20246	5692.9125
1725.44139	5645.6125
1728.67818	5628.0125
1731.91284	5555.9125
1735.14537	5537.9125
1738.37576	5502.7125
1741.60403	5477.4125
1744.83017	5452.7125
1748.05418	5468.0125
1751.27607	5453.6125
1754.49584	5422.2125
1757.71349	5382.2125
1760.92903	5374.5125
1764.14244	5332.8125
1767.35375	5348.1125
1770.56294	5328.2125
1773.77002	5303.9125
1776.97499	5332.7125
1780.17785	5299.0125
1783.37861	5298.5125
1786.57727	5291.3125
1789.77382	5253.0125
1792.96828	5274.8125
1796.16064	5276.9125
1799.3509	5263.4125
1802.53907	5262.1125
1805.72514	5230.0125
1808.90913	5203.9125
1812.09102	5195.3125
1815.27083	5205.6125
1818.44856	5192.2125
1821.6242	5171.0125
1824.79776	5160.7125
1827.96924	5143.5125
1831.13864	5125.6125
1834.30597	5142.1125
1837.47122	5121.4125
1840.6344	5103.0125
1843.7955	5088.3125
1846.95454	5084.0125
1850.11151	5092.8125
1853.26642	5052.8125
1856.41926	5056.4125
1859.57004	5063.9125
1862.71876	5048.3125
1865.86542	5046.6125
1869.01003	5059.1125
1872.15258	5031.5125
1875.29308	5050.2125
1878.43152	5034.1125
1881.56792	5020.0125
1884.70227	5001.0125
1887.83457	5020.4125
1890.96482	4990.0125
1894.09304	4963.1125
1897.21921	4970.1125
1900.34335	4980.7125
1903.46544	4961.1125
1906.58551	4981.9125
1909.70353	4968.4125
1912.81953	4948.7125
1915.93349	4954.9125
1919.04543	4945.3125
1922.15534	4917.0125
1925.26322	4923.6125
1928.36908	4906.0125
1931.47292	4888.1125
1934.57473	4907.4125
1937.67453	4867.5125
1940.77232	4834.4125
1943.86808	4822.1125
1946.96184	4828.2125
1950.05358	4804.2125
1953.14331	4790.1125
1956.23103	4784.0125
1959.31675	4760.4125
1962.40046	4709.3125
1965.48217	4726.9125
1968.56188	4733.3125
1971.63959	4701.6125
1974.7153	4713.3125
1977.78901	4695.7125
1980.86073	4686.3125
1983.93046	4648.5125
1986.99819	4555.5125
1990.06394	4587.3125
1993.1277	4614.3125
1996.18947	4576.6125
1999.24925	4552.3125
2002.30706	4550.0125
2005.36288	4537.2125
2008.41672	4514.8125
2011.46859	4492.1125
2014.51848	4480.3125
2017.56639	4473.7125
2020.61233	4442.6125
2023.6563	4440.6125
2026.6983	4395.1125
2029.73833	4427.1125
2032.7764	4417.9125
2035.8125	4359.7125
2038.84664	4375.9125
2041.87881	4352.9125
2044.90903	4356.1125
2047.93729	4344.3125
2050.96359	4315.4125
2053.98794	4328.6125
2057.01034	4336.5125
2060.03078	4316.9125
2063.04927	4315.2125
2066.06582	4312.0125
2069.08042	4285.9125
2072.09307	4300.3125
2075.10378	4291.2125
2078.11255	4285.0125
2081.11938	4286.3125
2084.12426	4278.5125
2087.12722	4278.8125
2090.12824	4256.7125
2093.12732	4275.1125
2096.12447	4275.7125
2099.11969	4273.7125
2102.11299	4271.9125
2105.10435	4283.4125
2108.09379	4258.6125
2111.08131	4283.6125
2114.0669	4271.7125
2117.05057	4267.7125
2120.03233	4263.8125
2123.01216	4283.9125
2125.99008	4284.5125
2128.96609	4265.3125
2131.94018	4298.8125
2134.91236	4291.1125
2137.88263	4288.9125
2140.851	4284.5125
2143.81746	4297.5125
2146.78201	4292.8125
2149.74466	4253.8125
2152.7054	4283.1125
2155.66425	4269.9125
2158.6212	4264.3125
2161.57625	4247.1125
2164.52941	4210.2125
2167.48067	4233.2125
2170.43004	4218.9125
2173.37752	4254.2125
2176.32311	4239.4125
2179.26681	4232.8125
2182.20863	4238.0125
2185.14856	4242.2125
2188.08661	4243.5125
2191.02278	4249.0125
2193.95707	4219.6125
2196.88948	4197.3125
2199.82001	4213.6125
2202.74867	4196.1125
2205.67545	4201.6125
2208.60037	4220.0125
2211.52341	4190.7125
2214.44458	4163.5125
2217.36388	4164.0125
2220.28132	4157.1125
2223.1969	4129.7125
2226.11061	4137.0125
2229.02246	4126.1125
2231.93245	4121.6125
2234.84058	4107.3125
2237.74686	4107.7125
2240.65128	4094.6125
2243.55385	4091.4125
2246.45456	4061.8125
2249.35343	4078.6125
2252.25044	4055.7125
2255.14561	4081.3125
2258.03893	4067.6125
2260.93041	4062.5125
2263.82004	4059.1125
2266.70783	4060.0125
2269.59378	4034.0125
2272.4779	4005.5125
2275.36017	4011.9125
2278.24061	3982.9125
2281.11922	3961.0125
2283.996	3999.8125
2286.87094	3969.2125
2289.74405	3972.7125
2292.61534	3943.5125
2295.4848	3936.2125
2298.35243	3933.8125
2301.21824	3929.4125
2304.08223	3916.7125
2306.94439	3923.7125
2309.80474	3929.6125
2312.66327	3904.5125
2315.51999	3905.4125
2318.37489	3903.4125
2321.22797	3878.0125
2324.07925	3883.8125
2326.92871	3886.0125
2329.77637	3856.7125
2332.62222	3851.2125
2335.46626	3834.5125
2338.3085	3830.5125
2341.14893	3856.3125
2343.98756	3841.8125
2346.8244	3830.2125
2349.65943	3822.1125
2352.49267	3818.3125
2355.32411	3831.2125
2358.15376	3822.5125
2360.98161	3827.6125
2363.80768	3808.2125
2366.63195	3817.8125
2369.45444	3821.5125
2372.27514	3826.8125
2375.09405	3837.1125
2377.91118	3789.7125
2380.72652	3773.8125
2383.54009	3788.6125
2386.35187	3787.6125
2389.16188	3744.4125
2391.97011	3754.0125
2394.77657	3753.8125
2397.58125	3737.4125
2400.38416	3727.6125
2403.18529	3709.5125
2405.98466	3698.9125
2408.78226	3692.3125
2411.57809	3683.6125
2414.37216	3681.5125
2417.16446	3684.4125
2419.955	3658.7125
2422.74378	3666.9125
2425.5308	3658.5125
2428.31606	3653.7125
2431.09956	3658.9125
2433.88131	3624.0125
2436.6613	3642.7125
2439.43954	3641.7125
2442.21603	3633.0125
2444.99077	3622.0125
2447.76377	3639.7125
2450.53501	3634.9125
2453.30451	3608.1125
2456.07226	3627.7125
2458.83827	3606.5125
2461.60254	3564.6125
2464.36507	3610.0125
2467.12586	3582.4125
2469.88492	3588.6125
2472.64224	3589.4125
2475.39782	3564.0125
2478.15167	3584.3125
2480.90379	3569.0125
2483.65417	3586.8125
2486.40283	3605.5125
2489.14976	3600.6125
2491.89497	3575.2125
2494.63845	3593.8125
2497.3802	3568.7125
2500.12024	3568.4125
2502.85855	3556.1125
2505.59514	3559.6125
2508.33002	3543.5125
2511.06318	3516.7125
2513.79462	3541.7125
2516.52435	3497.0125
2519.25237	3488.8125
2521.97867	3476.5125
2524.70327	3485.2125
2527.42616	3476.0125
2530.14734	3490.1125
2532.86681	3462.6125
2535.58458	3457.5125
2538.30065	3451.3125
2541.01501	3461.2125
2543.72768	3448.1125
2546.43864	3447.1125
2549.14791	3436.7125
2551.85548	3419.9125
2554.56136	3402.4125
2557.26554	3415.1125
2559.96803	3414.4125
2562.66883	3418.6125
2565.36794	3395.0125
2568.06536	3357.8125
2570.7611	3387.2125
2573.45514	3362.8125
2576.14751	3357.9125
2578.83819	3339.0125
2581.52719	3327.7125
2584.21451	3340.5125
2586.90015	3310.7125
2589.58411	3311.8125
2592.2664	3318.4125
2594.94701	3320.4125
2597.62594	3315.5125
2600.30321	3249.9125
2602.9788	3267.5125
2605.65273	3271.0125
2608.32498	3261.9125
2610.99557	3280.1125
2613.66449	3260.2125
2616.33175	3261.9125
2618.99734	3254.1125
2621.66128	3270.1125
2624.32355	3237.0125
2626.98416	3231.0125
2629.64311	3229.7125
2632.30041	3227.6125
2634.95605	3206.9125
2637.61004	3188.5125
2640.26238	3179.5125
2642.91306	3182.1125
2645.56209	3201.4125
2648.20948	3184.6125
2650.85521	3179.5125
2653.4993	3192.2125
2656.14175	3188.2125
2658.78255	3165.6125
2661.42171	3131.5125
2664.05923	3193.0125
2666.6951	3181.7125
2669.32934	3198.6125
2671.96194	3196.6125
2674.59291	3177.2125
2677.22224	3181.8125
2679.84993	3183.1125
2682.476	3166.0125
2685.10043	3179.2125
2687.72324	3158.4125
2690.34441	3153.5125
2692.96396	3156.2125
2695.58188	3165.4125
2698.19818	3153.7125
2700.81285	3153.0125
2703.4259	3143.0125
2706.03733	3115.1125
2708.64714	3103.8125
2711.25533	3143.5125
2713.86191	3151.3125
2716.46687	3150.3125
2719.07021	3140.5125
2721.67194	3144.8125
2724.27206	3147.8125
2726.87057	3141.5125
2729.46747	3128.2125
2732.06276	3139.4125
2734.65644	3125.6125
2737.24852	3114.5125
2739.83899	3094.2125
2742.42786	3106.4125
2745.01513	3118.0125
2747.60079	3085.4125
2750.18486	3064.9125
2752.76733	3088.8125
2755.3482	3066.8125
2757.92747	3088.8125
2760.50515	3056.8125
2763.08123	3061.9125
2765.65573	3059.3125
2768.22863	3050.5125
2770.79994	3031.4125
2773.36967	3033.2125
2775.9378	3026.5125
2778.50435	3028.3125
2781.06932	3024.5125
2783.6327	3007.6125
2786.1945	3020.6125
2788.75471	3009.7125
2791.31335	2997.9125
2793.87041	2999.7125
2796.42589	2992.3125
2798.97979	2980.3125
2801.53212	2972.7125
2804.08288	2986.7125
2806.63206	2965.4125
2809.17967	2954.1125
2811.72571	2968.0125
2814.27018	2961.2125
2816.81308	2955.3125
2819.35442	2915.4125
2821.89419	2925.6125
2824.43239	2903.6125
2826.96904	2945.9125
2829.50412	2912.1125
2832.03763	2931.3125
2834.56959	2930.8125
2837.1	2907.4125
2839.62884	2897.4125
2842.15613	2903.9125
2844.68186	2908.8125
2847.20604	2879.0125
2849.72867	2881.9125
2852.24974	2890.0125
2854.76927	2849.2125
2857.28724	2810.4125
2859.80367	2881.3125
2862.31855	2877.8125
2864.83189	2864.4125
2867.34368	2859.6125
2869.85393	2877.8125
2872.36264	2850.8125
2874.8698	2862.6125
2877.37543	2860.1125
2879.87952	2847.9125
2882.38207	2831.1125
2884.88308	2826.7125
2887.38256	2836.0125
2889.88051	2826.4125
2892.37692	2834.5125
2894.8718	2809.6125
2897.36515	2827.4125
2899.85698	2827.8125
2902.34727	2829.1125
2904.83604	2838.1125
2907.32328	2835.7125
2909.809	2840.5125
2912.29319	2836.0125
2914.77587	2835.3125
2917.25702	2856.1125
2919.73665	2855.1125
2922.21476	2864.4125
2924.69136	2852.2125
2927.16644	2843.7125
2929.64	2832.7125
2932.11205	2809.6125
2934.58258	2820.0125
2937.05161	2799.3125
2939.51912	2810.6125
2941.98513	2821.3125
2944.44962	2808.5125
2946.91261	2783.8125
2949.37409	2797.3125
2951.83407	2793.3125
2954.29254	2778.6125
2956.74951	2777.5125
2959.20498	2762.7125
2961.65895	2764.4125
2964.11142	2743.6125
2966.56239	2743.8125
2969.01186	2753.8125
2971.45984	2749.2125
2973.90632	2738.9125
2976.35131	2754.8125
2978.7948	2738.8125
2981.23681	2724.9125
2983.67732	2729.0125
2986.11635	2727.0125
2988.55388	2699.1125
2990.98993	2698.0125
2993.4245	2678.7125
2995.85758	2686.9125
2998.28917	2675.7125
3000.71928	2661.8125
3003.14791	2652.7125
3005.57506	2642.6125
3008.00073	2635.0125
3010.42493	2563.2125
3012.84764	2638.2125
3015.26888	2633.2125
3017.68865	2628.9125
3020.10694	2578.0125
3022.52376	2592.9125
3024.9391	2587.7125
3027.35298	2579.0125
3029.76539	2559.1125
3032.17632	2569.7125
3034.5858	2565.2125
3036.9938	2578.0125
3039.40034	2553.5125
3041.80542	2553.4125
3044.20903	2534.4125
3046.61118	2526.3125
3049.01187	2542.9125
3051.4111	2525.3125
3053.80888	2505.0125
3056.20519	2510.3125
3058.60005	2500.9125
3060.99345	2522.8125
3063.3854	2494.8125
3065.7759	2480.6125
3068.16494	2476.9125
3070.55254	2454.5125
3072.93868	2476.1125
3075.32338	2466.3125
3077.70662	2450.7125
3080.08842	2437.1125
3082.46878	2428.5125
3084.84769	2436.9125
3087.22515	2431.8125
3089.60118	2429.1125
3091.97576	2410.9125
3094.3489	2432.7125
3096.72061	2421.6125
3099.09087	2403.4125
3101.4597	2419.9125
3103.82709	2414.8125
3106.19305	2397.6125
3108.55757	2411.6125
3110.92066	2389.6125
3113.28232	2401.1125
3115.64255	2387.2125
3118.00134	2388.5125
3120.35871	2363.4125
3122.71466	2349.0125
3125.06917	2355.4125
3127.42226	2353.4125
3129.77393	2321.3125
3132.12417	2346.9125
3134.47299	2343.6125
3136.82039	2321.9125
3139.16636	2307.0125
3141.51092	2324.6125
3143.85406	2330.1125
3146.19579	2315.4125
3148.53609	2320.8125
3150.87499	2328.0125
3153.21246	2315.4125
3155.54853	2319.0125
3157.88318	2311.8125
3160.21642	2317.8125
3162.54826	2317.7125
3164.87868	2313.8125
3167.2077	2263.0125
3169.5353	2297.1125
3171.86151	2306.3125
3174.18631	2288.5125
3176.5097	2277.3125
3178.83169	2288.3125
3181.15228	2284.9125
3183.47147	2256.6125
3185.78926	2246.3125
3188.10565	2253.4125
3190.42065	2226.3125
3192.73424	2242.5125
3195.04645	2235.6125
3197.35725	2223.8125
3199.66667	2247.2125
3201.97469	2229.5125
3204.28132	2216.1125
3206.58656	2231.3125
3208.8904	2238.2125
3211.19287	2227.2125
3213.49394	2218.6125
3215.79363	2210.7125
3218.09193	2224.2125
3220.38884	2228.8125
3222.68438	2212.4125
3224.97853	2190.7125
3227.2713	2220.0125
3229.56269	2199.1125
3231.8527	2211.0125
3234.14133	2204.1125
3236.42858	2199.1125
3238.71446	2161.1125
3240.99896	2187.1125
3243.28209	2157.2125
3245.56384	2169.7125
3247.84423	2150.2125
3250.12324	2163.0125
3252.40088	2155.7125
3254.67715	2143.1125
3256.95205	2129.0125
3259.22558	2150.2125
3261.49775	2148.1125
3263.76855	2130.3125
3266.03799	2150.1125
3268.30606	2143.8125
3270.57277	2141.5125
3272.83812	2119.7125
3275.10211	2120.4125
3277.36474	2128.8125
3279.62601	2122.2125
3281.88593	2106.5125
3284.14448	2073.6125
3286.40168	2103.1125
3288.65753	2088.4125
3290.91202	2083.3125
3293.16516	2067.3125
3295.41695	2097.0125
3297.66738	2091.6125
3299.91647	2066.8125
3302.16421	2070.9125
3304.4106	2030.2125
3306.65564	2050.8125
3308.89933	2017.5125
3311.14169	2003.2125
3313.38269	2003.0125
3315.62236	1972.1125
3317.86068	1954.9125
3320.09766	1952.5125
3322.3333	1922.4125
3324.5676	1923.2125
3326.80056	1889.7125
3329.03219	1886.3125
3331.26248	0.7125
3333.49143	0.4125
3335.71905	0.3125
