Data from AgNPs_UA_5uM_CRN_500uM_SU_RamanShift__36__11-35-23-146.txt Node

Date: Thu Aug 04 11:35:23 BST 2022
User: TCL
Spectrometer: QEP01345
Trigger mode: 4
Integration Time (sec): 1.000000E0
Scans to average: 10
Electric dark correction enabled: true
Nonlinearity correction enabled: false
Boxcar width: 0
XAxis mode: Raman Shifts
Number of Pixels in Spectrum: 1044
>>>>>Begin Spectral Data<<<<<
46.04893	0.2875
50.45542	0.2875
54.85868	0.4875
59.25871	-0.6125
63.6555	-53.3125
68.04907	-35.9125
72.43941	-66.2125
76.82654	-53.1125
81.21044	-50.4125
85.59113	-45.2125
89.96862	-68.2125
94.34289	-47.6125
98.71396	-69.7125
103.08183	-50.2125
107.4465	-43.1125
111.80798	-49.4125
116.16626	-35.3125
120.52136	-63.9125
124.87327	-37.1125
129.222	-49.2125
133.56755	-33.7125
137.90993	-44.5125
142.24913	-28.9125
146.58517	-15.0125
150.91804	-9.5125
155.24774	8.6875
159.57429	46.3875
163.89768	69.0875
168.21792	145.0875
172.53501	208.0875
176.84895	357.8875
181.15975	586.9875
185.46741	870.6875
189.77193	1208.6875
194.07331	1710.7875
198.37157	2250.9875
202.6667	2812.3875
206.9587	3419.3875
211.24758	4069.1875
215.53334	4792.6875
219.81599	5632.0875
224.09553	6610.4875
228.37195	7614.6875
232.64527	8554.9875
236.91549	9331.6875
241.18261	9719.7875
245.44663	9824.2875
249.70755	9805.6875
253.96539	9816.7875
258.22014	9880.9875
262.4718	9997.7875
266.72039	9980.0875
270.96589	9740.4875
275.20832	9288.2875
279.44768	8884.9875
283.68397	8561.5875
287.91719	8461.7875
292.14735	8687.0875
296.37445	9342.3875
300.59849	10530.0875
304.81948	12119.7875
309.03742	13953.4875
313.25231	15283.4875
317.46415	15105.2875
321.67296	13249.9875
325.87872	11084.1875
330.08145	9828.2875
334.28114	9543.6875
338.47781	9909.6875
342.67145	10596.6875
346.86207	11744.4875
351.04966	13439.8875
355.23424	15133.2875
359.4158	15733.3875
363.59435	15133.0875
367.76989	14076.1875
371.94243	13084.8875
376.11196	12250.3875
380.27849	11656.0875
384.44203	11169.1875
388.60257	10917.6875
392.76012	10925.5875
396.91468	11335.8875
401.06626	11763.0875
405.21485	11776.0875
409.36047	10993.7875
413.50311	9670.2875
417.64277	8431.3875
421.77947	7666.8875
425.9132	7313.2875
430.04396	7123.0875
434.17176	7111.5875
438.2966	7260.9875
442.41849	7518.7875
446.53742	7779.8875
450.6534	7929.7875
454.76644	7910.5875
458.87653	7775.6875
462.98368	7593.6875
467.08789	7414.4875
471.18916	7148.9875
475.2875	6799.7875
479.38291	6487.2875
483.4754	6291.4875
487.56496	6223.3875
491.6516	6109.3875
495.73531	6110.4875
499.81612	6175.8875
503.89401	6387.7875
507.96899	6620.5875
512.04106	6926.8875
516.11023	7276.1875
520.1765	7496.3875
524.23987	7625.5875
528.30034	7615.9875
532.35792	7479.1875
536.41261	7291.1875
540.46441	7025.3875
544.51333	6829.9875
548.55936	6811.1875
552.60252	6989.8875
556.64279	7269.5875
560.6802	7811.6875
564.71473	9015.3875
568.7464	10590.9875
572.7752	10550.6875
576.80114	8546.9875
580.82422	6908.4875
584.84444	6239.2875
588.86181	5997.3875
592.87633	5994.4875
596.888	6244.3875
600.89682	7203.9875
604.9028	10436.7875
608.90594	18677.0875
612.90624	28717.9875
616.90371	25879.3875
620.89834	13519.3875
624.89015	8143.3875
628.87913	7579.6875
632.86528	8343.9875
636.84862	8612.0875
640.82913	7602.1875
644.80683	6298.0875
648.78172	5731.7875
652.75379	5930.1875
656.72306	6896.8875
660.68952	7832.5875
664.65319	7301.4875
668.61405	6043.2875
672.57211	5497.2875
676.52738	5507.8875
680.47986	5429.8875
684.42955	5275.3875
688.37646	5166.7875
692.32058	5156.7875
696.26192	5281.2875
700.20048	5439.7875
704.13626	5486.3875
708.06928	5386.0875
711.99952	5337.2875
715.927	5402.9875
719.85171	5678.4875
723.77365	5863.0875
727.69284	5673.8875
731.60928	5491.4875
735.52295	5418.7875
739.43388	5506.5875
743.34206	5563.2875
747.24749	5544.6875
751.15017	5581.6875
755.05012	6020.9875
758.94733	7657.8875
762.8418	11324.7875
766.73354	16024.1875
770.62254	18390.6875
774.50882	17409.9875
778.39237	15472.6875
782.27321	12644.9875
786.15132	9138.2875
790.02671	6865.6875
793.89938	5821.5875
797.76935	5487.3875
801.6366	5323.8875
805.50115	5228.3875
809.36299	5177.1875
813.22213	5137.8875
817.07857	5137.6875
820.93231	5178.5875
824.78336	5322.0875
828.63172	5464.1875
832.47738	5529.2875
836.32036	5395.7875
840.16066	5126.6875
843.99827	4971.2875
847.8332	4896.0875
851.66546	4894.2875
855.49504	4891.7875
859.32195	4859.8875
863.1462	4810.8875
866.96777	4799.7875
870.78668	4794.4875
874.60293	4841.5875
878.41652	4933.4875
882.22745	5117.7875
886.03573	5234.2875
889.84136	5191.8875
893.64433	5153.2875
897.44466	5162.6875
901.24235	5160.1875
905.0374	5073.8875
908.8298	4838.1875
912.61957	4713.2875
916.40671	4610.2875
920.19121	4689.6875
923.97308	4949.1875
927.75233	5440.0875
931.52895	5959.0875
935.30295	5678.6875
939.07433	4927.5875
942.84309	4448.2875
946.60924	4284.4875
950.37278	4193.8875
954.13371	4182.5875
957.89203	4184.1875
961.64774	4196.9875
965.40086	4158.3875
969.15137	4137.7875
972.89929	4152.4875
976.64461	4111.9875
980.38733	4116.1875
984.12747	4091.5875
987.86502	4109.8875
991.59999	4152.2875
995.33237	4238.1875
999.06217	4367.1875
1002.78939	4613.4875
1006.51404	4984.3875
1010.23611	5145.3875
1013.95561	4960.7875
1017.67255	4728.0875
1021.38692	4519.9875
1025.09872	4341.1875
1028.80796	4246.3875
1032.51465	4297.8875
1036.21877	4345.3875
1039.92035	4431.4875
1043.61937	4510.6875
1047.31584	4603.1875
1051.00976	4626.2875
1054.70114	4528.8875
1058.38998	4471.1875
1062.07627	4432.3875
1065.76003	4436.3875
1069.44126	4494.6875
1073.11995	4631.4875
1076.79611	4965.8875
1080.46974	5576.7875
1084.14085	6450.5875
1087.80943	7173.8875
1091.47549	7121.5875
1095.13903	6365.3875
1098.80005	5610.3875
1102.45857	5188.6875
1106.11456	5146.3875
1109.76805	5312.6875
1113.41903	5802.1875
1117.06751	6597.2875
1120.71348	7892.8875
1124.35696	9798.8875
1127.99793	11034.4875
1131.63641	9998.0875
1135.2724	8040.0875
1138.90589	6722.7875
1142.5369	5972.4875
1146.16542	5523.4875
1149.79145	5234.0875
1153.415	5144.4875
1157.03607	5239.6875
1160.65467	5515.6875
1164.27079	6012.0875
1167.88443	6761.3875
1171.49561	7986.9875
1175.10432	10061.3875
1178.71056	12953.4875
1182.31434	14826.5875
1185.91565	14482.9875
1189.51451	12608.3875
1193.11091	10695.1875
1196.70485	9438.2875
1200.29634	8954.4875
1203.88538	8335.7875
1207.47197	7168.0875
1211.05612	6061.3875
1214.63782	5360.0875
1218.21708	5049.2875
1221.79391	4937.8875
1225.36829	4909.5875
1228.94024	4909.2875
1232.50976	4903.5875
1236.07685	4905.5875
1239.6415	5012.8875
1243.20374	5151.0875
1246.76355	5343.7875
1250.32093	5622.7875
1253.8759	5993.8875
1257.42845	6648.7875
1260.97859	7488.9875
1264.52631	8223.1875
1268.07163	8573.6875
1271.61453	8532.5875
1275.15503	8247.4875
1278.69312	7940.0875
1282.22882	8163.7875
1285.76211	9272.7875
1289.29301	10770.7875
1292.82151	11715.5875
1296.34761	12113.3875
1299.87133	13109.3875
1303.39266	15623.6875
1306.9116	20295.7875
1310.42815	26069.1875
1313.94233	28335.2875
1317.45412	24043.4875
1320.96354	17575.3875
1324.47058	12661.6875
1327.97525	9659.4875
1331.47754	8204.2875
1334.97747	7700.2875
1338.47502	7933.0875
1341.97022	9060.9875
1345.46305	11569.7875
1348.95352	15163.9875
1352.44163	18840.3875
1355.92738	23553.9875
1359.41078	31742.9875
1362.89183	40248.6875
1366.37053	37946.9875
1369.84688	25892.9875
1373.32088	16115.2875
1376.79254	11923.7875
1380.26186	10025.4875
1383.72883	8543.4875
1387.19347	7202.9875
1390.65578	6236.8875
1394.11575	5694.4875
1397.57339	5412.7875
1401.0287	5213.1875
1404.48168	5037.7875
1407.93234	4949.9875
1411.38068	5068.8875
1414.82669	5510.9875
1418.27039	5987.4875
1421.71177	6095.4875
1425.15083	5870.7875
1428.58758	6004.1875
1432.02203	6671.5875
1435.45416	7148.6875
1438.88399	6818.5875
1442.31151	6349.2875
1445.73673	6256.7875
1449.15965	6221.3875
1452.58027	6044.7875
1455.9986	5788.1875
1459.41463	5587.3875
1462.82837	5593.8875
1466.23982	5889.5875
1469.64898	6261.2875
1473.05586	6367.3875
1476.46045	6345.1875
1479.86276	6362.0875
1483.26279	6698.7875
1486.66054	7423.5875
1490.05602	8575.1875
1493.44922	10422.4875
1496.84016	13307.0875
1500.22882	17786.4875
1503.61521	24102.4875
1506.99934	32367.0875
1510.38121	40682.5875
1513.76081	44367.3875
1517.13816	39629.3875
1520.51324	29662.7875
1523.88607	20436.9875
1527.25665	14462.1875
1530.62498	11037.3875
1533.99105	9058.3875
1537.35488	7788.0875
1540.71647	7058.0875
1544.07581	6759.9875
1547.4329	6747.9875
1550.78776	6933.4875
1554.14038	7335.4875
1557.49077	7995.5875
1560.83892	9142.8875
1564.18484	10950.0875
1567.52853	12848.8875
1570.86999	13835.1875
1574.20922	13897.8875
1577.54624	13069.9875
1580.88103	10871.6875
1584.2136	8267.1875
1587.54395	6740.6875
1590.87208	6375.3875
1594.19801	6850.8875
1597.52172	7701.3875
1600.84321	7757.3875
1604.16251	6834.7875
1607.47959	5949.0875
1610.79447	5401.3875
1614.10715	5002.7875
1617.41763	4719.0875
1620.7259	4584.8875
1624.03199	4662.8875
1627.33587	4895.0875
1630.63757	5353.2875
1633.93707	6198.6875
1637.23439	7693.4875
1640.52951	10463.7875
1643.82246	15180.5875
1647.11321	21558.7875
1650.40179	26552.4875
1653.68819	26021.9875
1656.97241	20060.7875
1660.25446	13328.3875
1663.53433	8761.8875
1666.81203	6325.1875
1670.08756	5038.0875
1673.36092	4356.4875
1676.63211	3935.2875
1679.90115	3666.6875
1683.16801	3496.7875
1686.43272	3327.4875
1689.69527	3248.7875
1692.95567	3159.2875
1696.2139	3105.5875
1699.46999	3033.6875
1702.72392	3015.7875
1705.97571	3023.6875
1709.22535	3019.0875
1712.47284	3063.7875
1715.71819	3089.2875
1718.96139	3079.5875
1722.20246	3063.5875
1725.44139	2998.8875
1728.67818	2905.7875
1731.91284	2811.2875
1735.14537	2751.4875
1738.37576	2688.4875
1741.60403	2686.5875
1744.83017	2628.3875
1748.05418	2616.6875
1751.27607	2609.8875
1754.49584	2545.6875
1757.71349	2478.1875
1760.92903	2446.9875
1764.14244	2363.2875
1767.35375	2337.0875
1770.56294	2287.1875
1773.77002	2238.2875
1776.97499	2220.1875
1780.17785	2172.9875
1783.37861	2147.9875
1786.57727	2144.3875
1789.77382	2072.6875
1792.96828	2100.7875
1796.16064	2106.0875
1799.3509	2087.0875
1802.53907	2103.3875
1805.72514	2071.0875
1808.90913	2046.0875
1812.09102	2040.8875
1815.27083	2035.2875
1818.44856	2011.3875
1821.6242	2008.3875
1824.79776	1994.1875
1827.96924	1990.4875
1831.13864	1947.7875
1834.30597	1954.0875
1837.47122	1911.3875
1840.6344	1880.4875
1843.7955	1850.4875
1846.95454	1825.5875
1850.11151	1844.0875
1853.26642	1801.4875
1856.41926	1812.2875
1859.57004	1815.7875
1862.71876	1821.6875
1865.86542	1832.2875
1869.01003	1828.7875
1872.15258	1813.7875
1875.29308	1830.2875
1878.43152	1844.6875
1881.56792	1826.3875
1884.70227	1799.6875
1887.83457	1804.3875
1890.96482	1780.4875
1894.09304	1770.7875
1897.21921	1762.9875
1900.34335	1775.2875
1903.46544	1741.3875
1906.58551	1766.4875
1909.70353	1753.1875
1912.81953	1747.0875
1915.93349	1739.8875
1919.04543	1723.8875
1922.15534	1701.4875
1925.26322	1700.0875
1928.36908	1661.3875
1931.47292	1648.7875
1934.57473	1633.7875
1937.67453	1578.6875
1940.77232	1540.1875
1943.86808	1536.4875
1946.96184	1534.2875
1950.05358	1514.3875
1953.14331	1517.8875
1956.23103	1531.0875
1959.31675	1514.2875
1962.40046	1488.1875
1965.48217	1545.9875
1968.56188	1557.7875
1971.63959	1563.7875
1974.7153	1578.2875
1977.78901	1562.0875
1980.86073	1533.1875
1983.93046	1471.1875
1986.99819	1392.5875
1990.06394	1392.9875
1993.1277	1406.8875
1996.18947	1394.9875
1999.24925	1356.5875
2002.30706	1364.3875
2005.36288	1362.8875
2008.41672	1343.8875
2011.46859	1329.0875
2014.51848	1324.3875
2017.56639	1300.4875
2020.61233	1291.6875
2023.6563	1297.7875
2026.6983	1258.1875
2029.73833	1262.0875
2032.7764	1280.7875
2035.8125	1243.0875
2038.84664	1247.5875
2041.87881	1240.6875
2044.90903	1255.2875
2047.93729	1252.9875
2050.96359	1215.1875
2053.98794	1226.0875
2057.01034	1214.4875
2060.03078	1192.9875
2063.04927	1180.3875
2066.06582	1169.4875
2069.08042	1140.2875
2072.09307	1156.1875
2075.10378	1154.4875
2078.11255	1151.1875
2081.11938	1151.9875
2084.12426	1145.3875
2087.12722	1149.2875
2090.12824	1142.9875
2093.12732	1150.1875
2096.12447	1154.4875
2099.11969	1143.3875
2102.11299	1127.4875
2105.10435	1151.7875
2108.09379	1149.1875
2111.08131	1138.1875
2114.0669	1158.4875
2117.05057	1161.5875
2120.03233	1166.0875
2123.01216	1207.2875
2125.99008	1215.4875
2128.96609	1221.0875
2131.94018	1227.9875
2134.91236	1200.4875
2137.88263	1175.6875
2140.851	1164.9875
2143.81746	1160.0875
2146.78201	1132.6875
2149.74466	1092.4875
2152.7054	1099.8875
2155.66425	1073.3875
2158.6212	1067.5875
2161.57625	1033.9875
2164.52941	1017.8875
2167.48067	1043.4875
2170.43004	1036.3875
2173.37752	1061.4875
2176.32311	1059.8875
2179.26681	1062.8875
2182.20863	1079.7875
2185.14856	1071.6875
2188.08661	1067.1875
2191.02278	1066.9875
2193.95707	1035.3875
2196.88948	1013.5875
2199.82001	1016.5875
2202.74867	1002.0875
2205.67545	1016.2875
2208.60037	1022.2875
2211.52341	1013.3875
2214.44458	1012.8875
2217.36388	999.3875
2220.28132	987.0875
2223.1969	967.6875
2226.11061	969.5875
2229.02246	961.4875
2231.93245	970.4875
2234.84058	945.8875
2237.74686	950.9875
2240.65128	947.4875
2243.55385	962.8875
2246.45456	947.1875
2249.35343	977.9875
2252.25044	989.2875
2255.14561	1024.7875
2258.03893	1051.4875
2260.93041	1068.5875
2263.82004	1089.1875
2266.70783	1091.6875
2269.59378	1074.7875
2272.4779	1056.8875
2275.36017	1071.9875
2278.24061	1052.8875
2281.11922	1025.8875
2283.996	1039.0875
2286.87094	999.9875
2289.74405	1004.3875
2292.61534	984.3875
2295.4848	963.9875
2298.35243	950.2875
2301.21824	932.6875
2304.08223	931.2875
2306.94439	937.7875
2309.80474	941.5875
2312.66327	935.1875
2315.51999	921.9875
2318.37489	921.2875
2321.22797	906.6875
2324.07925	905.2875
2326.92871	910.6875
2329.77637	895.5875
2332.62222	902.5875
2335.46626	889.0875
2338.3085	893.5875
2341.14893	928.4875
2343.98756	928.8875
2346.8244	915.5875
2349.65943	919.7875
2352.49267	940.1875
2355.32411	954.0875
2358.15376	964.2875
2360.98161	995.1875
2363.80768	984.1875
2366.63195	1023.5875
2369.45444	1034.0875
2372.27514	1038.1875
2375.09405	1054.8875
2377.91118	1008.8875
2380.72652	1004.1875
2383.54009	992.2875
2386.35187	986.0875
2389.16188	962.8875
2391.97011	948.2875
2394.77657	917.7875
2397.58125	919.8875
2400.38416	904.7875
2403.18529	884.1875
2405.98466	876.4875
2408.78226	879.8875
2411.57809	864.0875
2414.37216	868.3875
2417.16446	873.6875
2419.955	852.1875
2422.74378	881.5875
2425.5308	866.5875
2428.31606	882.0875
2431.09956	892.9875
2433.88131	887.1875
2436.6613	904.7875
2439.43954	899.8875
2442.21603	914.0875
2444.99077	911.6875
2447.76377	939.0875
2450.53501	934.6875
2453.30451	928.6875
2456.07226	952.2875
2458.83827	936.6875
2461.60254	900.9875
2464.36507	935.6875
2467.12586	915.6875
2469.88492	932.3875
2472.64224	929.5875
2475.39782	926.9875
2478.15167	951.7875
2480.90379	968.5875
2483.65417	997.0875
2486.40283	1033.3875
2489.14976	1046.2875
2491.89497	1035.1875
2494.63845	1045.3875
2497.3802	1024.1875
2500.12024	1022.6875
2502.85855	1003.5875
2505.59514	986.3875
2508.33002	955.8875
2511.06318	907.6875
2513.79462	893.8875
2516.52435	837.1875
2519.25237	796.7875
2521.97867	790.7875
2524.70327	783.7875
2527.42616	770.7875
2530.14734	783.9875
2532.86681	760.2875
2535.58458	767.8875
2538.30065	766.4875
2541.01501	796.0875
2543.72768	776.0875
2546.43864	787.8875
2549.14791	797.6875
2551.85548	799.2875
2554.56136	805.2875
2557.26554	823.0875
2559.96803	827.6875
2562.66883	827.5875
2565.36794	819.9875
2568.06536	800.8875
2570.7611	832.1875
2573.45514	819.3875
2576.14751	814.6875
2578.83819	803.3875
2581.52719	795.2875
2584.21451	791.5875
2586.90015	766.6875
2589.58411	753.6875
2592.2664	764.5875
2594.94701	771.4875
2597.62594	770.6875
2600.30321	719.5875
2602.9788	748.4875
2605.65273	747.2875
2608.32498	762.2875
2610.99557	780.6875
2613.66449	753.0875
2616.33175	779.3875
2618.99734	782.8875
2621.66128	787.9875
2624.32355	771.1875
2626.98416	758.6875
2629.64311	752.8875
2632.30041	734.2875
2634.95605	708.6875
2637.61004	698.2875
2640.26238	674.3875
2642.91306	682.3875
2645.56209	702.0875
2648.20948	685.0875
2650.85521	680.0875
2653.4993	701.3875
2656.14175	697.1875
2658.78255	702.1875
2661.42171	680.1875
2664.05923	722.7875
2666.6951	735.3875
2669.32934	745.8875
2671.96194	766.9875
2674.59291	754.9875
2677.22224	755.5875
2679.84993	750.6875
2682.476	736.8875
2685.10043	732.1875
2687.72324	720.7875
2690.34441	717.7875
2692.96396	711.6875
2695.58188	724.8875
2698.19818	712.2875
2700.81285	700.5875
2703.4259	692.9875
2706.03733	669.6875
2708.64714	673.6875
2711.25533	714.8875
2713.86191	720.1875
2716.46687	711.6875
2719.07021	718.8875
2721.67194	715.2875
2724.27206	730.7875
2726.87057	704.8875
2729.46747	691.1875
2732.06276	689.8875
2734.65644	670.0875
2737.24852	669.4875
2739.83899	647.6875
2742.42786	653.8875
2745.01513	653.5875
2747.60079	631.1875
2750.18486	612.2875
2752.76733	612.8875
2755.3482	607.6875
2757.92747	601.6875
2760.50515	583.8875
2763.08123	585.6875
2765.65573	587.1875
2768.22863	576.1875
2770.79994	574.3875
2773.36967	564.2875
2775.9378	573.0875
2778.50435	579.7875
2781.06932	582.1875
2783.6327	570.8875
2786.1945	598.1875
2788.75471	582.2875
2791.31335	587.7875
2793.87041	598.9875
2796.42589	590.7875
2798.97979	602.1875
2801.53212	614.2875
2804.08288	640.8875
2806.63206	635.1875
2809.17967	636.9875
2811.72571	676.9875
2814.27018	686.8875
2816.81308	698.6875
2819.35442	681.5875
2821.89419	724.9875
2824.43239	724.2875
2826.96904	761.5875
2829.50412	733.6875
2832.03763	742.6875
2834.56959	725.6875
2837.1	709.8875
2839.62884	699.9875
2842.15613	694.0875
2844.68186	699.1875
2847.20604	678.3875
2849.72867	690.4875
2852.24974	710.6875
2854.76927	700.1875
2857.28724	678.2875
2859.80367	745.6875
2862.31855	778.2875
2864.83189	779.7875
2867.34368	811.9875
2869.85393	832.5875
2872.36264	822.9875
2874.8698	830.7875
2877.37543	836.9875
2879.87952	814.4875
2882.38207	783.4875
2884.88308	776.2875
2887.38256	766.5875
2889.88051	749.2875
2892.37692	736.5875
2894.8718	719.4875
2897.36515	731.5875
2899.85698	736.6875
2902.34727	745.9875
2904.83604	760.1875
2907.32328	790.9875
2909.809	800.8875
2912.29319	817.2875
2914.77587	829.8875
2917.25702	835.6875
2919.73665	829.0875
2922.21476	810.9875
2924.69136	779.4875
2927.16644	745.9875
2929.64	732.2875
2932.11205	713.8875
2934.58258	709.2875
2937.05161	699.0875
2939.51912	700.8875
2941.98513	716.0875
2944.44962	699.3875
2946.91261	670.4875
2949.37409	689.1875
2951.83407	689.0875
2954.29254	699.6875
2956.74951	701.9875
2959.20498	699.6875
2961.65895	688.6875
2964.11142	689.9875
2966.56239	682.5875
2969.01186	678.2875
2971.45984	674.9875
2973.90632	658.6875
2976.35131	686.6875
2978.7948	682.3875
2981.23681	669.7875
2983.67732	682.2875
2986.11635	683.7875
2988.55388	667.4875
2990.98993	681.0875
2993.4245	680.8875
2995.85758	676.6875
2998.28917	677.1875
3000.71928	680.4875
3003.14791	680.1875
3005.57506	678.6875
3008.00073	668.3875
3010.42493	614.4875
3012.84764	666.5875
3015.26888	667.8875
3017.68865	665.1875
3020.10694	624.5875
3022.52376	637.5875
3024.9391	638.5875
3027.35298	625.0875
3029.76539	598.1875
3032.17632	595.9875
3034.5858	573.4875
3036.9938	572.1875
3039.40034	555.8875
3041.80542	531.5875
3044.20903	514.2875
3046.61118	496.1875
3049.01187	515.8875
3051.4111	498.2875
3053.80888	493.7875
3056.20519	490.7875
3058.60005	475.5875
3060.99345	508.1875
3063.3854	485.8875
3065.7759	474.0875
3068.16494	469.2875
3070.55254	459.9875
3072.93868	472.8875
3075.32338	468.8875
3077.70662	461.6875
3080.08842	451.2875
3082.46878	439.0875
3084.84769	456.6875
3087.22515	439.3875
3089.60118	448.9875
3091.97576	437.2875
3094.3489	447.7875
3096.72061	432.3875
3099.09087	418.3875
3101.4597	430.1875
3103.82709	423.8875
3106.19305	410.7875
3108.55757	422.9875
3110.92066	420.0875
3113.28232	432.0875
3115.64255	429.5875
3118.00134	434.3875
3120.35871	422.4875
3122.71466	412.4875
3125.06917	424.7875
3127.42226	415.6875
3129.77393	406.3875
3132.12417	426.2875
3134.47299	430.7875
3136.82039	414.1875
3139.16636	396.6875
3141.51092	423.7875
3143.85406	421.9875
3146.19579	413.9875
3148.53609	415.1875
3150.87499	428.5875
3153.21246	427.0875
3155.54853	429.2875
3157.88318	434.7875
3160.21642	434.2875
3162.54826	431.0875
3164.87868	430.5875
3167.2077	391.6875
3169.5353	409.1875
3171.86151	418.6875
3174.18631	397.7875
3176.5097	385.6875
3178.83169	380.6875
3181.15228	376.2875
3183.47147	355.8875
3185.78926	342.1875
3188.10565	349.9875
3190.42065	338.9875
3192.73424	344.8875
3195.04645	341.4875
3197.35725	331.1875
3199.66667	347.4875
3201.97469	346.3875
3204.28132	342.1875
3206.58656	352.6875
3208.8904	369.0875
3211.19287	363.1875
3213.49394	350.4875
3215.79363	359.6875
3218.09193	370.1875
3220.38884	368.5875
3222.68438	363.2875
3224.97853	345.8875
3227.2713	368.0875
3229.56269	351.1875
3231.8527	354.0875
3234.14133	334.6875
3236.42858	341.9875
3238.71446	320.2875
3240.99896	344.0875
3243.28209	322.1875
3245.56384	337.1875
3247.84423	329.8875
3250.12324	340.0875
3252.40088	335.1875
3254.67715	321.8875
3256.95205	316.7875
3259.22558	331.2875
3261.49775	335.3875
3263.76855	327.6875
3266.03799	331.9875
3268.30606	336.1875
3270.57277	345.9875
3272.83812	330.9875
3275.10211	343.3875
3277.36474	372.2875
3279.62601	369.2875
3281.88593	356.4875
3284.14448	344.9875
3286.40168	384.4875
3288.65753	381.4875
3290.91202	395.6875
3293.16516	397.7875
3295.41695	434.2875
3297.66738	446.1875
3299.91647	438.8875
3302.16421	457.3875
3304.4106	428.4875
3306.65564	463.7875
3308.89933	443.7875
3311.14169	456.0875
3313.38269	459.3875
3315.62236	452.1875
3317.86068	461.4875
3320.09766	472.6875
3322.3333	458.2875
3324.5676	472.4875
3326.80056	470.8875
3329.03219	489.6875
3331.26248	-0.7125
3333.49143	-1.7125
3335.71905	0.6875
