Data from AgNPs_UA_5uM_CRN_500uM_SU_RamanShift__29__11-34-13-146.txt Node

Date: Thu Aug 04 11:34:13 BST 2022
User: TCL
Spectrometer: QEP01345
Trigger mode: 4
Integration Time (sec): 1.000000E0
Scans to average: 10
Electric dark correction enabled: true
Nonlinearity correction enabled: false
Boxcar width: 0
XAxis mode: Raman Shifts
Number of Pixels in Spectrum: 1044
>>>>>Begin Spectral Data<<<<<
46.04893	-0.9
50.45542	0.7
54.85868	1.3
59.25871	-0.8
63.6555	-53.8
68.04907	-35.5
72.43941	-67.7
76.82654	-51.5
81.21044	-51.6
85.59113	-45.5
89.96862	-69.9
94.34289	-49.8
98.71396	-70.4
103.08183	-52.5
107.4465	-43.6
111.80798	-49.5
116.16626	-35.7
120.52136	-63.3
124.87327	-40.1
129.222	-50.4
133.56755	-36.8
137.90993	-47.2
142.24913	-30.8
146.58517	-19.7
150.91804	-9.2
155.24774	8.1
159.57429	40.8
163.89768	64
168.21792	136.1
172.53501	202.1
176.84895	343.8
181.15975	560.1
185.46741	833.4
189.77193	1171.2
194.07331	1668.2
198.37157	2177.6
202.6667	2718.2
206.9587	3309.4
211.24758	3939.2
215.53334	4627.3
219.81599	5443
224.09553	6396
228.37195	7359
232.64527	8272.7
236.91549	9023.7
241.18261	9397.9
245.44663	9528.7
249.70755	9480.6
253.96539	9486.7
258.22014	9537.2
262.4718	9673.8
266.72039	9633.4
270.96589	9403.4
275.20832	8995.7
279.44768	8591.3
283.68397	8300
287.91719	8213
292.14735	8424
296.37445	9048.3
300.59849	10198.2
304.81948	11724
309.03742	13493.9
313.25231	14822.7
317.46415	14619.5
321.67296	12813.5
325.87872	10690.1
330.08145	9498.2
334.28114	9223.9
338.47781	9566.4
342.67145	10254
346.86207	11392
351.04966	13028.2
355.23424	14656.3
359.4158	15234.6
363.59435	14659.9
367.76989	13658.8
371.94243	12685.4
376.11196	11864.9
380.27849	11275.4
384.44203	10810.2
388.60257	10528.2
392.76012	10593.6
396.91468	10931.9
401.06626	11385.2
405.21485	11412.9
409.36047	10650
413.50311	9350.6
417.64277	8159.8
421.77947	7416.5
425.9132	7073.9
430.04396	6915.1
434.17176	6878.7
438.2966	7023.3
442.41849	7262
446.53742	7510.9
450.6534	7682.2
454.76644	7657.6
458.87653	7501
462.98368	7343.9
467.08789	7168.1
471.18916	6904.9
475.2875	6554.2
479.38291	6250.2
483.4754	6071.8
487.56496	6007.3
491.6516	5904.2
495.73531	5907.7
499.81612	5981.2
503.89401	6162
507.96899	6396.2
512.04106	6700.9
516.11023	7027.6
520.1765	7278.2
524.23987	7398.8
528.30034	7368.6
532.35792	7196.5
536.41261	7024.6
540.46441	6791.1
544.51333	6608.2
548.55936	6594
552.60252	6776
556.64279	7044.9
560.6802	7560.7
564.71473	8733.1
568.7464	10250.1
572.7752	10191.2
576.80114	8260.8
580.82422	6669.3
584.84444	6002.9
588.86181	5809.2
592.87633	5779.6
596.888	6026.3
600.89682	6949.4
604.9028	10078.1
608.90594	18114.5
612.90624	27801.1
616.90371	25066.6
620.89834	13087.5
624.89015	7859.7
628.87913	7316.3
632.86528	8066.5
636.84862	8337.8
640.82913	7357.5
644.80683	6087.2
648.78172	5535.9
652.75379	5746.8
656.72306	6664.6
660.68952	7586.8
664.65319	7054.7
668.61405	5854.7
672.57211	5334.6
676.52738	5317.5
680.47986	5270.2
684.42955	5073.8
688.37646	4992.7
692.32058	5007.5
696.26192	5103.5
700.20048	5245.5
704.13626	5304.8
708.06928	5196.3
711.99952	5143
715.927	5212.4
719.85171	5492
723.77365	5666.5
727.69284	5473.2
731.60928	5297.5
735.52295	5230.3
739.43388	5320.2
743.34206	5387.1
747.24749	5360.4
751.15017	5400.9
755.05012	5807.5
758.94733	7410
762.8418	10940.4
766.73354	15501.6
770.62254	17809.6
774.50882	16878.2
778.39237	14992.4
782.27321	12231.7
786.15132	8845.1
790.02671	6640.6
793.89938	5654
797.76935	5314.5
801.6366	5139.2
805.50115	5064
809.36299	5002.6
813.22213	4964.9
817.07857	4975.6
820.93231	5016.2
824.78336	5152.1
828.63172	5297.1
832.47738	5342.5
836.32036	5230
840.16066	4957.9
843.99827	4794.1
847.8332	4742.1
851.66546	4743
855.49504	4713.6
859.32195	4707
863.1462	4643.7
866.96777	4658.4
870.78668	4623.4
874.60293	4673.4
878.41652	4778.2
882.22745	4957.3
886.03573	5052.5
889.84136	5012.9
893.64433	4972.1
897.44466	4988.8
901.24235	5010.9
905.0374	4905.6
908.8298	4702.6
912.61957	4572.2
916.40671	4454.4
920.19121	4525.3
923.97308	4774.6
927.75233	5267.9
931.52895	5760.3
935.30295	5465.5
939.07433	4755.8
942.84309	4305.8
946.60924	4136.8
950.37278	4056.8
954.13371	4063.5
957.89203	4045.2
961.64774	4064.6
965.40086	4025.2
969.15137	3993.6
972.89929	4016.4
976.64461	3973
980.38733	3974
984.12747	3956.9
987.86502	3978.8
991.59999	4006
995.33237	4099.7
999.06217	4228.6
1002.78939	4433
1006.51404	4808.8
1010.23611	4970
1013.95561	4779
1017.67255	4559.8
1021.38692	4356.7
1025.09872	4200.4
1028.80796	4089.6
1032.51465	4167.4
1036.21877	4173.3
1039.92035	4297.7
1043.61937	4355.7
1047.31584	4458
1051.00976	4461.8
1054.70114	4378.7
1058.38998	4319.8
1062.07627	4294.1
1065.76003	4295.5
1069.44126	4351.4
1073.11995	4480
1076.79611	4782.5
1080.46974	5401.5
1084.14085	6238.4
1087.80943	6942.8
1091.47549	6863.1
1095.13903	6156.8
1098.80005	5418
1102.45857	5023.4
1106.11456	4970.7
1109.76805	5127.8
1113.41903	5612
1117.06751	6377.3
1120.71348	7635.2
1124.35696	9449.7
1127.99793	10681
1131.63641	9686.8
1135.2724	7799.6
1138.90589	6495.2
1142.5369	5791.8
1146.16542	5341.6
1149.79145	5052.4
1153.415	4973.4
1157.03607	5068.2
1160.65467	5332.4
1164.27079	5827.7
1167.88443	6518
1171.49561	7716.8
1175.10432	9758.4
1178.71056	12527.4
1182.31434	14379.6
1185.91565	14022.7
1189.51451	12214.8
1193.11091	10349.6
1196.70485	9141.6
1200.29634	8667.6
1203.88538	8056.7
1207.47197	6922.9
1211.05612	5870.5
1214.63782	5183.1
1218.21708	4872.7
1221.79391	4764.3
1225.36829	4737.3
1228.94024	4758.7
1232.50976	4732.4
1236.07685	4749.5
1239.6415	4835.9
1243.20374	4970.1
1246.76355	5171.2
1250.32093	5437.7
1253.8759	5791.7
1257.42845	6406.1
1260.97859	7222.7
1264.52631	7965.9
1268.07163	8296.8
1271.61453	8267
1275.15503	7969.1
1278.69312	7652.4
1282.22882	7916.9
1285.76211	8957.9
1289.29301	10404.5
1292.82151	11363.3
1296.34761	11735.5
1299.87133	12675.1
1303.39266	15112.4
1306.9116	19691.8
1310.42815	25268.2
1313.94233	27422.7
1317.45412	23316.8
1320.96354	17025.9
1324.47058	12220.2
1327.97525	9348.3
1331.47754	7910.7
1334.97747	7453.7
1338.47502	7647.7
1341.97022	8769.6
1345.46305	11194.6
1348.95352	14659.7
1352.44163	18221.4
1355.92738	22811.7
1359.41078	30764.2
1362.89183	38953.4
1366.37053	36730.5
1369.84688	25053.7
1373.32088	15617
1376.79254	11544.7
1380.26186	9693
1383.72883	8258.2
1387.19347	6996.2
1390.65578	6006.7
1394.11575	5496.2
1397.57339	5236.6
1401.0287	5045.7
1404.48168	4874.4
1407.93234	4772.3
1411.38068	4880.4
1414.82669	5318.2
1418.27039	5813.1
1421.71177	5906.1
1425.15083	5679.2
1428.58758	5793.9
1432.02203	6452.4
1435.45416	6902.2
1438.88399	6594.7
1442.31151	6137
1445.73673	6049.2
1449.15965	5984.3
1452.58027	5824.5
1455.9986	5614.1
1459.41463	5412.6
1462.82837	5406.1
1466.23982	5696.9
1469.64898	6055.6
1473.05586	6166.7
1476.46045	6136.9
1479.86276	6173.4
1483.26279	6469.8
1486.66054	7196.7
1490.05602	8290.2
1493.44922	10083.4
1496.84016	12875.2
1500.22882	17247.1
1503.61521	23345.4
1506.99934	31363.9
1510.38121	39425.1
1513.76081	43017
1517.13816	38389.4
1520.51324	28804.7
1523.88607	19818.8
1527.25665	14001.6
1530.62498	10670.7
1533.99105	8743.2
1537.35488	7511.9
1540.71647	6814.9
1544.07581	6529.4
1547.4329	6524.7
1550.78776	6712.6
1554.14038	7075.9
1557.49077	7711.3
1560.83892	8846
1564.18484	10563.8
1567.52853	12412.1
1570.86999	13412.4
1574.20922	13460.2
1577.54624	12623.4
1580.88103	10511.3
1584.2136	7990.9
1587.54395	6506.2
1590.87208	6148.1
1594.19801	6641.4
1597.52172	7441
1600.84321	7486.1
1604.16251	6613.8
1607.47959	5742.1
1610.79447	5232.3
1614.10715	4824.6
1617.41763	4551.9
1620.7259	4434.8
1624.03199	4491.5
1627.33587	4730.1
1630.63757	5179.7
1633.93707	5995
1637.23439	7438.2
1640.52951	10115.7
1643.82246	14660.6
1647.11321	20856.4
1650.40179	25708.7
1653.68819	25205.2
1656.97241	19465.3
1660.25446	12886.4
1663.53433	8474.7
1666.81203	6091.5
1670.08756	4867.9
1673.36092	4216.5
1676.63211	3796.5
1679.90115	3534.8
1683.16801	3370.2
1686.43272	3218.8
1689.69527	3140.7
1692.95567	3055.4
1696.2139	3000.4
1699.46999	2926
1702.72392	2918.3
1705.97571	2922.1
1709.22535	2906.5
1712.47284	2958.1
1715.71819	2990.4
1718.96139	2987.1
1722.20246	2960.9
1725.44139	2881.3
1728.67818	2807
1731.91284	2719.3
1735.14537	2665.2
1738.37576	2612.6
1741.60403	2589.7
1744.83017	2562
1748.05418	2539.9
1751.27607	2510.7
1754.49584	2458.6
1757.71349	2394.3
1760.92903	2370.3
1764.14244	2294.6
1767.35375	2260.2
1770.56294	2210.7
1773.77002	2166
1776.97499	2144.6
1780.17785	2096.6
1783.37861	2071.7
1786.57727	2073.3
1789.77382	1990.3
1792.96828	2037.5
1796.16064	2043.5
1799.3509	2026.5
1802.53907	2028.2
1805.72514	1997.6
1808.90913	1978.5
1812.09102	1969.3
1815.27083	1964.8
1818.44856	1950.8
1821.6242	1941.3
1824.79776	1926.3
1827.96924	1909.5
1831.13864	1879.8
1834.30597	1879.2
1837.47122	1838.8
1840.6344	1818.7
1843.7955	1783.9
1846.95454	1766.2
1850.11151	1777.4
1853.26642	1728.8
1856.41926	1743.2
1859.57004	1748.4
1862.71876	1760.1
1865.86542	1770.9
1869.01003	1778
1872.15258	1757.2
1875.29308	1780.7
1878.43152	1785.1
1881.56792	1758.9
1884.70227	1741.8
1887.83457	1745
1890.96482	1709.2
1894.09304	1708.5
1897.21921	1701.1
1900.34335	1712.8
1903.46544	1685.6
1906.58551	1701.9
1909.70353	1691.3
1912.81953	1691.6
1915.93349	1678.3
1919.04543	1664.6
1922.15534	1638.7
1925.26322	1631.1
1928.36908	1610.1
1931.47292	1594.8
1934.57473	1583.7
1937.67453	1526.3
1940.77232	1491.5
1943.86808	1487.1
1946.96184	1483.6
1950.05358	1462.7
1953.14331	1460.7
1956.23103	1470.4
1959.31675	1464.1
1962.40046	1432.5
1965.48217	1484.5
1968.56188	1497.8
1971.63959	1516.3
1974.7153	1520.9
1977.78901	1517.6
1980.86073	1476.5
1983.93046	1418.3
1986.99819	1336
1990.06394	1348.6
1993.1277	1369.7
1996.18947	1340.2
1999.24925	1320.6
2002.30706	1318.1
2005.36288	1311.4
2008.41672	1295.4
2011.46859	1275.7
2014.51848	1264
2017.56639	1255
2020.61233	1246.8
2023.6563	1255.2
2026.6983	1217.1
2029.73833	1217.5
2032.7764	1239
2035.8125	1192
2038.84664	1201.3
2041.87881	1190.9
2044.90903	1214.9
2047.93729	1203
2050.96359	1175.7
2053.98794	1183.8
2057.01034	1177.9
2060.03078	1148.7
2063.04927	1131.2
2066.06582	1123.7
2069.08042	1111.2
2072.09307	1116.3
2075.10378	1111.3
2078.11255	1113.6
2081.11938	1106.8
2084.12426	1104
2087.12722	1097.7
2090.12824	1091.8
2093.12732	1107.4
2096.12447	1110.2
2099.11969	1105
2102.11299	1091
2105.10435	1117.8
2108.09379	1105.8
2111.08131	1095.9
2114.0669	1116.8
2117.05057	1125.3
2120.03233	1121.3
2123.01216	1159.6
2125.99008	1185.4
2128.96609	1181.1
2131.94018	1198.1
2134.91236	1157.2
2137.88263	1131.1
2140.851	1123.3
2143.81746	1117.3
2146.78201	1091.9
2149.74466	1054.8
2152.7054	1069.9
2155.66425	1041.5
2158.6212	1025.4
2161.57625	1002.6
2164.52941	979.5
2167.48067	1005
2170.43004	994.4
2173.37752	1035.2
2176.32311	1023.6
2179.26681	1033.6
2182.20863	1044.8
2185.14856	1039.3
2188.08661	1032.7
2191.02278	1026.3
2193.95707	992.3
2196.88948	974.8
2199.82001	983.5
2202.74867	957.6
2205.67545	968.7
2208.60037	989.3
2211.52341	974.9
2214.44458	965.9
2217.36388	961.7
2220.28132	951
2223.1969	937
2226.11061	943
2229.02246	933.8
2231.93245	936.6
2234.84058	916.4
2237.74686	916.4
2240.65128	916
2243.55385	923
2246.45456	906.5
2249.35343	942.6
2252.25044	959.9
2255.14561	981
2258.03893	1013.1
2260.93041	1038.2
2263.82004	1051.5
2266.70783	1057.2
2269.59378	1037.4
2272.4779	1019.4
2275.36017	1038.5
2278.24061	1015.1
2281.11922	988.3
2283.996	1001.7
2286.87094	967.7
2289.74405	962.7
2292.61534	947.1
2295.4848	930.1
2298.35243	916.4
2301.21824	906.7
2304.08223	900
2306.94439	906.8
2309.80474	909.4
2312.66327	902.9
2315.51999	895.3
2318.37489	887.5
2321.22797	872.3
2324.07925	876.4
2326.92871	872.7
2329.77637	861.1
2332.62222	875
2335.46626	853
2338.3085	858.6
2341.14893	877.7
2343.98756	908.9
2346.8244	886
2349.65943	895
2352.49267	906.7
2355.32411	918.5
2358.15376	933.2
2360.98161	960.2
2363.80768	954.5
2366.63195	988.8
2369.45444	1007.5
2372.27514	1001.2
2375.09405	1015.7
2377.91118	971.4
2380.72652	966
2383.54009	957.8
2386.35187	954.1
2389.16188	918.1
2391.97011	907.5
2394.77657	894.6
2397.58125	884.8
2400.38416	871.7
2403.18529	858
2405.98466	835.3
2408.78226	847.3
2411.57809	837
2414.37216	836.5
2417.16446	841.2
2419.955	817.8
2422.74378	844.2
2425.5308	836.4
2428.31606	851
2431.09956	857.2
2433.88131	853.4
2436.6613	874.3
2439.43954	872.8
2442.21603	872.7
2444.99077	875.4
2447.76377	900.6
2450.53501	899.8
2453.30451	900.2
2456.07226	914
2458.83827	905.8
2461.60254	868.5
2464.36507	902
2467.12586	880.6
2469.88492	893.6
2472.64224	903.8
2475.39782	895
2478.15167	916.9
2480.90379	928.7
2483.65417	971.5
2486.40283	994.2
2489.14976	1007.1
2491.89497	1000.5
2494.63845	999.8
2497.3802	992.3
2500.12024	985
2502.85855	964.3
2505.59514	944.3
2508.33002	923.6
2511.06318	877.7
2513.79462	856.5
2516.52435	805.1
2519.25237	767.3
2521.97867	774.6
2524.70327	756.5
2527.42616	743.3
2530.14734	754.5
2532.86681	737
2535.58458	735.2
2538.30065	741.6
2541.01501	761.5
2543.72768	753.9
2546.43864	764.6
2549.14791	770.7
2551.85548	770.2
2554.56136	772.2
2557.26554	793.3
2559.96803	788.8
2562.66883	800.2
2565.36794	783.3
2568.06536	766.2
2570.7611	803
2573.45514	786.9
2576.14751	781.2
2578.83819	773.9
2581.52719	760.7
2584.21451	762
2586.90015	739
2589.58411	723.9
2592.2664	742.9
2594.94701	743.1
2597.62594	742.3
2600.30321	691.3
2602.9788	719.2
2605.65273	717.4
2608.32498	730.1
2610.99557	750
2613.66449	728
2616.33175	750.7
2618.99734	750.5
2621.66128	757.7
2624.32355	745.8
2626.98416	726.5
2629.64311	715.7
2632.30041	707.6
2634.95605	686.2
2637.61004	670.4
2640.26238	654.2
2642.91306	653.2
2645.56209	675.7
2648.20948	662.2
2650.85521	651.2
2653.4993	674.9
2656.14175	675.2
2658.78255	670.9
2661.42171	650.5
2664.05923	696
2666.6951	713.2
2669.32934	722.4
2671.96194	738.6
2674.59291	730.3
2677.22224	733.5
2679.84993	727.6
2682.476	712.7
2685.10043	704.2
2687.72324	693.4
2690.34441	692
2692.96396	688.5
2695.58188	699.3
2698.19818	684.6
2700.81285	664.4
2703.4259	666.4
2706.03733	638.7
2708.64714	653.5
2711.25533	683.9
2713.86191	693.6
2716.46687	686.5
2719.07021	690.9
2721.67194	689.9
2724.27206	701.6
2726.87057	678.7
2729.46747	668.1
2732.06276	662.4
2734.65644	643.1
2737.24852	641.8
2739.83899	624.5
2742.42786	629.8
2745.01513	637.8
2747.60079	609.4
2750.18486	597.6
2752.76733	598.6
2755.3482	591.3
2757.92747	583.7
2760.50515	563.4
2763.08123	564.6
2765.65573	562.2
2768.22863	556.4
2770.79994	552.3
2773.36967	550.9
2775.9378	552.3
2778.50435	552.6
2781.06932	557.1
2783.6327	549.7
2786.1945	572.2
2788.75471	566
2791.31335	571.2
2793.87041	572
2796.42589	574.5
2798.97979	569.8
2801.53212	602.5
2804.08288	620.3
2806.63206	615.3
2809.17967	607.4
2811.72571	649.8
2814.27018	662.7
2816.81308	674.3
2819.35442	660.2
2821.89419	702.5
2824.43239	700.6
2826.96904	731.6
2829.50412	706.4
2832.03763	710.7
2834.56959	703.6
2837.1	687.1
2839.62884	681.3
2842.15613	665.8
2844.68186	677.1
2847.20604	654.2
2849.72867	667.8
2852.24974	687.3
2854.76927	667.2
2857.28724	644.2
2859.80367	725.3
2862.31855	747.2
2864.83189	755.7
2867.34368	781.8
2869.85393	806.7
2872.36264	791.1
2874.8698	804.1
2877.37543	812.3
2879.87952	783.1
2882.38207	754.2
2884.88308	751.1
2887.38256	740.7
2889.88051	723.7
2892.37692	712.8
2894.8718	690.6
2897.36515	706.6
2899.85698	713.1
2902.34727	708.3
2904.83604	730.2
2907.32328	752.3
2909.809	774.6
2912.29319	779.8
2914.77587	804.4
2917.25702	802.6
2919.73665	797.7
2922.21476	780.1
2924.69136	761.4
2927.16644	726.3
2929.64	702.6
2932.11205	679.6
2934.58258	683.9
2937.05161	666.9
2939.51912	672.6
2941.98513	686.4
2944.44962	676.4
2946.91261	649
2949.37409	673.6
2951.83407	662.6
2954.29254	672.9
2956.74951	675.3
2959.20498	666.6
2961.65895	671.4
2964.11142	663.6
2966.56239	657.5
2969.01186	659.6
2971.45984	647.5
2973.90632	637.3
2976.35131	661
2978.7948	654.6
2981.23681	648.3
2983.67732	659
2986.11635	663.2
2988.55388	641.4
2990.98993	659.4
2993.4245	653
2995.85758	649.2
2998.28917	657.1
3000.71928	652.8
3003.14791	658.3
3005.57506	658.5
3008.00073	645.1
3010.42493	588.5
3012.84764	639.4
3015.26888	645.4
3017.68865	638.9
3020.10694	593.1
3022.52376	620.7
3024.9391	611.4
3027.35298	596.9
3029.76539	576.7
3032.17632	575.4
3034.5858	558
3036.9938	553.4
3039.40034	534.1
3041.80542	515.9
3044.20903	491.5
3046.61118	483
3049.01187	491.4
3051.4111	482.2
3053.80888	479.1
3056.20519	477
3058.60005	458.8
3060.99345	490
3063.3854	462.9
3065.7759	453.9
3068.16494	450.7
3070.55254	440.2
3072.93868	454.9
3075.32338	447.8
3077.70662	439.9
3080.08842	438
3082.46878	422.9
3084.84769	446.5
3087.22515	421.7
3089.60118	431.1
3091.97576	414.8
3094.3489	427.8
3096.72061	419.6
3099.09087	403.8
3101.4597	413.4
3103.82709	404.7
3106.19305	395.7
3108.55757	410.1
3110.92066	397.9
3113.28232	414.2
3115.64255	412.1
3118.00134	417.2
3120.35871	404.1
3122.71466	393.4
3125.06917	407.4
3127.42226	400.3
3129.77393	388.3
3132.12417	409.7
3134.47299	421.7
3136.82039	396.7
3139.16636	380.7
3141.51092	406.8
3143.85406	409.7
3146.19579	397.7
3148.53609	398.7
3150.87499	411.9
3153.21246	404.5
3155.54853	414.1
3157.88318	417.9
3160.21642	419.6
3162.54826	414.5
3164.87868	413.7
3167.2077	378.3
3169.5353	400.8
3171.86151	398.8
3174.18631	384.9
3176.5097	377.6
3178.83169	368.4
3181.15228	367.3
3183.47147	337.8
3185.78926	327
3188.10565	338
3190.42065	320.5
3192.73424	331.8
3195.04645	323.9
3197.35725	318.9
3199.66667	333.8
3201.97469	333.3
3204.28132	325.6
3206.58656	343.8
3208.8904	350.6
3211.19287	352.6
3213.49394	338.4
3215.79363	342.2
3218.09193	358.9
3220.38884	349.2
3222.68438	350.5
3224.97853	332.1
3227.2713	350.7
3229.56269	339.4
3231.8527	336.8
3234.14133	328
3236.42858	326.9
3238.71446	306.7
3240.99896	327.1
3243.28209	309.1
3245.56384	322.2
3247.84423	312.9
3250.12324	325.4
3252.40088	323.4
3254.67715	311.6
3256.95205	301.5
3259.22558	320.4
3261.49775	321.6
3263.76855	313.6
3266.03799	325.8
3268.30606	326.1
3270.57277	332.9
3272.83812	318.2
3275.10211	329
3277.36474	349.9
3279.62601	355.4
3281.88593	343.2
3284.14448	333.2
3286.40168	368.1
3288.65753	368.1
3290.91202	382.6
3293.16516	376.9
3295.41695	412.4
3297.66738	429.8
3299.91647	415.8
3302.16421	435.4
3304.4106	410.4
3306.65564	445.2
3308.89933	430.3
3311.14169	438.9
3313.38269	444
3315.62236	437.1
3317.86068	441
3320.09766	462.5
3322.3333	441
3324.5676	453.5
3326.80056	460.7
3329.03219	467.7
3331.26248	-1.2
3333.49143	-0.2
3335.71905	1
