Data from AgNPs_UA_10uM_CRN_500uM_SU_RamanShift__157__13-31-30-285.txt Node

Date: Thu Aug 04 13:31:30 BST 2022
User: TCL
Spectrometer: QEP01345
Trigger mode: 4
Integration Time (sec): 1.000000E0
Scans to average: 10
Electric dark correction enabled: true
Nonlinearity correction enabled: false
Boxcar width: 0
XAxis mode: Raman Shifts
Number of Pixels in Spectrum: 1044
>>>>>Begin Spectral Data<<<<<
46.04893	0.9875
50.45542	-1.7125
54.85868	0.3875
59.25871	-0.4125
63.6555	13.4875
68.04907	13.5875
72.43941	12.1875
76.82654	14.1875
81.21044	16.4875
85.59113	16.2875
89.96862	16.8875
94.34289	17.7875
98.71396	17.1875
103.08183	20.3875
107.4465	19.0875
111.80798	18.5875
116.16626	19.5875
120.52136	22.0875
124.87327	22.8875
129.222	22.8875
133.56755	26.1875
137.90993	25.1875
142.24913	28.0875
146.58517	32.1875
150.91804	37.0875
155.24774	45.9875
159.57429	57.1875
163.89768	73.1875
168.21792	99.4875
172.53501	134.5875
176.84895	187.3875
181.15975	268.4875
185.46741	373.0875
189.77193	510.2875
194.07331	685.6875
198.37157	881.6875
202.6667	1081.6875
206.9587	1293.8875
211.24758	1489.1875
215.53334	1698.4875
219.81599	1917.2875
224.09553	2140.0875
228.37195	2414.9875
232.64527	2707.0875
236.91549	2994.9875
241.18261	3288.4875
245.44663	3524.4875
249.70755	3733.8875
253.96539	3922.0875
258.22014	4077.6875
262.4718	4224.7875
266.72039	4307.2875
270.96589	4358.0875
275.20832	4357.6875
279.44768	4312.2875
283.68397	4238.3875
287.91719	4199.7875
292.14735	4192.9875
296.37445	4239.9875
300.59849	4314.4875
304.81948	4413.6875
309.03742	4494.0875
313.25231	4523.9875
317.46415	4464.5875
321.67296	4349.5875
325.87872	4249.6875
330.08145	4205.2875
334.28114	4232.7875
338.47781	4281.8875
342.67145	4352.5875
346.86207	4469.1875
351.04966	4600.3875
355.23424	4753.0875
359.4158	4885.8875
363.59435	4958.7875
367.76989	5012.2875
371.94243	5040.6875
376.11196	5080.8875
380.27849	5109.3875
384.44203	5150.8875
388.60257	5165.2875
392.76012	5200.8875
396.91468	5293.0875
401.06626	5372.4875
405.21485	5466.5875
409.36047	5437.7875
413.50311	5319.7875
417.64277	5213.1875
421.77947	5141.8875
425.9132	5118.1875
430.04396	5179.8875
434.17176	5291.0875
438.2966	5462.5875
442.41849	5681.0875
446.53742	5943.9875
450.6534	6223.4875
454.76644	6362.8875
458.87653	6325.7875
462.98368	6187.9875
467.08789	5960.4875
471.18916	5739.1875
475.2875	5507.3875
479.38291	5334.1875
483.4754	5224.8875
487.56496	5134.3875
491.6516	5085.0875
495.73531	5035.3875
499.81612	5064.3875
503.89401	5076.1875
507.96899	5105.9875
512.04106	5125.3875
516.11023	5163.7875
520.1765	5221.4875
524.23987	5273.5875
528.30034	5294.3875
532.35792	5278.8875
536.41261	5222.7875
540.46441	5130.8875
544.51333	5118.4875
548.55936	5182.8875
552.60252	5229.3875
556.64279	5318.7875
560.6802	5312.6875
564.71473	5296.9875
568.7464	5324.9875
572.7752	5318.6875
576.80114	5297.1875
580.82422	5323.1875
584.84444	5433.9875
588.86181	5656.6875
592.87633	5901.7875
596.888	6057.2875
600.89682	6231.4875
604.9028	6733.2875
608.90594	7758.2875
612.90624	8546.6875
616.90371	7782.5875
620.89834	6322.3875
624.89015	5777.1875
628.87913	5695.4875
632.86528	5639.1875
636.84862	5541.1875
640.82913	5394.2875
644.80683	5221.6875
648.78172	5138.5875
652.75379	5188.9875
656.72306	5352.4875
660.68952	5527.8875
664.65319	5466.7875
668.61405	5387.6875
672.57211	5398.4875
676.52738	5385.3875
680.47986	5304.5875
684.42955	5234.6875
688.37646	5240.2875
692.32058	5286.6875
696.26192	5374.8875
700.20048	5465.0875
704.13626	5484.7875
708.06928	5385.9875
711.99952	5328.3875
715.927	5336.5875
719.85171	5379.7875
723.77365	5370.0875
727.69284	5290.8875
731.60928	5267.6875
735.52295	5308.3875
739.43388	5353.0875
743.34206	5393.8875
747.24749	5419.6875
751.15017	5440.8875
755.05012	5517.8875
758.94733	5707.0875
762.8418	6081.9875
766.73354	6610.8875
770.62254	7120.4875
774.50882	7330.1875
778.39237	7065.0875
782.27321	6488.5875
786.15132	5949.9875
790.02671	5627.8875
793.89938	5473.5875
797.76935	5433.6875
801.6366	5365.6875
805.50115	5356.8875
809.36299	5316.7875
813.22213	5319.3875
817.07857	5301.0875
820.93231	5286.9875
824.78336	5286.2875
828.63172	5304.9875
832.47738	5332.6875
836.32036	5339.8875
840.16066	5354.7875
843.99827	5359.9875
847.8332	5350.0875
851.66546	5337.9875
855.49504	5331.6875
859.32195	5339.4875
863.1462	5312.1875
866.96777	5293.6875
870.78668	5317.8875
874.60293	5316.6875
878.41652	5337.3875
882.22745	5401.2875
886.03573	5401.4875
889.84136	5406.9875
893.64433	5359.2875
897.44466	5343.4875
901.24235	5334.1875
905.0374	5324.3875
908.8298	5318.9875
912.61957	5317.7875
916.40671	5360.7875
920.19121	5395.4875
923.97308	5449.9875
927.75233	5490.4875
931.52895	5515.0875
935.30295	5476.5875
939.07433	5355.5875
942.84309	5315.1875
946.60924	5297.1875
950.37278	5278.0875
954.13371	5229.8875
957.89203	5225.0875
961.64774	5217.6875
965.40086	5190.9875
969.15137	5170.7875
972.89929	5195.6875
976.64461	5183.7875
980.38733	5209.7875
984.12747	5257.5875
987.86502	5298.7875
991.59999	5344.3875
995.33237	5489.5875
999.06217	5682.7875
1002.78939	5893.7875
1006.51404	6009.5875
1010.23611	6068.5875
1013.95561	6186.5875
1017.67255	6240.6875
1021.38692	6181.1875
1025.09872	6085.6875
1028.80796	6096.8875
1032.51465	6200.6875
1036.21877	6280.3875
1039.92035	6273.4875
1043.61937	6187.8875
1047.31584	6082.6875
1051.00976	5961.3875
1054.70114	5896.4875
1058.38998	5899.7875
1062.07627	5901.7875
1065.76003	5940.8875
1069.44126	5988.9875
1073.11995	6051.1875
1076.79611	6116.4875
1080.46974	6163.5875
1084.14085	6228.3875
1087.80943	6273.8875
1091.47549	6272.2875
1095.13903	6188.1875
1098.80005	6075.4875
1102.45857	6023.6875
1106.11456	6000.6875
1109.76805	6029.4875
1113.41903	6106.7875
1117.06751	6198.7875
1120.71348	6341.0875
1124.35696	6462.4875
1127.99793	6537.8875
1131.63641	6472.7875
1135.2724	6335.0875
1138.90589	6193.2875
1142.5369	6099.7875
1146.16542	6042.7875
1149.79145	5994.1875
1153.415	6011.9875
1157.03607	6059.7875
1160.65467	6140.7875
1164.27079	6330.8875
1167.88443	6582.2875
1171.49561	6989.3875
1175.10432	7541.8875
1178.71056	8286.1875
1182.31434	9015.2875
1185.91565	9496.1875
1189.51451	9625.7875
1193.11091	9359.5875
1196.70485	8844.4875
1200.29634	8308.2875
1203.88538	7817.8875
1207.47197	7422.7875
1211.05612	7127.0875
1214.63782	7003.9875
1218.21708	6982.2875
1221.79391	7024.5875
1225.36829	7044.2875
1228.94024	7058.4875
1232.50976	7031.8875
1236.07685	7078.0875
1239.6415	7159.9875
1243.20374	7189.7875
1246.76355	7187.1875
1250.32093	7259.4875
1253.8759	7386.9875
1257.42845	7668.8875
1260.97859	7891.2875
1264.52631	8135.5875
1268.07163	8281.0875
1271.61453	8403.7875
1275.15503	8497.1875
1278.69312	8596.2875
1282.22882	8773.3875
1285.76211	9001.9875
1289.29301	9241.1875
1292.82151	9517.9875
1296.34761	9764.2875
1299.87133	10051.1875
1303.39266	10518.2875
1306.9116	11166.7875
1310.42815	11858.3875
1313.94233	12165.0875
1317.45412	11984.7875
1320.96354	11617.6875
1324.47058	11206.8875
1327.97525	10995.4875
1331.47754	11112.7875
1334.97747	11315.9875
1338.47502	11530.3875
1341.97022	11678.5875
1345.46305	11799.2875
1348.95352	12092.1875
1352.44163	12528.3875
1355.92738	13148.0875
1359.41078	13780.8875
1362.89183	13972.2875
1366.37053	13236.8875
1369.84688	11828.5875
1373.32088	10548.6875
1376.79254	9768.0875
1380.26186	9432.7875
1383.72883	9203.1875
1387.19347	8923.0875
1390.65578	8556.5875
1394.11575	8271.3875
1397.57339	8116.0875
1401.0287	8175.8875
1404.48168	8378.7875
1407.93234	8673.1875
1411.38068	8960.6875
1414.82669	8982.1875
1418.27039	8845.8875
1421.71177	8689.6875
1425.15083	8651.0875
1428.58758	8773.0875
1432.02203	9013.7875
1435.45416	9127.7875
1438.88399	9124.0875
1442.31151	9044.8875
1445.73673	8952.9875
1449.15965	8865.7875
1452.58027	8729.8875
1455.9986	8577.4875
1459.41463	8533.9875
1462.82837	8602.5875
1466.23982	8810.6875
1469.64898	9026.9875
1473.05586	9215.7875
1476.46045	9353.0875
1479.86276	9493.6875
1483.26279	9512.2875
1486.66054	9569.5875
1490.05602	9684.4875
1493.44922	9856.7875
1496.84016	10132.1875
1500.22882	10525.1875
1503.61521	11032.4875
1506.99934	11518.7875
1510.38121	11686.7875
1513.76081	11441.8875
1517.13816	10752.0875
1520.51324	10045.0875
1523.88607	9585.5875
1527.25665	9416.5875
1530.62498	9407.3875
1533.99105	9449.0875
1537.35488	9475.8875
1540.71647	9466.5875
1544.07581	9376.4875
1547.4329	9212.8875
1550.78776	8959.1875
1554.14038	8700.7875
1557.49077	8494.1875
1560.83892	8418.9875
1564.18484	8445.2875
1567.52853	8508.8875
1570.86999	8561.3875
1574.20922	8535.6875
1577.54624	8478.5875
1580.88103	8240.7875
1584.2136	8061.3875
1587.54395	8106.8875
1590.87208	8503.8875
1594.19801	9237.8875
1597.52172	10157.0875
1600.84321	10784.2875
1604.16251	10788.9875
1607.47959	10144.6875
1610.79447	9248.0875
1614.10715	8369.1875
1617.41763	7672.8875
1620.7259	7280.7875
1624.03199	7086.2875
1627.33587	7076.1875
1630.63757	7268.8875
1633.93707	7678.4875
1637.23439	8363.0875
1640.52951	9278.5875
1643.82246	10238.0875
1647.11321	10840.7875
1650.40179	10600.6875
1653.68819	9574.3875
1656.97241	8288.2875
1660.25446	7245.2875
1663.53433	6566.5875
1666.81203	6161.1875
1670.08756	5902.9875
1673.36092	5738.0875
1676.63211	5644.3875
1679.90115	5536.6875
1683.16801	5483.0875
1686.43272	5414.5875
1689.69527	5384.5875
1692.95567	5343.7875
1696.2139	5337.4875
1699.46999	5305.0875
1702.72392	5317.3875
1705.97571	5289.3875
1709.22535	5307.0875
1712.47284	5298.7875
1715.71819	5300.1875
1718.96139	5271.0875
1722.20246	5261.9875
1725.44139	5257.6875
1728.67818	5222.9875
1731.91284	5201.2875
1735.14537	5171.9875
1738.37576	5136.9875
1741.60403	5143.5875
1744.83017	5117.3875
1748.05418	5113.2875
1751.27607	5088.4875
1754.49584	5101.9875
1757.71349	5075.3875
1760.92903	5096.8875
1764.14244	5069.3875
1767.35375	5059.5875
1770.56294	5036.5875
1773.77002	5048.8875
1776.97499	5030.0875
1780.17785	5013.1875
1783.37861	5026.1875
1786.57727	5012.5875
1789.77382	5024.5875
1792.96828	5022.5875
1796.16064	4997.6875
1799.3509	5008.9875
1802.53907	5015.8875
1805.72514	4993.3875
1808.90913	4977.4875
1812.09102	4972.4875
1815.27083	4940.3875
1818.44856	4928.4875
1821.6242	4936.0875
1824.79776	4929.6875
1827.96924	4909.2875
1831.13864	4923.8875
1834.30597	4896.9875
1837.47122	4880.5875
1840.6344	4873.9875
1843.7955	4888.8875
1846.95454	4889.2875
1850.11151	4894.5875
1853.26642	4882.1875
1856.41926	4906.7875
1859.57004	4900.9875
1862.71876	4877.1875
1865.86542	4882.1875
1869.01003	4883.1875
1872.15258	4869.1875
1875.29308	4889.7875
1878.43152	4870.1875
1881.56792	4884.2875
1884.70227	4850.1875
1887.83457	4840.0875
1890.96482	4852.5875
1894.09304	4845.0875
1897.21921	4854.9875
1900.34335	4844.6875
1903.46544	4851.8875
1906.58551	4857.7875
1909.70353	4838.4875
1912.81953	4849.8875
1915.93349	4830.9875
1919.04543	4822.3875
1922.15534	4813.8875
1925.26322	4824.0875
1928.36908	4808.6875
1931.47292	4779.7875
1934.57473	4779.7875
1937.67453	4785.1875
1940.77232	4771.8875
1943.86808	4761.3875
1946.96184	4748.0875
1950.05358	4752.3875
1953.14331	4723.5875
1956.23103	4711.1875
1959.31675	4688.8875
1962.40046	4679.7875
1965.48217	4663.9875
1968.56188	4632.1875
1971.63959	4629.9875
1974.7153	4622.7875
1977.78901	4619.1875
1980.86073	4625.0875
1983.93046	4601.8875
1986.99819	4573.7875
1990.06394	4566.6875
1993.1277	4556.0875
1996.18947	4523.7875
1999.24925	4521.7875
2002.30706	4508.7875
2005.36288	4492.9875
2008.41672	4474.5875
2011.46859	4465.6875
2014.51848	4453.5875
2017.56639	4443.0875
2020.61233	4422.9875
2023.6563	4421.3875
2026.6983	4420.8875
2029.73833	4406.1875
2032.7764	4390.2875
2035.8125	4371.3875
2038.84664	4375.4875
2041.87881	4372.3875
2044.90903	4366.7875
2047.93729	4351.6875
2050.96359	4353.5875
2053.98794	4331.7875
2057.01034	4351.1875
2060.03078	4349.5875
2063.04927	4332.4875
2066.06582	4320.9875
2069.08042	4327.7875
2072.09307	4325.3875
2075.10378	4310.6875
2078.11255	4313.4875
2081.11938	4311.4875
2084.12426	4297.8875
2087.12722	4292.4875
2090.12824	4297.9875
2093.12732	4298.1875
2096.12447	4293.2875
2099.11969	4306.8875
2102.11299	4305.8875
2105.10435	4296.2875
2108.09379	4288.3875
2111.08131	4303.7875
2114.0669	4304.6875
2117.05057	4312.7875
2120.03233	4325.1875
2123.01216	4315.0875
2125.99008	4299.2875
2128.96609	4305.0875
2131.94018	4318.4875
2134.91236	4304.6875
2137.88263	4292.4875
2140.851	4313.2875
2143.81746	4317.9875
2146.78201	4345.7875
2149.74466	4308.3875
2152.7054	4316.3875
2155.66425	4297.4875
2158.6212	4305.2875
2161.57625	4276.8875
2164.52941	4309.9875
2167.48067	4295.7875
2170.43004	4286.2875
2173.37752	4276.3875
2176.32311	4284.3875
2179.26681	4293.3875
2182.20863	4286.3875
2185.14856	4302.3875
2188.08661	4307.3875
2191.02278	4305.2875
2193.95707	4296.3875
2196.88948	4289.1875
2199.82001	4296.3875
2202.74867	4291.6875
2205.67545	4299.0875
2208.60037	4293.0875
2211.52341	4283.6875
2214.44458	4265.4875
2217.36388	4260.3875
2220.28132	4255.6875
2223.1969	4235.2875
2226.11061	4241.8875
2229.02246	4228.0875
2231.93245	4228.9875
2234.84058	4214.3875
2237.74686	4213.2875
2240.65128	4203.1875
2243.55385	4210.9875
2246.45456	4200.6875
2249.35343	4171.2875
2252.25044	4173.3875
2255.14561	4181.3875
2258.03893	4182.5875
2260.93041	4168.8875
2263.82004	4166.1875
2266.70783	4142.7875
2269.59378	4142.9875
2272.4779	4117.1875
2275.36017	4097.9875
2278.24061	4103.3875
2281.11922	4072.5875
2283.996	4071.3875
2286.87094	4077.1875
2289.74405	4076.7875
2292.61534	4064.7875
2295.4848	4050.6875
2298.35243	4059.5875
2301.21824	4050.8875
2304.08223	4052.2875
2306.94439	4046.8875
2309.80474	4055.8875
2312.66327	4059.2875
2315.51999	4049.1875
2318.37489	4044.4875
2321.22797	4061.4875
2324.07925	4032.3875
2326.92871	4040.9875
2329.77637	4038.4875
2332.62222	4021.9875
2335.46626	4035.7875
2338.3085	4023.9875
2341.14893	4036.5875
2343.98756	4028.5875
2346.8244	4029.4875
2349.65943	4026.7875
2352.49267	4036.7875
2355.32411	4019.1875
2358.15376	4034.2875
2360.98161	4021.4875
2363.80768	4017.6875
2366.63195	4013.9875
2369.45444	4006.5875
2372.27514	4013.4875
2375.09405	3982.8875
2377.91118	3989.9875
2380.72652	3970.1875
2383.54009	3962.6875
2386.35187	3945.9875
2389.16188	3956.6875
2391.97011	3945.0875
2394.77657	3935.1875
2397.58125	3912.7875
2400.38416	3927.7875
2403.18529	3913.7875
2405.98466	3920.6875
2408.78226	3894.7875
2411.57809	3891.9875
2414.37216	3874.5875
2417.16446	3869.5875
2419.955	3875.2875
2422.74378	3878.3875
2425.5308	3867.7875
2428.31606	3876.0875
2431.09956	3856.3875
2433.88131	3843.9875
2436.6613	3851.8875
2439.43954	3842.3875
2442.21603	3850.1875
2444.99077	3850.3875
2447.76377	3842.9875
2450.53501	3839.7875
2453.30451	3842.6875
2456.07226	3842.6875
2458.83827	3831.7875
2461.60254	3821.1875
2464.36507	3807.7875
2467.12586	3807.8875
2469.88492	3822.2875
2472.64224	3811.9875
2475.39782	3819.9875
2478.15167	3823.6875
2480.90379	3811.6875
2483.65417	3808.3875
2486.40283	3808.5875
2489.14976	3831.4875
2491.89497	3831.2875
2494.63845	3826.2875
2497.3802	3830.9875
2500.12024	3827.5875
2502.85855	3820.0875
2505.59514	3835.8875
2508.33002	3807.6875
2511.06318	3805.1875
2513.79462	3798.0875
2516.52435	3793.0875
2519.25237	3777.0875
2521.97867	3783.8875
2524.70327	3784.4875
2527.42616	3775.3875
2530.14734	3772.0875
2532.86681	3768.9875
2535.58458	3768.1875
2538.30065	3781.0875
2541.01501	3776.0875
2543.72768	3769.3875
2546.43864	3761.8875
2549.14791	3745.7875
2551.85548	3766.3875
2554.56136	3760.6875
2557.26554	3745.1875
2559.96803	3757.7875
2562.66883	3731.4875
2565.36794	3737.7875
2568.06536	3709.7875
2570.7611	3715.1875
2573.45514	3697.1875
2576.14751	3711.2875
2578.83819	3711.0875
2581.52719	3694.6875
2584.21451	3704.6875
2586.90015	3701.2875
2589.58411	3708.9875
2592.2664	3701.4875
2594.94701	3706.7875
2597.62594	3692.8875
2600.30321	3675.6875
2602.9788	3699.7875
2605.65273	3695.4875
2608.32498	3691.1875
2610.99557	3688.2875
2613.66449	3689.8875
2616.33175	3679.9875
2618.99734	3693.6875
2621.66128	3685.0875
2624.32355	3680.1875
2626.98416	3679.9875
2629.64311	3676.3875
2632.30041	3693.7875
2634.95605	3681.3875
2637.61004	3671.7875
2640.26238	3664.2875
2642.91306	3663.5875
2645.56209	3661.5875
2648.20948	3660.4875
2650.85521	3664.4875
2653.4993	3663.8875
2656.14175	3662.8875
2658.78255	3654.1875
2661.42171	3648.0875
2664.05923	3666.9875
2666.6951	3665.7875
2669.32934	3675.5875
2671.96194	3670.4875
2674.59291	3678.2875
2677.22224	3666.6875
2679.84993	3686.4875
2682.476	3669.2875
2685.10043	3674.8875
2687.72324	3661.5875
2690.34441	3673.3875
2692.96396	3679.9875
2695.58188	3670.4875
2698.19818	3679.6875
2700.81285	3651.6875
2703.4259	3655.9875
2706.03733	3665.7875
2708.64714	3647.3875
2711.25533	3649.1875
2713.86191	3645.0875
2716.46687	3660.5875
2719.07021	3667.9875
2721.67194	3661.8875
2724.27206	3668.2875
2726.87057	3652.8875
2729.46747	3671.7875
2732.06276	3664.5875
2734.65644	3669.0875
2737.24852	3666.5875
2739.83899	3655.6875
2742.42786	3670.5875
2745.01513	3641.5875
2747.60079	3638.8875
2750.18486	3649.6875
2752.76733	3641.3875
2755.3482	3640.6875
2757.92747	3640.3875
2760.50515	3634.5875
2763.08123	3640.1875
2765.65573	3634.7875
2768.22863	3630.5875
2770.79994	3625.2875
2773.36967	3624.2875
2775.9378	3637.5875
2778.50435	3623.3875
2781.06932	3619.9875
2783.6327	3617.9875
2786.1945	3617.6875
2788.75471	3630.8875
2791.31335	3612.4875
2793.87041	3624.8875
2796.42589	3597.6875
2798.97979	3597.7875
2801.53212	3575.0875
2804.08288	3579.9875
2806.63206	3573.0875
2809.17967	3574.7875
2811.72571	3567.8875
2814.27018	3549.7875
2816.81308	3555.4875
2819.35442	3552.4875
2821.89419	3538.4875
2824.43239	3530.6875
2826.96904	3541.9875
2829.50412	3551.5875
2832.03763	3516.1875
2834.56959	3526.5875
2837.1	3523.0875
2839.62884	3511.8875
2842.15613	3526.3875
2844.68186	3511.2875
2847.20604	3523.8875
2849.72867	3512.2875
2852.24974	3504.9875
2854.76927	3487.8875
2857.28724	3487.5875
2859.80367	3480.8875
2862.31855	3468.3875
2864.83189	3474.7875
2867.34368	3474.9875
2869.85393	3470.6875
2872.36264	3456.5875
2874.8698	3467.7875
2877.37543	3463.9875
2879.87952	3460.2875
2882.38207	3447.9875
2884.88308	3446.1875
2887.38256	3462.7875
2889.88051	3452.3875
2892.37692	3455.4875
2894.8718	3446.8875
2897.36515	3447.9875
2899.85698	3435.8875
2902.34727	3453.6875
2904.83604	3459.4875
2907.32328	3457.3875
2909.809	3441.5875
2912.29319	3452.4875
2914.77587	3457.9875
2917.25702	3448.8875
2919.73665	3445.7875
2922.21476	3443.5875
2924.69136	3440.8875
2927.16644	3437.4875
2929.64	3442.6875
2932.11205	3437.5875
2934.58258	3422.0875
2937.05161	3433.3875
2939.51912	3421.8875
2941.98513	3420.7875
2944.44962	3409.0875
2946.91261	3396.9875
2949.37409	3417.5875
2951.83407	3408.1875
2954.29254	3400.3875
2956.74951	3403.2875
2959.20498	3406.2875
2961.65895	3395.9875
2964.11142	3388.8875
2966.56239	3390.1875
2969.01186	3390.2875
2971.45984	3378.0875
2973.90632	3357.7875
2976.35131	3364.2875
2978.7948	3362.1875
2981.23681	3354.7875
2983.67732	3342.7875
2986.11635	3331.7875
2988.55388	3316.4875
2990.98993	3304.2875
2993.4245	3313.5875
2995.85758	3280.9875
2998.28917	3283.3875
3000.71928	3271.5875
3003.14791	3264.0875
3005.57506	3262.4875
3008.00073	3242.4875
3010.42493	3237.5875
3012.84764	3234.4875
3015.26888	3228.2875
3017.68865	3219.4875
3020.10694	3226.2875
3022.52376	3198.8875
3024.9391	3194.8875
3027.35298	3177.5875
3029.76539	3183.1875
3032.17632	3187.8875
3034.5858	3186.3875
3036.9938	3167.7875
3039.40034	3160.5875
3041.80542	3159.5875
3044.20903	3155.3875
3046.61118	3139.3875
3049.01187	3133.8875
3051.4111	3125.8875
3053.80888	3117.5875
3056.20519	3117.1875
3058.60005	3097.5875
3060.99345	3101.6875
3063.3854	3088.6875
3065.7759	3082.5875
3068.16494	3071.4875
3070.55254	3053.9875
3072.93868	3042.1875
3075.32338	3040.5875
3077.70662	3030.8875
3080.08842	3020.5875
3082.46878	3022.0875
3084.84769	3002.3875
3087.22515	2993.9875
3089.60118	3003.6875
3091.97576	3001.7875
3094.3489	2982.0875
3096.72061	3001.8875
3099.09087	2988.9875
3101.4597	2982.8875
3103.82709	2964.9875
3106.19305	2973.2875
3108.55757	2971.3875
3110.92066	2955.7875
3113.28232	2950.6875
3115.64255	2960.7875
3118.00134	2932.3875
3120.35871	2930.8875
3122.71466	2942.0875
3125.06917	2917.9875
3127.42226	2921.5875
3129.77393	2912.7875
3132.12417	2893.0875
3134.47299	2895.4875
3136.82039	2885.6875
3139.16636	2896.7875
3141.51092	2895.5875
3143.85406	2885.2875
3146.19579	2882.6875
3148.53609	2875.9875
3150.87499	2889.1875
3153.21246	2874.3875
3155.54853	2869.8875
3157.88318	2873.0875
3160.21642	2863.6875
3162.54826	2854.1875
3164.87868	2864.9875
3167.2077	2861.4875
3169.5353	2852.7875
3171.86151	2847.7875
3174.18631	2844.7875
3176.5097	2833.4875
3178.83169	2835.7875
3181.15228	2836.4875
3183.47147	2821.4875
3185.78926	2802.3875
3188.10565	2806.7875
3190.42065	2811.0875
3192.73424	2787.6875
3195.04645	2805.4875
3197.35725	2791.8875
3199.66667	2789.4875
3201.97469	2796.7875
3204.28132	2796.0875
3206.58656	2810.0875
3208.8904	2787.1875
3211.19287	2786.2875
3213.49394	2792.2875
3215.79363	2767.2875
3218.09193	2797.7875
3220.38884	2787.6875
3222.68438	2790.0875
3224.97853	2772.0875
3227.2713	2777.4875
3229.56269	2776.7875
3231.8527	2774.3875
3234.14133	2759.7875
3236.42858	2754.3875
3238.71446	2755.3875
3240.99896	2739.6875
3243.28209	2738.4875
3245.56384	2738.2875
3247.84423	2738.9875
3250.12324	2719.0875
3252.40088	2716.4875
3254.67715	2716.6875
3256.95205	2715.1875
3259.22558	2716.3875
3261.49775	2717.3875
3263.76855	2719.2875
3266.03799	2709.4875
3268.30606	2702.1875
3270.57277	2707.6875
3272.83812	2694.7875
3275.10211	2685.5875
3277.36474	2672.6875
3279.62601	2680.7875
3281.88593	2669.8875
3284.14448	2670.5875
3286.40168	2660.8875
3288.65753	2664.4875
3290.91202	2677.5875
3293.16516	2661.7875
3295.41695	2658.9875
3297.66738	2644.3875
3299.91647	2637.4875
3302.16421	2618.2875
3304.4106	2604.4875
3306.65564	2578.7875
3308.89933	2558.5875
3311.14169	2530.6875
3313.38269	2514.9875
3315.62236	2500.0875
3317.86068	2478.6875
3320.09766	2461.2875
3322.3333	2442.4875
3324.5676	2424.1875
3326.80056	2381.5875
3329.03219	2372.7875
3331.26248	0.4875
3333.49143	0.3875
3335.71905	-0.2125
