Data from AgNPs_UA_10uM_CRN_500uM_SU_RamanShift__130__13-27-00-279.txt Node

Date: Thu Aug 04 13:27:00 BST 2022
User: TCL
Spectrometer: QEP01345
Trigger mode: 4
Integration Time (sec): 1.000000E0
Scans to average: 10
Electric dark correction enabled: true
Nonlinearity correction enabled: false
Boxcar width: 0
XAxis mode: Raman Shifts
Number of Pixels in Spectrum: 1044
>>>>>Begin Spectral Data<<<<<
46.04893	-0.9
50.45542	-0.3
54.85868	0.6
59.25871	0.6
63.6555	20.9
68.04907	20.9
72.43941	20.9
76.82654	23.3
81.21044	23.8
85.59113	26.2
89.96862	25.6
94.34289	26.8
98.71396	28.4
103.08183	27.7
107.4465	28.8
111.80798	27.8
116.16626	30.6
120.52136	35.3
124.87327	35.4
129.222	37.2
133.56755	37.9
137.90993	43.6
142.24913	49.5
146.58517	53.2
150.91804	63.1
155.24774	78.2
159.57429	96.4
163.89768	126.4
168.21792	172
172.53501	235.5
176.84895	331.6
181.15975	468.5
185.46741	672
189.77193	923.8
194.07331	1253.4
198.37157	1604
202.6667	1984.2
206.9587	2364.8
211.24758	2742
215.53334	3110.4
219.81599	3521.7
224.09553	3982.4
228.37195	4483
232.64527	5033.9
236.91549	5562.7
241.18261	6034.6
245.44663	6434.1
249.70755	6774.1
253.96539	7049.1
258.22014	7311.8
262.4718	7543.5
266.72039	7669.2
270.96589	7748.7
275.20832	7718.2
279.44768	7605.5
283.68397	7475.6
287.91719	7383.3
292.14735	7395.6
296.37445	7515
300.59849	7725
304.81948	8007.3
309.03742	8243.2
313.25231	8358.2
317.46415	8240
321.67296	7952
325.87872	7658.1
330.08145	7507.8
334.28114	7524.4
338.47781	7609.2
342.67145	7717.6
346.86207	7966.5
351.04966	8246.7
355.23424	8582.4
359.4158	8812.1
363.59435	8922
367.76989	9010.4
371.94243	8989.2
376.11196	8968.6
380.27849	8961.8
384.44203	8997.3
388.60257	9021.9
392.76012	9092
396.91468	9228.9
401.06626	9359.1
405.21485	9399.9
409.36047	9300.1
413.50311	9010.9
417.64277	8742.4
421.77947	8598.3
425.9132	8519.5
430.04396	8528.2
434.17176	8590.7
438.2966	8718.4
442.41849	8931.7
446.53742	9165.3
450.6534	9389.7
454.76644	9516.1
458.87653	9579
462.98368	9509.5
467.08789	9388.2
471.18916	9223.8
475.2875	8986.5
479.38291	8810.7
483.4754	8699.8
487.56496	8586.7
491.6516	8543.4
495.73531	8542.2
499.81612	8581.1
503.89401	8623.8
507.96899	8699.7
512.04106	8729.3
516.11023	8818.2
520.1765	8870
524.23987	8888.5
528.30034	8882.9
532.35792	8859.7
536.41261	8763.5
540.46441	8643.8
544.51333	8610.5
548.55936	8699.2
552.60252	8831.8
556.64279	8976.1
560.6802	9099
564.71473	9177.5
568.7464	9276.5
572.7752	9277.4
576.80114	9107
580.82422	8959.7
584.84444	8945.6
588.86181	9020.9
592.87633	9178.5
596.888	9363
600.89682	9763.4
604.9028	10797.3
608.90594	12983
612.90624	15051.2
616.90371	13793.6
620.89834	10831.8
624.89015	9679.5
628.87913	9621.1
632.86528	9690.5
636.84862	9626.6
640.82913	9353.6
644.80683	8967.6
648.78172	8768.1
652.75379	8800.2
656.72306	9115.2
660.68952	9395.4
664.65319	9323.4
668.61405	9182.9
672.57211	9219.9
676.52738	9214.9
680.47986	9033.2
684.42955	8875.8
688.37646	8855.2
692.32058	8948
696.26192	9120.3
700.20048	9280.6
704.13626	9262.1
708.06928	9160
711.99952	9031
715.927	9044.6
719.85171	9127.7
723.77365	9138.9
727.69284	9043.1
731.60928	8964.6
735.52295	8980.2
739.43388	9029.7
743.34206	9068.7
747.24749	9113.1
751.15017	9133.4
755.05012	9262.5
758.94733	9604.9
762.8418	10414.1
766.73354	11569.8
770.62254	12559.4
774.50882	12721.6
778.39237	12216.4
782.27321	11267.7
786.15132	10343.2
790.02671	9701.4
793.89938	9383.6
797.76935	9229.4
801.6366	9155.5
805.50115	9117.8
809.36299	9085.8
813.22213	9055
817.07857	9038.1
820.93231	9017
824.78336	9020.1
828.63172	9057
832.47738	9073
836.32036	9071.5
840.16066	9110
843.99827	9102.5
847.8332	9098.4
851.66546	9088.5
855.49504	9089.2
859.32195	9103.5
863.1462	9059.4
866.96777	9048
870.78668	9051.2
874.60293	9077
878.41652	9140
882.22745	9202
886.03573	9234.8
889.84136	9252.9
893.64433	9211.3
897.44466	9163.9
901.24235	9134.2
905.0374	9100.8
908.8298	9087.5
912.61957	9053.1
916.40671	9116.6
920.19121	9185.1
923.97308	9272.1
927.75233	9382.3
931.52895	9476.1
935.30295	9368.3
939.07433	9201.7
942.84309	9096.7
946.60924	9053.7
950.37278	9028.2
954.13371	8976.9
957.89203	8957.2
961.64774	8930.2
965.40086	8914.5
969.15137	8875.7
972.89929	8904.6
976.64461	8897.2
980.38733	8906.2
984.12747	8981.5
987.86502	9016.4
991.59999	9125.2
995.33237	9256.2
999.06217	9489.4
1002.78939	9749.5
1006.51404	9902.6
1010.23611	10016.1
1013.95561	10080.6
1017.67255	10193.8
1021.38692	10165.3
1025.09872	10163
1028.80796	10250.6
1032.51465	10462.8
1036.21877	10638.6
1039.92035	10597.1
1043.61937	10468.1
1047.31584	10278.3
1051.00976	10078.1
1054.70114	9991.7
1058.38998	10009.9
1062.07627	10030.8
1065.76003	10003.3
1069.44126	10072.1
1073.11995	10200
1076.79611	10372.9
1080.46974	10513.2
1084.14085	10634.9
1087.80943	10714.5
1091.47549	10756.6
1095.13903	10639.4
1098.80005	10581.5
1102.45857	10526.1
1106.11456	10556.7
1109.76805	10493.3
1113.41903	10528.3
1117.06751	10713.7
1120.71348	10904
1124.35696	11099.9
1127.99793	11247.6
1131.63641	11084.8
1135.2724	10789.6
1138.90589	10527.9
1142.5369	10328.6
1146.16542	10191.5
1149.79145	10122.4
1153.415	10102.6
1157.03607	10113.9
1160.65467	10229.4
1164.27079	10465.9
1167.88443	10863.9
1171.49561	11464.4
1175.10432	12362.6
1178.71056	13486
1182.31434	14446.7
1185.91565	14836
1189.51451	14748
1193.11091	14305.9
1196.70485	13738.1
1200.29634	13217.5
1203.88538	12702.5
1207.47197	12220.4
1211.05612	11712.5
1214.63782	11390
1218.21708	11228.7
1221.79391	11230.1
1225.36829	11313.5
1228.94024	11269.6
1232.50976	11164.4
1236.07685	11068.6
1239.6415	11035
1243.20374	11102
1246.76355	11183.8
1250.32093	11340.3
1253.8759	11550.8
1257.42845	11883.8
1260.97859	12203.8
1264.52631	12532
1268.07163	12805
1271.61453	13040.8
1275.15503	13221.4
1278.69312	13389.6
1282.22882	13539.9
1285.76211	13708.8
1289.29301	13889.5
1292.82151	14110.8
1296.34761	14444.7
1299.87133	15002.7
1303.39266	15961.3
1306.9116	17355.4
1310.42815	18776.8
1313.94233	19495.6
1317.45412	18995.3
1320.96354	17864.5
1324.47058	16703.8
1327.97525	15711.4
1331.47754	15155.5
1334.97747	15024
1338.47502	15121.7
1341.97022	15589
1345.46305	16294.8
1348.95352	17258.7
1352.44163	18314
1355.92738	19535.5
1359.41078	21074.1
1362.89183	22158.6
1366.37053	21042.7
1369.84688	18278
1373.32088	15745
1376.79254	14293
1380.26186	13618.7
1383.72883	13254.8
1387.19347	12909.6
1390.65578	12514.3
1394.11575	12187.6
1397.57339	11991.5
1401.0287	11963.1
1404.48168	12020.5
1407.93234	12162.9
1411.38068	12312.8
1414.82669	12458.2
1418.27039	12469.2
1421.71177	12378.1
1425.15083	12299
1428.58758	12284.7
1432.02203	12433.8
1435.45416	12577.4
1438.88399	12576
1442.31151	12533.8
1445.73673	12470.6
1449.15965	12498.9
1452.58027	12395.4
1455.9986	12296
1459.41463	12283.3
1462.82837	12366
1466.23982	12584.8
1469.64898	12775.7
1473.05586	12953.6
1476.46045	13128.7
1479.86276	13265.8
1483.26279	13396.2
1486.66054	13606.7
1490.05602	13940.8
1493.44922	14437.9
1496.84016	15188
1500.22882	16255.1
1503.61521	17585.8
1506.99934	18951.9
1510.38121	19809.7
1513.76081	19575.2
1517.13816	18245.4
1520.51324	16500.6
1523.88607	15124.9
1527.25665	14283
1530.62498	13812.8
1533.99105	13610.2
1537.35488	13467.8
1540.71647	13333.6
1544.07581	13222.5
1547.4329	13105.4
1550.78776	12954.8
1554.14038	12836.4
1557.49077	12844.1
1560.83892	12970.8
1564.18484	13209.9
1567.52853	13442.1
1570.86999	13569.9
1574.20922	13557.7
1577.54624	13366.1
1580.88103	12873
1584.2136	12408.8
1587.54395	12244.7
1590.87208	12566.6
1594.19801	13234.1
1597.52172	14058.6
1600.84321	14442.9
1604.16251	14235.9
1607.47959	13724.1
1610.79447	13010.1
1614.10715	12237.5
1617.41763	11512.5
1620.7259	11025.6
1624.03199	10793.9
1627.33587	10815
1630.63757	11070.5
1633.93707	11633.9
1637.23439	12479.9
1640.52951	13644.7
1643.82246	15000.2
1647.11321	16143.2
1650.40179	16434.4
1653.68819	15337.9
1656.97241	13463.5
1660.25446	11778.4
1663.53433	10674.7
1666.81203	9997.7
1670.08756	9632.1
1673.36092	9374.5
1676.63211	9192.5
1679.90115	9067.3
1683.16801	8986.4
1686.43272	8892.2
1689.69527	8819.5
1692.95567	8778.7
1696.2139	8773.7
1699.46999	8743.8
1702.72392	8727.1
1705.97571	8708.9
1709.22535	8712.2
1712.47284	8717.7
1715.71819	8714.2
1718.96139	8702.6
1722.20246	8679.8
1725.44139	8647.6
1728.67818	8610.3
1731.91284	8563.4
1735.14537	8512.7
1738.37576	8489
1741.60403	8462.6
1744.83017	8435.4
1748.05418	8431.2
1751.27607	8393.9
1754.49584	8395.4
1757.71349	8402.1
1760.92903	8383
1764.14244	8365.3
1767.35375	8329
1770.56294	8316.7
1773.77002	8312.2
1776.97499	8280.5
1780.17785	8278.3
1783.37861	8260.6
1786.57727	8245.2
1789.77382	8244.8
1792.96828	8219.8
1796.16064	8200.1
1799.3509	8200.3
1802.53907	8200.8
1805.72514	8207.8
1808.90913	8153.3
1812.09102	8141.6
1815.27083	8132.9
1818.44856	8092
1821.6242	8063.6
1824.79776	8057.6
1827.96924	8070.2
1831.13864	8050.4
1834.30597	8014.4
1837.47122	8023.8
1840.6344	8003.3
1843.7955	8005.8
1846.95454	8011.1
1850.11151	8005.2
1853.26642	7991.2
1856.41926	7996.5
1859.57004	8001.6
1862.71876	7995.1
1865.86542	7974.8
1869.01003	7981.6
1872.15258	7985.6
1875.29308	7966.4
1878.43152	7958.1
1881.56792	7928.3
1884.70227	7921.1
1887.83457	7893.9
1890.96482	7915.8
1894.09304	7872.4
1897.21921	7885.5
1900.34335	7864.8
1903.46544	7842.3
1906.58551	7865.1
1909.70353	7859.2
1912.81953	7852.9
1915.93349	7849.5
1919.04543	7845.5
1922.15534	7811.5
1925.26322	7819.7
1928.36908	7802
1931.47292	7760.9
1934.57473	7751.3
1937.67453	7754.3
1940.77232	7734
1943.86808	7693.1
1946.96184	7656.5
1950.05358	7670
1953.14331	7649.1
1956.23103	7603.8
1959.31675	7589.1
1962.40046	7560.5
1965.48217	7552.2
1968.56188	7540.3
1971.63959	7502.6
1974.7153	7476.5
1977.78901	7479.2
1980.86073	7462.3
1983.93046	7437.6
1986.99819	7395.7
1990.06394	7396.3
1993.1277	7365.2
1996.18947	7334.7
1999.24925	7296.8
2002.30706	7284.6
2005.36288	7263.8
2008.41672	7227.1
2011.46859	7209.8
2014.51848	7193.1
2017.56639	7186.1
2020.61233	7164.6
2023.6563	7135.6
2026.6983	7142.7
2029.73833	7089
2032.7764	7101.3
2035.8125	7088.1
2038.84664	7064.9
2041.87881	7055.6
2044.90903	7024
2047.93729	7033.4
2050.96359	7029.6
2053.98794	7013.5
2057.01034	7000.8
2060.03078	6992
2063.04927	6993.7
2066.06582	6991.8
2069.08042	6968.3
2072.09307	6962.8
2075.10378	6956.9
2078.11255	6929.8
2081.11938	6937.1
2084.12426	6918.6
2087.12722	6923.8
2090.12824	6931.1
2093.12732	6931.7
2096.12447	6944.2
2099.11969	6936.5
2102.11299	6941.5
2105.10435	6930.8
2108.09379	6935.4
2111.08131	6926.1
2114.0669	6948.5
2117.05057	6944.2
2120.03233	6961.1
2123.01216	6958.7
2125.99008	6958.8
2128.96609	6960.4
2131.94018	6963.6
2134.91236	6961.8
2137.88263	6965.3
2140.851	6960.6
2143.81746	6980.5
2146.78201	6960
2149.74466	6962.8
2152.7054	6964.2
2155.66425	6967.6
2158.6212	6961.7
2161.57625	6952.3
2164.52941	6934.7
2167.48067	6944.6
2170.43004	6931.8
2173.37752	6938
2176.32311	6947.5
2179.26681	6929.9
2182.20863	6950.1
2185.14856	6952
2188.08661	6948.8
2191.02278	6984.4
2193.95707	6954.9
2196.88948	6935.8
2199.82001	6953.7
2202.74867	6943.6
2205.67545	6945.9
2208.60037	6961.4
2211.52341	6922.2
2214.44458	6904.1
2217.36388	6878.3
2220.28132	6873.9
2223.1969	6830.3
2226.11061	6837.5
2229.02246	6835.5
2231.93245	6826
2234.84058	6805.3
2237.74686	6793.8
2240.65128	6798
2243.55385	6791
2246.45456	6761.6
2249.35343	6748.8
2252.25044	6742.8
2255.14561	6751.2
2258.03893	6758.7
2260.93041	6748.2
2263.82004	6717.3
2266.70783	6725.9
2269.59378	6682.9
2272.4779	6656
2275.36017	6635.4
2278.24061	6645.3
2281.11922	6628.2
2283.996	6619.1
2286.87094	6597.5
2289.74405	6580
2292.61534	6581.8
2295.4848	6574.5
2298.35243	6575.4
2301.21824	6546.9
2304.08223	6549.2
2306.94439	6563.5
2309.80474	6566.2
2312.66327	6568
2315.51999	6565
2318.37489	6552.4
2321.22797	6539.9
2324.07925	6538.9
2326.92871	6519.4
2329.77637	6534.5
2332.62222	6521.6
2335.46626	6513.9
2338.3085	6519.1
2341.14893	6510.1
2343.98756	6513.7
2346.8244	6518.7
2349.65943	6518
2352.49267	6493.3
2355.32411	6499.1
2358.15376	6486.7
2360.98161	6501.6
2363.80768	6495.8
2366.63195	6473.1
2369.45444	6466.9
2372.27514	6463.5
2375.09405	6456.6
2377.91118	6431.9
2380.72652	6422.1
2383.54009	6383.1
2386.35187	6388.3
2389.16188	6376.6
2391.97011	6344.5
2394.77657	6336.2
2397.58125	6330.2
2400.38416	6319
2403.18529	6320.7
2405.98466	6299.8
2408.78226	6284
2411.57809	6263
2414.37216	6251.6
2417.16446	6256.2
2419.955	6234.8
2422.74378	6236.8
2425.5308	6233
2428.31606	6239.1
2431.09956	6242.9
2433.88131	6204.3
2436.6613	6215.4
2439.43954	6206.7
2442.21603	6202.2
2444.99077	6215.3
2447.76377	6206.2
2450.53501	6192.6
2453.30451	6198.5
2456.07226	6180.2
2458.83827	6172.2
2461.60254	6173.5
2464.36507	6156.5
2467.12586	6135
2469.88492	6157.9
2472.64224	6183.2
2475.39782	6153.4
2478.15167	6159.9
2480.90379	6154.4
2483.65417	6148.1
2486.40283	6152.7
2489.14976	6142.2
2491.89497	6167.1
2494.63845	6174.6
2497.3802	6125.4
2500.12024	6143.9
2502.85855	6125.1
2505.59514	6120.3
2508.33002	6133.5
2511.06318	6096.3
2513.79462	6087.5
2516.52435	6083
2519.25237	6070.2
2521.97867	6047.6
2524.70327	6068
2527.42616	6054.5
2530.14734	6038.9
2532.86681	6034.7
2535.58458	6049.8
2538.30065	6055.8
2541.01501	6045.6
2543.72768	6009.5
2546.43864	6031.1
2549.14791	6005.3
2551.85548	5997.7
2554.56136	6010.5
2557.26554	5988
2559.96803	5978.4
2562.66883	5990.6
2565.36794	5951.7
2568.06536	5932.8
2570.7611	5919.8
2573.45514	5917.3
2576.14751	5934.8
2578.83819	5904
2581.52719	5904.7
2584.21451	5907.3
2586.90015	5904.5
2589.58411	5878.6
2592.2664	5899.5
2594.94701	5874.3
2597.62594	5861.8
2600.30321	5869.4
2602.9788	5877.8
2605.65273	5865
2608.32498	5855.2
2610.99557	5843.3
2613.66449	5843
2616.33175	5857.4
2618.99734	5847.4
2621.66128	5847.7
2624.32355	5828.4
2626.98416	5833.6
2629.64311	5824.1
2632.30041	5830.6
2634.95605	5826.8
2637.61004	5806.8
2640.26238	5785.8
2642.91306	5775.2
2645.56209	5797.2
2648.20948	5774.2
2650.85521	5785
2653.4993	5773.8
2656.14175	5764.7
2658.78255	5752.4
2661.42171	5752
2664.05923	5761.2
2666.6951	5765
2669.32934	5774.9
2671.96194	5772.3
2674.59291	5775.3
2677.22224	5770.7
2679.84993	5778.1
2682.476	5772.5
2685.10043	5755.5
2687.72324	5757.3
2690.34441	5755.4
2692.96396	5746.7
2695.58188	5747.5
2698.19818	5738.4
2700.81285	5736.9
2703.4259	5725.8
2706.03733	5710.2
2708.64714	5685.8
2711.25533	5716.8
2713.86191	5715.4
2716.46687	5722.9
2719.07021	5718.4
2721.67194	5728.6
2724.27206	5711.4
2726.87057	5724.9
2729.46747	5745.5
2732.06276	5715.3
2734.65644	5721.3
2737.24852	5702.2
2739.83899	5685.2
2742.42786	5678.5
2745.01513	5671.3
2747.60079	5666
2750.18486	5658.8
2752.76733	5668.4
2755.3482	5661
2757.92747	5647.7
2760.50515	5631.4
2763.08123	5632.4
2765.65573	5619.6
2768.22863	5612.8
2770.79994	5614.3
2773.36967	5612.4
2775.9378	5604.1
2778.50435	5602.8
2781.06932	5612
2783.6327	5582.4
2786.1945	5608.7
2788.75471	5582.2
2791.31335	5567
2793.87041	5571.6
2796.42589	5527.2
2798.97979	5524.8
2801.53212	5514.9
2804.08288	5509.3
2806.63206	5499.2
2809.17967	5495.9
2811.72571	5490.2
2814.27018	5487.5
2816.81308	5470.8
2819.35442	5470.8
2821.89419	5463.6
2824.43239	5437
2826.96904	5439.4
2829.50412	5453.2
2832.03763	5416.7
2834.56959	5428.8
2837.1	5393.5
2839.62884	5407.1
2842.15613	5393.9
2844.68186	5393.1
2847.20604	5379.9
2849.72867	5373.8
2852.24974	5358.4
2854.76927	5348.4
2857.28724	5347.1
2859.80367	5326.7
2862.31855	5330.2
2864.83189	5320.5
2867.34368	5321.8
2869.85393	5323
2872.36264	5313.1
2874.8698	5311.8
2877.37543	5312.7
2879.87952	5327.4
2882.38207	5303
2884.88308	5306.4
2887.38256	5299.2
2889.88051	5308.3
2892.37692	5288
2894.8718	5286.7
2897.36515	5297
2899.85698	5292.3
2902.34727	5286.7
2904.83604	5308.5
2907.32328	5312.4
2909.809	5299
2912.29319	5313.2
2914.77587	5314.4
2917.25702	5320.6
2919.73665	5301.8
2922.21476	5318.5
2924.69136	5312
2927.16644	5285.1
2929.64	5284.9
2932.11205	5264.9
2934.58258	5239.4
2937.05161	5254.7
2939.51912	5246.9
2941.98513	5252.1
2944.44962	5243
2946.91261	5233.3
2949.37409	5229.6
2951.83407	5224.9
2954.29254	5231.8
2956.74951	5208.9
2959.20498	5210.6
2961.65895	5202.6
2964.11142	5222.5
2966.56239	5203.5
2969.01186	5198
2971.45984	5205.7
2973.90632	5197.8
2976.35131	5159.3
2978.7948	5175.2
2981.23681	5155.3
2983.67732	5151
2986.11635	5130.1
2988.55388	5126.8
2990.98993	5115.2
2993.4245	5105.6
2995.85758	5090.4
2998.28917	5058.6
3000.71928	5050.2
3003.14791	5040
3005.57506	5040.6
3008.00073	5014.3
3010.42493	5009.5
3012.84764	5001.3
3015.26888	4995.9
3017.68865	4990.9
3020.10694	4977.5
3022.52376	4962.7
3024.9391	4961.1
3027.35298	4923.6
3029.76539	4913.4
3032.17632	4911.9
3034.5858	4914.6
3036.9938	4906.3
3039.40034	4898.5
3041.80542	4880
3044.20903	4877.6
3046.61118	4872.1
3049.01187	4847
3051.4111	4852.4
3053.80888	4842.9
3056.20519	4823.7
3058.60005	4812.1
3060.99345	4800.1
3063.3854	4780.8
3065.7759	4777
3068.16494	4760.2
3070.55254	4734.6
3072.93868	4734.4
3075.32338	4719.6
3077.70662	4713.5
3080.08842	4703
3082.46878	4688.7
3084.84769	4679.4
3087.22515	4669
3089.60118	4670.1
3091.97576	4664.6
3094.3489	4658.6
3096.72061	4662.1
3099.09087	4664.3
3101.4597	4651.5
3103.82709	4664.8
3106.19305	4631.5
3108.55757	4638.7
3110.92066	4625.3
3113.28232	4623.5
3115.64255	4615.8
3118.00134	4600.9
3120.35871	4596.5
3122.71466	4584
3125.06917	4573.8
3127.42226	4553.7
3129.77393	4553.5
3132.12417	4546.7
3134.47299	4541.6
3136.82039	4535
3139.16636	4534.7
3141.51092	4542.9
3143.85406	4527.1
3146.19579	4528.2
3148.53609	4515.3
3150.87499	4520.4
3153.21246	4517.5
3155.54853	4513.6
3157.88318	4517.4
3160.21642	4508.1
3162.54826	4511.9
3164.87868	4495.1
3167.2077	4493.3
3169.5353	4488.1
3171.86151	4482.3
3174.18631	4468.8
3176.5097	4451.4
3178.83169	4456.9
3181.15228	4451.9
3183.47147	4443.8
3185.78926	4430.4
3188.10565	4400.5
3190.42065	4396.6
3192.73424	4409.5
3195.04645	4393
3197.35725	4403.9
3199.66667	4378.2
3201.97469	4380.1
3204.28132	4396.7
3206.58656	4397
3208.8904	4397.4
3211.19287	4390
3213.49394	4399.8
3215.79363	4393.6
3218.09193	4385.5
3220.38884	4406.3
3222.68438	4394.6
3224.97853	4385.2
3227.2713	4374.5
3229.56269	4369.7
3231.8527	4359.3
3234.14133	4354.8
3236.42858	4350.3
3238.71446	4328.9
3240.99896	4315.1
3243.28209	4324.5
3245.56384	4295.7
3247.84423	4291.5
3250.12324	4297.5
3252.40088	4292.6
3254.67715	4283.4
3256.95205	4279.6
3259.22558	4276.4
3261.49775	4268.5
3263.76855	4277.7
3266.03799	4265.9
3268.30606	4283.8
3270.57277	4281.9
3272.83812	4262.1
3275.10211	4256.7
3277.36474	4231.5
3279.62601	4226.2
3281.88593	4230.3
3284.14448	4233.9
3286.40168	4214.6
3288.65753	4221.6
3290.91202	4219.5
3293.16516	4199
3295.41695	4192.3
3297.66738	4188.8
3299.91647	4165.8
3302.16421	4136.7
3304.4106	4108.2
3306.65564	4099.2
3308.89933	4050.5
3311.14169	4025.3
3313.38269	3986.3
3315.62236	3963.9
3317.86068	3947.9
3320.09766	3899.6
3322.3333	3897.9
3324.5676	3852.3
3326.80056	3803.4
3329.03219	3774.4
3331.26248	0.8
3333.49143	-0.2
3335.71905	-0.3
