Data from AgNPs_UA_5uM_CRN_500uM_SU_RamanShift__156__11-55-23-170.txt Node

Date: Thu Aug 04 11:55:23 BST 2022
User: TCL
Spectrometer: QEP01345
Trigger mode: 4
Integration Time (sec): 1.000000E0
Scans to average: 10
Electric dark correction enabled: true
Nonlinearity correction enabled: false
Boxcar width: 0
XAxis mode: Raman Shifts
Number of Pixels in Spectrum: 1044
>>>>>Begin Spectral Data<<<<<
46.04893	-0.175
50.45542	0.525
54.85868	-0.675
59.25871	0.425
63.6555	-57.275
68.04907	-37.575
72.43941	-70.075
76.82654	-55.375
81.21044	-55.575
85.59113	-50.475
89.96862	-75.775
94.34289	-54.375
98.71396	-75.975
103.08183	-57.575
107.4465	-50.775
111.80798	-53.675
116.16626	-42.775
120.52136	-73.875
124.87327	-48.175
129.222	-62.575
133.56755	-51.175
137.90993	-61.775
142.24913	-49.275
146.58517	-41.775
150.91804	-40.775
155.24774	-28.975
159.57429	-8.575
163.89768	-5.575
168.21792	41.625
172.53501	60.625
176.84895	140.525
181.15975	274.825
185.46741	422.425
189.77193	614.125
194.07331	900.925
198.37157	1197.325
202.6667	1475.625
206.9587	1798.725
211.24758	2118.925
215.53334	2447.125
219.81599	2798.125
224.09553	3221.025
228.37195	3657.725
232.64527	4117.625
236.91549	4584.825
241.18261	4949.125
245.44663	5256.725
249.70755	5427.525
253.96539	5580.425
258.22014	5681.025
262.4718	5747.025
266.72039	5795.325
270.96589	5749.225
275.20832	5657.125
279.44768	5543.725
283.68397	5430.525
287.91719	5372.825
292.14735	5384.125
296.37445	5547.825
300.59849	5820.225
304.81948	6151.925
309.03742	6497.125
313.25231	6737.325
317.46415	6675.625
321.67296	6298.625
325.87872	5901.525
330.08145	5739.825
334.28114	5686.025
338.47781	5757.425
342.67145	5896.625
346.86207	6139.525
351.04966	6506.425
355.23424	6899.125
359.4158	7157.525
363.59435	7202.525
367.76989	7129.125
371.94243	7016.325
376.11196	6901.025
380.27849	6808.825
384.44203	6750.925
388.60257	6703.225
392.76012	6731.625
396.91468	6832.425
401.06626	7009.325
405.21485	7021.925
409.36047	6886.025
413.50311	6581.025
417.64277	6295.925
421.77947	6085.425
425.9132	6018.825
430.04396	6012.025
434.17176	6052.525
438.2966	6153.225
442.41849	6229.125
446.53742	6345.325
450.6534	6460.925
454.76644	6531.525
458.87653	6559.825
462.98368	6518.425
467.08789	6456.425
471.18916	6381.025
475.2875	6273.625
479.38291	6170.225
483.4754	6095.225
487.56496	6034.325
491.6516	5994.325
495.73531	5994.625
499.81612	6025.625
503.89401	6123.225
507.96899	6144.825
512.04106	6256.525
516.11023	6349.225
520.1765	6446.225
524.23987	6473.325
528.30034	6458.725
532.35792	6388.225
536.41261	6346.125
540.46441	6232.125
544.51333	6190.825
548.55936	6217.125
552.60252	6359.225
556.64279	6466.425
560.6802	6580.525
564.71473	6742.525
568.7464	6905.425
572.7752	6883.225
576.80114	6572.125
580.82422	6325.525
584.84444	6203.125
588.86181	6203.325
592.87633	6239.925
596.888	6367.225
600.89682	6718.125
604.9028	7668.925
608.90594	9696.425
612.90624	11966.525
616.90371	11161.625
620.89834	8159.925
624.89015	6869.525
628.87913	6683.425
632.86528	6843.825
636.84862	6996.525
640.82913	6870.125
644.80683	6553.225
648.78172	6363.925
652.75379	6400.025
656.72306	6610.425
660.68952	6860.125
664.65319	6776.125
668.61405	6538.025
672.57211	6497.625
676.52738	6474.625
680.47986	6406.825
684.42955	6308.725
688.37646	6270.225
692.32058	6250.325
696.26192	6340.425
700.20048	6434.825
704.13626	6471.225
708.06928	6420.525
711.99952	6391.925
715.927	6378.725
719.85171	6417.025
723.77365	6462.625
727.69284	6430.225
731.60928	6422.425
735.52295	6398.825
739.43388	6450.225
743.34206	6459.725
747.24749	6459.825
751.15017	6502.725
755.05012	6558.025
758.94733	6916.625
762.8418	7717.225
766.73354	8998.525
770.62254	9933.625
774.50882	10028.025
778.39237	9557.925
782.27321	8694.525
786.15132	7671.225
790.02671	7014.025
793.89938	6631.125
797.76935	6520.625
801.6366	6435.825
805.50115	6398.625
809.36299	6400.325
813.22213	6398.725
817.07857	6404.725
820.93231	6398.425
824.78336	6425.525
828.63172	6440.625
832.47738	6457.425
836.32036	6456.625
840.16066	6398.625
843.99827	6394.225
847.8332	6404.925
851.66546	6421.225
855.49504	6427.325
859.32195	6460.325
863.1462	6445.725
866.96777	6458.625
870.78668	6423.425
874.60293	6463.825
878.41652	6478.225
882.22745	6555.325
886.03573	6580.225
889.84136	6576.625
893.64433	6581.625
897.44466	6563.625
901.24235	6549.625
905.0374	6548.425
908.8298	6499.825
912.61957	6463.725
916.40671	6430.125
920.19121	6475.925
923.97308	6559.525
927.75233	6597.625
931.52895	6695.125
935.30295	6675.625
939.07433	6506.725
942.84309	6406.025
946.60924	6374.925
950.37278	6342.525
954.13371	6331.225
957.89203	6334.125
961.64774	6353.725
965.40086	6335.125
969.15137	6314.925
972.89929	6344.725
976.64461	6318.925
980.38733	6364.625
984.12747	6342.125
987.86502	6382.225
991.59999	6399.025
995.33237	6460.025
999.06217	6535.325
1002.78939	6613.225
1006.51404	6746.525
1010.23611	6872.425
1013.95561	6917.425
1017.67255	6918.625
1021.38692	6884.125
1025.09872	6831.525
1028.80796	6758.025
1032.51465	6764.325
1036.21877	6731.225
1039.92035	6780.625
1043.61937	6804.325
1047.31584	6856.725
1051.00976	6899.125
1054.70114	6892.825
1058.38998	6894.925
1062.07627	6918.425
1065.76003	6958.125
1069.44126	7024.225
1073.11995	7106.225
1076.79611	7223.925
1080.46974	7372.325
1084.14085	7529.525
1087.80943	7656.525
1091.47549	7694.825
1095.13903	7634.825
1098.80005	7520.125
1102.45857	7416.225
1106.11456	7389.425
1109.76805	7302.025
1113.41903	7419.225
1117.06751	7568.525
1120.71348	7835.225
1124.35696	8202.625
1127.99793	8461.225
1131.63641	8289.525
1135.2724	7937.725
1138.90589	7643.125
1142.5369	7457.825
1146.16542	7370.225
1149.79145	7257.125
1153.415	7187.725
1157.03607	7199.625
1160.65467	7254.425
1164.27079	7454.725
1167.88443	7700.625
1171.49561	8091.225
1175.10432	8672.525
1178.71056	9509.725
1182.31434	10272.825
1185.91565	10498.825
1189.51451	10355.425
1193.11091	10125.925
1196.70485	9918.725
1200.29634	9706.425
1203.88538	9456.525
1207.47197	9039.725
1211.05612	8621.725
1214.63782	8238.525
1218.21708	8013.025
1221.79391	7858.025
1225.36829	7776.725
1228.94024	7734.125
1232.50976	7761.025
1236.07685	7782.025
1239.6415	7801.025
1243.20374	7814.925
1246.76355	7885.625
1250.32093	7967.025
1253.8759	8035.025
1257.42845	8200.525
1260.97859	8423.225
1264.52631	8645.425
1268.07163	8738.525
1271.61453	8891.625
1275.15503	8931.525
1278.69312	8918.925
1282.22882	9000.425
1285.76211	9184.325
1289.29301	9420.725
1292.82151	9701.325
1296.34761	9910.225
1299.87133	10270.225
1303.39266	10951.525
1306.9116	12047.525
1310.42815	13242.025
1313.94233	13655.725
1317.45412	12879.825
1320.96354	11777.725
1324.47058	10823.625
1327.97525	10111.225
1331.47754	9742.525
1334.97747	9630.225
1338.47502	9757.925
1341.97022	10101.925
1345.46305	10804.225
1348.95352	11816.925
1352.44163	13028.925
1355.92738	14242.225
1359.41078	15800.125
1362.89183	17191.325
1366.37053	16583.325
1369.84688	13851.825
1373.32088	11363.825
1376.79254	10039.325
1380.26186	9462.525
1383.72883	9077.625
1387.19347	8677.725
1390.65578	8353.825
1394.11575	8142.925
1397.57339	7963.725
1401.0287	7858.325
1404.48168	7853.325
1407.93234	7872.425
1411.38068	7886.525
1414.82669	7966.625
1418.27039	8054.325
1421.71177	8033.425
1425.15083	7929.725
1428.58758	7873.725
1432.02203	7903.325
1435.45416	8002.225
1438.88399	7985.225
1442.31151	7972.125
1445.73673	8032.525
1449.15965	8087.425
1452.58027	8110.025
1455.9986	8108.025
1459.41463	8110.025
1462.82837	8213.125
1466.23982	8369.525
1469.64898	8586.825
1473.05586	8738.025
1476.46045	8807.725
1479.86276	8888.325
1483.26279	8958.825
1486.66054	9140.025
1490.05602	9397.225
1493.44922	9889.725
1496.84016	10720.125
1500.22882	12023.625
1503.61521	13624.425
1506.99934	15287.825
1510.38121	16412.425
1513.76081	16334.425
1517.13816	14857.525
1520.51324	12841.425
1523.88607	11232.225
1527.25665	10267.425
1530.62498	9774.025
1533.99105	9584.925
1537.35488	9463.725
1540.71647	9363.925
1544.07581	9277.825
1547.4329	9172.325
1550.78776	9063.825
1554.14038	8977.325
1557.49077	8944.825
1560.83892	9022.425
1564.18484	9237.025
1567.52853	9537.425
1570.86999	9833.325
1574.20922	9982.225
1577.54624	9869.725
1580.88103	9383.725
1584.2136	8761.425
1587.54395	8419.025
1590.87208	8380.725
1594.19801	8532.025
1597.52172	8892.425
1600.84321	9047.925
1604.16251	8913.425
1607.47959	8735.625
1610.79447	8546.825
1614.10715	8258.625
1617.41763	7968.425
1620.7259	7682.525
1624.03199	7534.625
1627.33587	7481.925
1630.63757	7503.225
1633.93707	7748.525
1637.23439	8152.025
1640.52951	8815.525
1643.82246	9750.125
1647.11321	10853.125
1650.40179	11533.725
1653.68819	11174.925
1656.97241	9991.725
1660.25446	8659.025
1663.53433	7689.825
1666.81203	7139.025
1670.08756	6830.825
1673.36092	6656.925
1676.63211	6509.725
1679.90115	6433.325
1683.16801	6341.725
1686.43272	6258.125
1689.69527	6207.325
1692.95567	6157.725
1696.2139	6122.125
1699.46999	6057.125
1702.72392	6069.125
1705.97571	6059.725
1709.22535	6050.925
1712.47284	6088.325
1715.71819	6104.925
1718.96139	6102.625
1722.20246	6081.825
1725.44139	6039.925
1728.67818	6028.525
1731.91284	5967.225
1735.14537	5959.825
1738.37576	5907.725
1741.60403	5900.225
1744.83017	5869.225
1748.05418	5878.525
1751.27607	5878.725
1754.49584	5848.825
1757.71349	5791.625
1760.92903	5821.025
1764.14244	5767.425
1767.35375	5781.325
1770.56294	5766.925
1773.77002	5748.325
1776.97499	5760.125
1780.17785	5728.625
1783.37861	5715.225
1786.57727	5734.225
1789.77382	5667.625
1792.96828	5685.625
1796.16064	5717.825
1799.3509	5682.425
1802.53907	5704.525
1805.72514	5657.225
1808.90913	5625.525
1812.09102	5635.425
1815.27083	5629.525
1818.44856	5599.625
1821.6242	5602.625
1824.79776	5609.025
1827.96924	5591.525
1831.13864	5553.325
1834.30597	5563.925
1837.47122	5549.425
1840.6344	5538.425
1843.7955	5504.725
1846.95454	5497.925
1850.11151	5538.825
1853.26642	5493.125
1856.41926	5513.725
1859.57004	5483.425
1862.71876	5479.025
1865.86542	5485.425
1869.01003	5479.425
1872.15258	5448.925
1875.29308	5471.225
1878.43152	5470.325
1881.56792	5453.625
1884.70227	5438.725
1887.83457	5423.825
1890.96482	5390.825
1894.09304	5408.925
1897.21921	5406.425
1900.34335	5421.925
1903.46544	5373.225
1906.58551	5402.125
1909.70353	5389.425
1912.81953	5389.725
1915.93349	5364.425
1919.04543	5350.525
1922.15534	5341.825
1925.26322	5347.025
1928.36908	5334.625
1931.47292	5324.225
1934.57473	5339.525
1937.67453	5289.325
1940.77232	5263.225
1943.86808	5269.225
1946.96184	5245.525
1950.05358	5227.725
1953.14331	5205.025
1956.23103	5222.025
1959.31675	5175.325
1962.40046	5141.925
1965.48217	5155.125
1968.56188	5148.725
1971.63959	5117.125
1974.7153	5128.425
1977.78901	5099.225
1980.86073	5090.225
1983.93046	5050.925
1986.99819	4969.425
1990.06394	5000.925
1993.1277	5005.725
1996.18947	5001.625
1999.24925	4959.425
2002.30706	4969.125
2005.36288	4954.425
2008.41672	4905.525
2011.46859	4896.225
2014.51848	4885.925
2017.56639	4864.025
2020.61233	4848.125
2023.6563	4860.625
2026.6983	4820.725
2029.73833	4812.525
2032.7764	4809.425
2035.8125	4776.125
2038.84664	4776.325
2041.87881	4746.525
2044.90903	4761.625
2047.93729	4750.525
2050.96359	4727.825
2053.98794	4738.825
2057.01034	4732.725
2060.03078	4717.325
2063.04927	4696.025
2066.06582	4715.725
2069.08042	4698.125
2072.09307	4693.525
2075.10378	4690.425
2078.11255	4680.925
2081.11938	4690.225
2084.12426	4671.425
2087.12722	4661.225
2090.12824	4689.025
2093.12732	4679.125
2096.12447	4673.525
2099.11969	4677.425
2102.11299	4667.325
2105.10435	4690.425
2108.09379	4680.725
2111.08131	4664.525
2114.0669	4689.225
2117.05057	4686.825
2120.03233	4657.325
2123.01216	4691.325
2125.99008	4674.525
2128.96609	4679.125
2131.94018	4703.725
2134.91236	4677.925
2137.88263	4688.425
2140.851	4703.625
2143.81746	4713.425
2146.78201	4683.525
2149.74466	4677.125
2152.7054	4704.825
2155.66425	4688.825
2158.6212	4674.225
2161.57625	4645.625
2164.52941	4618.125
2167.48067	4643.925
2170.43004	4627.625
2173.37752	4655.025
2176.32311	4639.625
2179.26681	4643.625
2182.20863	4648.825
2185.14856	4651.425
2188.08661	4658.925
2191.02278	4627.925
2193.95707	4630.525
2196.88948	4613.625
2199.82001	4637.425
2202.74867	4606.625
2205.67545	4617.625
2208.60037	4617.925
2211.52341	4599.425
2214.44458	4591.525
2217.36388	4589.325
2220.28132	4560.625
2223.1969	4532.925
2226.11061	4551.225
2229.02246	4518.125
2231.93245	4531.325
2234.84058	4509.025
2237.74686	4499.725
2240.65128	4508.325
2243.55385	4497.125
2246.45456	4461.625
2249.35343	4488.225
2252.25044	4466.025
2255.14561	4474.225
2258.03893	4475.025
2260.93041	4451.525
2263.82004	4432.225
2266.70783	4443.125
2269.59378	4414.925
2272.4779	4399.625
2275.36017	4410.625
2278.24061	4380.625
2281.11922	4358.325
2283.996	4362.025
2286.87094	4341.925
2289.74405	4347.725
2292.61534	4339.225
2295.4848	4332.825
2298.35243	4324.525
2301.21824	4334.925
2304.08223	4311.125
2306.94439	4325.825
2309.80474	4320.125
2312.66327	4314.325
2315.51999	4305.025
2318.37489	4295.425
2321.22797	4267.725
2324.07925	4256.225
2326.92871	4263.525
2329.77637	4238.025
2332.62222	4235.625
2335.46626	4211.625
2338.3085	4216.825
2341.14893	4232.625
2343.98756	4230.025
2346.8244	4210.725
2349.65943	4191.625
2352.49267	4203.225
2355.32411	4213.025
2358.15376	4189.625
2360.98161	4203.225
2363.80768	4191.525
2366.63195	4194.925
2369.45444	4200.825
2372.27514	4195.025
2375.09405	4200.825
2377.91118	4148.525
2380.72652	4169.825
2383.54009	4164.825
2386.35187	4158.725
2389.16188	4135.425
2391.97011	4128.725
2394.77657	4121.725
2397.58125	4103.325
2400.38416	4098.425
2403.18529	4082.625
2405.98466	4082.525
2408.78226	4061.425
2411.57809	4067.325
2414.37216	4062.025
2417.16446	4049.225
2419.955	4025.725
2422.74378	4037.825
2425.5308	4007.825
2428.31606	4024.925
2431.09956	4037.125
2433.88131	4002.525
2436.6613	4028.425
2439.43954	4011.025
2442.21603	4007.525
2444.99077	3996.025
2447.76377	4017.125
2450.53501	3995.025
2453.30451	3987.425
2456.07226	3982.025
2458.83827	3974.725
2461.60254	3928.425
2464.36507	3966.425
2467.12586	3934.825
2469.88492	3968.425
2472.64224	3954.525
2475.39782	3931.925
2478.15167	3954.725
2480.90379	3942.025
2483.65417	3951.325
2486.40283	3953.125
2489.14976	3959.425
2491.89497	3938.425
2494.63845	3944.925
2497.3802	3936.325
2500.12024	3924.725
2502.85855	3914.925
2505.59514	3939.925
2508.33002	3899.525
2511.06318	3878.225
2513.79462	3878.125
2516.52435	3849.525
2519.25237	3833.525
2521.97867	3820.725
2524.70327	3849.025
2527.42616	3836.625
2530.14734	3841.425
2532.86681	3806.625
2535.58458	3822.525
2538.30065	3804.925
2541.01501	3819.525
2543.72768	3796.525
2546.43864	3798.925
2549.14791	3793.125
2551.85548	3780.325
2554.56136	3770.025
2557.26554	3776.325
2559.96803	3766.725
2562.66883	3776.725
2565.36794	3742.825
2568.06536	3699.025
2570.7611	3736.325
2573.45514	3716.525
2576.14751	3707.525
2578.83819	3683.225
2581.52719	3678.825
2584.21451	3678.725
2586.90015	3665.825
2589.58411	3650.725
2592.2664	3664.925
2594.94701	3676.125
2597.62594	3644.525
2600.30321	3586.025
2602.9788	3616.125
2605.65273	3605.125
2608.32498	3608.425
2610.99557	3628.325
2613.66449	3591.225
2616.33175	3606.125
2618.99734	3596.325
2621.66128	3592.225
2624.32355	3583.525
2626.98416	3560.125
2629.64311	3550.725
2632.30041	3568.525
2634.95605	3534.925
2637.61004	3525.425
2640.26238	3505.025
2642.91306	3526.325
2645.56209	3531.625
2648.20948	3530.625
2650.85521	3501.425
2653.4993	3524.525
2656.14175	3516.425
2658.78255	3494.925
2661.42171	3470.625
2664.05923	3513.525
2666.6951	3524.425
2669.32934	3519.725
2671.96194	3540.825
2674.59291	3521.425
2677.22224	3521.025
2679.84993	3516.925
2682.476	3511.425
2685.10043	3496.725
2687.72324	3502.325
2690.34441	3493.225
2692.96396	3485.725
2695.58188	3500.425
2698.19818	3496.825
2700.81285	3486.225
2703.4259	3473.625
2706.03733	3439.425
2708.64714	3453.625
2711.25533	3474.725
2713.86191	3468.125
2716.46687	3460.125
2719.07021	3462.225
2721.67194	3467.525
2724.27206	3480.225
2726.87057	3472.125
2729.46747	3469.025
2732.06276	3466.125
2734.65644	3460.725
2737.24852	3453.025
2739.83899	3425.125
2742.42786	3434.225
2745.01513	3437.725
2747.60079	3428.325
2750.18486	3391.025
2752.76733	3423.525
2755.3482	3400.225
2757.92747	3411.025
2760.50515	3383.425
2763.08123	3374.225
2765.65573	3377.125
2768.22863	3368.925
2770.79994	3358.225
2773.36967	3362.225
2775.9378	3341.525
2778.50435	3344.125
2781.06932	3333.225
2783.6327	3324.025
2786.1945	3346.425
2788.75471	3318.625
2791.31335	3323.725
2793.87041	3323.025
2796.42589	3288.825
2798.97979	3286.125
2801.53212	3283.925
2804.08288	3299.825
2806.63206	3280.325
2809.17967	3265.225
2811.72571	3269.125
2814.27018	3278.725
2816.81308	3246.325
2819.35442	3213.625
2821.89419	3233.925
2824.43239	3217.425
2826.96904	3245.525
2829.50412	3225.825
2832.03763	3221.925
2834.56959	3224.825
2837.1	3206.925
2839.62884	3196.525
2842.15613	3202.425
2844.68186	3206.125
2847.20604	3187.525
2849.72867	3186.625
2852.24974	3178.725
2854.76927	3144.825
2857.28724	3101.225
2859.80367	3172.025
2862.31855	3176.625
2864.83189	3150.325
2867.34368	3166.125
2869.85393	3175.225
2872.36264	3144.125
2874.8698	3129.025
2877.37543	3150.225
2879.87952	3138.325
2882.38207	3115.625
2884.88308	3121.025
2887.38256	3124.525
2889.88051	3122.625
2892.37692	3121.225
2894.8718	3087.825
2897.36515	3121.225
2899.85698	3108.225
2902.34727	3089.925
2904.83604	3119.725
2907.32328	3129.725
2909.809	3130.725
2912.29319	3126.225
2914.77587	3125.225
2917.25702	3137.125
2919.73665	3137.925
2922.21476	3123.425
2924.69136	3138.125
2927.16644	3104.625
2929.64	3115.825
2932.11205	3104.325
2934.58258	3100.525
2937.05161	3092.925
2939.51912	3093.525
2941.98513	3110.225
2944.44962	3086.325
2946.91261	3046.725
2949.37409	3070.925
2951.83407	3060.425
2954.29254	3063.425
2956.74951	3060.325
2959.20498	3038.025
2961.65895	3047.525
2964.11142	3024.725
2966.56239	3025.525
2969.01186	3036.425
2971.45984	3033.725
2973.90632	3009.225
2976.35131	3026.425
2978.7948	3024.725
2981.23681	3005.425
2983.67732	3007.225
2986.11635	3008.425
2988.55388	2980.825
2990.98993	2983.525
2993.4245	2959.525
2995.85758	2948.625
2998.28917	2938.025
3000.71928	2936.725
3003.14791	2921.425
3005.57506	2927.225
3008.00073	2891.725
3010.42493	2854.325
3012.84764	2910.925
3015.26888	2907.925
3017.68865	2895.325
3020.10694	2847.025
3022.52376	2863.525
3024.9391	2859.325
3027.35298	2844.025
3029.76539	2834.225
3032.17632	2833.625
3034.5858	2823.125
3036.9938	2824.325
3039.40034	2828.825
3041.80542	2821.325
3044.20903	2800.625
3046.61118	2795.025
3049.01187	2801.925
3051.4111	2777.025
3053.80888	2771.725
3056.20519	2771.725
3058.60005	2747.425
3060.99345	2773.925
3063.3854	2744.125
3065.7759	2736.125
3068.16494	2722.025
3070.55254	2711.025
3072.93868	2730.225
3075.32338	2725.325
3077.70662	2696.125
3080.08842	2685.225
3082.46878	2671.625
3084.84769	2698.325
3087.22515	2683.325
3089.60118	2688.925
3091.97576	2674.725
3094.3489	2667.625
3096.72061	2675.725
3099.09087	2662.425
3101.4597	2679.725
3103.82709	2667.025
3106.19305	2640.925
3108.55757	2659.225
3110.92066	2631.125
3113.28232	2649.325
3115.64255	2641.125
3118.00134	2633.825
3120.35871	2618.625
3122.71466	2607.925
3125.06917	2602.925
3127.42226	2591.925
3129.77393	2565.825
3132.12417	2594.425
3134.47299	2599.625
3136.82039	2578.925
3139.16636	2549.825
3141.51092	2574.825
3143.85406	2567.525
3146.19579	2556.625
3148.53609	2562.525
3150.87499	2547.225
3153.21246	2550.425
3155.54853	2553.325
3157.88318	2559.025
3160.21642	2562.125
3162.54826	2541.825
3164.87868	2556.825
3167.2077	2509.125
3169.5353	2533.325
3171.86151	2549.525
3174.18631	2533.125
3176.5097	2526.325
3178.83169	2532.625
3181.15228	2520.225
3183.47147	2508.925
3185.78926	2469.025
3188.10565	2483.725
3190.42065	2470.525
3192.73424	2486.625
3195.04645	2472.025
3197.35725	2454.125
3199.66667	2473.025
3201.97469	2457.325
3204.28132	2456.725
3206.58656	2463.925
3208.8904	2470.725
3211.19287	2460.925
3213.49394	2446.925
3215.79363	2442.425
3218.09193	2459.625
3220.38884	2450.825
3222.68438	2450.225
3224.97853	2421.325
3227.2713	2450.225
3229.56269	2427.625
3231.8527	2434.825
3234.14133	2406.925
3236.42858	2401.325
3238.71446	2384.025
3240.99896	2405.125
3243.28209	2389.225
3245.56384	2408.725
3247.84423	2374.325
3250.12324	2391.525
3252.40088	2383.725
3254.67715	2366.025
3256.95205	2364.425
3259.22558	2374.425
3261.49775	2369.625
3263.76855	2371.425
3266.03799	2373.625
3268.30606	2363.725
3270.57277	2359.325
3272.83812	2341.225
3275.10211	2343.425
3277.36474	2353.625
3279.62601	2352.025
3281.88593	2315.625
3284.14448	2308.125
3286.40168	2315.725
3288.65753	2310.825
3290.91202	2317.425
3293.16516	2291.025
3295.41695	2309.225
3297.66738	2308.625
3299.91647	2286.025
3302.16421	2281.125
3304.4106	2238.425
3306.65564	2259.025
3308.89933	2222.825
3311.14169	2220.325
3313.38269	2192.025
3315.62236	2180.525
3317.86068	2168.025
3320.09766	2154.025
3322.3333	2119.625
3324.5676	2120.425
3326.80056	2094.625
3329.03219	2076.525
3331.26248	0.225
3333.49143	0.425
3335.71905	0.525
