Data from AgNPs_UA_5uM_CRN_500uM_SU_RamanShift__98__11-45-43-158.txt Node

Date: Thu Aug 04 11:45:43 BST 2022
User: TCL
Spectrometer: QEP01345
Trigger mode: 4
Integration Time (sec): 1.000000E0
Scans to average: 10
Electric dark correction enabled: true
Nonlinearity correction enabled: false
Boxcar width: 0
XAxis mode: Raman Shifts
Number of Pixels in Spectrum: 1044
>>>>>Begin Spectral Data<<<<<
46.04893	-0.925
50.45542	0.375
54.85868	0.975
59.25871	-1.025
63.6555	-66.525
68.04907	-48.225
72.43941	-79.925
76.82654	-64.425
81.21044	-64.825
85.59113	-56.625
89.96862	-83.825
94.34289	-64.425
98.71396	-86.025
103.08183	-69.425
107.4465	-60.025
111.80798	-67.125
116.16626	-55.125
120.52136	-86.125
124.87327	-63.225
129.222	-79.325
133.56755	-65.225
137.90993	-80.625
142.24913	-72.525
146.58517	-68.625
150.91804	-70.425
155.24774	-66.725
159.57429	-57.525
163.89768	-67.925
168.21792	-45.425
172.53501	-59.125
176.84895	-27.525
181.15975	31.575
185.46741	76.075
189.77193	120.975
194.07331	236.975
198.37157	329.075
202.6667	405.975
206.9587	519.175
211.24758	609.475
215.53334	708.175
219.81599	806.775
224.09553	923.575
228.37195	1040.775
232.64527	1176.075
236.91549	1323.275
241.18261	1455.375
245.44663	1600.275
249.70755	1712.075
253.96539	1810.575
258.22014	1912.475
262.4718	1975.875
266.72039	2026.275
270.96589	2051.575
275.20832	2042.775
279.44768	2010.575
283.68397	1976.075
287.91719	1953.475
292.14735	1927.375
296.37445	1944.775
300.59849	1965.075
304.81948	1968.475
309.03742	1995.775
313.25231	2020.275
317.46415	2030.375
321.67296	1990.075
325.87872	1957.975
330.08145	1958.375
334.28114	1957.075
338.47781	1987.475
342.67145	2024.175
346.86207	2056.975
351.04966	2126.075
355.23424	2193.575
359.4158	2232.275
363.59435	2230.875
367.76989	2255.375
371.94243	2270.675
376.11196	2254.875
380.27849	2285.175
384.44203	2294.675
388.60257	2312.775
392.76012	2323.575
396.91468	2371.275
401.06626	2403.575
405.21485	2410.075
409.36047	2420.575
413.50311	2414.775
417.64277	2409.675
421.77947	2383.775
425.9132	2397.175
430.04396	2414.175
434.17176	2435.675
438.2966	2479.275
442.41849	2487.575
446.53742	2517.175
450.6534	2527.275
454.76644	2569.175
458.87653	2592.375
462.98368	2587.575
467.08789	2586.375
471.18916	2586.075
475.2875	2634.475
479.38291	2635.075
483.4754	2628.475
487.56496	2647.775
491.6516	2645.575
495.73531	2644.475
499.81612	2664.775
503.89401	2690.575
507.96899	2701.175
512.04106	2720.275
516.11023	2727.475
520.1765	2750.075
524.23987	2759.775
528.30034	2788.175
532.35792	2755.575
536.41261	2785.375
540.46441	2793.275
544.51333	2794.175
548.55936	2810.775
552.60252	2852.175
556.64279	2855.575
560.6802	2886.175
564.71473	2911.775
568.7464	2934.175
572.7752	2927.875
576.80114	2918.875
580.82422	2904.975
584.84444	2897.275
588.86181	2912.175
592.87633	2923.275
596.888	2946.475
600.89682	2994.875
604.9028	3117.175
608.90594	3293.775
612.90624	3520.675
616.90371	3445.575
620.89834	3176.775
624.89015	3088.075
628.87913	3067.075
632.86528	3099.075
636.84862	3140.675
640.82913	3141.575
644.80683	3092.875
648.78172	3090.575
652.75379	3141.975
656.72306	3158.075
660.68952	3188.375
664.65319	3188.075
668.61405	3176.475
672.57211	3178.975
676.52738	3217.975
680.47986	3210.175
684.42955	3221.175
688.37646	3225.275
692.32058	3234.675
696.26192	3255.875
700.20048	3272.075
704.13626	3272.375
708.06928	3269.575
711.99952	3300.675
715.927	3291.175
719.85171	3312.875
723.77365	3350.875
727.69284	3325.775
731.60928	3354.775
735.52295	3332.375
739.43388	3373.275
743.34206	3390.275
747.24749	3409.375
751.15017	3433.475
755.05012	3416.875
758.94733	3471.775
762.8418	3549.375
766.73354	3672.075
770.62254	3764.375
774.50882	3731.975
778.39237	3708.875
782.27321	3643.775
786.15132	3586.875
790.02671	3547.075
793.89938	3480.975
797.76935	3490.775
801.6366	3475.775
805.50115	3496.375
809.36299	3493.875
813.22213	3529.075
817.07857	3537.575
820.93231	3532.375
824.78336	3550.775
828.63172	3550.875
832.47738	3570.775
836.32036	3588.975
840.16066	3596.375
843.99827	3612.675
847.8332	3593.375
851.66546	3601.375
855.49504	3595.175
859.32195	3639.775
863.1462	3629.175
866.96777	3655.075
870.78668	3650.275
874.60293	3655.775
878.41652	3662.475
882.22745	3706.175
886.03573	3691.275
889.84136	3688.975
893.64433	3724.575
897.44466	3713.675
901.24235	3710.375
905.0374	3754.275
908.8298	3719.975
912.61957	3729.275
916.40671	3689.475
920.19121	3726.675
923.97308	3756.175
927.75233	3735.875
931.52895	3742.275
935.30295	3778.175
939.07433	3774.075
942.84309	3737.975
946.60924	3738.375
950.37278	3732.875
954.13371	3738.075
957.89203	3727.575
961.64774	3756.375
965.40086	3761.175
969.15137	3723.275
972.89929	3763.475
976.64461	3766.575
980.38733	3771.775
984.12747	3754.275
987.86502	3757.775
991.59999	3768.375
995.33237	3808.375
999.06217	3822.575
1002.78939	3825.975
1006.51404	3844.275
1010.23611	3855.175
1013.95561	3870.675
1017.67255	3895.475
1021.38692	3888.375
1025.09872	3895.775
1028.80796	3858.875
1032.51465	3892.675
1036.21877	3865.175
1039.92035	3904.275
1043.61937	3896.675
1047.31584	3919.975
1051.00976	3954.975
1054.70114	3970.475
1058.38998	3975.275
1062.07627	3967.175
1065.76003	3972.975
1069.44126	4006.675
1073.11995	4011.975
1076.79611	4031.775
1080.46974	4046.775
1084.14085	4065.375
1087.80943	4067.675
1091.47549	4086.775
1095.13903	4086.275
1098.80005	4098.675
1102.45857	4083.975
1106.11456	4064.175
1109.76805	4019.875
1113.41903	4065.175
1117.06751	4068.075
1120.71348	4095.575
1124.35696	4155.875
1127.99793	4174.875
1131.63641	4162.575
1135.2724	4129.675
1138.90589	4114.275
1142.5369	4059.475
1146.16542	4057.475
1149.79145	4050.875
1153.415	4041.975
1157.03607	4036.775
1160.65467	4062.675
1164.27079	4099.875
1167.88443	4087.475
1171.49561	4162.775
1175.10432	4213.875
1178.71056	4298.075
1182.31434	4377.175
1185.91565	4395.875
1189.51451	4375.975
1193.11091	4370.875
1196.70485	4365.575
1200.29634	4329.475
1203.88538	4320.675
1207.47197	4264.875
1211.05612	4218.375
1214.63782	4182.075
1218.21708	4214.675
1221.79391	4202.275
1225.36829	4174.775
1228.94024	4154.175
1232.50976	4172.075
1236.07685	4202.375
1239.6415	4213.275
1243.20374	4208.775
1246.76355	4227.475
1250.32093	4256.975
1253.8759	4267.775
1257.42845	4303.475
1260.97859	4301.975
1264.52631	4346.275
1268.07163	4348.275
1271.61453	4368.775
1275.15503	4347.375
1278.69312	4353.375
1282.22882	4370.775
1285.76211	4399.675
1289.29301	4383.875
1292.82151	4438.175
1296.34761	4436.875
1299.87133	4473.875
1303.39266	4560.175
1306.9116	4647.975
1310.42815	4771.275
1313.94233	4846.675
1317.45412	4761.075
1320.96354	4671.275
1324.47058	4560.975
1327.97525	4479.575
1331.47754	4441.075
1334.97747	4414.575
1338.47502	4412.475
1341.97022	4438.275
1345.46305	4511.375
1348.95352	4601.075
1352.44163	4713.975
1355.92738	4767.275
1359.41078	4946.675
1362.89183	5076.375
1366.37053	5014.375
1369.84688	4767.975
1373.32088	4537.975
1376.79254	4434.575
1380.26186	4339.875
1383.72883	4287.775
1387.19347	4236.875
1390.65578	4172.075
1394.11575	4159.875
1397.57339	4149.975
1401.0287	4138.075
1404.48168	4135.275
1407.93234	4150.175
1411.38068	4125.775
1414.82669	4123.575
1418.27039	4136.575
1421.71177	4154.575
1425.15083	4133.275
1428.58758	4130.075
1432.02203	4130.175
1435.45416	4151.075
1438.88399	4129.375
1442.31151	4085.175
1445.73673	4094.975
1449.15965	4090.675
1452.58027	4090.475
1455.9986	4095.575
1459.41463	4107.875
1462.82837	4122.475
1466.23982	4140.975
1469.64898	4159.675
1473.05586	4158.575
1476.46045	4172.275
1479.86276	4190.975
1483.26279	4208.075
1486.66054	4260.275
1490.05602	4248.475
1493.44922	4330.775
1496.84016	4378.875
1500.22882	4528.075
1503.61521	4672.175
1506.99934	4845.575
1510.38121	4975.575
1513.76081	5040.475
1517.13816	4925.875
1520.51324	4720.975
1523.88607	4560.575
1527.25665	4455.575
1530.62498	4392.175
1533.99105	4380.475
1537.35488	4374.775
1540.71647	4378.375
1544.07581	4370.875
1547.4329	4378.775
1550.78776	4377.675
1554.14038	4371.275
1557.49077	4379.475
1560.83892	4413.075
1564.18484	4444.375
1567.52853	4467.975
1570.86999	4496.175
1574.20922	4505.775
1577.54624	4501.075
1580.88103	4451.975
1584.2136	4367.975
1587.54395	4370.675
1590.87208	4387.675
1594.19801	4363.475
1597.52172	4406.575
1600.84321	4430.275
1604.16251	4411.675
1607.47959	4373.275
1610.79447	4365.875
1614.10715	4338.575
1617.41763	4332.075
1620.7259	4312.675
1624.03199	4284.775
1627.33587	4263.975
1630.63757	4256.675
1633.93707	4269.675
1637.23439	4317.175
1640.52951	4389.875
1643.82246	4483.575
1647.11321	4597.775
1650.40179	4661.675
1653.68819	4619.675
1656.97241	4513.975
1660.25446	4362.375
1663.53433	4280.075
1666.81203	4207.175
1670.08756	4192.275
1673.36092	4197.275
1676.63211	4162.075
1679.90115	4164.375
1683.16801	4156.075
1686.43272	4124.375
1689.69527	4135.075
1692.95567	4101.875
1696.2139	4105.075
1699.46999	4077.175
1702.72392	4088.175
1705.97571	4123.875
1709.22535	4105.675
1712.47284	4140.475
1715.71819	4151.875
1718.96139	4164.875
1722.20246	4161.775
1725.44139	4156.875
1728.67818	4156.275
1731.91284	4149.175
1735.14537	4139.775
1738.37576	4141.175
1741.60403	4131.075
1744.83017	4112.575
1748.05418	4124.275
1751.27607	4137.575
1754.49584	4113.175
1757.71349	4085.875
1760.92903	4096.375
1764.14244	4044.575
1767.35375	4072.975
1770.56294	4066.175
1773.77002	4076.875
1776.97499	4108.875
1780.17785	4096.775
1783.37861	4104.775
1786.57727	4125.675
1789.77382	4066.375
1792.96828	4092.675
1796.16064	4110.775
1799.3509	4084.975
1802.53907	4112.175
1805.72514	4098.775
1808.90913	4079.675
1812.09102	4087.075
1815.27083	4083.075
1818.44856	4081.075
1821.6242	4078.475
1824.79776	4061.475
1827.96924	4052.975
1831.13864	4044.375
1834.30597	4067.575
1837.47122	4051.075
1840.6344	4048.775
1843.7955	4042.575
1846.95454	4032.675
1850.11151	4048.175
1853.26642	4025.275
1856.41926	4040.075
1859.57004	4031.275
1862.71876	4040.475
1865.86542	4033.075
1869.01003	4037.975
1872.15258	4010.575
1875.29308	4039.875
1878.43152	4038.575
1881.56792	4022.175
1884.70227	4004.075
1887.83457	4001.075
1890.96482	3992.675
1894.09304	3991.875
1897.21921	3999.975
1900.34335	3992.375
1903.46544	3984.175
1906.58551	4001.375
1909.70353	3993.775
1912.81953	3984.475
1915.93349	3972.875
1919.04543	3970.375
1922.15534	3964.975
1925.26322	3976.375
1928.36908	3956.975
1931.47292	3957.175
1934.57473	3969.275
1937.67453	3959.975
1940.77232	3919.275
1943.86808	3927.075
1946.96184	3942.175
1950.05358	3909.775
1953.14331	3898.475
1956.23103	3913.075
1959.31675	3871.975
1962.40046	3831.375
1965.48217	3853.075
1968.56188	3846.975
1971.63959	3830.275
1974.7153	3832.875
1977.78901	3824.675
1980.86073	3817.075
1983.93046	3796.975
1986.99819	3716.875
1990.06394	3752.675
1993.1277	3778.675
1996.18947	3748.975
1999.24925	3723.075
2002.30706	3742.375
2005.36288	3747.075
2008.41672	3733.275
2011.46859	3697.075
2014.51848	3703.875
2017.56639	3690.275
2020.61233	3657.875
2023.6563	3680.675
2026.6983	3635.475
2029.73833	3656.075
2032.7764	3659.975
2035.8125	3614.475
2038.84664	3625.775
2041.87881	3617.775
2044.90903	3620.775
2047.93729	3607.875
2050.96359	3590.875
2053.98794	3607.575
2057.01034	3603.075
2060.03078	3591.875
2063.04927	3587.075
2066.06582	3594.375
2069.08042	3592.475
2072.09307	3605.775
2075.10378	3596.275
2078.11255	3583.475
2081.11938	3584.675
2084.12426	3580.375
2087.12722	3579.375
2090.12824	3588.775
2093.12732	3569.675
2096.12447	3583.175
2099.11969	3585.275
2102.11299	3576.975
2105.10435	3595.675
2108.09379	3590.975
2111.08131	3580.475
2114.0669	3577.075
2117.05057	3594.975
2120.03233	3588.975
2123.01216	3598.575
2125.99008	3606.675
2128.96609	3595.175
2131.94018	3614.675
2134.91236	3615.575
2137.88263	3609.175
2140.851	3631.475
2143.81746	3640.475
2146.78201	3622.575
2149.74466	3617.475
2152.7054	3625.875
2155.66425	3626.075
2158.6212	3622.775
2161.57625	3604.675
2164.52941	3580.775
2167.48067	3614.175
2170.43004	3599.975
2173.37752	3624.375
2176.32311	3604.975
2179.26681	3621.875
2182.20863	3607.775
2185.14856	3607.175
2188.08661	3610.275
2191.02278	3635.075
2193.95707	3610.875
2196.88948	3599.575
2199.82001	3625.475
2202.74867	3586.775
2205.67545	3588.775
2208.60037	3607.875
2211.52341	3587.175
2214.44458	3574.275
2217.36388	3576.675
2220.28132	3557.875
2223.1969	3553.375
2226.11061	3550.575
2229.02246	3538.075
2231.93245	3555.175
2234.84058	3527.475
2237.74686	3508.475
2240.65128	3513.375
2243.55385	3541.575
2246.45456	3495.675
2249.35343	3510.875
2252.25044	3500.175
2255.14561	3506.575
2258.03893	3485.075
2260.93041	3484.075
2263.82004	3492.875
2266.70783	3476.375
2269.59378	3453.775
2272.4779	3446.475
2275.36017	3456.875
2278.24061	3440.475
2281.11922	3404.975
2283.996	3432.775
2286.87094	3412.175
2289.74405	3432.275
2292.61534	3414.075
2295.4848	3407.975
2298.35243	3407.375
2301.21824	3401.275
2304.08223	3398.775
2306.94439	3415.875
2309.80474	3407.575
2312.66327	3410.775
2315.51999	3386.575
2318.37489	3381.675
2321.22797	3365.475
2324.07925	3364.475
2326.92871	3367.575
2329.77637	3354.275
2332.62222	3350.675
2335.46626	3323.775
2338.3085	3330.175
2341.14893	3330.475
2343.98756	3331.875
2346.8244	3303.675
2349.65943	3306.975
2352.49267	3304.275
2355.32411	3304.475
2358.15376	3307.475
2360.98161	3311.175
2363.80768	3280.975
2366.63195	3286.475
2369.45444	3300.275
2372.27514	3295.375
2375.09405	3303.875
2377.91118	3263.175
2380.72652	3265.675
2383.54009	3266.675
2386.35187	3259.675
2389.16188	3238.775
2391.97011	3250.575
2394.77657	3245.475
2397.58125	3244.875
2400.38416	3241.875
2403.18529	3216.475
2405.98466	3217.575
2408.78226	3220.775
2411.57809	3207.275
2414.37216	3189.875
2417.16446	3208.875
2419.955	3187.275
2422.74378	3205.775
2425.5308	3172.775
2428.31606	3189.275
2431.09956	3194.475
2433.88131	3162.775
2436.6613	3176.775
2439.43954	3166.375
2442.21603	3163.175
2444.99077	3148.275
2447.76377	3168.975
2450.53501	3145.575
2453.30451	3130.375
2456.07226	3145.275
2458.83827	3130.175
2461.60254	3094.375
2464.36507	3116.575
2467.12586	3099.675
2469.88492	3109.475
2472.64224	3093.175
2475.39782	3089.975
2478.15167	3085.875
2480.90379	3091.975
2483.65417	3102.275
2486.40283	3093.375
2489.14976	3093.675
2491.89497	3077.175
2494.63845	3096.175
2497.3802	3065.375
2500.12024	3058.275
2502.85855	3066.575
2505.59514	3077.175
2508.33002	3062.675
2511.06318	3043.475
2513.79462	3055.175
2516.52435	3022.175
2519.25237	3009.375
2521.97867	3013.275
2524.70327	3033.975
2527.42616	3020.775
2530.14734	3036.675
2532.86681	3013.475
2535.58458	3023.375
2538.30065	3019.175
2541.01501	3016.775
2543.72768	2997.675
2546.43864	2993.875
2549.14791	2973.975
2551.85548	2958.875
2554.56136	2973.575
2557.26554	2963.375
2559.96803	2965.375
2562.66883	2952.475
2565.36794	2936.075
2568.06536	2900.275
2570.7611	2934.275
2573.45514	2931.675
2576.14751	2913.875
2578.83819	2902.675
2581.52719	2896.375
2584.21451	2902.775
2586.90015	2884.875
2589.58411	2872.475
2592.2664	2885.175
2594.94701	2870.975
2597.62594	2874.975
2600.30321	2810.275
2602.9788	2834.175
2605.65273	2825.875
2608.32498	2824.775
2610.99557	2849.675
2613.66449	2796.275
2616.33175	2831.775
2618.99734	2815.875
2621.66128	2821.975
2624.32355	2803.075
2626.98416	2792.875
2629.64311	2790.075
2632.30041	2789.975
2634.95605	2755.675
2637.61004	2782.775
2640.26238	2750.775
2642.91306	2755.275
2645.56209	2773.275
2648.20948	2766.075
2650.85521	2741.175
2653.4993	2777.775
2656.14175	2750.775
2658.78255	2735.075
2661.42171	2691.775
2664.05923	2749.775
2666.6951	2750.375
2669.32934	2757.575
2671.96194	2750.575
2674.59291	2743.875
2677.22224	2757.175
2679.84993	2750.075
2682.476	2731.075
2685.10043	2716.575
2687.72324	2717.175
2690.34441	2706.175
2692.96396	2714.775
2695.58188	2733.375
2698.19818	2724.375
2700.81285	2719.975
2703.4259	2712.975
2706.03733	2671.575
2708.64714	2697.775
2711.25533	2699.275
2713.86191	2700.975
2716.46687	2697.475
2719.07021	2705.075
2721.67194	2713.775
2724.27206	2714.975
2726.87057	2697.075
2729.46747	2696.475
2732.06276	2703.275
2734.65644	2690.175
2737.24852	2685.575
2739.83899	2665.975
2742.42786	2677.575
2745.01513	2691.675
2747.60079	2669.575
2750.18486	2652.975
2752.76733	2672.075
2755.3482	2654.875
2757.92747	2655.675
2760.50515	2638.775
2763.08123	2634.275
2765.65573	2644.175
2768.22863	2634.075
2770.79994	2615.575
2773.36967	2628.175
2775.9378	2613.775
2778.50435	2606.575
2781.06932	2595.375
2783.6327	2582.575
2786.1945	2613.775
2788.75471	2581.175
2791.31335	2589.775
2793.87041	2576.475
2796.42589	2564.775
2798.97979	2550.775
2801.53212	2557.175
2804.08288	2559.875
2806.63206	2547.675
2809.17967	2525.375
2811.72571	2543.075
2814.27018	2526.675
2816.81308	2506.375
2819.35442	2480.375
2821.89419	2501.575
2824.43239	2489.575
2826.96904	2499.275
2829.50412	2483.175
2832.03763	2492.475
2834.56959	2498.675
2837.1	2473.975
2839.62884	2488.275
2842.15613	2469.275
2844.68186	2488.175
2847.20604	2456.775
2849.72867	2463.175
2852.24974	2450.475
2854.76927	2427.175
2857.28724	2383.775
2859.80367	2437.975
2862.31855	2434.675
2864.83189	2430.575
2867.34368	2421.075
2869.85393	2439.575
2872.36264	2402.275
2874.8698	2407.575
2877.37543	2416.575
2879.87952	2406.075
2882.38207	2387.475
2884.88308	2400.375
2887.38256	2407.975
2889.88051	2400.275
2892.37692	2397.375
2894.8718	2376.575
2897.36515	2397.475
2899.85698	2387.675
2902.34727	2383.775
2904.83604	2375.375
2907.32328	2393.975
2909.809	2388.875
2912.29319	2376.075
2914.77587	2378.175
2917.25702	2387.675
2919.73665	2386.475
2922.21476	2388.475
2924.69136	2382.975
2927.16644	2370.975
2929.64	2379.975
2932.11205	2361.775
2934.58258	2388.075
2937.05161	2367.675
2939.51912	2356.375
2941.98513	2386.575
2944.44962	2369.575
2946.91261	2348.275
2949.37409	2353.975
2951.83407	2349.675
2954.29254	2344.675
2956.74951	2363.075
2959.20498	2335.275
2961.65895	2351.475
2964.11142	2334.975
2966.56239	2347.175
2969.01186	2345.875
2971.45984	2347.575
2973.90632	2330.575
2976.35131	2347.275
2978.7948	2330.575
2981.23681	2327.075
2983.67732	2329.575
2986.11635	2328.875
2988.55388	2301.175
2990.98993	2304.875
2993.4245	2291.975
2995.85758	2288.575
2998.28917	2283.175
3000.71928	2275.475
3003.14791	2273.375
3005.57506	2259.975
3008.00073	2253.175
3010.42493	2199.475
3012.84764	2253.675
3015.26888	2255.275
3017.68865	2258.775
3020.10694	2215.675
3022.52376	2231.975
3024.9391	2233.675
3027.35298	2221.475
3029.76539	2212.275
3032.17632	2211.875
3034.5858	2217.375
3036.9938	2227.575
3039.40034	2220.875
3041.80542	2216.575
3044.20903	2201.875
3046.61118	2195.575
3049.01187	2208.275
3051.4111	2190.275
3053.80888	2184.475
3056.20519	2172.475
3058.60005	2166.775
3060.99345	2178.675
3063.3854	2155.675
3065.7759	2157.875
3068.16494	2139.075
3070.55254	2131.475
3072.93868	2163.475
3075.32338	2137.475
3077.70662	2137.075
3080.08842	2131.175
3082.46878	2118.875
3084.84769	2133.875
3087.22515	2118.775
3089.60118	2135.775
3091.97576	2119.575
3094.3489	2121.275
3096.72061	2109.375
3099.09087	2110.975
3101.4597	2129.575
3103.82709	2111.075
3106.19305	2101.275
3108.55757	2115.975
3110.92066	2107.775
3113.28232	2112.475
3115.64255	2103.075
3118.00134	2115.075
3120.35871	2076.175
3122.71466	2071.975
3125.06917	2080.375
3127.42226	2076.575
3129.77393	2057.175
3132.12417	2076.175
3134.47299	2081.075
3136.82039	2061.475
3139.16636	2041.475
3141.51092	2054.775
3143.85406	2069.775
3146.19579	2048.375
3148.53609	2035.275
3150.87499	2054.775
3153.21246	2043.375
3155.54853	2052.675
3157.88318	2050.275
3160.21642	2053.775
3162.54826	2057.575
3164.87868	2064.175
3167.2077	2017.675
3169.5353	2044.275
3171.86151	2054.075
3174.18631	2031.075
3176.5097	2042.575
3178.83169	2044.575
3181.15228	2044.475
3183.47147	2024.075
3185.78926	2017.375
3188.10565	2017.875
3190.42065	1992.975
3192.73424	2015.775
3195.04645	2007.675
3197.35725	1998.375
3199.66667	2003.675
3201.97469	1998.975
3204.28132	1985.375
3206.58656	1997.275
3208.8904	2003.375
3211.19287	1996.175
3213.49394	1991.875
3215.79363	1984.575
3218.09193	1995.575
3220.38884	1995.975
3222.68438	1990.275
3224.97853	1967.375
3227.2713	1984.375
3229.56269	1980.675
3231.8527	1981.675
3234.14133	1968.775
3236.42858	1966.075
3238.71446	1952.275
3240.99896	1969.775
3243.28209	1950.375
3245.56384	1955.975
3247.84423	1956.075
3250.12324	1946.775
3252.40088	1941.975
3254.67715	1937.475
3256.95205	1928.275
3259.22558	1939.975
3261.49775	1937.975
3263.76855	1940.475
3266.03799	1950.475
3268.30606	1946.575
3270.57277	1933.775
3272.83812	1914.575
3275.10211	1917.175
3277.36474	1930.775
3279.62601	1931.375
3281.88593	1901.275
3284.14448	1889.975
3286.40168	1900.075
3288.65753	1878.275
3290.91202	1900.875
3293.16516	1856.375
3295.41695	1891.375
3297.66738	1889.675
3299.91647	1867.775
3302.16421	1859.275
3304.4106	1819.975
3306.65564	1844.875
3308.89933	1811.075
3311.14169	1814.375
3313.38269	1796.175
3315.62236	1778.975
3317.86068	1764.275
3320.09766	1760.275
3322.3333	1729.375
3324.5676	1716.175
3326.80056	1695.975
3329.03219	1695.675
3331.26248	0.275
3333.49143	-0.725
3335.71905	1.075
