Data from AgNPs_UA_10uM_CRN_500uM_SU_RamanShift__90__13-20-20-272.txt Node

Date: Thu Aug 04 13:20:20 BST 2022
User: TCL
Spectrometer: QEP01345
Trigger mode: 4
Integration Time (sec): 1.000000E0
Scans to average: 10
Electric dark correction enabled: true
Nonlinearity correction enabled: false
Boxcar width: 0
XAxis mode: Raman Shifts
Number of Pixels in Spectrum: 1044
>>>>>Begin Spectral Data<<<<<
46.04893	0.4
50.45542	-0.6
54.85868	1
59.25871	-0.7
63.6555	21.6
68.04907	22.8
72.43941	22
76.82654	21.7
81.21044	25.2
85.59113	25.7
89.96862	26.6
94.34289	26.3
98.71396	28.4
103.08183	28.8
107.4465	28.3
111.80798	30.9
116.16626	31.5
120.52136	31.9
124.87327	36.5
129.222	37.3
133.56755	37.7
137.90993	39.5
142.24913	46.8
146.58517	53.4
150.91804	62.5
155.24774	77.5
159.57429	98
163.89768	128.5
168.21792	171.3
172.53501	232.1
176.84895	324.7
181.15975	461.3
185.46741	655.1
189.77193	910.1
194.07331	1217
198.37157	1576.5
202.6667	1952
206.9587	2324.9
211.24758	2696.8
215.53334	3067.5
219.81599	3468.5
224.09553	3909.7
228.37195	4411.3
232.64527	4928.8
236.91549	5461
241.18261	5971.7
245.44663	6368.1
249.70755	6672.2
253.96539	6988.4
258.22014	7240.4
262.4718	7458.8
266.72039	7609.7
270.96589	7650.5
275.20832	7623.6
279.44768	7515.1
283.68397	7406.9
287.91719	7320
292.14735	7319
296.37445	7416.3
300.59849	7594.2
304.81948	7840.6
309.03742	8047.1
313.25231	8145.7
317.46415	8066.8
321.67296	7825.9
325.87872	7581.9
330.08145	7427.9
334.28114	7435.9
338.47781	7519.1
342.67145	7667.1
346.86207	7845.7
351.04966	8134.5
355.23424	8396.8
359.4158	8617
363.59435	8732.1
367.76989	8784.8
371.94243	8791.9
376.11196	8796.2
380.27849	8796.4
384.44203	8850.4
388.60257	8887.8
392.76012	8978.5
396.91468	9090
401.06626	9224.1
405.21485	9280.2
409.36047	9177.7
413.50311	8944.7
417.64277	8740.1
421.77947	8580
425.9132	8495.5
430.04396	8501.4
434.17176	8551.6
438.2966	8644.7
442.41849	8812
446.53742	9026.8
450.6534	9220.3
454.76644	9370.6
458.87653	9391.1
462.98368	9403.8
467.08789	9326.7
471.18916	9168.2
475.2875	9009.6
479.38291	8831.5
483.4754	8729.9
487.56496	8647.6
491.6516	8608.4
495.73531	8613.2
499.81612	8660.6
503.89401	8727.3
507.96899	8765.5
512.04106	8815.8
516.11023	8856.5
520.1765	8894.6
524.23987	8908.2
528.30034	8913.6
532.35792	8895.1
536.41261	8836.3
540.46441	8717.6
544.51333	8712.4
548.55936	8786.2
552.60252	8866.6
556.64279	9038.5
560.6802	9153.2
564.71473	9219.7
568.7464	9300.7
572.7752	9258.1
576.80114	9076.4
580.82422	8938.1
584.84444	8927.8
588.86181	8958.3
592.87633	9072
596.888	9243.6
600.89682	9638.6
604.9028	10622.3
608.90594	12575
612.90624	14413.9
616.90371	13313.2
620.89834	10668.3
624.89015	9663.8
628.87913	9585.6
632.86528	9694.7
636.84862	9690.8
640.82913	9472.9
644.80683	9127.5
648.78172	8935.6
652.75379	8955.5
656.72306	9214
660.68952	9484.8
664.65319	9453.6
668.61405	9324.4
672.57211	9439.3
676.52738	9415.8
680.47986	9220.9
684.42955	9038.6
688.37646	9016
692.32058	9078.2
696.26192	9279.2
700.20048	9413.6
704.13626	9442.8
708.06928	9323.1
711.99952	9202.8
715.927	9203.6
719.85171	9252.4
723.77365	9276.3
727.69284	9195.6
731.60928	9118
735.52295	9129.4
739.43388	9163.8
743.34206	9224.2
747.24749	9247.7
751.15017	9234.7
755.05012	9312.9
758.94733	9631.8
762.8418	10328.6
766.73354	11360.2
770.62254	12225.8
774.50882	12438.2
778.39237	12068.6
782.27321	11303.6
786.15132	10494.1
790.02671	9875.9
793.89938	9544.2
797.76935	9392.3
801.6366	9290.9
805.50115	9250.8
809.36299	9204.2
813.22213	9196.7
817.07857	9212.5
820.93231	9180.8
824.78336	9189
828.63172	9213.9
832.47738	9231.5
836.32036	9230.6
840.16066	9231.9
843.99827	9246.9
847.8332	9232.3
851.66546	9234.9
855.49504	9250.2
859.32195	9273.2
863.1462	9230.7
866.96777	9229.1
870.78668	9255.7
874.60293	9276.2
878.41652	9297.6
882.22745	9390.4
886.03573	9415.4
889.84136	9433.6
893.64433	9384.9
897.44466	9352.3
901.24235	9325.3
905.0374	9314.4
908.8298	9262.3
912.61957	9276.8
916.40671	9282.8
920.19121	9330.2
923.97308	9395
927.75233	9510.8
931.52895	9590
935.30295	9520.3
939.07433	9332
942.84309	9287.6
946.60924	9250.6
950.37278	9241
954.13371	9199
957.89203	9180.9
961.64774	9143.4
965.40086	9153.6
969.15137	9127.3
972.89929	9148.7
976.64461	9156.6
980.38733	9176.1
984.12747	9182.5
987.86502	9237.3
991.59999	9317
995.33237	9437.7
999.06217	9624.5
1002.78939	9816.6
1006.51404	9950.5
1010.23611	10086.7
1013.95561	10166.9
1017.67255	10219.7
1021.38692	10236.5
1025.09872	10235.3
1028.80796	10267.2
1032.51465	10373.5
1036.21877	10478.1
1039.92035	10477.5
1043.61937	10395.7
1047.31584	10277.5
1051.00976	10172
1054.70114	10132.3
1058.38998	10165.4
1062.07627	10199.5
1065.76003	10227.8
1069.44126	10313.9
1073.11995	10471.4
1076.79611	10653.6
1080.46974	10778.5
1084.14085	10879.9
1087.80943	10947.3
1091.47549	11011.9
1095.13903	10971.6
1098.80005	10946
1102.45857	11005
1106.11456	10991.9
1109.76805	10878
1113.41903	10835.8
1117.06751	10944.4
1120.71348	11126
1124.35696	11280.7
1127.99793	11385.1
1131.63641	11210.5
1135.2724	10969.6
1138.90589	10733.2
1142.5369	10595.4
1146.16542	10480.4
1149.79145	10410.4
1153.415	10293.6
1157.03607	10302.7
1160.65467	10416.2
1164.27079	10618.7
1167.88443	10941.8
1171.49561	11454.9
1175.10432	12180.9
1178.71056	13152.8
1182.31434	13996.7
1185.91565	14381.4
1189.51451	14369.3
1193.11091	14141.1
1196.70485	13745.4
1200.29634	13343.5
1203.88538	12906.8
1207.47197	12452.3
1211.05612	11986.3
1214.63782	11640.7
1218.21708	11398.3
1221.79391	11311.8
1225.36829	11339.6
1228.94024	11298.9
1232.50976	11241.2
1236.07685	11183.9
1239.6415	11207.7
1243.20374	11249.5
1246.76355	11350.2
1250.32093	11453.1
1253.8759	11671.1
1257.42845	11939.2
1260.97859	12265.5
1264.52631	12572.7
1268.07163	12837.3
1271.61453	12999
1275.15503	13099.2
1278.69312	13208.4
1282.22882	13313.4
1285.76211	13447.9
1289.29301	13582.1
1292.82151	13787.9
1296.34761	14058.8
1299.87133	14487.5
1303.39266	15293.4
1306.9116	16440.1
1310.42815	17637.9
1313.94233	18239.2
1317.45412	17839.4
1320.96354	16919.1
1324.47058	15970.4
1327.97525	15167.5
1331.47754	14643.9
1334.97747	14532.7
1338.47502	14650.9
1341.97022	15107.2
1345.46305	15798.1
1348.95352	16814.2
1352.44163	17861.4
1355.92738	18935.8
1359.41078	20202.6
1362.89183	20994.9
1366.37053	19959.6
1369.84688	17532.9
1373.32088	15268.9
1376.79254	13983.2
1380.26186	13384.3
1383.72883	13024.7
1387.19347	12687.5
1390.65578	12318.6
1394.11575	12021.6
1397.57339	11787.5
1401.0287	11711.7
1404.48168	11728.5
1407.93234	11845.5
1411.38068	12006.7
1414.82669	12182.1
1418.27039	12206
1421.71177	12151.2
1425.15083	12076.3
1428.58758	12027.3
1432.02203	12111.5
1435.45416	12201.1
1438.88399	12204.8
1442.31151	12159.4
1445.73673	12134
1449.15965	12106.9
1452.58027	12031.2
1455.9986	12009.3
1459.41463	11953.5
1462.82837	12054.7
1466.23982	12251.7
1469.64898	12471.7
1473.05586	12621.4
1476.46045	12782.9
1479.86276	12928.9
1483.26279	13049.7
1486.66054	13249.7
1490.05602	13590.5
1493.44922	14030.9
1496.84016	14796.3
1500.22882	15835.1
1503.61521	17106
1506.99934	18288.4
1510.38121	18944
1513.76081	18672.6
1517.13816	17467.5
1520.51324	15932.9
1523.88607	14662
1527.25665	13926
1530.62498	13524.2
1533.99105	13330.6
1537.35488	13255.3
1540.71647	13145.9
1544.07581	13071.3
1547.4329	12914.1
1550.78776	12798.3
1554.14038	12682.4
1557.49077	12617.6
1560.83892	12714.1
1564.18484	12941.6
1567.52853	13187.6
1570.86999	13319.9
1574.20922	13364.3
1577.54624	13182.2
1580.88103	12727.2
1584.2136	12286.7
1587.54395	12064.7
1590.87208	12248.9
1594.19801	12783
1597.52172	13411.9
1600.84321	13722.6
1604.16251	13609.7
1607.47959	13275.2
1610.79447	12740.3
1614.10715	12108.3
1617.41763	11503.6
1620.7259	11050.2
1624.03199	10819
1627.33587	10794.9
1630.63757	10922.1
1633.93707	11377.7
1637.23439	12082.5
1640.52951	13093.5
1643.82246	14322.5
1647.11321	15470.5
1650.40179	15772
1653.68819	14860.7
1656.97241	13213.3
1660.25446	11707.5
1663.53433	10724.9
1666.81203	10110.7
1670.08756	9733.3
1673.36092	9503.3
1676.63211	9371
1679.90115	9225.9
1683.16801	9151.5
1686.43272	9070.6
1689.69527	9001.9
1692.95567	8968.7
1696.2139	8946.7
1699.46999	8914.2
1702.72392	8893.6
1705.97571	8882.5
1709.22535	8900.8
1712.47284	8884.5
1715.71819	8912.8
1718.96139	8884
1722.20246	8875.3
1725.44139	8841.1
1728.67818	8786.5
1731.91284	8748.6
1735.14537	8713
1738.37576	8683.1
1741.60403	8648
1744.83017	8606.6
1748.05418	8630.2
1751.27607	8595.6
1754.49584	8560.7
1757.71349	8564.7
1760.92903	8571.8
1764.14244	8536
1767.35375	8522.9
1770.56294	8505
1773.77002	8493.3
1776.97499	8487
1780.17785	8445.2
1783.37861	8411.5
1786.57727	8417.2
1789.77382	8407.3
1792.96828	8387.1
1796.16064	8386.6
1799.3509	8362.6
1802.53907	8386.2
1805.72514	8345
1808.90913	8335.3
1812.09102	8331.4
1815.27083	8277.3
1818.44856	8257
1821.6242	8241
1824.79776	8217.4
1827.96924	8216.3
1831.13864	8202.4
1834.30597	8210.3
1837.47122	8164.3
1840.6344	8155.5
1843.7955	8165.1
1846.95454	8162.3
1850.11151	8163.1
1853.26642	8162.4
1856.41926	8157.5
1859.57004	8162.2
1862.71876	8152.7
1865.86542	8133.4
1869.01003	8135.5
1872.15258	8119.2
1875.29308	8111.5
1878.43152	8112.3
1881.56792	8092.6
1884.70227	8069.1
1887.83457	8048.3
1890.96482	8040.5
1894.09304	8010.3
1897.21921	8008.1
1900.34335	8015.7
1903.46544	7990.9
1906.58551	8007.8
1909.70353	7982.1
1912.81953	7996.6
1915.93349	7962.2
1919.04543	7947.4
1922.15534	7947.6
1925.26322	7944.6
1928.36908	7896.4
1931.47292	7884.7
1934.57473	7881
1937.67453	7864.3
1940.77232	7839.5
1943.86808	7800.3
1946.96184	7804.6
1950.05358	7766
1953.14331	7764.2
1956.23103	7730.7
1959.31675	7698.3
1962.40046	7684.2
1965.48217	7655.5
1968.56188	7647.6
1971.63959	7623.6
1974.7153	7618.6
1977.78901	7605.6
1980.86073	7570.8
1983.93046	7535.6
1986.99819	7513.3
1990.06394	7496.4
1993.1277	7466.3
1996.18947	7425.1
1999.24925	7414.5
2002.30706	7379.5
2005.36288	7346.8
2008.41672	7333.9
2011.46859	7292.2
2014.51848	7292.8
2017.56639	7262.8
2020.61233	7242.3
2023.6563	7236.9
2026.6983	7227.3
2029.73833	7180
2032.7764	7168.5
2035.8125	7146.7
2038.84664	7133
2041.87881	7130.9
2044.90903	7119
2047.93729	7118
2050.96359	7098.8
2053.98794	7091.6
2057.01034	7080.1
2060.03078	7085.5
2063.04927	7070.8
2066.06582	7051
2069.08042	7046.1
2072.09307	7058
2075.10378	7016.6
2078.11255	7035.6
2081.11938	7017.4
2084.12426	7015.5
2087.12722	7016.1
2090.12824	6991
2093.12732	7001.2
2096.12447	6992.8
2099.11969	7017.7
2102.11299	7014.6
2105.10435	7022.9
2108.09379	7011.6
2111.08131	7008.1
2114.0669	7011.3
2117.05057	7023
2120.03233	7044.7
2123.01216	7031.3
2125.99008	7027.1
2128.96609	7027.8
2131.94018	7046.8
2134.91236	7028.8
2137.88263	7027.8
2140.851	7036
2143.81746	7046.1
2146.78201	7031
2149.74466	7032.6
2152.7054	7039.8
2155.66425	7041.8
2158.6212	7021.4
2161.57625	7012.9
2164.52941	7018.1
2167.48067	7004.9
2170.43004	7001.6
2173.37752	6999.4
2176.32311	7000.7
2179.26681	6994
2182.20863	7017
2185.14856	7027.3
2188.08661	7004
2191.02278	7010.8
2193.95707	7016.2
2196.88948	6980.7
2199.82001	6991.4
2202.74867	6967.6
2205.67545	6991.4
2208.60037	6993.3
2211.52341	6967.1
2214.44458	6961.7
2217.36388	6937.3
2220.28132	6914.8
2223.1969	6885.8
2226.11061	6896.7
2229.02246	6862.8
2231.93245	6857.2
2234.84058	6846.1
2237.74686	6823.3
2240.65128	6820.1
2243.55385	6813
2246.45456	6803.5
2249.35343	6769.7
2252.25044	6777.1
2255.14561	6771.7
2258.03893	6784.7
2260.93041	6766.1
2263.82004	6738.7
2266.70783	6727.2
2269.59378	6710.3
2272.4779	6684
2275.36017	6660.4
2278.24061	6668.9
2281.11922	6627.1
2283.996	6619
2286.87094	6617.1
2289.74405	6619
2292.61534	6606.2
2295.4848	6584.7
2298.35243	6599
2301.21824	6578.6
2304.08223	6565.7
2306.94439	6569
2309.80474	6581
2312.66327	6574.7
2315.51999	6561
2318.37489	6554.7
2321.22797	6541.6
2324.07925	6533.5
2326.92871	6526.5
2329.77637	6529.7
2332.62222	6506.7
2335.46626	6499.9
2338.3085	6497.5
2341.14893	6520.1
2343.98756	6506.6
2346.8244	6495.5
2349.65943	6472.1
2352.49267	6478.5
2355.32411	6477.5
2358.15376	6463.5
2360.98161	6469.8
2363.80768	6476.4
2366.63195	6457.9
2369.45444	6443
2372.27514	6435.6
2375.09405	6414.8
2377.91118	6392.3
2380.72652	6400.5
2383.54009	6378.2
2386.35187	6366.9
2389.16188	6348.7
2391.97011	6346.4
2394.77657	6317.8
2397.58125	6308.1
2400.38416	6307.1
2403.18529	6308.8
2405.98466	6257
2408.78226	6262.1
2411.57809	6242.3
2414.37216	6225.1
2417.16446	6239
2419.955	6233
2422.74378	6213.4
2425.5308	6216.8
2428.31606	6208.3
2431.09956	6212.9
2433.88131	6190.1
2436.6613	6200.4
2439.43954	6182.6
2442.21603	6186.5
2444.99077	6174.2
2447.76377	6178.3
2450.53501	6173.8
2453.30451	6165.5
2456.07226	6159.6
2458.83827	6158.4
2461.60254	6131.9
2464.36507	6126.5
2467.12586	6107.4
2469.88492	6107.6
2472.64224	6130.4
2475.39782	6116.2
2478.15167	6106.7
2480.90379	6095.2
2483.65417	6102.8
2486.40283	6095.8
2489.14976	6108.6
2491.89497	6102.5
2494.63845	6100
2497.3802	6087.8
2500.12024	6102.7
2502.85855	6080.7
2505.59514	6067.5
2508.33002	6053.3
2511.06318	6042.8
2513.79462	6031
2516.52435	6016.2
2519.25237	6017.1
2521.97867	6002.4
2524.70327	6005.5
2527.42616	5991.4
2530.14734	5969.7
2532.86681	5968.8
2535.58458	5973.3
2538.30065	5973.1
2541.01501	5980.8
2543.72768	5973.6
2546.43864	5954
2549.14791	5945.7
2551.85548	5948.3
2554.56136	5927.9
2557.26554	5936.9
2559.96803	5921.2
2562.66883	5904.9
2565.36794	5881.3
2568.06536	5866.5
2570.7611	5854.4
2573.45514	5849.6
2576.14751	5837.2
2578.83819	5816.7
2581.52719	5818.9
2584.21451	5808.1
2586.90015	5807.6
2589.58411	5797.2
2592.2664	5788.1
2594.94701	5805.1
2597.62594	5769.8
2600.30321	5775.6
2602.9788	5759.6
2605.65273	5764.8
2608.32498	5769.4
2610.99557	5743.2
2613.66449	5736.6
2616.33175	5741.1
2618.99734	5749.7
2621.66128	5730.5
2624.32355	5701.5
2626.98416	5711
2629.64311	5698.6
2632.30041	5695.5
2634.95605	5707.8
2637.61004	5675.4
2640.26238	5674.8
2642.91306	5655.7
2645.56209	5667.3
2648.20948	5639.6
2650.85521	5642.3
2653.4993	5643.6
2656.14175	5643.7
2658.78255	5640.6
2661.42171	5638.3
2664.05923	5628.5
2666.6951	5648.5
2669.32934	5653.7
2671.96194	5647.9
2674.59291	5656.8
2677.22224	5644.2
2679.84993	5663
2682.476	5642.3
2685.10043	5614.9
2687.72324	5638.4
2690.34441	5645.7
2692.96396	5629.5
2695.58188	5631
2698.19818	5632.2
2700.81285	5605.9
2703.4259	5596.6
2706.03733	5578.7
2708.64714	5581.6
2711.25533	5577.7
2713.86191	5580.2
2716.46687	5592.1
2719.07021	5591
2721.67194	5606.5
2724.27206	5579.5
2726.87057	5598.8
2729.46747	5578.1
2732.06276	5573.1
2734.65644	5591.9
2737.24852	5582.9
2739.83899	5572.7
2742.42786	5552.6
2745.01513	5542.7
2747.60079	5524
2750.18486	5529.2
2752.76733	5515.7
2755.3482	5513.5
2757.92747	5505.4
2760.50515	5499.4
2763.08123	5487
2765.65573	5470.2
2768.22863	5473.1
2770.79994	5480.3
2773.36967	5463.5
2775.9378	5434.6
2778.50435	5450.8
2781.06932	5442.2
2783.6327	5446.4
2786.1945	5450
2788.75471	5440.7
2791.31335	5418.2
2793.87041	5413.3
2796.42589	5395.8
2798.97979	5382.6
2801.53212	5355.6
2804.08288	5360.2
2806.63206	5333.7
2809.17967	5354.4
2811.72571	5322.8
2814.27018	5329.7
2816.81308	5305.4
2819.35442	5300.8
2821.89419	5281.1
2824.43239	5276.7
2826.96904	5270.1
2829.50412	5272.6
2832.03763	5252.2
2834.56959	5247.9
2837.1	5238.7
2839.62884	5220.3
2842.15613	5203.2
2844.68186	5223.9
2847.20604	5218.7
2849.72867	5203
2852.24974	5187.7
2854.76927	5171.1
2857.28724	5158.4
2859.80367	5181.9
2862.31855	5167.2
2864.83189	5161.1
2867.34368	5156.3
2869.85393	5155.9
2872.36264	5153.4
2874.8698	5137.8
2877.37543	5146.4
2879.87952	5124.1
2882.38207	5110.8
2884.88308	5109
2887.38256	5112.8
2889.88051	5114.2
2892.37692	5089.3
2894.8718	5094.3
2897.36515	5106.8
2899.85698	5097.5
2902.34727	5086.7
2904.83604	5105.9
2907.32328	5119
2909.809	5118.9
2912.29319	5125.3
2914.77587	5124.4
2917.25702	5135.1
2919.73665	5120
2922.21476	5125.6
2924.69136	5103.1
2927.16644	5096.6
2929.64	5088.2
2932.11205	5071.1
2934.58258	5046.1
2937.05161	5047.6
2939.51912	5066
2941.98513	5062.1
2944.44962	5038.9
2946.91261	5029.2
2949.37409	5056.1
2951.83407	5025.6
2954.29254	5025.1
2956.74951	5021.8
2959.20498	5020.3
2961.65895	5019.2
2964.11142	5020.4
2966.56239	5001
2969.01186	5001.5
2971.45984	5009.1
2973.90632	4998.6
2976.35131	4978.8
2978.7948	4976.8
2981.23681	4961
2983.67732	4955.9
2986.11635	4934.3
2988.55388	4931.1
2990.98993	4907.9
2993.4245	4906.9
2995.85758	4889.1
2998.28917	4867.6
3000.71928	4864
3003.14791	4842.2
3005.57506	4841.2
3008.00073	4824.9
3010.42493	4823
3012.84764	4813.2
3015.26888	4803.1
3017.68865	4796.4
3020.10694	4786.9
3022.52376	4780.3
3024.9391	4754.2
3027.35298	4753.2
3029.76539	4724.8
3032.17632	4736.7
3034.5858	4726.4
3036.9938	4705.9
3039.40034	4713.7
3041.80542	4675.9
3044.20903	4680
3046.61118	4666.8
3049.01187	4663.3
3051.4111	4666.3
3053.80888	4646.9
3056.20519	4631.9
3058.60005	4607.3
3060.99345	4623.1
3063.3854	4601.4
3065.7759	4591.9
3068.16494	4572.7
3070.55254	4561.9
3072.93868	4543.5
3075.32338	4529.5
3077.70662	4535.3
3080.08842	4508.1
3082.46878	4506.1
3084.84769	4499
3087.22515	4477.7
3089.60118	4491
3091.97576	4492
3094.3489	4467.7
3096.72061	4469.8
3099.09087	4464.1
3101.4597	4461.9
3103.82709	4462
3106.19305	4458.1
3108.55757	4472.8
3110.92066	4435.3
3113.28232	4436.2
3115.64255	4428.7
3118.00134	4414.9
3120.35871	4414.9
3122.71466	4393.7
3125.06917	4385.7
3127.42226	4365.1
3129.77393	4375.8
3132.12417	4371.6
3134.47299	4345.3
3136.82039	4342.9
3139.16636	4348.1
3141.51092	4339.9
3143.85406	4337.6
3146.19579	4331.6
3148.53609	4327.2
3150.87499	4323.6
3153.21246	4318.7
3155.54853	4336
3157.88318	4331.4
3160.21642	4317.1
3162.54826	4312.1
3164.87868	4323.6
3167.2077	4307.6
3169.5353	4297.9
3171.86151	4288.8
3174.18631	4283.7
3176.5097	4268.4
3178.83169	4248.7
3181.15228	4260.7
3183.47147	4232.9
3185.78926	4244.9
3188.10565	4228.7
3190.42065	4216.4
3192.73424	4220.6
3195.04645	4211.4
3197.35725	4205.3
3199.66667	4191.5
3201.97469	4193.1
3204.28132	4206.1
3206.58656	4198.4
3208.8904	4203.5
3211.19287	4197.8
3213.49394	4200
3215.79363	4198.1
3218.09193	4201.6
3220.38884	4187.5
3222.68438	4194.4
3224.97853	4185
3227.2713	4183.7
3229.56269	4169.5
3231.8527	4177.4
3234.14133	4162.3
3236.42858	4155.5
3238.71446	4138.1
3240.99896	4128.4
3243.28209	4120.5
3245.56384	4099.8
3247.84423	4098.5
3250.12324	4086.9
3252.40088	4087.8
3254.67715	4083.6
3256.95205	4078.4
3259.22558	4075
3261.49775	4078.3
3263.76855	4069.4
3266.03799	4077.8
3268.30606	4074.1
3270.57277	4065.6
3272.83812	4059.2
3275.10211	4040.8
3277.36474	4031.3
3279.62601	4006.4
3281.88593	4017.5
3284.14448	4013.4
3286.40168	3999.7
3288.65753	4005
3290.91202	4005.5
3293.16516	3997.5
3295.41695	3988.6
3297.66738	3972.8
3299.91647	3962.7
3302.16421	3945.6
3304.4106	3903.7
3306.65564	3890.2
3308.89933	3843.5
3311.14169	3823.6
3313.38269	3784.3
3315.62236	3760.8
3317.86068	3738.4
3320.09766	3716
3322.3333	3695.7
3324.5676	3668.8
3326.80056	3606.8
3329.03219	3576.3
3331.26248	1.5
3333.49143	0.3
3335.71905	-0.5
