Data from AgNPs_UA_20uM_CRN_500uM_SU_RamanShift__77__13-49-20-306.txt Node

Date: Thu Aug 04 13:49:20 BST 2022
User: TCL
Spectrometer: QEP01345
Trigger mode: 4
Integration Time (sec): 1.000000E0
Scans to average: 10
Electric dark correction enabled: true
Nonlinearity correction enabled: false
Boxcar width: 0
XAxis mode: Raman Shifts
Number of Pixels in Spectrum: 1044
>>>>>Begin Spectral Data<<<<<
46.04893	-0.8875
50.45542	0.1125
54.85868	1.4125
59.25871	-0.1875
63.6555	12.8125
68.04907	9.9125
72.43941	14.0125
76.82654	11.2125
81.21044	13.4125
85.59113	16.1125
89.96862	14.1125
94.34289	15.2125
98.71396	13.9125
103.08183	17.0125
107.4465	13.8125
111.80798	16.3125
116.16626	19.0125
120.52136	18.2125
124.87327	16.9125
129.222	22.1125
133.56755	23.1125
137.90993	24.1125
142.24913	26.7125
146.58517	28.2125
150.91804	33.9125
155.24774	39.3125
159.57429	52.6125
163.89768	66.9125
168.21792	88.8125
172.53501	124.0125
176.84895	166.0125
181.15975	244.8125
185.46741	344.2125
189.77193	473.2125
194.07331	635.4125
198.37157	818.7125
202.6667	1017.5125
206.9587	1211.1125
211.24758	1416.9125
215.53334	1610.4125
219.81599	1829.9125
224.09553	2072.0125
228.37195	2334.5125
232.64527	2637.9125
236.91549	2899.4125
241.18261	3144.1125
245.44663	3342.8125
249.70755	3501.1125
253.96539	3614.6125
258.22014	3741.4125
262.4718	3835.9125
266.72039	3908.0125
270.96589	3953.2125
275.20832	3940.8125
279.44768	3892.5125
283.68397	3812.9125
287.91719	3770.9125
292.14735	3780.9125
296.37445	3840.4125
300.59849	3982.2125
304.81948	4155.0125
309.03742	4317.9125
313.25231	4391.8125
317.46415	4314.9125
321.67296	4137.0125
325.87872	3947.0125
330.08145	3850.8125
334.28114	3833.2125
338.47781	3904.9125
342.67145	3988.5125
346.86207	4107.3125
351.04966	4285.2125
355.23424	4451.8125
359.4158	4561.7125
363.59435	4637.3125
367.76989	4660.9125
371.94243	4663.6125
376.11196	4639.7125
380.27849	4631.3125
384.44203	4629.4125
388.60257	4626.1125
392.76012	4671.8125
396.91468	4719.2125
401.06626	4807.5125
405.21485	4834.7125
409.36047	4747.4125
413.50311	4589.1125
417.64277	4409.1125
421.77947	4296.2125
425.9132	4281.6125
430.04396	4291.5125
434.17176	4331.0125
438.2966	4422.3125
442.41849	4532.7125
446.53742	4656.7125
450.6534	4802.0125
454.76644	4854.1125
458.87653	4858.5125
462.98368	4821.5125
467.08789	4744.4125
471.18916	4651.4125
475.2875	4522.9125
479.38291	4434.9125
483.4754	4364.9125
487.56496	4331.3125
491.6516	4285.7125
495.73531	4294.9125
499.81612	4287.7125
503.89401	4319.6125
507.96899	4352.9125
512.04106	4400.9125
516.11023	4461.0125
520.1765	4492.7125
524.23987	4507.2125
528.30034	4506.7125
532.35792	4475.7125
536.41261	4427.0125
540.46441	4362.8125
544.51333	4335.5125
548.55936	4376.1125
552.60252	4432.0125
556.64279	4517.3125
560.6802	4565.1125
564.71473	4621.8125
568.7464	4700.2125
572.7752	4704.7125
576.80114	4591.5125
580.82422	4480.9125
584.84444	4484.0125
588.86181	4536.5125
592.87633	4622.0125
596.888	4733.0125
600.89682	4946.8125
604.9028	5519.8125
608.90594	6816.7125
612.90624	8076.2125
616.90371	7378.3125
620.89834	5571.3125
624.89015	4856.7125
628.87913	4770.0125
632.86528	4808.3125
636.84862	4791.4125
640.82913	4660.8125
644.80683	4474.4125
648.78172	4393.0125
652.75379	4426.2125
656.72306	4584.2125
660.68952	4752.9125
664.65319	4691.5125
668.61405	4527.2125
672.57211	4495.9125
676.52738	4481.1125
680.47986	4435.4125
684.42955	4386.9125
688.37646	4391.4125
692.32058	4409.8125
696.26192	4473.9125
700.20048	4531.9125
704.13626	4556.6125
708.06928	4523.6125
711.99952	4481.0125
715.927	4485.5125
719.85171	4511.1125
723.77365	4500.6125
727.69284	4460.3125
731.60928	4416.7125
735.52295	4439.6125
739.43388	4478.6125
743.34206	4489.6125
747.24749	4512.8125
751.15017	4517.0125
755.05012	4599.5125
758.94733	4789.2125
762.8418	5270.2125
766.73354	5980.2125
770.62254	6590.8125
774.50882	6730.2125
778.39237	6353.5125
782.27321	5711.6125
786.15132	5106.6125
790.02671	4773.3125
793.89938	4597.1125
797.76935	4546.3125
801.6366	4499.5125
805.50115	4472.7125
809.36299	4463.6125
813.22213	4449.9125
817.07857	4455.8125
820.93231	4440.5125
824.78336	4453.0125
828.63172	4492.6125
832.47738	4498.1125
836.32036	4481.3125
840.16066	4481.3125
843.99827	4490.2125
847.8332	4490.6125
851.66546	4493.3125
855.49504	4502.3125
859.32195	4504.0125
863.1462	4486.6125
866.96777	4486.0125
870.78668	4459.3125
874.60293	4471.9125
878.41652	4485.5125
882.22745	4530.1125
886.03573	4546.0125
889.84136	4537.9125
893.64433	4514.1125
897.44466	4497.4125
901.24235	4487.5125
905.0374	4490.1125
908.8298	4462.0125
912.61957	4452.6125
916.40671	4484.6125
920.19121	4503.4125
923.97308	4571.3125
927.75233	4633.9125
931.52895	4664.4125
935.30295	4616.3125
939.07433	4519.1125
942.84309	4447.0125
946.60924	4406.9125
950.37278	4408.8125
954.13371	4392.2125
957.89203	4387.2125
961.64774	4371.7125
965.40086	4358.2125
969.15137	4338.8125
972.89929	4345.0125
976.64461	4322.9125
980.38733	4364.2125
984.12747	4381.4125
987.86502	4404.0125
991.59999	4484.5125
995.33237	4547.2125
999.06217	4655.3125
1002.78939	4784.7125
1006.51404	4866.5125
1010.23611	4921.1125
1013.95561	4965.7125
1017.67255	4994.2125
1021.38692	4961.1125
1025.09872	4924.4125
1028.80796	4948.2125
1032.51465	5040.9125
1036.21877	5119.5125
1039.92035	5122.4125
1043.61937	5069.6125
1047.31584	4996.3125
1051.00976	4924.4125
1054.70114	4891.9125
1058.38998	4902.1125
1062.07627	4921.9125
1065.76003	4951.9125
1069.44126	5017.2125
1073.11995	5064.3125
1076.79611	5138.2125
1080.46974	5173.2125
1084.14085	5237.5125
1087.80943	5319.6125
1091.47549	5356.0125
1095.13903	5285.4125
1098.80005	5154.7125
1102.45857	5052.2125
1106.11456	5021.8125
1109.76805	5046.5125
1113.41903	5118.3125
1117.06751	5239.5125
1120.71348	5375.6125
1124.35696	5562.0125
1127.99793	5679.0125
1131.63641	5596.3125
1135.2724	5378.4125
1138.90589	5220.6125
1142.5369	5116.6125
1146.16542	5047.0125
1149.79145	5012.2125
1153.415	4967.8125
1157.03607	4975.1125
1160.65467	5037.1125
1164.27079	5175.4125
1167.88443	5369.2125
1171.49561	5662.2125
1175.10432	6137.5125
1178.71056	6741.2125
1182.31434	7291.6125
1185.91565	7524.3125
1189.51451	7438.3125
1193.11091	7178.2125
1196.70485	6820.3125
1200.29634	6553.0125
1203.88538	6293.3125
1207.47197	5984.1125
1211.05612	5715.8125
1214.63782	5580.1125
1218.21708	5503.0125
1221.79391	5490.3125
1225.36829	5521.4125
1228.94024	5524.3125
1232.50976	5479.2125
1236.07685	5466.4125
1239.6415	5451.3125
1243.20374	5496.3125
1246.76355	5527.1125
1250.32093	5612.5125
1253.8759	5729.5125
1257.42845	5893.6125
1260.97859	6063.1125
1264.52631	6233.6125
1268.07163	6343.0125
1271.61453	6450.6125
1275.15503	6519.5125
1278.69312	6632.4125
1282.22882	6698.5125
1285.76211	6840.5125
1289.29301	7014.8125
1292.82151	7202.9125
1296.34761	7437.2125
1299.87133	7759.4125
1303.39266	8301.9125
1306.9116	9039.8125
1310.42815	9736.2125
1313.94233	9972.0125
1317.45412	9609.0125
1320.96354	8981.5125
1324.47058	8364.2125
1327.97525	7812.0125
1331.47754	7565.3125
1334.97747	7529.8125
1338.47502	7668.4125
1341.97022	7924.2125
1345.46305	8248.6125
1348.95352	8685.4125
1352.44163	9256.8125
1355.92738	9996.4125
1359.41078	11012.9125
1362.89183	11731.8125
1366.37053	11131.6125
1369.84688	9494.4125
1373.32088	8012.6125
1376.79254	7176.5125
1380.26186	6790.8125
1383.72883	6617.8125
1387.19347	6450.5125
1390.65578	6244.0125
1394.11575	6066.3125
1397.57339	5922.6125
1401.0287	5858.7125
1404.48168	5870.0125
1407.93234	5898.4125
1411.38068	6013.9125
1414.82669	6109.9125
1418.27039	6138.5125
1421.71177	6092.1125
1425.15083	6061.4125
1428.58758	6075.1125
1432.02203	6183.1125
1435.45416	6268.7125
1438.88399	6265.0125
1442.31151	6227.7125
1445.73673	6193.4125
1449.15965	6173.2125
1452.58027	6119.8125
1455.9986	6037.3125
1459.41463	5996.5125
1462.82837	6061.9125
1466.23982	6172.1125
1469.64898	6271.9125
1473.05586	6352.7125
1476.46045	6404.0125
1479.86276	6485.1125
1483.26279	6561.7125
1486.66054	6674.8125
1490.05602	6885.3125
1493.44922	7222.6125
1496.84016	7743.0125
1500.22882	8490.3125
1503.61521	9412.8125
1506.99934	10342.3125
1510.38121	10844.2125
1513.76081	10640.7125
1517.13816	9758.5125
1520.51324	8682.3125
1523.88607	7813.0125
1527.25665	7316.5125
1530.62498	7063.3125
1533.99105	6923.4125
1537.35488	6867.5125
1540.71647	6802.9125
1544.07581	6752.3125
1547.4329	6687.7125
1550.78776	6612.4125
1554.14038	6567.1125
1557.49077	6555.8125
1560.83892	6576.1125
1564.18484	6715.8125
1567.52853	6861.4125
1570.86999	7013.5125
1574.20922	7025.9125
1577.54624	6885.1125
1580.88103	6591.9125
1584.2136	6271.8125
1587.54395	6113.9125
1590.87208	6251.0125
1594.19801	6591.6125
1597.52172	7037.9125
1600.84321	7291.1125
1604.16251	7236.6125
1607.47959	7001.4125
1610.79447	6630.9125
1614.10715	6188.6125
1617.41763	5806.8125
1620.7259	5555.6125
1624.03199	5408.2125
1627.33587	5417.2125
1630.63757	5555.1125
1633.93707	5790.4125
1637.23439	6253.6125
1640.52951	6897.8125
1643.82246	7715.1125
1647.11321	8426.3125
1650.40179	8596.7125
1653.68819	7993.3125
1656.97241	6924.2125
1660.25446	5960.6125
1663.53433	5305.0125
1666.81203	4946.9125
1670.08756	4718.8125
1673.36092	4587.5125
1676.63211	4507.6125
1679.90115	4437.3125
1683.16801	4380.7125
1686.43272	4340.2125
1689.69527	4311.4125
1692.95567	4314.2125
1696.2139	4284.3125
1699.46999	4276.1125
1702.72392	4261.6125
1705.97571	4274.5125
1709.22535	4262.1125
1712.47284	4274.4125
1715.71819	4261.5125
1718.96139	4252.5125
1722.20246	4252.3125
1725.44139	4221.5125
1728.67818	4190.0125
1731.91284	4190.7125
1735.14537	4166.7125
1738.37576	4151.4125
1741.60403	4126.8125
1744.83017	4133.6125
1748.05418	4122.0125
1751.27607	4115.7125
1754.49584	4091.2125
1757.71349	4088.5125
1760.92903	4084.0125
1764.14244	4075.3125
1767.35375	4063.6125
1770.56294	4074.4125
1773.77002	4062.6125
1776.97499	4054.4125
1780.17785	4057.1125
1783.37861	4043.8125
1786.57727	4023.5125
1789.77382	4028.4125
1792.96828	4019.4125
1796.16064	4009.5125
1799.3509	4009.7125
1802.53907	4000.9125
1805.72514	3997.1125
1808.90913	3984.9125
1812.09102	3993.5125
1815.27083	3974.0125
1818.44856	3962.3125
1821.6242	3969.4125
1824.79776	3955.4125
1827.96924	3940.3125
1831.13864	3936.6125
1834.30597	3936.7125
1837.47122	3936.5125
1840.6344	3917.4125
1843.7955	3914.2125
1846.95454	3916.4125
1850.11151	3912.0125
1853.26642	3924.4125
1856.41926	3931.5125
1859.57004	3909.3125
1862.71876	3903.9125
1865.86542	3904.7125
1869.01003	3900.5125
1872.15258	3894.6125
1875.29308	3897.4125
1878.43152	3901.3125
1881.56792	3888.3125
1884.70227	3884.8125
1887.83457	3898.5125
1890.96482	3887.1125
1894.09304	3868.2125
1897.21921	3851.2125
1900.34335	3865.4125
1903.46544	3862.3125
1906.58551	3871.2125
1909.70353	3874.2125
1912.81953	3867.6125
1915.93349	3866.2125
1919.04543	3853.5125
1922.15534	3851.5125
1925.26322	3838.3125
1928.36908	3837.7125
1931.47292	3832.7125
1934.57473	3825.7125
1937.67453	3814.6125
1940.77232	3821.9125
1943.86808	3802.8125
1946.96184	3780.4125
1950.05358	3785.6125
1953.14331	3771.9125
1956.23103	3766.3125
1959.31675	3743.5125
1962.40046	3726.0125
1965.48217	3714.6125
1968.56188	3726.1125
1971.63959	3717.3125
1974.7153	3705.5125
1977.78901	3695.8125
1980.86073	3684.3125
1983.93046	3662.9125
1986.99819	3661.2125
1990.06394	3636.4125
1993.1277	3637.2125
1996.18947	3625.3125
1999.24925	3622.3125
2002.30706	3610.1125
2005.36288	3584.4125
2008.41672	3566.9125
2011.46859	3579.3125
2014.51848	3564.4125
2017.56639	3550.6125
2020.61233	3548.3125
2023.6563	3544.2125
2026.6983	3534.8125
2029.73833	3521.4125
2032.7764	3524.6125
2035.8125	3507.5125
2038.84664	3510.8125
2041.87881	3507.9125
2044.90903	3499.1125
2047.93729	3492.6125
2050.96359	3489.2125
2053.98794	3469.8125
2057.01034	3483.6125
2060.03078	3470.0125
2063.04927	3468.3125
2066.06582	3458.7125
2069.08042	3467.5125
2072.09307	3462.7125
2075.10378	3467.9125
2078.11255	3458.1125
2081.11938	3463.6125
2084.12426	3457.6125
2087.12722	3439.7125
2090.12824	3440.8125
2093.12732	3457.5125
2096.12447	3447.4125
2099.11969	3458.3125
2102.11299	3460.0125
2105.10435	3452.7125
2108.09379	3454.0125
2111.08131	3457.2125
2114.0669	3458.9125
2117.05057	3456.1125
2120.03233	3452.1125
2123.01216	3442.2125
2125.99008	3471.8125
2128.96609	3479.2125
2131.94018	3480.8125
2134.91236	3471.3125
2137.88263	3459.8125
2140.851	3464.4125
2143.81746	3467.1125
2146.78201	3470.5125
2149.74466	3470.9125
2152.7054	3471.0125
2155.66425	3478.2125
2158.6212	3482.9125
2161.57625	3466.1125
2164.52941	3479.7125
2167.48067	3467.9125
2170.43004	3458.6125
2173.37752	3464.8125
2176.32311	3477.4125
2179.26681	3470.7125
2182.20863	3476.5125
2185.14856	3478.4125
2188.08661	3458.9125
2191.02278	3472.9125
2193.95707	3480.5125
2196.88948	3471.3125
2199.82001	3468.3125
2202.74867	3450.1125
2205.67545	3469.0125
2208.60037	3460.8125
2211.52341	3456.0125
2214.44458	3460.7125
2217.36388	3448.8125
2220.28132	3439.2125
2223.1969	3418.8125
2226.11061	3420.3125
2229.02246	3413.9125
2231.93245	3403.0125
2234.84058	3402.5125
2237.74686	3394.3125
2240.65128	3407.9125
2243.55385	3391.4125
2246.45456	3401.1125
2249.35343	3378.8125
2252.25044	3366.2125
2255.14561	3387.5125
2258.03893	3374.4125
2260.93041	3372.1125
2263.82004	3366.5125
2266.70783	3363.9125
2269.59378	3371.6125
2272.4779	3337.2125
2275.36017	3319.5125
2278.24061	3306.8125
2281.11922	3319.7125
2283.996	3311.7125
2286.87094	3294.8125
2289.74405	3292.6125
2292.61534	3301.9125
2295.4848	3301.2125
2298.35243	3289.5125
2301.21824	3295.1125
2304.08223	3299.7125
2306.94439	3302.7125
2309.80474	3303.6125
2312.66327	3302.7125
2315.51999	3285.7125
2318.37489	3287.0125
2321.22797	3299.3125
2324.07925	3301.3125
2326.92871	3278.1125
2329.77637	3270.1125
2332.62222	3281.6125
2335.46626	3280.5125
2338.3085	3269.4125
2341.14893	3273.5125
2343.98756	3281.9125
2346.8244	3277.5125
2349.65943	3277.4125
2352.49267	3273.0125
2355.32411	3273.8125
2358.15376	3275.3125
2360.98161	3270.8125
2363.80768	3269.2125
2366.63195	3263.7125
2369.45444	3252.7125
2372.27514	3249.9125
2375.09405	3252.2125
2377.91118	3239.1125
2380.72652	3244.0125
2383.54009	3229.8125
2386.35187	3216.2125
2389.16188	3208.1125
2391.97011	3212.7125
2394.77657	3212.8125
2397.58125	3195.8125
2400.38416	3200.9125
2403.18529	3191.5125
2405.98466	3193.4125
2408.78226	3176.3125
2411.57809	3171.5125
2414.37216	3150.6125
2417.16446	3161.7125
2419.955	3161.3125
2422.74378	3166.0125
2425.5308	3150.0125
2428.31606	3141.4125
2431.09956	3124.7125
2433.88131	3143.6125
2436.6613	3137.6125
2439.43954	3153.5125
2442.21603	3144.6125
2444.99077	3151.0125
2447.76377	3133.1125
2450.53501	3133.2125
2453.30451	3137.7125
2456.07226	3132.5125
2458.83827	3134.0125
2461.60254	3126.3125
2464.36507	3123.9125
2467.12586	3118.0125
2469.88492	3121.6125
2472.64224	3117.1125
2475.39782	3126.8125
2478.15167	3130.2125
2480.90379	3122.9125
2483.65417	3127.4125
2486.40283	3134.4125
2489.14976	3136.9125
2491.89497	3144.3125
2494.63845	3133.8125
2497.3802	3133.6125
2500.12024	3130.6125
2502.85855	3117.2125
2505.59514	3121.2125
2508.33002	3100.8125
2511.06318	3086.5125
2513.79462	3079.8125
2516.52435	3081.5125
2519.25237	3092.7125
2521.97867	3076.7125
2524.70327	3076.2125
2527.42616	3075.8125
2530.14734	3073.1125
2532.86681	3065.5125
2535.58458	3070.9125
2538.30065	3068.6125
2541.01501	3060.9125
2543.72768	3062.1125
2546.43864	3077.3125
2549.14791	3051.1125
2551.85548	3069.4125
2554.56136	3060.9125
2557.26554	3066.9125
2559.96803	3051.7125
2562.66883	3040.1125
2565.36794	3033.0125
2568.06536	3023.1125
2570.7611	3025.0125
2573.45514	3014.7125
2576.14751	3025.7125
2578.83819	3004.9125
2581.52719	3011.0125
2584.21451	3015.0125
2586.90015	2999.9125
2589.58411	2993.2125
2592.2664	2984.3125
2594.94701	3002.3125
2597.62594	2999.4125
2600.30321	2987.8125
2602.9788	2991.3125
2605.65273	2991.9125
2608.32498	2982.9125
2610.99557	2971.2125
2613.66449	2975.3125
2616.33175	2971.2125
2618.99734	2979.2125
2621.66128	2968.8125
2624.32355	2984.2125
2626.98416	2981.8125
2629.64311	2989.2125
2632.30041	2984.3125
2634.95605	2975.9125
2637.61004	2972.6125
2640.26238	2958.5125
2642.91306	2955.1125
2645.56209	2954.8125
2648.20948	2950.8125
2650.85521	2949.4125
2653.4993	2949.4125
2656.14175	2935.2125
2658.78255	2947.1125
2661.42171	2954.8125
2664.05923	2968.8125
2666.6951	2953.1125
2669.32934	2964.9125
2671.96194	2944.7125
2674.59291	2961.2125
2677.22224	2963.1125
2679.84993	2968.1125
2682.476	2954.9125
2685.10043	2941.2125
2687.72324	2950.7125
2690.34441	2946.9125
2692.96396	2959.2125
2695.58188	2943.5125
2698.19818	2940.9125
2700.81285	2945.6125
2703.4259	2944.9125
2706.03733	2948.0125
2708.64714	2947.6125
2711.25533	2931.8125
2713.86191	2920.3125
2716.46687	2946.0125
2719.07021	2940.1125
2721.67194	2946.6125
2724.27206	2953.8125
2726.87057	2952.4125
2729.46747	2943.2125
2732.06276	2959.3125
2734.65644	2942.7125
2737.24852	2926.5125
2739.83899	2929.5125
2742.42786	2940.7125
2745.01513	2931.6125
2747.60079	2922.6125
2750.18486	2930.8125
2752.76733	2927.0125
2755.3482	2913.9125
2757.92747	2908.0125
2760.50515	2915.4125
2763.08123	2916.4125
2765.65573	2907.2125
2768.22863	2901.2125
2770.79994	2889.9125
2773.36967	2904.7125
2775.9378	2902.2125
2778.50435	2892.8125
2781.06932	2889.5125
2783.6327	2897.5125
2786.1945	2898.9125
2788.75471	2885.5125
2791.31335	2871.7125
2793.87041	2865.4125
2796.42589	2880.7125
2798.97979	2858.1125
2801.53212	2870.8125
2804.08288	2857.3125
2806.63206	2866.2125
2809.17967	2852.0125
2811.72571	2841.4125
2814.27018	2857.5125
2816.81308	2842.9125
2819.35442	2830.9125
2821.89419	2826.1125
2824.43239	2821.5125
2826.96904	2822.2125
2829.50412	2818.1125
2832.03763	2816.0125
2834.56959	2816.5125
2837.1	2806.9125
2839.62884	2805.7125
2842.15613	2803.8125
2844.68186	2809.9125
2847.20604	2803.8125
2849.72867	2790.3125
2852.24974	2797.7125
2854.76927	2780.6125
2857.28724	2772.5125
2859.80367	2773.2125
2862.31855	2777.2125
2864.83189	2772.2125
2867.34368	2781.6125
2869.85393	2775.3125
2872.36264	2769.7125
2874.8698	2772.8125
2877.37543	2767.9125
2879.87952	2778.7125
2882.38207	2755.8125
2884.88308	2759.5125
2887.38256	2756.2125
2889.88051	2754.7125
2892.37692	2750.4125
2894.8718	2739.5125
2897.36515	2753.2125
2899.85698	2758.4125
2902.34727	2757.9125
2904.83604	2761.9125
2907.32328	2762.8125
2909.809	2764.8125
2912.29319	2757.0125
2914.77587	2768.7125
2917.25702	2764.5125
2919.73665	2764.5125
2922.21476	2755.7125
2924.69136	2764.5125
2927.16644	2770.5125
2929.64	2755.9125
2932.11205	2759.8125
2934.58258	2747.0125
2937.05161	2745.2125
2939.51912	2741.8125
2941.98513	2725.0125
2944.44962	2741.2125
2946.91261	2734.4125
2949.37409	2741.3125
2951.83407	2740.4125
2954.29254	2733.5125
2956.74951	2734.2125
2959.20498	2733.3125
2961.65895	2725.7125
2964.11142	2714.9125
2966.56239	2711.5125
2969.01186	2717.4125
2971.45984	2722.9125
2973.90632	2700.7125
2976.35131	2711.4125
2978.7948	2703.9125
2981.23681	2697.4125
2983.67732	2677.1125
2986.11635	2681.4125
2988.55388	2683.2125
2990.98993	2679.1125
2993.4245	2674.8125
2995.85758	2677.4125
2998.28917	2664.7125
3000.71928	2656.3125
3003.14791	2650.0125
3005.57506	2648.8125
3008.00073	2641.1125
3010.42493	2631.0125
3012.84764	2624.4125
3015.26888	2609.6125
3017.68865	2622.4125
3020.10694	2611.4125
3022.52376	2618.8125
3024.9391	2605.8125
3027.35298	2594.5125
3029.76539	2591.3125
3032.17632	2584.9125
3034.5858	2571.2125
3036.9938	2584.6125
3039.40034	2569.8125
3041.80542	2562.5125
3044.20903	2568.2125
3046.61118	2564.8125
3049.01187	2553.1125
3051.4111	2550.0125
3053.80888	2547.6125
3056.20519	2542.8125
3058.60005	2536.7125
3060.99345	2525.3125
3063.3854	2521.5125
3065.7759	2521.0125
3068.16494	2528.4125
3070.55254	2505.6125
3072.93868	2505.3125
3075.32338	2497.6125
3077.70662	2491.3125
3080.08842	2464.7125
3082.46878	2475.3125
3084.84769	2469.5125
3087.22515	2474.3125
3089.60118	2471.8125
3091.97576	2464.7125
3094.3489	2459.0125
3096.72061	2455.9125
3099.09087	2454.4125
3101.4597	2462.7125
3103.82709	2466.7125
3106.19305	2439.5125
3108.55757	2457.7125
3110.92066	2454.2125
3113.28232	2447.1125
3115.64255	2436.2125
3118.00134	2431.1125
3120.35871	2419.5125
3122.71466	2415.3125
3125.06917	2434.8125
3127.42226	2417.3125
3129.77393	2407.6125
3132.12417	2417.0125
3134.47299	2406.6125
3136.82039	2393.0125
3139.16636	2403.5125
3141.51092	2390.7125
3143.85406	2396.7125
3146.19579	2400.0125
3148.53609	2410.3125
3150.87499	2400.3125
3153.21246	2390.4125
3155.54853	2407.4125
3157.88318	2400.0125
3160.21642	2411.3125
3162.54826	2413.8125
3164.87868	2400.3125
3167.2077	2402.6125
3169.5353	2389.0125
3171.86151	2392.5125
3174.18631	2391.0125
3176.5097	2383.6125
3178.83169	2377.0125
3181.15228	2374.5125
3183.47147	2364.8125
3185.78926	2367.1125
3188.10565	2360.6125
3190.42065	2358.2125
3192.73424	2357.2125
3195.04645	2348.1125
3197.35725	2344.8125
3199.66667	2342.0125
3201.97469	2351.5125
3204.28132	2345.0125
3206.58656	2343.9125
3208.8904	2344.4125
3211.19287	2348.9125
3213.49394	2357.6125
3215.79363	2349.3125
3218.09193	2345.3125
3220.38884	2343.8125
3222.68438	2343.4125
3224.97853	2357.9125
3227.2713	2343.2125
3229.56269	2345.0125
3231.8527	2332.3125
3234.14133	2333.9125
3236.42858	2336.7125
3238.71446	2324.5125
3240.99896	2328.1125
3243.28209	2324.4125
3245.56384	2317.2125
3247.84423	2317.3125
3250.12324	2312.6125
3252.40088	2310.7125
3254.67715	2299.4125
3256.95205	2306.7125
3259.22558	2296.2125
3261.49775	2294.8125
3263.76855	2296.2125
3266.03799	2310.7125
3268.30606	2305.7125
3270.57277	2313.6125
3272.83812	2298.0125
3275.10211	2286.3125
3277.36474	2278.1125
3279.62601	2274.9125
3281.88593	2272.3125
3284.14448	2270.7125
3286.40168	2272.2125
3288.65753	2275.3125
3290.91202	2273.7125
3293.16516	2260.1125
3295.41695	2256.8125
3297.66738	2237.1125
3299.91647	2243.1125
3302.16421	2218.7125
3304.4106	2219.5125
3306.65564	2200.5125
3308.89933	2185.5125
3311.14169	2164.0125
3313.38269	2144.7125
3315.62236	2140.9125
3317.86068	2108.8125
3320.09766	2098.4125
3322.3333	2070.1125
3324.5676	2068.3125
3326.80056	2044.7125
3329.03219	2014.5125
3331.26248	2.6125
3333.49143	-1.1875
3335.71905	-1.2875
