Data from AgNPs_UA_50uM_CRN_500uM_SU_RamanShift__46__14-03-30-322.txt Node

Date: Thu Aug 04 14:03:30 BST 2022
User: TCL
Spectrometer: QEP01345
Trigger mode: 4
Integration Time (sec): 1.000000E0
Scans to average: 10
Electric dark correction enabled: true
Nonlinearity correction enabled: false
Boxcar width: 0
XAxis mode: Raman Shifts
Number of Pixels in Spectrum: 1044
>>>>>Begin Spectral Data<<<<<
46.04893	-0.2125
50.45542	0.5875
54.85868	-1.2125
59.25871	-0.9125
63.6555	17.0875
68.04907	16.8875
72.43941	18.8875
76.82654	18.4875
81.21044	20.5875
85.59113	21.9875
89.96862	20.8875
94.34289	22.6875
98.71396	23.4875
103.08183	23.5875
107.4465	21.5875
111.80798	24.1875
116.16626	24.7875
120.52136	24.6875
124.87327	28.6875
129.222	30.8875
133.56755	33.1875
137.90993	34.5875
142.24913	39.1875
146.58517	45.4875
150.91804	51.3875
155.24774	62.9875
159.57429	80.0875
163.89768	104.9875
168.21792	137.5875
172.53501	192.8875
176.84895	271.5875
181.15975	383.9875
185.46741	540.4875
189.77193	760.1875
194.07331	1018.1875
198.37157	1318.5875
202.6667	1635.9875
206.9587	1952.1875
211.24758	2277.3875
215.53334	2598.7875
219.81599	2949.3875
224.09553	3369.6875
228.37195	3813.2875
232.64527	4254.1875
236.91549	4713.2875
241.18261	5092.6875
245.44663	5393.5875
249.70755	5638.2875
253.96539	5839.5875
258.22014	6014.1875
262.4718	6174.9875
266.72039	6273.2875
270.96589	6307.2875
275.20832	6250.4875
279.44768	6152.2875
283.68397	6059.1875
287.91719	5985.3875
292.14735	5986.5875
296.37445	6098.8875
300.59849	6350.1875
304.81948	6643.8875
309.03742	6927.0875
313.25231	7109.0875
317.46415	7007.3875
321.67296	6682.1875
325.87872	6332.2875
330.08145	6143.1875
334.28114	6130.3875
338.47781	6208.7875
342.67145	6348.8875
346.86207	6569.5875
351.04966	6883.2875
355.23424	7194.3875
359.4158	7404.3875
363.59435	7473.7875
367.76989	7467.9875
371.94243	7416.0875
376.11196	7335.4875
380.27849	7306.1875
384.44203	7289.7875
388.60257	7274.7875
392.76012	7333.9875
396.91468	7425.4875
401.06626	7540.7875
405.21485	7593.1875
409.36047	7432.1875
413.50311	7163.8875
417.64277	6891.7875
421.77947	6717.6875
425.9132	6634.9875
430.04396	6631.1875
434.17176	6642.1875
438.2966	6730.3875
442.41849	6825.5875
446.53742	6978.7875
450.6534	7101.2875
454.76644	7216.7875
458.87653	7229.3875
462.98368	7224.2875
467.08789	7179.5875
471.18916	7064.4875
475.2875	6916.9875
479.38291	6759.0875
483.4754	6684.0875
487.56496	6636.3875
491.6516	6612.0875
495.73531	6594.6875
499.81612	6619.6875
503.89401	6677.6875
507.96899	6722.7875
512.04106	6798.6875
516.11023	6855.8875
520.1765	6908.9875
524.23987	6926.3875
528.30034	6905.4875
532.35792	6880.8875
536.41261	6812.2875
540.46441	6725.8875
544.51333	6685.0875
548.55936	6731.5875
552.60252	6826.4875
556.64279	6946.5875
560.6802	7046.5875
564.71473	7185.8875
568.7464	7300.8875
572.7752	7264.2875
576.80114	7016.2875
580.82422	6778.1875
584.84444	6672.3875
588.86181	6668.9875
592.87633	6702.8875
596.888	6848.5875
600.89682	7199.9875
604.9028	8181.0875
608.90594	10236.5875
612.90624	12363.1875
616.90371	11339.8875
620.89834	8420.3875
624.89015	7220.0875
628.87913	7085.1875
632.86528	7273.4875
636.84862	7373.9875
640.82913	7203.0875
644.80683	6869.5875
648.78172	6679.0875
652.75379	6721.5875
656.72306	6966.3875
660.68952	7238.6875
664.65319	7143.9875
668.61405	6989.4875
672.57211	7028.7875
676.52738	7019.7875
680.47986	6839.5875
684.42955	6693.0875
688.37646	6641.3875
692.32058	6708.7875
696.26192	6836.9875
700.20048	6963.3875
704.13626	6978.5875
708.06928	6911.9875
711.99952	6835.8875
715.927	6829.4875
719.85171	6850.7875
723.77365	6879.1875
727.69284	6832.4875
731.60928	6783.8875
735.52295	6733.2875
739.43388	6747.3875
743.34206	6789.0875
747.24749	6796.3875
751.15017	6792.5875
755.05012	6866.0875
758.94733	7171.7875
762.8418	7932.3875
766.73354	9059.9875
770.62254	9924.2875
774.50882	10038.6875
778.39237	9669.4875
782.27321	8848.7875
786.15132	7963.8875
790.02671	7307.2875
793.89938	6991.7875
797.76935	6858.1875
801.6366	6759.1875
805.50115	6718.4875
809.36299	6695.8875
813.22213	6677.7875
817.07857	6681.3875
820.93231	6679.1875
824.78336	6680.9875
828.63172	6716.0875
832.47738	6721.3875
836.32036	6679.5875
840.16066	6661.0875
843.99827	6635.9875
847.8332	6633.2875
851.66546	6649.7875
855.49504	6664.1875
859.32195	6665.4875
863.1462	6646.0875
866.96777	6658.0875
870.78668	6658.2875
874.60293	6689.9875
878.41652	6711.2875
882.22745	6753.2875
886.03573	6796.0875
889.84136	6778.1875
893.64433	6748.0875
897.44466	6731.4875
901.24235	6725.1875
905.0374	6704.5875
908.8298	6666.0875
912.61957	6652.9875
916.40671	6652.7875
920.19121	6657.9875
923.97308	6727.0875
927.75233	6797.9875
931.52895	6853.3875
935.30295	6798.6875
939.07433	6666.8875
942.84309	6576.1875
946.60924	6510.3875
950.37278	6493.6875
954.13371	6499.7875
957.89203	6493.5875
961.64774	6466.2875
965.40086	6485.2875
969.15137	6460.9875
972.89929	6455.7875
976.64461	6440.4875
980.38733	6453.4875
984.12747	6456.1875
987.86502	6494.0875
991.59999	6525.9875
995.33237	6581.7875
999.06217	6636.4875
1002.78939	6736.3875
1006.51404	6886.6875
1010.23611	7002.2875
1013.95561	7035.1875
1017.67255	7043.5875
1021.38692	7000.3875
1025.09872	6935.7875
1028.80796	6852.0875
1032.51465	6810.1875
1036.21877	6835.5875
1039.92035	6873.9875
1043.61937	6902.8875
1047.31584	6944.9875
1051.00976	6943.3875
1054.70114	6960.8875
1058.38998	6968.1875
1062.07627	6993.3875
1065.76003	7057.8875
1069.44126	7153.4875
1073.11995	7272.3875
1076.79611	7444.7875
1080.46974	7573.0875
1084.14085	7696.1875
1087.80943	7795.5875
1091.47549	7830.3875
1095.13903	7807.7875
1098.80005	7757.9875
1102.45857	7763.6875
1106.11456	7724.4875
1109.76805	7636.3875
1113.41903	7636.9875
1117.06751	7741.1875
1120.71348	7933.1875
1124.35696	8166.3875
1127.99793	8344.0875
1131.63641	8179.6875
1135.2724	7829.8875
1138.90589	7581.7875
1142.5369	7439.4875
1146.16542	7376.5875
1149.79145	7306.6875
1153.415	7209.4875
1157.03607	7149.4875
1160.65467	7232.4875
1164.27079	7378.1875
1167.88443	7605.3875
1171.49561	7994.2875
1175.10432	8606.6875
1178.71056	9422.9875
1182.31434	10093.0875
1185.91565	10258.1875
1189.51451	10091.1875
1193.11091	9799.5875
1196.70485	9487.1875
1200.29634	9247.3875
1203.88538	8970.1875
1207.47197	8601.6875
1211.05612	8241.3875
1214.63782	7954.8875
1218.21708	7721.8875
1221.79391	7611.1875
1225.36829	7527.5875
1228.94024	7523.2875
1232.50976	7513.3875
1236.07685	7536.2875
1239.6415	7589.8875
1243.20374	7604.7875
1246.76355	7669.9875
1250.32093	7742.8875
1253.8759	7881.2875
1257.42845	8078.5875
1260.97859	8363.1875
1264.52631	8605.7875
1268.07163	8748.7875
1271.61453	8838.4875
1275.15503	8849.0875
1278.69312	8823.9875
1282.22882	8844.3875
1285.76211	8936.5875
1289.29301	9134.8875
1292.82151	9314.5875
1296.34761	9527.2875
1299.87133	9870.0875
1303.39266	10485.0875
1306.9116	11445.8875
1310.42815	12469.6875
1313.94233	12773.6875
1317.45412	12159.0875
1320.96354	11273.6875
1324.47058	10466.4875
1327.97525	9812.1875
1331.47754	9420.4875
1334.97747	9294.5875
1338.47502	9419.1875
1341.97022	9802.8875
1345.46305	10475.2875
1348.95352	11432.9875
1352.44163	12472.6875
1355.92738	13571.5875
1359.41078	14944.3875
1362.89183	16002.1875
1366.37053	15235.3875
1369.84688	12896.2875
1373.32088	10779.7875
1376.79254	9587.3875
1380.26186	9028.7875
1383.72883	8697.7875
1387.19347	8373.4875
1390.65578	8070.5875
1394.11575	7825.5875
1397.57339	7613.0875
1401.0287	7513.6875
1404.48168	7503.6875
1407.93234	7548.8875
1411.38068	7673.0875
1414.82669	7803.9875
1418.27039	7884.3875
1421.71177	7865.9875
1425.15083	7809.0875
1428.58758	7733.4875
1432.02203	7752.4875
1435.45416	7804.4875
1438.88399	7774.6875
1442.31151	7768.8875
1445.73673	7773.7875
1449.15965	7791.2875
1452.58027	7770.5875
1455.9986	7663.7875
1459.41463	7643.8875
1462.82837	7705.9875
1466.23982	7847.1875
1469.64898	8008.4875
1473.05586	8129.5875
1476.46045	8224.1875
1479.86276	8288.9875
1483.26279	8439.4875
1486.66054	8654.6875
1490.05602	8980.1875
1493.44922	9466.1875
1496.84016	10264.0875
1500.22882	11372.9875
1503.61521	12807.2875
1506.99934	14237.9875
1510.38121	15065.4875
1513.76081	14889.3875
1517.13816	13606.4875
1520.51324	11866.5875
1523.88607	10428.0875
1527.25665	9542.6875
1530.62498	9080.2875
1533.99105	8796.3875
1537.35488	8694.4875
1540.71647	8586.8875
1544.07581	8483.9875
1547.4329	8386.5875
1550.78776	8332.0875
1554.14038	8324.4875
1557.49077	8370.2875
1560.83892	8501.4875
1564.18484	8787.4875
1567.52853	9113.7875
1570.86999	9329.0875
1574.20922	9377.9875
1577.54624	9225.0875
1580.88103	8764.3875
1584.2136	8218.8875
1587.54395	7904.0875
1590.87208	7863.1875
1594.19801	8090.5875
1597.52172	8399.4875
1600.84321	8522.1875
1604.16251	8396.5875
1607.47959	8233.2875
1610.79447	7988.8875
1614.10715	7649.9875
1617.41763	7314.1875
1620.7259	7085.8875
1624.03199	6928.8875
1627.33587	6916.2875
1630.63757	6993.0875
1633.93707	7227.9875
1637.23439	7681.9875
1640.52951	8389.8875
1643.82246	9480.0875
1647.11321	10662.3875
1650.40179	11267.6875
1653.68819	10782.6875
1656.97241	9491.5875
1660.25446	8180.0875
1663.53433	7290.4875
1666.81203	6736.2875
1670.08756	6426.2875
1673.36092	6252.6875
1676.63211	6101.8875
1679.90115	6047.4875
1683.16801	5976.5875
1686.43272	5920.2875
1689.69527	5867.8875
1692.95567	5829.3875
1696.2139	5826.7875
1699.46999	5811.6875
1702.72392	5803.2875
1705.97571	5792.6875
1709.22535	5792.1875
1712.47284	5803.6875
1715.71819	5800.8875
1718.96139	5786.9875
1722.20246	5766.2875
1725.44139	5752.5875
1728.67818	5707.5875
1731.91284	5666.8875
1735.14537	5645.9875
1738.37576	5609.6875
1741.60403	5620.9875
1744.83017	5566.5875
1748.05418	5580.9875
1751.27607	5554.2875
1754.49584	5539.1875
1757.71349	5524.4875
1760.92903	5527.8875
1764.14244	5521.5875
1767.35375	5510.8875
1770.56294	5484.4875
1773.77002	5478.4875
1776.97499	5439.6875
1780.17785	5441.2875
1783.37861	5401.7875
1786.57727	5391.7875
1789.77382	5370.7875
1792.96828	5378.8875
1796.16064	5365.4875
1799.3509	5359.3875
1802.53907	5349.3875
1805.72514	5346.4875
1808.90913	5311.4875
1812.09102	5296.3875
1815.27083	5296.9875
1818.44856	5288.5875
1821.6242	5258.1875
1824.79776	5252.6875
1827.96924	5225.4875
1831.13864	5208.7875
1834.30597	5191.9875
1837.47122	5190.1875
1840.6344	5185.8875
1843.7955	5188.4875
1846.95454	5196.2875
1850.11151	5184.9875
1853.26642	5162.6875
1856.41926	5176.8875
1859.57004	5167.8875
1862.71876	5165.3875
1865.86542	5139.3875
1869.01003	5135.1875
1872.15258	5137.9875
1875.29308	5137.4875
1878.43152	5124.6875
1881.56792	5119.1875
1884.70227	5124.0875
1887.83457	5109.9875
1890.96482	5096.7875
1894.09304	5089.1875
1897.21921	5073.7875
1900.34335	5048.8875
1903.46544	5064.9875
1906.58551	5033.5875
1909.70353	5021.2875
1912.81953	5009.9875
1915.93349	5009.0875
1919.04543	5015.7875
1922.15534	4998.9875
1925.26322	4984.1875
1928.36908	4983.7875
1931.47292	4975.3875
1934.57473	4959.7875
1937.67453	4929.9875
1940.77232	4900.0875
1943.86808	4901.0875
1946.96184	4885.1875
1950.05358	4867.0875
1953.14331	4843.9875
1956.23103	4843.4875
1959.31675	4825.5875
1962.40046	4808.1875
1965.48217	4803.3875
1968.56188	4773.8875
1971.63959	4780.7875
1974.7153	4779.7875
1977.78901	4748.4875
1980.86073	4730.4875
1983.93046	4724.7875
1986.99819	4696.8875
1990.06394	4688.5875
1993.1277	4673.6875
1996.18947	4645.1875
1999.24925	4620.7875
2002.30706	4602.8875
2005.36288	4572.2875
2008.41672	4561.4875
2011.46859	4570.7875
2014.51848	4548.5875
2017.56639	4519.1875
2020.61233	4534.7875
2023.6563	4502.6875
2026.6983	4480.5875
2029.73833	4468.7875
2032.7764	4454.3875
2035.8125	4445.2875
2038.84664	4427.8875
2041.87881	4440.7875
2044.90903	4405.4875
2047.93729	4408.7875
2050.96359	4399.4875
2053.98794	4389.9875
2057.01034	4391.6875
2060.03078	4390.5875
2063.04927	4379.4875
2066.06582	4367.8875
2069.08042	4374.6875
2072.09307	4352.7875
2075.10378	4342.1875
2078.11255	4346.5875
2081.11938	4340.8875
2084.12426	4344.8875
2087.12722	4351.0875
2090.12824	4345.3875
2093.12732	4341.1875
2096.12447	4328.7875
2099.11969	4335.8875
2102.11299	4342.7875
2105.10435	4344.2875
2108.09379	4338.6875
2111.08131	4331.1875
2114.0669	4319.8875
2117.05057	4312.5875
2120.03233	4349.8875
2123.01216	4323.2875
2125.99008	4336.8875
2128.96609	4352.0875
2131.94018	4334.0875
2134.91236	4330.4875
2137.88263	4348.8875
2140.851	4348.0875
2143.81746	4346.1875
2146.78201	4354.6875
2149.74466	4322.4875
2152.7054	4321.1875
2155.66425	4330.1875
2158.6212	4316.3875
2161.57625	4321.2875
2164.52941	4299.3875
2167.48067	4319.6875
2170.43004	4297.6875
2173.37752	4301.5875
2176.32311	4295.8875
2179.26681	4303.9875
2182.20863	4295.4875
2185.14856	4299.5875
2188.08661	4296.0875
2191.02278	4291.2875
2193.95707	4263.7875
2196.88948	4271.7875
2199.82001	4271.8875
2202.74867	4254.9875
2205.67545	4253.4875
2208.60037	4255.3875
2211.52341	4251.1875
2214.44458	4238.1875
2217.36388	4234.3875
2220.28132	4208.8875
2223.1969	4187.8875
2226.11061	4187.1875
2229.02246	4175.4875
2231.93245	4177.1875
2234.84058	4169.1875
2237.74686	4150.6875
2240.65128	4153.8875
2243.55385	4143.6875
2246.45456	4135.7875
2249.35343	4127.4875
2252.25044	4136.0875
2255.14561	4117.9875
2258.03893	4132.0875
2260.93041	4135.2875
2263.82004	4120.8875
2266.70783	4097.0875
2269.59378	4097.6875
2272.4779	4087.3875
2275.36017	4057.0875
2278.24061	4051.8875
2281.11922	4039.5875
2283.996	4048.7875
2286.87094	4016.9875
2289.74405	4016.5875
2292.61534	4009.1875
2295.4848	4011.9875
2298.35243	4009.2875
2301.21824	4005.9875
2304.08223	3998.8875
2306.94439	4000.9875
2309.80474	3983.5875
2312.66327	3983.8875
2315.51999	3968.5875
2318.37489	3978.3875
2321.22797	3962.8875
2324.07925	3950.6875
2326.92871	3913.2875
2329.77637	3931.4875
2332.62222	3921.8875
2335.46626	3899.3875
2338.3085	3903.2875
2341.14893	3900.6875
2343.98756	3906.2875
2346.8244	3895.3875
2349.65943	3878.4875
2352.49267	3889.2875
2355.32411	3880.1875
2358.15376	3879.7875
2360.98161	3877.3875
2363.80768	3896.5875
2366.63195	3869.7875
2369.45444	3883.5875
2372.27514	3872.9875
2375.09405	3895.0875
2377.91118	3861.1875
2380.72652	3851.9875
2383.54009	3841.2875
2386.35187	3827.4875
2389.16188	3821.0875
2391.97011	3813.2875
2394.77657	3815.9875
2397.58125	3782.5875
2400.38416	3783.7875
2403.18529	3763.5875
2405.98466	3774.5875
2408.78226	3758.5875
2411.57809	3752.1875
2414.37216	3747.6875
2417.16446	3741.6875
2419.955	3738.4875
2422.74378	3742.4875
2425.5308	3736.8875
2428.31606	3741.0875
2431.09956	3729.2875
2433.88131	3724.8875
2436.6613	3728.3875
2439.43954	3726.9875
2442.21603	3714.1875
2444.99077	3715.4875
2447.76377	3708.2875
2450.53501	3698.1875
2453.30451	3695.8875
2456.07226	3702.7875
2458.83827	3694.5875
2461.60254	3692.5875
2464.36507	3681.2875
2467.12586	3677.2875
2469.88492	3675.0875
2472.64224	3666.3875
2475.39782	3663.9875
2478.15167	3655.8875
2480.90379	3661.8875
2483.65417	3661.1875
2486.40283	3671.1875
2489.14976	3670.1875
2491.89497	3671.7875
2494.63845	3650.5875
2497.3802	3652.0875
2500.12024	3642.8875
2502.85855	3630.6875
2505.59514	3623.1875
2508.33002	3630.4875
2511.06318	3610.0875
2513.79462	3596.9875
2516.52435	3572.2875
2519.25237	3594.3875
2521.97867	3564.5875
2524.70327	3576.3875
2527.42616	3556.1875
2530.14734	3553.3875
2532.86681	3562.2875
2535.58458	3562.4875
2538.30065	3559.2875
2541.01501	3538.0875
2543.72768	3547.5875
2546.43864	3539.5875
2549.14791	3517.5875
2551.85548	3515.1875
2554.56136	3522.9875
2557.26554	3505.6875
2559.96803	3500.2875
2562.66883	3501.1875
2565.36794	3486.1875
2568.06536	3472.0875
2570.7611	3472.1875
2573.45514	3457.8875
2576.14751	3462.6875
2578.83819	3436.4875
2581.52719	3425.3875
2584.21451	3429.3875
2586.90015	3406.8875
2589.58411	3409.7875
2592.2664	3407.0875
2594.94701	3417.0875
2597.62594	3395.6875
2600.30321	3403.2875
2602.9788	3391.3875
2605.65273	3389.5875
2608.32498	3389.7875
2610.99557	3392.4875
2613.66449	3373.9875
2616.33175	3367.4875
2618.99734	3358.2875
2621.66128	3345.6875
2624.32355	3345.7875
2626.98416	3341.2875
2629.64311	3324.4875
2632.30041	3321.2875
2634.95605	3308.4875
2637.61004	3300.2875
2640.26238	3299.0875
2642.91306	3300.9875
2645.56209	3290.0875
2648.20948	3281.7875
2650.85521	3285.5875
2653.4993	3285.5875
2656.14175	3280.3875
2658.78255	3287.1875
2661.42171	3286.8875
2664.05923	3297.2875
2666.6951	3292.9875
2669.32934	3279.7875
2671.96194	3277.7875
2674.59291	3275.8875
2677.22224	3274.1875
2679.84993	3272.1875
2682.476	3269.5875
2685.10043	3274.8875
2687.72324	3275.1875
2690.34441	3268.4875
2692.96396	3253.3875
2695.58188	3256.7875
2698.19818	3248.4875
2700.81285	3263.1875
2703.4259	3263.8875
2706.03733	3269.5875
2708.64714	3259.7875
2711.25533	3253.9875
2713.86191	3252.5875
2716.46687	3244.3875
2719.07021	3244.6875
2721.67194	3258.0875
2724.27206	3241.7875
2726.87057	3247.4875
2729.46747	3227.3875
2732.06276	3259.3875
2734.65644	3235.0875
2737.24852	3225.3875
2739.83899	3213.7875
2742.42786	3234.4875
2745.01513	3211.9875
2747.60079	3194.3875
2750.18486	3210.2875
2752.76733	3214.6875
2755.3482	3205.3875
2757.92747	3186.5875
2760.50515	3177.5875
2763.08123	3179.4875
2765.65573	3170.3875
2768.22863	3151.3875
2770.79994	3140.6875
2773.36967	3148.3875
2775.9378	3145.3875
2778.50435	3140.5875
2781.06932	3139.5875
2783.6327	3130.7875
2786.1945	3133.0875
2788.75471	3139.4875
2791.31335	3119.1875
2793.87041	3128.5875
2796.42589	3111.6875
2798.97979	3099.8875
2801.53212	3091.2875
2804.08288	3096.4875
2806.63206	3092.9875
2809.17967	3070.7875
2811.72571	3061.5875
2814.27018	3064.4875
2816.81308	3054.3875
2819.35442	3065.7875
2821.89419	3040.7875
2824.43239	3038.5875
2826.96904	3032.0875
2829.50412	3035.7875
2832.03763	3025.8875
2834.56959	3023.9875
2837.1	3013.4875
2839.62884	2997.3875
2842.15613	3006.3875
2844.68186	3002.7875
2847.20604	2981.8875
2849.72867	2985.1875
2852.24974	2982.4875
2854.76927	2970.4875
2857.28724	2977.8875
2859.80367	2968.8875
2862.31855	2960.8875
2864.83189	2968.1875
2867.34368	2967.3875
2869.85393	2957.4875
2872.36264	2976.3875
2874.8698	2955.5875
2877.37543	2952.1875
2879.87952	2953.6875
2882.38207	2942.6875
2884.88308	2933.2875
2887.38256	2921.7875
2889.88051	2925.6875
2892.37692	2921.8875
2894.8718	2909.7875
2897.36515	2904.2875
2899.85698	2915.6875
2902.34727	2920.5875
2904.83604	2924.4875
2907.32328	2931.9875
2909.809	2913.0875
2912.29319	2916.6875
2914.77587	2925.2875
2917.25702	2931.6875
2919.73665	2931.5875
2922.21476	2932.3875
2924.69136	2914.2875
2927.16644	2907.6875
2929.64	2902.7875
2932.11205	2895.6875
2934.58258	2895.1875
2937.05161	2891.8875
2939.51912	2884.8875
2941.98513	2886.6875
2944.44962	2875.4875
2946.91261	2867.3875
2949.37409	2868.2875
2951.83407	2875.9875
2954.29254	2868.7875
2956.74951	2855.1875
2959.20498	2859.2875
2961.65895	2854.2875
2964.11142	2837.1875
2966.56239	2832.7875
2969.01186	2842.0875
2971.45984	2827.8875
2973.90632	2827.9875
2976.35131	2833.3875
2978.7948	2823.6875
2981.23681	2827.3875
2983.67732	2829.5875
2986.11635	2804.8875
2988.55388	2797.3875
2990.98993	2797.5875
2993.4245	2785.2875
2995.85758	2779.1875
2998.28917	2804.8875
3000.71928	2775.7875
3003.14791	2766.0875
3005.57506	2763.7875
3008.00073	2760.4875
3010.42493	2743.5875
3012.84764	2741.2875
3015.26888	2737.9875
3017.68865	2729.6875
3020.10694	2727.1875
3022.52376	2713.2875
3024.9391	2710.4875
3027.35298	2696.7875
3029.76539	2703.1875
3032.17632	2685.8875
3034.5858	2677.5875
3036.9938	2672.2875
3039.40034	2656.5875
3041.80542	2651.3875
3044.20903	2667.5875
3046.61118	2649.7875
3049.01187	2643.0875
3051.4111	2634.8875
3053.80888	2632.3875
3056.20519	2624.9875
3058.60005	2634.4875
3060.99345	2630.0875
3063.3854	2620.6875
3065.7759	2614.9875
3068.16494	2600.6875
3070.55254	2586.0875
3072.93868	2575.8875
3075.32338	2578.5875
3077.70662	2575.6875
3080.08842	2572.0875
3082.46878	2550.9875
3084.84769	2549.8875
3087.22515	2542.9875
3089.60118	2547.1875
3091.97576	2534.3875
3094.3489	2535.4875
3096.72061	2535.7875
3099.09087	2537.0875
3101.4597	2530.9875
3103.82709	2526.7875
3106.19305	2517.7875
3108.55757	2510.1875
3110.92066	2521.1875
3113.28232	2506.2875
3115.64255	2503.7875
3118.00134	2494.0875
3120.35871	2500.1875
3122.71466	2484.7875
3125.06917	2476.1875
3127.42226	2474.9875
3129.77393	2478.7875
3132.12417	2459.6875
3134.47299	2471.3875
3136.82039	2470.3875
3139.16636	2460.1875
3141.51092	2446.2875
3143.85406	2460.7875
3146.19579	2441.7875
3148.53609	2453.4875
3150.87499	2453.2875
3153.21246	2452.9875
3155.54853	2452.1875
3157.88318	2451.1875
3160.21642	2456.8875
3162.54826	2455.3875
3164.87868	2428.4875
3167.2077	2436.6875
3169.5353	2428.4875
3171.86151	2427.7875
3174.18631	2426.7875
3176.5097	2428.8875
3178.83169	2417.2875
3181.15228	2408.3875
3183.47147	2402.2875
3185.78926	2408.9875
3188.10565	2391.6875
3190.42065	2392.8875
3192.73424	2388.0875
3195.04645	2386.7875
3197.35725	2382.0875
3199.66667	2379.8875
3201.97469	2380.1875
3204.28132	2388.4875
3206.58656	2381.0875
3208.8904	2370.8875
3211.19287	2385.5875
3213.49394	2380.3875
3215.79363	2368.8875
3218.09193	2376.9875
3220.38884	2377.8875
3222.68438	2380.1875
3224.97853	2371.8875
3227.2713	2350.5875
3229.56269	2351.9875
3231.8527	2360.5875
3234.14133	2346.3875
3236.42858	2338.2875
3238.71446	2335.8875
3240.99896	2321.7875
3243.28209	2325.5875
3245.56384	2319.6875
3247.84423	2320.0875
3250.12324	2321.0875
3252.40088	2320.0875
3254.67715	2308.8875
3256.95205	2306.6875
3259.22558	2294.8875
3261.49775	2307.5875
3263.76855	2302.6875
3266.03799	2297.7875
3268.30606	2296.1875
3270.57277	2282.4875
3272.83812	2288.6875
3275.10211	2269.8875
3277.36474	2261.3875
3279.62601	2257.2875
3281.88593	2254.9875
3284.14448	2255.5875
3286.40168	2256.7875
3288.65753	2259.7875
3290.91202	2249.4875
3293.16516	2241.7875
3295.41695	2250.8875
3297.66738	2238.5875
3299.91647	2218.7875
3302.16421	2198.5875
3304.4106	2191.3875
3306.65564	2188.1875
3308.89933	2161.8875
3311.14169	2154.7875
3313.38269	2117.9875
3315.62236	2122.6875
3317.86068	2102.2875
3320.09766	2085.0875
3322.3333	2068.7875
3324.5676	2051.4875
3326.80056	2011.2875
3329.03219	2006.1875
3331.26248	0.7875
3333.49143	-0.3125
3335.71905	0.4875
