Data from AgNPs_UA_5uM_CRN_500uM_SU_RamanShift__173__11-58-13-174.txt Node

Date: Thu Aug 04 11:58:13 BST 2022
User: TCL
Spectrometer: QEP01345
Trigger mode: 4
Integration Time (sec): 1.000000E0
Scans to average: 10
Electric dark correction enabled: true
Nonlinearity correction enabled: false
Boxcar width: 0
XAxis mode: Raman Shifts
Number of Pixels in Spectrum: 1044
>>>>>Begin Spectral Data<<<<<
46.04893	-1.375
50.45542	0.525
54.85868	0.425
59.25871	-0.075
63.6555	-56.575
68.04907	-39.075
72.43941	-72.975
76.82654	-57.375
81.21044	-55.275
85.59113	-48.175
89.96862	-75.675
94.34289	-55.275
98.71396	-76.775
103.08183	-57.575
107.4465	-49.575
111.80798	-55.475
116.16626	-43.875
120.52136	-75.575
124.87327	-49.475
129.222	-62.875
133.56755	-49.175
137.90993	-63.975
142.24913	-49.775
146.58517	-43.475
150.91804	-41.475
155.24774	-31.075
159.57429	-9.275
163.89768	-6.775
168.21792	39.325
172.53501	57.725
176.84895	140.925
181.15975	267.025
185.46741	420.325
189.77193	601.325
194.07331	882.325
198.37157	1169.725
202.6667	1454.725
206.9587	1775.325
211.24758	2081.825
215.53334	2405.025
219.81599	2744.725
224.09553	3156.725
228.37195	3603.625
232.64527	4042.825
236.91549	4518.125
241.18261	4885.925
245.44663	5147.225
249.70755	5332.925
253.96539	5461.525
258.22014	5563.125
262.4718	5640.925
266.72039	5674.925
270.96589	5639.925
275.20832	5556.125
279.44768	5434.825
283.68397	5311.525
287.91719	5260.425
292.14735	5299.725
296.37445	5459.725
300.59849	5738.825
304.81948	6085.525
309.03742	6434.725
313.25231	6656.025
317.46415	6613.825
321.67296	6220.625
325.87872	5813.125
330.08145	5627.825
334.28114	5592.225
338.47781	5662.725
342.67145	5800.125
346.86207	6046.625
351.04966	6420.825
355.23424	6797.525
359.4158	7064.225
363.59435	7111.925
367.76989	7037.525
371.94243	6901.325
376.11196	6783.625
380.27849	6728.725
384.44203	6648.625
388.60257	6609.925
392.76012	6629.025
396.91468	6728.325
401.06626	6920.725
405.21485	6950.725
409.36047	6794.925
413.50311	6461.525
417.64277	6164.625
421.77947	5959.325
425.9132	5893.725
430.04396	5888.925
434.17176	5942.225
438.2966	6026.725
442.41849	6124.025
446.53742	6235.725
450.6534	6324.125
454.76644	6403.225
458.87653	6404.425
462.98368	6369.425
467.08789	6311.725
471.18916	6236.925
475.2875	6119.525
479.38291	6010.225
483.4754	5920.625
487.56496	5880.825
491.6516	5858.225
495.73531	5857.825
499.81612	5866.525
503.89401	5963.325
507.96899	6010.325
512.04106	6121.825
516.11023	6221.925
520.1765	6318.725
524.23987	6316.625
528.30034	6307.425
532.35792	6226.725
536.41261	6195.725
540.46441	6091.525
544.51333	6043.625
548.55936	6083.925
552.60252	6205.325
556.64279	6328.725
560.6802	6429.925
564.71473	6573.625
568.7464	6775.025
572.7752	6733.725
576.80114	6415.125
580.82422	6184.025
584.84444	6081.825
588.86181	6059.125
592.87633	6104.125
596.888	6216.625
600.89682	6581.125
604.9028	7519.125
608.90594	9580.825
612.90624	11892.925
616.90371	11030.125
620.89834	8031.325
624.89015	6735.425
628.87913	6535.125
632.86528	6665.025
636.84862	6848.125
640.82913	6718.425
644.80683	6378.825
648.78172	6198.225
652.75379	6234.525
656.72306	6462.625
660.68952	6680.225
664.65319	6609.225
668.61405	6356.325
672.57211	6292.625
676.52738	6321.825
680.47986	6218.825
684.42955	6131.525
688.37646	6085.625
692.32058	6093.125
696.26192	6170.125
700.20048	6264.125
704.13626	6301.725
708.06928	6258.325
711.99952	6219.725
715.927	6190.725
719.85171	6232.025
723.77365	6281.525
727.69284	6246.325
731.60928	6236.225
735.52295	6210.525
739.43388	6266.225
743.34206	6274.425
747.24749	6295.425
751.15017	6306.325
755.05012	6376.025
758.94733	6765.625
762.8418	7561.025
766.73354	8858.125
770.62254	9830.725
774.50882	9916.725
778.39237	9415.125
782.27321	8521.225
786.15132	7502.725
790.02671	6823.825
793.89938	6461.125
797.76935	6355.325
801.6366	6263.125
805.50115	6228.125
809.36299	6226.725
813.22213	6220.025
817.07857	6211.925
820.93231	6230.625
824.78336	6226.225
828.63172	6270.125
832.47738	6268.225
836.32036	6279.125
840.16066	6242.225
843.99827	6233.425
847.8332	6212.325
851.66546	6231.125
855.49504	6230.925
859.32195	6256.025
863.1462	6248.625
866.96777	6224.925
870.78668	6222.125
874.60293	6268.725
878.41652	6288.225
882.22745	6361.925
886.03573	6376.525
889.84136	6369.425
893.64433	6383.725
897.44466	6366.625
901.24235	6373.425
905.0374	6374.525
908.8298	6303.125
912.61957	6270.725
916.40671	6228.025
920.19121	6281.125
923.97308	6361.625
927.75233	6406.925
931.52895	6476.725
935.30295	6454.225
939.07433	6313.425
942.84309	6200.625
946.60924	6184.125
950.37278	6141.425
954.13371	6143.125
957.89203	6121.925
961.64774	6161.325
965.40086	6134.925
969.15137	6108.625
972.89929	6144.525
976.64461	6124.625
980.38733	6153.725
984.12747	6149.325
987.86502	6150.225
991.59999	6175.525
995.33237	6267.025
999.06217	6345.825
1002.78939	6416.225
1006.51404	6550.625
1010.23611	6663.925
1013.95561	6692.925
1017.67255	6704.225
1021.38692	6678.925
1025.09872	6628.625
1028.80796	6537.825
1032.51465	6548.025
1036.21877	6534.125
1039.92035	6575.125
1043.61937	6605.525
1047.31584	6646.225
1051.00976	6689.425
1054.70114	6701.625
1058.38998	6683.525
1062.07627	6682.825
1065.76003	6708.525
1069.44126	6806.225
1073.11995	6855.925
1076.79611	7002.325
1080.46974	7163.825
1084.14085	7325.025
1087.80943	7447.525
1091.47549	7475.525
1095.13903	7381.025
1098.80005	7278.625
1102.45857	7196.325
1106.11456	7157.225
1109.76805	7085.125
1113.41903	7204.225
1117.06751	7359.625
1120.71348	7598.625
1124.35696	8006.625
1127.99793	8253.825
1131.63641	8086.225
1135.2724	7710.625
1138.90589	7424.925
1142.5369	7228.725
1146.16542	7143.725
1149.79145	7025.425
1153.415	6983.825
1157.03607	6965.125
1160.65467	7057.925
1164.27079	7248.025
1167.88443	7488.425
1171.49561	7893.225
1175.10432	8490.025
1178.71056	9330.625
1182.31434	10098.225
1185.91565	10346.425
1189.51451	10212.725
1193.11091	9966.125
1196.70485	9723.025
1200.29634	9525.425
1203.88538	9249.025
1207.47197	8820.525
1211.05612	8364.625
1214.63782	8007.225
1218.21708	7756.825
1221.79391	7621.125
1225.36829	7523.625
1228.94024	7533.625
1232.50976	7536.425
1236.07685	7564.425
1239.6415	7585.125
1243.20374	7602.625
1246.76355	7655.125
1250.32093	7741.125
1253.8759	7799.425
1257.42845	7956.625
1260.97859	8156.925
1264.52631	8391.025
1268.07163	8532.325
1271.61453	8681.625
1275.15503	8707.425
1278.69312	8734.025
1282.22882	8766.125
1285.76211	8963.925
1289.29301	9212.925
1292.82151	9467.325
1296.34761	9707.425
1299.87133	10061.825
1303.39266	10752.425
1306.9116	11881.025
1310.42815	13074.925
1313.94233	13479.425
1317.45412	12684.025
1320.96354	11597.925
1324.47058	10603.425
1327.97525	9907.425
1331.47754	9506.925
1334.97747	9402.125
1338.47502	9533.925
1341.97022	9880.825
1345.46305	10579.525
1348.95352	11622.825
1352.44163	12859.025
1355.92738	14140.425
1359.41078	15709.625
1362.89183	17177.425
1366.37053	16552.125
1369.84688	13771.825
1373.32088	11181.625
1376.79254	9867.525
1380.26186	9256.925
1383.72883	8865.025
1387.19347	8481.025
1390.65578	8146.125
1394.11575	7922.025
1397.57339	7744.225
1401.0287	7651.425
1404.48168	7614.225
1407.93234	7642.825
1411.38068	7667.925
1414.82669	7724.025
1418.27039	7798.525
1421.71177	7806.325
1425.15083	7692.425
1428.58758	7626.725
1432.02203	7640.125
1435.45416	7741.125
1438.88399	7756.225
1442.31151	7738.825
1445.73673	7819.625
1449.15965	7862.325
1452.58027	7873.825
1455.9986	7872.225
1459.41463	7867.125
1462.82837	7953.625
1466.23982	8139.825
1469.64898	8357.125
1473.05586	8483.925
1476.46045	8616.125
1479.86276	8651.625
1483.26279	8743.225
1486.66054	8919.925
1490.05602	9183.625
1493.44922	9702.125
1496.84016	10560.125
1500.22882	11868.725
1503.61521	13526.225
1506.99934	15255.225
1510.38121	16446.525
1513.76081	16300.125
1517.13816	14824.725
1520.51324	12717.025
1523.88607	11063.125
1527.25665	10103.725
1530.62498	9625.325
1533.99105	9408.025
1537.35488	9282.325
1540.71647	9175.825
1544.07581	9086.225
1547.4329	8954.625
1550.78776	8837.725
1554.14038	8773.825
1557.49077	8744.825
1560.83892	8833.025
1564.18484	9064.125
1567.52853	9373.525
1570.86999	9676.125
1574.20922	9803.925
1577.54624	9695.925
1580.88103	9204.025
1584.2136	8548.225
1587.54395	8208.025
1590.87208	8139.125
1594.19801	8298.425
1597.52172	8670.225
1600.84321	8823.125
1604.16251	8693.125
1607.47959	8501.225
1610.79447	8313.725
1614.10715	8027.225
1617.41763	7722.525
1620.7259	7471.325
1624.03199	7324.125
1627.33587	7260.325
1630.63757	7300.925
1633.93707	7526.425
1637.23439	7940.125
1640.52951	8604.925
1643.82246	9561.925
1647.11321	10695.625
1650.40179	11377.625
1653.68819	11055.925
1656.97241	9824.425
1660.25446	8481.025
1663.53433	7539.525
1666.81203	6928.925
1670.08756	6596.725
1673.36092	6444.925
1676.63211	6296.925
1679.90115	6208.725
1683.16801	6125.725
1686.43272	6033.525
1689.69527	5986.025
1692.95567	5938.425
1696.2139	5900.425
1699.46999	5840.325
1702.72392	5847.525
1705.97571	5867.525
1709.22535	5851.825
1712.47284	5884.725
1715.71819	5886.425
1718.96139	5880.625
1722.20246	5863.225
1725.44139	5836.025
1728.67818	5819.125
1731.91284	5774.825
1735.14537	5727.025
1738.37576	5703.625
1741.60403	5688.925
1744.83017	5655.925
1748.05418	5678.425
1751.27607	5656.325
1754.49584	5631.725
1757.71349	5599.225
1760.92903	5613.825
1764.14244	5549.025
1767.35375	5577.625
1770.56294	5560.025
1773.77002	5517.225
1776.97499	5550.325
1780.17785	5532.625
1783.37861	5511.625
1786.57727	5522.925
1789.77382	5466.525
1792.96828	5482.625
1796.16064	5489.425
1799.3509	5470.225
1802.53907	5487.625
1805.72514	5448.725
1808.90913	5411.625
1812.09102	5409.925
1815.27083	5414.425
1818.44856	5413.425
1821.6242	5393.925
1824.79776	5389.325
1827.96924	5364.925
1831.13864	5359.725
1834.30597	5358.325
1837.47122	5340.625
1840.6344	5315.625
1843.7955	5302.625
1846.95454	5317.925
1850.11151	5326.925
1853.26642	5270.525
1856.41926	5297.725
1859.57004	5284.825
1862.71876	5273.625
1865.86542	5271.325
1869.01003	5276.225
1872.15258	5242.625
1875.29308	5268.825
1878.43152	5262.425
1881.56792	5249.225
1884.70227	5230.625
1887.83457	5224.225
1890.96482	5197.925
1894.09304	5188.425
1897.21921	5196.325
1900.34335	5208.225
1903.46544	5181.325
1906.58551	5172.125
1909.70353	5179.925
1912.81953	5180.325
1915.93349	5167.325
1919.04543	5131.525
1922.15534	5112.925
1925.26322	5137.225
1928.36908	5113.225
1931.47292	5123.925
1934.57473	5106.725
1937.67453	5086.025
1940.77232	5072.025
1943.86808	5059.825
1946.96184	5056.425
1950.05358	5028.725
1953.14331	5022.225
1956.23103	5027.225
1959.31675	4981.325
1962.40046	4905.825
1965.48217	4940.225
1968.56188	4941.125
1971.63959	4926.925
1974.7153	4916.625
1977.78901	4928.025
1980.86073	4904.825
1983.93046	4849.525
1986.99819	4778.625
1990.06394	4783.125
1993.1277	4812.925
1996.18947	4801.125
1999.24925	4754.025
2002.30706	4765.925
2005.36288	4765.425
2008.41672	4732.225
2011.46859	4702.725
2014.51848	4699.125
2017.56639	4682.025
2020.61233	4652.725
2023.6563	4666.825
2026.6983	4608.225
2029.73833	4629.925
2032.7764	4621.225
2035.8125	4572.325
2038.84664	4578.025
2041.87881	4570.525
2044.90903	4560.425
2047.93729	4557.425
2050.96359	4543.825
2053.98794	4557.925
2057.01034	4547.825
2060.03078	4524.725
2063.04927	4522.625
2066.06582	4517.925
2069.08042	4516.225
2072.09307	4521.325
2075.10378	4525.525
2078.11255	4498.025
2081.11938	4501.225
2084.12426	4489.125
2087.12722	4485.225
2090.12824	4489.425
2093.12732	4476.525
2096.12447	4506.325
2099.11969	4468.525
2102.11299	4463.125
2105.10435	4506.625
2108.09379	4499.125
2111.08131	4487.325
2114.0669	4501.125
2117.05057	4490.625
2120.03233	4476.925
2123.01216	4486.425
2125.99008	4506.025
2128.96609	4493.225
2131.94018	4508.925
2134.91236	4497.925
2137.88263	4473.525
2140.851	4500.325
2143.81746	4506.925
2146.78201	4509.525
2149.74466	4502.425
2152.7054	4502.625
2155.66425	4495.025
2158.6212	4494.325
2161.57625	4465.825
2164.52941	4432.825
2167.48067	4458.025
2170.43004	4465.825
2173.37752	4462.525
2176.32311	4441.725
2179.26681	4451.625
2182.20863	4458.225
2185.14856	4464.525
2188.08661	4457.625
2191.02278	4445.325
2193.95707	4437.825
2196.88948	4423.425
2199.82001	4453.125
2202.74867	4414.625
2205.67545	4421.225
2208.60037	4432.725
2211.52341	4417.425
2214.44458	4399.025
2217.36388	4395.925
2220.28132	4374.425
2223.1969	4342.025
2226.11061	4358.125
2229.02246	4348.725
2231.93245	4338.525
2234.84058	4312.125
2237.74686	4316.125
2240.65128	4313.025
2243.55385	4300.625
2246.45456	4270.225
2249.35343	4301.225
2252.25044	4287.025
2255.14561	4293.625
2258.03893	4278.425
2260.93041	4288.925
2263.82004	4253.725
2266.70783	4265.325
2269.59378	4240.525
2272.4779	4213.525
2275.36017	4229.625
2278.24061	4220.425
2281.11922	4174.525
2283.996	4197.725
2286.87094	4163.125
2289.74405	4177.225
2292.61534	4173.225
2295.4848	4147.625
2298.35243	4160.325
2301.21824	4132.825
2304.08223	4139.825
2306.94439	4141.725
2309.80474	4134.825
2312.66327	4133.825
2315.51999	4117.625
2318.37489	4117.625
2321.22797	4106.725
2324.07925	4096.825
2326.92871	4085.825
2329.77637	4060.425
2332.62222	4064.825
2335.46626	4041.225
2338.3085	4040.525
2341.14893	4053.225
2343.98756	4062.225
2346.8244	4043.425
2349.65943	4015.925
2352.49267	4024.325
2355.32411	4043.825
2358.15376	4023.425
2360.98161	4041.425
2363.80768	4009.825
2366.63195	4022.025
2369.45444	4032.425
2372.27514	4037.125
2375.09405	4019.925
2377.91118	3996.125
2380.72652	3986.125
2383.54009	3982.725
2386.35187	3982.025
2389.16188	3966.825
2391.97011	3955.925
2394.77657	3946.325
2397.58125	3945.725
2400.38416	3943.425
2403.18529	3920.125
2405.98466	3887.125
2408.78226	3917.125
2411.57809	3894.625
2414.37216	3879.425
2417.16446	3882.425
2419.955	3872.325
2422.74378	3879.125
2425.5308	3858.825
2428.31606	3865.225
2431.09956	3857.525
2433.88131	3839.925
2436.6613	3843.325
2439.43954	3839.825
2442.21603	3833.025
2444.99077	3822.525
2447.76377	3849.625
2450.53501	3821.125
2453.30451	3820.325
2456.07226	3824.625
2458.83827	3816.925
2461.60254	3763.025
2464.36507	3801.225
2467.12586	3785.925
2469.88492	3796.525
2472.64224	3780.225
2475.39782	3761.425
2478.15167	3779.825
2480.90379	3769.125
2483.65417	3795.225
2486.40283	3776.825
2489.14976	3800.925
2491.89497	3773.925
2494.63845	3783.125
2497.3802	3771.625
2500.12024	3765.825
2502.85855	3761.625
2505.59514	3744.125
2508.33002	3747.725
2511.06318	3724.725
2513.79462	3730.125
2516.52435	3692.025
2519.25237	3670.525
2521.97867	3674.725
2524.70327	3680.625
2527.42616	3676.325
2530.14734	3689.025
2532.86681	3655.325
2535.58458	3654.625
2538.30065	3649.325
2541.01501	3668.525
2543.72768	3637.225
2546.43864	3636.425
2549.14791	3627.925
2551.85548	3604.025
2554.56136	3594.725
2557.26554	3615.325
2559.96803	3611.725
2562.66883	3607.525
2565.36794	3581.325
2568.06536	3546.025
2570.7611	3581.625
2573.45514	3559.525
2576.14751	3561.125
2578.83819	3529.425
2581.52719	3529.425
2584.21451	3529.725
2586.90015	3501.825
2589.58411	3490.125
2592.2664	3511.525
2594.94701	3489.625
2597.62594	3509.325
2600.30321	3443.025
2602.9788	3464.625
2605.65273	3446.425
2608.32498	3450.225
2610.99557	3482.825
2613.66449	3442.425
2616.33175	3450.325
2618.99734	3459.525
2621.66128	3446.625
2624.32355	3422.225
2626.98416	3411.325
2629.64311	3408.025
2632.30041	3401.025
2634.95605	3379.225
2637.61004	3379.725
2640.26238	3353.425
2642.91306	3373.125
2645.56209	3392.625
2648.20948	3374.725
2650.85521	3351.925
2653.4993	3375.825
2656.14175	3356.025
2658.78255	3355.425
2661.42171	3318.825
2664.05923	3363.625
2666.6951	3360.025
2669.32934	3385.725
2671.96194	3385.125
2674.59291	3369.425
2677.22224	3364.625
2679.84993	3371.925
2682.476	3355.025
2685.10043	3352.925
2687.72324	3348.025
2690.34441	3344.625
2692.96396	3335.125
2695.58188	3349.925
2698.19818	3348.125
2700.81285	3340.625
2703.4259	3333.625
2706.03733	3293.825
2708.64714	3292.725
2711.25533	3327.725
2713.86191	3327.825
2716.46687	3329.825
2719.07021	3321.225
2721.67194	3320.025
2724.27206	3338.825
2726.87057	3318.725
2729.46747	3303.325
2732.06276	3318.625
2734.65644	3297.325
2737.24852	3295.325
2739.83899	3277.325
2742.42786	3278.825
2745.01513	3303.225
2747.60079	3273.325
2750.18486	3256.425
2752.76733	3261.125
2755.3482	3255.825
2757.92747	3261.225
2760.50515	3239.325
2763.08123	3238.925
2765.65573	3229.725
2768.22863	3220.225
2770.79994	3207.325
2773.36967	3203.225
2775.9378	3202.625
2778.50435	3189.325
2781.06932	3197.625
2783.6327	3196.625
2786.1945	3198.025
2788.75471	3190.625
2791.31335	3172.825
2793.87041	3173.525
2796.42589	3149.925
2798.97979	3149.225
2801.53212	3136.025
2804.08288	3157.025
2806.63206	3141.925
2809.17967	3123.825
2811.72571	3137.725
2814.27018	3132.525
2816.81308	3123.625
2819.35442	3079.625
2821.89419	3103.925
2824.43239	3087.825
2826.96904	3094.825
2829.50412	3091.125
2832.03763	3091.925
2834.56959	3092.025
2837.1	3075.625
2839.62884	3075.225
2842.15613	3076.425
2844.68186	3078.125
2847.20604	3041.025
2849.72867	3033.825
2852.24974	3047.525
2854.76927	3014.225
2857.28724	2974.925
2859.80367	3038.025
2862.31855	3038.425
2864.83189	3015.825
2867.34368	3029.325
2869.85393	3048.825
2872.36264	3008.225
2874.8698	3010.625
2877.37543	3029.125
2879.87952	3008.425
2882.38207	2993.525
2884.88308	2991.725
2887.38256	3003.425
2889.88051	2989.925
2892.37692	2991.425
2894.8718	2957.325
2897.36515	2983.125
2899.85698	2968.225
2902.34727	2980.425
2904.83604	2969.725
2907.32328	2993.425
2909.809	2997.925
2912.29319	2985.225
2914.77587	2998.925
2917.25702	2995.725
2919.73665	3001.325
2922.21476	3002.225
2924.69136	3011.225
2927.16644	2975.525
2929.64	2986.425
2932.11205	2979.125
2934.58258	2984.325
2937.05161	2955.425
2939.51912	2971.025
2941.98513	2972.525
2944.44962	2954.025
2946.91261	2922.325
2949.37409	2921.525
2951.83407	2917.425
2954.29254	2931.725
2956.74951	2913.925
2959.20498	2913.525
2961.65895	2911.125
2964.11142	2911.325
2966.56239	2901.625
2969.01186	2913.525
2971.45984	2894.825
2973.90632	2886.525
2976.35131	2901.425
2978.7948	2899.025
2981.23681	2890.925
2983.67732	2881.725
2986.11635	2867.325
2988.55388	2836.725
2990.98993	2850.725
2993.4245	2834.425
2995.85758	2826.525
2998.28917	2829.925
3000.71928	2810.625
3003.14791	2804.425
3005.57506	2796.725
3008.00073	2778.525
3010.42493	2725.125
3012.84764	2784.425
3015.26888	2782.325
3017.68865	2766.725
3020.10694	2720.325
3022.52376	2744.525
3024.9391	2724.925
3027.35298	2723.025
3029.76539	2709.025
3032.17632	2712.125
3034.5858	2702.025
3036.9938	2714.825
3039.40034	2707.325
3041.80542	2681.925
3044.20903	2668.725
3046.61118	2664.825
3049.01187	2686.825
3051.4111	2668.425
3053.80888	2653.525
3056.20519	2644.325
3058.60005	2628.425
3060.99345	2656.825
3063.3854	2625.525
3065.7759	2598.825
3068.16494	2606.725
3070.55254	2585.125
3072.93868	2608.125
3075.32338	2589.625
3077.70662	2577.925
3080.08842	2581.625
3082.46878	2554.825
3084.84769	2581.025
3087.22515	2558.725
3089.60118	2571.125
3091.97576	2547.525
3094.3489	2563.025
3096.72061	2551.625
3099.09087	2548.325
3101.4597	2556.925
3103.82709	2547.525
3106.19305	2534.825
3108.55757	2544.925
3110.92066	2530.325
3113.28232	2548.425
3115.64255	2531.025
3118.00134	2515.725
3120.35871	2512.225
3122.71466	2478.525
3125.06917	2492.825
3127.42226	2480.625
3129.77393	2474.325
3132.12417	2473.525
3134.47299	2484.725
3136.82039	2449.925
3139.16636	2428.025
3141.51092	2462.325
3143.85406	2464.725
3146.19579	2447.425
3148.53609	2450.025
3150.87499	2442.925
3153.21246	2446.125
3155.54853	2449.225
3157.88318	2446.925
3160.21642	2462.225
3162.54826	2446.925
3164.87868	2445.825
3167.2077	2408.925
3169.5353	2436.525
3171.86151	2433.525
3174.18631	2419.725
3176.5097	2416.125
3178.83169	2425.225
3181.15228	2414.025
3183.47147	2396.425
3185.78926	2376.225
3188.10565	2380.625
3190.42065	2360.125
3192.73424	2369.125
3195.04645	2367.025
3197.35725	2353.825
3199.66667	2364.425
3201.97469	2361.525
3204.28132	2348.825
3206.58656	2357.425
3208.8904	2349.125
3211.19287	2353.925
3213.49394	2342.125
3215.79363	2340.125
3218.09193	2354.825
3220.38884	2344.225
3222.68438	2346.325
3224.97853	2318.725
3227.2713	2329.325
3229.56269	2321.825
3231.8527	2313.725
3234.14133	2314.925
3236.42858	2309.625
3238.71446	2277.525
3240.99896	2306.525
3243.28209	2273.625
3245.56384	2295.625
3247.84423	2274.225
3250.12324	2287.425
3252.40088	2273.125
3254.67715	2263.425
3256.95205	2260.025
3259.22558	2280.725
3261.49775	2271.825
3263.76855	2267.725
3266.03799	2273.925
3268.30606	2271.125
3270.57277	2260.825
3272.83812	2239.525
3275.10211	2241.125
3277.36474	2252.925
3279.62601	2242.025
3281.88593	2215.525
3284.14448	2203.325
3286.40168	2222.525
3288.65753	2208.425
3290.91202	2210.725
3293.16516	2201.225
3295.41695	2220.525
3297.66738	2199.725
3299.91647	2175.625
3302.16421	2184.125
3304.4106	2142.625
3306.65564	2161.525
3308.89933	2121.325
3311.14169	2110.125
3313.38269	2099.125
3315.62236	2080.125
3317.86068	2072.725
3320.09766	2068.425
3322.3333	2028.425
3324.5676	2027.425
3326.80056	1991.525
3329.03219	1977.125
3331.26248	-1.075
3333.49143	-0.275
3335.71905	0.125
