Data from AgNPs_UA_5uM_CRN_500uM_SU_RamanShift__13__11-31-33-141.txt Node

Date: Thu Aug 04 11:31:33 BST 2022
User: TCL
Spectrometer: QEP01345
Trigger mode: 4
Integration Time (sec): 1.000000E0
Scans to average: 10
Electric dark correction enabled: true
Nonlinearity correction enabled: false
Boxcar width: 0
XAxis mode: Raman Shifts
Number of Pixels in Spectrum: 1044
>>>>>Begin Spectral Data<<<<<
46.04893	1.1375
50.45542	0.4375
54.85868	1.0375
59.25871	-1.1625
63.6555	-55.9625
68.04907	-35.9625
72.43941	-68.0625
76.82654	-50.6625
81.21044	-49.8625
85.59113	-43.6625
89.96862	-69.2625
94.34289	-49.3625
98.71396	-70.5625
103.08183	-52.3625
107.4465	-43.6625
111.80798	-49.4625
116.16626	-35.0625
120.52136	-64.1625
124.87327	-40.3625
129.222	-50.1625
133.56755	-34.1625
137.90993	-45.0625
142.24913	-31.1625
146.58517	-19.1625
150.91804	-11.7625
155.24774	9.9375
159.57429	42.0375
163.89768	64.5375
168.21792	134.7375
172.53501	196.3375
176.84895	341.5375
181.15975	558.3375
185.46741	833.6375
189.77193	1190.1375
194.07331	1659.6375
198.37157	2184.9375
202.6667	2715.2375
206.9587	3317.7375
211.24758	3947.2375
215.53334	4649.9375
219.81599	5457.4375
224.09553	6412.5375
228.37195	7376.3375
232.64527	8301.6375
236.91549	9036.5375
241.18261	9423.0375
245.44663	9512.7375
249.70755	9493.2375
253.96539	9491.4375
258.22014	9583.8375
262.4718	9676.0375
266.72039	9636.9375
270.96589	9412.9375
275.20832	9028.2375
279.44768	8603.5375
283.68397	8303.4375
287.91719	8221.8375
292.14735	8419.8375
296.37445	9099.8375
300.59849	10191.3375
304.81948	11777.7375
309.03742	13566.2375
313.25231	14824.6375
317.46415	14601.7375
321.67296	12770.4375
325.87872	10671.3375
330.08145	9479.7375
334.28114	9234.0375
338.47781	9573.7375
342.67145	10247.4375
346.86207	11367.6375
351.04966	13014.1375
355.23424	14680.5375
359.4158	15281.1375
363.59435	14726.7375
367.76989	13721.3375
371.94243	12769.2375
376.11196	11953.4375
380.27849	11334.7375
384.44203	10860.8375
388.60257	10593.6375
392.76012	10632.7375
396.91468	10973.8375
401.06626	11433.8375
405.21485	11433.3375
409.36047	10682.8375
413.50311	9386.0375
417.64277	8197.9375
421.77947	7425.8375
425.9132	7082.2375
430.04396	6933.2375
434.17176	6912.3375
438.2966	7052.3375
442.41849	7308.1375
446.53742	7541.6375
450.6534	7691.6375
454.76644	7690.1375
458.87653	7529.7375
462.98368	7373.1375
467.08789	7200.9375
471.18916	6940.0375
475.2875	6599.6375
479.38291	6296.8375
483.4754	6114.6375
487.56496	6032.2375
491.6516	5936.5375
495.73531	5947.0375
499.81612	6014.0375
503.89401	6219.4375
507.96899	6447.2375
512.04106	6762.1375
516.11023	7080.6375
520.1765	7344.0375
524.23987	7421.7375
528.30034	7398.8375
532.35792	7237.7375
536.41261	7072.7375
540.46441	6797.6375
544.51333	6615.5375
548.55936	6612.0375
552.60252	6790.7375
556.64279	7063.0375
560.6802	7585.2375
564.71473	8753.1375
568.7464	10290.5375
572.7752	10222.8375
576.80114	8268.2375
580.82422	6686.9375
584.84444	6022.3375
588.86181	5818.3375
592.87633	5791.5375
596.888	6052.1375
600.89682	6996.4375
604.9028	10143.9375
608.90594	18189.3375
612.90624	27959.5375
616.90371	25177.8375
620.89834	13128.7375
624.89015	7887.3375
628.87913	7328.3375
632.86528	8090.1375
636.84862	8351.9375
640.82913	7416.8375
644.80683	6130.2375
648.78172	5578.7375
652.75379	5778.6375
656.72306	6722.2375
660.68952	7633.4375
664.65319	7121.6375
668.61405	5879.4375
672.57211	5373.6375
676.52738	5361.7375
680.47986	5304.9375
684.42955	5110.7375
688.37646	5045.2375
692.32058	5032.6375
696.26192	5152.4375
700.20048	5293.5375
704.13626	5318.9375
708.06928	5228.0375
711.99952	5184.1375
715.927	5245.5375
719.85171	5533.1375
723.77365	5706.4375
727.69284	5516.9375
731.60928	5345.0375
735.52295	5275.1375
739.43388	5351.1375
743.34206	5396.2375
747.24749	5392.0375
751.15017	5446.6375
755.05012	5854.2375
758.94733	7441.0375
762.8418	10951.9375
766.73354	15539.2375
770.62254	17862.3375
774.50882	16952.5375
778.39237	15091.3375
782.27321	12306.4375
786.15132	8908.0375
790.02671	6694.1375
793.89938	5684.1375
797.76935	5348.9375
801.6366	5172.2375
805.50115	5089.5375
809.36299	5050.9375
813.22213	4990.5375
817.07857	4996.7375
820.93231	5062.6375
824.78336	5185.1375
828.63172	5323.7375
832.47738	5380.6375
836.32036	5245.4375
840.16066	4983.8375
843.99827	4834.3375
847.8332	4766.7375
851.66546	4778.1375
855.49504	4757.3375
859.32195	4745.4375
863.1462	4685.9375
866.96777	4674.5375
870.78668	4666.5375
874.60293	4718.5375
878.41652	4810.1375
882.22745	4972.1375
886.03573	5083.7375
889.84136	5036.8375
893.64433	5005.0375
897.44466	5016.0375
901.24235	5037.8375
905.0374	4914.5375
908.8298	4734.9375
912.61957	4587.6375
916.40671	4483.9375
920.19121	4559.2375
923.97308	4788.0375
927.75233	5269.3375
931.52895	5801.6375
935.30295	5501.3375
939.07433	4782.1375
942.84309	4310.3375
946.60924	4177.8375
950.37278	4083.8375
954.13371	4070.9375
957.89203	4075.7375
961.64774	4064.7375
965.40086	4037.8375
969.15137	4000.2375
972.89929	4032.3375
976.64461	4013.4375
980.38733	4010.2375
984.12747	3978.1375
987.86502	3985.9375
991.59999	4044.4375
995.33237	4127.8375
999.06217	4229.6375
1002.78939	4477.0375
1006.51404	4817.2375
1010.23611	4991.0375
1013.95561	4818.2375
1017.67255	4584.1375
1021.38692	4380.8375
1025.09872	4208.8375
1028.80796	4128.5375
1032.51465	4182.9375
1036.21877	4220.1375
1039.92035	4319.9375
1043.61937	4379.3375
1047.31584	4468.0375
1051.00976	4487.5375
1054.70114	4406.9375
1058.38998	4327.5375
1062.07627	4293.2375
1065.76003	4303.3375
1069.44126	4371.6375
1073.11995	4486.8375
1076.79611	4816.1375
1080.46974	5417.3375
1084.14085	6264.4375
1087.80943	6980.5375
1091.47549	6907.2375
1095.13903	6191.4375
1098.80005	5440.4375
1102.45857	5042.2375
1106.11456	4991.3375
1109.76805	5139.6375
1113.41903	5661.3375
1117.06751	6419.6375
1120.71348	7670.5375
1124.35696	9475.8375
1127.99793	10723.7375
1131.63641	9742.8375
1135.2724	7815.1375
1138.90589	6538.3375
1142.5369	5813.9375
1146.16542	5376.4375
1149.79145	5079.1375
1153.415	4999.5375
1157.03607	5063.9375
1160.65467	5358.1375
1164.27079	5856.6375
1167.88443	6539.7375
1171.49561	7761.7375
1175.10432	9783.7375
1178.71056	12584.0375
1182.31434	14427.5375
1185.91565	14072.3375
1189.51451	12236.8375
1193.11091	10375.5375
1196.70485	9160.9375
1200.29634	8654.4375
1203.88538	8082.1375
1207.47197	6906.6375
1211.05612	5858.1375
1214.63782	5176.0375
1218.21708	4887.5375
1221.79391	4780.6375
1225.36829	4739.9375
1228.94024	4750.5375
1232.50976	4752.6375
1236.07685	4751.9375
1239.6415	4829.6375
1243.20374	4992.2375
1246.76355	5176.8375
1250.32093	5438.9375
1253.8759	5802.6375
1257.42845	6412.2375
1260.97859	7198.1375
1264.52631	7935.9375
1268.07163	8280.6375
1271.61453	8291.2375
1275.15503	7972.8375
1278.69312	7678.5375
1282.22882	7929.4375
1285.76211	8967.9375
1289.29301	10410.6375
1292.82151	11354.5375
1296.34761	11726.3375
1299.87133	12716.9375
1303.39266	15159.2375
1306.9116	19737.0375
1310.42815	25377.4375
1313.94233	27508.9375
1317.45412	23299.6375
1320.96354	17001.7375
1324.47058	12253.8375
1327.97525	9373.1375
1331.47754	7921.5375
1334.97747	7439.7375
1338.47502	7667.8375
1341.97022	8769.7375
1345.46305	11203.1375
1348.95352	14646.7375
1352.44163	18271.5375
1355.92738	22873.3375
1359.41078	30827.5375
1362.89183	39049.1375
1366.37053	36789.5375
1369.84688	25036.2375
1373.32088	15600.6375
1376.79254	11538.1375
1380.26186	9691.4375
1383.72883	8249.2375
1387.19347	6966.6375
1390.65578	6023.9375
1394.11575	5475.1375
1397.57339	5228.5375
1401.0287	5051.7375
1404.48168	4846.8375
1407.93234	4777.0375
1411.38068	4890.1375
1414.82669	5312.6375
1418.27039	5793.4375
1421.71177	5894.3375
1425.15083	5675.9375
1428.58758	5781.0375
1432.02203	6420.1375
1435.45416	6888.5375
1438.88399	6565.8375
1442.31151	6116.6375
1445.73673	6039.7375
1449.15965	5976.1375
1452.58027	5820.1375
1455.9986	5590.3375
1459.41463	5401.2375
1462.82837	5403.0375
1466.23982	5682.8375
1469.64898	6049.4375
1473.05586	6153.7375
1476.46045	6120.4375
1479.86276	6160.3375
1483.26279	6466.4375
1486.66054	7180.0375
1490.05602	8273.9375
1493.44922	10074.2375
1496.84016	12896.5375
1500.22882	17289.1375
1503.61521	23433.0375
1506.99934	31514.9375
1510.38121	39628.3375
1513.76081	43097.7375
1517.13816	38410.0375
1520.51324	28722.8375
1523.88607	19767.0375
1527.25665	13963.1375
1530.62498	10675.8375
1533.99105	8753.7375
1537.35488	7497.5375
1540.71647	6792.3375
1544.07581	6525.1375
1547.4329	6515.7375
1550.78776	6736.5375
1554.14038	7090.2375
1557.49077	7730.2375
1560.83892	8868.9375
1564.18484	10594.1375
1567.52853	12428.8375
1570.86999	13410.4375
1574.20922	13472.4375
1577.54624	12702.7375
1580.88103	10562.9375
1584.2136	7995.6375
1587.54395	6519.0375
1590.87208	6168.4375
1594.19801	6651.2375
1597.52172	7453.4375
1600.84321	7494.8375
1604.16251	6605.4375
1607.47959	5748.8375
1610.79447	5230.0375
1614.10715	4832.6375
1617.41763	4561.2375
1620.7259	4429.9375
1624.03199	4510.7375
1627.33587	4709.4375
1630.63757	5165.4375
1633.93707	5972.0375
1637.23439	7433.3375
1640.52951	10073.2375
1643.82246	14629.5375
1647.11321	20790.1375
1650.40179	25619.1375
1653.68819	25123.8375
1656.97241	19393.0375
1660.25446	12861.5375
1663.53433	8467.6375
1666.81203	6090.6375
1670.08756	4869.6375
1673.36092	4215.9375
1676.63211	3790.7375
1679.90115	3543.5375
1683.16801	3366.7375
1686.43272	3221.9375
1689.69527	3141.9375
1692.95567	3049.9375
1696.2139	3018.9375
1699.46999	2927.7375
1702.72392	2924.1375
1705.97571	2922.4375
1709.22535	2901.9375
1712.47284	2977.4375
1715.71819	2982.5375
1718.96139	2993.6375
1722.20246	2980.3375
1725.44139	2894.0375
1728.67818	2822.4375
1731.91284	2718.9375
1735.14537	2667.4375
1738.37576	2615.2375
1741.60403	2603.0375
1744.83017	2561.9375
1748.05418	2548.8375
1751.27607	2523.5375
1754.49584	2472.2375
1757.71349	2406.9375
1760.92903	2376.5375
1764.14244	2284.2375
1767.35375	2269.3375
1770.56294	2227.5375
1773.77002	2171.9375
1776.97499	2163.5375
1780.17785	2111.7375
1783.37861	2078.1375
1786.57727	2088.1375
1789.77382	2012.8375
1792.96828	2038.8375
1796.16064	2048.1375
1799.3509	2036.4375
1802.53907	2045.5375
1805.72514	2004.0375
1808.90913	1985.2375
1812.09102	1985.3375
1815.27083	1980.9375
1818.44856	1955.5375
1821.6242	1958.7375
1824.79776	1934.2375
1827.96924	1921.4375
1831.13864	1891.9375
1834.30597	1892.2375
1837.47122	1856.3375
1840.6344	1837.0375
1843.7955	1795.1375
1846.95454	1767.1375
1850.11151	1792.7375
1853.26642	1751.5375
1856.41926	1764.6375
1859.57004	1761.1375
1862.71876	1773.3375
1865.86542	1769.2375
1869.01003	1771.8375
1872.15258	1763.6375
1875.29308	1796.6375
1878.43152	1796.2375
1881.56792	1774.6375
1884.70227	1754.9375
1887.83457	1744.9375
1890.96482	1715.6375
1894.09304	1723.7375
1897.21921	1712.9375
1900.34335	1724.9375
1903.46544	1690.1375
1906.58551	1709.7375
1909.70353	1703.6375
1912.81953	1698.7375
1915.93349	1691.4375
1919.04543	1683.1375
1922.15534	1661.8375
1925.26322	1646.3375
1928.36908	1614.5375
1931.47292	1608.0375
1934.57473	1575.4375
1937.67453	1533.1375
1940.77232	1503.6375
1943.86808	1504.7375
1946.96184	1498.1375
1950.05358	1472.1375
1953.14331	1466.9375
1956.23103	1481.5375
1959.31675	1461.8375
1962.40046	1439.6375
1965.48217	1494.8375
1968.56188	1513.8375
1971.63959	1523.6375
1974.7153	1537.8375
1977.78901	1515.8375
1980.86073	1486.9375
1983.93046	1429.2375
1986.99819	1355.5375
1990.06394	1355.5375
1993.1277	1375.0375
1996.18947	1354.3375
1999.24925	1331.8375
2002.30706	1329.3375
2005.36288	1333.3375
2008.41672	1316.1375
2011.46859	1287.0375
2014.51848	1280.1375
2017.56639	1267.5375
2020.61233	1248.3375
2023.6563	1256.7375
2026.6983	1223.5375
2029.73833	1239.9375
2032.7764	1244.8375
2035.8125	1207.5375
2038.84664	1216.8375
2041.87881	1208.5375
2044.90903	1222.2375
2047.93729	1211.6375
2050.96359	1185.4375
2053.98794	1195.8375
2057.01034	1185.9375
2060.03078	1161.3375
2063.04927	1148.6375
2066.06582	1139.9375
2069.08042	1128.4375
2072.09307	1130.9375
2075.10378	1129.6375
2078.11255	1127.7375
2081.11938	1129.2375
2084.12426	1124.1375
2087.12722	1122.6375
2090.12824	1109.1375
2093.12732	1120.7375
2096.12447	1120.6375
2099.11969	1107.2375
2102.11299	1108.2375
2105.10435	1127.6375
2108.09379	1118.1375
2111.08131	1113.2375
2114.0669	1125.7375
2117.05057	1132.4375
2120.03233	1141.6375
2123.01216	1173.1375
2125.99008	1189.4375
2128.96609	1192.7375
2131.94018	1204.3375
2134.91236	1166.5375
2137.88263	1151.1375
2140.851	1134.6375
2143.81746	1129.6375
2146.78201	1104.8375
2149.74466	1075.6375
2152.7054	1078.3375
2155.66425	1047.6375
2158.6212	1042.0375
2161.57625	1015.0375
2164.52941	997.0375
2167.48067	1014.9375
2170.43004	1026.2375
2173.37752	1039.4375
2176.32311	1042.7375
2179.26681	1052.2375
2182.20863	1056.0375
2185.14856	1040.7375
2188.08661	1040.2375
2191.02278	1039.2375
2193.95707	1001.9375
2196.88948	985.9375
2199.82001	996.8375
2202.74867	983.2375
2205.67545	993.8375
2208.60037	995.1375
2211.52341	985.6375
2214.44458	973.5375
2217.36388	981.4375
2220.28132	964.0375
2223.1969	952.4375
2226.11061	953.4375
2229.02246	941.7375
2231.93245	942.5375
2234.84058	930.1375
2237.74686	925.7375
2240.65128	921.9375
2243.55385	937.6375
2246.45456	929.7375
2249.35343	966.6375
2252.25044	969.0375
2255.14561	1002.9375
2258.03893	1026.2375
2260.93041	1047.4375
2263.82004	1059.4375
2266.70783	1059.6375
2269.59378	1041.5375
2272.4779	1036.5375
2275.36017	1045.3375
2278.24061	1031.5375
2281.11922	998.2375
2283.996	1012.6375
2286.87094	990.4375
2289.74405	978.2375
2292.61534	961.4375
2295.4848	946.2375
2298.35243	921.7375
2301.21824	915.0375
2304.08223	911.2375
2306.94439	917.4375
2309.80474	921.9375
2312.66327	923.9375
2315.51999	907.5375
2318.37489	898.1375
2321.22797	883.2375
2324.07925	884.3375
2326.92871	885.6375
2329.77637	876.0375
2332.62222	885.0375
2335.46626	860.4375
2338.3085	870.5375
2341.14893	896.0375
2343.98756	906.7375
2346.8244	890.2375
2349.65943	902.4375
2352.49267	922.6375
2355.32411	936.0375
2358.15376	941.6375
2360.98161	967.0375
2363.80768	960.6375
2366.63195	992.8375
2369.45444	1013.4375
2372.27514	1018.6375
2375.09405	1026.0375
2377.91118	989.3375
2380.72652	980.9375
2383.54009	974.3375
2386.35187	970.4375
2389.16188	938.2375
2391.97011	920.5375
2394.77657	899.0375
2397.58125	897.4375
2400.38416	883.3375
2403.18529	867.9375
2405.98466	858.8375
2408.78226	860.5375
2411.57809	852.6375
2414.37216	846.2375
2417.16446	851.6375
2419.955	835.9375
2422.74378	860.0375
2425.5308	846.7375
2428.31606	862.6375
2431.09956	877.0375
2433.88131	861.1375
2436.6613	887.1375
2439.43954	883.7375
2442.21603	889.8375
2444.99077	885.9375
2447.76377	909.5375
2450.53501	910.2375
2453.30451	915.8375
2456.07226	934.2375
2458.83827	916.2375
2461.60254	875.3375
2464.36507	918.2375
2467.12586	891.0375
2469.88492	911.2375
2472.64224	913.4375
2475.39782	895.8375
2478.15167	929.7375
2480.90379	942.1375
2483.65417	979.7375
2486.40283	1000.2375
2489.14976	1020.5375
2491.89497	1016.3375
2494.63845	1015.7375
2497.3802	1001.1375
2500.12024	992.1375
2502.85855	978.5375
2505.59514	959.0375
2508.33002	933.1375
2511.06318	886.3375
2513.79462	873.3375
2516.52435	815.6375
2519.25237	775.6375
2521.97867	770.0375
2524.70327	760.2375
2527.42616	764.9375
2530.14734	763.9375
2532.86681	743.4375
2535.58458	748.7375
2538.30065	746.3375
2541.01501	771.3375
2543.72768	764.6375
2546.43864	772.1375
2549.14791	771.4375
2551.85548	775.3375
2554.56136	783.9375
2557.26554	797.5375
2559.96803	805.7375
2562.66883	807.0375
2565.36794	802.5375
2568.06536	780.9375
2570.7611	815.6375
2573.45514	802.3375
2576.14751	794.3375
2578.83819	780.2375
2581.52719	771.4375
2584.21451	771.2375
2586.90015	753.5375
2589.58411	734.2375
2592.2664	751.6375
2594.94701	749.0375
2597.62594	749.7375
2600.30321	708.9375
2602.9788	734.8375
2605.65273	729.3375
2608.32498	741.5375
2610.99557	763.6375
2613.66449	733.6375
2616.33175	761.0375
2618.99734	759.1375
2621.66128	767.5375
2624.32355	758.3375
2626.98416	738.9375
2629.64311	722.1375
2632.30041	714.7375
2634.95605	699.3375
2637.61004	687.0375
2640.26238	667.6375
2642.91306	656.9375
2645.56209	681.0375
2648.20948	667.7375
2650.85521	656.8375
2653.4993	692.7375
2656.14175	687.7375
2658.78255	686.0375
2661.42171	663.1375
2664.05923	701.6375
2666.6951	716.9375
2669.32934	732.3375
2671.96194	747.7375
2674.59291	736.3375
2677.22224	736.0375
2679.84993	732.0375
2682.476	719.4375
2685.10043	713.1375
2687.72324	695.2375
2690.34441	694.6375
2692.96396	697.4375
2695.58188	703.8375
2698.19818	691.5375
2700.81285	677.5375
2703.4259	676.9375
2706.03733	645.1375
2708.64714	667.1375
2711.25533	693.4375
2713.86191	710.7375
2716.46687	695.1375
2719.07021	705.2375
2721.67194	698.0375
2724.27206	711.1375
2726.87057	679.3375
2729.46747	669.7375
2732.06276	669.0375
2734.65644	656.3375
2737.24852	650.4375
2739.83899	631.8375
2742.42786	639.1375
2745.01513	637.6375
2747.60079	619.3375
2750.18486	598.8375
2752.76733	603.3375
2755.3482	592.0375
2757.92747	591.8375
2760.50515	573.3375
2763.08123	570.1375
2765.65573	567.4375
2768.22863	561.3375
2770.79994	560.6375
2773.36967	560.0375
2775.9378	567.0375
2778.50435	561.4375
2781.06932	561.7375
2783.6327	555.4375
2786.1945	587.7375
2788.75471	576.5375
2791.31335	573.8375
2793.87041	586.9375
2796.42589	578.8375
2798.97979	582.0375
2801.53212	597.2375
2804.08288	623.1375
2806.63206	623.5375
2809.17967	622.2375
2811.72571	652.5375
2814.27018	664.9375
2816.81308	676.9375
2819.35442	663.9375
2821.89419	704.2375
2824.43239	707.1375
2826.96904	739.6375
2829.50412	713.6375
2832.03763	713.4375
2834.56959	708.6375
2837.1	687.1375
2839.62884	686.4375
2842.15613	674.4375
2844.68186	682.7375
2847.20604	664.6375
2849.72867	666.5375
2852.24974	691.5375
2854.76927	675.3375
2857.28724	651.5375
2859.80367	730.8375
2862.31855	750.7375
2864.83189	754.3375
2867.34368	783.2375
2869.85393	806.2375
2872.36264	796.2375
2874.8698	805.6375
2877.37543	814.8375
2879.87952	796.3375
2882.38207	755.5375
2884.88308	755.1375
2887.38256	740.1375
2889.88051	720.5375
2892.37692	717.9375
2894.8718	700.9375
2897.36515	708.8375
2899.85698	712.7375
2902.34727	717.8375
2904.83604	738.3375
2907.32328	761.5375
2909.809	776.4375
2912.29319	790.7375
2914.77587	811.7375
2917.25702	816.6375
2919.73665	798.5375
2922.21476	782.2375
2924.69136	765.5375
2927.16644	730.6375
2929.64	715.6375
2932.11205	688.2375
2934.58258	693.8375
2937.05161	680.3375
2939.51912	676.8375
2941.98513	692.6375
2944.44962	685.4375
2946.91261	661.4375
2949.37409	665.5375
2951.83407	669.2375
2954.29254	678.7375
2956.74951	680.2375
2959.20498	671.3375
2961.65895	682.3375
2964.11142	666.8375
2966.56239	661.4375
2969.01186	661.6375
2971.45984	651.9375
2973.90632	648.6375
2976.35131	665.5375
2978.7948	659.4375
2981.23681	651.1375
2983.67732	661.5375
2986.11635	662.0375
2988.55388	648.5375
2990.98993	660.2375
2993.4245	657.9375
2995.85758	651.6375
2998.28917	656.3375
3000.71928	656.1375
3003.14791	664.8375
3005.57506	656.5375
3008.00073	643.2375
3010.42493	597.1375
3012.84764	655.2375
3015.26888	648.9375
3017.68865	643.7375
3020.10694	606.9375
3022.52376	621.0375
3024.9391	617.5375
3027.35298	603.7375
3029.76539	584.6375
3032.17632	574.1375
3034.5858	558.1375
3036.9938	554.1375
3039.40034	538.1375
3041.80542	515.5375
3044.20903	505.1375
3046.61118	489.0375
3049.01187	501.3375
3051.4111	486.6375
3053.80888	485.2375
3056.20519	478.5375
3058.60005	469.5375
3060.99345	490.7375
3063.3854	470.8375
3065.7759	461.1375
3068.16494	453.2375
3070.55254	446.4375
3072.93868	461.3375
3075.32338	452.8375
3077.70662	446.7375
3080.08842	446.4375
3082.46878	429.2375
3084.84769	449.9375
3087.22515	427.2375
3089.60118	440.0375
3091.97576	424.8375
3094.3489	431.5375
3096.72061	424.8375
3099.09087	404.3375
3101.4597	423.4375
3103.82709	415.8375
3106.19305	403.9375
3108.55757	414.6375
3110.92066	412.8375
3113.28232	421.2375
3115.64255	424.1375
3118.00134	428.7375
3120.35871	411.0375
3122.71466	397.0375
3125.06917	410.1375
3127.42226	410.9375
3129.77393	395.8375
3132.12417	415.5375
3134.47299	427.2375
3136.82039	409.1375
3139.16636	383.7375
3141.51092	410.6375
3143.85406	415.0375
3146.19579	404.4375
3148.53609	406.3375
3150.87499	415.0375
3153.21246	414.8375
3155.54853	422.7375
3157.88318	423.0375
3160.21642	424.3375
3162.54826	418.5375
3164.87868	420.9375
3167.2077	381.4375
3169.5353	397.7375
3171.86151	403.7375
3174.18631	380.9375
3176.5097	374.0375
3178.83169	382.0375
3181.15228	374.4375
3183.47147	354.3375
3185.78926	336.6375
3188.10565	347.3375
3190.42065	325.5375
3192.73424	341.6375
3195.04645	334.2375
3197.35725	328.1375
3199.66667	340.8375
3201.97469	335.8375
3204.28132	335.4375
3206.58656	350.3375
3208.8904	356.0375
3211.19287	351.5375
3213.49394	347.8375
3215.79363	347.9375
3218.09193	362.4375
3220.38884	358.4375
3222.68438	353.9375
3224.97853	340.0375
3227.2713	359.5375
3229.56269	338.1375
3231.8527	348.4375
3234.14133	337.6375
3236.42858	335.2375
3238.71446	317.3375
3240.99896	336.4375
3243.28209	319.3375
3245.56384	328.9375
3247.84423	323.8375
3250.12324	333.6375
3252.40088	327.6375
3254.67715	318.0375
3256.95205	311.8375
3259.22558	325.1375
3261.49775	325.2375
3263.76855	321.2375
3266.03799	332.2375
3268.30606	329.2375
3270.57277	336.9375
3272.83812	329.2375
3275.10211	333.3375
3277.36474	356.6375
3279.62601	360.5375
3281.88593	353.7375
3284.14448	340.6375
3286.40168	377.4375
3288.65753	371.7375
3290.91202	387.9375
3293.16516	385.4375
3295.41695	418.5375
3297.66738	435.9375
3299.91647	425.1375
3302.16421	442.9375
3304.4106	409.5375
3306.65564	451.0375
3308.89933	429.5375
3311.14169	438.6375
3313.38269	445.4375
3315.62236	437.2375
3317.86068	443.4375
3320.09766	464.7375
3322.3333	441.9375
3324.5676	457.8375
3326.80056	457.4375
3329.03219	470.6375
3331.26248	-1.1625
3333.49143	-0.9625
3335.71905	0.2375
