Data from AgNPs_UA_10uM_CRN_500uM_SU_RamanShift__145__13-29-30-282.txt Node

Date: Thu Aug 04 13:29:30 BST 2022
User: TCL
Spectrometer: QEP01345
Trigger mode: 4
Integration Time (sec): 1.000000E0
Scans to average: 10
Electric dark correction enabled: true
Nonlinearity correction enabled: false
Boxcar width: 0
XAxis mode: Raman Shifts
Number of Pixels in Spectrum: 1044
>>>>>Begin Spectral Data<<<<<
46.04893	-0.5625
50.45542	-0.1625
54.85868	0.3375
59.25871	-0.4625
63.6555	19.7375
68.04907	19.5375
72.43941	21.9375
76.82654	21.5375
81.21044	23.3375
85.59113	23.8375
89.96862	25.0375
94.34289	25.2375
98.71396	25.0375
103.08183	27.7375
107.4465	27.3375
111.80798	28.0375
116.16626	28.1375
120.52136	33.0375
124.87327	33.1375
129.222	34.8375
133.56755	35.1375
137.90993	36.3375
142.24913	43.2375
146.58517	49.7375
150.91804	56.3375
155.24774	72.2375
159.57429	87.6375
163.89768	116.1375
168.21792	156.5375
172.53501	210.2375
176.84895	294.2375
181.15975	418.4375
185.46741	591.9375
189.77193	818.8375
194.07331	1096.9375
198.37157	1417.3375
202.6667	1746.3375
206.9587	2080.0375
211.24758	2408.9375
215.53334	2717.9375
219.81599	3072.4375
224.09553	3465.6375
228.37195	3914.2375
232.64527	4366.8375
236.91549	4862.8375
241.18261	5291.2375
245.44663	5691.0375
249.70755	5987.1375
253.96539	6261.6375
258.22014	6508.7375
262.4718	6689.1375
266.72039	6848.0375
270.96589	6890.1375
275.20832	6906.3375
279.44768	6806.2375
283.68397	6714.5375
287.91719	6643.5375
292.14735	6631.8375
296.37445	6698.5375
300.59849	6862.2375
304.81948	7041.1375
309.03742	7190.9375
313.25231	7242.6375
317.46415	7156.4375
321.67296	6947.1375
325.87872	6745.8375
330.08145	6652.8375
334.28114	6690.2375
338.47781	6761.6375
342.67145	6889.2375
346.86207	7062.8375
351.04966	7310.0375
355.23424	7565.2375
359.4158	7795.5375
363.59435	7903.9375
367.76989	7975.1375
371.94243	8045.9375
376.11196	8063.3375
380.27849	8073.5375
384.44203	8106.4375
388.60257	8124.8375
392.76012	8193.4375
396.91468	8306.6375
401.06626	8457.8375
405.21485	8523.2375
409.36047	8457.6375
413.50311	8233.4375
417.64277	8008.7375
421.77947	7893.6375
425.9132	7866.2375
430.04396	7886.4375
434.17176	7987.0375
438.2966	8141.7375
442.41849	8352.4375
446.53742	8633.3375
450.6534	8911.6375
454.76644	9053.2375
458.87653	9105.3375
462.98368	9014.4375
467.08789	8821.0375
471.18916	8589.2375
475.2875	8361.9375
479.38291	8153.0375
483.4754	8028.8375
487.56496	7962.9375
491.6516	7899.4375
495.73531	7869.6375
499.81612	7884.0375
503.89401	7935.5375
507.96899	7969.1375
512.04106	8036.0375
516.11023	8071.6375
520.1765	8149.6375
524.23987	8196.5375
528.30034	8190.5375
532.35792	8134.3375
536.41261	8049.0375
540.46441	7940.0375
544.51333	7916.9375
548.55936	7989.5375
552.60252	8087.1375
556.64279	8209.2375
560.6802	8283.7375
564.71473	8342.1375
568.7464	8393.1375
572.7752	8393.8375
576.80114	8299.0375
580.82422	8250.2375
584.84444	8311.4375
588.86181	8464.4375
592.87633	8710.2375
596.888	8908.3375
600.89682	9200.6375
604.9028	10087.2375
608.90594	11866.8375
612.90624	13461.2375
616.90371	12332.9375
620.89834	9941.1375
624.89015	9095.5375
628.87913	9058.3375
632.86528	8988.9375
636.84862	8824.2375
640.82913	8564.9375
644.80683	8245.2375
648.78172	8092.4375
652.75379	8132.3375
656.72306	8385.5375
660.68952	8632.0375
664.65319	8592.6375
668.61405	8482.0375
672.57211	8482.3375
676.52738	8473.1375
680.47986	8331.9375
684.42955	8210.2375
688.37646	8224.7375
692.32058	8309.2375
696.26192	8441.1375
700.20048	8576.1375
704.13626	8594.0375
708.06928	8459.6375
711.99952	8358.1375
715.927	8361.0375
719.85171	8418.4375
723.77365	8385.7375
727.69284	8350.0375
731.60928	8271.2375
735.52295	8277.7375
739.43388	8386.0375
743.34206	8415.7375
747.24749	8476.2375
751.15017	8484.8375
755.05012	8597.8375
758.94733	8883.0375
762.8418	9495.5375
766.73354	10454.6375
770.62254	11275.5375
774.50882	11522.2375
778.39237	11075.8375
782.27321	10238.3375
786.15132	9426.2375
790.02671	8915.3375
793.89938	8662.7375
797.76935	8542.6375
801.6366	8519.2375
805.50115	8463.3375
809.36299	8417.0375
813.22213	8380.8375
817.07857	8368.1375
820.93231	8376.4375
824.78336	8342.7375
828.63172	8390.3375
832.47738	8410.9375
836.32036	8446.7375
840.16066	8503.3375
843.99827	8514.2375
847.8332	8488.2375
851.66546	8468.2375
855.49504	8466.7375
859.32195	8454.4375
863.1462	8431.8375
866.96777	8391.1375
870.78668	8394.0375
874.60293	8404.4375
878.41652	8417.6375
882.22745	8494.7375
886.03573	8537.4375
889.84136	8549.5375
893.64433	8505.4375
897.44466	8470.4375
901.24235	8449.8375
905.0374	8449.7375
908.8298	8420.6375
912.61957	8425.1375
916.40671	8456.1375
920.19121	8547.4375
923.97308	8647.2375
927.75233	8766.3375
931.52895	8831.7375
935.30295	8761.9375
939.07433	8585.8375
942.84309	8474.3375
946.60924	8453.0375
950.37278	8428.8375
954.13371	8354.1375
957.89203	8302.5375
961.64774	8275.7375
965.40086	8269.0375
969.15137	8210.2375
972.89929	8237.5375
976.64461	8245.2375
980.38733	8281.2375
984.12747	8316.7375
987.86502	8387.1375
991.59999	8508.3375
995.33237	8707.4375
999.06217	9040.4375
1002.78939	9394.4375
1006.51404	9497.3375
1010.23611	9548.3375
1013.95561	9698.1375
1017.67255	9787.8375
1021.38692	9788.4375
1025.09872	9809.4375
1028.80796	9988.8375
1032.51465	10315.4375
1036.21877	10523.8375
1039.92035	10474.5375
1043.61937	10257.3375
1047.31584	9927.1375
1051.00976	9629.4375
1054.70114	9480.7375
1058.38998	9462.2375
1062.07627	9453.7375
1065.76003	9444.4375
1069.44126	9455.8375
1073.11995	9577.0375
1076.79611	9677.8375
1080.46974	9781.3375
1084.14085	9890.6375
1087.80943	9997.2375
1091.47549	9939.4375
1095.13903	9872.2375
1098.80005	9736.7375
1102.45857	9686.5375
1106.11456	9672.8375
1109.76805	9712.7375
1113.41903	9756.5375
1117.06751	9882.5375
1120.71348	10093.8375
1124.35696	10240.9375
1127.99793	10353.9375
1131.63641	10220.9375
1135.2724	9992.2375
1138.90589	9796.0375
1142.5369	9607.7375
1146.16542	9485.7375
1149.79145	9450.1375
1153.415	9448.2375
1157.03607	9486.1375
1160.65467	9604.7375
1164.27079	9850.7375
1167.88443	10256.7375
1171.49561	10838.1375
1175.10432	11663.7375
1178.71056	12778.2375
1182.31434	13800.4375
1185.91565	14311.4375
1189.51451	14296.9375
1193.11091	13813.7375
1196.70485	13132.8375
1200.29634	12539.2375
1203.88538	11995.6375
1207.47197	11492.6375
1211.05612	11073.3375
1214.63782	10821.9375
1218.21708	10777.3375
1221.79391	10888.9375
1225.36829	10970.1375
1228.94024	10904.3375
1232.50976	10774.8375
1236.07685	10642.1375
1239.6415	10644.2375
1243.20374	10706.0375
1246.76355	10757.9375
1250.32093	10899.6375
1253.8759	11156.2375
1257.42845	11480.6375
1260.97859	11804.1375
1264.52631	12095.3375
1268.07163	12356.9375
1271.61453	12613.6375
1275.15503	12851.6375
1278.69312	13128.6375
1282.22882	13397.6375
1285.76211	13610.1375
1289.29301	13740.6375
1292.82151	13959.9375
1296.34761	14276.2375
1299.87133	14854.1375
1303.39266	15821.8375
1306.9116	17141.4375
1310.42815	18552.5375
1313.94233	19167.8375
1317.45412	18763.2375
1320.96354	17754.3375
1324.47058	16634.8375
1327.97525	15815.1375
1331.47754	15391.4375
1334.97747	15374.1375
1338.47502	15595.8375
1341.97022	16045.6375
1345.46305	16569.9375
1348.95352	17238.2375
1352.44163	18008.1375
1355.92738	18973.8375
1359.41078	20244.8375
1362.89183	20985.2375
1366.37053	19858.5375
1369.84688	17433.2375
1373.32088	15234.6375
1376.79254	13966.8375
1380.26186	13379.1375
1383.72883	13047.0375
1387.19347	12732.0375
1390.65578	12363.1375
1394.11575	12046.9375
1397.57339	11900.8375
1401.0287	11971.8375
1404.48168	12114.9375
1407.93234	12347.6375
1411.38068	12549.6375
1414.82669	12678.4375
1418.27039	12597.8375
1421.71177	12417.9375
1425.15083	12313.2375
1428.58758	12353.5375
1432.02203	12549.5375
1435.45416	12718.9375
1438.88399	12738.6375
1442.31151	12695.5375
1445.73673	12618.3375
1449.15965	12579.5375
1452.58027	12483.3375
1455.9986	12356.6375
1459.41463	12325.5375
1462.82837	12440.2375
1466.23982	12646.7375
1469.64898	12881.1375
1473.05586	13040.6375
1476.46045	13218.6375
1479.86276	13331.4375
1483.26279	13442.6375
1486.66054	13582.8375
1490.05602	13834.1375
1493.44922	14225.3375
1496.84016	14821.9375
1500.22882	15563.7375
1503.61521	16551.7375
1506.99934	17551.4375
1510.38121	18071.5375
1513.76081	17791.8375
1517.13816	16682.2375
1520.51324	15407.5375
1523.88607	14447.5375
1527.25665	13841.7375
1530.62498	13580.3375
1533.99105	13466.7375
1537.35488	13404.6375
1540.71647	13337.8375
1544.07581	13248.3375
1547.4329	13115.9375
1550.78776	12937.5375
1554.14038	12740.4375
1557.49077	12643.3375
1560.83892	12636.2375
1564.18484	12754.7375
1567.52853	12867.3375
1570.86999	12942.3375
1574.20922	12923.0375
1577.54624	12764.5375
1580.88103	12384.9375
1584.2136	12037.7375
1587.54395	12051.8375
1590.87208	12518.0375
1594.19801	13441.6375
1597.52172	14498.5375
1600.84321	15099.9375
1604.16251	14892.5375
1607.47959	14166.0375
1610.79447	13179.5375
1614.10715	12166.8375
1617.41763	11357.7375
1620.7259	10809.2375
1624.03199	10570.0375
1627.33587	10581.2375
1630.63757	10904.1375
1633.93707	11487.2375
1637.23439	12395.7375
1640.52951	13530.4375
1643.82246	14691.3375
1647.11321	15563.9375
1650.40179	15417.1375
1653.68819	14228.4375
1656.97241	12492.3375
1660.25446	11021.2375
1663.53433	10063.9375
1666.81203	9463.5375
1670.08756	9091.9375
1673.36092	8891.6375
1676.63211	8716.5375
1679.90115	8600.8375
1683.16801	8502.4375
1686.43272	8429.8375
1689.69527	8380.2375
1692.95567	8352.2375
1696.2139	8301.5375
1699.46999	8300.4375
1702.72392	8296.2375
1705.97571	8268.1375
1709.22535	8290.4375
1712.47284	8293.6375
1715.71819	8283.1375
1718.96139	8250.8375
1722.20246	8229.0375
1725.44139	8211.9375
1728.67818	8166.5375
1731.91284	8140.8375
1735.14537	8100.1375
1738.37576	8079.7375
1741.60403	8041.6375
1744.83017	8026.7375
1748.05418	8037.4375
1751.27607	8012.7375
1754.49584	7968.0375
1757.71349	7963.9375
1760.92903	7966.4375
1764.14244	7936.9375
1767.35375	7912.9375
1770.56294	7911.0375
1773.77002	7921.8375
1776.97499	7876.0375
1780.17785	7877.4375
1783.37861	7862.3375
1786.57727	7839.4375
1789.77382	7844.5375
1792.96828	7847.6375
1796.16064	7854.9375
1799.3509	7802.9375
1802.53907	7813.8375
1805.72514	7802.4375
1808.90913	7776.2375
1812.09102	7782.0375
1815.27083	7751.2375
1818.44856	7724.8375
1821.6242	7712.1375
1824.79776	7698.1375
1827.96924	7682.9375
1831.13864	7675.1375
1834.30597	7670.0375
1837.47122	7659.5375
1840.6344	7652.9375
1843.7955	7652.0375
1846.95454	7656.7375
1850.11151	7653.8375
1853.26642	7650.9375
1856.41926	7655.6375
1859.57004	7645.5375
1862.71876	7662.5375
1865.86542	7638.7375
1869.01003	7629.5375
1872.15258	7629.5375
1875.29308	7611.3375
1878.43152	7614.4375
1881.56792	7597.8375
1884.70227	7594.5375
1887.83457	7571.2375
1890.96482	7570.9375
1894.09304	7583.9375
1897.21921	7563.4375
1900.34335	7550.2375
1903.46544	7554.1375
1906.58551	7551.1375
1909.70353	7547.6375
1912.81953	7544.4375
1915.93349	7538.4375
1919.04543	7527.8375
1922.15534	7511.2375
1925.26322	7515.3375
1928.36908	7504.2375
1931.47292	7487.9375
1934.57473	7471.2375
1937.67453	7461.9375
1940.77232	7448.4375
1943.86808	7409.4375
1946.96184	7419.3375
1950.05358	7400.3375
1953.14331	7369.5375
1956.23103	7359.6375
1959.31675	7321.8375
1962.40046	7310.4375
1965.48217	7268.2375
1968.56188	7252.8375
1971.63959	7228.8375
1974.7153	7242.4375
1977.78901	7225.7375
1980.86073	7207.8375
1983.93046	7163.3375
1986.99819	7127.4375
1990.06394	7122.4375
1993.1277	7105.9375
1996.18947	7079.7375
1999.24925	7035.4375
2002.30706	7026.8375
2005.36288	6992.3375
2008.41672	6992.6375
2011.46859	6967.8375
2014.51848	6975.8375
2017.56639	6936.8375
2020.61233	6903.3375
2023.6563	6908.0375
2026.6983	6894.5375
2029.73833	6858.4375
2032.7764	6868.6375
2035.8125	6867.4375
2038.84664	6843.8375
2041.87881	6829.0375
2044.90903	6819.4375
2047.93729	6802.1375
2050.96359	6786.2375
2053.98794	6773.5375
2057.01034	6780.0375
2060.03078	6792.7375
2063.04927	6755.1375
2066.06582	6780.1375
2069.08042	6756.0375
2072.09307	6730.7375
2075.10378	6749.8375
2078.11255	6733.4375
2081.11938	6709.2375
2084.12426	6715.3375
2087.12722	6687.4375
2090.12824	6714.7375
2093.12732	6702.5375
2096.12447	6707.3375
2099.11969	6709.7375
2102.11299	6722.9375
2105.10435	6726.8375
2108.09379	6726.6375
2111.08131	6722.1375
2114.0669	6718.4375
2117.05057	6736.6375
2120.03233	6763.6375
2123.01216	6739.3375
2125.99008	6743.4375
2128.96609	6752.6375
2131.94018	6757.1375
2134.91236	6752.6375
2137.88263	6734.7375
2140.851	6748.3375
2143.81746	6775.4375
2146.78201	6758.7375
2149.74466	6748.4375
2152.7054	6769.7375
2155.66425	6771.7375
2158.6212	6749.0375
2161.57625	6746.5375
2164.52941	6743.2375
2167.48067	6722.9375
2170.43004	6729.9375
2173.37752	6731.2375
2176.32311	6736.6375
2179.26681	6754.1375
2182.20863	6745.3375
2185.14856	6754.3375
2188.08661	6745.9375
2191.02278	6736.4375
2193.95707	6750.8375
2196.88948	6755.0375
2199.82001	6746.5375
2202.74867	6726.3375
2205.67545	6765.5375
2208.60037	6758.0375
2211.52341	6733.2375
2214.44458	6729.1375
2217.36388	6703.9375
2220.28132	6689.7375
2223.1969	6679.1375
2226.11061	6657.2375
2229.02246	6678.0375
2231.93245	6662.8375
2234.84058	6631.6375
2237.74686	6616.6375
2240.65128	6622.2375
2243.55385	6610.3375
2246.45456	6592.4375
2249.35343	6588.3375
2252.25044	6567.6375
2255.14561	6556.0375
2258.03893	6566.0375
2260.93041	6567.4375
2263.82004	6548.0375
2266.70783	6532.0375
2269.59378	6519.4375
2272.4779	6495.5375
2275.36017	6465.3375
2278.24061	6472.2375
2281.11922	6435.0375
2283.996	6451.0375
2286.87094	6432.3375
2289.74405	6423.4375
2292.61534	6423.9375
2295.4848	6404.9375
2298.35243	6406.1375
2301.21824	6415.9375
2304.08223	6405.8375
2306.94439	6418.1375
2309.80474	6426.9375
2312.66327	6419.9375
2315.51999	6416.5375
2318.37489	6435.2375
2321.22797	6415.1375
2324.07925	6404.5375
2326.92871	6408.9375
2329.77637	6399.4375
2332.62222	6387.6375
2335.46626	6382.9375
2338.3085	6376.8375
2341.14893	6390.3375
2343.98756	6397.0375
2346.8244	6419.2375
2349.65943	6416.0375
2352.49267	6402.6375
2355.32411	6391.3375
2358.15376	6401.8375
2360.98161	6416.8375
2363.80768	6401.8375
2366.63195	6380.6375
2369.45444	6365.6375
2372.27514	6344.1375
2375.09405	6338.4375
2377.91118	6310.2375
2380.72652	6301.8375
2383.54009	6292.1375
2386.35187	6273.3375
2389.16188	6260.0375
2391.97011	6248.7375
2394.77657	6238.3375
2397.58125	6212.8375
2400.38416	6228.8375
2403.18529	6208.4375
2405.98466	6209.9375
2408.78226	6165.5375
2411.57809	6148.7375
2414.37216	6148.9375
2417.16446	6154.9375
2419.955	6126.8375
2422.74378	6127.6375
2425.5308	6114.1375
2428.31606	6124.1375
2431.09956	6109.4375
2433.88131	6106.2375
2436.6613	6085.7375
2439.43954	6110.3375
2442.21603	6091.2375
2444.99077	6090.6375
2447.76377	6099.1375
2450.53501	6095.3375
2453.30451	6102.0375
2456.07226	6076.5375
2458.83827	6080.2375
2461.60254	6072.1375
2464.36507	6043.8375
2467.12586	6045.6375
2469.88492	6046.9375
2472.64224	6063.8375
2475.39782	6056.2375
2478.15167	6066.7375
2480.90379	6042.2375
2483.65417	6045.3375
2486.40283	6055.2375
2489.14976	6084.7375
2491.89497	6074.9375
2494.63845	6087.6375
2497.3802	6050.6375
2500.12024	6067.4375
2502.85855	6058.4375
2505.59514	6053.3375
2508.33002	6062.7375
2511.06318	6017.5375
2513.79462	6004.4375
2516.52435	6010.6375
2519.25237	5996.7375
2521.97867	5973.8375
2524.70327	5987.0375
2527.42616	5985.3375
2530.14734	5987.7375
2532.86681	5966.9375
2535.58458	5986.5375
2538.30065	6006.4375
2541.01501	5995.7375
2543.72768	5987.2375
2546.43864	5978.9375
2549.14791	5949.9375
2551.85548	5946.6375
2554.56136	5955.0375
2557.26554	5961.0375
2559.96803	5939.5375
2562.66883	5913.6375
2565.36794	5911.1375
2568.06536	5906.3375
2570.7611	5896.3375
2573.45514	5880.2375
2576.14751	5883.7375
2578.83819	5871.1375
2581.52719	5881.0375
2584.21451	5872.8375
2586.90015	5882.3375
2589.58411	5880.1375
2592.2664	5869.6375
2594.94701	5862.3375
2597.62594	5875.5375
2600.30321	5846.9375
2602.9788	5865.2375
2605.65273	5858.1375
2608.32498	5858.7375
2610.99557	5832.8375
2613.66449	5842.8375
2616.33175	5840.5375
2618.99734	5844.1375
2621.66128	5841.0375
2624.32355	5841.0375
2626.98416	5843.4375
2629.64311	5838.5375
2632.30041	5861.5375
2634.95605	5848.7375
2637.61004	5835.3375
2640.26238	5827.6375
2642.91306	5810.4375
2645.56209	5808.1375
2648.20948	5809.0375
2650.85521	5787.1375
2653.4993	5780.2375
2656.14175	5756.0375
2658.78255	5784.7375
2661.42171	5757.7375
2664.05923	5780.4375
2666.6951	5789.9375
2669.32934	5789.6375
2671.96194	5803.9375
2674.59291	5813.4375
2677.22224	5809.7375
2679.84993	5806.4375
2682.476	5796.7375
2685.10043	5782.6375
2687.72324	5788.4375
2690.34441	5769.5375
2692.96396	5782.8375
2695.58188	5782.1375
2698.19818	5751.8375
2700.81285	5747.4375
2703.4259	5747.4375
2706.03733	5759.0375
2708.64714	5730.0375
2711.25533	5734.5375
2713.86191	5737.7375
2716.46687	5744.7375
2719.07021	5730.1375
2721.67194	5743.2375
2724.27206	5737.3375
2726.87057	5728.9375
2729.46747	5740.6375
2732.06276	5740.2375
2734.65644	5747.5375
2737.24852	5734.7375
2739.83899	5721.4375
2742.42786	5731.2375
2745.01513	5685.0375
2747.60079	5708.9375
2750.18486	5687.6375
2752.76733	5702.3375
2755.3482	5701.6375
2757.92747	5681.0375
2760.50515	5659.9375
2763.08123	5682.8375
2765.65573	5671.9375
2768.22863	5659.2375
2770.79994	5654.2375
2773.36967	5653.7375
2775.9378	5659.3375
2778.50435	5659.5375
2781.06932	5647.5375
2783.6327	5665.8375
2786.1945	5656.4375
2788.75471	5647.3375
2791.31335	5646.7375
2793.87041	5618.6375
2796.42589	5596.2375
2798.97979	5589.5375
2801.53212	5587.5375
2804.08288	5563.9375
2806.63206	5576.7375
2809.17967	5554.9375
2811.72571	5562.4375
2814.27018	5555.7375
2816.81308	5509.0375
2819.35442	5514.4375
2821.89419	5514.8375
2824.43239	5525.9375
2826.96904	5511.7375
2829.50412	5508.8375
2832.03763	5481.3375
2834.56959	5493.1375
2837.1	5474.3375
2839.62884	5468.6375
2842.15613	5462.3375
2844.68186	5462.2375
2847.20604	5465.9375
2849.72867	5467.6375
2852.24974	5433.8375
2854.76927	5425.4375
2857.28724	5420.1375
2859.80367	5430.0375
2862.31855	5416.0375
2864.83189	5405.1375
2867.34368	5412.0375
2869.85393	5417.1375
2872.36264	5383.6375
2874.8698	5394.0375
2877.37543	5392.5375
2879.87952	5394.9375
2882.38207	5379.6375
2884.88308	5373.1375
2887.38256	5373.3375
2889.88051	5386.9375
2892.37692	5380.7375
2894.8718	5370.6375
2897.36515	5383.5375
2899.85698	5375.8375
2902.34727	5380.0375
2904.83604	5397.2375
2907.32328	5405.0375
2909.809	5399.1375
2912.29319	5407.9375
2914.77587	5408.7375
2917.25702	5420.8375
2919.73665	5397.8375
2922.21476	5395.7375
2924.69136	5370.3375
2927.16644	5369.0375
2929.64	5374.3375
2932.11205	5356.1375
2934.58258	5334.9375
2937.05161	5340.9375
2939.51912	5329.2375
2941.98513	5340.1375
2944.44962	5325.5375
2946.91261	5317.4375
2949.37409	5316.3375
2951.83407	5323.9375
2954.29254	5317.0375
2956.74951	5304.1375
2959.20498	5310.7375
2961.65895	5302.7375
2964.11142	5286.1375
2966.56239	5293.6375
2969.01186	5292.5375
2971.45984	5293.2375
2973.90632	5273.7375
2976.35131	5250.6375
2978.7948	5257.3375
2981.23681	5250.5375
2983.67732	5227.0375
2986.11635	5231.2375
2988.55388	5212.4375
2990.98993	5184.5375
2993.4245	5178.0375
2995.85758	5167.4375
2998.28917	5140.2375
3000.71928	5136.7375
3003.14791	5109.9375
3005.57506	5117.7375
3008.00073	5094.8375
3010.42493	5087.6375
3012.84764	5076.0375
3015.26888	5068.6375
3017.68865	5067.9375
3020.10694	5046.8375
3022.52376	5024.5375
3024.9391	5033.5375
3027.35298	4988.6375
3029.76539	4988.7375
3032.17632	4995.8375
3034.5858	5009.7375
3036.9938	4982.9375
3039.40034	4968.6375
3041.80542	4954.5375
3044.20903	4956.8375
3046.61118	4944.0375
3049.01187	4929.1375
3051.4111	4916.4375
3053.80888	4912.9375
3056.20519	4899.6375
3058.60005	4881.6375
3060.99345	4883.3375
3063.3854	4861.1375
3065.7759	4840.9375
3068.16494	4850.1375
3070.55254	4812.3375
3072.93868	4792.6375
3075.32338	4782.0375
3077.70662	4785.4375
3080.08842	4782.0375
3082.46878	4769.9375
3084.84769	4746.1375
3087.22515	4748.0375
3089.60118	4748.5375
3091.97576	4726.2375
3094.3489	4728.3375
3096.72061	4738.9375
3099.09087	4724.4375
3101.4597	4716.5375
3103.82709	4717.2375
3106.19305	4725.5375
3108.55757	4709.7375
3110.92066	4712.6375
3113.28232	4682.0375
3115.64255	4688.6375
3118.00134	4663.7375
3120.35871	4661.7375
3122.71466	4652.3375
3125.06917	4650.0375
3127.42226	4641.1375
3129.77393	4614.0375
3132.12417	4629.0375
3134.47299	4611.3375
3136.82039	4601.3375
3139.16636	4594.1375
3141.51092	4603.1375
3143.85406	4606.1375
3146.19579	4584.4375
3148.53609	4582.6375
3150.87499	4581.0375
3153.21246	4584.1375
3155.54853	4572.6375
3157.88318	4573.1375
3160.21642	4578.5375
3162.54826	4570.5375
3164.87868	4578.0375
3167.2077	4571.2375
3169.5353	4554.7375
3171.86151	4530.9375
3174.18631	4545.5375
3176.5097	4533.5375
3178.83169	4513.0375
3181.15228	4523.2375
3183.47147	4499.7375
3185.78926	4491.3375
3188.10565	4482.8375
3190.42065	4482.0375
3192.73424	4469.1375
3195.04645	4474.1375
3197.35725	4479.0375
3199.66667	4473.8375
3201.97469	4463.7375
3204.28132	4471.0375
3206.58656	4470.7375
3208.8904	4472.8375
3211.19287	4479.2375
3213.49394	4463.7375
3215.79363	4468.0375
3218.09193	4460.2375
3220.38884	4451.4375
3222.68438	4462.4375
3224.97853	4465.8375
3227.2713	4447.0375
3229.56269	4444.7375
3231.8527	4440.7375
3234.14133	4426.6375
3236.42858	4417.8375
3238.71446	4402.7375
3240.99896	4399.3375
3243.28209	4393.9375
3245.56384	4388.2375
3247.84423	4369.6375
3250.12324	4365.9375
3252.40088	4387.9375
3254.67715	4360.9375
3256.95205	4360.7375
3259.22558	4353.0375
3261.49775	4355.1375
3263.76855	4354.5375
3266.03799	4356.2375
3268.30606	4355.8375
3270.57277	4353.8375
3272.83812	4341.7375
3275.10211	4324.6375
3277.36474	4301.8375
3279.62601	4325.5375
3281.88593	4303.3375
3284.14448	4310.3375
3286.40168	4306.5375
3288.65753	4295.0375
3290.91202	4313.9375
3293.16516	4283.6375
3295.41695	4283.8375
3297.66738	4262.8375
3299.91647	4251.3375
3302.16421	4211.0375
3304.4106	4203.1375
3306.65564	4187.4375
3308.89933	4138.8375
3311.14169	4102.1375
3313.38269	4060.2375
3315.62236	4049.9375
3317.86068	4017.0375
3320.09766	4006.5375
3322.3333	3953.3375
3324.5676	3946.6375
3326.80056	3869.8375
3329.03219	3845.8375
3331.26248	1.3375
3333.49143	-0.6625
3335.71905	-0.5625
