Data from AgNPs_UA_20uM_CRN_500uM_SU_RamanShift__21__13-40-00-295.txt Node

Date: Thu Aug 04 13:40:00 BST 2022
User: TCL
Spectrometer: QEP01345
Trigger mode: 4
Integration Time (sec): 1.000000E0
Scans to average: 10
Electric dark correction enabled: true
Nonlinearity correction enabled: false
Boxcar width: 0
XAxis mode: Raman Shifts
Number of Pixels in Spectrum: 1044
>>>>>Begin Spectral Data<<<<<
46.04893	-0.9125
50.45542	-0.6125
54.85868	0.8875
59.25871	1.2875
63.6555	16.5875
68.04907	14.7875
72.43941	19.0875
76.82654	16.4875
81.21044	15.9875
85.59113	17.9875
89.96862	20.7875
94.34289	19.9875
98.71396	22.8875
103.08183	23.3875
107.4465	20.6875
111.80798	23.6875
116.16626	24.5875
120.52136	24.9875
124.87327	26.5875
129.222	31.3875
133.56755	29.8875
137.90993	32.2875
142.24913	37.9875
146.58517	40.7875
150.91804	50.2875
155.24774	62.3875
159.57429	76.9875
163.89768	101.1875
168.21792	134.0875
172.53501	184.6875
176.84895	260.8875
181.15975	371.7875
185.46741	521.1875
189.77193	724.9875
194.07331	976.8875
198.37157	1270.9875
202.6667	1578.6875
206.9587	1891.9875
211.24758	2193.5875
215.53334	2518.7875
219.81599	2869.5875
224.09553	3267.1875
228.37195	3716.1875
232.64527	4159.4875
236.91549	4622.4875
241.18261	5012.1875
245.44663	5318.5875
249.70755	5525.1875
253.96539	5682.2875
258.22014	5822.1875
262.4718	5946.2875
266.72039	6021.0875
270.96589	6053.9875
275.20832	5985.4875
279.44768	5899.5875
283.68397	5789.5875
287.91719	5728.2875
292.14735	5770.2875
296.37445	5909.0875
300.59849	6153.5875
304.81948	6487.7875
309.03742	6794.3875
313.25231	7010.3875
317.46415	6934.8875
321.67296	6603.5875
325.87872	6222.8875
330.08145	6004.5875
334.28114	5985.5875
338.47781	6064.7875
342.67145	6210.0875
346.86207	6430.7875
351.04966	6733.2875
355.23424	7041.8875
359.4158	7248.8875
363.59435	7325.1875
367.76989	7300.3875
371.94243	7256.9875
376.11196	7172.2875
380.27849	7085.8875
384.44203	7059.1875
388.60257	7042.2875
392.76012	7102.4875
396.91468	7209.2875
401.06626	7319.5875
405.21485	7377.3875
409.36047	7204.8875
413.50311	6890.2875
417.64277	6594.4875
421.77947	6450.4875
425.9132	6392.3875
430.04396	6403.9875
434.17176	6434.6875
438.2966	6509.0875
442.41849	6614.7875
446.53742	6756.8875
450.6534	6896.5875
454.76644	6953.7875
458.87653	6951.6875
462.98368	6904.9875
467.08789	6839.5875
471.18916	6752.0875
475.2875	6621.9875
479.38291	6495.7875
483.4754	6401.9875
487.56496	6351.9875
491.6516	6323.3875
495.73531	6319.4875
499.81612	6323.1875
503.89401	6421.6875
507.96899	6473.1875
512.04106	6555.4875
516.11023	6625.5875
520.1765	6706.1875
524.23987	6708.9875
528.30034	6714.1875
532.35792	6672.8875
536.41261	6592.9875
540.46441	6480.9875
544.51333	6453.0875
548.55936	6506.9875
552.60252	6607.1875
556.64279	6719.1875
560.6802	6797.1875
564.71473	6926.9875
568.7464	7066.0875
572.7752	7064.0875
576.80114	6823.2875
580.82422	6603.6875
584.84444	6536.9875
588.86181	6494.8875
592.87633	6541.6875
596.888	6665.2875
600.89682	7028.5875
604.9028	7995.1875
608.90594	10103.3875
612.90624	12294.8875
616.90371	11279.7875
620.89834	8296.7875
624.89015	7008.7875
628.87913	6830.2875
632.86528	7023.8875
636.84862	7157.9875
640.82913	7022.1875
644.80683	6715.9875
648.78172	6542.6875
652.75379	6553.2875
656.72306	6787.3875
660.68952	7014.1875
664.65319	6913.0875
668.61405	6681.2875
672.57211	6646.8875
676.52738	6644.9875
680.47986	6559.1875
684.42955	6457.7875
688.37646	6387.7875
692.32058	6448.4875
696.26192	6551.6875
700.20048	6653.0875
704.13626	6712.4875
708.06928	6646.4875
711.99952	6588.0875
715.927	6582.8875
719.85171	6632.1875
723.77365	6643.2875
727.69284	6592.1875
731.60928	6541.2875
735.52295	6527.1875
739.43388	6533.5875
743.34206	6581.1875
747.24749	6581.1875
751.15017	6606.8875
755.05012	6682.1875
758.94733	7019.8875
762.8418	7871.8875
766.73354	9114.8875
770.62254	10110.8875
774.50882	10201.4875
778.39237	9651.9875
782.27321	8670.7875
786.15132	7724.9875
790.02671	7061.8875
793.89938	6747.5875
797.76935	6625.3875
801.6366	6538.7875
805.50115	6499.5875
809.36299	6468.5875
813.22213	6447.9875
817.07857	6457.7875
820.93231	6477.0875
824.78336	6497.3875
828.63172	6504.8875
832.47738	6529.2875
836.32036	6483.4875
840.16066	6472.5875
843.99827	6444.5875
847.8332	6439.3875
851.66546	6480.1875
855.49504	6479.8875
859.32195	6481.4875
863.1462	6496.4875
866.96777	6489.1875
870.78668	6469.3875
874.60293	6509.0875
878.41652	6548.5875
882.22745	6592.9875
886.03573	6631.3875
889.84136	6640.5875
893.64433	6593.8875
897.44466	6576.5875
901.24235	6583.6875
905.0374	6550.2875
908.8298	6492.7875
912.61957	6469.1875
916.40671	6484.7875
920.19121	6512.3875
923.97308	6586.4875
927.75233	6683.6875
931.52895	6724.7875
935.30295	6664.2875
939.07433	6518.6875
942.84309	6412.9875
946.60924	6361.2875
950.37278	6328.8875
954.13371	6324.6875
957.89203	6334.5875
961.64774	6344.0875
965.40086	6346.5875
969.15137	6313.0875
972.89929	6313.4875
976.64461	6327.9875
980.38733	6334.6875
984.12747	6332.9875
987.86502	6387.2875
991.59999	6425.1875
995.33237	6473.6875
999.06217	6556.6875
1002.78939	6686.0875
1006.51404	6838.4875
1010.23611	6992.3875
1013.95561	7028.1875
1017.67255	7005.7875
1021.38692	6967.3875
1025.09872	6856.4875
1028.80796	6760.5875
1032.51465	6727.6875
1036.21877	6719.7875
1039.92035	6773.2875
1043.61937	6824.9875
1047.31584	6851.2875
1051.00976	6881.4875
1054.70114	6865.1875
1058.38998	6870.5875
1062.07627	6909.7875
1065.76003	6961.0875
1069.44126	7058.3875
1073.11995	7228.3875
1076.79611	7413.6875
1080.46974	7546.0875
1084.14085	7678.4875
1087.80943	7795.5875
1091.47549	7880.8875
1095.13903	7842.2875
1098.80005	7764.3875
1102.45857	7611.1875
1106.11456	7477.1875
1109.76805	7389.6875
1113.41903	7417.9875
1117.06751	7566.9875
1120.71348	7796.6875
1124.35696	8122.9875
1127.99793	8318.6875
1131.63641	8209.7875
1135.2724	7850.4875
1138.90589	7570.9875
1142.5369	7476.2875
1146.16542	7438.1875
1149.79145	7390.0875
1153.415	7253.5875
1157.03607	7197.1875
1160.65467	7250.5875
1164.27079	7408.1875
1167.88443	7636.7875
1171.49561	8041.0875
1175.10432	8697.7875
1178.71056	9607.2875
1182.31434	10376.6875
1185.91565	10583.9875
1189.51451	10419.6875
1193.11091	10149.7875
1196.70485	9858.8875
1200.29634	9629.1875
1203.88538	9341.9875
1207.47197	8952.6875
1211.05612	8621.0875
1214.63782	8322.1875
1218.21708	8089.1875
1221.79391	7894.4875
1225.36829	7779.4875
1228.94024	7743.7875
1232.50976	7709.7875
1236.07685	7720.8875
1239.6415	7746.9875
1243.20374	7787.1875
1246.76355	7839.9875
1250.32093	7955.3875
1253.8759	8116.0875
1257.42845	8410.4875
1260.97859	8690.4875
1264.52631	8913.7875
1268.07163	9040.5875
1271.61453	9144.4875
1275.15503	9180.6875
1278.69312	9178.6875
1282.22882	9201.5875
1285.76211	9300.3875
1289.29301	9541.4875
1292.82151	9747.2875
1296.34761	10038.6875
1299.87133	10393.0875
1303.39266	11091.2875
1306.9116	12107.6875
1310.42815	13152.0875
1313.94233	13481.8875
1317.45412	12787.3875
1320.96354	11841.2875
1324.47058	10970.0875
1327.97525	10220.7875
1331.47754	9788.7875
1334.97747	9714.8875
1338.47502	9866.8875
1341.97022	10295.2875
1345.46305	11015.6875
1348.95352	12095.3875
1352.44163	13275.9875
1355.92738	14519.5875
1359.41078	16053.3875
1362.89183	17364.6875
1366.37053	16647.9875
1369.84688	13986.1875
1373.32088	11484.0875
1376.79254	10170.0875
1380.26186	9491.0875
1383.72883	9129.1875
1387.19347	8781.8875
1390.65578	8463.2875
1394.11575	8234.7875
1397.57339	8037.9875
1401.0287	7911.1875
1404.48168	7814.4875
1407.93234	7796.7875
1411.38068	7885.7875
1414.82669	7945.9875
1418.27039	7996.9875
1421.71177	7973.5875
1425.15083	7876.7875
1428.58758	7820.0875
1432.02203	7869.5875
1435.45416	7965.8875
1438.88399	8026.7875
1442.31151	8077.8875
1445.73673	8140.1875
1449.15965	8193.1875
1452.58027	8182.5875
1455.9986	8096.1875
1459.41463	8085.4875
1462.82837	8177.0875
1466.23982	8344.0875
1469.64898	8550.3875
1473.05586	8715.7875
1476.46045	8786.1875
1479.86276	8844.1875
1483.26279	8973.3875
1486.66054	9196.2875
1490.05602	9504.0875
1493.44922	10039.2875
1496.84016	10883.3875
1500.22882	12140.4875
1503.61521	13765.3875
1506.99934	15370.2875
1510.38121	16288.7875
1513.76081	16025.8875
1517.13816	14549.4875
1520.51324	12685.8875
1523.88607	11180.5875
1527.25665	10310.3875
1530.62498	9879.5875
1533.99105	9658.0875
1537.35488	9573.3875
1540.71647	9443.3875
1544.07581	9389.0875
1547.4329	9256.6875
1550.78776	9158.9875
1554.14038	9054.3875
1557.49077	8985.9875
1560.83892	9050.7875
1564.18484	9284.5875
1567.52853	9636.6875
1570.86999	9932.8875
1574.20922	10061.3875
1577.54624	9888.0875
1580.88103	9367.5875
1584.2136	8723.6875
1587.54395	8377.3875
1590.87208	8332.3875
1594.19801	8540.4875
1597.52172	8946.5875
1600.84321	9171.0875
1604.16251	9111.1875
1607.47959	8927.8875
1610.79447	8639.6875
1614.10715	8233.8875
1617.41763	7793.2875
1620.7259	7483.8875
1624.03199	7289.2875
1627.33587	7249.1875
1630.63757	7319.8875
1633.93707	7554.5875
1637.23439	7992.1875
1640.52951	8713.3875
1643.82246	9748.8875
1647.11321	10916.6875
1650.40179	11607.4875
1653.68819	11220.8875
1656.97241	9953.1875
1660.25446	8535.7875
1663.53433	7553.5875
1666.81203	6966.6875
1670.08756	6616.6875
1673.36092	6428.3875
1676.63211	6303.5875
1679.90115	6214.4875
1683.16801	6120.5875
1686.43272	6071.7875
1689.69527	6039.8875
1692.95567	6017.4875
1696.2139	5993.8875
1699.46999	5947.4875
1702.72392	5960.3875
1705.97571	5961.4875
1709.22535	5954.6875
1712.47284	5960.9875
1715.71819	5937.6875
1718.96139	5906.9875
1722.20246	5904.8875
1725.44139	5892.4875
1728.67818	5853.0875
1731.91284	5823.2875
1735.14537	5775.1875
1738.37576	5753.5875
1741.60403	5755.0875
1744.83017	5733.4875
1748.05418	5722.1875
1751.27607	5715.9875
1754.49584	5678.9875
1757.71349	5671.0875
1760.92903	5660.8875
1764.14244	5659.3875
1767.35375	5633.2875
1770.56294	5631.0875
1773.77002	5611.7875
1776.97499	5602.8875
1780.17785	5568.0875
1783.37861	5559.4875
1786.57727	5543.6875
1789.77382	5550.8875
1792.96828	5529.3875
1796.16064	5495.2875
1799.3509	5487.6875
1802.53907	5488.4875
1805.72514	5465.1875
1808.90913	5468.2875
1812.09102	5448.6875
1815.27083	5432.3875
1818.44856	5429.6875
1821.6242	5411.4875
1824.79776	5395.9875
1827.96924	5402.9875
1831.13864	5393.0875
1834.30597	5381.1875
1837.47122	5384.2875
1840.6344	5333.6875
1843.7955	5345.8875
1846.95454	5338.5875
1850.11151	5340.1875
1853.26642	5323.8875
1856.41926	5330.6875
1859.57004	5325.2875
1862.71876	5310.6875
1865.86542	5323.9875
1869.01003	5302.7875
1872.15258	5290.0875
1875.29308	5293.8875
1878.43152	5286.6875
1881.56792	5287.1875
1884.70227	5277.7875
1887.83457	5270.6875
1890.96482	5263.6875
1894.09304	5237.1875
1897.21921	5223.3875
1900.34335	5253.2875
1903.46544	5232.1875
1906.58551	5235.8875
1909.70353	5217.4875
1912.81953	5223.3875
1915.93349	5208.5875
1919.04543	5189.4875
1922.15534	5183.8875
1925.26322	5179.6875
1928.36908	5170.2875
1931.47292	5142.6875
1934.57473	5147.9875
1937.67453	5128.7875
1940.77232	5124.5875
1943.86808	5086.9875
1946.96184	5072.4875
1950.05358	5070.3875
1953.14331	5042.0875
1956.23103	5029.6875
1959.31675	5005.4875
1962.40046	5005.8875
1965.48217	4983.8875
1968.56188	4970.5875
1971.63959	4956.6875
1974.7153	4963.7875
1977.78901	4944.4875
1980.86073	4930.7875
1983.93046	4912.7875
1986.99819	4886.6875
1990.06394	4867.1875
1993.1277	4867.1875
1996.18947	4856.3875
1999.24925	4814.6875
2002.30706	4801.3875
2005.36288	4790.2875
2008.41672	4787.5875
2011.46859	4767.3875
2014.51848	4742.0875
2017.56639	4722.4875
2020.61233	4719.5875
2023.6563	4709.1875
2026.6983	4700.1875
2029.73833	4678.8875
2032.7764	4658.6875
2035.8125	4645.3875
2038.84664	4635.4875
2041.87881	4631.0875
2044.90903	4623.7875
2047.93729	4620.1875
2050.96359	4608.6875
2053.98794	4596.4875
2057.01034	4592.5875
2060.03078	4605.6875
2063.04927	4586.2875
2066.06582	4561.1875
2069.08042	4565.6875
2072.09307	4562.5875
2075.10378	4559.5875
2078.11255	4561.2875
2081.11938	4560.8875
2084.12426	4545.6875
2087.12722	4561.5875
2090.12824	4559.6875
2093.12732	4563.9875
2096.12447	4562.8875
2099.11969	4545.3875
2102.11299	4551.5875
2105.10435	4561.4875
2108.09379	4550.9875
2111.08131	4559.4875
2114.0669	4552.0875
2117.05057	4561.6875
2120.03233	4559.4875
2123.01216	4547.0875
2125.99008	4577.1875
2128.96609	4582.6875
2131.94018	4568.9875
2134.91236	4581.5875
2137.88263	4579.1875
2140.851	4560.8875
2143.81746	4558.1875
2146.78201	4564.3875
2149.74466	4572.4875
2152.7054	4558.5875
2155.66425	4558.8875
2158.6212	4570.7875
2161.57625	4564.3875
2164.52941	4570.2875
2167.48067	4554.0875
2170.43004	4552.5875
2173.37752	4537.3875
2176.32311	4536.7875
2179.26681	4547.3875
2182.20863	4539.4875
2185.14856	4539.0875
2188.08661	4541.5875
2191.02278	4528.9875
2193.95707	4532.3875
2196.88948	4517.9875
2199.82001	4519.1875
2202.74867	4533.4875
2205.67545	4537.3875
2208.60037	4513.8875
2211.52341	4503.5875
2214.44458	4496.8875
2217.36388	4479.5875
2220.28132	4446.8875
2223.1969	4455.3875
2226.11061	4440.4875
2229.02246	4428.3875
2231.93245	4424.7875
2234.84058	4420.9875
2237.74686	4395.6875
2240.65128	4412.5875
2243.55385	4408.8875
2246.45456	4392.2875
2249.35343	4403.4875
2252.25044	4387.2875
2255.14561	4398.1875
2258.03893	4396.3875
2260.93041	4378.1875
2263.82004	4366.7875
2266.70783	4364.5875
2269.59378	4342.0875
2272.4779	4332.3875
2275.36017	4320.6875
2278.24061	4318.7875
2281.11922	4319.6875
2283.996	4296.7875
2286.87094	4279.9875
2289.74405	4268.0875
2292.61534	4280.4875
2295.4848	4262.4875
2298.35243	4259.3875
2301.21824	4265.4875
2304.08223	4252.7875
2306.94439	4265.2875
2309.80474	4254.8875
2312.66327	4245.3875
2315.51999	4223.9875
2318.37489	4220.9875
2321.22797	4222.8875
2324.07925	4202.6875
2326.92871	4189.1875
2329.77637	4189.8875
2332.62222	4179.1875
2335.46626	4178.9875
2338.3085	4189.0875
2341.14893	4179.0875
2343.98756	4176.6875
2346.8244	4162.6875
2349.65943	4180.5875
2352.49267	4181.1875
2355.32411	4175.8875
2358.15376	4158.1875
2360.98161	4165.5875
2363.80768	4180.9875
2366.63195	4175.4875
2369.45444	4175.4875
2372.27514	4160.6875
2375.09405	4147.0875
2377.91118	4153.2875
2380.72652	4152.5875
2383.54009	4140.4875
2386.35187	4119.7875
2389.16188	4095.2875
2391.97011	4090.9875
2394.77657	4092.7875
2397.58125	4079.8875
2400.38416	4068.5875
2403.18529	4069.1875
2405.98466	4055.5875
2408.78226	4053.6875
2411.57809	4039.3875
2414.37216	4040.6875
2417.16446	4044.6875
2419.955	4037.2875
2422.74378	4031.8875
2425.5308	4013.8875
2428.31606	4023.2875
2431.09956	4012.6875
2433.88131	4016.2875
2436.6613	4007.6875
2439.43954	4014.3875
2442.21603	4002.7875
2444.99077	4004.4875
2447.76377	4006.1875
2450.53501	3998.6875
2453.30451	3995.1875
2456.07226	3995.1875
2458.83827	3984.8875
2461.60254	3974.2875
2464.36507	3966.3875
2467.12586	3964.0875
2469.88492	3968.8875
2472.64224	3981.6875
2475.39782	3971.5875
2478.15167	3972.3875
2480.90379	3975.9875
2483.65417	3985.9875
2486.40283	3975.6875
2489.14976	3984.6875
2491.89497	3987.1875
2494.63845	3976.4875
2497.3802	3975.2875
2500.12024	3976.0875
2502.85855	3947.6875
2505.59514	3947.8875
2508.33002	3936.7875
2511.06318	3901.8875
2513.79462	3915.1875
2516.52435	3910.4875
2519.25237	3906.3875
2521.97867	3887.5875
2524.70327	3883.6875
2527.42616	3875.0875
2530.14734	3861.5875
2532.86681	3865.6875
2535.58458	3874.6875
2538.30065	3859.1875
2541.01501	3862.0875
2543.72768	3863.5875
2546.43864	3843.6875
2549.14791	3856.6875
2551.85548	3859.2875
2554.56136	3860.7875
2557.26554	3851.8875
2559.96803	3832.3875
2562.66883	3823.7875
2565.36794	3825.0875
2568.06536	3790.1875
2570.7611	3794.8875
2573.45514	3778.5875
2576.14751	3773.7875
2578.83819	3780.7875
2581.52719	3748.3875
2584.21451	3747.9875
2586.90015	3745.3875
2589.58411	3726.7875
2592.2664	3717.2875
2594.94701	3726.9875
2597.62594	3711.1875
2600.30321	3713.2875
2602.9788	3717.0875
2605.65273	3699.9875
2608.32498	3709.4875
2610.99557	3684.4875
2613.66449	3698.7875
2616.33175	3693.4875
2618.99734	3687.9875
2621.66128	3679.2875
2624.32355	3671.2875
2626.98416	3670.7875
2629.64311	3660.5875
2632.30041	3649.1875
2634.95605	3641.7875
2637.61004	3624.4875
2640.26238	3629.4875
2642.91306	3607.8875
2645.56209	3604.5875
2648.20948	3608.9875
2650.85521	3619.3875
2653.4993	3617.2875
2656.14175	3602.2875
2658.78255	3610.8875
2661.42171	3601.6875
2664.05923	3623.7875
2666.6951	3640.6875
2669.32934	3625.4875
2671.96194	3613.0875
2674.59291	3618.8875
2677.22224	3619.1875
2679.84993	3616.8875
2682.476	3612.7875
2685.10043	3604.5875
2687.72324	3595.0875
2690.34441	3601.3875
2692.96396	3601.0875
2695.58188	3587.4875
2698.19818	3599.6875
2700.81285	3602.0875
2703.4259	3598.6875
2706.03733	3598.6875
2708.64714	3567.7875
2711.25533	3586.5875
2713.86191	3573.8875
2716.46687	3576.0875
2719.07021	3573.8875
2721.67194	3589.2875
2724.27206	3586.2875
2726.87057	3584.0875
2729.46747	3577.6875
2732.06276	3576.7875
2734.65644	3578.1875
2737.24852	3574.4875
2739.83899	3565.1875
2742.42786	3577.6875
2745.01513	3568.9875
2747.60079	3559.6875
2750.18486	3549.7875
2752.76733	3548.5875
2755.3482	3536.0875
2757.92747	3510.5875
2760.50515	3507.9875
2763.08123	3521.6875
2765.65573	3495.2875
2768.22863	3510.7875
2770.79994	3487.2875
2773.36967	3488.5875
2775.9378	3486.3875
2778.50435	3481.5875
2781.06932	3479.3875
2783.6327	3460.0875
2786.1945	3464.0875
2788.75471	3460.8875
2791.31335	3446.0875
2793.87041	3451.6875
2796.42589	3416.2875
2798.97979	3440.4875
2801.53212	3425.2875
2804.08288	3424.2875
2806.63206	3421.9875
2809.17967	3422.6875
2811.72571	3414.2875
2814.27018	3411.8875
2816.81308	3406.2875
2819.35442	3393.1875
2821.89419	3385.8875
2824.43239	3373.4875
2826.96904	3375.9875
2829.50412	3368.0875
2832.03763	3366.2875
2834.56959	3351.2875
2837.1	3353.1875
2839.62884	3326.1875
2842.15613	3341.4875
2844.68186	3345.8875
2847.20604	3316.7875
2849.72867	3328.2875
2852.24974	3306.1875
2854.76927	3306.8875
2857.28724	3290.4875
2859.80367	3296.6875
2862.31855	3289.6875
2864.83189	3300.6875
2867.34368	3309.9875
2869.85393	3290.6875
2872.36264	3288.5875
2874.8698	3288.0875
2877.37543	3271.0875
2879.87952	3284.4875
2882.38207	3262.9875
2884.88308	3264.4875
2887.38256	3266.4875
2889.88051	3257.7875
2892.37692	3253.1875
2894.8718	3258.3875
2897.36515	3244.0875
2899.85698	3249.0875
2902.34727	3247.8875
2904.83604	3250.5875
2907.32328	3250.7875
2909.809	3248.7875
2912.29319	3257.8875
2914.77587	3260.2875
2917.25702	3260.2875
2919.73665	3258.2875
2922.21476	3269.6875
2924.69136	3253.5875
2927.16644	3253.7875
2929.64	3237.3875
2932.11205	3248.8875
2934.58258	3224.6875
2937.05161	3218.6875
2939.51912	3211.1875
2941.98513	3209.8875
2944.44962	3196.3875
2946.91261	3189.5875
2949.37409	3206.6875
2951.83407	3203.3875
2954.29254	3199.8875
2956.74951	3187.9875
2959.20498	3177.7875
2961.65895	3172.9875
2964.11142	3169.6875
2966.56239	3170.5875
2969.01186	3171.3875
2971.45984	3171.1875
2973.90632	3169.1875
2976.35131	3170.3875
2978.7948	3134.0875
2981.23681	3151.0875
2983.67732	3144.3875
2986.11635	3137.1875
2988.55388	3128.8875
2990.98993	3121.4875
2993.4245	3118.2875
2995.85758	3114.7875
2998.28917	3105.3875
3000.71928	3106.6875
3003.14791	3097.2875
3005.57506	3079.8875
3008.00073	3080.9875
3010.42493	3069.5875
3012.84764	3044.3875
3015.26888	3038.5875
3017.68865	3026.1875
3020.10694	3029.9875
3022.52376	3028.2875
3024.9391	3019.4875
3027.35298	3017.4875
3029.76539	3003.6875
3032.17632	2994.6875
3034.5858	2988.0875
3036.9938	2989.0875
3039.40034	2976.1875
3041.80542	2963.3875
3044.20903	2960.6875
3046.61118	2966.0875
3049.01187	2945.0875
3051.4111	2944.0875
3053.80888	2925.6875
3056.20519	2934.8875
3058.60005	2931.2875
3060.99345	2920.7875
3063.3854	2918.5875
3065.7759	2917.3875
3068.16494	2919.0875
3070.55254	2895.0875
3072.93868	2888.9875
3075.32338	2880.3875
3077.70662	2872.5875
3080.08842	2854.4875
3082.46878	2854.9875
3084.84769	2844.2875
3087.22515	2850.6875
3089.60118	2848.5875
3091.97576	2848.3875
3094.3489	2835.0875
3096.72061	2826.1875
3099.09087	2834.3875
3101.4597	2818.8875
3103.82709	2828.1875
3106.19305	2808.1875
3108.55757	2821.9875
3110.92066	2811.3875
3113.28232	2805.3875
3115.64255	2785.7875
3118.00134	2778.9875
3120.35871	2780.2875
3122.71466	2782.7875
3125.06917	2769.0875
3127.42226	2757.5875
3129.77393	2757.3875
3132.12417	2761.5875
3134.47299	2752.0875
3136.82039	2742.0875
3139.16636	2749.7875
3141.51092	2742.7875
3143.85406	2740.3875
3146.19579	2743.6875
3148.53609	2738.3875
3150.87499	2735.1875
3153.21246	2729.5875
3155.54853	2734.8875
3157.88318	2729.9875
3160.21642	2732.5875
3162.54826	2724.5875
3164.87868	2723.1875
3167.2077	2709.4875
3169.5353	2707.3875
3171.86151	2706.9875
3174.18631	2715.9875
3176.5097	2703.7875
3178.83169	2686.7875
3181.15228	2695.2875
3183.47147	2673.1875
3185.78926	2687.0875
3188.10565	2659.5875
3190.42065	2665.0875
3192.73424	2669.5875
3195.04645	2648.1875
3197.35725	2656.5875
3199.66667	2648.8875
3201.97469	2639.6875
3204.28132	2633.8875
3206.58656	2640.1875
3208.8904	2643.9875
3211.19287	2651.6875
3213.49394	2653.8875
3215.79363	2653.0875
3218.09193	2647.8875
3220.38884	2635.6875
3222.68438	2643.2875
3224.97853	2632.1875
3227.2713	2648.2875
3229.56269	2645.0875
3231.8527	2632.3875
3234.14133	2624.6875
3236.42858	2614.3875
3238.71446	2594.1875
3240.99896	2599.9875
3243.28209	2595.5875
3245.56384	2588.0875
3247.84423	2585.2875
3250.12324	2578.4875
3252.40088	2567.7875
3254.67715	2572.5875
3256.95205	2576.8875
3259.22558	2555.3875
3261.49775	2558.2875
3263.76855	2557.2875
3266.03799	2551.4875
3268.30606	2557.6875
3270.57277	2558.2875
3272.83812	2560.3875
3275.10211	2537.5875
3277.36474	2541.0875
3279.62601	2539.0875
3281.88593	2533.9875
3284.14448	2522.2875
3286.40168	2514.9875
3288.65753	2521.2875
3290.91202	2520.3875
3293.16516	2506.0875
3295.41695	2519.7875
3297.66738	2489.9875
3299.91647	2477.0875
3302.16421	2466.3875
3304.4106	2457.2875
3306.65564	2431.5875
3308.89933	2409.4875
3311.14169	2396.2875
3313.38269	2387.1875
3315.62236	2358.9875
3317.86068	2340.6875
3320.09766	2322.9875
3322.3333	2298.2875
3324.5676	2278.2875
3326.80056	2254.9875
3329.03219	2249.7875
3331.26248	1.8875
3333.49143	-1.2125
3335.71905	-1.1125
