Data from AgNPs_UA_5uM_CRN_500uM_SU_RamanShift__213__12-04-53-182.txt Node

Date: Thu Aug 04 12:04:53 BST 2022
User: TCL
Spectrometer: QEP01345
Trigger mode: 4
Integration Time (sec): 1.000000E0
Scans to average: 10
Electric dark correction enabled: true
Nonlinearity correction enabled: false
Boxcar width: 0
XAxis mode: Raman Shifts
Number of Pixels in Spectrum: 1044
>>>>>Begin Spectral Data<<<<<
46.04893	0.6875
50.45542	1.3875
54.85868	-0.3125
59.25871	-1.3125
63.6555	-57.6125
68.04907	-40.9125
72.43941	-71.7125
76.82654	-56.7125
81.21044	-56.4125
85.59113	-49.5125
89.96862	-73.2125
94.34289	-57.6125
98.71396	-75.8125
103.08183	-59.4125
107.4465	-50.9125
111.80798	-56.4125
116.16626	-46.3125
120.52136	-75.0125
124.87327	-52.1125
129.222	-64.4125
133.56755	-50.9125
137.90993	-63.7125
142.24913	-50.8125
146.58517	-43.7125
150.91804	-40.4125
155.24774	-30.4125
159.57429	-12.0125
163.89768	-9.5125
168.21792	37.1875
172.53501	59.4875
176.84895	136.9875
181.15975	267.3875
185.46741	409.5875
189.77193	589.1875
194.07331	874.2875
198.37157	1158.8875
202.6667	1429.6875
206.9587	1749.5875
211.24758	2046.2875
215.53334	2367.7875
219.81599	2705.5875
224.09553	3108.8875
228.37195	3547.9875
232.64527	4003.1875
236.91549	4453.0875
241.18261	4808.1875
245.44663	5083.1875
249.70755	5248.7875
253.96539	5389.1875
258.22014	5475.5875
262.4718	5526.3875
266.72039	5569.2875
270.96589	5556.8875
275.20832	5442.9875
279.44768	5337.2875
283.68397	5232.5875
287.91719	5199.1875
292.14735	5226.1875
296.37445	5394.4875
300.59849	5670.5875
304.81948	6012.1875
309.03742	6368.6875
313.25231	6608.2875
317.46415	6570.5875
321.67296	6184.8875
325.87872	5786.4875
330.08145	5604.5875
334.28114	5549.0875
338.47781	5617.8875
342.67145	5730.2875
346.86207	5982.0875
351.04966	6343.4875
355.23424	6723.0875
359.4158	6968.9875
363.59435	7014.4875
367.76989	6965.3875
371.94243	6827.8875
376.11196	6690.8875
380.27849	6653.3875
384.44203	6560.5875
388.60257	6534.3875
392.76012	6523.5875
396.91468	6648.0875
401.06626	6805.2875
405.21485	6827.4875
409.36047	6688.3875
413.50311	6367.0875
417.64277	6065.5875
421.77947	5874.8875
425.9132	5827.2875
430.04396	5789.2875
434.17176	5814.7875
438.2966	5902.9875
442.41849	5992.0875
446.53742	6112.7875
450.6534	6207.4875
454.76644	6280.7875
458.87653	6297.8875
462.98368	6257.0875
467.08789	6191.7875
471.18916	6101.4875
475.2875	5994.8875
479.38291	5878.4875
483.4754	5775.8875
487.56496	5738.6875
491.6516	5705.0875
495.73531	5718.1875
499.81612	5751.4875
503.89401	5830.8875
507.96899	5884.8875
512.04106	5977.4875
516.11023	6072.6875
520.1765	6138.5875
524.23987	6174.3875
528.30034	6187.5875
532.35792	6095.4875
536.41261	6034.5875
540.46441	5937.3875
544.51333	5910.8875
548.55936	5954.1875
552.60252	6074.0875
556.64279	6169.1875
560.6802	6307.1875
564.71473	6410.8875
568.7464	6611.4875
572.7752	6581.9875
576.80114	6275.2875
580.82422	6039.7875
584.84444	5951.1875
588.86181	5933.4875
592.87633	5952.1875
596.888	6076.9875
600.89682	6451.3875
604.9028	7422.8875
608.90594	9480.9875
612.90624	11797.6875
616.90371	10925.7875
620.89834	7884.6875
624.89015	6571.9875
628.87913	6370.1875
632.86528	6518.9875
636.84862	6697.9875
640.82913	6553.6875
644.80683	6210.2875
648.78172	6047.6875
652.75379	6062.8875
656.72306	6279.8875
660.68952	6547.8875
664.65319	6447.5875
668.61405	6215.1875
672.57211	6142.7875
676.52738	6152.1875
680.47986	6048.3875
684.42955	5950.2875
688.37646	5896.9875
692.32058	5915.5875
696.26192	5989.0875
700.20048	6085.4875
704.13626	6120.3875
708.06928	6073.6875
711.99952	6044.1875
715.927	6014.9875
719.85171	6067.2875
723.77365	6105.1875
727.69284	6067.2875
731.60928	6062.6875
735.52295	6030.4875
739.43388	6080.5875
743.34206	6091.4875
747.24749	6119.0875
751.15017	6131.6875
755.05012	6204.4875
758.94733	6569.6875
762.8418	7410.4875
766.73354	8728.5875
770.62254	9734.6875
774.50882	9814.6875
778.39237	9303.5875
782.27321	8375.5875
786.15132	7344.5875
790.02671	6682.6875
793.89938	6292.7875
797.76935	6169.4875
801.6366	6073.7875
805.50115	6028.6875
809.36299	6021.8875
813.22213	6028.7875
817.07857	6030.9875
820.93231	6012.9875
824.78336	6044.4875
828.63172	6067.8875
832.47738	6042.2875
836.32036	6059.6875
840.16066	6023.7875
843.99827	6011.7875
847.8332	6016.4875
851.66546	6022.4875
855.49504	6012.7875
859.32195	6054.0875
863.1462	6050.9875
866.96777	6036.7875
870.78668	6040.2875
874.60293	6055.8875
878.41652	6074.2875
882.22745	6140.6875
886.03573	6182.9875
889.84136	6173.4875
893.64433	6181.3875
897.44466	6162.1875
901.24235	6153.0875
905.0374	6150.4875
908.8298	6090.6875
912.61957	6067.7875
916.40671	6017.1875
920.19121	6064.4875
923.97308	6156.9875
927.75233	6220.5875
931.52895	6277.1875
935.30295	6253.5875
939.07433	6099.5875
942.84309	5986.6875
946.60924	5961.7875
950.37278	5918.5875
954.13371	5909.9875
957.89203	5895.6875
961.64774	5928.5875
965.40086	5911.5875
969.15137	5899.3875
972.89929	5925.4875
976.64461	5919.4875
980.38733	5927.2875
984.12747	5927.5875
987.86502	5948.9875
991.59999	5970.3875
995.33237	6042.5875
999.06217	6105.6875
1002.78939	6191.7875
1006.51404	6318.3875
1010.23611	6395.6875
1013.95561	6467.5875
1017.67255	6495.4875
1021.38692	6441.3875
1025.09872	6390.4875
1028.80796	6283.4875
1032.51465	6312.1875
1036.21877	6303.4875
1039.92035	6343.7875
1043.61937	6368.1875
1047.31584	6409.3875
1051.00976	6460.3875
1054.70114	6466.1875
1058.38998	6461.2875
1062.07627	6458.6875
1065.76003	6502.8875
1069.44126	6575.0875
1073.11995	6651.0875
1076.79611	6785.8875
1080.46974	6937.5875
1084.14085	7088.7875
1087.80943	7228.8875
1091.47549	7252.1875
1095.13903	7170.3875
1098.80005	7060.8875
1102.45857	6962.5875
1106.11456	6911.9875
1109.76805	6869.0875
1113.41903	6972.8875
1117.06751	7145.7875
1120.71348	7399.6875
1124.35696	7795.1875
1127.99793	8079.5875
1131.63641	7913.6875
1135.2724	7503.2875
1138.90589	7201.5875
1142.5369	7016.4875
1146.16542	6915.9875
1149.79145	6796.2875
1153.415	6758.1875
1157.03607	6764.9875
1160.65467	6855.2875
1164.27079	7046.5875
1167.88443	7317.9875
1171.49561	7739.4875
1175.10432	8339.1875
1178.71056	9253.5875
1182.31434	10014.5875
1185.91565	10251.4875
1189.51451	10097.7875
1193.11091	9870.4875
1196.70485	9610.9875
1200.29634	9403.9875
1203.88538	9104.2875
1207.47197	8655.8875
1211.05612	8194.7875
1214.63782	7788.5875
1218.21708	7535.8875
1221.79391	7392.9875
1225.36829	7325.5875
1228.94024	7311.6875
1232.50976	7340.9875
1236.07685	7345.5875
1239.6415	7391.4875
1243.20374	7395.1875
1246.76355	7445.4875
1250.32093	7507.8875
1253.8759	7579.6875
1257.42845	7755.2875
1260.97859	7953.4875
1264.52631	8181.0875
1268.07163	8332.2875
1271.61453	8462.0875
1275.15503	8517.6875
1278.69312	8515.9875
1282.22882	8600.4875
1285.76211	8788.7875
1289.29301	9031.5875
1292.82151	9305.8875
1296.34761	9507.4875
1299.87133	9888.9875
1303.39266	10593.7875
1306.9116	11746.6875
1310.42815	12933.9875
1313.94233	13402.4875
1317.45412	12598.6875
1320.96354	11463.0875
1324.47058	10463.6875
1327.97525	9722.9875
1331.47754	9307.9875
1334.97747	9223.6875
1338.47502	9324.7875
1341.97022	9711.0875
1345.46305	10446.3875
1348.95352	11491.8875
1352.44163	12772.0875
1355.92738	14111.0875
1359.41078	15781.8875
1362.89183	17257.3875
1366.37053	16657.5875
1369.84688	13816.0875
1373.32088	11174.3875
1376.79254	9759.3875
1380.26186	9105.1875
1383.72883	8682.7875
1387.19347	8314.3875
1390.65578	7945.5875
1394.11575	7713.2875
1397.57339	7566.2875
1401.0287	7424.7875
1404.48168	7414.7875
1407.93234	7401.9875
1411.38068	7431.9875
1414.82669	7521.8875
1418.27039	7593.3875
1421.71177	7594.7875
1425.15083	7484.9875
1428.58758	7395.4875
1432.02203	7420.4875
1435.45416	7514.3875
1438.88399	7544.1875
1442.31151	7514.8875
1445.73673	7570.3875
1449.15965	7616.6875
1452.58027	7633.6875
1455.9986	7620.9875
1459.41463	7631.3875
1462.82837	7753.2875
1466.23982	7918.2875
1469.64898	8129.2875
1473.05586	8282.1875
1476.46045	8379.9875
1479.86276	8446.4875
1483.26279	8530.3875
1486.66054	8740.5875
1490.05602	9015.1875
1493.44922	9573.3875
1496.84016	10436.8875
1500.22882	11802.4875
1503.61521	13515.1875
1506.99934	15293.7875
1510.38121	16465.8875
1513.76081	16340.6875
1517.13816	14802.1875
1520.51324	12661.1875
1523.88607	10978.9875
1527.25665	9979.0875
1530.62498	9496.1875
1533.99105	9271.2875
1537.35488	9150.5875
1540.71647	9084.5875
1544.07581	8919.5875
1547.4329	8816.9875
1550.78776	8688.1875
1554.14038	8617.7875
1557.49077	8580.0875
1560.83892	8668.8875
1564.18484	8904.1875
1567.52853	9226.1875
1570.86999	9526.7875
1574.20922	9678.1875
1577.54624	9578.2875
1580.88103	9059.3875
1584.2136	8405.4875
1587.54395	8033.0875
1590.87208	7934.4875
1594.19801	8103.4875
1597.52172	8456.0875
1600.84321	8627.7875
1604.16251	8457.1875
1607.47959	8278.8875
1610.79447	8077.7875
1614.10715	7801.5875
1617.41763	7519.0875
1620.7259	7244.0875
1624.03199	7101.3875
1627.33587	7031.3875
1630.63757	7090.2875
1633.93707	7280.7875
1637.23439	7729.5875
1640.52951	8378.7875
1643.82246	9371.9875
1647.11321	10513.8875
1650.40179	11217.5875
1653.68819	10891.5875
1656.97241	9681.0875
1660.25446	8304.6875
1663.53433	7291.9875
1666.81203	6704.7875
1670.08756	6329.2875
1673.36092	6183.0875
1676.63211	6040.6875
1679.90115	5948.6875
1683.16801	5886.1875
1686.43272	5785.0875
1689.69527	5742.2875
1692.95567	5680.4875
1696.2139	5661.5875
1699.46999	5609.1875
1702.72392	5603.9875
1705.97571	5618.8875
1709.22535	5609.8875
1712.47284	5651.1875
1715.71819	5641.0875
1718.96139	5640.0875
1722.20246	5622.8875
1725.44139	5589.2875
1728.67818	5584.3875
1731.91284	5523.6875
1735.14537	5481.4875
1738.37576	5451.7875
1741.60403	5453.5875
1744.83017	5410.4875
1748.05418	5405.4875
1751.27607	5417.0875
1754.49584	5385.6875
1757.71349	5353.0875
1760.92903	5352.9875
1764.14244	5307.4875
1767.35375	5307.7875
1770.56294	5303.6875
1773.77002	5277.2875
1776.97499	5285.9875
1780.17785	5268.3875
1783.37861	5257.3875
1786.57727	5262.9875
1789.77382	5202.5875
1792.96828	5242.1875
1796.16064	5234.7875
1799.3509	5228.0875
1802.53907	5242.2875
1805.72514	5188.4875
1808.90913	5168.1875
1812.09102	5164.7875
1815.27083	5147.2875
1818.44856	5154.3875
1821.6242	5139.7875
1824.79776	5130.9875
1827.96924	5125.0875
1831.13864	5086.7875
1834.30597	5098.5875
1837.47122	5088.2875
1840.6344	5068.3875
1843.7955	5044.8875
1846.95454	5050.6875
1850.11151	5079.1875
1853.26642	5050.7875
1856.41926	5040.3875
1859.57004	5026.7875
1862.71876	5023.9875
1865.86542	5042.9875
1869.01003	5016.5875
1872.15258	5000.6875
1875.29308	5026.7875
1878.43152	5005.5875
1881.56792	4980.3875
1884.70227	4978.8875
1887.83457	4974.4875
1890.96482	4952.9875
1894.09304	4942.5875
1897.21921	4933.5875
1900.34335	4949.1875
1903.46544	4935.0875
1906.58551	4928.4875
1909.70353	4935.5875
1912.81953	4940.0875
1915.93349	4934.9875
1919.04543	4902.7875
1922.15534	4886.6875
1925.26322	4898.6875
1928.36908	4871.1875
1931.47292	4873.3875
1934.57473	4873.8875
1937.67453	4837.7875
1940.77232	4812.1875
1943.86808	4809.8875
1946.96184	4807.0875
1950.05358	4767.9875
1953.14331	4779.9875
1956.23103	4763.2875
1959.31675	4739.2875
1962.40046	4680.4875
1965.48217	4710.5875
1968.56188	4719.2875
1971.63959	4705.9875
1974.7153	4690.5875
1977.78901	4679.9875
1980.86073	4656.9875
1983.93046	4621.2875
1986.99819	4537.5875
1990.06394	4554.6875
1993.1277	4582.7875
1996.18947	4547.7875
1999.24925	4526.0875
2002.30706	4532.3875
2005.36288	4517.7875
2008.41672	4489.7875
2011.46859	4465.6875
2014.51848	4443.0875
2017.56639	4435.2875
2020.61233	4415.6875
2023.6563	4430.1875
2026.6983	4385.2875
2029.73833	4385.6875
2032.7764	4397.2875
2035.8125	4349.7875
2038.84664	4356.5875
2041.87881	4346.6875
2044.90903	4344.7875
2047.93729	4340.2875
2050.96359	4308.2875
2053.98794	4311.4875
2057.01034	4326.4875
2060.03078	4301.6875
2063.04927	4279.5875
2066.06582	4290.0875
2069.08042	4289.5875
2072.09307	4264.7875
2075.10378	4267.5875
2078.11255	4264.3875
2081.11938	4259.0875
2084.12426	4265.1875
2087.12722	4259.6875
2090.12824	4243.2875
2093.12732	4253.9875
2096.12447	4245.5875
2099.11969	4267.5875
2102.11299	4247.8875
2105.10435	4276.4875
2108.09379	4263.1875
2111.08131	4249.1875
2114.0669	4258.1875
2117.05057	4261.7875
2120.03233	4236.4875
2123.01216	4275.5875
2125.99008	4262.8875
2128.96609	4278.1875
2131.94018	4286.8875
2134.91236	4275.2875
2137.88263	4269.1875
2140.851	4284.3875
2143.81746	4289.7875
2146.78201	4272.1875
2149.74466	4258.9875
2152.7054	4277.9875
2155.66425	4263.2875
2158.6212	4259.8875
2161.57625	4228.1875
2164.52941	4214.9875
2167.48067	4216.0875
2170.43004	4225.3875
2173.37752	4240.5875
2176.32311	4217.5875
2179.26681	4219.0875
2182.20863	4225.2875
2185.14856	4230.5875
2188.08661	4216.8875
2191.02278	4228.6875
2193.95707	4200.1875
2196.88948	4193.8875
2199.82001	4211.2875
2202.74867	4195.5875
2205.67545	4195.6875
2208.60037	4196.3875
2211.52341	4185.1875
2214.44458	4170.6875
2217.36388	4156.6875
2220.28132	4129.6875
2223.1969	4125.7875
2226.11061	4122.2875
2229.02246	4112.6875
2231.93245	4117.8875
2234.84058	4099.3875
2237.74686	4087.1875
2240.65128	4080.6875
2243.55385	4076.7875
2246.45456	4049.4875
2249.35343	4061.7875
2252.25044	4062.5875
2255.14561	4060.9875
2258.03893	4050.4875
2260.93041	4035.0875
2263.82004	4035.9875
2266.70783	4039.5875
2269.59378	4018.1875
2272.4779	3991.7875
2275.36017	4003.1875
2278.24061	3990.3875
2281.11922	3961.1875
2283.996	3980.8875
2286.87094	3942.5875
2289.74405	3955.3875
2292.61534	3932.9875
2295.4848	3943.9875
2298.35243	3927.8875
2301.21824	3916.1875
2304.08223	3912.2875
2306.94439	3923.0875
2309.80474	3930.5875
2312.66327	3914.6875
2315.51999	3898.0875
2318.37489	3899.6875
2321.22797	3880.7875
2324.07925	3871.4875
2326.92871	3866.2875
2329.77637	3844.8875
2332.62222	3847.5875
2335.46626	3816.9875
2338.3085	3813.2875
2341.14893	3846.9875
2343.98756	3836.2875
2346.8244	3817.2875
2349.65943	3800.5875
2352.49267	3805.8875
2355.32411	3822.5875
2358.15376	3804.8875
2360.98161	3811.7875
2363.80768	3803.6875
2366.63195	3792.2875
2369.45444	3813.1875
2372.27514	3809.3875
2375.09405	3811.4875
2377.91118	3792.8875
2380.72652	3785.3875
2383.54009	3768.1875
2386.35187	3775.0875
2389.16188	3733.3875
2391.97011	3742.6875
2394.77657	3727.5875
2397.58125	3731.9875
2400.38416	3726.2875
2403.18529	3704.3875
2405.98466	3688.1875
2408.78226	3701.9875
2411.57809	3674.9875
2414.37216	3678.9875
2417.16446	3674.9875
2419.955	3652.4875
2422.74378	3668.0875
2425.5308	3642.6875
2428.31606	3649.7875
2431.09956	3657.7875
2433.88131	3633.9875
2436.6613	3640.6875
2439.43954	3634.0875
2442.21603	3637.1875
2444.99077	3611.4875
2447.76377	3628.8875
2450.53501	3620.8875
2453.30451	3605.2875
2456.07226	3629.2875
2458.83827	3607.7875
2461.60254	3573.9875
2464.36507	3586.9875
2467.12586	3565.9875
2469.88492	3572.2875
2472.64224	3584.8875
2475.39782	3554.1875
2478.15167	3574.4875
2480.90379	3575.9875
2483.65417	3591.9875
2486.40283	3585.4875
2489.14976	3589.2875
2491.89497	3576.4875
2494.63845	3573.9875
2497.3802	3557.0875
2500.12024	3568.7875
2502.85855	3566.8875
2505.59514	3548.9875
2508.33002	3541.3875
2511.06318	3523.4875
2513.79462	3529.3875
2516.52435	3476.0875
2519.25237	3470.9875
2521.97867	3470.9875
2524.70327	3477.7875
2527.42616	3474.8875
2530.14734	3487.2875
2532.86681	3461.3875
2535.58458	3455.2875
2538.30065	3453.8875
2541.01501	3472.6875
2543.72768	3434.2875
2546.43864	3428.2875
2549.14791	3415.6875
2551.85548	3413.5875
2554.56136	3411.5875
2557.26554	3411.8875
2559.96803	3410.8875
2562.66883	3404.2875
2565.36794	3383.5875
2568.06536	3358.4875
2570.7611	3382.6875
2573.45514	3374.2875
2576.14751	3362.5875
2578.83819	3341.0875
2581.52719	3332.8875
2584.21451	3351.2875
2586.90015	3326.3875
2589.58411	3296.6875
2592.2664	3319.4875
2594.94701	3305.9875
2597.62594	3309.3875
2600.30321	3244.4875
2602.9788	3253.7875
2605.65273	3268.9875
2608.32498	3261.6875
2610.99557	3289.7875
2613.66449	3251.5875
2616.33175	3263.6875
2618.99734	3265.9875
2621.66128	3254.7875
2624.32355	3235.9875
2626.98416	3219.2875
2629.64311	3229.7875
2632.30041	3229.1875
2634.95605	3205.7875
2637.61004	3182.9875
2640.26238	3161.0875
2642.91306	3178.3875
2645.56209	3193.6875
2648.20948	3192.2875
2650.85521	3165.8875
2653.4993	3190.2875
2656.14175	3172.5875
2658.78255	3172.5875
2661.42171	3141.9875
2664.05923	3176.9875
2666.6951	3191.3875
2669.32934	3181.7875
2671.96194	3197.7875
2674.59291	3178.3875
2677.22224	3183.4875
2679.84993	3185.0875
2682.476	3173.6875
2685.10043	3168.4875
2687.72324	3149.0875
2690.34441	3154.4875
2692.96396	3153.9875
2695.58188	3169.3875
2698.19818	3160.0875
2700.81285	3145.4875
2703.4259	3138.9875
2706.03733	3108.8875
2708.64714	3117.8875
2711.25533	3137.2875
2713.86191	3147.7875
2716.46687	3148.5875
2719.07021	3130.8875
2721.67194	3144.1875
2724.27206	3147.3875
2726.87057	3138.2875
2729.46747	3125.8875
2732.06276	3131.7875
2734.65644	3115.1875
2737.24852	3107.9875
2739.83899	3091.1875
2742.42786	3102.8875
2745.01513	3125.1875
2747.60079	3099.8875
2750.18486	3072.5875
2752.76733	3077.2875
2755.3482	3067.4875
2757.92747	3084.5875
2760.50515	3044.2875
2763.08123	3056.2875
2765.65573	3044.6875
2768.22863	3042.6875
2770.79994	3037.7875
2773.36967	3023.0875
2775.9378	3022.9875
2778.50435	3025.9875
2781.06932	3019.4875
2783.6327	2998.4875
2786.1945	3023.6875
2788.75471	3008.4875
2791.31335	3003.8875
2793.87041	2998.2875
2796.42589	2977.5875
2798.97979	2958.0875
2801.53212	2977.5875
2804.08288	2983.5875
2806.63206	2959.3875
2809.17967	2939.0875
2811.72571	2948.2875
2814.27018	2946.6875
2816.81308	2941.6875
2819.35442	2898.7875
2821.89419	2917.7875
2824.43239	2913.8875
2826.96904	2937.7875
2829.50412	2913.3875
2832.03763	2910.6875
2834.56959	2904.5875
2837.1	2900.6875
2839.62884	2901.8875
2842.15613	2911.2875
2844.68186	2908.2875
2847.20604	2876.9875
2849.72867	2879.7875
2852.24974	2885.0875
2854.76927	2864.0875
2857.28724	2808.3875
2859.80367	2864.9875
2862.31855	2865.8875
2864.83189	2846.1875
2867.34368	2860.8875
2869.85393	2873.6875
2872.36264	2847.0875
2874.8698	2840.4875
2877.37543	2854.7875
2879.87952	2850.0875
2882.38207	2809.3875
2884.88308	2825.1875
2887.38256	2821.1875
2889.88051	2823.1875
2892.37692	2821.6875
2894.8718	2814.3875
2897.36515	2834.9875
2899.85698	2814.8875
2902.34727	2820.6875
2904.83604	2805.5875
2907.32328	2832.2875
2909.809	2827.1875
2912.29319	2828.0875
2914.77587	2832.4875
2917.25702	2841.3875
2919.73665	2836.1875
2922.21476	2844.1875
2924.69136	2844.2875
2927.16644	2830.6875
2929.64	2819.0875
2932.11205	2810.4875
2934.58258	2807.2875
2937.05161	2794.5875
2939.51912	2801.6875
2941.98513	2810.4875
2944.44962	2786.9875
2946.91261	2765.0875
2949.37409	2781.3875
2951.83407	2767.7875
2954.29254	2770.5875
2956.74951	2765.9875
2959.20498	2751.9875
2961.65895	2749.2875
2964.11142	2742.6875
2966.56239	2731.9875
2969.01186	2744.1875
2971.45984	2750.8875
2973.90632	2737.7875
2976.35131	2735.7875
2978.7948	2733.1875
2981.23681	2719.4875
2983.67732	2720.1875
2986.11635	2711.4875
2988.55388	2676.7875
2990.98993	2686.1875
2993.4245	2671.9875
2995.85758	2666.7875
2998.28917	2669.5875
3000.71928	2662.3875
3003.14791	2646.4875
3005.57506	2644.1875
3008.00073	2624.2875
3010.42493	2566.9875
3012.84764	2626.5875
3015.26888	2624.0875
3017.68865	2609.2875
3020.10694	2577.3875
3022.52376	2587.8875
3024.9391	2581.7875
3027.35298	2572.2875
3029.76539	2552.3875
3032.17632	2558.5875
3034.5858	2551.0875
3036.9938	2560.6875
3039.40034	2552.2875
3041.80542	2538.3875
3044.20903	2523.5875
3046.61118	2526.8875
3049.01187	2529.7875
3051.4111	2513.0875
3053.80888	2506.1875
3056.20519	2502.7875
3058.60005	2487.6875
3060.99345	2512.1875
3063.3854	2477.9875
3065.7759	2463.1875
3068.16494	2463.7875
3070.55254	2448.3875
3072.93868	2470.5875
3075.32338	2453.6875
3077.70662	2435.3875
3080.08842	2427.5875
3082.46878	2421.4875
3084.84769	2441.6875
3087.22515	2415.6875
3089.60118	2428.4875
3091.97576	2401.1875
3094.3489	2419.8875
3096.72061	2415.8875
3099.09087	2393.3875
3101.4597	2415.7875
3103.82709	2406.5875
3106.19305	2385.0875
3108.55757	2394.9875
3110.92066	2380.8875
3113.28232	2400.3875
3115.64255	2390.7875
3118.00134	2381.0875
3120.35871	2370.0875
3122.71466	2347.6875
3125.06917	2358.3875
3127.42226	2341.6875
3129.77393	2323.4875
3132.12417	2348.1875
3134.47299	2350.1875
3136.82039	2322.3875
3139.16636	2298.6875
3141.51092	2326.3875
3143.85406	2325.1875
3146.19579	2309.7875
3148.53609	2299.4875
3150.87499	2301.7875
3153.21246	2303.6875
3155.54853	2313.6875
3157.88318	2304.9875
3160.21642	2320.5875
3162.54826	2306.0875
3164.87868	2302.9875
3167.2077	2262.1875
3169.5353	2289.6875
3171.86151	2303.9875
3174.18631	2279.8875
3176.5097	2274.5875
3178.83169	2271.4875
3181.15228	2279.5875
3183.47147	2251.1875
3185.78926	2222.9875
3188.10565	2253.0875
3190.42065	2231.9875
3192.73424	2247.2875
3195.04645	2226.1875
3197.35725	2217.3875
3199.66667	2227.5875
3201.97469	2222.6875
3204.28132	2211.1875
3206.58656	2218.0875
3208.8904	2223.5875
3211.19287	2217.3875
3213.49394	2208.6875
3215.79363	2210.5875
3218.09193	2215.7875
3220.38884	2206.6875
3222.68438	2221.7875
3224.97853	2184.1875
3227.2713	2207.2875
3229.56269	2190.6875
3231.8527	2199.1875
3234.14133	2185.1875
3236.42858	2175.5875
3238.71446	2161.4875
3240.99896	2166.6875
3243.28209	2157.4875
3245.56384	2163.5875
3247.84423	2148.8875
3250.12324	2160.9875
3252.40088	2146.5875
3254.67715	2123.5875
3256.95205	2129.7875
3259.22558	2148.2875
3261.49775	2140.0875
3263.76855	2132.3875
3266.03799	2142.3875
3268.30606	2130.5875
3270.57277	2130.4875
3272.83812	2105.6875
3275.10211	2117.5875
3277.36474	2137.7875
3279.62601	2114.8875
3281.88593	2090.5875
3284.14448	2080.2875
3286.40168	2104.7875
3288.65753	2085.6875
3290.91202	2091.2875
3293.16516	2061.0875
3295.41695	2090.9875
3297.66738	2091.5875
3299.91647	2062.1875
3302.16421	2060.3875
3304.4106	2020.1875
3306.65564	2037.7875
3308.89933	2009.7875
3311.14169	2001.8875
3313.38269	1992.6875
3315.62236	1976.5875
3317.86068	1946.6875
3320.09766	1952.3875
3322.3333	1920.4875
3324.5676	1908.5875
3326.80056	1885.4875
3329.03219	1873.8875
3331.26248	-0.7125
3333.49143	-0.6125
3335.71905	0.2875
