Data from AgNPs_UA_10uM_CRN_500uM_SU_RamanShift__70__13-17-00-267.txt Node

Date: Thu Aug 04 13:17:00 BST 2022
User: TCL
Spectrometer: QEP01345
Trigger mode: 4
Integration Time (sec): 1.000000E0
Scans to average: 10
Electric dark correction enabled: true
Nonlinearity correction enabled: false
Boxcar width: 0
XAxis mode: Raman Shifts
Number of Pixels in Spectrum: 1044
>>>>>Begin Spectral Data<<<<<
46.04893	0.8625
50.45542	-1.9375
54.85868	0.8625
59.25871	0.2625
63.6555	23.0625
68.04907	23.3625
72.43941	23.9625
76.82654	23.3625
81.21044	25.6625
85.59113	27.5625
89.96862	27.2625
94.34289	26.7625
98.71396	29.0625
103.08183	30.8625
107.4465	31.9625
111.80798	32.9625
116.16626	34.5625
120.52136	34.6625
124.87327	36.9625
129.222	40.0625
133.56755	41.1625
137.90993	46.4625
142.24913	50.2625
146.58517	57.4625
150.91804	69.2625
155.24774	85.7625
159.57429	105.6625
163.89768	136.7625
168.21792	183.1625
172.53501	253.0625
176.84895	355.7625
181.15975	506.5625
185.46741	715.4625
189.77193	997.0625
194.07331	1341.1625
198.37157	1732.9625
202.6667	2145.7625
206.9587	2561.8625
211.24758	2958.7625
215.53334	3391.5625
219.81599	3826.1625
224.09553	4322.4625
228.37195	4859.0625
232.64527	5422.2625
236.91549	6010.6625
241.18261	6559.6625
245.44663	7017.8625
249.70755	7400.8625
253.96539	7728.8625
258.22014	8035.8625
262.4718	8293.6625
266.72039	8425.5625
270.96589	8497.8625
275.20832	8466.0625
279.44768	8383.6625
283.68397	8239.5625
287.91719	8147.0625
292.14735	8143.8625
296.37445	8224.3625
300.59849	8399.4625
304.81948	8596.8625
309.03742	8799.3625
313.25231	8890.6625
317.46415	8826.6625
321.67296	8598.9625
325.87872	8355.7625
330.08145	8237.9625
334.28114	8234.6625
338.47781	8318.5625
342.67145	8449.4625
346.86207	8654.6625
351.04966	8935.7625
355.23424	9219.2625
359.4158	9461.7625
363.59435	9598.4625
367.76989	9656.4625
371.94243	9696.7625
376.11196	9699.5625
380.27849	9747.1625
384.44203	9791.1625
388.60257	9877.8625
392.76012	9952.2625
396.91468	10101.8625
401.06626	10233.4625
405.21485	10318.7625
409.36047	10222.9625
413.50311	10000.0625
417.64277	9781.3625
421.77947	9630.1625
425.9132	9531.6625
430.04396	9527.6625
434.17176	9554.6625
438.2966	9645.0625
442.41849	9782.6625
446.53742	9980.0625
450.6534	10191.8625
454.76644	10331.3625
458.87653	10437.6625
462.98368	10462.1625
467.08789	10418.2625
471.18916	10298.6625
475.2875	10093.7625
479.38291	9898.4625
483.4754	9789.0625
487.56496	9714.2625
491.6516	9693.0625
495.73531	9683.4625
499.81612	9743.9625
503.89401	9824.0625
507.96899	9889.0625
512.04106	9893.2625
516.11023	9945.6625
520.1765	9951.6625
524.23987	9977.8625
528.30034	9978.1625
532.35792	9951.9625
536.41261	9881.3625
540.46441	9799.5625
544.51333	9793.5625
548.55936	9855.6625
552.60252	9956.2625
556.64279	10104.5625
560.6802	10250.8625
564.71473	10318.1625
568.7464	10354.4625
572.7752	10293.7625
576.80114	10065.2625
580.82422	9918.2625
584.84444	9877.7625
588.86181	9863.7625
592.87633	9919.2625
596.888	10088.5625
600.89682	10543.5625
604.9028	11601.0625
608.90594	13681.1625
612.90624	15571.2625
616.90371	14418.3625
620.89834	11684.6625
624.89015	10609.0625
628.87913	10525.1625
632.86528	10706.1625
636.84862	10802.3625
640.82913	10577.5625
644.80683	10254.4625
648.78172	10030.2625
652.75379	10052.6625
656.72306	10324.7625
660.68952	10597.9625
664.65319	10566.7625
668.61405	10549.2625
672.57211	10691.6625
676.52738	10681.9625
680.47986	10409.1625
684.42955	10153.3625
688.37646	10130.5625
692.32058	10186.6625
696.26192	10400.4625
700.20048	10621.1625
704.13626	10620.0625
708.06928	10521.4625
711.99952	10358.8625
715.927	10330.5625
719.85171	10411.3625
723.77365	10415.2625
727.69284	10384.4625
731.60928	10275.7625
735.52295	10264.6625
739.43388	10305.3625
743.34206	10355.0625
747.24749	10334.6625
751.15017	10343.8625
755.05012	10419.4625
758.94733	10697.9625
762.8418	11414.2625
766.73354	12432.9625
770.62254	13289.7625
774.50882	13601.8625
778.39237	13360.2625
782.27321	12697.6625
786.15132	11808.2625
790.02671	11165.3625
793.89938	10715.4625
797.76935	10531.1625
801.6366	10421.2625
805.50115	10352.1625
809.36299	10312.3625
813.22213	10318.5625
817.07857	10327.0625
820.93231	10297.1625
824.78336	10316.2625
828.63172	10364.9625
832.47738	10343.7625
836.32036	10317.0625
840.16066	10328.0625
843.99827	10315.4625
847.8332	10334.6625
851.66546	10348.7625
855.49504	10372.2625
859.32195	10361.7625
863.1462	10369.1625
866.96777	10355.4625
870.78668	10365.0625
874.60293	10386.4625
878.41652	10426.6625
882.22745	10534.1625
886.03573	10583.2625
889.84136	10558.9625
893.64433	10535.5625
897.44466	10476.4625
901.24235	10463.4625
905.0374	10443.8625
908.8298	10438.6625
912.61957	10427.6625
916.40671	10414.0625
920.19121	10429.2625
923.97308	10479.1625
927.75233	10544.2625
931.52895	10624.7625
935.30295	10569.7625
939.07433	10440.2625
942.84309	10359.3625
946.60924	10326.2625
950.37278	10301.8625
954.13371	10300.7625
957.89203	10296.6625
961.64774	10319.6625
965.40086	10284.0625
969.15137	10271.7625
972.89929	10273.1625
976.64461	10257.0625
980.38733	10287.7625
984.12747	10322.1625
987.86502	10353.3625
991.59999	10387.8625
995.33237	10445.2625
999.06217	10542.2625
1002.78939	10653.8625
1006.51404	10827.5625
1010.23611	10971.7625
1013.95561	11080.5625
1017.67255	11132.2625
1021.38692	11142.5625
1025.09872	11090.2625
1028.80796	10986.4625
1032.51465	10945.1625
1036.21877	10968.2625
1039.92035	11029.9625
1043.61937	11027.7625
1047.31584	11052.5625
1051.00976	11093.0625
1054.70114	11139.4625
1058.38998	11174.6625
1062.07627	11229.5625
1065.76003	11316.9625
1069.44126	11464.6625
1073.11995	11681.2625
1076.79611	11873.0625
1080.46974	12027.9625
1084.14085	12062.7625
1087.80943	12132.0625
1091.47549	12194.3625
1095.13903	12239.4625
1098.80005	12347.5625
1102.45857	12564.0625
1106.11456	12555.7625
1109.76805	12318.0625
1113.41903	12221.4625
1117.06751	12277.2625
1120.71348	12421.7625
1124.35696	12529.8625
1127.99793	12597.5625
1131.63641	12396.6625
1135.2724	12124.1625
1138.90589	11893.1625
1142.5369	11725.0625
1146.16542	11626.6625
1149.79145	11541.9625
1153.415	11428.5625
1157.03607	11400.0625
1160.65467	11477.4625
1164.27079	11702.1625
1167.88443	12003.0625
1171.49561	12460.7625
1175.10432	13140.7625
1178.71056	13974.7625
1182.31434	14721.0625
1185.91565	15092.7625
1189.51451	15205.8625
1193.11091	15134.6625
1196.70485	14944.0625
1200.29634	14581.6625
1203.88538	14172.7625
1207.47197	13694.8625
1211.05612	13207.1625
1214.63782	12753.1625
1218.21708	12429.6625
1221.79391	12260.4625
1225.36829	12174.0625
1228.94024	12170.2625
1232.50976	12183.6625
1236.07685	12231.9625
1239.6415	12302.1625
1243.20374	12372.5625
1246.76355	12411.9625
1250.32093	12499.8625
1253.8759	12626.4625
1257.42845	12915.4625
1260.97859	13269.3625
1264.52631	13576.8625
1268.07163	13778.2625
1271.61453	13924.7625
1275.15503	13929.2625
1278.69312	13921.9625
1282.22882	13916.5625
1285.76211	13983.4625
1289.29301	14117.7625
1292.82151	14344.6625
1296.34761	14573.7625
1299.87133	14947.7625
1303.39266	15592.7625
1306.9116	16485.4625
1310.42815	17451.1625
1313.94233	17851.5625
1317.45412	17472.2625
1320.96354	16779.3625
1324.47058	16103.2625
1327.97525	15467.8625
1331.47754	15079.6625
1334.97747	14975.2625
1338.47502	15192.1625
1341.97022	15667.6625
1345.46305	16540.2625
1348.95352	17681.5625
1352.44163	18931.5625
1355.92738	19974.4625
1359.41078	21051.0625
1362.89183	21568.7625
1366.37053	20421.9625
1369.84688	18085.3625
1373.32088	15959.3625
1376.79254	14724.8625
1380.26186	14119.0625
1383.72883	13731.6625
1387.19347	13325.9625
1390.65578	12956.7625
1394.11575	12654.8625
1397.57339	12377.4625
1401.0287	12257.8625
1404.48168	12249.7625
1407.93234	12412.1625
1411.38068	12663.8625
1414.82669	12856.7625
1418.27039	12964.9625
1421.71177	12919.1625
1425.15083	12828.0625
1428.58758	12725.5625
1432.02203	12720.8625
1435.45416	12671.9625
1438.88399	12640.3625
1442.31151	12581.0625
1445.73673	12557.8625
1449.15965	12568.9625
1452.58027	12538.5625
1455.9986	12494.5625
1459.41463	12494.3625
1462.82837	12620.7625
1466.23982	12785.3625
1469.64898	13012.7625
1473.05586	13194.5625
1476.46045	13374.1625
1479.86276	13523.5625
1483.26279	13694.0625
1486.66054	13944.1625
1490.05602	14303.1625
1493.44922	14914.0625
1496.84016	15742.0625
1500.22882	16922.0625
1503.61521	18252.6625
1506.99934	19339.5625
1510.38121	19873.0625
1513.76081	19477.2625
1517.13816	18219.8625
1520.51324	16664.9625
1523.88607	15439.9625
1527.25665	14638.4625
1530.62498	14211.5625
1533.99105	14038.9625
1537.35488	13950.1625
1540.71647	13849.7625
1544.07581	13725.2625
1547.4329	13625.9625
1550.78776	13445.1625
1554.14038	13315.6625
1557.49077	13275.2625
1560.83892	13431.0625
1564.18484	13659.0625
1567.52853	13952.2625
1570.86999	14085.3625
1574.20922	14119.1625
1577.54624	13999.4625
1580.88103	13561.7625
1584.2136	13025.5625
1587.54395	12758.6625
1590.87208	12811.0625
1594.19801	13134.0625
1597.52172	13594.6625
1600.84321	13800.0625
1604.16251	13709.2625
1607.47959	13536.5625
1610.79447	13231.9625
1614.10715	12704.3625
1617.41763	12186.5625
1620.7259	11792.2625
1624.03199	11561.6625
1627.33587	11482.6625
1630.63757	11571.8625
1633.93707	11886.7625
1637.23439	12477.5625
1640.52951	13444.3625
1643.82246	14657.7625
1647.11321	15825.5625
1650.40179	16191.9625
1653.68819	15387.2625
1656.97241	13885.5625
1660.25446	12435.5625
1663.53433	11481.9625
1666.81203	10887.3625
1670.08756	10545.4625
1673.36092	10343.9625
1676.63211	10207.2625
1679.90115	10086.1625
1683.16801	9978.7625
1686.43272	9918.6625
1689.69527	9865.1625
1692.95567	9819.3625
1696.2139	9789.3625
1699.46999	9756.6625
1702.72392	9731.5625
1705.97571	9723.1625
1709.22535	9716.2625
1712.47284	9717.9625
1715.71819	9742.1625
1718.96139	9724.8625
1722.20246	9715.2625
1725.44139	9657.5625
1728.67818	9629.7625
1731.91284	9569.2625
1735.14537	9526.1625
1738.37576	9483.1625
1741.60403	9457.5625
1744.83017	9439.1625
1748.05418	9426.6625
1751.27607	9422.9625
1754.49584	9375.8625
1757.71349	9365.6625
1760.92903	9381.6625
1764.14244	9337.4625
1767.35375	9309.1625
1770.56294	9301.8625
1773.77002	9277.6625
1776.97499	9237.2625
1780.17785	9202.8625
1783.37861	9190.9625
1786.57727	9179.0625
1789.77382	9193.2625
1792.96828	9145.6625
1796.16064	9135.4625
1799.3509	9129.7625
1802.53907	9127.2625
1805.72514	9103.4625
1808.90913	9083.3625
1812.09102	9060.5625
1815.27083	9015.8625
1818.44856	8994.0625
1821.6242	8992.8625
1824.79776	8960.5625
1827.96924	8956.8625
1831.13864	8938.9625
1834.30597	8928.2625
1837.47122	8898.8625
1840.6344	8870.0625
1843.7955	8882.6625
1846.95454	8863.7625
1850.11151	8884.4625
1853.26642	8876.8625
1856.41926	8863.5625
1859.57004	8864.0625
1862.71876	8856.1625
1865.86542	8860.0625
1869.01003	8839.9625
1872.15258	8805.0625
1875.29308	8807.0625
1878.43152	8784.0625
1881.56792	8769.7625
1884.70227	8763.6625
1887.83457	8732.1625
1890.96482	8708.1625
1894.09304	8698.6625
1897.21921	8677.0625
1900.34335	8690.8625
1903.46544	8672.4625
1906.58551	8665.3625
1909.70353	8644.4625
1912.81953	8656.4625
1915.93349	8640.9625
1919.04543	8588.1625
1922.15534	8565.7625
1925.26322	8572.3625
1928.36908	8547.7625
1931.47292	8525.3625
1934.57473	8500.5625
1937.67453	8500.6625
1940.77232	8484.0625
1943.86808	8447.9625
1946.96184	8407.4625
1950.05358	8409.8625
1953.14331	8380.6625
1956.23103	8335.0625
1959.31675	8307.0625
1962.40046	8290.4625
1965.48217	8266.7625
1968.56188	8246.5625
1971.63959	8224.0625
1974.7153	8176.5625
1977.78901	8190.8625
1980.86073	8159.6625
1983.93046	8111.8625
1986.99819	8079.4625
1990.06394	8050.7625
1993.1277	8031.9625
1996.18947	7998.2625
1999.24925	7970.7625
2002.30706	7934.0625
2005.36288	7899.9625
2008.41672	7905.7625
2011.46859	7864.1625
2014.51848	7828.4625
2017.56639	7805.1625
2020.61233	7794.7625
2023.6563	7763.5625
2026.6983	7748.4625
2029.73833	7724.4625
2032.7764	7697.1625
2035.8125	7683.3625
2038.84664	7660.2625
2041.87881	7644.4625
2044.90903	7630.2625
2047.93729	7612.8625
2050.96359	7603.7625
2053.98794	7574.4625
2057.01034	7570.2625
2060.03078	7553.9625
2063.04927	7553.3625
2066.06582	7510.6625
2069.08042	7535.7625
2072.09307	7517.0625
2075.10378	7521.3625
2078.11255	7497.8625
2081.11938	7487.0625
2084.12426	7483.6625
2087.12722	7472.2625
2090.12824	7460.6625
2093.12732	7474.3625
2096.12447	7476.0625
2099.11969	7481.3625
2102.11299	7480.8625
2105.10435	7469.0625
2108.09379	7471.9625
2111.08131	7487.2625
2114.0669	7467.5625
2117.05057	7483.0625
2120.03233	7499.6625
2123.01216	7478.5625
2125.99008	7468.8625
2128.96609	7492.6625
2131.94018	7505.1625
2134.91236	7491.1625
2137.88263	7489.5625
2140.851	7497.7625
2143.81746	7496.0625
2146.78201	7458.8625
2149.74466	7457.3625
2152.7054	7481.5625
2155.66425	7475.6625
2158.6212	7466.4625
2161.57625	7452.8625
2164.52941	7452.1625
2167.48067	7466.1625
2170.43004	7435.4625
2173.37752	7435.8625
2176.32311	7436.8625
2179.26681	7437.0625
2182.20863	7426.3625
2185.14856	7453.5625
2188.08661	7431.5625
2191.02278	7438.8625
2193.95707	7404.8625
2196.88948	7412.2625
2199.82001	7411.2625
2202.74867	7382.5625
2205.67545	7388.8625
2208.60037	7373.1625
2211.52341	7350.9625
2214.44458	7347.6625
2217.36388	7318.6625
2220.28132	7288.9625
2223.1969	7255.2625
2226.11061	7259.0625
2229.02246	7234.2625
2231.93245	7233.9625
2234.84058	7210.5625
2237.74686	7211.1625
2240.65128	7188.1625
2243.55385	7180.1625
2246.45456	7171.7625
2249.35343	7146.3625
2252.25044	7135.5625
2255.14561	7127.7625
2258.03893	7143.0625
2260.93041	7120.9625
2263.82004	7097.2625
2266.70783	7085.0625
2269.59378	7058.0625
2272.4779	7039.8625
2275.36017	7037.7625
2278.24061	6992.7625
2281.11922	6995.0625
2283.996	6949.2625
2286.87094	6955.2625
2289.74405	6952.6625
2292.61534	6951.7625
2295.4848	6896.9625
2298.35243	6896.8625
2301.21824	6880.1625
2304.08223	6890.3625
2306.94439	6885.8625
2309.80474	6877.4625
2312.66327	6872.0625
2315.51999	6856.4625
2318.37489	6832.6625
2321.22797	6830.1625
2324.07925	6815.8625
2326.92871	6806.0625
2329.77637	6792.7625
2332.62222	6758.7625
2335.46626	6752.7625
2338.3085	6746.0625
2341.14893	6751.2625
2343.98756	6748.5625
2346.8244	6750.7625
2349.65943	6714.1625
2352.49267	6716.8625
2355.32411	6710.5625
2358.15376	6700.6625
2360.98161	6709.8625
2363.80768	6714.2625
2366.63195	6684.0625
2369.45444	6674.7625
2372.27514	6684.3625
2375.09405	6660.5625
2377.91118	6657.9625
2380.72652	6634.5625
2383.54009	6626.0625
2386.35187	6614.7625
2389.16188	6585.8625
2391.97011	6586.3625
2394.77657	6528.2625
2397.58125	6529.0625
2400.38416	6531.5625
2403.18529	6508.0625
2405.98466	6508.0625
2408.78226	6492.1625
2411.57809	6482.1625
2414.37216	6429.3625
2417.16446	6467.4625
2419.955	6462.4625
2422.74378	6438.6625
2425.5308	6446.1625
2428.31606	6448.6625
2431.09956	6441.7625
2433.88131	6410.2625
2436.6613	6403.7625
2439.43954	6395.6625
2442.21603	6405.9625
2444.99077	6397.8625
2447.76377	6387.9625
2450.53501	6387.6625
2453.30451	6368.7625
2456.07226	6375.4625
2458.83827	6356.0625
2461.60254	6330.1625
2464.36507	6309.0625
2467.12586	6301.6625
2469.88492	6311.8625
2472.64224	6300.8625
2475.39782	6301.6625
2478.15167	6296.0625
2480.90379	6281.8625
2483.65417	6253.3625
2486.40283	6265.0625
2489.14976	6265.0625
2491.89497	6265.3625
2494.63845	6272.7625
2497.3802	6246.2625
2500.12024	6254.4625
2502.85855	6228.3625
2505.59514	6230.8625
2508.33002	6210.1625
2511.06318	6189.8625
2513.79462	6176.8625
2516.52435	6175.7625
2519.25237	6140.7625
2521.97867	6133.8625
2524.70327	6129.7625
2527.42616	6113.8625
2530.14734	6098.1625
2532.86681	6100.1625
2535.58458	6118.6625
2538.30065	6097.9625
2541.01501	6097.9625
2543.72768	6084.4625
2546.43864	6067.4625
2549.14791	6057.4625
2551.85548	6068.3625
2554.56136	6064.1625
2557.26554	6027.0625
2559.96803	6018.5625
2562.66883	6005.4625
2565.36794	5988.6625
2568.06536	5967.5625
2570.7611	5950.4625
2573.45514	5939.4625
2576.14751	5927.2625
2578.83819	5921.2625
2581.52719	5896.9625
2584.21451	5885.7625
2586.90015	5896.0625
2589.58411	5869.3625
2592.2664	5882.1625
2594.94701	5836.3625
2597.62594	5837.6625
2600.30321	5812.4625
2602.9788	5841.8625
2605.65273	5831.3625
2608.32498	5811.1625
2610.99557	5787.8625
2613.66449	5771.5625
2616.33175	5798.5625
2618.99734	5768.2625
2621.66128	5763.6625
2624.32355	5748.5625
2626.98416	5715.7625
2629.64311	5714.3625
2632.30041	5711.7625
2634.95605	5694.9625
2637.61004	5680.0625
2640.26238	5672.5625
2642.91306	5663.7625
2645.56209	5669.4625
2648.20948	5672.2625
2650.85521	5651.2625
2653.4993	5655.2625
2656.14175	5628.8625
2658.78255	5616.7625
2661.42171	5641.9625
2664.05923	5641.0625
2666.6951	5645.4625
2669.32934	5651.6625
2671.96194	5651.0625
2674.59291	5645.9625
2677.22224	5628.1625
2679.84993	5643.8625
2682.476	5639.4625
2685.10043	5652.6625
2687.72324	5633.2625
2690.34441	5633.7625
2692.96396	5611.9625
2695.58188	5628.1625
2698.19818	5607.0625
2700.81285	5602.1625
2703.4259	5597.4625
2706.03733	5610.1625
2708.64714	5574.2625
2711.25533	5573.3625
2713.86191	5588.9625
2716.46687	5607.9625
2719.07021	5593.7625
2721.67194	5600.3625
2724.27206	5582.0625
2726.87057	5589.9625
2729.46747	5577.2625
2732.06276	5586.8625
2734.65644	5576.6625
2737.24852	5570.8625
2739.83899	5543.1625
2742.42786	5547.0625
2745.01513	5523.4625
2747.60079	5516.2625
2750.18486	5511.6625
2752.76733	5501.5625
2755.3482	5492.2625
2757.92747	5492.5625
2760.50515	5469.5625
2763.08123	5456.8625
2765.65573	5454.0625
2768.22863	5426.6625
2770.79994	5429.5625
2773.36967	5416.2625
2775.9378	5414.5625
2778.50435	5397.0625
2781.06932	5402.9625
2783.6327	5393.1625
2786.1945	5394.3625
2788.75471	5388.0625
2791.31335	5355.4625
2793.87041	5355.4625
2796.42589	5343.5625
2798.97979	5317.1625
2801.53212	5320.3625
2804.08288	5306.3625
2806.63206	5290.3625
2809.17967	5298.9625
2811.72571	5255.5625
2814.27018	5271.1625
2816.81308	5239.3625
2819.35442	5228.0625
2821.89419	5220.1625
2824.43239	5217.1625
2826.96904	5211.9625
2829.50412	5185.9625
2832.03763	5186.5625
2834.56959	5156.4625
2837.1	5151.4625
2839.62884	5147.7625
2842.15613	5142.3625
2844.68186	5153.4625
2847.20604	5140.7625
2849.72867	5133.7625
2852.24974	5113.1625
2854.76927	5086.9625
2857.28724	5090.3625
2859.80367	5096.3625
2862.31855	5083.2625
2864.83189	5071.3625
2867.34368	5093.5625
2869.85393	5064.5625
2872.36264	5046.4625
2874.8698	5044.8625
2877.37543	5032.2625
2879.87952	5041.9625
2882.38207	5027.9625
2884.88308	5016.6625
2887.38256	5019.2625
2889.88051	4997.0625
2892.37692	4999.0625
2894.8718	5000.2625
2897.36515	5009.6625
2899.85698	4972.4625
2902.34727	4991.4625
2904.83604	4992.3625
2907.32328	5006.6625
2909.809	4987.0625
2912.29319	5015.4625
2914.77587	5004.6625
2917.25702	5016.6625
2919.73665	4992.6625
2922.21476	4995.9625
2924.69136	4992.8625
2927.16644	4974.1625
2929.64	4963.8625
2932.11205	4954.2625
2934.58258	4920.4625
2937.05161	4941.4625
2939.51912	4937.7625
2941.98513	4935.0625
2944.44962	4916.5625
2946.91261	4897.6625
2949.37409	4913.0625
2951.83407	4899.2625
2954.29254	4894.6625
2956.74951	4905.2625
2959.20498	4893.9625
2961.65895	4898.8625
2964.11142	4888.0625
2966.56239	4877.8625
2969.01186	4894.1625
2971.45984	4880.6625
2973.90632	4878.1625
2976.35131	4839.1625
2978.7948	4850.1625
2981.23681	4833.0625
2983.67732	4831.3625
2986.11635	4819.8625
2988.55388	4803.8625
2990.98993	4794.6625
2993.4245	4781.1625
2995.85758	4772.7625
2998.28917	4750.4625
3000.71928	4745.6625
3003.14791	4735.1625
3005.57506	4717.9625
3008.00073	4697.0625
3010.42493	4682.8625
3012.84764	4685.6625
3015.26888	4684.5625
3017.68865	4681.4625
3020.10694	4657.5625
3022.52376	4650.5625
3024.9391	4622.0625
3027.35298	4610.8625
3029.76539	4611.5625
3032.17632	4585.6625
3034.5858	4589.6625
3036.9938	4579.4625
3039.40034	4570.3625
3041.80542	4541.4625
3044.20903	4527.8625
3046.61118	4531.5625
3049.01187	4503.1625
3051.4111	4507.9625
3053.80888	4495.0625
3056.20519	4475.9625
3058.60005	4464.9625
3060.99345	4466.8625
3063.3854	4472.7625
3065.7759	4450.4625
3068.16494	4435.9625
3070.55254	4416.6625
3072.93868	4391.7625
3075.32338	4363.4625
3077.70662	4377.0625
3080.08842	4374.8625
3082.46878	4363.7625
3084.84769	4336.4625
3087.22515	4340.7625
3089.60118	4337.2625
3091.97576	4339.7625
3094.3489	4311.0625
3096.72061	4306.9625
3099.09087	4310.2625
3101.4597	4308.5625
3103.82709	4302.5625
3106.19305	4305.1625
3108.55757	4316.7625
3110.92066	4292.8625
3113.28232	4281.8625
3115.64255	4243.8625
3118.00134	4257.3625
3120.35871	4243.9625
3122.71466	4237.3625
3125.06917	4220.8625
3127.42226	4224.0625
3129.77393	4200.9625
3132.12417	4195.6625
3134.47299	4186.1625
3136.82039	4181.2625
3139.16636	4197.1625
3141.51092	4199.6625
3143.85406	4173.4625
3146.19579	4166.8625
3148.53609	4178.8625
3150.87499	4170.1625
3153.21246	4168.6625
3155.54853	4159.0625
3157.88318	4143.7625
3160.21642	4157.1625
3162.54826	4145.2625
3164.87868	4137.6625
3167.2077	4122.5625
3169.5353	4113.9625
3171.86151	4122.5625
3174.18631	4096.7625
3176.5097	4103.4625
3178.83169	4089.7625
3181.15228	4081.2625
3183.47147	4068.1625
3185.78926	4057.3625
3188.10565	4041.8625
3190.42065	4037.3625
3192.73424	4025.1625
3195.04645	4025.9625
3197.35725	4028.7625
3199.66667	3999.8625
3201.97469	4026.6625
3204.28132	4024.1625
3206.58656	4011.1625
3208.8904	4017.8625
3211.19287	4022.2625
3213.49394	4006.4625
3215.79363	4014.3625
3218.09193	4026.8625
3220.38884	3998.9625
3222.68438	4003.7625
3224.97853	3992.0625
3227.2713	3993.6625
3229.56269	3971.6625
3231.8527	3983.4625
3234.14133	3954.4625
3236.42858	3942.9625
3238.71446	3943.9625
3240.99896	3916.2625
3243.28209	3911.6625
3245.56384	3904.3625
3247.84423	3901.3625
3250.12324	3894.8625
3252.40088	3883.5625
3254.67715	3889.5625
3256.95205	3878.7625
3259.22558	3880.4625
3261.49775	3868.8625
3263.76855	3876.8625
3266.03799	3858.8625
3268.30606	3874.7625
3270.57277	3856.7625
3272.83812	3851.9625
3275.10211	3835.7625
3277.36474	3819.4625
3279.62601	3822.4625
3281.88593	3800.8625
3284.14448	3805.8625
3286.40168	3792.8625
3288.65753	3807.2625
3290.91202	3787.1625
3293.16516	3794.5625
3295.41695	3779.9625
3297.66738	3766.3625
3299.91647	3739.8625
3302.16421	3723.4625
3304.4106	3696.7625
3306.65564	3659.3625
3308.89933	3640.5625
3311.14169	3599.6625
3313.38269	3575.3625
3315.62236	3551.3625
3317.86068	3531.4625
3320.09766	3511.5625
3322.3333	3492.8625
3324.5676	3452.1625
3326.80056	3396.4625
3329.03219	3369.1625
3331.26248	1.1625
3333.49143	-0.9375
3335.71905	-0.1375
