Data from AgNPs_UA_5uM_CRN_500uM_SU_RamanShift__204__12-03-23-180.txt Node

Date: Thu Aug 04 12:03:23 BST 2022
User: TCL
Spectrometer: QEP01345
Trigger mode: 4
Integration Time (sec): 1.000000E0
Scans to average: 10
Electric dark correction enabled: true
Nonlinearity correction enabled: false
Boxcar width: 0
XAxis mode: Raman Shifts
Number of Pixels in Spectrum: 1044
>>>>>Begin Spectral Data<<<<<
46.04893	0.5875
50.45542	-0.2125
54.85868	0.3875
59.25871	-1.9125
63.6555	-58.8125
68.04907	-39.7125
72.43941	-72.6125
76.82654	-57.6125
81.21044	-57.3125
85.59113	-48.5125
89.96862	-75.5125
94.34289	-55.4125
98.71396	-76.9125
103.08183	-59.1125
107.4465	-50.6125
111.80798	-56.4125
116.16626	-45.9125
120.52136	-73.5125
124.87327	-48.5125
129.222	-64.0125
133.56755	-51.8125
137.90993	-65.0125
142.24913	-50.4125
146.58517	-43.8125
150.91804	-39.5125
155.24774	-29.2125
159.57429	-8.7125
163.89768	-5.3125
168.21792	39.0875
172.53501	58.3875
176.84895	142.4875
181.15975	276.0875
185.46741	429.0875
189.77193	611.5875
194.07331	902.7875
198.37157	1186.0875
202.6667	1477.1875
206.9587	1794.7875
211.24758	2113.1875
215.53334	2433.3875
219.81599	2788.4875
224.09553	3201.2875
228.37195	3653.9875
232.64527	4101.2875
236.91549	4592.2875
241.18261	4921.4875
245.44663	5217.0875
249.70755	5396.8875
253.96539	5534.9875
258.22014	5619.8875
262.4718	5703.3875
266.72039	5757.2875
270.96589	5723.6875
275.20832	5610.2875
279.44768	5498.7875
283.68397	5376.5875
287.91719	5342.4875
292.14735	5369.8875
296.37445	5562.4875
300.59849	5876.5875
304.81948	6174.2875
309.03742	6547.7875
313.25231	6792.9875
317.46415	6740.4875
321.67296	6357.4875
325.87872	5935.7875
330.08145	5732.4875
334.28114	5707.2875
338.47781	5762.9875
342.67145	5894.5875
346.86207	6161.1875
351.04966	6524.6875
355.23424	6923.8875
359.4158	7186.1875
363.59435	7217.4875
367.76989	7156.8875
371.94243	7015.4875
376.11196	6870.6875
380.27849	6822.2875
384.44203	6732.8875
388.60257	6703.5875
392.76012	6715.6875
396.91468	6819.9875
401.06626	6998.7875
405.21485	7027.3875
409.36047	6866.1875
413.50311	6541.9875
417.64277	6229.6875
421.77947	6020.5875
425.9132	5964.4875
430.04396	5924.9875
434.17176	5980.1875
438.2966	6092.5875
442.41849	6169.2875
446.53742	6296.9875
450.6534	6394.7875
454.76644	6469.3875
458.87653	6473.9875
462.98368	6413.2875
467.08789	6375.8875
471.18916	6287.4875
475.2875	6160.6875
479.38291	6054.0875
483.4754	5947.8875
487.56496	5911.1875
491.6516	5870.5875
495.73531	5878.2875
499.81612	5912.7875
503.89401	5997.2875
507.96899	6060.8875
512.04106	6158.3875
516.11023	6257.1875
520.1765	6341.1875
524.23987	6365.5875
528.30034	6348.0875
532.35792	6282.6875
536.41261	6225.2875
540.46441	6134.4875
544.51333	6073.8875
548.55936	6108.7875
552.60252	6244.8875
556.64279	6377.6875
560.6802	6464.4875
564.71473	6599.8875
568.7464	6815.1875
572.7752	6773.2875
576.80114	6464.4875
580.82422	6244.9875
584.84444	6132.8875
588.86181	6122.2875
592.87633	6153.6875
596.888	6275.5875
600.89682	6644.3875
604.9028	7615.5875
608.90594	9720.8875
612.90624	12099.2875
616.90371	11250.9875
620.89834	8126.9875
624.89015	6766.7875
628.87913	6565.7875
632.86528	6723.0875
636.84862	6876.7875
640.82913	6763.3875
644.80683	6390.7875
648.78172	6212.0875
652.75379	6254.0875
656.72306	6475.0875
660.68952	6735.7875
664.65319	6624.6875
668.61405	6416.8875
672.57211	6326.2875
676.52738	6333.5875
680.47986	6227.4875
684.42955	6131.8875
688.37646	6089.0875
692.32058	6102.2875
696.26192	6166.7875
700.20048	6269.4875
704.13626	6313.4875
708.06928	6261.3875
711.99952	6223.4875
715.927	6203.2875
719.85171	6250.5875
723.77365	6299.1875
727.69284	6275.1875
731.60928	6266.5875
735.52295	6232.3875
739.43388	6264.7875
743.34206	6283.0875
747.24749	6299.3875
751.15017	6319.0875
755.05012	6386.6875
758.94733	6768.4875
762.8418	7629.5875
766.73354	8985.1875
770.62254	10008.3875
774.50882	10084.3875
778.39237	9544.1875
782.27321	8618.5875
786.15132	7569.5875
790.02671	6874.2875
793.89938	6480.2875
797.76935	6369.9875
801.6366	6284.9875
805.50115	6226.5875
809.36299	6238.0875
813.22213	6233.6875
817.07857	6217.5875
820.93231	6227.8875
824.78336	6235.8875
828.63172	6263.9875
832.47738	6265.2875
836.32036	6276.7875
840.16066	6240.3875
843.99827	6205.6875
847.8332	6208.5875
851.66546	6217.6875
855.49504	6214.5875
859.32195	6266.2875
863.1462	6243.1875
866.96777	6230.8875
870.78668	6240.0875
874.60293	6248.2875
878.41652	6285.6875
882.22745	6363.2875
886.03573	6368.0875
889.84136	6377.6875
893.64433	6382.9875
897.44466	6367.2875
901.24235	6352.9875
905.0374	6359.3875
908.8298	6285.5875
912.61957	6268.6875
916.40671	6220.5875
920.19121	6266.1875
923.97308	6357.1875
927.75233	6420.6875
931.52895	6493.3875
935.30295	6451.4875
939.07433	6286.0875
942.84309	6172.3875
946.60924	6144.0875
950.37278	6110.5875
954.13371	6129.5875
957.89203	6101.0875
961.64774	6132.9875
965.40086	6111.7875
969.15137	6077.7875
972.89929	6111.7875
976.64461	6104.3875
980.38733	6130.2875
984.12747	6126.0875
987.86502	6160.1875
991.59999	6174.5875
995.33237	6246.3875
999.06217	6306.0875
1002.78939	6380.4875
1006.51404	6530.0875
1010.23611	6635.6875
1013.95561	6686.4875
1017.67255	6670.9875
1021.38692	6657.0875
1025.09872	6595.9875
1028.80796	6513.6875
1032.51465	6531.1875
1036.21877	6521.4875
1039.92035	6554.9875
1043.61937	6570.7875
1047.31584	6630.9875
1051.00976	6687.7875
1054.70114	6681.5875
1058.38998	6665.9875
1062.07627	6656.6875
1065.76003	6723.7875
1069.44126	6791.2875
1073.11995	6860.4875
1076.79611	6996.9875
1080.46974	7146.6875
1084.14085	7323.5875
1087.80943	7454.2875
1091.47549	7487.4875
1095.13903	7392.2875
1098.80005	7293.3875
1102.45857	7166.0875
1106.11456	7127.7875
1109.76805	7078.1875
1113.41903	7192.2875
1117.06751	7370.0875
1120.71348	7650.5875
1124.35696	8010.1875
1127.99793	8322.5875
1131.63641	8143.4875
1135.2724	7735.0875
1138.90589	7443.1875
1142.5369	7245.3875
1146.16542	7127.2875
1149.79145	7005.4875
1153.415	6962.8875
1157.03607	6970.7875
1160.65467	7049.1875
1164.27079	7271.7875
1167.88443	7516.1875
1171.49561	7949.6875
1175.10432	8560.9875
1178.71056	9476.4875
1182.31434	10291.0875
1185.91565	10525.8875
1189.51451	10387.0875
1193.11091	10120.6875
1196.70485	9872.1875
1200.29634	9649.5875
1203.88538	9363.3875
1207.47197	8905.0875
1211.05612	8440.5875
1214.63782	8039.2875
1218.21708	7780.0875
1221.79391	7633.1875
1225.36829	7532.8875
1228.94024	7530.6875
1232.50976	7543.8875
1236.07685	7582.3875
1239.6415	7630.5875
1243.20374	7619.3875
1246.76355	7658.8875
1250.32093	7744.7875
1253.8759	7806.4875
1257.42845	7993.2875
1260.97859	8191.2875
1264.52631	8442.4875
1268.07163	8607.4875
1271.61453	8717.4875
1275.15503	8754.3875
1278.69312	8756.8875
1282.22882	8845.7875
1285.76211	9045.2875
1289.29301	9302.3875
1292.82151	9562.2875
1296.34761	9800.7875
1299.87133	10195.6875
1303.39266	10900.8875
1306.9116	12067.9875
1310.42815	13333.4875
1313.94233	13731.3875
1317.45412	12924.6875
1320.96354	11792.0875
1324.47058	10784.4875
1327.97525	9982.5875
1331.47754	9586.4875
1334.97747	9486.4875
1338.47502	9604.6875
1341.97022	9978.8875
1345.46305	10712.9875
1348.95352	11806.7875
1352.44163	13104.4875
1355.92738	14494.9875
1359.41078	16169.8875
1362.89183	17706.0875
1366.37053	17007.7875
1369.84688	14126.0875
1373.32088	11433.0875
1376.79254	10022.1875
1380.26186	9363.1875
1383.72883	8923.0875
1387.19347	8518.0875
1390.65578	8175.2875
1394.11575	7924.7875
1397.57339	7766.3875
1401.0287	7669.6875
1404.48168	7622.0875
1407.93234	7658.8875
1411.38068	7655.5875
1414.82669	7727.4875
1418.27039	7846.5875
1421.71177	7827.8875
1425.15083	7721.7875
1428.58758	7639.1875
1432.02203	7653.6875
1435.45416	7759.2875
1438.88399	7756.5875
1442.31151	7722.7875
1445.73673	7801.7875
1449.15965	7857.8875
1452.58027	7864.7875
1455.9986	7859.0875
1459.41463	7855.4875
1462.82837	7999.0875
1466.23982	8162.5875
1469.64898	8381.9875
1473.05586	8525.4875
1476.46045	8622.7875
1479.86276	8698.2875
1483.26279	8799.7875
1486.66054	9008.1875
1490.05602	9264.3875
1493.44922	9837.1875
1496.84016	10716.9875
1500.22882	12089.6875
1503.61521	13848.4875
1506.99934	15664.1875
1510.38121	16886.2875
1513.76081	16743.4875
1517.13816	15154.0875
1520.51324	12984.7875
1523.88607	11272.8875
1527.25665	10262.1875
1530.62498	9738.0875
1533.99105	9528.9875
1537.35488	9386.5875
1540.71647	9289.8875
1544.07581	9183.4875
1547.4329	9058.5875
1550.78776	8925.9875
1554.14038	8850.6875
1557.49077	8811.6875
1560.83892	8930.7875
1564.18484	9140.1875
1567.52853	9479.1875
1570.86999	9806.3875
1574.20922	9959.2875
1577.54624	9853.4875
1580.88103	9307.9875
1584.2136	8634.4875
1587.54395	8267.3875
1590.87208	8184.9875
1594.19801	8366.2875
1597.52172	8729.8875
1600.84321	8853.8875
1604.16251	8732.2875
1607.47959	8522.8875
1610.79447	8354.2875
1614.10715	8045.0875
1617.41763	7747.5875
1620.7259	7468.0875
1624.03199	7309.4875
1627.33587	7254.5875
1630.63757	7288.1875
1633.93707	7541.2875
1637.23439	7945.3875
1640.52951	8658.0875
1643.82246	9665.6875
1647.11321	10831.1875
1650.40179	11558.0875
1653.68819	11203.5875
1656.97241	9942.5875
1660.25446	8509.1875
1663.53433	7521.2875
1666.81203	6910.2875
1670.08756	6560.5875
1673.36092	6395.0875
1676.63211	6240.0875
1679.90115	6158.7875
1683.16801	6055.5875
1686.43272	5973.2875
1689.69527	5949.8875
1692.95567	5868.5875
1696.2139	5858.1875
1699.46999	5784.8875
1702.72392	5803.6875
1705.97571	5807.5875
1709.22535	5796.0875
1712.47284	5835.9875
1715.71819	5826.9875
1718.96139	5816.5875
1722.20246	5823.5875
1725.44139	5772.0875
1728.67818	5746.9875
1731.91284	5710.6875
1735.14537	5677.6875
1738.37576	5651.6875
1741.60403	5612.2875
1744.83017	5611.9875
1748.05418	5611.9875
1751.27607	5584.6875
1754.49584	5570.3875
1757.71349	5534.7875
1760.92903	5539.6875
1764.14244	5485.7875
1767.35375	5490.0875
1770.56294	5485.7875
1773.77002	5467.2875
1776.97499	5473.7875
1780.17785	5454.5875
1783.37861	5444.5875
1786.57727	5443.8875
1789.77382	5384.0875
1792.96828	5427.9875
1796.16064	5424.3875
1799.3509	5395.5875
1802.53907	5404.7875
1805.72514	5368.4875
1808.90913	5347.6875
1812.09102	5341.6875
1815.27083	5326.4875
1818.44856	5327.4875
1821.6242	5318.7875
1824.79776	5295.2875
1827.96924	5286.4875
1831.13864	5262.3875
1834.30597	5271.1875
1837.47122	5260.7875
1840.6344	5242.3875
1843.7955	5225.5875
1846.95454	5222.5875
1850.11151	5246.9875
1853.26642	5205.5875
1856.41926	5186.9875
1859.57004	5192.1875
1862.71876	5188.5875
1865.86542	5208.9875
1869.01003	5202.9875
1872.15258	5177.1875
1875.29308	5188.2875
1878.43152	5178.1875
1881.56792	5168.4875
1884.70227	5149.0875
1887.83457	5126.7875
1890.96482	5120.6875
1894.09304	5132.5875
1897.21921	5127.3875
1900.34335	5130.2875
1903.46544	5090.8875
1906.58551	5120.1875
1909.70353	5103.1875
1912.81953	5082.6875
1915.93349	5087.0875
1919.04543	5070.7875
1922.15534	5059.5875
1925.26322	5053.5875
1928.36908	5038.7875
1931.47292	5037.9875
1934.57473	5037.9875
1937.67453	5001.0875
1940.77232	4990.3875
1943.86808	4972.3875
1946.96184	4971.7875
1950.05358	4942.7875
1953.14331	4937.7875
1956.23103	4926.5875
1959.31675	4892.8875
1962.40046	4852.7875
1965.48217	4873.6875
1968.56188	4857.1875
1971.63959	4850.2875
1974.7153	4849.2875
1977.78901	4820.7875
1980.86073	4809.4875
1983.93046	4783.8875
1986.99819	4705.8875
1990.06394	4721.9875
1993.1277	4744.7875
1996.18947	4720.2875
1999.24925	4664.0875
2002.30706	4681.5875
2005.36288	4665.7875
2008.41672	4656.3875
2011.46859	4624.9875
2014.51848	4609.4875
2017.56639	4601.6875
2020.61233	4583.8875
2023.6563	4585.2875
2026.6983	4516.4875
2029.73833	4544.1875
2032.7764	4544.1875
2035.8125	4510.7875
2038.84664	4519.0875
2041.87881	4487.5875
2044.90903	4493.1875
2047.93729	4485.7875
2050.96359	4462.6875
2053.98794	4459.4875
2057.01034	4462.8875
2060.03078	4448.5875
2063.04927	4443.0875
2066.06582	4436.2875
2069.08042	4432.1875
2072.09307	4427.8875
2075.10378	4428.8875
2078.11255	4400.1875
2081.11938	4416.4875
2084.12426	4416.5875
2087.12722	4392.2875
2090.12824	4392.2875
2093.12732	4391.5875
2096.12447	4415.5875
2099.11969	4398.1875
2102.11299	4399.8875
2105.10435	4415.1875
2108.09379	4419.3875
2111.08131	4405.2875
2114.0669	4395.0875
2117.05057	4408.2875
2120.03233	4400.5875
2123.01216	4413.5875
2125.99008	4416.8875
2128.96609	4416.9875
2131.94018	4431.3875
2134.91236	4417.3875
2137.88263	4419.6875
2140.851	4420.5875
2143.81746	4436.3875
2146.78201	4410.7875
2149.74466	4394.2875
2152.7054	4423.2875
2155.66425	4407.1875
2158.6212	4404.7875
2161.57625	4389.0875
2164.52941	4354.4875
2167.48067	4363.2875
2170.43004	4362.2875
2173.37752	4383.7875
2176.32311	4376.1875
2179.26681	4364.0875
2182.20863	4379.7875
2185.14856	4384.3875
2188.08661	4387.4875
2191.02278	4374.2875
2193.95707	4348.4875
2196.88948	4346.4875
2199.82001	4341.5875
2202.74867	4341.6875
2205.67545	4343.6875
2208.60037	4345.4875
2211.52341	4323.7875
2214.44458	4305.2875
2217.36388	4294.2875
2220.28132	4283.1875
2223.1969	4264.1875
2226.11061	4256.0875
2229.02246	4254.4875
2231.93245	4261.1875
2234.84058	4236.8875
2237.74686	4239.3875
2240.65128	4216.5875
2243.55385	4221.2875
2246.45456	4212.2875
2249.35343	4226.5875
2252.25044	4200.7875
2255.14561	4204.1875
2258.03893	4197.5875
2260.93041	4187.5875
2263.82004	4178.4875
2266.70783	4186.2875
2269.59378	4166.1875
2272.4779	4139.9875
2275.36017	4141.3875
2278.24061	4132.4875
2281.11922	4087.2875
2283.996	4108.9875
2286.87094	4094.5875
2289.74405	4104.5875
2292.61534	4084.1875
2295.4848	4070.2875
2298.35243	4072.3875
2301.21824	4057.7875
2304.08223	4063.5875
2306.94439	4057.3875
2309.80474	4066.8875
2312.66327	4044.2875
2315.51999	4040.0875
2318.37489	4033.9875
2321.22797	4016.2875
2324.07925	4009.7875
2326.92871	4006.4875
2329.77637	3976.2875
2332.62222	3977.2875
2335.46626	3945.5875
2338.3085	3951.8875
2341.14893	3963.7875
2343.98756	3981.5875
2346.8244	3950.2875
2349.65943	3937.0875
2352.49267	3941.9875
2355.32411	3944.1875
2358.15376	3942.7875
2360.98161	3968.6875
2363.80768	3937.8875
2366.63195	3945.0875
2369.45444	3952.1875
2372.27514	3942.7875
2375.09405	3942.8875
2377.91118	3905.1875
2380.72652	3904.8875
2383.54009	3906.5875
2386.35187	3906.5875
2389.16188	3891.7875
2391.97011	3866.6875
2394.77657	3859.0875
2397.58125	3870.8875
2400.38416	3847.6875
2403.18529	3842.9875
2405.98466	3820.3875
2408.78226	3830.0875
2411.57809	3816.2875
2414.37216	3783.7875
2417.16446	3801.1875
2419.955	3781.3875
2422.74378	3798.9875
2425.5308	3772.8875
2428.31606	3774.0875
2431.09956	3791.8875
2433.88131	3747.4875
2436.6613	3770.8875
2439.43954	3766.2875
2442.21603	3756.6875
2444.99077	3739.2875
2447.76377	3762.6875
2450.53501	3735.9875
2453.30451	3742.0875
2456.07226	3739.3875
2458.83827	3737.8875
2461.60254	3684.1875
2464.36507	3722.2875
2467.12586	3705.1875
2469.88492	3712.3875
2472.64224	3721.3875
2475.39782	3687.5875
2478.15167	3712.6875
2480.90379	3693.6875
2483.65417	3708.6875
2486.40283	3704.0875
2489.14976	3712.1875
2491.89497	3708.5875
2494.63845	3697.7875
2497.3802	3685.6875
2500.12024	3683.8875
2502.85855	3680.4875
2505.59514	3679.0875
2508.33002	3661.0875
2511.06318	3639.9875
2513.79462	3657.1875
2516.52435	3608.1875
2519.25237	3591.2875
2521.97867	3585.8875
2524.70327	3596.2875
2527.42616	3592.7875
2530.14734	3602.1875
2532.86681	3589.2875
2535.58458	3556.7875
2538.30065	3561.5875
2541.01501	3583.8875
2543.72768	3556.5875
2546.43864	3561.6875
2549.14791	3545.4875
2551.85548	3532.4875
2554.56136	3526.0875
2557.26554	3539.7875
2559.96803	3538.6875
2562.66883	3526.3875
2565.36794	3509.5875
2568.06536	3477.2875
2570.7611	3502.8875
2573.45514	3487.6875
2576.14751	3486.6875
2578.83819	3452.9875
2581.52719	3451.6875
2584.21451	3447.1875
2586.90015	3435.6875
2589.58411	3414.0875
2592.2664	3425.9875
2594.94701	3427.7875
2597.62594	3424.8875
2600.30321	3363.7875
2602.9788	3393.6875
2605.65273	3370.4875
2608.32498	3372.9875
2610.99557	3390.0875
2613.66449	3367.6875
2616.33175	3382.9875
2618.99734	3370.9875
2621.66128	3375.6875
2624.32355	3357.5875
2626.98416	3339.5875
2629.64311	3347.8875
2632.30041	3333.4875
2634.95605	3302.6875
2637.61004	3302.6875
2640.26238	3280.5875
2642.91306	3285.7875
2645.56209	3318.8875
2648.20948	3306.2875
2650.85521	3279.7875
2653.4993	3310.8875
2656.14175	3290.5875
2658.78255	3275.7875
2661.42171	3236.4875
2664.05923	3285.6875
2666.6951	3303.2875
2669.32934	3297.3875
2671.96194	3308.9875
2674.59291	3292.2875
2677.22224	3297.4875
2679.84993	3296.1875
2682.476	3279.6875
2685.10043	3268.2875
2687.72324	3249.8875
2690.34441	3265.0875
2692.96396	3248.3875
2695.58188	3288.7875
2698.19818	3270.6875
2700.81285	3260.3875
2703.4259	3246.7875
2706.03733	3228.3875
2708.64714	3219.8875
2711.25533	3243.3875
2713.86191	3250.0875
2716.46687	3240.0875
2719.07021	3250.5875
2721.67194	3251.8875
2724.27206	3258.0875
2726.87057	3242.5875
2729.46747	3246.2875
2732.06276	3231.3875
2734.65644	3235.3875
2737.24852	3219.6875
2739.83899	3195.2875
2742.42786	3204.2875
2745.01513	3214.5875
2747.60079	3197.3875
2750.18486	3185.6875
2752.76733	3186.7875
2755.3482	3192.2875
2757.92747	3184.5875
2760.50515	3161.0875
2763.08123	3154.4875
2765.65573	3158.9875
2768.22863	3143.8875
2770.79994	3136.0875
2773.36967	3125.5875
2775.9378	3125.0875
2778.50435	3120.9875
2781.06932	3122.2875
2783.6327	3101.5875
2786.1945	3137.9875
2788.75471	3112.6875
2791.31335	3093.3875
2793.87041	3086.3875
2796.42589	3082.1875
2798.97979	3066.0875
2801.53212	3086.2875
2804.08288	3088.8875
2806.63206	3058.8875
2809.17967	3039.4875
2811.72571	3065.1875
2814.27018	3062.6875
2816.81308	3038.6875
2819.35442	3007.5875
2821.89419	3028.0875
2824.43239	3014.2875
2826.96904	3037.6875
2829.50412	3009.6875
2832.03763	3015.9875
2834.56959	3020.6875
2837.1	3012.2875
2839.62884	2996.9875
2842.15613	3011.1875
2844.68186	3004.3875
2847.20604	2976.7875
2849.72867	2969.3875
2852.24974	2989.9875
2854.76927	2950.1875
2857.28724	2913.0875
2859.80367	2974.3875
2862.31855	2982.0875
2864.83189	2969.0875
2867.34368	2952.3875
2869.85393	2976.0875
2872.36264	2940.0875
2874.8698	2953.9875
2877.37543	2961.2875
2879.87952	2954.1875
2882.38207	2918.5875
2884.88308	2914.3875
2887.38256	2943.2875
2889.88051	2923.6875
2892.37692	2927.0875
2894.8718	2901.4875
2897.36515	2931.1875
2899.85698	2907.2875
2902.34727	2906.6875
2904.83604	2915.4875
2907.32328	2927.3875
2909.809	2913.9875
2912.29319	2919.3875
2914.77587	2934.2875
2917.25702	2950.8875
2919.73665	2939.1875
2922.21476	2943.6875
2924.69136	2956.7875
2927.16644	2929.1875
2929.64	2919.3875
2932.11205	2912.4875
2934.58258	2918.7875
2937.05161	2904.6875
2939.51912	2893.4875
2941.98513	2918.3875
2944.44962	2891.9875
2946.91261	2859.0875
2949.37409	2878.3875
2951.83407	2875.7875
2954.29254	2858.6875
2956.74951	2858.5875
2959.20498	2847.2875
2961.65895	2837.2875
2964.11142	2841.4875
2966.56239	2838.9875
2969.01186	2834.2875
2971.45984	2822.4875
2973.90632	2827.2875
2976.35131	2825.0875
2978.7948	2827.9875
2981.23681	2819.8875
2983.67732	2830.8875
2986.11635	2805.6875
2988.55388	2778.3875
2990.98993	2792.5875
2993.4245	2773.7875
2995.85758	2762.4875
2998.28917	2767.8875
3000.71928	2744.7875
3003.14791	2740.3875
3005.57506	2733.7875
3008.00073	2721.7875
3010.42493	2669.9875
3012.84764	2711.0875
3015.26888	2716.9875
3017.68865	2701.0875
3020.10694	2664.1875
3022.52376	2678.9875
3024.9391	2672.2875
3027.35298	2672.4875
3029.76539	2649.3875
3032.17632	2653.3875
3034.5858	2633.2875
3036.9938	2650.7875
3039.40034	2649.5875
3041.80542	2632.4875
3044.20903	2617.5875
3046.61118	2604.3875
3049.01187	2626.9875
3051.4111	2605.7875
3053.80888	2576.9875
3056.20519	2587.2875
3058.60005	2575.2875
3060.99345	2603.6875
3063.3854	2566.4875
3065.7759	2557.2875
3068.16494	2551.2875
3070.55254	2539.7875
3072.93868	2546.2875
3075.32338	2544.8875
3077.70662	2534.6875
3080.08842	2515.1875
3082.46878	2506.6875
3084.84769	2529.8875
3087.22515	2499.3875
3089.60118	2522.7875
3091.97576	2500.9875
3094.3489	2514.7875
3096.72061	2497.8875
3099.09087	2480.1875
3101.4597	2491.1875
3103.82709	2485.8875
3106.19305	2478.2875
3108.55757	2486.0875
3110.92066	2455.7875
3113.28232	2474.7875
3115.64255	2469.2875
3118.00134	2461.7875
3120.35871	2447.8875
3122.71466	2414.4875
3125.06917	2434.7875
3127.42226	2418.0875
3129.77393	2405.3875
3132.12417	2418.9875
3134.47299	2430.4875
3136.82039	2401.7875
3139.16636	2373.7875
3141.51092	2407.2875
3143.85406	2395.7875
3146.19579	2386.7875
3148.53609	2386.1875
3150.87499	2393.3875
3153.21246	2380.9875
3155.54853	2393.0875
3157.88318	2392.4875
3160.21642	2399.5875
3162.54826	2393.1875
3164.87868	2392.6875
3167.2077	2346.2875
3169.5353	2359.2875
3171.86151	2383.5875
3174.18631	2358.4875
3176.5097	2371.6875
3178.83169	2371.4875
3181.15228	2362.3875
3183.47147	2332.8875
3185.78926	2324.4875
3188.10565	2324.8875
3190.42065	2307.0875
3192.73424	2318.0875
3195.04645	2319.6875
3197.35725	2304.1875
3199.66667	2301.6875
3201.97469	2303.7875
3204.28132	2293.2875
3206.58656	2296.4875
3208.8904	2304.3875
3211.19287	2299.5875
3213.49394	2290.8875
3215.79363	2278.2875
3218.09193	2300.0875
3220.38884	2291.6875
3222.68438	2281.4875
3224.97853	2266.9875
3227.2713	2293.2875
3229.56269	2271.1875
3231.8527	2282.8875
3234.14133	2258.2875
3236.42858	2256.9875
3238.71446	2226.9875
3240.99896	2251.9875
3243.28209	2242.6875
3245.56384	2234.9875
3247.84423	2233.3875
3250.12324	2236.5875
3252.40088	2229.1875
3254.67715	2208.4875
3256.95205	2202.1875
3259.22558	2221.0875
3261.49775	2220.7875
3263.76855	2213.7875
3266.03799	2218.3875
3268.30606	2206.8875
3270.57277	2209.0875
3272.83812	2193.3875
3275.10211	2193.3875
3277.36474	2207.1875
3279.62601	2194.7875
3281.88593	2163.0875
3284.14448	2152.9875
3286.40168	2158.4875
3288.65753	2160.3875
3290.91202	2155.1875
3293.16516	2140.1875
3295.41695	2164.4875
3297.66738	2162.2875
3299.91647	2137.0875
3302.16421	2131.0875
3304.4106	2100.1875
3306.65564	2120.8875
3308.89933	2077.8875
3311.14169	2063.9875
3313.38269	2052.9875
3315.62236	2038.9875
3317.86068	2032.1875
3320.09766	2012.7875
3322.3333	1974.7875
3324.5676	1969.8875
3326.80056	1954.3875
3329.03219	1944.8875
3331.26248	0.1875
3333.49143	-0.1125
3335.71905	-0.1125
