Data from AgNPs_UA_10uM_CRN_500uM_SU_RamanShift__53__13-14-10-263.txt Node

Date: Thu Aug 04 13:14:10 BST 2022
User: TCL
Spectrometer: QEP01345
Trigger mode: 4
Integration Time (sec): 1.000000E0
Scans to average: 10
Electric dark correction enabled: true
Nonlinearity correction enabled: false
Boxcar width: 0
XAxis mode: Raman Shifts
Number of Pixels in Spectrum: 1044
>>>>>Begin Spectral Data<<<<<
46.04893	0.2375
50.45542	-0.3625
54.85868	0.4375
59.25871	-0.8625
63.6555	20.0375
68.04907	22.9375
72.43941	22.0375
76.82654	24.5375
81.21044	24.7375
85.59113	26.0375
89.96862	28.4375
94.34289	27.3375
98.71396	28.0375
103.08183	29.5375
107.4465	28.6375
111.80798	30.5375
116.16626	31.9375
120.52136	34.5375
124.87327	36.4375
129.222	38.1375
133.56755	40.3375
137.90993	42.7375
142.24913	49.4375
146.58517	58.2375
150.91804	64.8375
155.24774	84.5375
159.57429	100.3375
163.89768	131.4375
168.21792	176.2375
172.53501	243.0375
176.84895	337.8375
181.15975	484.3375
185.46741	690.8375
189.77193	959.8375
194.07331	1281.9375
198.37157	1654.6375
202.6667	2051.6375
206.9587	2448.8375
211.24758	2842.6375
215.53334	3234.9375
219.81599	3659.9375
224.09553	4139.3375
228.37195	4635.2375
232.64527	5203.4375
236.91549	5771.3375
241.18261	6303.6375
245.44663	6734.8375
249.70755	7110.7375
253.96539	7461.3375
258.22014	7745.3375
262.4718	7978.4375
266.72039	8114.8375
270.96589	8159.1375
275.20832	8135.6375
279.44768	8048.2375
283.68397	7919.6375
287.91719	7815.0375
292.14735	7827.6375
296.37445	7890.0375
300.59849	8037.0375
304.81948	8233.6375
309.03742	8408.5375
313.25231	8486.8375
317.46415	8422.2375
321.67296	8256.9375
325.87872	7995.6375
330.08145	7899.3375
334.28114	7905.1375
338.47781	8000.6375
342.67145	8109.4375
346.86207	8301.5375
351.04966	8554.6375
355.23424	8842.9375
359.4158	9051.7375
363.59435	9186.3375
367.76989	9241.5375
371.94243	9271.4375
376.11196	9283.8375
380.27849	9322.0375
384.44203	9375.4375
388.60257	9446.2375
392.76012	9543.0375
396.91468	9665.0375
401.06626	9788.4375
405.21485	9843.7375
409.36047	9773.0375
413.50311	9605.7375
417.64277	9388.1375
421.77947	9256.8375
425.9132	9170.9375
430.04396	9154.2375
434.17176	9197.6375
438.2966	9248.2375
442.41849	9396.6375
446.53742	9577.5375
450.6534	9730.3375
454.76644	9881.5375
458.87653	9949.1375
462.98368	10017.9375
467.08789	10003.7375
471.18916	9889.7375
475.2875	9727.2375
479.38291	9600.3375
483.4754	9479.0375
487.56496	9430.0375
491.6516	9405.8375
495.73531	9401.4375
499.81612	9455.6375
503.89401	9525.6375
507.96899	9587.4375
512.04106	9605.3375
516.11023	9621.4375
520.1765	9638.9375
524.23987	9654.0375
528.30034	9678.0375
532.35792	9674.5375
536.41261	9618.9375
540.46441	9527.8375
544.51333	9536.6375
548.55936	9607.3375
552.60252	9715.0375
556.64279	9843.4375
560.6802	9990.4375
564.71473	10042.3375
568.7464	10084.2375
572.7752	9966.2375
576.80114	9777.8375
580.82422	9632.3375
584.84444	9584.0375
588.86181	9579.7375
592.87633	9619.6375
596.888	9793.8375
600.89682	10164.6375
604.9028	11098.9375
608.90594	12937.4375
612.90624	14649.6375
616.90371	13655.9375
620.89834	11228.9375
624.89015	10258.7375
628.87913	10187.1375
632.86528	10380.0375
636.84862	10489.2375
640.82913	10319.7375
644.80683	10049.3375
648.78172	9862.9375
652.75379	9876.1375
656.72306	10077.1375
660.68952	10370.8375
664.65319	10328.9375
668.61405	10300.4375
672.57211	10449.3375
676.52738	10431.7375
680.47986	10212.2375
684.42955	9995.7375
688.37646	9906.5375
692.32058	9990.3375
696.26192	10193.9375
700.20048	10374.9375
704.13626	10402.7375
708.06928	10285.0375
711.99952	10170.0375
715.927	10146.2375
719.85171	10222.6375
723.77365	10234.1375
727.69284	10176.9375
731.60928	10128.6375
735.52295	10093.9375
739.43388	10127.7375
743.34206	10183.7375
747.24749	10170.1375
751.15017	10166.4375
755.05012	10234.0375
758.94733	10483.1375
762.8418	11087.7375
766.73354	12022.1375
770.62254	12785.6375
774.50882	13018.9375
778.39237	12847.1375
782.27321	12313.0375
786.15132	11565.1375
790.02671	10877.9375
793.89938	10546.4375
797.76935	10357.8375
801.6366	10262.9375
805.50115	10205.9375
809.36299	10158.5375
813.22213	10188.4375
817.07857	10198.5375
820.93231	10186.9375
824.78336	10190.2375
828.63172	10207.8375
832.47738	10202.0375
836.32036	10208.1375
840.16066	10188.9375
843.99827	10187.8375
847.8332	10208.8375
851.66546	10226.7375
855.49504	10246.7375
859.32195	10258.8375
863.1462	10233.1375
866.96777	10226.5375
870.78668	10261.9375
874.60293	10276.4375
878.41652	10330.5375
882.22745	10424.9375
886.03573	10461.7375
889.84136	10457.4375
893.64433	10416.4375
897.44466	10379.2375
901.24235	10373.1375
905.0374	10344.5375
908.8298	10324.7375
912.61957	10326.1375
916.40671	10308.0375
920.19121	10340.6375
923.97308	10355.0375
927.75233	10433.8375
931.52895	10445.7375
935.30295	10418.2375
939.07433	10337.0375
942.84309	10236.1375
946.60924	10237.6375
950.37278	10211.4375
954.13371	10193.2375
957.89203	10219.4375
961.64774	10233.4375
965.40086	10219.0375
969.15137	10187.5375
972.89929	10202.8375
976.64461	10200.7375
980.38733	10195.8375
984.12747	10220.5375
987.86502	10240.0375
991.59999	10279.8375
995.33237	10328.0375
999.06217	10394.8375
1002.78939	10504.1375
1006.51404	10645.7375
1010.23611	10817.7375
1013.95561	10903.3375
1017.67255	10953.0375
1021.38692	10942.6375
1025.09872	10865.9375
1028.80796	10770.2375
1032.51465	10723.7375
1036.21877	10714.1375
1039.92035	10747.0375
1043.61937	10777.3375
1047.31584	10843.7375
1051.00976	10876.9375
1054.70114	10900.8375
1058.38998	10956.2375
1062.07627	10990.7375
1065.76003	11063.4375
1069.44126	11183.2375
1073.11995	11387.3375
1076.79611	11636.4375
1080.46974	11748.7375
1084.14085	11780.0375
1087.80943	11866.5375
1091.47549	11943.7375
1095.13903	12009.4375
1098.80005	12172.5375
1102.45857	12327.2375
1106.11456	12293.4375
1109.76805	12046.6375
1113.41903	11918.0375
1117.06751	11989.6375
1120.71348	12108.2375
1124.35696	12176.0375
1127.99793	12198.7375
1131.63641	12066.0375
1135.2724	11800.6375
1138.90589	11610.9375
1142.5369	11494.1375
1146.16542	11426.7375
1149.79145	11363.6375
1153.415	11242.3375
1157.03607	11187.2375
1160.65467	11219.1375
1164.27079	11382.2375
1167.88443	11628.7375
1171.49561	12015.3375
1175.10432	12569.1375
1178.71056	13305.7375
1182.31434	13952.6375
1185.91565	14258.8375
1189.51451	14340.9375
1193.11091	14290.3375
1196.70485	14151.7375
1200.29634	13939.7375
1203.88538	13650.2375
1207.47197	13265.2375
1211.05612	12853.3375
1214.63782	12504.5375
1218.21708	12207.4375
1221.79391	11947.0375
1225.36829	11856.1375
1228.94024	11803.5375
1232.50976	11806.4375
1236.07685	11878.0375
1239.6415	11917.2375
1243.20374	11966.0375
1246.76355	12041.0375
1250.32093	12122.7375
1253.8759	12265.0375
1257.42845	12514.1375
1260.97859	12843.3375
1264.52631	13079.2375
1268.07163	13268.5375
1271.61453	13367.4375
1275.15503	13362.3375
1278.69312	13314.5375
1282.22882	13297.3375
1285.76211	13319.6375
1289.29301	13417.1375
1292.82151	13551.7375
1296.34761	13719.1375
1299.87133	14049.7375
1303.39266	14576.9375
1306.9116	15377.5375
1310.42815	16168.3375
1313.94233	16541.8375
1317.45412	16157.9375
1320.96354	15591.4375
1324.47058	15018.2375
1327.97525	14445.9375
1331.47754	14042.9375
1334.97747	13916.9375
1338.47502	14041.7375
1341.97022	14509.8375
1345.46305	15305.2375
1348.95352	16357.2375
1352.44163	17467.3375
1355.92738	18414.7375
1359.41078	19272.8375
1362.89183	19734.1375
1366.37053	18889.6375
1369.84688	16790.0375
1373.32088	14909.4375
1376.79254	13840.9375
1380.26186	13306.1375
1383.72883	12945.0375
1387.19347	12587.7375
1390.65578	12275.2375
1394.11575	12004.2375
1397.57339	11775.9375
1401.0287	11652.4375
1404.48168	11634.0375
1407.93234	11756.0375
1411.38068	11924.5375
1414.82669	12096.0375
1418.27039	12120.4375
1421.71177	12133.1375
1425.15083	12025.7375
1428.58758	11887.3375
1432.02203	11851.8375
1435.45416	11818.9375
1438.88399	11779.5375
1442.31151	11763.3375
1445.73673	11808.6375
1449.15965	11835.7375
1452.58027	11809.8375
1455.9986	11785.0375
1459.41463	11783.8375
1462.82837	11890.8375
1466.23982	12076.1375
1469.64898	12246.9375
1473.05586	12387.6375
1476.46045	12537.9375
1479.86276	12657.1375
1483.26279	12786.9375
1486.66054	12993.2375
1490.05602	13324.3375
1493.44922	13862.6375
1496.84016	14562.8375
1500.22882	15618.4375
1503.61521	16810.0375
1506.99934	17770.1375
1510.38121	18229.2375
1513.76081	17878.1375
1517.13816	16767.2375
1520.51324	15445.5375
1523.88607	14351.4375
1527.25665	13663.5375
1530.62498	13329.0375
1533.99105	13182.4375
1537.35488	13091.8375
1540.71647	12995.2375
1544.07581	12914.0375
1547.4329	12834.3375
1550.78776	12657.3375
1554.14038	12555.1375
1557.49077	12492.7375
1560.83892	12613.7375
1564.18484	12815.5375
1567.52853	13072.0375
1570.86999	13254.3375
1574.20922	13296.6375
1577.54624	13229.9375
1580.88103	12828.6375
1584.2136	12366.0375
1587.54395	12088.7375
1590.87208	12100.1375
1594.19801	12328.5375
1597.52172	12626.8375
1600.84321	12768.1375
1604.16251	12726.6375
1607.47959	12612.9375
1610.79447	12359.3375
1614.10715	11964.4375
1617.41763	11523.6375
1620.7259	11220.1375
1624.03199	10989.0375
1627.33587	10940.6375
1630.63757	10975.3375
1633.93707	11198.8375
1637.23439	11635.9375
1640.52951	12352.8375
1643.82246	13351.7375
1647.11321	14309.8375
1650.40179	14751.4375
1653.68819	14205.0375
1656.97241	13002.7375
1660.25446	11814.4375
1663.53433	10992.4375
1666.81203	10494.9375
1670.08756	10241.1375
1673.36092	10045.4375
1676.63211	9966.1375
1679.90115	9857.6375
1683.16801	9747.2375
1686.43272	9684.1375
1689.69527	9655.7375
1692.95567	9581.5375
1696.2139	9571.5375
1699.46999	9536.9375
1702.72392	9510.0375
1705.97571	9473.4375
1709.22535	9504.4375
1712.47284	9528.7375
1715.71819	9517.5375
1718.96139	9514.9375
1722.20246	9487.6375
1725.44139	9472.3375
1728.67818	9410.7375
1731.91284	9368.8375
1735.14537	9329.5375
1738.37576	9282.9375
1741.60403	9258.0375
1744.83017	9253.9375
1748.05418	9246.7375
1751.27607	9225.7375
1754.49584	9204.0375
1757.71349	9204.2375
1760.92903	9194.6375
1764.14244	9158.7375
1767.35375	9140.7375
1770.56294	9112.4375
1773.77002	9099.2375
1776.97499	9078.4375
1780.17785	9066.6375
1783.37861	9028.4375
1786.57727	9028.6375
1789.77382	9003.5375
1792.96828	8988.7375
1796.16064	8963.7375
1799.3509	8979.9375
1802.53907	8954.4375
1805.72514	8926.5375
1808.90913	8922.2375
1812.09102	8904.8375
1815.27083	8875.1375
1818.44856	8834.6375
1821.6242	8810.3375
1824.79776	8791.2375
1827.96924	8783.4375
1831.13864	8778.1375
1834.30597	8728.3375
1837.47122	8729.9375
1840.6344	8687.2375
1843.7955	8702.6375
1846.95454	8716.8375
1850.11151	8707.5375
1853.26642	8693.1375
1856.41926	8674.9375
1859.57004	8727.3375
1862.71876	8698.0375
1865.86542	8672.1375
1869.01003	8647.5375
1872.15258	8632.7375
1875.29308	8619.7375
1878.43152	8622.7375
1881.56792	8592.5375
1884.70227	8572.2375
1887.83457	8558.7375
1890.96482	8544.2375
1894.09304	8519.3375
1897.21921	8514.6375
1900.34335	8502.8375
1903.46544	8489.0375
1906.58551	8464.5375
1909.70353	8470.1375
1912.81953	8467.5375
1915.93349	8464.3375
1919.04543	8415.2375
1922.15534	8410.4375
1925.26322	8411.6375
1928.36908	8361.7375
1931.47292	8332.9375
1934.57473	8340.1375
1937.67453	8319.0375
1940.77232	8281.9375
1943.86808	8252.3375
1946.96184	8231.0375
1950.05358	8197.3375
1953.14331	8173.4375
1956.23103	8148.7375
1959.31675	8143.4375
1962.40046	8110.4375
1965.48217	8077.2375
1968.56188	8044.3375
1971.63959	8028.4375
1974.7153	8016.3375
1977.78901	8015.5375
1980.86073	7980.5375
1983.93046	7926.6375
1986.99819	7912.7375
1990.06394	7869.7375
1993.1277	7854.1375
1996.18947	7829.5375
1999.24925	7795.8375
2002.30706	7759.3375
2005.36288	7729.8375
2008.41672	7717.4375
2011.46859	7696.8375
2014.51848	7661.1375
2017.56639	7640.2375
2020.61233	7597.8375
2023.6563	7602.3375
2026.6983	7563.4375
2029.73833	7556.3375
2032.7764	7523.7375
2035.8125	7498.2375
2038.84664	7498.2375
2041.87881	7479.1375
2044.90903	7464.3375
2047.93729	7430.3375
2050.96359	7428.5375
2053.98794	7419.3375
2057.01034	7395.5375
2060.03078	7393.7375
2063.04927	7372.6375
2066.06582	7368.7375
2069.08042	7373.4375
2072.09307	7351.6375
2075.10378	7343.8375
2078.11255	7336.2375
2081.11938	7324.7375
2084.12426	7321.7375
2087.12722	7298.7375
2090.12824	7301.2375
2093.12732	7296.1375
2096.12447	7301.0375
2099.11969	7325.7375
2102.11299	7328.6375
2105.10435	7316.3375
2108.09379	7320.5375
2111.08131	7308.8375
2114.0669	7315.7375
2117.05057	7317.0375
2120.03233	7330.5375
2123.01216	7320.3375
2125.99008	7321.4375
2128.96609	7306.7375
2131.94018	7329.1375
2134.91236	7327.0375
2137.88263	7312.3375
2140.851	7302.9375
2143.81746	7321.7375
2146.78201	7304.6375
2149.74466	7308.1375
2152.7054	7313.7375
2155.66425	7292.8375
2158.6212	7286.3375
2161.57625	7267.1375
2164.52941	7268.8375
2167.48067	7269.4375
2170.43004	7243.9375
2173.37752	7239.6375
2176.32311	7262.4375
2179.26681	7243.2375
2182.20863	7249.0375
2185.14856	7280.5375
2188.08661	7250.7375
2191.02278	7239.4375
2193.95707	7258.6375
2196.88948	7221.2375
2199.82001	7223.3375
2202.74867	7208.4375
2205.67545	7210.7375
2208.60037	7213.3375
2211.52341	7179.2375
2214.44458	7171.0375
2217.36388	7131.1375
2220.28132	7122.4375
2223.1969	7091.1375
2226.11061	7074.2375
2229.02246	7045.6375
2231.93245	7046.2375
2234.84058	7057.3375
2237.74686	7023.6375
2240.65128	7012.2375
2243.55385	6995.4375
2246.45456	6995.6375
2249.35343	6970.4375
2252.25044	6954.4375
2255.14561	6949.7375
2258.03893	6953.6375
2260.93041	6929.0375
2263.82004	6918.0375
2266.70783	6894.2375
2269.59378	6892.2375
2272.4779	6874.7375
2275.36017	6823.6375
2278.24061	6822.9375
2281.11922	6799.6375
2283.996	6781.7375
2286.87094	6772.9375
2289.74405	6774.8375
2292.61534	6757.9375
2295.4848	6734.5375
2298.35243	6739.4375
2301.21824	6719.6375
2304.08223	6707.9375
2306.94439	6692.7375
2309.80474	6690.5375
2312.66327	6683.5375
2315.51999	6674.3375
2318.37489	6665.7375
2321.22797	6650.8375
2324.07925	6645.1375
2326.92871	6613.6375
2329.77637	6597.6375
2332.62222	6588.1375
2335.46626	6574.4375
2338.3085	6574.4375
2341.14893	6560.2375
2343.98756	6548.4375
2346.8244	6557.8375
2349.65943	6526.9375
2352.49267	6530.7375
2355.32411	6510.3375
2358.15376	6492.9375
2360.98161	6498.4375
2363.80768	6514.8375
2366.63195	6474.8375
2369.45444	6485.3375
2372.27514	6476.7375
2375.09405	6474.0375
2377.91118	6456.7375
2380.72652	6434.4375
2383.54009	6436.9375
2386.35187	6420.9375
2389.16188	6391.0375
2391.97011	6364.9375
2394.77657	6334.2375
2397.58125	6329.6375
2400.38416	6319.3375
2403.18529	6312.5375
2405.98466	6319.6375
2408.78226	6287.0375
2411.57809	6280.9375
2414.37216	6266.3375
2417.16446	6280.0375
2419.955	6261.5375
2422.74378	6246.7375
2425.5308	6254.5375
2428.31606	6236.9375
2431.09956	6237.2375
2433.88131	6217.7375
2436.6613	6210.7375
2439.43954	6197.7375
2442.21603	6191.2375
2444.99077	6201.8375
2447.76377	6200.7375
2450.53501	6192.8375
2453.30451	6200.4375
2456.07226	6168.9375
2458.83827	6171.5375
2461.60254	6134.3375
2464.36507	6126.9375
2467.12586	6121.4375
2469.88492	6119.7375
2472.64224	6114.5375
2475.39782	6112.7375
2478.15167	6098.7375
2480.90379	6076.1375
2483.65417	6045.3375
2486.40283	6058.5375
2489.14976	6057.8375
2491.89497	6066.0375
2494.63845	6048.5375
2497.3802	6053.0375
2500.12024	6018.7375
2502.85855	6013.6375
2505.59514	6024.3375
2508.33002	6014.1375
2511.06318	5987.8375
2513.79462	5982.3375
2516.52435	5964.0375
2519.25237	5956.1375
2521.97867	5927.6375
2524.70327	5920.8375
2527.42616	5912.0375
2530.14734	5904.5375
2532.86681	5882.4375
2535.58458	5903.3375
2538.30065	5890.8375
2541.01501	5890.5375
2543.72768	5877.3375
2546.43864	5853.8375
2549.14791	5847.4375
2551.85548	5838.8375
2554.56136	5835.4375
2557.26554	5833.8375
2559.96803	5820.3375
2562.66883	5789.3375
2565.36794	5777.1375
2568.06536	5753.6375
2570.7611	5720.3375
2573.45514	5721.2375
2576.14751	5721.2375
2578.83819	5705.1375
2581.52719	5680.5375
2584.21451	5672.0375
2586.90015	5660.8375
2589.58411	5660.8375
2592.2664	5655.5375
2594.94701	5632.9375
2597.62594	5624.0375
2600.30321	5594.5375
2602.9788	5593.3375
2605.65273	5592.9375
2608.32498	5590.5375
2610.99557	5583.5375
2613.66449	5565.2375
2616.33175	5541.6375
2618.99734	5541.0375
2621.66128	5524.7375
2624.32355	5508.3375
2626.98416	5495.9375
2629.64311	5495.0375
2632.30041	5460.0375
2634.95605	5444.2375
2637.61004	5442.0375
2640.26238	5433.5375
2642.91306	5432.2375
2645.56209	5429.5375
2648.20948	5414.5375
2650.85521	5414.5375
2653.4993	5411.7375
2656.14175	5403.4375
2658.78255	5390.0375
2661.42171	5380.3375
2664.05923	5389.0375
2666.6951	5407.1375
2669.32934	5406.9375
2671.96194	5406.8375
2674.59291	5413.5375
2677.22224	5400.5375
2679.84993	5392.3375
2682.476	5381.1375
2685.10043	5396.2375
2687.72324	5386.1375
2690.34441	5370.8375
2692.96396	5377.1375
2695.58188	5361.2375
2698.19818	5355.1375
2700.81285	5344.1375
2703.4259	5343.7375
2706.03733	5343.8375
2708.64714	5335.7375
2711.25533	5328.5375
2713.86191	5340.5375
2716.46687	5336.7375
2719.07021	5342.4375
2721.67194	5326.9375
2724.27206	5323.5375
2726.87057	5329.0375
2729.46747	5318.6375
2732.06276	5301.7375
2734.65644	5305.7375
2737.24852	5325.3375
2739.83899	5281.7375
2742.42786	5277.8375
2745.01513	5270.3375
2747.60079	5245.1375
2750.18486	5245.8375
2752.76733	5247.0375
2755.3482	5225.8375
2757.92747	5214.6375
2760.50515	5204.5375
2763.08123	5201.9375
2765.65573	5162.6375
2768.22863	5154.4375
2770.79994	5161.1375
2773.36967	5145.4375
2775.9378	5131.2375
2778.50435	5137.0375
2781.06932	5117.0375
2783.6327	5122.7375
2786.1945	5098.5375
2788.75471	5109.6375
2791.31335	5078.1375
2793.87041	5084.6375
2796.42589	5050.4375
2798.97979	5040.6375
2801.53212	5027.3375
2804.08288	5022.9375
2806.63206	4997.2375
2809.17967	4994.3375
2811.72571	4997.3375
2814.27018	4987.8375
2816.81308	4966.9375
2819.35442	4949.6375
2821.89419	4934.2375
2824.43239	4920.4375
2826.96904	4925.8375
2829.50412	4922.0375
2832.03763	4897.7375
2834.56959	4896.9375
2837.1	4876.3375
2839.62884	4873.3375
2842.15613	4867.4375
2844.68186	4874.1375
2847.20604	4852.8375
2849.72867	4852.2375
2852.24974	4838.0375
2854.76927	4825.7375
2857.28724	4794.9375
2859.80367	4804.6375
2862.31855	4795.7375
2864.83189	4809.3375
2867.34368	4795.9375
2869.85393	4760.6375
2872.36264	4766.8375
2874.8698	4757.3375
2877.37543	4753.4375
2879.87952	4732.5375
2882.38207	4746.5375
2884.88308	4723.8375
2887.38256	4726.0375
2889.88051	4717.4375
2892.37692	4729.4375
2894.8718	4702.3375
2897.36515	4716.3375
2899.85698	4694.9375
2902.34727	4716.2375
2904.83604	4689.2375
2907.32328	4711.3375
2909.809	4702.7375
2912.29319	4712.4375
2914.77587	4704.3375
2917.25702	4711.2375
2919.73665	4706.2375
2922.21476	4700.3375
2924.69136	4680.7375
2927.16644	4686.1375
2929.64	4678.5375
2932.11205	4660.6375
2934.58258	4629.7375
2937.05161	4646.7375
2939.51912	4657.5375
2941.98513	4633.5375
2944.44962	4627.6375
2946.91261	4604.0375
2949.37409	4620.0375
2951.83407	4610.6375
2954.29254	4601.5375
2956.74951	4598.7375
2959.20498	4606.9375
2961.65895	4605.1375
2964.11142	4603.2375
2966.56239	4589.4375
2969.01186	4587.0375
2971.45984	4577.5375
2973.90632	4595.5375
2976.35131	4574.4375
2978.7948	4543.7375
2981.23681	4546.5375
2983.67732	4532.1375
2986.11635	4526.6375
2988.55388	4512.8375
2990.98993	4497.1375
2993.4245	4489.9375
2995.85758	4480.0375
2998.28917	4476.2375
3000.71928	4455.3375
3003.14791	4432.0375
3005.57506	4444.2375
3008.00073	4420.9375
3010.42493	4414.5375
3012.84764	4392.6375
3015.26888	4398.3375
3017.68865	4395.3375
3020.10694	4390.4375
3022.52376	4363.0375
3024.9391	4355.4375
3027.35298	4321.4375
3029.76539	4315.2375
3032.17632	4315.1375
3034.5858	4311.6375
3036.9938	4287.8375
3039.40034	4292.7375
3041.80542	4255.7375
3044.20903	4256.4375
3046.61118	4261.2375
3049.01187	4244.3375
3051.4111	4244.2375
3053.80888	4222.5375
3056.20519	4218.2375
3058.60005	4196.1375
3060.99345	4198.8375
3063.3854	4189.9375
3065.7759	4177.4375
3068.16494	4164.0375
3070.55254	4158.6375
3072.93868	4136.8375
3075.32338	4125.3375
3077.70662	4121.6375
3080.08842	4100.4375
3082.46878	4092.3375
3084.84769	4081.0375
3087.22515	4086.5375
3089.60118	4067.5375
3091.97576	4072.9375
3094.3489	4070.7375
3096.72061	4058.0375
3099.09087	4053.1375
3101.4597	4064.6375
3103.82709	4044.5375
3106.19305	4041.8375
3108.55757	4044.3375
3110.92066	4017.4375
3113.28232	4021.0375
3115.64255	4016.3375
3118.00134	3999.4375
3120.35871	4001.4375
3122.71466	3974.4375
3125.06917	3965.6375
3127.42226	3962.7375
3129.77393	3959.9375
3132.12417	3944.8375
3134.47299	3935.8375
3136.82039	3923.7375
3139.16636	3926.5375
3141.51092	3916.1375
3143.85406	3909.7375
3146.19579	3907.0375
3148.53609	3899.8375
3150.87499	3899.9375
3153.21246	3908.7375
3155.54853	3916.6375
3157.88318	3894.1375
3160.21642	3899.6375
3162.54826	3894.2375
3164.87868	3887.7375
3167.2077	3890.7375
3169.5353	3893.3375
3171.86151	3869.7375
3174.18631	3857.7375
3176.5097	3852.7375
3178.83169	3840.1375
3181.15228	3838.7375
3183.47147	3826.3375
3185.78926	3817.7375
3188.10565	3802.7375
3190.42065	3790.4375
3192.73424	3796.8375
3195.04645	3778.1375
3197.35725	3779.8375
3199.66667	3758.9375
3201.97469	3770.6375
3204.28132	3766.8375
3206.58656	3754.7375
3208.8904	3764.3375
3211.19287	3784.3375
3213.49394	3769.3375
3215.79363	3757.0375
3218.09193	3759.7375
3220.38884	3762.5375
3222.68438	3763.1375
3224.97853	3753.9375
3227.2713	3744.9375
3229.56269	3742.4375
3231.8527	3717.8375
3234.14133	3714.1375
3236.42858	3704.1375
3238.71446	3689.5375
3240.99896	3679.7375
3243.28209	3682.1375
3245.56384	3668.0375
3247.84423	3666.2375
3250.12324	3660.6375
3252.40088	3643.2375
3254.67715	3638.5375
3256.95205	3629.5375
3259.22558	3628.2375
3261.49775	3617.8375
3263.76855	3623.6375
3266.03799	3621.6375
3268.30606	3633.2375
3270.57277	3615.5375
3272.83812	3623.6375
3275.10211	3602.4375
3277.36474	3577.4375
3279.62601	3574.6375
3281.88593	3574.6375
3284.14448	3561.8375
3286.40168	3563.1375
3288.65753	3570.4375
3290.91202	3550.9375
3293.16516	3548.3375
3295.41695	3535.0375
3297.66738	3512.3375
3299.91647	3508.4375
3302.16421	3473.6375
3304.4106	3447.5375
3306.65564	3426.1375
3308.89933	3411.1375
3311.14169	3380.5375
3313.38269	3347.4375
3315.62236	3334.9375
3317.86068	3305.5375
3320.09766	3275.8375
3322.3333	3244.6375
3324.5676	3225.2375
3326.80056	3159.7375
3329.03219	3143.4375
3331.26248	0.1375
3333.49143	0.2375
3335.71905	0.6375
