Data from AgNPs_UA_10uM_CRN_500uM_SU_RamanShift__64__13-16-00-266.txt Node

Date: Thu Aug 04 13:16:00 BST 2022
User: TCL
Spectrometer: QEP01345
Trigger mode: 4
Integration Time (sec): 1.000000E0
Scans to average: 10
Electric dark correction enabled: true
Nonlinearity correction enabled: false
Boxcar width: 0
XAxis mode: Raman Shifts
Number of Pixels in Spectrum: 1044
>>>>>Begin Spectral Data<<<<<
46.04893	0.4625
50.45542	-0.7375
54.85868	-0.2375
59.25871	-0.4375
63.6555	21.9625
68.04907	21.3625
72.43941	23.1625
76.82654	24.4625
81.21044	25.8625
85.59113	28.2625
89.96862	26.5625
94.34289	27.2625
98.71396	29.4625
103.08183	30.6625
107.4465	31.5625
111.80798	31.3625
116.16626	33.1625
120.52136	35.0625
124.87327	36.8625
129.222	38.1625
133.56755	40.8625
137.90993	43.7625
142.24913	50.0625
146.58517	57.2625
150.91804	67.6625
155.24774	80.4625
159.57429	104.9625
163.89768	136.1625
168.21792	178.9625
172.53501	249.7625
176.84895	350.2625
181.15975	500.4625
185.46741	707.2625
189.77193	977.5625
194.07331	1319.3625
198.37157	1712.9625
202.6667	2110.5625
206.9587	2529.7625
211.24758	2934.5625
215.53334	3354.9625
219.81599	3780.8625
224.09553	4267.8625
228.37195	4794.4625
232.64527	5382.3625
236.91549	5953.4625
241.18261	6513.3625
245.44663	6954.8625
249.70755	7343.9625
253.96539	7681.4625
258.22014	7942.8625
262.4718	8198.0625
266.72039	8324.7625
270.96589	8367.1625
275.20832	8328.0625
279.44768	8243.5625
283.68397	8096.0625
287.91719	8003.1625
292.14735	8026.4625
296.37445	8087.2625
300.59849	8253.7625
304.81948	8480.4625
309.03742	8676.9625
313.25231	8784.0625
317.46415	8734.4625
321.67296	8497.0625
325.87872	8250.7625
330.08145	8145.7625
334.28114	8137.5625
338.47781	8209.8625
342.67145	8344.1625
346.86207	8535.2625
351.04966	8805.2625
355.23424	9115.4625
359.4158	9328.8625
363.59435	9458.9625
367.76989	9525.8625
371.94243	9525.6625
376.11196	9512.6625
380.27849	9546.1625
384.44203	9616.6625
388.60257	9713.8625
392.76012	9781.1625
396.91468	9929.0625
401.06626	10070.4625
405.21485	10116.0625
409.36047	10036.6625
413.50311	9855.4625
417.64277	9629.5625
421.77947	9486.6625
425.9132	9374.4625
430.04396	9355.0625
434.17176	9378.0625
438.2966	9440.3625
442.41849	9577.9625
446.53742	9777.4625
450.6534	9959.2625
454.76644	10110.8625
458.87653	10195.5625
462.98368	10226.4625
467.08789	10223.1625
471.18916	10077.3625
475.2875	9913.6625
479.38291	9749.3625
483.4754	9652.6625
487.56496	9573.1625
491.6516	9563.1625
495.73531	9554.3625
499.81612	9620.6625
503.89401	9696.1625
507.96899	9734.3625
512.04106	9757.7625
516.11023	9793.5625
520.1765	9815.5625
524.23987	9838.7625
528.30034	9840.7625
532.35792	9845.2625
536.41261	9751.6625
540.46441	9681.5625
544.51333	9655.8625
548.55936	9736.9625
552.60252	9829.4625
556.64279	9968.1625
560.6802	10116.2625
564.71473	10181.1625
568.7464	10232.1625
572.7752	10138.1625
576.80114	9924.4625
580.82422	9785.8625
584.84444	9720.1625
588.86181	9681.4625
592.87633	9734.1625
596.888	9923.0625
600.89682	10336.3625
604.9028	11349.1625
608.90594	13335.4625
612.90624	15209.1625
616.90371	14109.2625
620.89834	11465.6625
624.89015	10410.0625
628.87913	10311.5625
632.86528	10547.2625
636.84862	10673.5625
640.82913	10490.4625
644.80683	10139.3625
648.78172	9953.3625
652.75379	9962.6625
656.72306	10229.0625
660.68952	10481.6625
664.65319	10463.2625
668.61405	10418.7625
672.57211	10586.2625
676.52738	10572.0625
680.47986	10302.5625
684.42955	10059.8625
688.37646	10003.7625
692.32058	10085.0625
696.26192	10324.8625
700.20048	10483.2625
704.13626	10530.8625
708.06928	10410.4625
711.99952	10262.5625
715.927	10244.2625
719.85171	10299.1625
723.77365	10316.2625
727.69284	10285.2625
731.60928	10175.4625
735.52295	10177.6625
739.43388	10196.0625
743.34206	10258.3625
747.24749	10235.5625
751.15017	10239.9625
755.05012	10290.7625
758.94733	10563.2625
762.8418	11258.0625
766.73354	12254.8625
770.62254	13046.6625
774.50882	13309.8625
778.39237	13155.8625
782.27321	12568.0625
786.15132	11740.4625
790.02671	11030.2625
793.89938	10651.9625
797.76935	10429.5625
801.6366	10305.8625
805.50115	10248.2625
809.36299	10219.0625
813.22213	10220.9625
817.07857	10235.0625
820.93231	10222.5625
824.78336	10196.4625
828.63172	10263.7625
832.47738	10264.2625
836.32036	10224.4625
840.16066	10232.7625
843.99827	10235.0625
847.8332	10239.8625
851.66546	10262.2625
855.49504	10266.3625
859.32195	10286.5625
863.1462	10282.2625
866.96777	10265.2625
870.78668	10286.7625
874.60293	10329.9625
878.41652	10356.7625
882.22745	10469.8625
886.03573	10504.9625
889.84136	10486.9625
893.64433	10468.1625
897.44466	10416.0625
901.24235	10402.8625
905.0374	10388.0625
908.8298	10355.1625
912.61957	10334.8625
916.40671	10318.8625
920.19121	10362.5625
923.97308	10394.3625
927.75233	10471.0625
931.52895	10520.5625
935.30295	10471.2625
939.07433	10334.3625
942.84309	10297.2625
946.60924	10256.1625
950.37278	10230.5625
954.13371	10217.8625
957.89203	10231.3625
961.64774	10241.2625
965.40086	10221.7625
969.15137	10225.4625
972.89929	10190.8625
976.64461	10195.4625
980.38733	10212.8625
984.12747	10240.3625
987.86502	10263.9625
991.59999	10306.6625
995.33237	10370.7625
999.06217	10391.8625
1002.78939	10510.7625
1006.51404	10688.9625
1010.23611	10855.6625
1013.95561	10940.3625
1017.67255	10988.9625
1021.38692	10988.2625
1025.09872	10895.5625
1028.80796	10789.7625
1032.51465	10749.7625
1036.21877	10753.8625
1039.92035	10797.9625
1043.61937	10824.4625
1047.31584	10907.1625
1051.00976	10949.7625
1054.70114	10969.8625
1058.38998	11014.8625
1062.07627	11079.2625
1065.76003	11135.0625
1069.44126	11258.1625
1073.11995	11465.8625
1076.79611	11749.2625
1080.46974	11891.5625
1084.14085	11908.4625
1087.80943	11997.7625
1091.47549	12041.7625
1095.13903	12119.6625
1098.80005	12286.8625
1102.45857	12480.3625
1106.11456	12497.4625
1109.76805	12221.0625
1113.41903	12102.3625
1117.06751	12166.8625
1120.71348	12232.9625
1124.35696	12343.4625
1127.99793	12372.8625
1131.63641	12231.9625
1135.2724	11944.9625
1138.90589	11733.6625
1142.5369	11611.7625
1146.16542	11540.3625
1149.79145	11442.5625
1153.415	11322.7625
1157.03607	11272.2625
1160.65467	11317.4625
1164.27079	11499.3625
1167.88443	11802.0625
1171.49561	12205.8625
1175.10432	12803.0625
1178.71056	13600.5625
1182.31434	14306.0625
1185.91565	14631.6625
1189.51451	14686.3625
1193.11091	14646.9625
1196.70485	14501.0625
1200.29634	14256.3625
1203.88538	13914.1625
1207.47197	13493.2625
1211.05612	13049.2625
1214.63782	12615.3625
1218.21708	12303.5625
1221.79391	12037.1625
1225.36829	11976.0625
1228.94024	11928.9625
1232.50976	11928.9625
1236.07685	12000.8625
1239.6415	12044.9625
1243.20374	12134.4625
1246.76355	12167.4625
1250.32093	12253.0625
1253.8759	12377.7625
1257.42845	12674.5625
1260.97859	12988.8625
1264.52631	13284.9625
1268.07163	13487.7625
1271.61453	13572.0625
1275.15503	13570.5625
1278.69312	13534.8625
1282.22882	13467.0625
1285.76211	13541.0625
1289.29301	13648.2625
1292.82151	13828.7625
1296.34761	13997.4625
1299.87133	14337.0625
1303.39266	14920.1625
1306.9116	15770.4625
1310.42815	16681.5625
1313.94233	17024.7625
1317.45412	16626.1625
1320.96354	15987.2625
1324.47058	15369.3625
1327.97525	14744.1625
1331.47754	14324.2625
1334.97747	14178.0625
1338.47502	14327.0625
1341.97022	14808.5625
1345.46305	15659.1625
1348.95352	16840.9625
1352.44163	18069.3625
1355.92738	19188.7625
1359.41078	20119.5625
1362.89183	20667.6625
1366.37053	19680.5625
1369.84688	17399.5625
1373.32088	15338.2625
1376.79254	14202.4625
1380.26186	13599.5625
1383.72883	13261.1625
1387.19347	12840.4625
1390.65578	12495.0625
1394.11575	12170.5625
1397.57339	11925.9625
1401.0287	11824.2625
1404.48168	11802.6625
1407.93234	11879.8625
1411.38068	12128.2625
1414.82669	12291.5625
1418.27039	12335.7625
1421.71177	12354.7625
1425.15083	12235.0625
1428.58758	12097.0625
1432.02203	12051.8625
1435.45416	11994.5625
1438.88399	11945.1625
1442.31151	11932.9625
1445.73673	11950.8625
1449.15965	11978.1625
1452.58027	11977.4625
1455.9986	11931.8625
1459.41463	11943.2625
1462.82837	12025.1625
1466.23982	12209.2625
1469.64898	12426.4625
1473.05586	12605.5625
1476.46045	12769.5625
1479.86276	12927.9625
1483.26279	13063.2625
1486.66054	13281.2625
1490.05602	13651.7625
1493.44922	14211.3625
1496.84016	14974.1625
1500.22882	16134.0625
1503.61521	17411.0625
1506.99934	18500.0625
1510.38121	18982.7625
1513.76081	18581.1625
1517.13816	17387.0625
1520.51324	15934.5625
1523.88607	14730.9625
1527.25665	13980.4625
1530.62498	13628.5625
1533.99105	13442.7625
1537.35488	13355.5625
1540.71647	13241.6625
1544.07581	13146.3625
1547.4329	13033.2625
1550.78776	12876.7625
1554.14038	12740.6625
1557.49077	12718.9625
1560.83892	12831.9625
1564.18484	13074.3625
1567.52853	13337.7625
1570.86999	13554.2625
1574.20922	13623.9625
1577.54624	13528.2625
1580.88103	13106.2625
1584.2136	12576.6625
1587.54395	12270.9625
1590.87208	12243.4625
1594.19801	12488.7625
1597.52172	12850.2625
1600.84321	12970.4625
1604.16251	12885.8625
1607.47959	12777.2625
1610.79447	12490.9625
1614.10715	12101.8625
1617.41763	11690.6625
1620.7259	11347.7625
1624.03199	11089.7625
1627.33587	11020.1625
1630.63757	11083.2625
1633.93707	11313.7625
1637.23439	11819.7625
1640.52951	12597.1625
1643.82246	13666.6625
1647.11321	14779.8625
1650.40179	15230.4625
1653.68819	14658.6625
1656.97241	13329.5625
1660.25446	12034.6625
1663.53433	11161.5625
1666.81203	10596.7625
1670.08756	10254.2625
1673.36092	10081.7625
1676.63211	9980.8625
1679.90115	9859.5625
1683.16801	9787.3625
1686.43272	9712.7625
1689.69527	9626.6625
1692.95567	9574.8625
1696.2139	9553.9625
1699.46999	9520.8625
1702.72392	9549.2625
1705.97571	9506.3625
1709.22535	9519.4625
1712.47284	9509.2625
1715.71819	9526.9625
1718.96139	9499.1625
1722.20246	9493.9625
1725.44139	9478.7625
1728.67818	9407.0625
1731.91284	9348.6625
1735.14537	9348.6625
1738.37576	9295.2625
1741.60403	9261.7625
1744.83017	9237.8625
1748.05418	9197.6625
1751.27607	9192.1625
1754.49584	9199.9625
1757.71349	9158.8625
1760.92903	9166.3625
1764.14244	9139.8625
1767.35375	9119.1625
1770.56294	9088.3625
1773.77002	9079.4625
1776.97499	9069.8625
1780.17785	9015.5625
1783.37861	8988.5625
1786.57727	8995.7625
1789.77382	8993.9625
1792.96828	8947.3625
1796.16064	8939.4625
1799.3509	8939.8625
1802.53907	8908.7625
1805.72514	8888.7625
1808.90913	8882.6625
1812.09102	8856.3625
1815.27083	8833.3625
1818.44856	8810.0625
1821.6242	8773.8625
1824.79776	8768.6625
1827.96924	8745.0625
1831.13864	8729.2625
1834.30597	8707.1625
1837.47122	8704.8625
1840.6344	8672.6625
1843.7955	8671.8625
1846.95454	8666.1625
1850.11151	8655.3625
1853.26642	8660.2625
1856.41926	8651.9625
1859.57004	8652.3625
1862.71876	8650.5625
1865.86542	8635.1625
1869.01003	8641.4625
1872.15258	8617.3625
1875.29308	8571.4625
1878.43152	8558.3625
1881.56792	8573.1625
1884.70227	8544.4625
1887.83457	8507.7625
1890.96482	8505.8625
1894.09304	8486.1625
1897.21921	8459.8625
1900.34335	8465.9625
1903.46544	8450.3625
1906.58551	8434.0625
1909.70353	8411.4625
1912.81953	8421.0625
1915.93349	8405.5625
1919.04543	8379.6625
1922.15534	8351.0625
1925.26322	8334.6625
1928.36908	8302.3625
1931.47292	8301.1625
1934.57473	8284.5625
1937.67453	8252.3625
1940.77232	8248.7625
1943.86808	8209.8625
1946.96184	8162.6625
1950.05358	8146.7625
1953.14331	8157.7625
1956.23103	8113.0625
1959.31675	8097.5625
1962.40046	8063.4625
1965.48217	8046.3625
1968.56188	7997.6625
1971.63959	7972.7625
1974.7153	7959.1625
1977.78901	7968.3625
1980.86073	7926.9625
1983.93046	7894.9625
1986.99819	7859.0625
1990.06394	7850.6625
1993.1277	7816.5625
1996.18947	7764.6625
1999.24925	7747.0625
2002.30706	7689.7625
2005.36288	7660.4625
2008.41672	7654.2625
2011.46859	7629.4625
2014.51848	7611.8625
2017.56639	7574.7625
2020.61233	7547.6625
2023.6563	7535.3625
2026.6983	7519.0625
2029.73833	7503.4625
2032.7764	7471.2625
2035.8125	7440.8625
2038.84664	7423.5625
2041.87881	7412.4625
2044.90903	7404.8625
2047.93729	7377.8625
2050.96359	7368.1625
2053.98794	7337.3625
2057.01034	7338.0625
2060.03078	7345.0625
2063.04927	7323.8625
2066.06582	7300.4625
2069.08042	7292.3625
2072.09307	7281.0625
2075.10378	7291.0625
2078.11255	7250.1625
2081.11938	7251.0625
2084.12426	7232.4625
2087.12722	7230.3625
2090.12824	7249.9625
2093.12732	7234.0625
2096.12447	7238.7625
2099.11969	7250.8625
2102.11299	7249.9625
2105.10435	7230.2625
2108.09379	7240.3625
2111.08131	7234.8625
2114.0669	7229.5625
2117.05057	7246.0625
2120.03233	7268.2625
2123.01216	7250.8625
2125.99008	7253.8625
2128.96609	7246.7625
2131.94018	7275.6625
2134.91236	7260.1625
2137.88263	7238.0625
2140.851	7243.3625
2143.81746	7257.5625
2146.78201	7227.5625
2149.74466	7217.0625
2152.7054	7232.1625
2155.66425	7222.2625
2158.6212	7239.1625
2161.57625	7225.4625
2164.52941	7204.3625
2167.48067	7199.9625
2170.43004	7182.3625
2173.37752	7184.5625
2176.32311	7184.2625
2179.26681	7197.7625
2182.20863	7197.6625
2185.14856	7186.2625
2188.08661	7170.5625
2191.02278	7165.5625
2193.95707	7180.2625
2196.88948	7149.2625
2199.82001	7137.7625
2202.74867	7140.5625
2205.67545	7151.5625
2208.60037	7122.8625
2211.52341	7114.7625
2214.44458	7101.4625
2217.36388	7054.0625
2220.28132	7028.8625
2223.1969	7029.9625
2226.11061	6994.5625
2229.02246	6980.4625
2231.93245	6979.4625
2234.84058	6969.2625
2237.74686	6939.5625
2240.65128	6918.8625
2243.55385	6919.1625
2246.45456	6900.2625
2249.35343	6879.6625
2252.25044	6857.6625
2255.14561	6878.5625
2258.03893	6887.6625
2260.93041	6874.0625
2263.82004	6830.8625
2266.70783	6801.5625
2269.59378	6812.3625
2272.4779	6794.9625
2275.36017	6764.0625
2278.24061	6761.8625
2281.11922	6737.3625
2283.996	6700.4625
2286.87094	6692.1625
2289.74405	6682.3625
2292.61534	6672.5625
2295.4848	6676.1625
2298.35243	6658.1625
2301.21824	6631.7625
2304.08223	6638.4625
2306.94439	6617.0625
2309.80474	6630.6625
2312.66327	6622.6625
2315.51999	6594.3625
2318.37489	6566.4625
2321.22797	6573.0625
2324.07925	6566.4625
2326.92871	6541.9625
2329.77637	6529.9625
2332.62222	6503.3625
2335.46626	6498.9625
2338.3085	6475.1625
2341.14893	6470.8625
2343.98756	6472.3625
2346.8244	6462.3625
2349.65943	6459.5625
2352.49267	6442.2625
2355.32411	6419.0625
2358.15376	6435.8625
2360.98161	6440.0625
2363.80768	6433.8625
2366.63195	6419.8625
2369.45444	6407.7625
2372.27514	6407.9625
2375.09405	6409.5625
2377.91118	6387.8625
2380.72652	6360.4625
2383.54009	6362.2625
2386.35187	6338.0625
2389.16188	6349.5625
2391.97011	6310.7625
2394.77657	6276.3625
2397.58125	6272.0625
2400.38416	6265.5625
2403.18529	6249.6625
2405.98466	6240.6625
2408.78226	6215.4625
2411.57809	6222.5625
2414.37216	6195.0625
2417.16446	6183.2625
2419.955	6177.6625
2422.74378	6176.3625
2425.5308	6161.5625
2428.31606	6171.2625
2431.09956	6157.1625
2433.88131	6139.8625
2436.6613	6150.0625
2439.43954	6133.8625
2442.21603	6125.4625
2444.99077	6119.7625
2447.76377	6117.2625
2450.53501	6114.7625
2453.30451	6104.1625
2456.07226	6098.8625
2458.83827	6078.1625
2461.60254	6068.6625
2464.36507	6042.0625
2467.12586	6050.2625
2469.88492	6042.4625
2472.64224	6036.7625
2475.39782	6031.6625
2478.15167	6017.8625
2480.90379	5994.1625
2483.65417	5987.8625
2486.40283	5977.0625
2489.14976	6011.8625
2491.89497	6002.0625
2494.63845	5989.4625
2497.3802	5978.5625
2500.12024	5941.5625
2502.85855	5949.5625
2505.59514	5957.1625
2508.33002	5967.4625
2511.06318	5898.3625
2513.79462	5912.2625
2516.52435	5903.9625
2519.25237	5895.0625
2521.97867	5865.2625
2524.70327	5869.6625
2527.42616	5849.9625
2530.14734	5837.5625
2532.86681	5832.1625
2535.58458	5846.3625
2538.30065	5836.8625
2541.01501	5808.3625
2543.72768	5805.3625
2546.43864	5780.0625
2549.14791	5783.0625
2551.85548	5769.5625
2554.56136	5753.8625
2557.26554	5761.6625
2559.96803	5749.6625
2562.66883	5732.3625
2565.36794	5698.1625
2568.06536	5654.9625
2570.7611	5661.5625
2573.45514	5642.7625
2576.14751	5636.3625
2578.83819	5630.1625
2581.52719	5617.7625
2584.21451	5611.5625
2586.90015	5606.1625
2589.58411	5600.7625
2592.2664	5586.6625
2594.94701	5552.4625
2597.62594	5561.5625
2600.30321	5529.4625
2602.9788	5528.4625
2605.65273	5531.5625
2608.32498	5514.1625
2610.99557	5487.1625
2613.66449	5488.8625
2616.33175	5492.7625
2618.99734	5471.9625
2621.66128	5464.0625
2624.32355	5441.9625
2626.98416	5413.3625
2629.64311	5417.4625
2632.30041	5409.1625
2634.95605	5394.9625
2637.61004	5390.6625
2640.26238	5368.4625
2642.91306	5372.0625
2645.56209	5368.6625
2648.20948	5348.8625
2650.85521	5344.9625
2653.4993	5344.3625
2656.14175	5339.1625
2658.78255	5321.8625
2661.42171	5311.3625
2664.05923	5344.3625
2666.6951	5339.0625
2669.32934	5313.5625
2671.96194	5321.0625
2674.59291	5325.6625
2677.22224	5320.5625
2679.84993	5335.5625
2682.476	5325.4625
2685.10043	5325.5625
2687.72324	5306.7625
2690.34441	5331.2625
2692.96396	5308.9625
2695.58188	5298.8625
2698.19818	5293.5625
2700.81285	5302.2625
2703.4259	5281.9625
2706.03733	5277.4625
2708.64714	5280.4625
2711.25533	5267.7625
2713.86191	5254.9625
2716.46687	5268.2625
2719.07021	5255.5625
2721.67194	5271.0625
2724.27206	5253.6625
2726.87057	5254.9625
2729.46747	5250.1625
2732.06276	5244.3625
2734.65644	5248.4625
2737.24852	5233.0625
2739.83899	5211.7625
2742.42786	5200.8625
2745.01513	5181.9625
2747.60079	5172.9625
2750.18486	5186.1625
2752.76733	5181.9625
2755.3482	5158.0625
2757.92747	5139.0625
2760.50515	5144.8625
2763.08123	5107.1625
2765.65573	5110.1625
2768.22863	5096.4625
2770.79994	5101.7625
2773.36967	5091.1625
2775.9378	5073.0625
2778.50435	5056.4625
2781.06932	5054.0625
2783.6327	5079.1625
2786.1945	5050.2625
2788.75471	5044.1625
2791.31335	5016.0625
2793.87041	5000.5625
2796.42589	4990.0625
2798.97979	4981.3625
2801.53212	4965.3625
2804.08288	4956.6625
2806.63206	4950.4625
2809.17967	4933.0625
2811.72571	4916.1625
2814.27018	4925.6625
2816.81308	4907.8625
2819.35442	4877.6625
2821.89419	4887.4625
2824.43239	4870.3625
2826.96904	4866.5625
2829.50412	4852.1625
2832.03763	4832.5625
2834.56959	4836.6625
2837.1	4819.1625
2839.62884	4818.9625
2842.15613	4804.2625
2844.68186	4800.0625
2847.20604	4794.9625
2849.72867	4792.5625
2852.24974	4774.4625
2854.76927	4755.6625
2857.28724	4742.1625
2859.80367	4742.0625
2862.31855	4746.3625
2864.83189	4720.4625
2867.34368	4735.6625
2869.85393	4730.0625
2872.36264	4720.4625
2874.8698	4695.8625
2877.37543	4691.3625
2879.87952	4679.8625
2882.38207	4673.1625
2884.88308	4653.1625
2887.38256	4660.8625
2889.88051	4670.1625
2892.37692	4643.6625
2894.8718	4638.4625
2897.36515	4642.3625
2899.85698	4643.1625
2902.34727	4646.7625
2904.83604	4649.6625
2907.32328	4660.4625
2909.809	4641.5625
2912.29319	4649.2625
2914.77587	4645.4625
2917.25702	4668.4625
2919.73665	4648.3625
2922.21476	4650.8625
2924.69136	4642.7625
2927.16644	4631.9625
2929.64	4613.6625
2932.11205	4590.4625
2934.58258	4575.4625
2937.05161	4593.0625
2939.51912	4578.4625
2941.98513	4589.2625
2944.44962	4554.9625
2946.91261	4544.6625
2949.37409	4565.2625
2951.83407	4546.3625
2954.29254	4543.7625
2956.74951	4536.7625
2959.20498	4552.9625
2961.65895	4531.5625
2964.11142	4531.0625
2966.56239	4526.5625
2969.01186	4521.3625
2971.45984	4522.5625
2973.90632	4530.7625
2976.35131	4512.8625
2978.7948	4499.7625
2981.23681	4496.8625
2983.67732	4464.9625
2986.11635	4455.5625
2988.55388	4439.4625
2990.98993	4430.9625
2993.4245	4422.5625
2995.85758	4414.0625
2998.28917	4400.0625
3000.71928	4399.6625
3003.14791	4382.7625
3005.57506	4372.2625
3008.00073	4356.6625
3010.42493	4351.8625
3012.84764	4340.4625
3015.26888	4338.7625
3017.68865	4330.6625
3020.10694	4316.8625
3022.52376	4286.0625
3024.9391	4273.8625
3027.35298	4263.9625
3029.76539	4265.8625
3032.17632	4251.4625
3034.5858	4257.4625
3036.9938	4230.9625
3039.40034	4228.9625
3041.80542	4204.1625
3044.20903	4190.7625
3046.61118	4204.2625
3049.01187	4190.6625
3051.4111	4160.9625
3053.80888	4156.2625
3056.20519	4151.1625
3058.60005	4132.9625
3060.99345	4141.3625
3063.3854	4131.0625
3065.7759	4119.4625
3068.16494	4093.4625
3070.55254	4088.2625
3072.93868	4064.8625
3075.32338	4060.1625
3077.70662	4057.2625
3080.08842	4044.6625
3082.46878	4047.9625
3084.84769	4019.3625
3087.22515	4006.4625
3089.60118	4004.0625
3091.97576	4005.9625
3094.3489	4008.5625
3096.72061	3989.0625
3099.09087	3996.7625
3101.4597	3988.9625
3103.82709	3983.4625
3106.19305	3973.6625
3108.55757	3999.9625
3110.92066	3966.3625
3113.28232	3971.8625
3115.64255	3940.2625
3118.00134	3928.7625
3120.35871	3937.3625
3122.71466	3912.9625
3125.06917	3909.1625
3127.42226	3889.2625
3129.77393	3892.2625
3132.12417	3883.4625
3134.47299	3878.6625
3136.82039	3870.3625
3139.16636	3860.0625
3141.51092	3877.8625
3143.85406	3857.9625
3146.19579	3853.5625
3148.53609	3869.4625
3150.87499	3850.7625
3153.21246	3840.1625
3155.54853	3848.6625
3157.88318	3842.1625
3160.21642	3834.2625
3162.54826	3825.1625
3164.87868	3831.6625
3167.2077	3821.7625
3169.5353	3809.1625
3171.86151	3819.4625
3174.18631	3796.4625
3176.5097	3792.8625
3178.83169	3776.3625
3181.15228	3785.1625
3183.47147	3767.9625
3185.78926	3740.7625
3188.10565	3722.7625
3190.42065	3722.5625
3192.73424	3725.9625
3195.04645	3715.2625
3197.35725	3723.3625
3199.66667	3708.3625
3201.97469	3713.4625
3204.28132	3707.6625
3206.58656	3725.5625
3208.8904	3701.6625
3211.19287	3704.7625
3213.49394	3707.8625
3215.79363	3697.3625
3218.09193	3718.2625
3220.38884	3702.0625
3222.68438	3695.3625
3224.97853	3687.1625
3227.2713	3674.4625
3229.56269	3664.7625
3231.8527	3668.3625
3234.14133	3648.1625
3236.42858	3635.9625
3238.71446	3625.7625
3240.99896	3615.4625
3243.28209	3627.1625
3245.56384	3587.5625
3247.84423	3590.0625
3250.12324	3578.3625
3252.40088	3589.7625
3254.67715	3585.8625
3256.95205	3575.6625
3259.22558	3577.3625
3261.49775	3567.9625
3263.76855	3582.4625
3266.03799	3552.2625
3268.30606	3573.0625
3270.57277	3560.5625
3272.83812	3549.7625
3275.10211	3534.3625
3277.36474	3528.5625
3279.62601	3516.9625
3281.88593	3507.4625
3284.14448	3502.9625
3286.40168	3501.9625
3288.65753	3498.8625
3290.91202	3493.6625
3293.16516	3483.8625
3295.41695	3478.2625
3297.66738	3459.0625
3299.91647	3441.6625
3302.16421	3404.5625
3304.4106	3396.0625
3306.65564	3368.2625
3308.89933	3357.5625
3311.14169	3321.7625
3313.38269	3282.7625
3315.62236	3276.7625
3317.86068	3254.9625
3320.09766	3223.1625
3322.3333	3188.8625
3324.5676	3169.8625
3326.80056	3128.3625
3329.03219	3096.2625
3331.26248	1.2625
3333.49143	-0.4375
3335.71905	-0.0375
