Data from AgNPs_UA_50uM_CRN_500uM_SU_RamanShift__58__14-05-30-327.txt Node

Date: Thu Aug 04 14:05:30 BST 2022
User: TCL
Spectrometer: QEP01345
Trigger mode: 4
Integration Time (sec): 1.000000E0
Scans to average: 10
Electric dark correction enabled: true
Nonlinearity correction enabled: false
Boxcar width: 0
XAxis mode: Raman Shifts
Number of Pixels in Spectrum: 1044
>>>>>Begin Spectral Data<<<<<
46.04893	0.8375
50.45542	-0.5625
54.85868	0.2375
59.25871	-0.8625
63.6555	20.2375
68.04907	17.8375
72.43941	19.4375
76.82654	20.8375
81.21044	19.7375
85.59113	21.3375
89.96862	24.0375
94.34289	23.5375
98.71396	25.6375
103.08183	25.2375
107.4465	24.8375
111.80798	25.9375
116.16626	26.4375
120.52136	29.3375
124.87327	31.3375
129.222	33.1375
133.56755	38.2375
137.90993	38.4375
142.24913	41.9375
146.58517	48.3375
150.91804	59.0375
155.24774	69.4375
159.57429	86.9375
163.89768	113.4375
168.21792	151.6375
172.53501	216.0375
176.84895	297.2375
181.15975	425.8375
185.46741	604.3375
189.77193	838.3375
194.07331	1129.2375
198.37157	1456.7375
202.6667	1806.0375
206.9587	2149.7375
211.24758	2505.0375
215.53334	2859.3375
219.81599	3262.1375
224.09553	3682.7375
228.37195	4150.3375
232.64527	4678.1375
236.91549	5151.2375
241.18261	5579.8375
245.44663	5904.9375
249.70755	6187.0375
253.96539	6398.9375
258.22014	6576.4375
262.4718	6792.8375
266.72039	6937.9375
270.96589	6944.9375
275.20832	6909.6375
279.44768	6807.6375
283.68397	6692.3375
287.91719	6613.0375
292.14735	6618.5375
296.37445	6744.3375
300.59849	7022.7375
304.81948	7299.2375
309.03742	7595.8375
313.25231	7741.4375
317.46415	7626.2375
321.67296	7317.8375
325.87872	6933.6375
330.08145	6734.2375
334.28114	6722.7375
338.47781	6821.7375
342.67145	6977.6375
346.86207	7215.4375
351.04966	7538.9375
355.23424	7867.2375
359.4158	8090.1375
363.59435	8194.5375
367.76989	8194.6375
371.94243	8165.8375
376.11196	8117.5375
380.27849	8078.7375
384.44203	8058.4375
388.60257	8069.9375
392.76012	8117.8375
396.91468	8224.9375
401.06626	8341.3375
405.21485	8400.5375
409.36047	8237.6375
413.50311	7932.7375
417.64277	7619.4375
421.77947	7422.0375
425.9132	7347.5375
430.04396	7330.8375
434.17176	7388.4375
438.2966	7471.7375
442.41849	7634.7375
446.53742	7826.9375
450.6534	7994.5375
454.76644	8108.4375
458.87653	8136.9375
462.98368	8121.4375
467.08789	8060.1375
471.18916	7883.9375
475.2875	7668.3375
479.38291	7509.4375
483.4754	7405.7375
487.56496	7358.9375
491.6516	7304.4375
495.73531	7284.6375
499.81612	7319.1375
503.89401	7364.0375
507.96899	7422.6375
512.04106	7484.2375
516.11023	7553.7375
520.1765	7617.9375
524.23987	7657.7375
528.30034	7621.5375
532.35792	7602.1375
536.41261	7526.3375
540.46441	7390.7375
544.51333	7368.8375
548.55936	7403.2375
552.60252	7541.8375
556.64279	7662.1375
560.6802	7770.2375
564.71473	7867.7375
568.7464	8049.2375
572.7752	8018.2375
576.80114	7734.0375
580.82422	7549.0375
584.84444	7451.5375
588.86181	7471.8375
592.87633	7575.1375
596.888	7744.9375
600.89682	8142.8375
604.9028	9214.6375
608.90594	11514.4375
612.90624	13823.5375
616.90371	12599.1375
620.89834	9413.8375
624.89015	8142.0375
628.87913	8007.4375
632.86528	8133.9375
636.84862	8129.7375
640.82913	7889.1375
644.80683	7514.6375
648.78172	7334.4375
652.75379	7380.4375
656.72306	7656.6375
660.68952	7937.0375
664.65319	7872.8375
668.61405	7686.3375
672.57211	7701.7375
676.52738	7673.0375
680.47986	7526.7375
684.42955	7355.1375
688.37646	7322.2375
692.32058	7403.0375
696.26192	7557.8375
700.20048	7696.7375
704.13626	7693.5375
708.06928	7606.1375
711.99952	7504.7375
715.927	7536.1375
719.85171	7581.3375
723.77365	7578.1375
727.69284	7513.2375
731.60928	7418.9375
735.52295	7418.7375
739.43388	7426.1375
743.34206	7484.1375
747.24749	7510.6375
751.15017	7518.5375
755.05012	7618.1375
758.94733	7940.3375
762.8418	8800.6375
766.73354	10051.6375
770.62254	11010.0375
774.50882	11172.1375
778.39237	10646.3375
782.27321	9696.7375
786.15132	8693.8375
790.02671	8011.4375
793.89938	7708.9375
797.76935	7540.1375
801.6366	7474.9375
805.50115	7431.5375
809.36299	7400.0375
813.22213	7373.3375
817.07857	7366.6375
820.93231	7343.6375
824.78336	7401.9375
828.63172	7411.8375
832.47738	7430.4375
836.32036	7392.2375
840.16066	7378.6375
843.99827	7375.2375
847.8332	7356.3375
851.66546	7356.4375
855.49504	7341.7375
859.32195	7364.7375
863.1462	7329.6375
866.96777	7335.6375
870.78668	7336.3375
874.60293	7340.7375
878.41652	7375.1375
882.22745	7446.3375
886.03573	7466.9375
889.84136	7455.0375
893.64433	7428.1375
897.44466	7394.6375
901.24235	7385.3375
905.0374	7370.0375
908.8298	7351.0375
912.61957	7309.3375
916.40671	7328.0375
920.19121	7375.0375
923.97308	7461.8375
927.75233	7587.2375
931.52895	7607.1375
935.30295	7542.1375
939.07433	7382.4375
942.84309	7254.5375
946.60924	7212.4375
950.37278	7183.0375
954.13371	7159.6375
957.89203	7143.5375
961.64774	7119.5375
965.40086	7109.6375
969.15137	7109.1375
972.89929	7075.3375
976.64461	7090.7375
980.38733	7122.3375
984.12747	7109.3375
987.86502	7141.9375
991.59999	7212.0375
995.33237	7343.9375
999.06217	7456.8375
1002.78939	7665.0375
1006.51404	7783.4375
1010.23611	7857.3375
1013.95561	7954.2375
1017.67255	7994.9375
1021.38692	7957.3375
1025.09872	7887.2375
1028.80796	7888.8375
1032.51465	8016.1375
1036.21877	8096.6375
1039.92035	8110.0375
1043.61937	8070.5375
1047.31584	7961.6375
1051.00976	7863.2375
1054.70114	7832.1375
1058.38998	7834.8375
1062.07627	7837.5375
1065.76003	7882.2375
1069.44126	7959.6375
1073.11995	8086.5375
1076.79611	8232.6375
1080.46974	8360.6375
1084.14085	8516.7375
1087.80943	8630.0375
1091.47549	8647.1375
1095.13903	8540.9375
1098.80005	8438.8375
1102.45857	8438.0375
1106.11456	8399.8375
1109.76805	8376.6375
1113.41903	8422.6375
1117.06751	8571.0375
1120.71348	8801.8375
1124.35696	9058.3375
1127.99793	9206.7375
1131.63641	9021.0375
1135.2724	8674.9375
1138.90589	8386.8375
1142.5369	8232.2375
1146.16542	8096.8375
1149.79145	8030.3375
1153.415	7995.7375
1157.03607	7958.7375
1160.65467	8042.7375
1164.27079	8255.6375
1167.88443	8558.0375
1171.49561	9080.1375
1175.10432	9846.2375
1178.71056	10811.4375
1182.31434	11640.9375
1185.91565	11887.5375
1189.51451	11728.7375
1193.11091	11273.5375
1196.70485	10822.9375
1200.29634	10417.8375
1203.88538	9999.6375
1207.47197	9540.3375
1211.05612	9128.3375
1214.63782	8833.1375
1218.21708	8650.4375
1221.79391	8595.2375
1225.36829	8578.9375
1228.94024	8580.1375
1232.50976	8538.3375
1236.07685	8499.2375
1239.6415	8498.1375
1243.20374	8545.7375
1246.76355	8599.8375
1250.32093	8715.6375
1253.8759	8892.6375
1257.42845	9167.2375
1260.97859	9479.8375
1264.52631	9757.7375
1268.07163	9976.1375
1271.61453	10120.4375
1275.15503	10163.7375
1278.69312	10244.6375
1282.22882	10333.2375
1285.76211	10489.8375
1289.29301	10708.2375
1292.82151	10910.2375
1296.34761	11182.2375
1299.87133	11677.5375
1303.39266	12481.7375
1306.9116	13703.9375
1310.42815	14966.1375
1313.94233	15455.1375
1317.45412	14817.9375
1320.96354	13711.7375
1324.47058	12686.6375
1327.97525	11820.1375
1331.47754	11361.6375
1334.97747	11204.6375
1338.47502	11392.5375
1341.97022	11757.5375
1345.46305	12472.7375
1348.95352	13418.7375
1352.44163	14490.4375
1355.92738	15765.2375
1359.41078	17410.9375
1362.89183	18529.6375
1366.37053	17527.2375
1369.84688	14905.7375
1373.32088	12489.8375
1376.79254	11138.7375
1380.26186	10507.0375
1383.72883	10155.2375
1387.19347	9826.5375
1390.65578	9422.3375
1394.11575	9115.0375
1397.57339	8940.5375
1401.0287	8844.7375
1404.48168	8836.3375
1407.93234	8906.4375
1411.38068	9070.6375
1414.82669	9235.8375
1418.27039	9338.4375
1421.71177	9268.5375
1425.15083	9148.1375
1428.58758	9126.5375
1432.02203	9252.6375
1435.45416	9356.9375
1438.88399	9317.3375
1442.31151	9297.2375
1445.73673	9247.8375
1449.15965	9235.9375
1452.58027	9169.2375
1455.9986	9047.2375
1459.41463	8988.2375
1462.82837	9044.1375
1466.23982	9255.0375
1469.64898	9408.0375
1473.05586	9548.3375
1476.46045	9693.8375
1479.86276	9804.1375
1483.26279	9990.7375
1486.66054	10200.9375
1490.05602	10546.2375
1493.44922	11075.2375
1496.84016	11872.8375
1500.22882	13062.7375
1503.61521	14575.7375
1506.99934	16059.4375
1510.38121	16992.2375
1513.76081	16812.6375
1517.13816	15472.4375
1520.51324	13613.8375
1523.88607	12087.1375
1527.25665	11089.4375
1530.62498	10583.5375
1533.99105	10293.7375
1537.35488	10123.2375
1540.71647	9989.4375
1544.07581	9888.6375
1547.4329	9755.0375
1550.78776	9668.5375
1554.14038	9645.2375
1557.49077	9689.6375
1560.83892	9875.1375
1564.18484	10139.5375
1567.52853	10474.4375
1570.86999	10655.7375
1574.20922	10686.1375
1577.54624	10453.8375
1580.88103	9961.4375
1584.2136	9419.9375
1587.54395	9172.1375
1590.87208	9267.5375
1594.19801	9750.9375
1597.52172	10305.4375
1600.84321	10523.9375
1604.16251	10343.8375
1607.47959	9984.8375
1610.79447	9542.3375
1614.10715	8970.5375
1617.41763	8462.4375
1620.7259	8156.8375
1624.03199	7985.3375
1627.33587	7991.5375
1630.63757	8180.9375
1633.93707	8571.6375
1637.23439	9225.7375
1640.52951	10172.3375
1643.82246	11450.4375
1647.11321	12724.0375
1650.40179	13207.4375
1653.68819	12429.5375
1656.97241	10803.3375
1660.25446	9255.2375
1663.53433	8195.0375
1666.81203	7602.1375
1670.08756	7226.9375
1673.36092	7011.1375
1676.63211	6843.6375
1679.90115	6757.1375
1683.16801	6681.0375
1686.43272	6646.0375
1689.69527	6590.8375
1692.95567	6542.5375
1696.2139	6513.3375
1699.46999	6496.6375
1702.72392	6487.1375
1705.97571	6492.2375
1709.22535	6491.6375
1712.47284	6493.6375
1715.71819	6515.2375
1718.96139	6476.8375
1722.20246	6460.3375
1725.44139	6428.8375
1728.67818	6392.5375
1731.91284	6338.0375
1735.14537	6314.8375
1738.37576	6284.6375
1741.60403	6265.9375
1744.83017	6262.3375
1748.05418	6244.8375
1751.27607	6218.3375
1754.49584	6193.6375
1757.71349	6201.5375
1760.92903	6169.2375
1764.14244	6170.5375
1767.35375	6164.7375
1770.56294	6153.7375
1773.77002	6147.0375
1776.97499	6098.0375
1780.17785	6097.0375
1783.37861	6059.2375
1786.57727	6059.9375
1789.77382	6047.9375
1792.96828	6034.5375
1796.16064	6023.5375
1799.3509	6008.2375
1802.53907	6024.3375
1805.72514	5992.8375
1808.90913	5972.6375
1812.09102	5941.1375
1815.27083	5943.3375
1818.44856	5925.8375
1821.6242	5906.7375
1824.79776	5892.0375
1827.96924	5875.9375
1831.13864	5850.7375
1834.30597	5852.9375
1837.47122	5856.7375
1840.6344	5851.3375
1843.7955	5825.7375
1846.95454	5827.1375
1850.11151	5843.3375
1853.26642	5822.6375
1856.41926	5825.0375
1859.57004	5830.3375
1862.71876	5799.7375
1865.86542	5793.4375
1869.01003	5807.6375
1872.15258	5788.6375
1875.29308	5801.2375
1878.43152	5787.4375
1881.56792	5770.8375
1884.70227	5767.5375
1887.83457	5754.8375
1890.96482	5752.4375
1894.09304	5737.1375
1897.21921	5737.7375
1900.34335	5703.3375
1903.46544	5696.1375
1906.58551	5687.9375
1909.70353	5676.9375
1912.81953	5689.2375
1915.93349	5677.6375
1919.04543	5667.1375
1922.15534	5656.2375
1925.26322	5629.5375
1928.36908	5635.1375
1931.47292	5611.6375
1934.57473	5622.7375
1937.67453	5581.5375
1940.77232	5565.1375
1943.86808	5556.5375
1946.96184	5541.7375
1950.05358	5531.6375
1953.14331	5506.3375
1956.23103	5501.1375
1959.31675	5465.8375
1962.40046	5459.3375
1965.48217	5430.1375
1968.56188	5449.6375
1971.63959	5408.4375
1974.7153	5391.8375
1977.78901	5382.3375
1980.86073	5367.5375
1983.93046	5344.9375
1986.99819	5336.8375
1990.06394	5319.8375
1993.1277	5292.5375
1996.18947	5256.1375
1999.24925	5249.1375
2002.30706	5241.8375
2005.36288	5213.0375
2008.41672	5189.5375
2011.46859	5178.3375
2014.51848	5166.8375
2017.56639	5164.4375
2020.61233	5141.5375
2023.6563	5107.0375
2026.6983	5098.0375
2029.73833	5073.4375
2032.7764	5063.9375
2035.8125	5062.7375
2038.84664	5054.7375
2041.87881	5036.9375
2044.90903	5027.9375
2047.93729	5016.1375
2050.96359	5005.8375
2053.98794	5002.8375
2057.01034	4996.2375
2060.03078	4998.5375
2063.04927	4992.9375
2066.06582	4984.7375
2069.08042	4970.7375
2072.09307	4951.1375
2075.10378	4958.2375
2078.11255	4957.5375
2081.11938	4960.3375
2084.12426	4952.7375
2087.12722	4949.5375
2090.12824	4956.4375
2093.12732	4952.2375
2096.12447	4935.4375
2099.11969	4946.7375
2102.11299	4964.0375
2105.10435	4950.8375
2108.09379	4938.8375
2111.08131	4953.6375
2114.0669	4941.0375
2117.05057	4932.0375
2120.03233	4946.9375
2123.01216	4947.0375
2125.99008	4962.6375
2128.96609	4980.0375
2131.94018	4953.7375
2134.91236	4951.2375
2137.88263	4952.3375
2140.851	4955.3375
2143.81746	4943.7375
2146.78201	4941.9375
2149.74466	4954.8375
2152.7054	4951.9375
2155.66425	4928.1375
2158.6212	4931.9375
2161.57625	4939.4375
2164.52941	4932.3375
2167.48067	4926.0375
2170.43004	4945.0375
2173.37752	4913.7375
2176.32311	4931.2375
2179.26681	4921.7375
2182.20863	4916.8375
2185.14856	4923.6375
2188.08661	4912.8375
2191.02278	4899.8375
2193.95707	4902.1375
2196.88948	4885.5375
2199.82001	4910.1375
2202.74867	4890.6375
2205.67545	4892.6375
2208.60037	4905.2375
2211.52341	4892.3375
2214.44458	4879.2375
2217.36388	4866.5375
2220.28132	4848.8375
2223.1969	4825.2375
2226.11061	4819.2375
2229.02246	4799.2375
2231.93245	4818.2375
2234.84058	4777.3375
2237.74686	4786.6375
2240.65128	4782.1375
2243.55385	4765.6375
2246.45456	4759.8375
2249.35343	4761.0375
2252.25044	4762.3375
2255.14561	4744.3375
2258.03893	4750.9375
2260.93041	4758.6375
2263.82004	4726.5375
2266.70783	4729.6375
2269.59378	4713.3375
2272.4779	4690.0375
2275.36017	4665.7375
2278.24061	4662.5375
2281.11922	4666.1375
2283.996	4650.7375
2286.87094	4645.9375
2289.74405	4638.2375
2292.61534	4618.3375
2295.4848	4621.8375
2298.35243	4625.7375
2301.21824	4604.1375
2304.08223	4606.9375
2306.94439	4613.8375
2309.80474	4603.5375
2312.66327	4601.3375
2315.51999	4606.4375
2318.37489	4608.5375
2321.22797	4591.3375
2324.07925	4576.7375
2326.92871	4560.1375
2329.77637	4573.6375
2332.62222	4543.8375
2335.46626	4541.9375
2338.3085	4542.6375
2341.14893	4540.1375
2343.98756	4559.8375
2346.8244	4542.1375
2349.65943	4540.5375
2352.49267	4537.0375
2355.32411	4539.7375
2358.15376	4534.2375
2360.98161	4536.3375
2363.80768	4544.0375
2366.63195	4516.3375
2369.45444	4512.9375
2372.27514	4502.7375
2375.09405	4520.6375
2377.91118	4509.8375
2380.72652	4475.8375
2383.54009	4469.5375
2386.35187	4464.9375
2389.16188	4447.1375
2391.97011	4434.7375
2394.77657	4435.1375
2397.58125	4404.4375
2400.38416	4405.6375
2403.18529	4399.6375
2405.98466	4388.1375
2408.78226	4392.1375
2411.57809	4374.1375
2414.37216	4342.4375
2417.16446	4353.3375
2419.955	4364.2375
2422.74378	4362.1375
2425.5308	4339.9375
2428.31606	4335.2375
2431.09956	4342.2375
2433.88131	4315.1375
2436.6613	4337.8375
2439.43954	4323.9375
2442.21603	4323.4375
2444.99077	4321.1375
2447.76377	4316.3375
2450.53501	4307.7375
2453.30451	4313.6375
2456.07226	4319.5375
2458.83827	4310.0375
2461.60254	4302.9375
2464.36507	4302.4375
2467.12586	4293.8375
2469.88492	4288.1375
2472.64224	4280.6375
2475.39782	4276.3375
2478.15167	4286.7375
2480.90379	4275.1375
2483.65417	4287.9375
2486.40283	4281.8375
2489.14976	4287.3375
2491.89497	4291.8375
2494.63845	4293.8375
2497.3802	4280.5375
2500.12024	4269.5375
2502.85855	4260.6375
2505.59514	4266.8375
2508.33002	4252.4375
2511.06318	4244.9375
2513.79462	4227.8375
2516.52435	4213.3375
2519.25237	4205.7375
2521.97867	4198.2375
2524.70327	4201.8375
2527.42616	4188.5375
2530.14734	4183.3375
2532.86681	4190.5375
2535.58458	4207.0375
2538.30065	4182.8375
2541.01501	4179.4375
2543.72768	4170.9375
2546.43864	4161.9375
2549.14791	4165.6375
2551.85548	4162.2375
2554.56136	4162.0375
2557.26554	4136.4375
2559.96803	4141.6375
2562.66883	4127.1375
2565.36794	4131.5375
2568.06536	4108.6375
2570.7611	4096.1375
2573.45514	4091.8375
2576.14751	4091.3375
2578.83819	4079.8375
2581.52719	4055.4375
2584.21451	4070.6375
2586.90015	4064.8375
2589.58411	4067.8375
2592.2664	4056.3375
2594.94701	4042.2375
2597.62594	4031.4375
2600.30321	4044.9375
2602.9788	4040.3375
2605.65273	4035.7375
2608.32498	4036.6375
2610.99557	4034.3375
2613.66449	4019.8375
2616.33175	4014.5375
2618.99734	4024.5375
2621.66128	4014.4375
2624.32355	4000.5375
2626.98416	3994.2375
2629.64311	3993.8375
2632.30041	3997.3375
2634.95605	3978.0375
2637.61004	3955.9375
2640.26238	3961.2375
2642.91306	3943.8375
2645.56209	3960.5375
2648.20948	3960.6375
2650.85521	3950.7375
2653.4993	3942.8375
2656.14175	3942.6375
2658.78255	3938.0375
2661.42171	3935.4375
2664.05923	3955.2375
2666.6951	3949.3375
2669.32934	3941.6375
2671.96194	3929.8375
2674.59291	3936.6375
2677.22224	3948.2375
2679.84993	3938.9375
2682.476	3921.6375
2685.10043	3936.4375
2687.72324	3926.7375
2690.34441	3937.2375
2692.96396	3908.3375
2695.58188	3906.5375
2698.19818	3915.3375
2700.81285	3913.1375
2703.4259	3921.4375
2706.03733	3917.7375
2708.64714	3922.6375
2711.25533	3911.3375
2713.86191	3904.3375
2716.46687	3910.1375
2719.07021	3894.9375
2721.67194	3903.6375
2724.27206	3907.2375
2726.87057	3908.3375
2729.46747	3892.4375
2732.06276	3910.6375
2734.65644	3891.6375
2737.24852	3890.8375
2739.83899	3882.3375
2742.42786	3867.1375
2745.01513	3859.6375
2747.60079	3862.3375
2750.18486	3858.6375
2752.76733	3858.4375
2755.3482	3843.9375
2757.92747	3852.4375
2760.50515	3839.5375
2763.08123	3828.1375
2765.65573	3821.1375
2768.22863	3806.4375
2770.79994	3797.0375
2773.36967	3806.5375
2775.9378	3800.8375
2778.50435	3804.6375
2781.06932	3798.9375
2783.6327	3813.6375
2786.1945	3802.3375
2788.75471	3797.8375
2791.31335	3777.0375
2793.87041	3768.3375
2796.42589	3769.9375
2798.97979	3770.9375
2801.53212	3756.6375
2804.08288	3755.6375
2806.63206	3760.9375
2809.17967	3752.1375
2811.72571	3722.3375
2814.27018	3717.6375
2816.81308	3729.0375
2819.35442	3703.3375
2821.89419	3699.2375
2824.43239	3686.0375
2826.96904	3690.5375
2829.50412	3693.1375
2832.03763	3669.4375
2834.56959	3663.3375
2837.1	3671.5375
2839.62884	3658.5375
2842.15613	3655.4375
2844.68186	3650.5375
2847.20604	3654.2375
2849.72867	3648.0375
2852.24974	3641.3375
2854.76927	3633.8375
2857.28724	3613.9375
2859.80367	3622.5375
2862.31855	3627.2375
2864.83189	3618.8375
2867.34368	3617.5375
2869.85393	3604.2375
2872.36264	3601.2375
2874.8698	3608.2375
2877.37543	3605.6375
2879.87952	3607.9375
2882.38207	3591.5375
2884.88308	3577.9375
2887.38256	3575.6375
2889.88051	3573.8375
2892.37692	3574.5375
2894.8718	3569.6375
2897.36515	3560.4375
2899.85698	3568.6375
2902.34727	3568.4375
2904.83604	3557.0375
2907.32328	3573.1375
2909.809	3584.3375
2912.29319	3590.8375
2914.77587	3590.9375
2917.25702	3586.0375
2919.73665	3576.8375
2922.21476	3582.5375
2924.69136	3583.5375
2927.16644	3577.4375
2929.64	3552.0375
2932.11205	3546.2375
2934.58258	3533.5375
2937.05161	3548.2375
2939.51912	3541.9375
2941.98513	3524.1375
2944.44962	3522.8375
2946.91261	3521.9375
2949.37409	3526.6375
2951.83407	3512.6375
2954.29254	3537.6375
2956.74951	3529.4375
2959.20498	3521.8375
2961.65895	3512.0375
2964.11142	3500.8375
2966.56239	3486.8375
2969.01186	3495.1375
2971.45984	3494.4375
2973.90632	3482.9375
2976.35131	3482.0375
2978.7948	3483.3375
2981.23681	3476.2375
2983.67732	3461.5375
2986.11635	3457.4375
2988.55388	3441.3375
2990.98993	3426.6375
2993.4245	3432.4375
2995.85758	3417.4375
2998.28917	3415.3375
3000.71928	3407.6375
3003.14791	3406.4375
3005.57506	3383.3375
3008.00073	3373.7375
3010.42493	3360.0375
3012.84764	3364.9375
3015.26888	3368.3375
3017.68865	3357.7375
3020.10694	3344.1375
3022.52376	3338.1375
3024.9391	3320.9375
3027.35298	3312.7375
3029.76539	3309.4375
3032.17632	3305.1375
3034.5858	3290.0375
3036.9938	3296.8375
3039.40034	3286.2375
3041.80542	3274.3375
3044.20903	3272.7375
3046.61118	3249.3375
3049.01187	3255.2375
3051.4111	3246.0375
3053.80888	3244.6375
3056.20519	3230.8375
3058.60005	3227.6375
3060.99345	3221.1375
3063.3854	3217.2375
3065.7759	3195.5375
3068.16494	3198.6375
3070.55254	3172.4375
3072.93868	3166.5375
3075.32338	3160.3375
3077.70662	3154.3375
3080.08842	3150.0375
3082.46878	3143.7375
3084.84769	3134.1375
3087.22515	3141.4375
3089.60118	3141.8375
3091.97576	3130.8375
3094.3489	3124.4375
3096.72061	3122.6375
3099.09087	3135.6375
3101.4597	3116.1375
3103.82709	3114.1375
3106.19305	3107.3375
3108.55757	3113.1375
3110.92066	3090.3375
3113.28232	3086.1375
3115.64255	3079.3375
3118.00134	3075.9375
3120.35871	3069.8375
3122.71466	3066.2375
3125.06917	3057.6375
3127.42226	3030.3375
3129.77393	3041.5375
3132.12417	3048.9375
3134.47299	3034.5375
3136.82039	3034.4375
3139.16636	3031.5375
3141.51092	3025.3375
3143.85406	3034.1375
3146.19579	3015.2375
3148.53609	3026.1375
3150.87499	3027.2375
3153.21246	3027.0375
3155.54853	3030.3375
3157.88318	3022.1375
3160.21642	3031.1375
3162.54826	3019.3375
3164.87868	3017.6375
3167.2077	3001.9375
3169.5353	2983.6375
3171.86151	2990.9375
3174.18631	3000.8375
3176.5097	2989.8375
3178.83169	2984.6375
3181.15228	2990.4375
3183.47147	2970.1375
3185.78926	2982.7375
3188.10565	2953.9375
3190.42065	2953.7375
3192.73424	2949.5375
3195.04645	2936.8375
3197.35725	2933.2375
3199.66667	2942.9375
3201.97469	2934.7375
3204.28132	2940.5375
3206.58656	2944.6375
3208.8904	2932.1375
3211.19287	2938.9375
3213.49394	2930.6375
3215.79363	2937.7375
3218.09193	2940.1375
3220.38884	2925.7375
3222.68438	2934.1375
3224.97853	2931.4375
3227.2713	2914.9375
3229.56269	2921.9375
3231.8527	2903.5375
3234.14133	2909.3375
3236.42858	2904.6375
3238.71446	2888.0375
3240.99896	2886.1375
3243.28209	2879.6375
3245.56384	2872.8375
3247.84423	2879.9375
3250.12324	2868.9375
3252.40088	2865.0375
3254.67715	2865.8375
3256.95205	2854.7375
3259.22558	2863.8375
3261.49775	2858.3375
3263.76855	2852.9375
3266.03799	2850.0375
3268.30606	2836.8375
3270.57277	2847.3375
3272.83812	2827.3375
3275.10211	2824.8375
3277.36474	2813.4375
3279.62601	2812.9375
3281.88593	2796.6375
3284.14448	2810.8375
3286.40168	2810.5375
3288.65753	2807.4375
3290.91202	2806.1375
3293.16516	2803.5375
3295.41695	2795.6375
3297.66738	2780.7375
3299.91647	2774.2375
3302.16421	2742.7375
3304.4106	2741.8375
3306.65564	2717.1375
3308.89933	2702.7375
3311.14169	2684.8375
3313.38269	2664.3375
3315.62236	2643.1375
3317.86068	2623.8375
3320.09766	2595.9375
3322.3333	2580.1375
3324.5676	2557.8375
3326.80056	2519.4375
3329.03219	2505.8375
3331.26248	0.6375
3333.49143	0.0375
3335.71905	-0.8625
