Data from AgNPs_UA_10uM_CRN_500uM_SU_RamanShift__156__13-31-20-285.txt Node

Date: Thu Aug 04 13:31:20 BST 2022
User: TCL
Spectrometer: QEP01345
Trigger mode: 4
Integration Time (sec): 1.000000E0
Scans to average: 10
Electric dark correction enabled: true
Nonlinearity correction enabled: false
Boxcar width: 0
XAxis mode: Raman Shifts
Number of Pixels in Spectrum: 1044
>>>>>Begin Spectral Data<<<<<
46.04893	0.1875
50.45542	0.0875
54.85868	0.9875
59.25871	-0.1125
63.6555	14.0875
68.04907	12.9875
72.43941	14.3875
76.82654	14.6875
81.21044	15.8875
85.59113	16.7875
89.96862	17.2875
94.34289	20.4875
98.71396	19.3875
103.08183	18.1875
107.4465	18.7875
111.80798	18.4875
116.16626	19.6875
120.52136	22.8875
124.87327	23.5875
129.222	24.6875
133.56755	25.5875
137.90993	27.5875
142.24913	28.6875
146.58517	35.0875
150.91804	38.1875
155.24774	49.8875
159.57429	60.0875
163.89768	76.8875
168.21792	103.0875
172.53501	136.8875
176.84895	194.2875
181.15975	276.1875
185.46741	381.8875
189.77193	527.7875
194.07331	709.9875
198.37157	909.6875
202.6667	1120.3875
206.9587	1333.8875
211.24758	1546.9875
215.53334	1754.8875
219.81599	1979.0875
224.09553	2220.9875
228.37195	2498.7875
232.64527	2810.1875
236.91549	3112.9875
241.18261	3413.4875
245.44663	3667.4875
249.70755	3879.4875
253.96539	4066.1875
258.22014	4242.2875
262.4718	4400.3875
266.72039	4483.9875
270.96589	4541.0875
275.20832	4518.1875
279.44768	4493.7875
283.68397	4430.8875
287.91719	4362.9875
292.14735	4360.4875
296.37445	4407.5875
300.59849	4494.6875
304.81948	4585.6875
309.03742	4666.7875
313.25231	4694.9875
317.46415	4636.8875
321.67296	4516.1875
325.87872	4422.6875
330.08145	4369.5875
334.28114	4395.4875
338.47781	4450.4875
342.67145	4523.8875
346.86207	4647.1875
351.04966	4799.0875
355.23424	4936.3875
359.4158	5070.1875
363.59435	5153.2875
367.76989	5205.4875
371.94243	5262.7875
376.11196	5278.1875
380.27849	5317.3875
384.44203	5355.5875
388.60257	5379.4875
392.76012	5418.2875
396.91468	5481.4875
401.06626	5614.7875
405.21485	5668.9875
409.36047	5652.9875
413.50311	5526.3875
417.64277	5401.1875
421.77947	5352.3875
425.9132	5340.0875
430.04396	5407.7875
434.17176	5513.3875
438.2966	5701.6875
442.41849	5923.5875
446.53742	6214.6875
450.6534	6483.7875
454.76644	6639.0875
458.87653	6617.6875
462.98368	6457.0875
467.08789	6208.4875
471.18916	5971.7875
475.2875	5745.9875
479.38291	5580.6875
483.4754	5438.1875
487.56496	5348.5875
491.6516	5286.0875
495.73531	5253.9875
499.81612	5278.8875
503.89401	5311.7875
507.96899	5330.3875
512.04106	5359.6875
516.11023	5392.2875
520.1765	5452.2875
524.23987	5478.4875
528.30034	5511.9875
532.35792	5510.5875
536.41261	5429.3875
540.46441	5349.5875
544.51333	5332.7875
548.55936	5375.8875
552.60252	5472.6875
556.64279	5543.1875
560.6802	5550.7875
564.71473	5516.7875
568.7464	5519.7875
572.7752	5549.1875
576.80114	5507.4875
580.82422	5529.6875
584.84444	5656.1875
588.86181	5909.6875
592.87633	6140.6875
596.888	6307.8875
600.89682	6476.3875
604.9028	6999.8875
608.90594	8047.6875
612.90624	8877.4875
616.90371	8092.6875
620.89834	6579.1875
624.89015	6037.8875
628.87913	5937.3875
632.86528	5863.0875
636.84862	5766.0875
640.82913	5611.6875
644.80683	5451.6875
648.78172	5360.1875
652.75379	5392.1875
656.72306	5562.3875
660.68952	5735.1875
664.65319	5680.5875
668.61405	5615.1875
672.57211	5613.5875
676.52738	5614.7875
680.47986	5527.9875
684.42955	5449.6875
688.37646	5456.4875
692.32058	5510.5875
696.26192	5620.3875
700.20048	5702.6875
704.13626	5710.1875
708.06928	5617.9875
711.99952	5550.3875
715.927	5563.8875
719.85171	5584.7875
723.77365	5586.0875
727.69284	5495.6875
731.60928	5500.4875
735.52295	5513.3875
739.43388	5577.5875
743.34206	5623.7875
747.24749	5654.7875
751.15017	5681.9875
755.05012	5753.1875
758.94733	5948.3875
762.8418	6319.1875
766.73354	6882.3875
770.62254	7396.6875
774.50882	7604.7875
778.39237	7328.5875
782.27321	6746.8875
786.15132	6199.8875
790.02671	5869.3875
793.89938	5715.0875
797.76935	5645.8875
801.6366	5611.2875
805.50115	5575.0875
809.36299	5543.3875
813.22213	5538.8875
817.07857	5531.8875
820.93231	5527.5875
824.78336	5526.8875
828.63172	5532.7875
832.47738	5553.8875
836.32036	5561.6875
840.16066	5580.3875
843.99827	5593.8875
847.8332	5582.3875
851.66546	5544.1875
855.49504	5560.0875
859.32195	5571.7875
863.1462	5543.4875
866.96777	5547.4875
870.78668	5540.2875
874.60293	5554.3875
878.41652	5565.2875
882.22745	5611.9875
886.03573	5630.7875
889.84136	5633.0875
893.64433	5591.9875
897.44466	5582.5875
901.24235	5558.6875
905.0374	5560.4875
908.8298	5531.6875
912.61957	5546.0875
916.40671	5586.2875
920.19121	5632.8875
923.97308	5678.2875
927.75233	5740.5875
931.52895	5756.7875
935.30295	5689.2875
939.07433	5597.2875
942.84309	5543.2875
946.60924	5524.3875
950.37278	5516.3875
954.13371	5472.0875
957.89203	5434.1875
961.64774	5433.8875
965.40086	5409.9875
969.15137	5398.4875
972.89929	5414.6875
976.64461	5399.8875
980.38733	5442.7875
984.12747	5465.2875
987.86502	5520.8875
991.59999	5587.2875
995.33237	5716.4875
999.06217	5930.9875
1002.78939	6150.3875
1006.51404	6260.1875
1010.23611	6339.2875
1013.95561	6469.7875
1017.67255	6524.3875
1021.38692	6448.7875
1025.09872	6370.4875
1028.80796	6389.7875
1032.51465	6493.7875
1036.21877	6586.0875
1039.92035	6567.6875
1043.61937	6479.3875
1047.31584	6341.5875
1051.00976	6203.9875
1054.70114	6158.5875
1058.38998	6159.4875
1062.07627	6174.9875
1065.76003	6203.7875
1069.44126	6236.4875
1073.11995	6318.4875
1076.79611	6382.1875
1080.46974	6426.0875
1084.14085	6493.9875
1087.80943	6552.6875
1091.47549	6550.8875
1095.13903	6458.8875
1098.80005	6339.8875
1102.45857	6274.2875
1106.11456	6275.7875
1109.76805	6278.1875
1113.41903	6363.6875
1117.06751	6479.0875
1120.71348	6602.6875
1124.35696	6741.0875
1127.99793	6804.7875
1131.63641	6735.1875
1135.2724	6578.1875
1138.90589	6480.5875
1142.5369	6369.4875
1146.16542	6298.5875
1149.79145	6245.7875
1153.415	6249.4875
1157.03607	6299.1875
1160.65467	6406.0875
1164.27079	6594.6875
1167.88443	6861.8875
1171.49561	7267.3875
1175.10432	7871.6875
1178.71056	8656.7875
1182.31434	9405.5875
1185.91565	9917.5875
1189.51451	10047.5875
1193.11091	9779.0875
1196.70485	9236.3875
1200.29634	8664.6875
1203.88538	8150.1875
1207.47197	7732.8875
1211.05612	7439.7875
1214.63782	7285.3875
1218.21708	7282.8875
1221.79391	7312.1875
1225.36829	7360.0875
1228.94024	7356.1875
1232.50976	7342.9875
1236.07685	7361.3875
1239.6415	7430.8875
1243.20374	7477.2875
1246.76355	7494.6875
1250.32093	7579.5875
1253.8759	7753.0875
1257.42845	7988.7875
1260.97859	8243.6875
1264.52631	8456.6875
1268.07163	8655.1875
1271.61453	8748.4875
1275.15503	8848.7875
1278.69312	8965.2875
1282.22882	9163.4875
1285.76211	9438.4875
1289.29301	9680.7875
1292.82151	9946.4875
1296.34761	10187.1875
1299.87133	10490.1875
1303.39266	11009.1875
1306.9116	11705.2875
1310.42815	12399.5875
1313.94233	12713.5875
1317.45412	12559.5875
1320.96354	12122.2875
1324.47058	11684.0875
1327.97525	11480.3875
1331.47754	11547.3875
1334.97747	11815.3875
1338.47502	12072.2875
1341.97022	12200.7875
1345.46305	12360.6875
1348.95352	12670.4875
1352.44163	13122.5875
1355.92738	13718.4875
1359.41078	14363.4875
1362.89183	14575.4875
1366.37053	13770.2875
1369.84688	12333.6875
1373.32088	11013.8875
1376.79254	10214.6875
1380.26186	9849.6875
1383.72883	9605.9875
1387.19347	9311.0875
1390.65578	8938.2875
1394.11575	8620.3875
1397.57339	8471.8875
1401.0287	8554.3875
1404.48168	8766.2875
1407.93234	9096.5875
1411.38068	9349.4875
1414.82669	9409.5875
1418.27039	9237.3875
1421.71177	9079.6875
1425.15083	9021.4875
1428.58758	9161.5875
1432.02203	9404.1875
1435.45416	9557.7875
1438.88399	9552.9875
1442.31151	9475.1875
1445.73673	9357.5875
1449.15965	9268.6875
1452.58027	9114.2875
1455.9986	8960.4875
1459.41463	8923.7875
1462.82837	9006.6875
1466.23982	9204.4875
1469.64898	9447.1875
1473.05586	9653.0875
1476.46045	9792.1875
1479.86276	9918.8875
1483.26279	9950.4875
1486.66054	10016.1875
1490.05602	10132.8875
1493.44922	10318.4875
1496.84016	10588.1875
1500.22882	10988.1875
1503.61521	11511.7875
1506.99934	12002.1875
1510.38121	12167.4875
1513.76081	11879.8875
1517.13816	11156.6875
1520.51324	10432.5875
1523.88607	9995.5875
1527.25665	9799.0875
1530.62498	9793.7875
1533.99105	9879.9875
1537.35488	9922.4875
1540.71647	9949.2875
1544.07581	9828.6875
1547.4329	9669.2875
1550.78776	9385.8875
1554.14038	9081.1875
1557.49077	8871.8875
1560.83892	8796.6875
1564.18484	8793.4875
1567.52853	8857.2875
1570.86999	8920.9875
1574.20922	8924.3875
1577.54624	8843.3875
1580.88103	8586.8875
1584.2136	8403.6875
1587.54395	8478.3875
1590.87208	8891.5875
1594.19801	9681.7875
1597.52172	10670.6875
1600.84321	11311.9875
1604.16251	11300.9875
1607.47959	10638.3875
1610.79447	9665.3875
1614.10715	8746.1875
1617.41763	8025.8875
1620.7259	7585.4875
1624.03199	7357.1875
1627.33587	7369.2875
1630.63757	7557.6875
1633.93707	8005.9875
1637.23439	8721.8875
1640.52951	9675.8875
1643.82246	10667.3875
1647.11321	11232.8875
1650.40179	10992.5875
1653.68819	9936.3875
1656.97241	8636.2875
1660.25446	7540.9875
1663.53433	6845.7875
1666.81203	6413.6875
1670.08756	6157.5875
1673.36092	6013.6875
1676.63211	5881.7875
1679.90115	5781.7875
1683.16801	5708.0875
1686.43272	5636.5875
1689.69527	5602.3875
1692.95567	5592.6875
1696.2139	5564.7875
1699.46999	5541.6875
1702.72392	5535.9875
1705.97571	5535.3875
1709.22535	5518.1875
1712.47284	5524.6875
1715.71819	5542.7875
1718.96139	5522.9875
1722.20246	5496.7875
1725.44139	5488.7875
1728.67818	5461.1875
1731.91284	5419.4875
1735.14537	5391.2875
1738.37576	5385.0875
1741.60403	5364.6875
1744.83017	5344.5875
1748.05418	5328.4875
1751.27607	5323.2875
1754.49584	5316.2875
1757.71349	5321.9875
1760.92903	5316.6875
1764.14244	5288.8875
1767.35375	5287.1875
1770.56294	5294.1875
1773.77002	5284.8875
1776.97499	5268.1875
1780.17785	5250.3875
1783.37861	5255.5875
1786.57727	5241.5875
1789.77382	5248.6875
1792.96828	5224.4875
1796.16064	5232.5875
1799.3509	5214.2875
1802.53907	5221.0875
1805.72514	5208.8875
1808.90913	5193.9875
1812.09102	5181.1875
1815.27083	5169.4875
1818.44856	5153.2875
1821.6242	5151.4875
1824.79776	5128.2875
1827.96924	5138.4875
1831.13864	5121.5875
1834.30597	5125.7875
1837.47122	5120.6875
1840.6344	5101.0875
1843.7955	5106.7875
1846.95454	5125.0875
1850.11151	5120.7875
1853.26642	5113.3875
1856.41926	5115.0875
1859.57004	5117.3875
1862.71876	5120.8875
1865.86542	5114.8875
1869.01003	5109.8875
1872.15258	5093.2875
1875.29308	5097.4875
1878.43152	5095.1875
1881.56792	5104.0875
1884.70227	5084.9875
1887.83457	5077.7875
1890.96482	5078.1875
1894.09304	5059.9875
1897.21921	5055.5875
1900.34335	5044.3875
1903.46544	5052.7875
1906.58551	5049.9875
1909.70353	5052.4875
1912.81953	5056.3875
1915.93349	5051.3875
1919.04543	5036.7875
1922.15534	5028.7875
1925.26322	5030.3875
1928.36908	5034.6875
1931.47292	5002.7875
1934.57473	5005.7875
1937.67453	4998.3875
1940.77232	4993.4875
1943.86808	4981.3875
1946.96184	4969.4875
1950.05358	4961.7875
1953.14331	4948.8875
1956.23103	4930.5875
1959.31675	4897.5875
1962.40046	4892.8875
1965.48217	4884.2875
1968.56188	4859.4875
1971.63959	4816.7875
1974.7153	4842.2875
1977.78901	4844.3875
1980.86073	4829.2875
1983.93046	4785.1875
1986.99819	4792.0875
1990.06394	4760.2875
1993.1277	4754.5875
1996.18947	4733.3875
1999.24925	4719.1875
2002.30706	4715.2875
2005.36288	4705.4875
2008.41672	4679.9875
2011.46859	4681.7875
2014.51848	4661.2875
2017.56639	4645.7875
2020.61233	4640.2875
2023.6563	4641.8875
2026.6983	4617.4875
2029.73833	4596.6875
2032.7764	4599.0875
2035.8125	4588.5875
2038.84664	4593.3875
2041.87881	4574.3875
2044.90903	4568.5875
2047.93729	4567.2875
2050.96359	4552.9875
2053.98794	4534.3875
2057.01034	4544.5875
2060.03078	4531.0875
2063.04927	4532.0875
2066.06582	4525.4875
2069.08042	4524.5875
2072.09307	4520.4875
2075.10378	4513.0875
2078.11255	4509.0875
2081.11938	4500.9875
2084.12426	4496.4875
2087.12722	4477.3875
2090.12824	4504.5875
2093.12732	4487.6875
2096.12447	4497.9875
2099.11969	4499.6875
2102.11299	4506.5875
2105.10435	4503.3875
2108.09379	4487.4875
2111.08131	4496.4875
2114.0669	4499.2875
2117.05057	4494.2875
2120.03233	4520.7875
2123.01216	4510.9875
2125.99008	4497.8875
2128.96609	4505.2875
2131.94018	4517.0875
2134.91236	4492.5875
2137.88263	4503.2875
2140.851	4511.1875
2143.81746	4512.7875
2146.78201	4508.5875
2149.74466	4502.6875
2152.7054	4505.0875
2155.66425	4504.4875
2158.6212	4511.7875
2161.57625	4486.9875
2164.52941	4488.1875
2167.48067	4484.1875
2170.43004	4472.6875
2173.37752	4460.7875
2176.32311	4487.1875
2179.26681	4503.4875
2182.20863	4487.3875
2185.14856	4508.0875
2188.08661	4495.0875
2191.02278	4491.1875
2193.95707	4507.4875
2196.88948	4487.6875
2199.82001	4492.1875
2202.74867	4493.0875
2205.67545	4486.4875
2208.60037	4497.4875
2211.52341	4477.9875
2214.44458	4451.2875
2217.36388	4455.0875
2220.28132	4433.6875
2223.1969	4444.7875
2226.11061	4422.4875
2229.02246	4434.7875
2231.93245	4423.4875
2234.84058	4403.6875
2237.74686	4404.8875
2240.65128	4388.7875
2243.55385	4383.1875
2246.45456	4380.9875
2249.35343	4363.9875
2252.25044	4374.2875
2255.14561	4367.8875
2258.03893	4372.6875
2260.93041	4349.2875
2263.82004	4357.4875
2266.70783	4340.5875
2269.59378	4331.7875
2272.4779	4316.3875
2275.36017	4282.1875
2278.24061	4294.0875
2281.11922	4269.0875
2283.996	4268.8875
2286.87094	4271.7875
2289.74405	4257.9875
2292.61534	4258.4875
2295.4848	4247.1875
2298.35243	4236.9875
2301.21824	4232.3875
2304.08223	4228.7875
2306.94439	4248.5875
2309.80474	4260.6875
2312.66327	4257.5875
2315.51999	4240.1875
2318.37489	4250.3875
2321.22797	4230.7875
2324.07925	4232.1875
2326.92871	4229.2875
2329.77637	4226.8875
2332.62222	4217.6875
2335.46626	4212.2875
2338.3085	4219.5875
2341.14893	4217.4875
2343.98756	4234.5875
2346.8244	4222.5875
2349.65943	4225.8875
2352.49267	4202.9875
2355.32411	4204.9875
2358.15376	4213.1875
2360.98161	4185.4875
2363.80768	4209.3875
2366.63195	4206.8875
2369.45444	4189.6875
2372.27514	4202.9875
2375.09405	4176.9875
2377.91118	4163.0875
2380.72652	4156.7875
2383.54009	4140.9875
2386.35187	4133.4875
2389.16188	4131.3875
2391.97011	4125.4875
2394.77657	4098.6875
2397.58125	4105.9875
2400.38416	4093.8875
2403.18529	4090.0875
2405.98466	4089.8875
2408.78226	4074.2875
2411.57809	4066.4875
2414.37216	4053.4875
2417.16446	4056.3875
2419.955	4058.5875
2422.74378	4050.7875
2425.5308	4046.9875
2428.31606	4056.3875
2431.09956	4048.6875
2433.88131	4024.1875
2436.6613	4029.7875
2439.43954	4029.7875
2442.21603	4031.3875
2444.99077	4019.2875
2447.76377	4028.5875
2450.53501	4026.0875
2453.30451	4027.5875
2456.07226	4021.9875
2458.83827	4010.2875
2461.60254	3993.1875
2464.36507	3998.6875
2467.12586	3985.1875
2469.88492	3982.4875
2472.64224	3996.9875
2475.39782	3998.5875
2478.15167	3987.2875
2480.90379	4017.4875
2483.65417	3992.2875
2486.40283	3991.1875
2489.14976	3997.2875
2491.89497	4006.2875
2494.63845	4004.7875
2497.3802	4005.4875
2500.12024	3996.2875
2502.85855	4005.1875
2505.59514	3994.7875
2508.33002	3987.7875
2511.06318	3982.4875
2513.79462	3972.8875
2516.52435	3980.4875
2519.25237	3964.9875
2521.97867	3966.1875
2524.70327	3948.3875
2527.42616	3952.1875
2530.14734	3948.7875
2532.86681	3948.6875
2535.58458	3974.8875
2538.30065	3970.0875
2541.01501	3962.0875
2543.72768	3948.2875
2546.43864	3948.9875
2549.14791	3924.8875
2551.85548	3926.8875
2554.56136	3940.7875
2557.26554	3940.3875
2559.96803	3917.3875
2562.66883	3909.9875
2565.36794	3901.7875
2568.06536	3902.8875
2570.7611	3884.3875
2573.45514	3892.0875
2576.14751	3882.3875
2578.83819	3886.4875
2581.52719	3892.2875
2584.21451	3882.1875
2586.90015	3889.7875
2589.58411	3887.0875
2592.2664	3872.4875
2594.94701	3872.6875
2597.62594	3866.9875
2600.30321	3862.6875
2602.9788	3872.1875
2605.65273	3873.9875
2608.32498	3875.8875
2610.99557	3863.9875
2613.66449	3862.9875
2616.33175	3862.7875
2618.99734	3868.0875
2621.66128	3862.4875
2624.32355	3865.3875
2626.98416	3862.3875
2629.64311	3849.5875
2632.30041	3862.6875
2634.95605	3855.3875
2637.61004	3858.2875
2640.26238	3847.9875
2642.91306	3852.1875
2645.56209	3845.0875
2648.20948	3850.4875
2650.85521	3847.5875
2653.4993	3840.3875
2656.14175	3823.1875
2658.78255	3836.9875
2661.42171	3821.1875
2664.05923	3846.2875
2666.6951	3839.7875
2669.32934	3857.5875
2671.96194	3866.7875
2674.59291	3852.0875
2677.22224	3858.4875
2679.84993	3848.7875
2682.476	3854.4875
2685.10043	3853.7875
2687.72324	3848.4875
2690.34441	3849.6875
2692.96396	3849.2875
2695.58188	3852.0875
2698.19818	3843.7875
2700.81285	3843.4875
2703.4259	3835.8875
2706.03733	3831.3875
2708.64714	3819.4875
2711.25533	3839.8875
2713.86191	3834.9875
2716.46687	3836.6875
2719.07021	3838.4875
2721.67194	3838.5875
2724.27206	3829.9875
2726.87057	3847.4875
2729.46747	3840.8875
2732.06276	3838.4875
2734.65644	3846.2875
2737.24852	3845.5875
2739.83899	3820.5875
2742.42786	3822.7875
2745.01513	3822.3875
2747.60079	3820.1875
2750.18486	3822.6875
2752.76733	3818.6875
2755.3482	3828.6875
2757.92747	3813.9875
2760.50515	3808.9875
2763.08123	3806.4875
2765.65573	3805.9875
2768.22863	3804.6875
2770.79994	3798.7875
2773.36967	3796.0875
2775.9378	3792.4875
2778.50435	3793.9875
2781.06932	3798.4875
2783.6327	3813.3875
2786.1945	3803.9875
2788.75471	3803.2875
2791.31335	3774.7875
2793.87041	3791.3875
2796.42589	3787.7875
2798.97979	3772.3875
2801.53212	3755.3875
2804.08288	3750.7875
2806.63206	3750.2875
2809.17967	3738.2875
2811.72571	3736.4875
2814.27018	3740.7875
2816.81308	3729.6875
2819.35442	3720.2875
2821.89419	3716.9875
2824.43239	3715.1875
2826.96904	3711.0875
2829.50412	3705.9875
2832.03763	3706.3875
2834.56959	3699.9875
2837.1	3690.2875
2839.62884	3684.3875
2842.15613	3673.7875
2844.68186	3696.2875
2847.20604	3677.9875
2849.72867	3683.9875
2852.24974	3668.6875
2854.76927	3660.6875
2857.28724	3654.4875
2859.80367	3647.9875
2862.31855	3642.7875
2864.83189	3645.0875
2867.34368	3635.3875
2869.85393	3629.8875
2872.36264	3625.7875
2874.8698	3634.5875
2877.37543	3634.2875
2879.87952	3618.2875
2882.38207	3614.4875
2884.88308	3605.9875
2887.38256	3619.5875
2889.88051	3616.7875
2892.37692	3600.1875
2894.8718	3614.3875
2897.36515	3621.2875
2899.85698	3598.6875
2902.34727	3614.6875
2904.83604	3623.2875
2907.32328	3631.1875
2909.809	3622.2875
2912.29319	3634.9875
2914.77587	3623.1875
2917.25702	3608.2875
2919.73665	3622.7875
2922.21476	3604.1875
2924.69136	3612.8875
2927.16644	3606.2875
2929.64	3626.6875
2932.11205	3591.0875
2934.58258	3587.7875
2937.05161	3593.0875
2939.51912	3593.1875
2941.98513	3589.0875
2944.44962	3590.8875
2946.91261	3562.3875
2949.37409	3570.4875
2951.83407	3561.7875
2954.29254	3557.1875
2956.74951	3563.0875
2959.20498	3559.2875
2961.65895	3559.3875
2964.11142	3559.2875
2966.56239	3537.7875
2969.01186	3540.7875
2971.45984	3549.4875
2973.90632	3535.2875
2976.35131	3534.8875
2978.7948	3523.4875
2981.23681	3512.3875
2983.67732	3500.7875
2986.11635	3486.5875
2988.55388	3486.7875
2990.98993	3471.5875
2993.4245	3462.7875
2995.85758	3445.2875
2998.28917	3424.6875
3000.71928	3428.0875
3003.14791	3400.4875
3005.57506	3408.2875
3008.00073	3395.3875
3010.42493	3398.2875
3012.84764	3388.9875
3015.26888	3379.4875
3017.68865	3383.3875
3020.10694	3366.5875
3022.52376	3356.6875
3024.9391	3359.9875
3027.35298	3324.6875
3029.76539	3328.4875
3032.17632	3339.8875
3034.5858	3333.4875
3036.9938	3315.8875
3039.40034	3321.1875
3041.80542	3301.9875
3044.20903	3295.0875
3046.61118	3294.5875
3049.01187	3285.3875
3051.4111	3284.8875
3053.80888	3280.8875
3056.20519	3261.1875
3058.60005	3251.9875
3060.99345	3243.4875
3063.3854	3237.1875
3065.7759	3226.5875
3068.16494	3215.5875
3070.55254	3197.0875
3072.93868	3188.3875
3075.32338	3174.8875
3077.70662	3172.8875
3080.08842	3174.4875
3082.46878	3177.0875
3084.84769	3150.6875
3087.22515	3142.6875
3089.60118	3152.2875
3091.97576	3133.5875
3094.3489	3116.1875
3096.72061	3128.4875
3099.09087	3119.7875
3101.4597	3122.8875
3103.82709	3112.7875
3106.19305	3112.1875
3108.55757	3110.9875
3110.92066	3102.4875
3113.28232	3101.2875
3115.64255	3091.0875
3118.00134	3078.8875
3120.35871	3081.3875
3122.71466	3071.8875
3125.06917	3057.6875
3127.42226	3048.4875
3129.77393	3057.8875
3132.12417	3046.2875
3134.47299	3045.7875
3136.82039	3024.8875
3139.16636	3025.0875
3141.51092	3023.0875
3143.85406	3032.5875
3146.19579	3019.1875
3148.53609	3019.4875
3150.87499	3005.4875
3153.21246	3006.8875
3155.54853	3017.9875
3157.88318	3005.2875
3160.21642	2997.8875
3162.54826	3014.0875
3164.87868	3002.2875
3167.2077	2990.6875
3169.5353	2994.6875
3171.86151	2976.3875
3174.18631	2971.7875
3176.5097	2968.5875
3178.83169	2946.9875
3181.15228	2954.4875
3183.47147	2946.9875
3185.78926	2950.6875
3188.10565	2943.9875
3190.42065	2926.5875
3192.73424	2933.8875
3195.04645	2929.1875
3197.35725	2934.0875
3199.66667	2917.4875
3201.97469	2916.9875
3204.28132	2926.4875
3206.58656	2915.1875
3208.8904	2921.1875
3211.19287	2906.0875
3213.49394	2912.5875
3215.79363	2916.1875
3218.09193	2926.9875
3220.38884	2909.0875
3222.68438	2909.5875
3224.97853	2899.8875
3227.2713	2910.5875
3229.56269	2900.0875
3231.8527	2899.0875
3234.14133	2901.8875
3236.42858	2886.0875
3238.71446	2875.8875
3240.99896	2868.1875
3243.28209	2863.9875
3245.56384	2867.7875
3247.84423	2857.9875
3250.12324	2857.1875
3252.40088	2852.5875
3254.67715	2845.7875
3256.95205	2841.5875
3259.22558	2834.8875
3261.49775	2832.0875
3263.76855	2837.5875
3266.03799	2829.3875
3268.30606	2824.0875
3270.57277	2833.0875
3272.83812	2833.1875
3275.10211	2809.0875
3277.36474	2805.8875
3279.62601	2805.3875
3281.88593	2796.8875
3284.14448	2792.4875
3286.40168	2809.6875
3288.65753	2796.8875
3290.91202	2798.7875
3293.16516	2793.7875
3295.41695	2775.4875
3297.66738	2776.6875
3299.91647	2760.9875
3302.16421	2750.6875
3304.4106	2717.0875
3306.65564	2710.7875
3308.89933	2681.9875
3311.14169	2647.6875
3313.38269	2626.7875
3315.62236	2609.4875
3317.86068	2595.6875
3320.09766	2571.3875
3322.3333	2556.4875
3324.5676	2529.0875
3326.80056	2506.8875
3329.03219	2485.7875
3331.26248	0.5875
3333.49143	-1.3125
3335.71905	-0.3125
