Data from AgNPs_UA_5uM_CRN_500uM_SU_RamanShift__160__11-56-03-171.txt Node

Date: Thu Aug 04 11:56:03 BST 2022
User: TCL
Spectrometer: QEP01345
Trigger mode: 4
Integration Time (sec): 1.000000E0
Scans to average: 10
Electric dark correction enabled: true
Nonlinearity correction enabled: false
Boxcar width: 0
XAxis mode: Raman Shifts
Number of Pixels in Spectrum: 1044
>>>>>Begin Spectral Data<<<<<
46.04893	-1.2125
50.45542	-0.4125
54.85868	1.0875
59.25871	-0.9125
63.6555	-56.8125
68.04907	-39.3125
72.43941	-71.8125
76.82654	-56.7125
81.21044	-55.7125
85.59113	-49.8125
89.96862	-76.3125
94.34289	-57.4125
98.71396	-79.1125
103.08183	-58.6125
107.4465	-51.9125
111.80798	-56.7125
116.16626	-45.5125
120.52136	-75.0125
124.87327	-51.9125
129.222	-62.3125
133.56755	-51.6125
137.90993	-64.6125
142.24913	-53.0125
146.58517	-44.1125
150.91804	-41.2125
155.24774	-27.8125
159.57429	-8.4125
163.89768	-6.3125
168.21792	40.5875
172.53501	53.9875
176.84895	137.3875
181.15975	269.8875
185.46741	413.7875
189.77193	597.6875
194.07331	881.6875
198.37157	1166.6875
202.6667	1442.6875
206.9587	1766.2875
211.24758	2082.9875
215.53334	2398.5875
219.81599	2737.8875
224.09553	3145.8875
228.37195	3590.0875
232.64527	4020.3875
236.91549	4499.2875
241.18261	4858.5875
245.44663	5146.4875
249.70755	5330.2875
253.96539	5476.9875
258.22014	5569.0875
262.4718	5630.6875
266.72039	5661.4875
270.96589	5619.7875
275.20832	5534.4875
279.44768	5417.8875
283.68397	5322.8875
287.91719	5247.9875
292.14735	5285.3875
296.37445	5451.2875
300.59849	5716.3875
304.81948	6041.1875
309.03742	6398.4875
313.25231	6610.4875
317.46415	6570.6875
321.67296	6174.7875
325.87872	5783.7875
330.08145	5612.8875
334.28114	5573.6875
338.47781	5660.4875
342.67145	5778.4875
346.86207	6027.8875
351.04966	6402.7875
355.23424	6758.8875
359.4158	7039.8875
363.59435	7083.5875
367.76989	6994.2875
371.94243	6881.1875
376.11196	6750.1875
380.27849	6685.7875
384.44203	6626.6875
388.60257	6593.4875
392.76012	6592.1875
396.91468	6706.4875
401.06626	6859.6875
405.21485	6896.3875
409.36047	6738.5875
413.50311	6476.6875
417.64277	6153.6875
421.77947	5958.8875
425.9132	5913.6875
430.04396	5878.5875
434.17176	5923.7875
438.2966	6019.1875
442.41849	6111.1875
446.53742	6217.7875
450.6534	6329.6875
454.76644	6393.2875
458.87653	6420.1875
462.98368	6390.6875
467.08789	6331.2875
471.18916	6248.6875
475.2875	6133.8875
479.38291	6024.3875
483.4754	5944.0875
487.56496	5898.4875
491.6516	5863.4875
495.73531	5866.5875
499.81612	5893.7875
503.89401	5968.8875
507.96899	6017.2875
512.04106	6108.7875
516.11023	6218.0875
520.1765	6309.1875
524.23987	6327.8875
528.30034	6334.3875
532.35792	6257.9875
536.41261	6192.7875
540.46441	6100.2875
544.51333	6049.5875
548.55936	6107.5875
552.60252	6222.4875
556.64279	6319.5875
560.6802	6450.6875
564.71473	6603.6875
568.7464	6745.5875
572.7752	6720.7875
576.80114	6430.6875
580.82422	6185.1875
584.84444	6088.6875
588.86181	6063.8875
592.87633	6115.7875
596.888	6246.1875
600.89682	6594.8875
604.9028	7524.1875
608.90594	9533.9875
612.90624	11782.4875
616.90371	10962.8875
620.89834	8018.2875
624.89015	6744.4875
628.87913	6558.5875
632.86528	6702.9875
636.84862	6860.3875
640.82913	6717.2875
644.80683	6386.8875
648.78172	6222.2875
652.75379	6246.8875
656.72306	6481.4875
660.68952	6718.9875
664.65319	6638.0875
668.61405	6399.5875
672.57211	6326.5875
676.52738	6326.8875
680.47986	6251.4875
684.42955	6164.6875
688.37646	6115.6875
692.32058	6137.2875
696.26192	6204.2875
700.20048	6294.1875
704.13626	6323.5875
708.06928	6289.9875
711.99952	6260.2875
715.927	6221.7875
719.85171	6286.6875
723.77365	6327.0875
727.69284	6293.8875
731.60928	6264.7875
735.52295	6268.8875
739.43388	6287.3875
743.34206	6307.4875
747.24749	6336.5875
751.15017	6354.6875
755.05012	6413.7875
758.94733	6771.7875
762.8418	7558.2875
766.73354	8824.6875
770.62254	9759.1875
774.50882	9864.7875
778.39237	9356.0875
782.27321	8517.2875
786.15132	7512.7875
790.02671	6869.9875
793.89938	6493.5875
797.76935	6397.2875
801.6366	6315.8875
805.50115	6265.4875
809.36299	6269.8875
813.22213	6241.0875
817.07857	6255.6875
820.93231	6260.6875
824.78336	6276.9875
828.63172	6293.6875
832.47738	6300.0875
836.32036	6312.4875
840.16066	6275.9875
843.99827	6278.1875
847.8332	6257.0875
851.66546	6277.3875
855.49504	6282.2875
859.32195	6308.5875
863.1462	6295.4875
866.96777	6313.0875
870.78668	6289.5875
874.60293	6301.1875
878.41652	6341.4875
882.22745	6395.8875
886.03573	6438.2875
889.84136	6434.2875
893.64433	6453.6875
897.44466	6410.3875
901.24235	6402.9875
905.0374	6424.8875
908.8298	6341.5875
912.61957	6321.8875
916.40671	6280.7875
920.19121	6314.9875
923.97308	6406.4875
927.75233	6467.7875
931.52895	6521.7875
935.30295	6516.5875
939.07433	6367.8875
942.84309	6263.8875
946.60924	6238.2875
950.37278	6174.8875
954.13371	6189.9875
957.89203	6176.9875
961.64774	6204.5875
965.40086	6188.7875
969.15137	6154.9875
972.89929	6192.1875
976.64461	6184.3875
980.38733	6205.1875
984.12747	6196.8875
987.86502	6194.0875
991.59999	6257.5875
995.33237	6336.1875
999.06217	6401.2875
1002.78939	6471.0875
1006.51404	6610.0875
1010.23611	6715.4875
1013.95561	6763.3875
1017.67255	6775.8875
1021.38692	6751.7875
1025.09872	6689.6875
1028.80796	6584.2875
1032.51465	6606.4875
1036.21877	6587.1875
1039.92035	6631.9875
1043.61937	6671.0875
1047.31584	6693.0875
1051.00976	6731.9875
1054.70114	6754.3875
1058.38998	6753.9875
1062.07627	6738.3875
1065.76003	6776.2875
1069.44126	6842.0875
1073.11995	6934.8875
1076.79611	7073.3875
1080.46974	7211.6875
1084.14085	7356.0875
1087.80943	7487.5875
1091.47549	7531.9875
1095.13903	7442.8875
1098.80005	7352.2875
1102.45857	7238.6875
1106.11456	7205.6875
1109.76805	7137.5875
1113.41903	7251.6875
1117.06751	7406.6875
1120.71348	7647.3875
1124.35696	8018.6875
1127.99793	8289.4875
1131.63641	8145.6875
1135.2724	7747.8875
1138.90589	7476.5875
1142.5369	7265.2875
1146.16542	7196.4875
1149.79145	7084.8875
1153.415	7036.5875
1157.03607	7038.8875
1160.65467	7099.6875
1164.27079	7297.1875
1167.88443	7531.3875
1171.49561	7912.7875
1175.10432	8500.6875
1178.71056	9305.1875
1182.31434	10072.0875
1185.91565	10309.0875
1189.51451	10143.2875
1193.11091	9941.4875
1196.70485	9713.4875
1200.29634	9528.2875
1203.88538	9257.8875
1207.47197	8856.4875
1211.05612	8437.8875
1214.63782	8052.7875
1218.21708	7832.8875
1221.79391	7684.2875
1225.36829	7599.1875
1228.94024	7567.3875
1232.50976	7573.6875
1236.07685	7616.1875
1239.6415	7649.6875
1243.20374	7667.1875
1246.76355	7693.0875
1250.32093	7780.3875
1253.8759	7847.5875
1257.42845	8028.5875
1260.97859	8223.2875
1264.52631	8449.9875
1268.07163	8584.7875
1271.61453	8691.6875
1275.15503	8758.0875
1278.69312	8729.1875
1282.22882	8816.2875
1285.76211	9008.9875
1289.29301	9224.7875
1292.82151	9493.5875
1296.34761	9698.5875
1299.87133	10075.5875
1303.39266	10768.3875
1306.9116	11816.4875
1310.42815	13008.1875
1313.94233	13362.6875
1317.45412	12636.8875
1320.96354	11575.9875
1324.47058	10612.3875
1327.97525	9909.1875
1331.47754	9518.4875
1334.97747	9459.5875
1338.47502	9570.5875
1341.97022	9912.6875
1345.46305	10591.1875
1348.95352	11578.2875
1352.44163	12795.5875
1355.92738	14022.7875
1359.41078	15550.6875
1362.89183	16938.7875
1366.37053	16331.1875
1369.84688	13607.3875
1373.32088	11143.2875
1376.79254	9876.4875
1380.26186	9252.0875
1383.72883	8900.3875
1387.19347	8518.3875
1390.65578	8167.8875
1394.11575	7955.5875
1397.57339	7802.4875
1401.0287	7702.9875
1404.48168	7665.4875
1407.93234	7692.2875
1411.38068	7715.3875
1414.82669	7790.2875
1418.27039	7871.4875
1421.71177	7873.6875
1425.15083	7765.9875
1428.58758	7680.1875
1432.02203	7725.7875
1435.45416	7796.0875
1438.88399	7822.1875
1442.31151	7805.6875
1445.73673	7862.4875
1449.15965	7918.9875
1452.58027	7954.0875
1455.9986	7946.1875
1459.41463	7933.8875
1462.82837	8025.9875
1466.23982	8204.6875
1469.64898	8405.6875
1473.05586	8531.5875
1476.46045	8635.1875
1479.86276	8688.3875
1483.26279	8776.0875
1486.66054	8936.3875
1490.05602	9181.6875
1493.44922	9701.0875
1496.84016	10513.6875
1500.22882	11791.4875
1503.61521	13392.8875
1506.99934	15048.3875
1510.38121	16171.1875
1513.76081	16069.0875
1517.13816	14621.2875
1520.51324	12626.0875
1523.88607	11035.4875
1527.25665	10091.6875
1530.62498	9586.0875
1533.99105	9396.3875
1537.35488	9273.2875
1540.71647	9185.2875
1544.07581	9112.3875
1547.4329	9000.4875
1550.78776	8869.7875
1554.14038	8791.7875
1557.49077	8796.7875
1560.83892	8858.0875
1564.18484	9050.7875
1567.52853	9389.1875
1570.86999	9660.5875
1574.20922	9779.2875
1577.54624	9675.8875
1580.88103	9203.6875
1584.2136	8578.8875
1587.54395	8244.8875
1590.87208	8193.1875
1594.19801	8354.6875
1597.52172	8698.4875
1600.84321	8845.0875
1604.16251	8714.3875
1607.47959	8562.6875
1610.79447	8369.2875
1614.10715	8084.1875
1617.41763	7783.9875
1620.7259	7520.5875
1624.03199	7384.4875
1627.33587	7314.3875
1630.63757	7357.3875
1633.93707	7591.3875
1637.23439	7973.9875
1640.52951	8652.3875
1643.82246	9575.3875
1647.11321	10669.3875
1650.40179	11302.7875
1653.68819	10987.5875
1656.97241	9788.6875
1660.25446	8484.2875
1663.53433	7541.9875
1666.81203	6977.1875
1670.08756	6668.9875
1673.36092	6487.1875
1676.63211	6358.6875
1679.90115	6271.4875
1683.16801	6200.2875
1686.43272	6111.7875
1689.69527	6061.7875
1692.95567	5995.7875
1696.2139	5983.9875
1699.46999	5925.1875
1702.72392	5923.4875
1705.97571	5937.2875
1709.22535	5924.1875
1712.47284	5959.7875
1715.71819	5959.8875
1718.96139	5956.5875
1722.20246	5940.8875
1725.44139	5909.6875
1728.67818	5872.1875
1731.91284	5840.2875
1735.14537	5807.6875
1738.37576	5787.2875
1741.60403	5755.3875
1744.83017	5735.9875
1748.05418	5742.2875
1751.27607	5759.6875
1754.49584	5718.2875
1757.71349	5677.9875
1760.92903	5688.5875
1764.14244	5635.8875
1767.35375	5641.4875
1770.56294	5626.9875
1773.77002	5590.4875
1776.97499	5610.3875
1780.17785	5579.9875
1783.37861	5583.7875
1786.57727	5587.4875
1789.77382	5531.5875
1792.96828	5576.0875
1796.16064	5563.2875
1799.3509	5545.3875
1802.53907	5566.3875
1805.72514	5530.0875
1808.90913	5501.5875
1812.09102	5500.8875
1815.27083	5490.9875
1818.44856	5479.5875
1821.6242	5471.7875
1824.79776	5467.2875
1827.96924	5446.0875
1831.13864	5409.6875
1834.30597	5431.5875
1837.47122	5405.7875
1840.6344	5409.9875
1843.7955	5377.5875
1846.95454	5370.0875
1850.11151	5388.8875
1853.26642	5341.8875
1856.41926	5352.5875
1859.57004	5359.2875
1862.71876	5359.6875
1865.86542	5353.6875
1869.01003	5360.1875
1872.15258	5330.4875
1875.29308	5339.5875
1878.43152	5351.1875
1881.56792	5305.4875
1884.70227	5300.4875
1887.83457	5300.7875
1890.96482	5266.8875
1894.09304	5285.8875
1897.21921	5252.5875
1900.34335	5278.4875
1903.46544	5248.4875
1906.58551	5260.1875
1909.70353	5277.2875
1912.81953	5242.0875
1915.93349	5232.6875
1919.04543	5209.0875
1922.15534	5196.8875
1925.26322	5230.8875
1928.36908	5195.0875
1931.47292	5199.3875
1934.57473	5196.3875
1937.67453	5147.4875
1940.77232	5136.3875
1943.86808	5127.4875
1946.96184	5130.8875
1950.05358	5119.1875
1953.14331	5083.5875
1956.23103	5077.0875
1959.31675	5046.8875
1962.40046	5009.4875
1965.48217	5039.3875
1968.56188	5033.4875
1971.63959	5008.1875
1974.7153	5001.9875
1977.78901	4979.7875
1980.86073	4953.3875
1983.93046	4919.3875
1986.99819	4849.9875
1990.06394	4867.7875
1993.1277	4884.5875
1996.18947	4865.5875
1999.24925	4839.6875
2002.30706	4815.3875
2005.36288	4833.6875
2008.41672	4800.6875
2011.46859	4776.7875
2014.51848	4769.5875
2017.56639	4746.9875
2020.61233	4730.7875
2023.6563	4724.2875
2026.6983	4697.9875
2029.73833	4679.4875
2032.7764	4693.0875
2035.8125	4666.5875
2038.84664	4658.8875
2041.87881	4645.6875
2044.90903	4659.1875
2047.93729	4634.9875
2050.96359	4605.2875
2053.98794	4609.1875
2057.01034	4621.4875
2060.03078	4614.1875
2063.04927	4592.0875
2066.06582	4601.5875
2069.08042	4579.6875
2072.09307	4590.2875
2075.10378	4578.8875
2078.11255	4573.3875
2081.11938	4590.5875
2084.12426	4570.0875
2087.12722	4560.9875
2090.12824	4556.5875
2093.12732	4553.5875
2096.12447	4563.8875
2099.11969	4562.9875
2102.11299	4550.8875
2105.10435	4577.3875
2108.09379	4559.3875
2111.08131	4558.2875
2114.0669	4555.3875
2117.05057	4557.8875
2120.03233	4553.7875
2123.01216	4569.3875
2125.99008	4574.8875
2128.96609	4559.0875
2131.94018	4591.0875
2134.91236	4576.2875
2137.88263	4562.4875
2140.851	4558.6875
2143.81746	4590.4875
2146.78201	4586.2875
2149.74466	4563.3875
2152.7054	4581.2875
2155.66425	4575.1875
2158.6212	4549.7875
2161.57625	4532.1875
2164.52941	4513.2875
2167.48067	4519.7875
2170.43004	4521.0875
2173.37752	4538.9875
2176.32311	4524.9875
2179.26681	4517.4875
2182.20863	4533.6875
2185.14856	4514.0875
2188.08661	4538.1875
2191.02278	4536.1875
2193.95707	4524.4875
2196.88948	4504.6875
2199.82001	4514.9875
2202.74867	4493.0875
2205.67545	4509.7875
2208.60037	4498.9875
2211.52341	4493.0875
2214.44458	4475.7875
2217.36388	4469.0875
2220.28132	4452.6875
2223.1969	4428.3875
2226.11061	4420.9875
2229.02246	4414.6875
2231.93245	4417.3875
2234.84058	4412.5875
2237.74686	4386.4875
2240.65128	4381.7875
2243.55385	4375.7875
2246.45456	4355.7875
2249.35343	4371.6875
2252.25044	4356.4875
2255.14561	4375.9875
2258.03893	4370.0875
2260.93041	4340.5875
2263.82004	4340.4875
2266.70783	4344.7875
2269.59378	4313.7875
2272.4779	4292.4875
2275.36017	4300.7875
2278.24061	4290.0875
2281.11922	4248.8875
2283.996	4265.9875
2286.87094	4222.5875
2289.74405	4249.2875
2292.61534	4231.0875
2295.4848	4247.3875
2298.35243	4224.6875
2301.21824	4215.7875
2304.08223	4209.4875
2306.94439	4220.8875
2309.80474	4217.4875
2312.66327	4192.2875
2315.51999	4195.5875
2318.37489	4187.4875
2321.22797	4167.6875
2324.07925	4157.6875
2326.92871	4166.9875
2329.77637	4135.6875
2332.62222	4135.9875
2335.46626	4114.4875
2338.3085	4102.2875
2341.14893	4111.4875
2343.98756	4136.7875
2346.8244	4096.9875
2349.65943	4088.7875
2352.49267	4095.4875
2355.32411	4105.4875
2358.15376	4085.3875
2360.98161	4109.3875
2363.80768	4082.9875
2366.63195	4083.6875
2369.45444	4089.8875
2372.27514	4084.5875
2375.09405	4103.1875
2377.91118	4067.9875
2380.72652	4060.6875
2383.54009	4054.7875
2386.35187	4059.5875
2389.16188	4033.0875
2391.97011	4024.5875
2394.77657	4017.6875
2397.58125	4002.7875
2400.38416	4000.1875
2403.18529	3986.0875
2405.98466	3966.1875
2408.78226	3971.5875
2411.57809	3961.3875
2414.37216	3954.1875
2417.16446	3950.2875
2419.955	3919.2875
2422.74378	3944.1875
2425.5308	3916.7875
2428.31606	3924.0875
2431.09956	3940.4875
2433.88131	3908.2875
2436.6613	3927.0875
2439.43954	3908.0875
2442.21603	3906.8875
2444.99077	3888.7875
2447.76377	3898.2875
2450.53501	3883.7875
2453.30451	3880.6875
2456.07226	3894.6875
2458.83827	3875.2875
2461.60254	3812.0875
2464.36507	3874.6875
2467.12586	3850.3875
2469.88492	3848.7875
2472.64224	3845.9875
2475.39782	3840.0875
2478.15167	3839.9875
2480.90379	3816.2875
2483.65417	3862.5875
2486.40283	3852.6875
2489.14976	3852.9875
2491.89497	3836.5875
2494.63845	3834.9875
2497.3802	3814.9875
2500.12024	3815.9875
2502.85855	3816.8875
2505.59514	3826.4875
2508.33002	3813.3875
2511.06318	3787.9875
2513.79462	3788.4875
2516.52435	3760.5875
2519.25237	3739.3875
2521.97867	3746.1875
2524.70327	3738.3875
2527.42616	3741.3875
2530.14734	3751.3875
2532.86681	3722.5875
2535.58458	3711.5875
2538.30065	3722.7875
2541.01501	3729.5875
2543.72768	3692.5875
2546.43864	3709.0875
2549.14791	3699.3875
2551.85548	3686.6875
2554.56136	3674.6875
2557.26554	3673.1875
2559.96803	3665.0875
2562.66883	3670.7875
2565.36794	3654.7875
2568.06536	3613.1875
2570.7611	3637.3875
2573.45514	3623.7875
2576.14751	3602.7875
2578.83819	3605.8875
2581.52719	3597.0875
2584.21451	3596.0875
2586.90015	3574.8875
2589.58411	3568.4875
2592.2664	3563.2875
2594.94701	3566.6875
2597.62594	3565.9875
2600.30321	3506.7875
2602.9788	3517.9875
2605.65273	3508.0875
2608.32498	3522.4875
2610.99557	3532.6875
2613.66449	3501.4875
2616.33175	3525.0875
2618.99734	3507.7875
2621.66128	3497.4875
2624.32355	3490.2875
2626.98416	3488.4875
2629.64311	3477.2875
2632.30041	3463.9875
2634.95605	3442.2875
2637.61004	3431.8875
2640.26238	3431.9875
2642.91306	3431.7875
2645.56209	3439.1875
2648.20948	3437.0875
2650.85521	3420.7875
2653.4993	3429.6875
2656.14175	3420.1875
2658.78255	3412.6875
2661.42171	3378.5875
2664.05923	3425.6875
2666.6951	3431.0875
2669.32934	3437.2875
2671.96194	3446.7875
2674.59291	3425.4875
2677.22224	3432.0875
2679.84993	3424.4875
2682.476	3409.9875
2685.10043	3410.4875
2687.72324	3399.5875
2690.34441	3395.4875
2692.96396	3401.4875
2695.58188	3416.4875
2698.19818	3394.8875
2700.81285	3394.9875
2703.4259	3388.7875
2706.03733	3347.6875
2708.64714	3362.2875
2711.25533	3399.4875
2713.86191	3380.2875
2716.46687	3382.8875
2719.07021	3375.5875
2721.67194	3382.5875
2724.27206	3398.1875
2726.87057	3370.4875
2729.46747	3364.7875
2732.06276	3377.7875
2734.65644	3358.1875
2737.24852	3353.7875
2739.83899	3333.6875
2742.42786	3360.1875
2745.01513	3358.5875
2747.60079	3333.3875
2750.18486	3314.7875
2752.76733	3340.4875
2755.3482	3320.4875
2757.92747	3313.9875
2760.50515	3299.2875
2763.08123	3290.8875
2765.65573	3298.8875
2768.22863	3296.9875
2770.79994	3259.6875
2773.36967	3264.4875
2775.9378	3259.9875
2778.50435	3255.3875
2781.06932	3242.1875
2783.6327	3238.3875
2786.1945	3256.9875
2788.75471	3252.7875
2791.31335	3237.7875
2793.87041	3234.9875
2796.42589	3228.1875
2798.97979	3206.1875
2801.53212	3201.1875
2804.08288	3216.4875
2806.63206	3199.1875
2809.17967	3185.1875
2811.72571	3187.4875
2814.27018	3179.2875
2816.81308	3172.5875
2819.35442	3136.1875
2821.89419	3147.8875
2824.43239	3131.1875
2826.96904	3172.4875
2829.50412	3138.7875
2832.03763	3147.3875
2834.56959	3136.1875
2837.1	3132.4875
2839.62884	3123.8875
2842.15613	3127.1875
2844.68186	3123.0875
2847.20604	3103.8875
2849.72867	3096.3875
2852.24974	3108.3875
2854.76927	3075.4875
2857.28724	3022.3875
2859.80367	3080.6875
2862.31855	3087.2875
2864.83189	3079.2875
2867.34368	3078.0875
2869.85393	3092.6875
2872.36264	3060.8875
2874.8698	3065.1875
2877.37543	3065.0875
2879.87952	3052.0875
2882.38207	3046.9875
2884.88308	3043.8875
2887.38256	3051.1875
2889.88051	3029.5875
2892.37692	3032.7875
2894.8718	3022.2875
2897.36515	3039.0875
2899.85698	3041.2875
2902.34727	3030.4875
2904.83604	3034.9875
2907.32328	3048.2875
2909.809	3054.4875
2912.29319	3040.1875
2914.77587	3047.3875
2917.25702	3063.8875
2919.73665	3059.7875
2922.21476	3064.8875
2924.69136	3064.8875
2927.16644	3039.9875
2929.64	3032.8875
2932.11205	3020.7875
2934.58258	3039.6875
2937.05161	3015.2875
2939.51912	3015.5875
2941.98513	3026.0875
2944.44962	3019.0875
2946.91261	2986.0875
2949.37409	2992.6875
2951.83407	2986.0875
2954.29254	2989.4875
2956.74951	2967.3875
2959.20498	2963.8875
2961.65895	2963.4875
2964.11142	2962.0875
2966.56239	2966.0875
2969.01186	2962.7875
2971.45984	2959.1875
2973.90632	2942.9875
2976.35131	2950.8875
2978.7948	2933.8875
2981.23681	2929.8875
2983.67732	2924.5875
2986.11635	2927.3875
2988.55388	2908.9875
2990.98993	2913.1875
2993.4245	2901.9875
2995.85758	2876.7875
2998.28917	2886.5875
3000.71928	2858.7875
3003.14791	2860.5875
3005.57506	2841.0875
3008.00073	2841.5875
3010.42493	2782.2875
3012.84764	2822.3875
3015.26888	2832.4875
3017.68865	2814.7875
3020.10694	2768.7875
3022.52376	2789.5875
3024.9391	2790.2875
3027.35298	2771.9875
3029.76539	2759.9875
3032.17632	2762.2875
3034.5858	2762.1875
3036.9938	2756.8875
3039.40034	2749.9875
3041.80542	2737.2875
3044.20903	2725.7875
3046.61118	2715.5875
3049.01187	2726.1875
3051.4111	2713.4875
3053.80888	2705.0875
3056.20519	2706.1875
3058.60005	2683.7875
3060.99345	2704.5875
3063.3854	2679.8875
3065.7759	2662.7875
3068.16494	2658.3875
3070.55254	2645.8875
3072.93868	2661.0875
3075.32338	2643.4875
3077.70662	2641.9875
3080.08842	2622.1875
3082.46878	2618.7875
3084.84769	2631.1875
3087.22515	2617.9875
3089.60118	2619.4875
3091.97576	2592.8875
3094.3489	2612.1875
3096.72061	2600.8875
3099.09087	2587.3875
3101.4597	2602.1875
3103.82709	2598.8875
3106.19305	2569.4875
3108.55757	2589.6875
3110.92066	2573.3875
3113.28232	2577.9875
3115.64255	2577.7875
3118.00134	2576.3875
3120.35871	2544.1875
3122.71466	2521.4875
3125.06917	2534.5875
3127.42226	2520.7875
3129.77393	2510.9875
3132.12417	2524.3875
3134.47299	2530.0875
3136.82039	2505.5875
3139.16636	2488.8875
3141.51092	2504.3875
3143.85406	2511.3875
3146.19579	2490.1875
3148.53609	2479.4875
3150.87499	2495.2875
3153.21246	2489.5875
3155.54853	2493.5875
3157.88318	2493.6875
3160.21642	2490.1875
3162.54826	2501.9875
3164.87868	2491.2875
3167.2077	2452.0875
3169.5353	2493.5875
3171.86151	2483.8875
3174.18631	2473.0875
3176.5097	2465.8875
3178.83169	2463.6875
3181.15228	2465.9875
3183.47147	2431.1875
3185.78926	2412.9875
3188.10565	2436.4875
3190.42065	2406.0875
3192.73424	2431.8875
3195.04645	2402.7875
3197.35725	2392.2875
3199.66667	2418.5875
3201.97469	2391.3875
3204.28132	2385.2875
3206.58656	2407.9875
3208.8904	2409.0875
3211.19287	2397.7875
3213.49394	2387.8875
3215.79363	2377.1875
3218.09193	2399.2875
3220.38884	2392.3875
3222.68438	2384.2875
3224.97853	2369.4875
3227.2713	2380.4875
3229.56269	2364.7875
3231.8527	2372.1875
3234.14133	2342.8875
3236.42858	2353.0875
3238.71446	2333.4875
3240.99896	2340.8875
3243.28209	2336.0875
3245.56384	2333.1875
3247.84423	2324.6875
3250.12324	2325.2875
3252.40088	2317.5875
3254.67715	2319.1875
3256.95205	2304.3875
3259.22558	2324.0875
3261.49775	2316.0875
3263.76855	2320.0875
3266.03799	2311.4875
3268.30606	2312.7875
3270.57277	2314.5875
3272.83812	2289.1875
3275.10211	2280.2875
3277.36474	2296.5875
3279.62601	2292.6875
3281.88593	2264.6875
3284.14448	2241.6875
3286.40168	2268.6875
3288.65753	2253.0875
3290.91202	2253.3875
3293.16516	2234.3875
3295.41695	2256.7875
3297.66738	2255.2875
3299.91647	2235.4875
3302.16421	2224.4875
3304.4106	2190.1875
3306.65564	2200.5875
3308.89933	2157.7875
3311.14169	2149.6875
3313.38269	2145.9875
3315.62236	2128.7875
3317.86068	2113.2875
3320.09766	2093.3875
3322.3333	2064.9875
3324.5676	2066.5875
3326.80056	2033.9875
3329.03219	2022.5875
3331.26248	-0.5125
3333.49143	-1.1125
3335.71905	1.5875
