Data from AgNPs_UA_5uM_CRN_500uM_SU_RamanShift__152__11-54-43-169.txt Node

Date: Thu Aug 04 11:54:43 BST 2022
User: TCL
Spectrometer: QEP01345
Trigger mode: 4
Integration Time (sec): 1.000000E0
Scans to average: 10
Electric dark correction enabled: true
Nonlinearity correction enabled: false
Boxcar width: 0
XAxis mode: Raman Shifts
Number of Pixels in Spectrum: 1044
>>>>>Begin Spectral Data<<<<<
46.04893	-0.275
50.45542	0.225
54.85868	-0.175
59.25871	-1.075
63.6555	-57.475
68.04907	-37.875
72.43941	-71.675
76.82654	-56.275
81.21044	-57.175
85.59113	-48.075
89.96862	-73.275
94.34289	-55.875
98.71396	-77.975
103.08183	-58.775
107.4465	-51.275
111.80798	-55.475
116.16626	-44.475
120.52136	-73.475
124.87327	-48.775
129.222	-61.275
133.56755	-49.375
137.90993	-64.575
142.24913	-52.175
146.58517	-42.075
150.91804	-38.775
155.24774	-29.575
159.57429	-10.775
163.89768	-5.675
168.21792	37.325
172.53501	59.225
176.84895	139.325
181.15975	278.725
185.46741	422.325
189.77193	603.125
194.07331	899.625
198.37157	1183.425
202.6667	1473.225
206.9587	1798.525
211.24758	2107.325
215.53334	2431.425
219.81599	2770.625
224.09553	3185.525
228.37195	3639.025
232.64527	4100.525
236.91549	4569.725
241.18261	4929.325
245.44663	5245.125
249.70755	5425.325
253.96539	5560.325
258.22014	5658.625
262.4718	5723.725
266.72039	5746.525
270.96589	5719.325
275.20832	5621.525
279.44768	5510.525
283.68397	5393.125
287.91719	5321.025
292.14735	5353.525
296.37445	5505.125
300.59849	5778.125
304.81948	6112.225
309.03742	6464.025
313.25231	6696.125
317.46415	6629.025
321.67296	6247.225
325.87872	5863.225
330.08145	5672.525
334.28114	5656.325
338.47781	5706.125
342.67145	5849.525
346.86207	6090.125
351.04966	6457.325
355.23424	6835.825
359.4158	7107.825
363.59435	7130.425
367.76989	7074.225
371.94243	6955.825
376.11196	6825.125
380.27849	6771.225
384.44203	6697.025
388.60257	6676.525
392.76012	6658.625
396.91468	6797.325
401.06626	6942.325
405.21485	6980.825
409.36047	6833.825
413.50311	6523.425
417.64277	6253.625
421.77947	6049.625
425.9132	5991.425
430.04396	5986.325
434.17176	6013.025
438.2966	6110.125
442.41849	6209.625
446.53742	6328.325
450.6534	6437.025
454.76644	6494.025
458.87653	6510.525
462.98368	6479.125
467.08789	6406.725
471.18916	6343.825
475.2875	6255.225
479.38291	6142.225
483.4754	6052.125
487.56496	6004.125
491.6516	5967.925
495.73531	5964.425
499.81612	5997.825
503.89401	6081.625
507.96899	6104.425
512.04106	6208.725
516.11023	6321.325
520.1765	6400.825
524.23987	6420.425
528.30034	6417.525
532.35792	6346.025
536.41261	6311.625
540.46441	6224.325
544.51333	6166.525
548.55936	6197.825
552.60252	6313.025
556.64279	6424.425
560.6802	6544.825
564.71473	6697.025
568.7464	6881.225
572.7752	6843.925
576.80114	6522.725
580.82422	6287.625
584.84444	6178.925
588.86181	6183.725
592.87633	6198.025
596.888	6319.125
600.89682	6689.925
604.9028	7601.325
608.90594	9598.025
612.90624	11883.225
616.90371	11023.425
620.89834	8093.025
624.89015	6849.625
628.87913	6655.425
632.86528	6804.425
636.84862	6958.825
640.82913	6854.325
644.80683	6495.025
648.78172	6332.425
652.75379	6356.625
656.72306	6593.425
660.68952	6814.825
664.65319	6747.025
668.61405	6528.925
672.57211	6455.425
676.52738	6460.125
680.47986	6380.025
684.42955	6292.625
688.37646	6243.825
692.32058	6234.925
696.26192	6307.125
700.20048	6419.625
704.13626	6455.625
708.06928	6408.925
711.99952	6378.825
715.927	6357.825
719.85171	6386.425
723.77365	6423.125
727.69284	6424.125
731.60928	6419.425
735.52295	6379.825
739.43388	6420.125
743.34206	6433.125
747.24749	6468.925
751.15017	6467.425
755.05012	6533.425
758.94733	6894.825
762.8418	7680.225
766.73354	8928.425
770.62254	9861.425
774.50882	9946.525
778.39237	9486.325
782.27321	8611.325
786.15132	7614.125
790.02671	6979.425
793.89938	6601.825
797.76935	6525.025
801.6366	6407.425
805.50115	6405.825
809.36299	6376.825
813.22213	6393.225
817.07857	6390.125
820.93231	6387.025
824.78336	6398.825
828.63172	6417.725
832.47738	6409.425
836.32036	6420.525
840.16066	6412.625
843.99827	6410.025
847.8332	6400.225
851.66546	6400.125
855.49504	6412.425
859.32195	6444.225
863.1462	6410.925
866.96777	6435.125
870.78668	6411.525
874.60293	6450.625
878.41652	6465.125
882.22745	6541.025
886.03573	6568.525
889.84136	6575.625
893.64433	6582.525
897.44466	6547.125
901.24235	6550.825
905.0374	6544.225
908.8298	6473.225
912.61957	6466.525
916.40671	6421.825
920.19121	6459.525
923.97308	6537.625
927.75233	6606.625
931.52895	6662.125
935.30295	6660.125
939.07433	6506.525
942.84309	6401.625
946.60924	6357.425
950.37278	6321.925
954.13371	6331.325
957.89203	6327.825
961.64774	6347.625
965.40086	6302.325
969.15137	6299.125
972.89929	6339.925
976.64461	6300.125
980.38733	6336.625
984.12747	6337.325
987.86502	6344.125
991.59999	6388.125
995.33237	6472.825
999.06217	6539.925
1002.78939	6620.725
1006.51404	6747.925
1010.23611	6861.825
1013.95561	6924.225
1017.67255	6925.925
1021.38692	6904.025
1025.09872	6830.225
1028.80796	6747.225
1032.51465	6744.725
1036.21877	6722.425
1039.92035	6767.625
1043.61937	6818.525
1047.31584	6866.225
1051.00976	6890.725
1054.70114	6887.625
1058.38998	6893.825
1062.07627	6895.525
1065.76003	6924.725
1069.44126	7004.625
1073.11995	7097.925
1076.79611	7206.825
1080.46974	7361.425
1084.14085	7531.525
1087.80943	7625.525
1091.47549	7679.225
1095.13903	7622.425
1098.80005	7496.525
1102.45857	7393.025
1106.11456	7353.625
1109.76805	7276.525
1113.41903	7423.125
1117.06751	7564.725
1120.71348	7791.225
1124.35696	8150.225
1127.99793	8418.125
1131.63641	8272.325
1135.2724	7893.925
1138.90589	7606.225
1142.5369	7420.725
1146.16542	7318.825
1149.79145	7240.025
1153.415	7178.125
1157.03607	7165.725
1160.65467	7258.425
1164.27079	7428.425
1167.88443	7665.825
1171.49561	8050.525
1175.10432	8632.125
1178.71056	9441.025
1182.31434	10176.225
1185.91565	10427.125
1189.51451	10266.425
1193.11091	10038.725
1196.70485	9836.325
1200.29634	9665.325
1203.88538	9411.925
1207.47197	8995.325
1211.05612	8577.725
1214.63782	8217.225
1218.21708	7997.825
1221.79391	7847.525
1225.36829	7738.825
1228.94024	7726.325
1232.50976	7731.225
1236.07685	7779.325
1239.6415	7788.525
1243.20374	7798.825
1246.76355	7851.325
1250.32093	7916.925
1253.8759	7992.225
1257.42845	8206.425
1260.97859	8392.125
1264.52631	8603.525
1268.07163	8749.325
1271.61453	8863.625
1275.15503	8907.325
1278.69312	8903.925
1282.22882	8960.925
1285.76211	9134.325
1289.29301	9387.625
1292.82151	9629.925
1296.34761	9846.325
1299.87133	10236.025
1303.39266	10874.025
1306.9116	11975.725
1310.42815	13095.325
1313.94233	13523.525
1317.45412	12775.225
1320.96354	11694.225
1324.47058	10763.225
1327.97525	10064.225
1331.47754	9706.925
1334.97747	9591.425
1338.47502	9718.025
1341.97022	10053.625
1345.46305	10745.525
1348.95352	11745.325
1352.44163	12915.125
1355.92738	14120.625
1359.41078	15646.625
1362.89183	17004.825
1366.37053	16405.225
1369.84688	13744.925
1373.32088	11274.125
1376.79254	9990.525
1380.26186	9416.125
1383.72883	9033.925
1387.19347	8674.825
1390.65578	8327.925
1394.11575	8103.925
1397.57339	7958.325
1401.0287	7871.025
1404.48168	7824.925
1407.93234	7853.125
1411.38068	7862.525
1414.82669	7952.325
1418.27039	8051.025
1421.71177	8033.425
1425.15083	7931.625
1428.58758	7859.025
1432.02203	7868.525
1435.45416	7965.725
1438.88399	7978.725
1442.31151	7987.325
1445.73673	8031.525
1449.15965	8090.125
1452.58027	8114.025
1455.9986	8101.325
1459.41463	8101.025
1462.82837	8206.925
1466.23982	8377.925
1469.64898	8570.125
1473.05586	8715.625
1476.46045	8807.825
1479.86276	8848.225
1483.26279	8930.125
1486.66054	9113.225
1490.05602	9338.025
1493.44922	9846.325
1496.84016	10629.125
1500.22882	11910.525
1503.61521	13506.225
1506.99934	15142.825
1510.38121	16271.525
1513.76081	16136.125
1517.13816	14731.725
1520.51324	12704.125
1523.88607	11117.125
1527.25665	10207.925
1530.62498	9714.225
1533.99105	9524.425
1537.35488	9402.525
1540.71647	9334.025
1544.07581	9250.325
1547.4329	9144.225
1550.78776	9043.825
1554.14038	8947.325
1557.49077	8915.225
1560.83892	8980.125
1564.18484	9201.925
1567.52853	9500.925
1570.86999	9767.725
1574.20922	9908.625
1577.54624	9811.625
1580.88103	9331.225
1584.2136	8744.625
1587.54395	8412.025
1590.87208	8348.925
1594.19801	8469.325
1597.52172	8856.725
1600.84321	9007.825
1604.16251	8899.325
1607.47959	8717.225
1610.79447	8538.725
1614.10715	8234.525
1617.41763	7945.825
1620.7259	7675.525
1624.03199	7523.025
1627.33587	7456.225
1630.63757	7500.125
1633.93707	7735.525
1637.23439	8131.925
1640.52951	8802.525
1643.82246	9716.625
1647.11321	10796.525
1650.40179	11448.825
1653.68819	11079.725
1656.97241	9928.025
1660.25446	8632.025
1663.53433	7684.925
1666.81203	7115.325
1670.08756	6804.825
1673.36092	6646.625
1676.63211	6503.825
1679.90115	6421.425
1683.16801	6348.125
1686.43272	6244.225
1689.69527	6206.525
1692.95567	6134.625
1696.2139	6115.325
1699.46999	6044.125
1702.72392	6059.425
1705.97571	6074.725
1709.22535	6069.825
1712.47284	6082.225
1715.71819	6102.925
1718.96139	6071.025
1722.20246	6066.325
1725.44139	6050.725
1728.67818	6022.525
1731.91284	5988.225
1735.14537	5946.225
1738.37576	5927.325
1741.60403	5919.325
1744.83017	5876.925
1748.05418	5869.325
1751.27607	5885.825
1754.49584	5853.625
1757.71349	5805.625
1760.92903	5821.025
1764.14244	5774.225
1767.35375	5763.325
1770.56294	5767.525
1773.77002	5748.525
1776.97499	5744.325
1780.17785	5741.625
1783.37861	5722.225
1786.57727	5734.525
1789.77382	5677.425
1792.96828	5710.625
1796.16064	5693.225
1799.3509	5692.525
1802.53907	5697.325
1805.72514	5654.425
1808.90913	5631.325
1812.09102	5639.125
1815.27083	5626.625
1818.44856	5613.225
1821.6242	5598.125
1824.79776	5584.925
1827.96924	5580.925
1831.13864	5554.425
1834.30597	5578.325
1837.47122	5545.625
1840.6344	5543.325
1843.7955	5516.425
1846.95454	5518.525
1850.11151	5526.425
1853.26642	5498.325
1856.41926	5489.125
1859.57004	5495.125
1862.71876	5502.125
1865.86542	5506.925
1869.01003	5501.525
1872.15258	5460.925
1875.29308	5487.725
1878.43152	5475.925
1881.56792	5457.525
1884.70227	5436.025
1887.83457	5440.425
1890.96482	5412.525
1894.09304	5420.025
1897.21921	5400.825
1900.34335	5407.225
1903.46544	5379.325
1906.58551	5405.125
1909.70353	5403.525
1912.81953	5390.425
1915.93349	5359.225
1919.04543	5361.325
1922.15534	5344.225
1925.26322	5339.225
1928.36908	5332.725
1931.47292	5330.725
1934.57473	5329.825
1937.67453	5293.525
1940.77232	5279.825
1943.86808	5265.225
1946.96184	5257.325
1950.05358	5232.125
1953.14331	5218.025
1956.23103	5219.525
1959.31675	5192.325
1962.40046	5131.025
1965.48217	5154.525
1968.56188	5147.325
1971.63959	5136.025
1974.7153	5134.825
1977.78901	5122.025
1980.86073	5097.425
1983.93046	5058.625
1986.99819	4969.325
1990.06394	4995.625
1993.1277	5011.525
1996.18947	5011.325
1999.24925	4951.925
2002.30706	4961.825
2005.36288	4956.125
2008.41672	4929.925
2011.46859	4879.425
2014.51848	4895.925
2017.56639	4862.125
2020.61233	4857.825
2023.6563	4849.125
2026.6983	4807.025
2029.73833	4809.425
2032.7764	4817.125
2035.8125	4781.025
2038.84664	4788.625
2041.87881	4757.025
2044.90903	4767.525
2047.93729	4755.125
2050.96359	4740.225
2053.98794	4740.325
2057.01034	4743.725
2060.03078	4713.425
2063.04927	4722.925
2066.06582	4715.725
2069.08042	4690.025
2072.09307	4713.925
2075.10378	4697.225
2078.11255	4682.225
2081.11938	4707.425
2084.12426	4686.025
2087.12722	4682.425
2090.12824	4686.425
2093.12732	4680.625
2096.12447	4674.925
2099.11969	4673.025
2102.11299	4667.725
2105.10435	4692.625
2108.09379	4690.625
2111.08131	4679.625
2114.0669	4688.925
2117.05057	4663.725
2120.03233	4667.125
2123.01216	4695.925
2125.99008	4699.525
2128.96609	4685.525
2131.94018	4696.625
2134.91236	4678.625
2137.88263	4682.625
2140.851	4683.025
2143.81746	4708.325
2146.78201	4701.125
2149.74466	4693.825
2152.7054	4702.025
2155.66425	4688.325
2158.6212	4689.925
2161.57625	4649.325
2164.52941	4636.025
2167.48067	4646.025
2170.43004	4657.425
2173.37752	4661.525
2176.32311	4638.325
2179.26681	4645.225
2182.20863	4652.425
2185.14856	4651.025
2188.08661	4643.525
2191.02278	4649.025
2193.95707	4633.925
2196.88948	4624.025
2199.82001	4630.225
2202.74867	4602.425
2205.67545	4623.625
2208.60037	4615.625
2211.52341	4604.325
2214.44458	4604.225
2217.36388	4584.425
2220.28132	4571.525
2223.1969	4543.825
2226.11061	4545.125
2229.02246	4521.425
2231.93245	4539.325
2234.84058	4521.325
2237.74686	4500.325
2240.65128	4490.625
2243.55385	4491.525
2246.45456	4476.725
2249.35343	4496.025
2252.25044	4467.925
2255.14561	4477.725
2258.03893	4468.225
2260.93041	4458.425
2263.82004	4451.125
2266.70783	4436.525
2269.59378	4418.825
2272.4779	4411.125
2275.36017	4405.425
2278.24061	4391.425
2281.11922	4364.125
2283.996	4374.525
2286.87094	4352.225
2289.74405	4355.025
2292.61534	4352.625
2295.4848	4359.425
2298.35243	4347.825
2301.21824	4322.325
2304.08223	4320.025
2306.94439	4335.025
2309.80474	4332.025
2312.66327	4319.125
2315.51999	4292.025
2318.37489	4305.725
2321.22797	4283.025
2324.07925	4278.325
2326.92871	4261.125
2329.77637	4239.925
2332.62222	4260.425
2335.46626	4224.225
2338.3085	4218.625
2341.14893	4230.325
2343.98756	4242.525
2346.8244	4221.925
2349.65943	4193.425
2352.49267	4200.725
2355.32411	4223.525
2358.15376	4211.025
2360.98161	4205.625
2363.80768	4194.725
2366.63195	4200.625
2369.45444	4205.025
2372.27514	4199.525
2375.09405	4199.625
2377.91118	4153.925
2380.72652	4174.425
2383.54009	4153.825
2386.35187	4170.425
2389.16188	4130.225
2391.97011	4125.625
2394.77657	4114.825
2397.58125	4128.525
2400.38416	4108.625
2403.18529	4079.025
2405.98466	4070.225
2408.78226	4077.625
2411.57809	4068.925
2414.37216	4053.225
2417.16446	4039.725
2419.955	4035.425
2422.74378	4057.925
2425.5308	4029.625
2428.31606	4029.625
2431.09956	4041.525
2433.88131	4015.025
2436.6613	4035.125
2439.43954	4012.825
2442.21603	4009.525
2444.99077	4000.725
2447.76377	4011.025
2450.53501	3996.525
2453.30451	3976.925
2456.07226	3998.925
2458.83827	3982.525
2461.60254	3929.525
2464.36507	3949.225
2467.12586	3941.525
2469.88492	3953.825
2472.64224	3969.425
2475.39782	3935.525
2478.15167	3948.425
2480.90379	3954.025
2483.65417	3957.525
2486.40283	3948.625
2489.14976	3949.825
2491.89497	3931.925
2494.63845	3944.625
2497.3802	3939.925
2500.12024	3933.425
2502.85855	3916.825
2505.59514	3925.125
2508.33002	3920.325
2511.06318	3889.025
2513.79462	3892.925
2516.52435	3855.525
2519.25237	3831.725
2521.97867	3842.125
2524.70327	3844.225
2527.42616	3839.425
2530.14734	3861.025
2532.86681	3816.325
2535.58458	3827.325
2538.30065	3823.625
2541.01501	3831.825
2543.72768	3784.525
2546.43864	3816.325
2549.14791	3802.525
2551.85548	3773.525
2554.56136	3777.925
2557.26554	3781.025
2559.96803	3766.025
2562.66883	3763.525
2565.36794	3739.025
2568.06536	3725.325
2570.7611	3739.625
2573.45514	3717.225
2576.14751	3707.325
2578.83819	3689.825
2581.52719	3693.925
2584.21451	3702.025
2586.90015	3678.825
2589.58411	3651.425
2592.2664	3666.125
2594.94701	3669.025
2597.62594	3670.925
2600.30321	3581.025
2602.9788	3613.425
2605.65273	3617.025
2608.32498	3615.125
2610.99557	3619.925
2613.66449	3601.025
2616.33175	3599.925
2618.99734	3611.525
2621.66128	3611.925
2624.32355	3599.425
2626.98416	3560.925
2629.64311	3567.825
2632.30041	3563.925
2634.95605	3548.625
2637.61004	3531.225
2640.26238	3518.725
2642.91306	3518.925
2645.56209	3537.925
2648.20948	3537.625
2650.85521	3510.325
2653.4993	3541.125
2656.14175	3521.025
2658.78255	3505.625
2661.42171	3483.825
2664.05923	3519.425
2666.6951	3515.325
2669.32934	3519.925
2671.96194	3535.525
2674.59291	3510.525
2677.22224	3523.025
2679.84993	3521.825
2682.476	3507.425
2685.10043	3503.325
2687.72324	3487.625
2690.34441	3485.625
2692.96396	3491.125
2695.58188	3516.825
2698.19818	3496.625
2700.81285	3480.425
2703.4259	3469.425
2706.03733	3450.225
2708.64714	3460.225
2711.25533	3475.625
2713.86191	3484.025
2716.46687	3484.125
2719.07021	3466.325
2721.67194	3476.025
2724.27206	3492.925
2726.87057	3468.125
2729.46747	3462.425
2732.06276	3468.025
2734.65644	3439.325
2737.24852	3450.225
2739.83899	3423.725
2742.42786	3437.425
2745.01513	3451.425
2747.60079	3424.425
2750.18486	3410.025
2752.76733	3423.725
2755.3482	3403.225
2757.92747	3412.025
2760.50515	3392.525
2763.08123	3388.825
2765.65573	3387.225
2768.22863	3372.825
2770.79994	3348.725
2773.36967	3348.525
2775.9378	3352.325
2778.50435	3343.225
2781.06932	3337.225
2783.6327	3322.425
2786.1945	3346.525
2788.75471	3336.925
2791.31335	3331.925
2793.87041	3323.825
2796.42589	3304.725
2798.97979	3292.125
2801.53212	3293.425
2804.08288	3308.625
2806.63206	3287.725
2809.17967	3278.125
2811.72571	3273.325
2814.27018	3272.725
2816.81308	3256.725
2819.35442	3229.525
2821.89419	3224.025
2824.43239	3222.425
2826.96904	3240.325
2829.50412	3240.425
2832.03763	3212.125
2834.56959	3226.825
2837.1	3212.425
2839.62884	3215.025
2842.15613	3203.925
2844.68186	3224.825
2847.20604	3178.125
2849.72867	3177.825
2852.24974	3181.625
2854.76927	3151.925
2857.28724	3111.125
2859.80367	3172.425
2862.31855	3175.325
2864.83189	3163.125
2867.34368	3161.125
2869.85393	3185.625
2872.36264	3141.725
2874.8698	3142.025
2877.37543	3136.425
2879.87952	3138.125
2882.38207	3131.125
2884.88308	3123.625
2887.38256	3132.925
2889.88051	3119.125
2892.37692	3125.425
2894.8718	3118.925
2897.36515	3127.725
2899.85698	3110.525
2902.34727	3106.225
2904.83604	3118.925
2907.32328	3146.425
2909.809	3121.625
2912.29319	3125.925
2914.77587	3118.225
2917.25702	3148.925
2919.73665	3153.125
2922.21476	3141.925
2924.69136	3139.225
2927.16644	3121.525
2929.64	3122.225
2932.11205	3113.225
2934.58258	3102.525
2937.05161	3082.425
2939.51912	3088.225
2941.98513	3108.625
2944.44962	3095.625
2946.91261	3059.725
2949.37409	3072.325
2951.83407	3067.825
2954.29254	3068.825
2956.74951	3068.125
2959.20498	3039.825
2961.65895	3043.125
2964.11142	3040.725
2966.56239	3036.225
2969.01186	3037.325
2971.45984	3034.525
2973.90632	3013.425
2976.35131	3026.425
2978.7948	3028.125
2981.23681	3012.625
2983.67732	3010.025
2986.11635	2997.825
2988.55388	2973.625
2990.98993	2983.225
2993.4245	2964.525
2995.85758	2955.425
2998.28917	2942.725
3000.71928	2929.525
3003.14791	2933.925
3005.57506	2924.825
3008.00073	2914.825
3010.42493	2858.625
3012.84764	2908.225
3015.26888	2902.325
3017.68865	2885.725
3020.10694	2846.925
3022.52376	2861.025
3024.9391	2867.725
3027.35298	2858.825
3029.76539	2837.025
3032.17632	2847.325
3034.5858	2830.725
3036.9938	2830.625
3039.40034	2823.225
3041.80542	2823.625
3044.20903	2797.425
3046.61118	2784.525
3049.01187	2802.725
3051.4111	2792.025
3053.80888	2780.125
3056.20519	2770.125
3058.60005	2761.125
3060.99345	2774.525
3063.3854	2743.725
3065.7759	2738.625
3068.16494	2738.125
3070.55254	2711.825
3072.93868	2725.625
3075.32338	2723.025
3077.70662	2708.925
3080.08842	2690.525
3082.46878	2684.625
3084.84769	2701.525
3087.22515	2689.725
3089.60118	2697.525
3091.97576	2668.025
3094.3489	2668.325
3096.72061	2675.325
3099.09087	2670.225
3101.4597	2674.425
3103.82709	2660.025
3106.19305	2652.525
3108.55757	2644.325
3110.92066	2646.625
3113.28232	2658.625
3115.64255	2644.825
3118.00134	2645.025
3120.35871	2621.825
3122.71466	2611.025
3125.06917	2602.325
3127.42226	2597.225
3129.77393	2583.925
3132.12417	2589.025
3134.47299	2594.125
3136.82039	2574.125
3139.16636	2551.925
3141.51092	2572.125
3143.85406	2569.825
3146.19579	2562.325
3148.53609	2561.225
3150.87499	2567.925
3153.21246	2554.925
3155.54853	2558.625
3157.88318	2558.825
3160.21642	2568.825
3162.54826	2553.525
3164.87868	2564.725
3167.2077	2517.225
3169.5353	2539.825
3171.86151	2555.925
3174.18631	2533.825
3176.5097	2527.825
3178.83169	2532.625
3181.15228	2521.625
3183.47147	2493.225
3185.78926	2484.125
3188.10565	2495.925
3190.42065	2488.225
3192.73424	2491.125
3195.04645	2477.725
3197.35725	2453.425
3199.66667	2477.625
3201.97469	2473.625
3204.28132	2443.725
3206.58656	2466.725
3208.8904	2475.025
3211.19287	2469.325
3213.49394	2450.725
3215.79363	2448.325
3218.09193	2464.425
3220.38884	2448.725
3222.68438	2448.325
3224.97853	2433.025
3227.2713	2442.025
3229.56269	2433.925
3231.8527	2433.725
3234.14133	2427.425
3236.42858	2418.225
3238.71446	2396.725
3240.99896	2421.625
3243.28209	2393.325
3245.56384	2394.025
3247.84423	2389.125
3250.12324	2390.625
3252.40088	2386.025
3254.67715	2379.025
3256.95205	2373.025
3259.22558	2374.125
3261.49775	2378.025
3263.76855	2368.925
3266.03799	2367.225
3268.30606	2374.725
3270.57277	2371.425
3272.83812	2349.925
3275.10211	2349.525
3277.36474	2353.525
3279.62601	2352.225
3281.88593	2324.625
3284.14448	2317.225
3286.40168	2324.325
3288.65753	2310.525
3290.91202	2310.225
3293.16516	2292.825
3295.41695	2309.925
3297.66738	2317.125
3299.91647	2282.325
3302.16421	2289.525
3304.4106	2242.425
3306.65564	2260.625
3308.89933	2219.925
3311.14169	2219.725
3313.38269	2211.725
3315.62236	2179.525
3317.86068	2168.225
3320.09766	2159.825
3322.3333	2131.325
3324.5676	2123.425
3326.80056	2084.525
3329.03219	2072.025
3331.26248	0.925
3333.49143	0.325
3335.71905	0.525
