Data from AgNPs_UA_10uM_CRN_500uM_SU_RamanShift__93__13-20-50-272.txt Node

Date: Thu Aug 04 13:20:50 BST 2022
User: TCL
Spectrometer: QEP01345
Trigger mode: 4
Integration Time (sec): 1.000000E0
Scans to average: 10
Electric dark correction enabled: true
Nonlinearity correction enabled: false
Boxcar width: 0
XAxis mode: Raman Shifts
Number of Pixels in Spectrum: 1044
>>>>>Begin Spectral Data<<<<<
46.04893	1.4625
50.45542	-0.5375
54.85868	0.3625
59.25871	-0.3375
63.6555	20.6625
68.04907	23.0625
72.43941	22.8625
76.82654	22.3625
81.21044	22.7625
85.59113	23.5625
89.96862	24.5625
94.34289	26.9625
98.71396	25.6625
103.08183	30.0625
107.4465	29.7625
111.80798	30.8625
116.16626	32.4625
120.52136	34.2625
124.87327	35.9625
129.222	38.4625
133.56755	39.6625
137.90993	42.6625
142.24913	46.4625
146.58517	53.4625
150.91804	65.0625
155.24774	76.5625
159.57429	97.3625
163.89768	126.4625
168.21792	172.4625
172.53501	230.6625
176.84895	325.5625
181.15975	460.5625
185.46741	652.4625
189.77193	904.1625
194.07331	1223.9625
198.37157	1575.2625
202.6667	1947.4625
206.9587	2335.7625
211.24758	2698.6625
215.53334	3083.2625
219.81599	3479.6625
224.09553	3925.1625
228.37195	4420.0625
232.64527	4953.5625
236.91549	5496.7625
241.18261	5986.6625
245.44663	6370.6625
249.70755	6692.6625
253.96539	6988.9625
258.22014	7262.0625
262.4718	7463.5625
266.72039	7595.6625
270.96589	7650.8625
275.20832	7609.8625
279.44768	7513.6625
283.68397	7409.7625
287.91719	7321.5625
292.14735	7319.6625
296.37445	7412.6625
300.59849	7608.6625
304.81948	7853.8625
309.03742	8065.8625
313.25231	8157.3625
317.46415	8102.8625
321.67296	7848.2625
325.87872	7577.4625
330.08145	7442.2625
334.28114	7427.9625
338.47781	7519.6625
342.67145	7667.3625
346.86207	7863.3625
351.04966	8152.2625
355.23424	8428.1625
359.4158	8629.0625
363.59435	8757.1625
367.76989	8806.1625
371.94243	8814.3625
376.11196	8787.4625
380.27849	8808.2625
384.44203	8855.3625
388.60257	8869.6625
392.76012	8967.4625
396.91468	9093.1625
401.06626	9233.1625
405.21485	9281.6625
409.36047	9182.1625
413.50311	8942.3625
417.64277	8713.9625
421.77947	8555.4625
425.9132	8517.4625
430.04396	8496.6625
434.17176	8527.5625
438.2966	8653.0625
442.41849	8806.7625
446.53742	9017.6625
450.6534	9211.7625
454.76644	9348.5625
458.87653	9412.5625
462.98368	9397.8625
467.08789	9337.3625
471.18916	9149.6625
475.2875	8979.0625
479.38291	8803.2625
483.4754	8696.1625
487.56496	8617.5625
491.6516	8610.4625
495.73531	8595.6625
499.81612	8638.1625
503.89401	8682.2625
507.96899	8763.4625
512.04106	8794.0625
516.11023	8820.9625
520.1765	8849.4625
524.23987	8892.0625
528.30034	8911.1625
532.35792	8862.4625
536.41261	8789.1625
540.46441	8689.4625
544.51333	8665.5625
548.55936	8752.9625
552.60252	8853.9625
556.64279	9007.1625
560.6802	9111.6625
564.71473	9212.0625
568.7464	9292.1625
572.7752	9243.4625
576.80114	9068.6625
580.82422	8918.7625
584.84444	8896.9625
588.86181	8931.0625
592.87633	9058.0625
596.888	9226.0625
600.89682	9596.9625
604.9028	10615.9625
608.90594	12606.9625
612.90624	14491.9625
616.90371	13375.1625
620.89834	10671.4625
624.89015	9646.9625
628.87913	9574.7625
632.86528	9667.1625
636.84862	9653.3625
640.82913	9423.0625
644.80683	9066.3625
648.78172	8904.9625
652.75379	8916.5625
656.72306	9160.7625
660.68952	9454.1625
664.65319	9423.5625
668.61405	9295.3625
672.57211	9377.2625
676.52738	9344.2625
680.47986	9159.3625
684.42955	8996.7625
688.37646	8945.1625
692.32058	9037.5625
696.26192	9206.0625
700.20048	9384.0625
704.13626	9396.8625
708.06928	9265.8625
711.99952	9154.3625
715.927	9169.5625
719.85171	9222.8625
723.77365	9236.5625
727.69284	9155.4625
731.60928	9085.7625
735.52295	9075.2625
739.43388	9130.4625
743.34206	9184.5625
747.24749	9187.1625
751.15017	9190.0625
755.05012	9300.8625
758.94733	9593.6625
762.8418	10324.4625
766.73354	11372.9625
770.62254	12262.8625
774.50882	12452.3625
778.39237	12059.8625
782.27321	11316.9625
786.15132	10446.2625
790.02671	9839.6625
793.89938	9510.1625
797.76935	9340.1625
801.6366	9256.4625
805.50115	9211.2625
809.36299	9169.1625
813.22213	9168.4625
817.07857	9141.8625
820.93231	9150.1625
824.78336	9152.2625
828.63172	9159.8625
832.47738	9177.5625
836.32036	9177.8625
840.16066	9192.1625
843.99827	9202.6625
847.8332	9189.7625
851.66546	9194.0625
855.49504	9190.3625
859.32195	9218.1625
863.1462	9208.3625
866.96777	9162.2625
870.78668	9180.8625
874.60293	9199.4625
878.41652	9254.4625
882.22745	9336.3625
886.03573	9376.9625
889.84136	9350.4625
893.64433	9330.8625
897.44466	9296.6625
901.24235	9261.0625
905.0374	9247.4625
908.8298	9202.7625
912.61957	9210.4625
916.40671	9215.7625
920.19121	9277.8625
923.97308	9344.9625
927.75233	9446.9625
931.52895	9544.6625
935.30295	9478.6625
939.07433	9316.4625
942.84309	9216.3625
946.60924	9171.8625
950.37278	9163.5625
954.13371	9141.4625
957.89203	9119.8625
961.64774	9099.4625
965.40086	9070.0625
969.15137	9071.3625
972.89929	9091.5625
976.64461	9078.9625
980.38733	9098.4625
984.12747	9137.0625
987.86502	9181.5625
991.59999	9241.2625
995.33237	9399.5625
999.06217	9569.7625
1002.78939	9773.5625
1006.51404	9937.2625
1010.23611	10033.6625
1013.95561	10128.8625
1017.67255	10170.1625
1021.38692	10219.4625
1025.09872	10192.0625
1028.80796	10220.9625
1032.51465	10350.4625
1036.21877	10463.1625
1039.92035	10471.5625
1043.61937	10382.7625
1047.31584	10237.0625
1051.00976	10112.1625
1054.70114	10078.9625
1058.38998	10108.6625
1062.07627	10156.2625
1065.76003	10175.6625
1069.44126	10259.5625
1073.11995	10417.9625
1076.79611	10593.0625
1080.46974	10743.2625
1084.14085	10814.3625
1087.80943	10914.7625
1091.47549	10949.3625
1095.13903	10900.8625
1098.80005	10886.4625
1102.45857	10942.7625
1106.11456	10907.2625
1109.76805	10776.6625
1113.41903	10792.9625
1117.06751	10884.9625
1120.71348	11057.4625
1124.35696	11217.6625
1127.99793	11357.0625
1131.63641	11195.8625
1135.2724	10904.2625
1138.90589	10685.6625
1142.5369	10530.4625
1146.16542	10447.3625
1149.79145	10350.2625
1153.415	10285.4625
1157.03607	10275.0625
1160.65467	10366.1625
1164.27079	10582.0625
1167.88443	10918.0625
1171.49561	11412.8625
1175.10432	12154.6625
1178.71056	13149.2625
1182.31434	13988.4625
1185.91565	14407.3625
1189.51451	14386.5625
1193.11091	14098.1625
1196.70485	13712.0625
1200.29634	13310.3625
1203.88538	12887.9625
1207.47197	12410.9625
1211.05612	11953.8625
1214.63782	11600.8625
1218.21708	11368.8625
1221.79391	11287.4625
1225.36829	11294.3625
1228.94024	11289.2625
1232.50976	11193.1625
1236.07685	11153.5625
1239.6415	11143.0625
1243.20374	11198.3625
1246.76355	11293.2625
1250.32093	11404.1625
1253.8759	11632.7625
1257.42845	11894.6625
1260.97859	12245.1625
1264.52631	12526.5625
1268.07163	12801.5625
1271.61453	12977.1625
1275.15503	13094.7625
1278.69312	13185.6625
1282.22882	13306.2625
1285.76211	13421.0625
1289.29301	13572.4625
1292.82151	13802.3625
1296.34761	14065.4625
1299.87133	14538.1625
1303.39266	15320.6625
1306.9116	16537.0625
1310.42815	17780.9625
1313.94233	18357.1625
1317.45412	17936.4625
1320.96354	16999.2625
1324.47058	15995.8625
1327.97525	15149.8625
1331.47754	14653.0625
1334.97747	14523.6625
1338.47502	14637.5625
1341.97022	15065.0625
1345.46305	15779.5625
1348.95352	16779.6625
1352.44163	17854.3625
1355.92738	18998.6625
1359.41078	20264.3625
1362.89183	21140.4625
1366.37053	20062.0625
1369.84688	17588.4625
1373.32088	15288.2625
1376.79254	14002.8625
1380.26186	13375.5625
1383.72883	12984.5625
1387.19347	12679.8625
1390.65578	12305.7625
1394.11575	12001.4625
1397.57339	11779.0625
1401.0287	11692.4625
1404.48168	11710.6625
1407.93234	11795.9625
1411.38068	11982.9625
1414.82669	12132.2625
1418.27039	12159.3625
1421.71177	12097.8625
1425.15083	12059.7625
1428.58758	12008.5625
1432.02203	12077.7625
1435.45416	12176.2625
1438.88399	12192.0625
1442.31151	12141.7625
1445.73673	12109.3625
1449.15965	12104.1625
1452.58027	12016.6625
1455.9986	11966.2625
1459.41463	11931.2625
1462.82837	12044.1625
1466.23982	12222.4625
1469.64898	12429.4625
1473.05586	12589.4625
1476.46045	12756.5625
1479.86276	12864.0625
1483.26279	13026.2625
1486.66054	13214.8625
1490.05602	13513.3625
1493.44922	14019.0625
1496.84016	14746.5625
1500.22882	15857.8625
1503.61521	17119.3625
1506.99934	18397.0625
1510.38121	19076.0625
1513.76081	18777.4625
1517.13816	17553.0625
1520.51324	15953.1625
1523.88607	14709.2625
1527.25665	13910.4625
1530.62498	13534.0625
1533.99105	13308.0625
1537.35488	13215.6625
1540.71647	13111.0625
1544.07581	13011.4625
1547.4329	12881.8625
1550.78776	12759.6625
1554.14038	12658.7625
1557.49077	12592.3625
1560.83892	12715.0625
1564.18484	12927.4625
1567.52853	13143.9625
1570.86999	13317.2625
1574.20922	13351.7625
1577.54624	13176.0625
1580.88103	12705.3625
1584.2136	12239.8625
1587.54395	12036.5625
1590.87208	12227.0625
1594.19801	12780.9625
1597.52172	13428.3625
1600.84321	13716.3625
1604.16251	13602.0625
1607.47959	13236.2625
1610.79447	12722.9625
1614.10715	12071.1625
1617.41763	11443.7625
1620.7259	10980.3625
1624.03199	10750.4625
1627.33587	10740.0625
1630.63757	10908.7625
1633.93707	11347.8625
1637.23439	12085.6625
1640.52951	13096.3625
1643.82246	14336.4625
1647.11321	15506.6625
1650.40179	15801.2625
1653.68819	14896.8625
1656.97241	13235.6625
1660.25446	11678.4625
1663.53433	10658.1625
1666.81203	10045.2625
1670.08756	9690.8625
1673.36092	9440.8625
1676.63211	9315.7625
1679.90115	9181.6625
1683.16801	9099.3625
1686.43272	8995.8625
1689.69527	8961.2625
1692.95567	8935.9625
1696.2139	8895.8625
1699.46999	8853.6625
1702.72392	8854.1625
1705.97571	8833.4625
1709.22535	8839.7625
1712.47284	8849.8625
1715.71819	8829.0625
1718.96139	8836.3625
1722.20246	8816.2625
1725.44139	8793.8625
1728.67818	8745.8625
1731.91284	8684.7625
1735.14537	8648.8625
1738.37576	8623.0625
1741.60403	8579.4625
1744.83017	8578.5625
1748.05418	8551.4625
1751.27607	8528.9625
1754.49584	8530.0625
1757.71349	8513.0625
1760.92903	8486.6625
1764.14244	8482.6625
1767.35375	8458.6625
1770.56294	8457.4625
1773.77002	8446.4625
1776.97499	8408.1625
1780.17785	8396.3625
1783.37861	8349.5625
1786.57727	8364.6625
1789.77382	8329.8625
1792.96828	8337.5625
1796.16064	8326.1625
1799.3509	8333.1625
1802.53907	8310.6625
1805.72514	8312.5625
1808.90913	8258.6625
1812.09102	8247.9625
1815.27083	8221.0625
1818.44856	8204.0625
1821.6242	8162.1625
1824.79776	8159.5625
1827.96924	8164.9625
1831.13864	8147.2625
1834.30597	8127.9625
1837.47122	8129.1625
1840.6344	8095.7625
1843.7955	8111.8625
1846.95454	8109.7625
1850.11151	8118.1625
1853.26642	8103.6625
1856.41926	8088.1625
1859.57004	8093.2625
1862.71876	8072.8625
1865.86542	8081.5625
1869.01003	8075.2625
1872.15258	8056.3625
1875.29308	8044.7625
1878.43152	8036.5625
1881.56792	8023.4625
1884.70227	8016.1625
1887.83457	7995.9625
1890.96482	8003.3625
1894.09304	7976.1625
1897.21921	7963.1625
1900.34335	7947.4625
1903.46544	7955.3625
1906.58551	7944.9625
1909.70353	7930.0625
1912.81953	7943.7625
1915.93349	7903.4625
1919.04543	7904.7625
1922.15534	7880.1625
1925.26322	7890.8625
1928.36908	7871.8625
1931.47292	7832.1625
1934.57473	7812.4625
1937.67453	7805.1625
1940.77232	7790.5625
1943.86808	7778.9625
1946.96184	7741.6625
1950.05358	7733.8625
1953.14331	7706.2625
1956.23103	7691.0625
1959.31675	7644.6625
1962.40046	7615.1625
1965.48217	7606.7625
1968.56188	7580.9625
1971.63959	7554.5625
1974.7153	7556.8625
1977.78901	7544.1625
1980.86073	7509.0625
1983.93046	7484.2625
1986.99819	7458.5625
1990.06394	7460.3625
1993.1277	7415.6625
1996.18947	7390.0625
1999.24925	7361.7625
2002.30706	7344.3625
2005.36288	7306.1625
2008.41672	7281.1625
2011.46859	7273.9625
2014.51848	7249.0625
2017.56639	7236.9625
2020.61233	7221.2625
2023.6563	7197.1625
2026.6983	7172.1625
2029.73833	7141.4625
2032.7764	7132.4625
2035.8125	7126.3625
2038.84664	7096.6625
2041.87881	7088.8625
2044.90903	7081.6625
2047.93729	7073.7625
2050.96359	7059.8625
2053.98794	7042.9625
2057.01034	7029.1625
2060.03078	7036.8625
2063.04927	7031.1625
2066.06582	7014.2625
2069.08042	6984.2625
2072.09307	6994.6625
2075.10378	6991.5625
2078.11255	6990.3625
2081.11938	6976.5625
2084.12426	6958.4625
2087.12722	6945.0625
2090.12824	6983.9625
2093.12732	6955.4625
2096.12447	6955.7625
2099.11969	6965.1625
2102.11299	6974.4625
2105.10435	6965.7625
2108.09379	6960.0625
2111.08131	6969.3625
2114.0669	6988.8625
2117.05057	6968.7625
2120.03233	6982.2625
2123.01216	6985.9625
2125.99008	6973.4625
2128.96609	6980.9625
2131.94018	7008.0625
2134.91236	7013.8625
2137.88263	6999.1625
2140.851	6981.6625
2143.81746	6989.1625
2146.78201	6990.6625
2149.74466	6985.2625
2152.7054	6995.9625
2155.66425	6991.2625
2158.6212	6978.6625
2161.57625	6959.7625
2164.52941	6963.1625
2167.48067	6967.7625
2170.43004	6958.3625
2173.37752	6948.6625
2176.32311	6960.6625
2179.26681	6951.4625
2182.20863	6966.8625
2185.14856	6965.9625
2188.08661	6955.8625
2191.02278	6982.4625
2193.95707	6963.9625
2196.88948	6948.7625
2199.82001	6949.9625
2202.74867	6928.6625
2205.67545	6964.5625
2208.60037	6947.9625
2211.52341	6913.9625
2214.44458	6900.9625
2217.36388	6888.0625
2220.28132	6887.4625
2223.1969	6855.4625
2226.11061	6853.6625
2229.02246	6815.4625
2231.93245	6817.2625
2234.84058	6799.5625
2237.74686	6780.8625
2240.65128	6782.6625
2243.55385	6754.4625
2246.45456	6748.1625
2249.35343	6743.6625
2252.25044	6746.3625
2255.14561	6717.1625
2258.03893	6752.3625
2260.93041	6728.5625
2263.82004	6703.1625
2266.70783	6671.9625
2269.59378	6664.5625
2272.4779	6665.8625
2275.36017	6628.2625
2278.24061	6632.6625
2281.11922	6598.6625
2283.996	6582.3625
2286.87094	6590.3625
2289.74405	6568.3625
2292.61534	6588.4625
2295.4848	6549.1625
2298.35243	6540.1625
2301.21824	6540.9625
2304.08223	6538.0625
2306.94439	6550.2625
2309.80474	6526.7625
2312.66327	6530.7625
2315.51999	6525.5625
2318.37489	6533.8625
2321.22797	6535.7625
2324.07925	6507.9625
2326.92871	6488.7625
2329.77637	6490.5625
2332.62222	6483.4625
2335.46626	6472.9625
2338.3085	6465.1625
2341.14893	6449.9625
2343.98756	6468.3625
2346.8244	6465.9625
2349.65943	6443.7625
2352.49267	6444.7625
2355.32411	6455.0625
2358.15376	6448.8625
2360.98161	6446.6625
2363.80768	6451.2625
2366.63195	6438.6625
2369.45444	6428.4625
2372.27514	6396.2625
2375.09405	6392.7625
2377.91118	6377.4625
2380.72652	6369.5625
2383.54009	6358.2625
2386.35187	6338.5625
2389.16188	6322.1625
2391.97011	6298.9625
2394.77657	6286.3625
2397.58125	6285.9625
2400.38416	6276.7625
2403.18529	6269.7625
2405.98466	6272.9625
2408.78226	6243.0625
2411.57809	6221.5625
2414.37216	6209.5625
2417.16446	6194.8625
2419.955	6188.6625
2422.74378	6193.8625
2425.5308	6190.1625
2428.31606	6201.6625
2431.09956	6185.1625
2433.88131	6170.4625
2436.6613	6163.2625
2439.43954	6147.7625
2442.21603	6165.5625
2444.99077	6155.4625
2447.76377	6161.0625
2450.53501	6160.0625
2453.30451	6140.8625
2456.07226	6128.8625
2458.83827	6127.3625
2461.60254	6122.3625
2464.36507	6092.8625
2467.12586	6086.4625
2469.88492	6076.5625
2472.64224	6090.1625
2475.39782	6091.1625
2478.15167	6097.4625
2480.90379	6086.4625
2483.65417	6067.9625
2486.40283	6078.4625
2489.14976	6093.2625
2491.89497	6092.1625
2494.63845	6075.3625
2497.3802	6043.1625
2500.12024	6065.8625
2502.85855	6062.7625
2505.59514	6058.0625
2508.33002	6049.1625
2511.06318	6023.2625
2513.79462	6004.1625
2516.52435	5997.5625
2519.25237	5983.5625
2521.97867	5968.3625
2524.70327	5961.3625
2527.42616	5960.9625
2530.14734	5960.1625
2532.86681	5942.1625
2535.58458	5980.8625
2538.30065	5967.1625
2541.01501	5955.8625
2543.72768	5950.5625
2546.43864	5932.7625
2549.14791	5924.3625
2551.85548	5926.8625
2554.56136	5907.7625
2557.26554	5902.6625
2559.96803	5897.4625
2562.66883	5869.3625
2565.36794	5849.2625
2568.06536	5844.4625
2570.7611	5840.1625
2573.45514	5841.6625
2576.14751	5827.4625
2578.83819	5797.0625
2581.52719	5804.2625
2584.21451	5807.0625
2586.90015	5800.5625
2589.58411	5791.7625
2592.2664	5777.0625
2594.94701	5762.8625
2597.62594	5760.3625
2600.30321	5747.1625
2602.9788	5748.8625
2605.65273	5741.9625
2608.32498	5740.4625
2610.99557	5726.6625
2613.66449	5731.2625
2616.33175	5725.1625
2618.99734	5731.0625
2621.66128	5698.3625
2624.32355	5700.3625
2626.98416	5687.0625
2629.64311	5674.0625
2632.30041	5688.9625
2634.95605	5662.0625
2637.61004	5662.0625
2640.26238	5648.8625
2642.91306	5647.7625
2645.56209	5643.9625
2648.20948	5642.0625
2650.85521	5627.9625
2653.4993	5626.7625
2656.14175	5610.0625
2658.78255	5617.5625
2661.42171	5601.7625
2664.05923	5619.9625
2666.6951	5634.6625
2669.32934	5649.7625
2671.96194	5649.4625
2674.59291	5648.3625
2677.22224	5629.8625
2679.84993	5624.2625
2682.476	5621.9625
2685.10043	5626.6625
2687.72324	5616.2625
2690.34441	5622.4625
2692.96396	5615.2625
2695.58188	5596.7625
2698.19818	5590.9625
2700.81285	5598.5625
2703.4259	5564.0625
2706.03733	5602.4625
2708.64714	5578.2625
2711.25533	5557.8625
2713.86191	5571.1625
2716.46687	5570.7625
2719.07021	5579.2625
2721.67194	5579.9625
2724.27206	5571.0625
2726.87057	5577.1625
2729.46747	5570.4625
2732.06276	5568.9625
2734.65644	5568.2625
2737.24852	5555.8625
2739.83899	5531.3625
2742.42786	5537.7625
2745.01513	5523.1625
2747.60079	5503.9625
2750.18486	5497.8625
2752.76733	5507.8625
2755.3482	5506.0625
2757.92747	5483.3625
2760.50515	5466.4625
2763.08123	5471.0625
2765.65573	5455.3625
2768.22863	5457.1625
2770.79994	5431.8625
2773.36967	5436.1625
2775.9378	5445.0625
2778.50435	5447.0625
2781.06932	5434.2625
2783.6327	5433.1625
2786.1945	5427.1625
2788.75471	5409.3625
2791.31335	5389.8625
2793.87041	5382.1625
2796.42589	5379.7625
2798.97979	5367.7625
2801.53212	5357.2625
2804.08288	5331.7625
2806.63206	5333.5625
2809.17967	5318.7625
2811.72571	5320.9625
2814.27018	5312.1625
2816.81308	5291.0625
2819.35442	5283.4625
2821.89419	5279.6625
2824.43239	5267.4625
2826.96904	5253.7625
2829.50412	5260.9625
2832.03763	5233.3625
2834.56959	5234.5625
2837.1	5213.0625
2839.62884	5211.5625
2842.15613	5207.0625
2844.68186	5203.2625
2847.20604	5204.7625
2849.72867	5197.5625
2852.24974	5190.4625
2854.76927	5162.5625
2857.28724	5140.3625
2859.80367	5140.2625
2862.31855	5160.9625
2864.83189	5145.6625
2867.34368	5156.0625
2869.85393	5141.2625
2872.36264	5110.7625
2874.8698	5125.9625
2877.37543	5131.9625
2879.87952	5106.0625
2882.38207	5095.6625
2884.88308	5098.8625
2887.38256	5096.3625
2889.88051	5108.5625
2892.37692	5081.6625
2894.8718	5088.9625
2897.36515	5086.7625
2899.85698	5103.9625
2902.34727	5093.1625
2904.83604	5095.9625
2907.32328	5116.9625
2909.809	5100.4625
2912.29319	5113.9625
2914.77587	5109.6625
2917.25702	5125.1625
2919.73665	5110.0625
2922.21476	5113.0625
2924.69136	5097.5625
2927.16644	5069.6625
2929.64	5074.4625
2932.11205	5055.8625
2934.58258	5037.2625
2937.05161	5042.3625
2939.51912	5057.9625
2941.98513	5053.5625
2944.44962	5027.9625
2946.91261	5018.5625
2949.37409	5034.0625
2951.83407	5031.2625
2954.29254	5008.5625
2956.74951	5019.8625
2959.20498	5023.5625
2961.65895	5005.7625
2964.11142	4999.5625
2966.56239	5007.7625
2969.01186	4990.0625
2971.45984	4997.6625
2973.90632	4976.8625
2976.35131	4956.6625
2978.7948	4966.8625
2981.23681	4954.5625
2983.67732	4943.5625
2986.11635	4917.7625
2988.55388	4922.2625
2990.98993	4898.2625
2993.4245	4904.2625
2995.85758	4892.5625
2998.28917	4862.5625
3000.71928	4859.3625
3003.14791	4852.2625
3005.57506	4828.0625
3008.00073	4814.7625
3010.42493	4795.3625
3012.84764	4808.5625
3015.26888	4795.7625
3017.68865	4780.9625
3020.10694	4790.1625
3022.52376	4757.7625
3024.9391	4758.4625
3027.35298	4725.1625
3029.76539	4723.0625
3032.17632	4714.9625
3034.5858	4717.0625
3036.9938	4703.8625
3039.40034	4675.8625
3041.80542	4669.1625
3044.20903	4670.1625
3046.61118	4656.1625
3049.01187	4656.5625
3051.4111	4653.8625
3053.80888	4638.5625
3056.20519	4619.2625
3058.60005	4606.0625
3060.99345	4605.0625
3063.3854	4599.6625
3065.7759	4574.0625
3068.16494	4566.1625
3070.55254	4547.8625
3072.93868	4534.4625
3075.32338	4514.2625
3077.70662	4507.3625
3080.08842	4513.6625
3082.46878	4510.0625
3084.84769	4480.6625
3087.22515	4481.4625
3089.60118	4484.4625
3091.97576	4470.4625
3094.3489	4464.2625
3096.72061	4459.7625
3099.09087	4460.4625
3101.4597	4457.0625
3103.82709	4466.9625
3106.19305	4456.4625
3108.55757	4452.5625
3110.92066	4441.2625
3113.28232	4452.1625
3115.64255	4446.5625
3118.00134	4394.4625
3120.35871	4398.6625
3122.71466	4402.4625
3125.06917	4377.1625
3127.42226	4373.3625
3129.77393	4375.4625
3132.12417	4365.8625
3134.47299	4347.2625
3136.82039	4339.5625
3139.16636	4343.9625
3141.51092	4331.0625
3143.85406	4332.8625
3146.19579	4324.2625
3148.53609	4332.2625
3150.87499	4323.9625
3153.21246	4318.4625
3155.54853	4339.3625
3157.88318	4319.7625
3160.21642	4310.0625
3162.54826	4310.7625
3164.87868	4308.0625
3167.2077	4298.7625
3169.5353	4286.4625
3171.86151	4286.6625
3174.18631	4274.0625
3176.5097	4257.6625
3178.83169	4257.7625
3181.15228	4252.9625
3183.47147	4244.4625
3185.78926	4225.5625
3188.10565	4218.6625
3190.42065	4202.9625
3192.73424	4205.2625
3195.04645	4203.6625
3197.35725	4208.5625
3199.66667	4201.1625
3201.97469	4194.4625
3204.28132	4204.4625
3206.58656	4200.9625
3208.8904	4192.0625
3211.19287	4199.5625
3213.49394	4189.1625
3215.79363	4182.7625
3218.09193	4199.2625
3220.38884	4182.0625
3222.68438	4214.3625
3224.97853	4190.9625
3227.2713	4181.5625
3229.56269	4170.9625
3231.8527	4166.4625
3234.14133	4146.4625
3236.42858	4144.7625
3238.71446	4144.6625
3240.99896	4121.9625
3243.28209	4113.9625
3245.56384	4104.0625
3247.84423	4091.7625
3250.12324	4088.1625
3252.40088	4081.9625
3254.67715	4094.6625
3256.95205	4079.5625
3259.22558	4090.5625
3261.49775	4075.3625
3263.76855	4076.2625
3266.03799	4067.1625
3268.30606	4086.9625
3270.57277	4074.8625
3272.83812	4058.0625
3275.10211	4045.9625
3277.36474	4025.1625
3279.62601	4016.7625
3281.88593	4019.0625
3284.14448	4031.9625
3286.40168	4006.3625
3288.65753	4007.3625
3290.91202	4003.1625
3293.16516	3992.4625
3295.41695	3991.2625
3297.66738	3978.6625
3299.91647	3956.0625
3302.16421	3948.2625
3304.4106	3905.5625
3306.65564	3875.8625
3308.89933	3856.2625
3311.14169	3820.3625
3313.38269	3780.2625
3315.62236	3762.4625
3317.86068	3739.8625
3320.09766	3715.8625
3322.3333	3689.2625
3324.5676	3658.5625
3326.80056	3603.7625
3329.03219	3577.9625
3331.26248	1.2625
3333.49143	-0.6375
3335.71905	0.6625
