Data from AgNPs_UA_50uM_CRN_500uM_SU_RamanShift__81__14-09-20-329.txt Node

Date: Thu Aug 04 14:09:20 BST 2022
User: TCL
Spectrometer: QEP01345
Trigger mode: 4
Integration Time (sec): 1.000000E0
Scans to average: 10
Electric dark correction enabled: true
Nonlinearity correction enabled: false
Boxcar width: 0
XAxis mode: Raman Shifts
Number of Pixels in Spectrum: 1044
>>>>>Begin Spectral Data<<<<<
46.04893	0.9875
50.45542	-0.9125
54.85868	-0.5125
59.25871	-0.9125
63.6555	16.0875
68.04907	14.6875
72.43941	15.0875
76.82654	17.0875
81.21044	15.7875
85.59113	18.7875
89.96862	18.4875
94.34289	19.0875
98.71396	19.7875
103.08183	18.5875
107.4465	17.4875
111.80798	18.0875
116.16626	19.3875
120.52136	23.9875
124.87327	25.1875
129.222	24.8875
133.56755	27.9875
137.90993	27.9875
142.24913	29.6875
146.58517	33.0875
150.91804	41.3875
155.24774	46.9875
159.57429	60.3875
163.89768	77.9875
168.21792	100.2875
172.53501	141.4875
176.84895	198.4875
181.15975	278.5875
185.46741	391.3875
189.77193	542.8875
194.07331	725.7875
198.37157	926.6875
202.6667	1140.9875
206.9587	1356.3875
211.24758	1573.2875
215.53334	1790.5875
219.81599	2017.4875
224.09553	2276.6875
228.37195	2554.5875
232.64527	2867.5875
236.91549	3173.4875
241.18261	3482.1875
245.44663	3709.1875
249.70755	3923.9875
253.96539	4097.5875
258.22014	4281.8875
262.4718	4407.7875
266.72039	4523.1875
270.96589	4573.0875
275.20832	4570.0875
279.44768	4499.8875
283.68397	4414.9875
287.91719	4382.2875
292.14735	4370.4875
296.37445	4425.8875
300.59849	4525.7875
304.81948	4682.1875
309.03742	4806.6875
313.25231	4862.2875
317.46415	4779.3875
321.67296	4622.2875
325.87872	4459.9875
330.08145	4403.9875
334.28114	4432.0875
338.47781	4493.1875
342.67145	4600.0875
346.86207	4715.8875
351.04966	4893.8875
355.23424	5053.6875
359.4158	5204.8875
363.59435	5279.5875
367.76989	5336.7875
371.94243	5354.4875
376.11196	5382.9875
380.27849	5394.2875
384.44203	5423.1875
388.60257	5421.6875
392.76012	5479.8875
396.91468	5524.5875
401.06626	5646.0875
405.21485	5706.1875
409.36047	5641.3875
413.50311	5507.9875
417.64277	5349.9875
421.77947	5252.8875
425.9132	5267.3875
430.04396	5341.7875
434.17176	5432.6875
438.2966	5632.6875
442.41849	5857.1875
446.53742	6130.9875
450.6534	6445.0875
454.76644	6576.8875
458.87653	6562.3875
462.98368	6397.5875
467.08789	6191.2875
471.18916	5917.3875
475.2875	5692.5875
479.38291	5491.0875
483.4754	5367.9875
487.56496	5267.8875
491.6516	5210.0875
495.73531	5171.8875
499.81612	5164.7875
503.89401	5191.7875
507.96899	5238.0875
512.04106	5271.8875
516.11023	5323.7875
520.1765	5398.1875
524.23987	5447.7875
528.30034	5459.9875
532.35792	5456.0875
536.41261	5362.8875
540.46441	5262.1875
544.51333	5230.2875
548.55936	5296.5875
552.60252	5368.0875
556.64279	5462.9875
560.6802	5482.4875
564.71473	5456.7875
568.7464	5501.1875
572.7752	5504.8875
576.80114	5446.3875
580.82422	5453.4875
584.84444	5559.2875
588.86181	5799.3875
592.87633	6068.5875
596.888	6231.4875
600.89682	6381.3875
604.9028	6964.9875
608.90594	8151.8875
612.90624	9208.2875
616.90371	8358.4875
620.89834	6660.3875
624.89015	6036.7875
628.87913	5951.1875
632.86528	5857.5875
636.84862	5716.2875
640.82913	5525.5875
644.80683	5313.8875
648.78172	5228.8875
652.75379	5271.5875
656.72306	5451.7875
660.68952	5631.0875
664.65319	5580.0875
668.61405	5472.5875
672.57211	5446.9875
676.52738	5416.5875
680.47986	5353.9875
684.42955	5291.8875
688.37646	5301.9875
692.32058	5360.9875
696.26192	5444.9875
700.20048	5551.3875
704.13626	5550.7875
708.06928	5445.2875
711.99952	5416.5875
715.927	5402.0875
719.85171	5463.2875
723.77365	5446.7875
727.69284	5381.0875
731.60928	5340.2875
735.52295	5391.5875
739.43388	5442.2875
743.34206	5474.7875
747.24749	5514.9875
751.15017	5543.1875
755.05012	5606.6875
758.94733	5812.9875
762.8418	6255.1875
766.73354	6885.8875
770.62254	7467.0875
774.50882	7684.1875
778.39237	7334.2875
782.27321	6669.6875
786.15132	6079.3875
790.02671	5706.5875
793.89938	5556.5875
797.76935	5492.4875
801.6366	5480.1875
805.50115	5447.8875
809.36299	5413.1875
813.22213	5391.2875
817.07857	5373.6875
820.93231	5365.1875
824.78336	5380.7875
828.63172	5391.1875
832.47738	5425.3875
836.32036	5432.2875
840.16066	5461.6875
843.99827	5495.4875
847.8332	5449.4875
851.66546	5422.0875
855.49504	5414.0875
859.32195	5426.4875
863.1462	5386.9875
866.96777	5387.3875
870.78668	5366.5875
874.60293	5358.9875
878.41652	5413.1875
882.22745	5445.2875
886.03573	5461.0875
889.84136	5436.7875
893.64433	5405.7875
897.44466	5405.6875
901.24235	5380.2875
905.0374	5363.0875
908.8298	5343.3875
912.61957	5352.1875
916.40671	5394.5875
920.19121	5464.8875
923.97308	5559.5875
927.75233	5608.9875
931.52895	5647.0875
935.30295	5567.6875
939.07433	5447.8875
942.84309	5368.6875
946.60924	5358.4875
950.37278	5321.9875
954.13371	5285.5875
957.89203	5236.7875
961.64774	5212.7875
965.40086	5188.9875
969.15137	5186.6875
972.89929	5170.0875
976.64461	5164.7875
980.38733	5216.6875
984.12747	5229.8875
987.86502	5294.5875
991.59999	5387.4875
995.33237	5566.0875
999.06217	5814.0875
1002.78939	6082.5875
1006.51404	6158.8875
1010.23611	6212.2875
1013.95561	6316.9875
1017.67255	6387.9875
1021.38692	6341.6875
1025.09872	6297.5875
1028.80796	6385.0875
1032.51465	6581.6875
1036.21877	6715.9875
1039.92035	6663.3875
1043.61937	6531.8875
1047.31584	6284.1875
1051.00976	6088.5875
1054.70114	5980.6875
1058.38998	5977.8875
1062.07627	5956.4875
1065.76003	5983.5875
1069.44126	6015.4875
1073.11995	6050.2875
1076.79611	6089.5875
1080.46974	6178.1875
1084.14085	6262.8875
1087.80943	6309.6875
1091.47549	6300.3875
1095.13903	6189.3875
1098.80005	6042.3875
1102.45857	5967.7875
1106.11456	5983.4875
1109.76805	6013.1875
1113.41903	6132.4875
1117.06751	6241.1875
1120.71348	6404.6875
1124.35696	6569.4875
1127.99793	6655.9875
1131.63641	6549.3875
1135.2724	6391.0875
1138.90589	6249.1875
1142.5369	6124.6875
1146.16542	6052.3875
1149.79145	6029.5875
1153.415	6022.4875
1157.03607	6052.7875
1160.65467	6175.3875
1164.27079	6351.2875
1167.88443	6610.3875
1171.49561	7036.1875
1175.10432	7702.7875
1178.71056	8560.9875
1182.31434	9368.3875
1185.91565	9858.2875
1189.51451	9890.4875
1193.11091	9466.5875
1196.70485	8819.6875
1200.29634	8229.1875
1203.88538	7735.8875
1207.47197	7326.7875
1211.05612	7053.2875
1214.63782	6907.0875
1218.21708	6910.7875
1221.79391	7003.4875
1225.36829	7068.1875
1228.94024	7044.2875
1232.50976	6985.9875
1236.07685	6977.5875
1239.6415	7007.2875
1243.20374	7042.3875
1246.76355	7090.7875
1250.32093	7162.5875
1253.8759	7374.5875
1257.42845	7635.0875
1260.97859	7908.5875
1264.52631	8102.5875
1268.07163	8287.8875
1271.61453	8406.2875
1275.15503	8560.0875
1278.69312	8721.9875
1282.22882	8899.5875
1285.76211	9166.3875
1289.29301	9422.6875
1292.82151	9647.5875
1296.34761	9889.7875
1299.87133	10277.8875
1303.39266	10896.7875
1306.9116	11722.1875
1310.42815	12631.7875
1313.94233	12995.8875
1317.45412	12720.0875
1320.96354	12102.4875
1324.47058	11495.0875
1327.97525	11084.5875
1331.47754	11024.3875
1334.97747	11232.3875
1338.47502	11457.5875
1341.97022	11652.3875
1345.46305	11831.6875
1348.95352	12143.8875
1352.44163	12649.1875
1355.92738	13361.2875
1359.41078	14264.5875
1362.89183	14708.1875
1366.37053	13874.3875
1369.84688	12262.4875
1373.32088	10770.1875
1376.79254	9831.2875
1380.26186	9380.2875
1383.72883	9135.9875
1387.19347	8846.9875
1390.65578	8472.4875
1394.11575	8168.4875
1397.57339	8055.9875
1401.0287	8093.1875
1404.48168	8323.7875
1407.93234	8597.8875
1411.38068	8838.8875
1414.82669	8900.0875
1418.27039	8748.6875
1421.71177	8531.1875
1425.15083	8460.7875
1428.58758	8549.6875
1432.02203	8792.9875
1435.45416	8977.6875
1438.88399	8990.4875
1442.31151	8899.2875
1445.73673	8841.4875
1449.15965	8774.1875
1452.58027	8609.9875
1455.9986	8407.7875
1459.41463	8304.6875
1462.82837	8417.8875
1466.23982	8636.2875
1469.64898	8869.0875
1473.05586	9086.9875
1476.46045	9256.5875
1479.86276	9360.1875
1483.26279	9442.6875
1486.66054	9497.5875
1490.05602	9617.8875
1493.44922	9798.6875
1496.84016	10097.6875
1500.22882	10597.9875
1503.61521	11246.4875
1506.99934	11874.0875
1510.38121	12180.8875
1513.76081	11892.8875
1517.13816	11153.4875
1520.51324	10312.9875
1523.88607	9698.0875
1527.25665	9391.8875
1530.62498	9307.9875
1533.99105	9326.0875
1537.35488	9332.7875
1540.71647	9343.3875
1544.07581	9284.8875
1547.4329	9096.7875
1550.78776	8846.9875
1554.14038	8585.1875
1557.49077	8415.8875
1560.83892	8358.2875
1564.18484	8370.0875
1567.52853	8448.0875
1570.86999	8529.4875
1574.20922	8519.2875
1577.54624	8424.3875
1580.88103	8140.3875
1584.2136	7951.1875
1587.54395	8004.2875
1590.87208	8434.4875
1594.19801	9272.4875
1597.52172	10272.5875
1600.84321	10953.2875
1604.16251	10874.6875
1607.47959	10152.8875
1610.79447	9148.2875
1614.10715	8226.7875
1617.41763	7539.7875
1620.7259	7124.4875
1624.03199	6956.5875
1627.33587	6955.3875
1630.63757	7185.7875
1633.93707	7647.7875
1637.23439	8321.7875
1640.52951	9238.0875
1643.82246	10217.9875
1647.11321	10872.8875
1650.40179	10670.6875
1653.68819	9704.5875
1656.97241	8372.6875
1660.25446	7280.0875
1663.53433	6550.0875
1666.81203	6105.6875
1670.08756	5857.5875
1673.36092	5673.4875
1676.63211	5542.6875
1679.90115	5466.6875
1683.16801	5393.4875
1686.43272	5347.7875
1689.69527	5304.4875
1692.95567	5282.4875
1696.2139	5264.9875
1699.46999	5261.5875
1702.72392	5259.1875
1705.97571	5259.9875
1709.22535	5254.3875
1712.47284	5257.6875
1715.71819	5251.2875
1718.96139	5233.4875
1722.20246	5214.6875
1725.44139	5207.3875
1728.67818	5167.4875
1731.91284	5165.1875
1735.14537	5125.1875
1738.37576	5092.2875
1741.60403	5079.5875
1744.83017	5072.5875
1748.05418	5064.0875
1751.27607	5041.9875
1754.49584	5021.6875
1757.71349	5024.2875
1760.92903	5007.8875
1764.14244	5017.0875
1767.35375	5026.2875
1770.56294	5004.4875
1773.77002	5010.1875
1776.97499	4989.2875
1780.17785	4989.2875
1783.37861	4971.1875
1786.57727	4962.9875
1789.77382	4957.4875
1792.96828	4958.1875
1796.16064	4955.6875
1799.3509	4944.4875
1802.53907	4944.6875
1805.72514	4932.9875
1808.90913	4920.8875
1812.09102	4915.9875
1815.27083	4903.7875
1818.44856	4894.8875
1821.6242	4872.4875
1824.79776	4872.1875
1827.96924	4856.4875
1831.13864	4851.5875
1834.30597	4852.8875
1837.47122	4832.1875
1840.6344	4818.5875
1843.7955	4844.6875
1846.95454	4833.4875
1850.11151	4845.4875
1853.26642	4833.1875
1856.41926	4834.2875
1859.57004	4854.6875
1862.71876	4845.2875
1865.86542	4822.7875
1869.01003	4824.5875
1872.15258	4833.9875
1875.29308	4848.7875
1878.43152	4823.0875
1881.56792	4835.7875
1884.70227	4829.5875
1887.83457	4829.1875
1890.96482	4814.5875
1894.09304	4816.5875
1897.21921	4810.1875
1900.34335	4797.9875
1903.46544	4805.6875
1906.58551	4781.3875
1909.70353	4772.5875
1912.81953	4768.2875
1915.93349	4762.9875
1919.04543	4779.1875
1922.15534	4773.2875
1925.26322	4756.4875
1928.36908	4754.7875
1931.47292	4751.3875
1934.57473	4759.2875
1937.67453	4752.9875
1940.77232	4719.6875
1943.86808	4708.9875
1946.96184	4716.6875
1950.05358	4704.5875
1953.14331	4675.4875
1956.23103	4667.2875
1959.31675	4635.9875
1962.40046	4636.5875
1965.48217	4623.6875
1968.56188	4607.5875
1971.63959	4608.6875
1974.7153	4588.5875
1977.78901	4565.9875
1980.86073	4555.0875
1983.93046	4548.1875
1986.99819	4528.9875
1990.06394	4516.9875
1993.1277	4514.0875
1996.18947	4499.1875
1999.24925	4477.6875
2002.30706	4470.4875
2005.36288	4452.3875
2008.41672	4431.1875
2011.46859	4428.8875
2014.51848	4430.8875
2017.56639	4385.9875
2020.61233	4399.0875
2023.6563	4394.4875
2026.6983	4360.9875
2029.73833	4355.7875
2032.7764	4358.7875
2035.8125	4343.9875
2038.84664	4347.8875
2041.87881	4345.6875
2044.90903	4319.6875
2047.93729	4317.4875
2050.96359	4319.5875
2053.98794	4305.8875
2057.01034	4310.8875
2060.03078	4306.6875
2063.04927	4302.1875
2066.06582	4314.2875
2069.08042	4298.3875
2072.09307	4284.1875
2075.10378	4276.4875
2078.11255	4282.3875
2081.11938	4286.6875
2084.12426	4279.4875
2087.12722	4278.7875
2090.12824	4257.4875
2093.12732	4260.3875
2096.12447	4256.3875
2099.11969	4284.2875
2102.11299	4271.2875
2105.10435	4268.5875
2108.09379	4264.5875
2111.08131	4272.1875
2114.0669	4268.9875
2117.05057	4262.3875
2120.03233	4262.7875
2123.01216	4270.4875
2125.99008	4260.3875
2128.96609	4282.0875
2131.94018	4281.9875
2134.91236	4274.0875
2137.88263	4301.7875
2140.851	4268.9875
2143.81746	4268.8875
2146.78201	4262.2875
2149.74466	4271.1875
2152.7054	4257.0875
2155.66425	4280.8875
2158.6212	4272.6875
2161.57625	4274.3875
2164.52941	4265.0875
2167.48067	4269.3875
2170.43004	4264.8875
2173.37752	4273.4875
2176.32311	4258.9875
2179.26681	4263.2875
2182.20863	4277.0875
2185.14856	4274.7875
2188.08661	4273.2875
2191.02278	4275.3875
2193.95707	4265.3875
2196.88948	4256.5875
2199.82001	4252.9875
2202.74867	4246.9875
2205.67545	4255.5875
2208.60037	4264.6875
2211.52341	4270.8875
2214.44458	4268.2875
2217.36388	4258.6875
2220.28132	4242.6875
2223.1969	4220.3875
2226.11061	4222.4875
2229.02246	4215.1875
2231.93245	4202.9875
2234.84058	4206.1875
2237.74686	4198.1875
2240.65128	4164.9875
2243.55385	4177.6875
2246.45456	4174.0875
2249.35343	4165.5875
2252.25044	4161.2875
2255.14561	4154.5875
2258.03893	4156.4875
2260.93041	4139.5875
2263.82004	4148.6875
2266.70783	4131.0875
2269.59378	4120.5875
2272.4779	4109.0875
2275.36017	4110.7875
2278.24061	4069.7875
2281.11922	4057.9875
2283.996	4059.6875
2286.87094	4057.1875
2289.74405	4065.4875
2292.61534	4062.8875
2295.4848	4042.3875
2298.35243	4050.5875
2301.21824	4053.6875
2304.08223	4042.8875
2306.94439	4050.3875
2309.80474	4056.3875
2312.66327	4054.4875
2315.51999	4069.1875
2318.37489	4061.1875
2321.22797	4055.3875
2324.07925	4044.8875
2326.92871	4039.0875
2329.77637	4043.1875
2332.62222	4023.0875
2335.46626	4029.4875
2338.3085	4042.4875
2341.14893	4050.9875
2343.98756	4055.3875
2346.8244	4046.3875
2349.65943	4048.9875
2352.49267	4046.8875
2355.32411	4035.1875
2358.15376	4031.2875
2360.98161	4038.7875
2363.80768	4025.4875
2366.63195	4023.4875
2369.45444	4014.6875
2372.27514	4002.7875
2375.09405	4002.5875
2377.91118	3983.6875
2380.72652	3984.1875
2383.54009	3969.6875
2386.35187	3952.3875
2389.16188	3959.9875
2391.97011	3962.6875
2394.77657	3941.7875
2397.58125	3927.3875
2400.38416	3923.3875
2403.18529	3904.1875
2405.98466	3906.0875
2408.78226	3884.4875
2411.57809	3893.6875
2414.37216	3870.6875
2417.16446	3868.0875
2419.955	3864.1875
2422.74378	3875.7875
2425.5308	3851.3875
2428.31606	3855.7875
2431.09956	3865.9875
2433.88131	3846.4875
2436.6613	3848.0875
2439.43954	3849.2875
2442.21603	3849.7875
2444.99077	3845.5875
2447.76377	3839.3875
2450.53501	3839.1875
2453.30451	3836.4875
2456.07226	3828.3875
2458.83827	3831.2875
2461.60254	3837.5875
2464.36507	3849.8875
2467.12586	3832.1875
2469.88492	3805.3875
2472.64224	3816.2875
2475.39782	3831.1875
2478.15167	3809.6875
2480.90379	3827.7875
2483.65417	3824.1875
2486.40283	3840.2875
2489.14976	3840.1875
2491.89497	3853.1875
2494.63845	3840.9875
2497.3802	3847.5875
2500.12024	3835.6875
2502.85855	3826.1875
2505.59514	3840.0875
2508.33002	3831.1875
2511.06318	3825.2875
2513.79462	3819.3875
2516.52435	3793.0875
2519.25237	3796.6875
2521.97867	3781.8875
2524.70327	3789.8875
2527.42616	3793.7875
2530.14734	3791.5875
2532.86681	3799.3875
2535.58458	3806.9875
2538.30065	3804.6875
2541.01501	3804.1875
2543.72768	3786.4875
2546.43864	3779.3875
2549.14791	3786.6875
2551.85548	3780.3875
2554.56136	3787.3875
2557.26554	3759.7875
2559.96803	3763.0875
2562.66883	3750.5875
2565.36794	3754.4875
2568.06536	3748.3875
2570.7611	3743.9875
2573.45514	3746.8875
2576.14751	3734.0875
2578.83819	3721.6875
2581.52719	3729.5875
2584.21451	3727.0875
2586.90015	3725.8875
2589.58411	3720.6875
2592.2664	3727.0875
2594.94701	3728.4875
2597.62594	3719.3875
2600.30321	3728.5875
2602.9788	3722.3875
2605.65273	3701.6875
2608.32498	3702.4875
2610.99557	3714.0875
2613.66449	3715.5875
2616.33175	3711.1875
2618.99734	3724.5875
2621.66128	3711.8875
2624.32355	3716.1875
2626.98416	3719.5875
2629.64311	3713.2875
2632.30041	3732.0875
2634.95605	3717.1875
2637.61004	3705.1875
2640.26238	3689.1875
2642.91306	3680.3875
2645.56209	3695.1875
2648.20948	3700.2875
2650.85521	3695.5875
2653.4993	3684.5875
2656.14175	3688.3875
2658.78255	3679.7875
2661.42171	3687.8875
2664.05923	3684.8875
2666.6951	3700.3875
2669.32934	3701.7875
2671.96194	3682.4875
2674.59291	3692.1875
2677.22224	3689.7875
2679.84993	3701.4875
2682.476	3692.6875
2685.10043	3691.9875
2687.72324	3688.0875
2690.34441	3680.0875
2692.96396	3671.5875
2695.58188	3667.8875
2698.19818	3664.8875
2700.81285	3683.5875
2703.4259	3664.4875
2706.03733	3670.3875
2708.64714	3686.3875
2711.25533	3661.1875
2713.86191	3655.0875
2716.46687	3676.3875
2719.07021	3682.0875
2721.67194	3676.8875
2724.27206	3665.4875
2726.87057	3655.0875
2729.46747	3673.1875
2732.06276	3679.8875
2734.65644	3675.4875
2737.24852	3678.6875
2739.83899	3657.4875
2742.42786	3666.4875
2745.01513	3666.1875
2747.60079	3666.7875
2750.18486	3656.4875
2752.76733	3658.6875
2755.3482	3652.0875
2757.92747	3650.0875
2760.50515	3638.0875
2763.08123	3653.2875
2765.65573	3632.8875
2768.22863	3625.2875
2770.79994	3638.5875
2773.36967	3636.2875
2775.9378	3639.5875
2778.50435	3635.6875
2781.06932	3623.3875
2783.6327	3631.1875
2786.1945	3629.3875
2788.75471	3645.6875
2791.31335	3624.2875
2793.87041	3623.9875
2796.42589	3607.3875
2798.97979	3609.0875
2801.53212	3600.5875
2804.08288	3606.3875
2806.63206	3584.2875
2809.17967	3573.5875
2811.72571	3570.4875
2814.27018	3573.4875
2816.81308	3561.4875
2819.35442	3560.9875
2821.89419	3551.6875
2824.43239	3551.0875
2826.96904	3548.5875
2829.50412	3539.1875
2832.03763	3517.9875
2834.56959	3521.7875
2837.1	3531.8875
2839.62884	3524.0875
2842.15613	3531.6875
2844.68186	3526.4875
2847.20604	3510.7875
2849.72867	3500.9875
2852.24974	3497.1875
2854.76927	3490.1875
2857.28724	3485.9875
2859.80367	3488.0875
2862.31855	3508.0875
2864.83189	3486.2875
2867.34368	3470.1875
2869.85393	3479.0875
2872.36264	3469.5875
2874.8698	3455.5875
2877.37543	3473.0875
2879.87952	3461.1875
2882.38207	3451.2875
2884.88308	3458.5875
2887.38256	3446.1875
2889.88051	3450.9875
2892.37692	3454.9875
2894.8718	3442.9875
2897.36515	3442.7875
2899.85698	3445.9875
2902.34727	3440.1875
2904.83604	3446.0875
2907.32328	3454.9875
2909.809	3467.2875
2912.29319	3468.9875
2914.77587	3466.5875
2917.25702	3463.3875
2919.73665	3454.3875
2922.21476	3452.4875
2924.69136	3448.0875
2927.16644	3448.5875
2929.64	3445.4875
2932.11205	3436.2875
2934.58258	3414.9875
2937.05161	3435.6875
2939.51912	3432.5875
2941.98513	3426.8875
2944.44962	3412.8875
2946.91261	3413.4875
2949.37409	3415.0875
2951.83407	3417.6875
2954.29254	3410.2875
2956.74951	3416.0875
2959.20498	3411.5875
2961.65895	3396.1875
2964.11142	3404.0875
2966.56239	3379.2875
2969.01186	3384.9875
2971.45984	3379.1875
2973.90632	3383.6875
2976.35131	3368.3875
2978.7948	3373.3875
2981.23681	3341.4875
2983.67732	3353.6875
2986.11635	3329.9875
2988.55388	3330.2875
2990.98993	3324.1875
2993.4245	3289.7875
2995.85758	3296.7875
2998.28917	3282.3875
3000.71928	3288.5875
3003.14791	3284.0875
3005.57506	3281.6875
3008.00073	3240.9875
3010.42493	3255.7875
3012.84764	3249.1875
3015.26888	3236.2875
3017.68865	3220.4875
3020.10694	3229.5875
3022.52376	3202.7875
3024.9391	3207.8875
3027.35298	3205.3875
3029.76539	3189.2875
3032.17632	3184.5875
3034.5858	3186.7875
3036.9938	3174.0875
3039.40034	3169.5875
3041.80542	3168.4875
3044.20903	3160.7875
3046.61118	3163.5875
3049.01187	3161.5875
3051.4111	3146.5875
3053.80888	3132.5875
3056.20519	3120.2875
3058.60005	3114.9875
3060.99345	3125.5875
3063.3854	3112.4875
3065.7759	3092.4875
3068.16494	3075.4875
3070.55254	3074.0875
3072.93868	3062.5875
3075.32338	3054.6875
3077.70662	3032.5875
3080.08842	3035.6875
3082.46878	3047.6875
3084.84769	3012.2875
3087.22515	3007.0875
3089.60118	3032.2875
3091.97576	3002.6875
3094.3489	3011.6875
3096.72061	3009.3875
3099.09087	3001.6875
3101.4597	2990.0875
3103.82709	3002.5875
3106.19305	2980.4875
3108.55757	2998.7875
3110.92066	2964.5875
3113.28232	2976.9875
3115.64255	2962.5875
3118.00134	2947.5875
3120.35871	2946.1875
3122.71466	2951.9875
3125.06917	2947.0875
3127.42226	2929.7875
3129.77393	2937.8875
3132.12417	2932.6875
3134.47299	2933.9875
3136.82039	2920.2875
3139.16636	2914.4875
3141.51092	2908.5875
3143.85406	2904.4875
3146.19579	2904.8875
3148.53609	2905.0875
3150.87499	2899.1875
3153.21246	2899.7875
3155.54853	2921.0875
3157.88318	2903.1875
3160.21642	2911.0875
3162.54826	2904.7875
3164.87868	2897.1875
3167.2077	2896.1875
3169.5353	2891.2875
3171.86151	2881.8875
3174.18631	2877.8875
3176.5097	2888.7875
3178.83169	2872.2875
3181.15228	2877.6875
3183.47147	2865.4875
3185.78926	2853.7875
3188.10565	2854.9875
3190.42065	2846.7875
3192.73424	2842.8875
3195.04645	2842.9875
3197.35725	2834.5875
3199.66667	2827.6875
3201.97469	2839.6875
3204.28132	2835.5875
3206.58656	2832.6875
3208.8904	2833.2875
3211.19287	2845.1875
3213.49394	2837.1875
3215.79363	2824.6875
3218.09193	2820.6875
3220.38884	2820.1875
3222.68438	2816.8875
3224.97853	2828.6875
3227.2713	2820.4875
3229.56269	2808.6875
3231.8527	2811.7875
3234.14133	2804.0875
3236.42858	2791.7875
3238.71446	2805.2875
3240.99896	2783.1875
3243.28209	2780.7875
3245.56384	2783.1875
3247.84423	2797.9875
3250.12324	2785.3875
3252.40088	2778.4875
3254.67715	2765.3875
3256.95205	2753.6875
3259.22558	2758.7875
3261.49775	2759.3875
3263.76855	2762.2875
3266.03799	2747.3875
3268.30606	2755.2875
3270.57277	2748.0875
3272.83812	2745.9875
3275.10211	2728.4875
3277.36474	2733.6875
3279.62601	2724.8875
3281.88593	2712.7875
3284.14448	2714.9875
3286.40168	2716.1875
3288.65753	2711.0875
3290.91202	2710.5875
3293.16516	2706.9875
3295.41695	2718.4875
3297.66738	2691.5875
3299.91647	2674.0875
3302.16421	2651.3875
3304.4106	2642.6875
3306.65564	2629.0875
3308.89933	2596.0875
3311.14169	2584.0875
3313.38269	2550.0875
3315.62236	2548.0875
3317.86068	2519.8875
3320.09766	2510.8875
3322.3333	2476.9875
3324.5676	2464.8875
3326.80056	2427.6875
3329.03219	2410.1875
3331.26248	0.4875
3333.49143	0.1875
3335.71905	-0.4125
