Data from AgNPs_UA_5uM_CRN_500uM_SU_RamanShift__286__12-17-03-197.txt Node

Date: Thu Aug 04 12:17:03 BST 2022
User: TCL
Spectrometer: QEP01345
Trigger mode: 4
Integration Time (sec): 1.000000E0
Scans to average: 10
Electric dark correction enabled: true
Nonlinearity correction enabled: false
Boxcar width: 0
XAxis mode: Raman Shifts
Number of Pixels in Spectrum: 1044
>>>>>Begin Spectral Data<<<<<
46.04893	-0.1625
50.45542	1.0375
54.85868	-0.7625
59.25871	-1.4625
63.6555	-57.5625
68.04907	-38.1625
72.43941	-70.7625
76.82654	-57.3625
81.21044	-56.1625
85.59113	-50.9625
89.96862	-74.2625
94.34289	-56.1625
98.71396	-76.8625
103.08183	-59.0625
107.4465	-48.9625
111.80798	-56.9625
116.16626	-44.5625
120.52136	-74.2625
124.87327	-49.7625
129.222	-62.7625
133.56755	-50.6625
137.90993	-64.3625
142.24913	-50.9625
146.58517	-42.8625
150.91804	-40.4625
155.24774	-27.9625
159.57429	-10.5625
163.89768	-6.4625
168.21792	39.1375
172.53501	56.4375
176.84895	142.4375
181.15975	270.4375
185.46741	418.8375
189.77193	604.1375
194.07331	894.0375
198.37157	1180.1375
202.6667	1457.2375
206.9587	1787.6375
211.24758	2102.3375
215.53334	2416.3375
219.81599	2782.4375
224.09553	3189.1375
228.37195	3620.0375
232.64527	4087.4375
236.91549	4548.7375
241.18261	4901.8375
245.44663	5188.4375
249.70755	5362.9375
253.96539	5452.2375
258.22014	5590.7375
262.4718	5653.4375
266.72039	5697.3375
270.96589	5665.2375
275.20832	5569.5375
279.44768	5466.0375
283.68397	5352.8375
287.91719	5307.9375
292.14735	5346.9375
296.37445	5516.4375
300.59849	5818.1375
304.81948	6162.7375
309.03742	6554.9375
313.25231	6798.9375
317.46415	6758.6375
321.67296	6377.8375
325.87872	5946.4375
330.08145	5743.0375
334.28114	5697.5375
338.47781	5750.7375
342.67145	5894.6375
346.86207	6130.9375
351.04966	6484.6375
355.23424	6893.5375
359.4158	7156.0375
363.59435	7177.4375
367.76989	7102.8375
371.94243	6970.3375
376.11196	6873.1375
380.27849	6781.9375
384.44203	6703.0375
388.60257	6672.4375
392.76012	6663.5375
396.91468	6799.3375
401.06626	6949.3375
405.21485	6983.0375
409.36047	6806.1375
413.50311	6478.9375
417.64277	6171.9375
421.77947	5962.6375
425.9132	5904.1375
430.04396	5878.1375
434.17176	5932.7375
438.2966	6013.0375
442.41849	6068.9375
446.53742	6220.3375
450.6534	6310.2375
454.76644	6385.0375
458.87653	6394.6375
462.98368	6355.2375
467.08789	6279.3375
471.18916	6194.2375
475.2875	6050.2375
479.38291	5945.4375
483.4754	5855.6375
487.56496	5825.0375
491.6516	5779.5375
495.73531	5780.2375
499.81612	5815.4375
503.89401	5904.1375
507.96899	5953.9375
512.04106	6048.2375
516.11023	6155.9375
520.1765	6226.6375
524.23987	6248.8375
528.30034	6247.5375
532.35792	6153.7375
536.41261	6112.0375
540.46441	6006.4375
544.51333	5951.2375
548.55936	5992.8375
552.60252	6115.2375
556.64279	6233.4375
560.6802	6370.2375
564.71473	6505.2375
568.7464	6686.5375
572.7752	6662.9375
576.80114	6353.1375
580.82422	6137.7375
584.84444	6038.9375
588.86181	6027.9375
592.87633	6052.0375
596.888	6160.8375
600.89682	6533.8375
604.9028	7529.5375
608.90594	9690.7375
612.90624	12094.0375
616.90371	11173.4375
620.89834	8014.4375
624.89015	6651.4375
628.87913	6413.1375
632.86528	6582.2375
636.84862	6776.8375
640.82913	6615.9375
644.80683	6259.4375
648.78172	6064.2375
652.75379	6106.3375
656.72306	6355.6375
660.68952	6587.7375
664.65319	6478.7375
668.61405	6246.0375
672.57211	6158.7375
676.52738	6177.0375
680.47986	6073.9375
684.42955	5964.8375
688.37646	5935.7375
692.32058	5936.2375
696.26192	5994.6375
700.20048	6097.1375
704.13626	6134.1375
708.06928	6082.2375
711.99952	6074.6375
715.927	6031.0375
719.85171	6085.1375
723.77365	6131.2375
727.69284	6107.5375
731.60928	6080.0375
735.52295	6046.4375
739.43388	6088.7375
743.34206	6114.6375
747.24749	6143.4375
751.15017	6136.6375
755.05012	6231.3375
758.94733	6629.6375
762.8418	7507.4375
766.73354	8899.2375
770.62254	9947.1375
774.50882	10045.6375
778.39237	9468.6375
782.27321	8488.5375
786.15132	7429.1375
790.02671	6718.3375
793.89938	6326.9375
797.76935	6199.2375
801.6366	6094.6375
805.50115	6063.1375
809.36299	6046.5375
813.22213	6023.5375
817.07857	6026.8375
820.93231	6020.3375
824.78336	6065.2375
828.63172	6062.1375
832.47738	6058.3375
836.32036	6069.9375
840.16066	6024.4375
843.99827	6007.5375
847.8332	6014.4375
851.66546	6023.9375
855.49504	6012.9375
859.32195	6048.3375
863.1462	6033.2375
866.96777	6038.9375
870.78668	6026.8375
874.60293	6047.0375
878.41652	6073.9375
882.22745	6151.2375
886.03573	6183.3375
889.84136	6160.5375
893.64433	6174.2375
897.44466	6146.5375
901.24235	6174.0375
905.0374	6157.9375
908.8298	6078.4375
912.61957	6068.3375
916.40671	6010.5375
920.19121	6079.2375
923.97308	6161.2375
927.75233	6238.6375
931.52895	6282.4375
935.30295	6244.5375
939.07433	6098.6375
942.84309	5977.9375
946.60924	5931.5375
950.37278	5893.9375
954.13371	5884.6375
957.89203	5871.3375
961.64774	5930.2375
965.40086	5884.4375
969.15137	5867.4375
972.89929	5885.2375
976.64461	5871.1375
980.38733	5913.1375
984.12747	5905.5375
987.86502	5923.7375
991.59999	5941.3375
995.33237	6018.3375
999.06217	6073.1375
1002.78939	6162.1375
1006.51404	6298.8375
1010.23611	6388.7375
1013.95561	6421.4375
1017.67255	6419.1375
1021.38692	6434.2375
1025.09872	6360.2375
1028.80796	6272.4375
1032.51465	6277.7375
1036.21877	6263.5375
1039.92035	6302.5375
1043.61937	6348.0375
1047.31584	6398.4375
1051.00976	6445.7375
1054.70114	6454.1375
1058.38998	6421.0375
1062.07627	6443.4375
1065.76003	6480.5375
1069.44126	6538.5375
1073.11995	6650.8375
1076.79611	6760.3375
1080.46974	6916.3375
1084.14085	7093.4375
1087.80943	7223.6375
1091.47549	7260.8375
1095.13903	7154.4375
1098.80005	7043.2375
1102.45857	6937.5375
1106.11456	6907.2375
1109.76805	6835.3375
1113.41903	6964.1375
1117.06751	7159.7375
1120.71348	7418.8375
1124.35696	7817.8375
1127.99793	8117.8375
1131.63641	7947.3375
1135.2724	7530.0375
1138.90589	7223.0375
1142.5369	7021.6375
1146.16542	6879.2375
1149.79145	6766.1375
1153.415	6765.3375
1157.03607	6757.5375
1160.65467	6865.7375
1164.27079	7077.5375
1167.88443	7362.2375
1171.49561	7792.8375
1175.10432	8443.4375
1178.71056	9398.5375
1182.31434	10236.0375
1185.91565	10508.0375
1189.51451	10350.2375
1193.11091	10101.6375
1196.70485	9797.9375
1200.29634	9540.1375
1203.88538	9247.3375
1207.47197	8758.2375
1211.05612	8292.2375
1214.63782	7827.0375
1218.21708	7564.1375
1221.79391	7427.1375
1225.36829	7330.7375
1228.94024	7343.7375
1232.50976	7359.8375
1236.07685	7370.7375
1239.6415	7386.5375
1243.20374	7410.2375
1246.76355	7452.2375
1250.32093	7537.7375
1253.8759	7600.4375
1257.42845	7772.6375
1260.97859	7985.8375
1264.52631	8245.0375
1268.07163	8394.2375
1271.61453	8515.5375
1275.15503	8581.8375
1278.69312	8604.0375
1282.22882	8651.7375
1285.76211	8870.3375
1289.29301	9119.8375
1292.82151	9400.2375
1296.34761	9626.9375
1299.87133	10029.7375
1303.39266	10769.4375
1306.9116	11936.9375
1310.42815	13229.2375
1313.94233	13691.0375
1317.45412	12869.4375
1320.96354	11674.3375
1324.47058	10664.3375
1327.97525	9860.7375
1331.47754	9428.0375
1334.97747	9304.4375
1338.47502	9432.9375
1341.97022	9810.7375
1345.46305	10589.9375
1348.95352	11716.7375
1352.44163	13089.4375
1355.92738	14555.4375
1359.41078	16348.9375
1362.89183	17909.8375
1366.37053	17286.9375
1369.84688	14317.5375
1373.32088	11493.6375
1376.79254	9945.4375
1380.26186	9234.1375
1383.72883	8782.4375
1387.19347	8387.5375
1390.65578	7995.9375
1394.11575	7765.9375
1397.57339	7559.0375
1401.0287	7468.1375
1404.48168	7424.0375
1407.93234	7423.3375
1411.38068	7456.7375
1414.82669	7523.1375
1418.27039	7578.8375
1421.71177	7586.3375
1425.15083	7486.4375
1428.58758	7398.6375
1432.02203	7417.6375
1435.45416	7498.2375
1438.88399	7504.4375
1442.31151	7491.0375
1445.73673	7548.7375
1449.15965	7602.0375
1452.58027	7617.0375
1455.9986	7604.8375
1459.41463	7631.7375
1462.82837	7739.1375
1466.23982	7937.2375
1469.64898	8169.8375
1473.05586	8298.4375
1476.46045	8395.9375
1479.86276	8485.5375
1483.26279	8625.0375
1486.66054	8817.9375
1490.05602	9113.3375
1493.44922	9710.9375
1496.84016	10647.6375
1500.22882	12084.0375
1503.61521	13933.3375
1506.99934	15783.2375
1510.38121	17024.8375
1513.76081	16863.2375
1517.13816	15208.5375
1520.51324	12963.3375
1523.88607	11218.5375
1527.25665	10193.9375
1530.62498	9658.6375
1533.99105	9461.7375
1537.35488	9336.3375
1540.71647	9206.1375
1544.07581	9074.9375
1547.4329	8922.6375
1550.78776	8767.8375
1554.14038	8674.3375
1557.49077	8647.0375
1560.83892	8749.3375
1564.18484	9012.7375
1567.52853	9354.2375
1570.86999	9703.1375
1574.20922	9844.5375
1577.54624	9736.0375
1580.88103	9191.5375
1584.2136	8470.3375
1587.54395	8066.4375
1590.87208	7965.5375
1594.19801	8123.5375
1597.52172	8510.3375
1600.84321	8654.5375
1604.16251	8504.1375
1607.47959	8301.9375
1610.79447	8089.8375
1614.10715	7813.4375
1617.41763	7518.3375
1620.7259	7237.8375
1624.03199	7069.9375
1627.33587	7012.8375
1630.63757	7058.0375
1633.93707	7278.4375
1637.23439	7705.1375
1640.52951	8422.4375
1643.82246	9418.5375
1647.11321	10647.1375
1650.40179	11420.4375
1653.68819	11098.3375
1656.97241	9804.8375
1660.25446	8353.0375
1663.53433	7296.0375
1666.81203	6675.2375
1670.08756	6311.9375
1673.36092	6150.7375
1676.63211	5976.0375
1679.90115	5877.6375
1683.16801	5803.1375
1686.43272	5699.6375
1689.69527	5662.1375
1692.95567	5603.3375
1696.2139	5605.0375
1699.46999	5543.8375
1702.72392	5558.1375
1705.97571	5549.7375
1709.22535	5533.7375
1712.47284	5561.0375
1715.71819	5578.5375
1718.96139	5555.1375
1722.20246	5551.6375
1725.44139	5516.3375
1728.67818	5489.6375
1731.91284	5440.1375
1735.14537	5400.7375
1738.37576	5382.3375
1741.60403	5360.1375
1744.83017	5325.2375
1748.05418	5337.2375
1751.27607	5324.3375
1754.49584	5285.3375
1757.71349	5263.7375
1760.92903	5256.0375
1764.14244	5217.4375
1767.35375	5219.9375
1770.56294	5210.4375
1773.77002	5193.0375
1776.97499	5181.8375
1780.17785	5179.3375
1783.37861	5154.9375
1786.57727	5166.0375
1789.77382	5101.6375
1792.96828	5130.6375
1796.16064	5130.5375
1799.3509	5118.7375
1802.53907	5130.1375
1805.72514	5097.3375
1808.90913	5060.9375
1812.09102	5065.0375
1815.27083	5067.7375
1818.44856	5059.6375
1821.6242	5035.3375
1824.79776	5020.5375
1827.96924	5012.0375
1831.13864	5003.3375
1834.30597	5003.2375
1837.47122	4975.4375
1840.6344	4972.1375
1843.7955	4963.2375
1846.95454	4940.8375
1850.11151	4970.8375
1853.26642	4930.3375
1856.41926	4931.6375
1859.57004	4918.2375
1862.71876	4926.1375
1865.86542	4930.5375
1869.01003	4912.5375
1872.15258	4884.5375
1875.29308	4910.2375
1878.43152	4914.1375
1881.56792	4883.0375
1884.70227	4848.0375
1887.83457	4878.2375
1890.96482	4854.2375
1894.09304	4840.0375
1897.21921	4849.5375
1900.34335	4840.7375
1903.46544	4822.9375
1906.58551	4850.1375
1909.70353	4829.9375
1912.81953	4815.9375
1915.93349	4788.1375
1919.04543	4805.9375
1922.15534	4785.0375
1925.26322	4789.1375
1928.36908	4772.7375
1931.47292	4754.1375
1934.57473	4774.6375
1937.67453	4732.7375
1940.77232	4694.5375
1943.86808	4694.4375
1946.96184	4694.7375
1950.05358	4670.3375
1953.14331	4659.4375
1956.23103	4656.0375
1959.31675	4628.2375
1962.40046	4584.6375
1965.48217	4615.3375
1968.56188	4598.3375
1971.63959	4578.4375
1974.7153	4589.8375
1977.78901	4564.7375
1980.86073	4558.0375
1983.93046	4496.3375
1986.99819	4424.8375
1990.06394	4441.7375
1993.1277	4472.8375
1996.18947	4470.1375
1999.24925	4408.8375
2002.30706	4426.8375
2005.36288	4412.8375
2008.41672	4380.9375
2011.46859	4364.2375
2014.51848	4364.7375
2017.56639	4342.6375
2020.61233	4328.2375
2023.6563	4332.5375
2026.6983	4278.3375
2029.73833	4275.6375
2032.7764	4287.7375
2035.8125	4241.1375
2038.84664	4237.1375
2041.87881	4230.4375
2044.90903	4231.7375
2047.93729	4227.8375
2050.96359	4214.2375
2053.98794	4208.0375
2057.01034	4212.8375
2060.03078	4185.7375
2063.04927	4182.1375
2066.06582	4190.8375
2069.08042	4167.0375
2072.09307	4191.8375
2075.10378	4174.9375
2078.11255	4165.5375
2081.11938	4162.8375
2084.12426	4143.4375
2087.12722	4141.0375
2090.12824	4154.9375
2093.12732	4154.6375
2096.12447	4157.9375
2099.11969	4147.2375
2102.11299	4124.5375
2105.10435	4152.6375
2108.09379	4161.2375
2111.08131	4140.6375
2114.0669	4143.3375
2117.05057	4150.9375
2120.03233	4135.3375
2123.01216	4157.4375
2125.99008	4163.6375
2128.96609	4165.3375
2131.94018	4176.4375
2134.91236	4162.6375
2137.88263	4147.6375
2140.851	4177.4375
2143.81746	4184.6375
2146.78201	4167.2375
2149.74466	4151.4375
2152.7054	4159.9375
2155.66425	4146.4375
2158.6212	4138.6375
2161.57625	4115.5375
2164.52941	4093.0375
2167.48067	4110.0375
2170.43004	4113.2375
2173.37752	4135.5375
2176.32311	4116.7375
2179.26681	4130.9375
2182.20863	4124.8375
2185.14856	4122.3375
2188.08661	4105.0375
2191.02278	4114.0375
2193.95707	4100.0375
2196.88948	4088.2375
2199.82001	4099.9375
2202.74867	4088.8375
2205.67545	4107.1375
2208.60037	4105.8375
2211.52341	4075.7375
2214.44458	4070.6375
2217.36388	4057.4375
2220.28132	4051.0375
2223.1969	4010.8375
2226.11061	4019.9375
2229.02246	4009.0375
2231.93245	3998.6375
2234.84058	3987.2375
2237.74686	3976.5375
2240.65128	3968.3375
2243.55385	3970.3375
2246.45456	3950.1375
2249.35343	3963.2375
2252.25044	3946.7375
2255.14561	3954.7375
2258.03893	3961.7375
2260.93041	3932.3375
2263.82004	3939.4375
2266.70783	3926.9375
2269.59378	3906.1375
2272.4779	3903.3375
2275.36017	3904.1375
2278.24061	3882.8375
2281.11922	3843.5375
2283.996	3874.1375
2286.87094	3835.9375
2289.74405	3844.9375
2292.61534	3842.5375
2295.4848	3836.6375
2298.35243	3828.6375
2301.21824	3814.2375
2304.08223	3794.6375
2306.94439	3825.4375
2309.80474	3827.5375
2312.66327	3800.9375
2315.51999	3783.9375
2318.37489	3794.2375
2321.22797	3775.0375
2324.07925	3761.2375
2326.92871	3768.9375
2329.77637	3753.3375
2332.62222	3743.5375
2335.46626	3726.1375
2338.3085	3716.9375
2341.14893	3736.4375
2343.98756	3725.6375
2346.8244	3714.4375
2349.65943	3706.6375
2352.49267	3715.2375
2355.32411	3711.6375
2358.15376	3719.1375
2360.98161	3710.1375
2363.80768	3707.6375
2366.63195	3705.6375
2369.45444	3720.2375
2372.27514	3698.7375
2375.09405	3706.4375
2377.91118	3688.1375
2380.72652	3677.2375
2383.54009	3674.4375
2386.35187	3673.3375
2389.16188	3646.7375
2391.97011	3641.9375
2394.77657	3639.3375
2397.58125	3620.6375
2400.38416	3611.4375
2403.18529	3598.6375
2405.98466	3597.8375
2408.78226	3593.3375
2411.57809	3575.1375
2414.37216	3570.9375
2417.16446	3573.3375
2419.955	3557.2375
2422.74378	3570.3375
2425.5308	3545.5375
2428.31606	3546.6375
2431.09956	3545.5375
2433.88131	3523.2375
2436.6613	3546.1375
2439.43954	3533.8375
2442.21603	3537.7375
2444.99077	3510.2375
2447.76377	3543.5375
2450.53501	3524.4375
2453.30451	3508.1375
2456.07226	3528.8375
2458.83827	3497.2375
2461.60254	3459.6375
2464.36507	3507.6375
2467.12586	3477.6375
2469.88492	3481.9375
2472.64224	3490.4375
2475.39782	3462.9375
2478.15167	3491.8375
2480.90379	3476.4375
2483.65417	3493.9375
2486.40283	3491.7375
2489.14976	3498.0375
2491.89497	3481.7375
2494.63845	3483.2375
2497.3802	3469.8375
2500.12024	3475.5375
2502.85855	3458.3375
2505.59514	3464.2375
2508.33002	3458.5375
2511.06318	3421.9375
2513.79462	3431.7375
2516.52435	3400.9375
2519.25237	3368.9375
2521.97867	3375.2375
2524.70327	3379.3375
2527.42616	3377.3375
2530.14734	3395.1375
2532.86681	3358.4375
2535.58458	3369.8375
2538.30065	3348.1375
2541.01501	3369.4375
2543.72768	3344.3375
2546.43864	3345.1375
2549.14791	3319.1375
2551.85548	3323.6375
2554.56136	3317.0375
2557.26554	3329.8375
2559.96803	3310.9375
2562.66883	3318.5375
2565.36794	3277.1375
2568.06536	3271.9375
2570.7611	3289.7375
2573.45514	3273.0375
2576.14751	3253.5375
2578.83819	3249.4375
2581.52719	3238.8375
2584.21451	3249.1375
2586.90015	3225.2375
2589.58411	3207.9375
2592.2664	3221.2375
2594.94701	3221.7375
2597.62594	3234.7375
2600.30321	3162.0375
2602.9788	3166.4375
2605.65273	3178.6375
2608.32498	3181.5375
2610.99557	3175.0375
2613.66449	3151.3375
2616.33175	3181.6375
2618.99734	3162.9375
2621.66128	3156.3375
2624.32355	3155.9375
2626.98416	3136.0375
2629.64311	3125.8375
2632.30041	3132.1375
2634.95605	3093.5375
2637.61004	3099.0375
2640.26238	3075.6375
2642.91306	3101.3375
2645.56209	3093.2375
2648.20948	3091.1375
2650.85521	3067.7375
2653.4993	3092.8375
2656.14175	3088.3375
2658.78255	3086.7375
2661.42171	3055.7375
2664.05923	3097.9375
2666.6951	3084.9375
2669.32934	3073.0375
2671.96194	3103.4375
2674.59291	3095.0375
2677.22224	3097.3375
2679.84993	3082.8375
2682.476	3082.3375
2685.10043	3079.8375
2687.72324	3078.3375
2690.34441	3069.2375
2692.96396	3071.7375
2695.58188	3075.6375
2698.19818	3077.2375
2700.81285	3066.5375
2703.4259	3051.3375
2706.03733	3025.8375
2708.64714	3029.6375
2711.25533	3055.8375
2713.86191	3067.1375
2716.46687	3044.4375
2719.07021	3055.9375
2721.67194	3042.6375
2724.27206	3072.4375
2726.87057	3052.6375
2729.46747	3037.0375
2732.06276	3048.5375
2734.65644	3026.1375
2737.24852	3026.8375
2739.83899	3007.1375
2742.42786	3026.6375
2745.01513	3020.8375
2747.60079	3003.1375
2750.18486	2984.6375
2752.76733	3002.6375
2755.3482	2995.9375
2757.92747	2990.7375
2760.50515	2981.2375
2763.08123	2968.5375
2765.65573	2968.6375
2768.22863	2953.3375
2770.79994	2947.5375
2773.36967	2946.4375
2775.9378	2927.7375
2778.50435	2933.1375
2781.06932	2924.9375
2783.6327	2911.7375
2786.1945	2932.0375
2788.75471	2931.4375
2791.31335	2918.5375
2793.87041	2902.6375
2796.42589	2893.5375
2798.97979	2882.8375
2801.53212	2881.2375
2804.08288	2899.1375
2806.63206	2889.8375
2809.17967	2853.3375
2811.72571	2874.7375
2814.27018	2864.7375
2816.81308	2869.0375
2819.35442	2824.2375
2821.89419	2841.8375
2824.43239	2831.2375
2826.96904	2851.5375
2829.50412	2825.7375
2832.03763	2838.6375
2834.56959	2844.6375
2837.1	2826.3375
2839.62884	2825.4375
2842.15613	2829.0375
2844.68186	2842.1375
2847.20604	2796.7375
2849.72867	2794.9375
2852.24974	2798.2375
2854.76927	2773.4375
2857.28724	2729.9375
2859.80367	2782.4375
2862.31855	2793.8375
2864.83189	2788.4375
2867.34368	2788.4375
2869.85393	2807.2375
2872.36264	2765.0375
2874.8698	2780.7375
2877.37543	2781.7375
2879.87952	2770.6375
2882.38207	2751.5375
2884.88308	2760.4375
2887.38256	2753.0375
2889.88051	2749.0375
2892.37692	2753.2375
2894.8718	2736.4375
2897.36515	2745.1375
2899.85698	2746.1375
2902.34727	2744.1375
2904.83604	2761.9375
2907.32328	2761.7375
2909.809	2764.5375
2912.29319	2758.4375
2914.77587	2763.8375
2917.25702	2782.3375
2919.73665	2785.8375
2922.21476	2784.2375
2924.69136	2785.2375
2927.16644	2755.9375
2929.64	2747.2375
2932.11205	2741.0375
2934.58258	2743.4375
2937.05161	2727.0375
2939.51912	2750.1375
2941.98513	2745.6375
2944.44962	2728.3375
2946.91261	2699.9375
2949.37409	2706.8375
2951.83407	2700.2375
2954.29254	2699.9375
2956.74951	2696.1375
2959.20498	2690.2375
2961.65895	2688.6375
2964.11142	2679.6375
2966.56239	2669.8375
2969.01186	2679.8375
2971.45984	2668.2375
2973.90632	2665.0375
2976.35131	2664.8375
2978.7948	2663.6375
2981.23681	2645.2375
2983.67732	2642.2375
2986.11635	2642.5375
2988.55388	2620.9375
2990.98993	2620.6375
2993.4245	2612.4375
2995.85758	2601.8375
2998.28917	2604.3375
3000.71928	2582.2375
3003.14791	2593.8375
3005.57506	2587.8375
3008.00073	2555.2375
3010.42493	2511.5375
3012.84764	2554.7375
3015.26888	2556.7375
3017.68865	2550.5375
3020.10694	2503.0375
3022.52376	2501.0375
3024.9391	2519.3375
3027.35298	2503.8375
3029.76539	2488.9375
3032.17632	2500.1375
3034.5858	2478.7375
3036.9938	2494.0375
3039.40034	2496.5375
3041.80542	2474.4375
3044.20903	2469.8375
3046.61118	2453.1375
3049.01187	2470.0375
3051.4111	2468.2375
3053.80888	2430.2375
3056.20519	2438.8375
3058.60005	2419.6375
3060.99345	2449.7375
3063.3854	2404.1375
3065.7759	2399.8375
3068.16494	2396.3375
3070.55254	2384.7375
3072.93868	2400.4375
3075.32338	2398.1375
3077.70662	2369.1375
3080.08842	2367.0375
3082.46878	2362.4375
3084.84769	2379.5375
3087.22515	2348.2375
3089.60118	2366.5375
3091.97576	2348.7375
3094.3489	2359.9375
3096.72061	2347.5375
3099.09087	2334.2375
3101.4597	2345.8375
3103.82709	2340.7375
3106.19305	2324.7375
3108.55757	2338.6375
3110.92066	2312.3375
3113.28232	2320.3375
3115.64255	2313.0375
3118.00134	2315.7375
3120.35871	2297.0375
3122.71466	2289.7375
3125.06917	2290.6375
3127.42226	2284.8375
3129.77393	2262.4375
3132.12417	2281.8375
3134.47299	2288.8375
3136.82039	2256.9375
3139.16636	2236.2375
3141.51092	2265.8375
3143.85406	2263.8375
3146.19579	2245.6375
3148.53609	2246.2375
3150.87499	2246.6375
3153.21246	2244.9375
3155.54853	2258.0375
3157.88318	2252.1375
3160.21642	2247.4375
3162.54826	2244.2375
3164.87868	2251.8375
3167.2077	2201.8375
3169.5353	2235.2375
3171.86151	2230.4375
3174.18631	2218.1375
3176.5097	2208.7375
3178.83169	2221.5375
3181.15228	2219.6375
3183.47147	2188.4375
3185.78926	2194.2375
3188.10565	2191.8375
3190.42065	2175.0375
3192.73424	2186.3375
3195.04645	2162.8375
3197.35725	2165.3375
3199.66667	2172.8375
3201.97469	2166.9375
3204.28132	2152.3375
3206.58656	2162.1375
3208.8904	2166.3375
3211.19287	2155.3375
3213.49394	2158.8375
3215.79363	2141.1375
3218.09193	2155.5375
3220.38884	2159.5375
3222.68438	2143.0375
3224.97853	2128.2375
3227.2713	2158.5375
3229.56269	2142.4375
3231.8527	2138.2375
3234.14133	2119.5375
3236.42858	2120.3375
3238.71446	2093.2375
3240.99896	2122.9375
3243.28209	2097.0375
3245.56384	2118.5375
3247.84423	2106.6375
3250.12324	2106.7375
3252.40088	2092.4375
3254.67715	2080.7375
3256.95205	2076.3375
3259.22558	2080.3375
3261.49775	2092.8375
3263.76855	2078.1375
3266.03799	2084.2375
3268.30606	2077.5375
3270.57277	2086.8375
3272.83812	2062.9375
3275.10211	2059.8375
3277.36474	2070.9375
3279.62601	2056.5375
3281.88593	2038.6375
3284.14448	2020.2375
3286.40168	2044.4375
3288.65753	2036.5375
3290.91202	2037.9375
3293.16516	2013.8375
3295.41695	2031.8375
3297.66738	2031.9375
3299.91647	2008.6375
3302.16421	2004.4375
3304.4106	1978.5375
3306.65564	1997.1375
3308.89933	1962.0375
3311.14169	1952.8375
3313.38269	1921.4375
3315.62236	1917.9375
3317.86068	1904.4375
3320.09766	1910.4375
3322.3333	1874.5375
3324.5676	1864.8375
3326.80056	1838.1375
3329.03219	1835.4375
3331.26248	-0.6625
3333.49143	-0.0625
3335.71905	2.0375
