Data from AgNPs_UA_5uM_CRN_500uM_SU_RamanShift__187__12-00-33-177.txt Node

Date: Thu Aug 04 12:00:33 BST 2022
User: TCL
Spectrometer: QEP01345
Trigger mode: 4
Integration Time (sec): 1.000000E0
Scans to average: 10
Electric dark correction enabled: true
Nonlinearity correction enabled: false
Boxcar width: 0
XAxis mode: Raman Shifts
Number of Pixels in Spectrum: 1044
>>>>>Begin Spectral Data<<<<<
46.04893	-0.3125
50.45542	-0.6125
54.85868	0.6875
59.25871	-1.1125
63.6555	-58.5125
68.04907	-40.3125
72.43941	-70.7125
76.82654	-57.6125
81.21044	-55.3125
85.59113	-48.6125
89.96862	-74.7125
94.34289	-55.0125
98.71396	-79.3125
103.08183	-58.3125
107.4465	-50.4125
111.80798	-56.1125
116.16626	-42.7125
120.52136	-75.4125
124.87327	-50.5125
129.222	-64.6125
133.56755	-49.6125
137.90993	-63.0125
142.24913	-50.4125
146.58517	-44.9125
150.91804	-41.9125
155.24774	-28.7125
159.57429	-9.5125
163.89768	-6.1125
168.21792	36.2875
172.53501	56.1875
176.84895	133.2875
181.15975	267.4875
185.46741	414.0875
189.77193	588.9875
194.07331	878.4875
198.37157	1162.4875
202.6667	1441.9875
206.9587	1759.4875
211.24758	2072.5875
215.53334	2389.3875
219.81599	2734.2875
224.09553	3144.8875
228.37195	3571.6875
232.64527	4019.5875
236.91549	4481.8875
241.18261	4834.9875
245.44663	5115.3875
249.70755	5286.1875
253.96539	5414.8875
258.22014	5528.8875
262.4718	5586.9875
266.72039	5611.5875
270.96589	5605.3875
275.20832	5506.9875
279.44768	5377.9875
283.68397	5275.4875
287.91719	5226.6875
292.14735	5247.8875
296.37445	5416.2875
300.59849	5700.6875
304.81948	6045.5875
309.03742	6388.7875
313.25231	6628.8875
317.46415	6593.9875
321.67296	6196.9875
325.87872	5813.7875
330.08145	5612.7875
334.28114	5578.3875
338.47781	5619.8875
342.67145	5774.4875
346.86207	5991.9875
351.04966	6380.4875
355.23424	6752.9875
359.4158	7006.5875
363.59435	7052.4875
367.76989	6978.1875
371.94243	6871.7875
376.11196	6726.2875
380.27849	6669.1875
384.44203	6612.1875
388.60257	6550.4875
392.76012	6574.4875
396.91468	6701.7875
401.06626	6847.2875
405.21485	6860.7875
409.36047	6693.2875
413.50311	6402.7875
417.64277	6121.3875
421.77947	5915.4875
425.9132	5840.7875
430.04396	5830.7875
434.17176	5855.4875
438.2966	5951.7875
442.41849	6056.2875
446.53742	6148.2875
450.6534	6250.1875
454.76644	6332.5875
458.87653	6342.3875
462.98368	6295.9875
467.08789	6242.1875
471.18916	6162.5875
475.2875	6052.7875
479.38291	5950.5875
483.4754	5839.7875
487.56496	5791.8875
491.6516	5768.8875
495.73531	5771.4875
499.81612	5797.7875
503.89401	5878.3875
507.96899	5940.6875
512.04106	6047.8875
516.11023	6146.4875
520.1765	6217.0875
524.23987	6237.2875
528.30034	6246.2875
532.35792	6157.3875
536.41261	6112.7875
540.46441	6017.4875
544.51333	5974.5875
548.55936	6005.2875
552.60252	6134.8875
556.64279	6224.2875
560.6802	6351.1875
564.71473	6513.9875
568.7464	6690.1875
572.7752	6669.4875
576.80114	6339.8875
580.82422	6122.0875
584.84444	6009.6875
588.86181	5991.1875
592.87633	6020.1875
596.888	6132.0875
600.89682	6501.4875
604.9028	7463.6875
608.90594	9508.4875
612.90624	11834.0875
616.90371	10990.1875
620.89834	7964.7875
624.89015	6635.3875
628.87913	6438.2875
632.86528	6581.9875
636.84862	6771.0875
640.82913	6626.0875
644.80683	6300.8875
648.78172	6112.5875
652.75379	6134.7875
656.72306	6365.4875
660.68952	6612.7875
664.65319	6531.5875
668.61405	6275.6875
672.57211	6214.3875
676.52738	6208.9875
680.47986	6123.9875
684.42955	6037.6875
688.37646	5994.3875
692.32058	5997.6875
696.26192	6067.7875
700.20048	6166.5875
704.13626	6215.8875
708.06928	6151.2875
711.99952	6135.5875
715.927	6093.6875
719.85171	6135.7875
723.77365	6196.5875
727.69284	6168.0875
731.60928	6147.9875
735.52295	6132.2875
739.43388	6171.2875
743.34206	6185.1875
747.24749	6204.7875
751.15017	6227.8875
755.05012	6291.3875
758.94733	6671.7875
762.8418	7479.6875
766.73354	8794.4875
770.62254	9769.3875
774.50882	9857.2875
778.39237	9359.4875
782.27321	8451.5875
786.15132	7403.6875
790.02671	6753.6875
793.89938	6382.7875
797.76935	6274.7875
801.6366	6184.7875
805.50115	6148.3875
809.36299	6135.5875
813.22213	6133.4875
817.07857	6132.5875
820.93231	6130.5875
824.78336	6154.9875
828.63172	6159.9875
832.47738	6168.9875
836.32036	6177.7875
840.16066	6145.0875
843.99827	6124.8875
847.8332	6117.0875
851.66546	6127.8875
855.49504	6128.6875
859.32195	6161.1875
863.1462	6154.7875
866.96777	6166.5875
870.78668	6114.4875
874.60293	6165.4875
878.41652	6171.0875
882.22745	6251.4875
886.03573	6282.9875
889.84136	6262.8875
893.64433	6302.8875
897.44466	6276.6875
901.24235	6258.8875
905.0374	6284.6875
908.8298	6203.3875
912.61957	6171.4875
916.40671	6128.3875
920.19121	6180.3875
923.97308	6264.3875
927.75233	6313.2875
931.52895	6416.5875
935.30295	6353.1875
939.07433	6215.2875
942.84309	6081.1875
946.60924	6066.4875
950.37278	6031.1875
954.13371	6027.2875
957.89203	6046.5875
961.64774	6047.7875
965.40086	6024.1875
969.15137	6016.3875
972.89929	6056.2875
976.64461	6013.7875
980.38733	6049.6875
984.12747	6033.8875
987.86502	6045.1875
991.59999	6070.8875
995.33237	6157.8875
999.06217	6220.7875
1002.78939	6304.9875
1006.51404	6444.8875
1010.23611	6561.5875
1013.95561	6588.2875
1017.67255	6595.6875
1021.38692	6571.4875
1025.09872	6499.5875
1028.80796	6426.2875
1032.51465	6426.5875
1036.21877	6411.2875
1039.92035	6463.6875
1043.61937	6502.6875
1047.31584	6543.9875
1051.00976	6553.3875
1054.70114	6587.5875
1058.38998	6565.5875
1062.07627	6574.7875
1065.76003	6613.1875
1069.44126	6682.0875
1073.11995	6738.6875
1076.79611	6880.3875
1080.46974	7038.6875
1084.14085	7224.7875
1087.80943	7318.5875
1091.47549	7361.4875
1095.13903	7285.3875
1098.80005	7163.3875
1102.45857	7067.3875
1106.11456	7037.4875
1109.76805	6957.4875
1113.41903	7094.4875
1117.06751	7263.0875
1120.71348	7517.3875
1124.35696	7869.4875
1127.99793	8174.0875
1131.63641	8007.5875
1135.2724	7599.2875
1138.90589	7327.3875
1142.5369	7107.9875
1146.16542	7028.7875
1149.79145	6898.4875
1153.415	6862.4875
1157.03607	6875.8875
1160.65467	6963.4875
1164.27079	7155.0875
1167.88443	7404.2875
1171.49561	7800.1875
1175.10432	8418.9875
1178.71056	9279.9875
1182.31434	10055.8875
1185.91565	10299.5875
1189.51451	10140.1875
1193.11091	9901.9875
1196.70485	9665.1875
1200.29634	9437.9875
1203.88538	9184.6875
1207.47197	8734.2875
1211.05612	8304.2875
1214.63782	7906.1875
1218.21708	7644.0875
1221.79391	7496.8875
1225.36829	7426.4875
1228.94024	7427.9875
1232.50976	7437.0875
1236.07685	7465.2875
1239.6415	7501.2875
1243.20374	7505.7875
1246.76355	7558.2875
1250.32093	7627.6875
1253.8759	7677.0875
1257.42845	7865.6875
1260.97859	8066.9875
1264.52631	8303.1875
1268.07163	8455.3875
1271.61453	8556.6875
1275.15503	8607.0875
1278.69312	8624.8875
1282.22882	8661.4875
1285.76211	8889.5875
1289.29301	9132.8875
1292.82151	9403.4875
1296.34761	9597.7875
1299.87133	10000.8875
1303.39266	10694.7875
1306.9116	11801.3875
1310.42815	13008.5875
1313.94233	13439.7875
1317.45412	12651.9875
1320.96354	11535.1875
1324.47058	10540.0875
1327.97525	9802.6875
1331.47754	9407.2875
1334.97747	9317.3875
1338.47502	9427.1875
1341.97022	9771.1875
1345.46305	10499.8875
1348.95352	11574.3875
1352.44163	12780.3875
1355.92738	14104.8875
1359.41078	15731.2875
1362.89183	17201.0875
1366.37053	16584.5875
1369.84688	13783.8875
1373.32088	11192.8875
1376.79254	9802.7875
1380.26186	9173.9875
1383.72883	8782.4875
1387.19347	8392.5875
1390.65578	8021.0875
1394.11575	7815.4875
1397.57339	7655.2875
1401.0287	7552.6875
1404.48168	7512.5875
1407.93234	7551.4875
1411.38068	7552.7875
1414.82669	7642.1875
1418.27039	7704.7875
1421.71177	7708.7875
1425.15083	7603.7875
1428.58758	7530.4875
1432.02203	7556.6875
1435.45416	7646.2875
1438.88399	7646.1875
1442.31151	7650.9875
1445.73673	7707.4875
1449.15965	7738.5875
1452.58027	7769.9875
1455.9986	7747.2875
1459.41463	7778.2875
1462.82837	7873.0875
1466.23982	8052.0875
1469.64898	8255.3875
1473.05586	8386.3875
1476.46045	8475.9875
1479.86276	8533.2875
1483.26279	8647.2875
1486.66054	8822.2875
1490.05602	9099.9875
1493.44922	9626.2875
1496.84016	10485.4875
1500.22882	11803.6875
1503.61521	13501.5875
1506.99934	15246.4875
1510.38121	16440.0875
1513.76081	16336.3875
1517.13816	14803.1875
1520.51324	12710.3875
1523.88607	11045.6875
1527.25665	10052.4875
1530.62498	9540.4875
1533.99105	9315.9875
1537.35488	9220.2875
1540.71647	9122.2875
1544.07581	9008.6875
1547.4329	8891.0875
1550.78776	8785.7875
1554.14038	8704.5875
1557.49077	8654.7875
1560.83892	8766.8875
1564.18484	8985.0875
1567.52853	9283.6875
1570.86999	9612.7875
1574.20922	9759.8875
1577.54624	9636.5875
1580.88103	9151.1875
1584.2136	8483.5875
1587.54395	8133.2875
1590.87208	8038.1875
1594.19801	8207.8875
1597.52172	8581.1875
1600.84321	8724.7875
1604.16251	8591.4875
1607.47959	8400.9875
1610.79447	8197.0875
1614.10715	7895.1875
1617.41763	7623.6875
1620.7259	7360.1875
1624.03199	7215.5875
1627.33587	7157.9875
1630.63757	7194.7875
1633.93707	7426.3875
1637.23439	7827.5875
1640.52951	8517.2875
1643.82246	9477.7875
1647.11321	10622.0875
1650.40179	11314.9875
1653.68819	10973.2875
1656.97241	9761.1875
1660.25446	8409.0875
1663.53433	7419.2875
1666.81203	6822.0875
1670.08756	6498.5875
1673.36092	6338.7875
1676.63211	6175.1875
1679.90115	6082.9875
1683.16801	6005.5875
1686.43272	5920.4875
1689.69527	5882.5875
1692.95567	5818.9875
1696.2139	5796.7875
1699.46999	5736.0875
1702.72392	5741.8875
1705.97571	5756.5875
1709.22535	5738.6875
1712.47284	5769.3875
1715.71819	5777.5875
1718.96139	5780.2875
1722.20246	5762.5875
1725.44139	5726.6875
1728.67818	5714.7875
1731.91284	5657.2875
1735.14537	5610.2875
1738.37576	5590.5875
1741.60403	5571.6875
1744.83017	5556.5875
1748.05418	5575.2875
1751.27607	5566.8875
1754.49584	5523.7875
1757.71349	5488.7875
1760.92903	5497.3875
1764.14244	5439.8875
1767.35375	5446.5875
1770.56294	5437.5875
1773.77002	5421.7875
1776.97499	5410.4875
1780.17785	5412.0875
1783.37861	5401.0875
1786.57727	5415.6875
1789.77382	5353.5875
1792.96828	5390.3875
1796.16064	5394.9875
1799.3509	5355.5875
1802.53907	5370.4875
1805.72514	5336.1875
1808.90913	5311.7875
1812.09102	5307.6875
1815.27083	5291.7875
1818.44856	5290.2875
1821.6242	5276.6875
1824.79776	5256.1875
1827.96924	5251.9875
1831.13864	5225.4875
1834.30597	5265.4875
1837.47122	5220.0875
1840.6344	5194.4875
1843.7955	5198.5875
1846.95454	5178.9875
1850.11151	5214.0875
1853.26642	5171.8875
1856.41926	5174.6875
1859.57004	5169.5875
1862.71876	5163.8875
1865.86542	5194.3875
1869.01003	5160.8875
1872.15258	5149.3875
1875.29308	5161.9875
1878.43152	5163.4875
1881.56792	5135.3875
1884.70227	5111.9875
1887.83457	5123.7875
1890.96482	5097.8875
1894.09304	5066.6875
1897.21921	5097.0875
1900.34335	5111.0875
1903.46544	5068.8875
1906.58551	5092.6875
1909.70353	5069.8875
1912.81953	5068.1875
1915.93349	5058.5875
1919.04543	5052.6875
1922.15534	5029.9875
1925.26322	5036.6875
1928.36908	5004.1875
1931.47292	5002.0875
1934.57473	5017.6875
1937.67453	4981.6875
1940.77232	4966.6875
1943.86808	4950.2875
1946.96184	4956.0875
1950.05358	4907.4875
1953.14331	4890.8875
1956.23103	4900.7875
1959.31675	4876.9875
1962.40046	4821.3875
1965.48217	4852.6875
1968.56188	4836.1875
1971.63959	4827.6875
1974.7153	4818.8875
1977.78901	4808.6875
1980.86073	4789.7875
1983.93046	4753.9875
1986.99819	4670.4875
1990.06394	4690.9875
1993.1277	4725.9875
1996.18947	4684.6875
1999.24925	4663.1875
2002.30706	4682.2875
2005.36288	4648.1875
2008.41672	4640.4875
2011.46859	4601.5875
2014.51848	4602.5875
2017.56639	4593.6875
2020.61233	4547.8875
2023.6563	4568.9875
2026.6983	4522.6875
2029.73833	4528.3875
2032.7764	4527.8875
2035.8125	4483.3875
2038.84664	4482.3875
2041.87881	4469.2875
2044.90903	4489.7875
2047.93729	4465.8875
2050.96359	4450.8875
2053.98794	4441.5875
2057.01034	4449.0875
2060.03078	4433.3875
2063.04927	4425.2875
2066.06582	4427.5875
2069.08042	4404.9875
2072.09307	4423.5875
2075.10378	4417.1875
2078.11255	4392.7875
2081.11938	4407.4875
2084.12426	4395.6875
2087.12722	4392.5875
2090.12824	4376.1875
2093.12732	4385.3875
2096.12447	4401.5875
2099.11969	4378.0875
2102.11299	4381.6875
2105.10435	4400.6875
2108.09379	4379.5875
2111.08131	4372.5875
2114.0669	4396.1875
2117.05057	4377.9875
2120.03233	4385.2875
2123.01216	4404.0875
2125.99008	4401.4875
2128.96609	4411.1875
2131.94018	4415.2875
2134.91236	4416.7875
2137.88263	4398.5875
2140.851	4401.6875
2143.81746	4411.9875
2146.78201	4404.7875
2149.74466	4387.3875
2152.7054	4415.4875
2155.66425	4398.2875
2158.6212	4381.0875
2161.57625	4362.2875
2164.52941	4344.6875
2167.48067	4364.3875
2170.43004	4344.8875
2173.37752	4367.8875
2176.32311	4357.5875
2179.26681	4361.3875
2182.20863	4354.6875
2185.14856	4365.9875
2188.08661	4366.4875
2191.02278	4355.8875
2193.95707	4349.9875
2196.88948	4344.5875
2199.82001	4350.3875
2202.74867	4326.4875
2205.67545	4332.3875
2208.60037	4328.0875
2211.52341	4309.4875
2214.44458	4287.1875
2217.36388	4302.5875
2220.28132	4280.8875
2223.1969	4260.2875
2226.11061	4255.8875
2229.02246	4259.0875
2231.93245	4253.3875
2234.84058	4226.2875
2237.74686	4223.1875
2240.65128	4191.9875
2243.55385	4208.0875
2246.45456	4184.0875
2249.35343	4218.1875
2252.25044	4188.3875
2255.14561	4191.2875
2258.03893	4192.6875
2260.93041	4178.6875
2263.82004	4168.8875
2266.70783	4170.7875
2269.59378	4148.1875
2272.4779	4116.8875
2275.36017	4132.9875
2278.24061	4126.4875
2281.11922	4090.6875
2283.996	4104.5875
2286.87094	4091.0875
2289.74405	4081.6875
2292.61534	4086.6875
2295.4848	4064.1875
2298.35243	4054.2875
2301.21824	4036.0875
2304.08223	4040.2875
2306.94439	4056.8875
2309.80474	4052.6875
2312.66327	4042.1875
2315.51999	4013.6875
2318.37489	4027.2875
2321.22797	4010.0875
2324.07925	3998.5875
2326.92871	3984.2875
2329.77637	3981.5875
2332.62222	3972.7875
2335.46626	3946.4875
2338.3085	3933.9875
2341.14893	3971.8875
2343.98756	3958.5875
2346.8244	3943.9875
2349.65943	3943.3875
2352.49267	3932.4875
2355.32411	3943.3875
2358.15376	3928.6875
2360.98161	3934.1875
2363.80768	3917.9875
2366.63195	3941.9875
2369.45444	3950.7875
2372.27514	3939.8875
2375.09405	3944.3875
2377.91118	3889.1875
2380.72652	3897.3875
2383.54009	3904.9875
2386.35187	3895.2875
2389.16188	3869.6875
2391.97011	3879.3875
2394.77657	3853.8875
2397.58125	3851.0875
2400.38416	3848.1875
2403.18529	3831.0875
2405.98466	3817.9875
2408.78226	3821.4875
2411.57809	3796.8875
2414.37216	3795.5875
2417.16446	3793.5875
2419.955	3755.2875
2422.74378	3788.9875
2425.5308	3770.5875
2428.31606	3781.5875
2431.09956	3787.9875
2433.88131	3748.3875
2436.6613	3755.1875
2439.43954	3740.3875
2442.21603	3741.5875
2444.99077	3731.7875
2447.76377	3755.4875
2450.53501	3731.1875
2453.30451	3733.4875
2456.07226	3746.5875
2458.83827	3712.3875
2461.60254	3675.8875
2464.36507	3726.8875
2467.12586	3698.9875
2469.88492	3705.5875
2472.64224	3697.2875
2475.39782	3680.0875
2478.15167	3707.0875
2480.90379	3694.7875
2483.65417	3699.3875
2486.40283	3696.3875
2489.14976	3715.4875
2491.89497	3696.2875
2494.63845	3691.2875
2497.3802	3674.7875
2500.12024	3682.9875
2502.85855	3662.2875
2505.59514	3671.7875
2508.33002	3660.0875
2511.06318	3626.5875
2513.79462	3633.1875
2516.52435	3616.8875
2519.25237	3583.7875
2521.97867	3597.9875
2524.70327	3586.5875
2527.42616	3586.5875
2530.14734	3604.0875
2532.86681	3559.9875
2535.58458	3587.3875
2538.30065	3555.1875
2541.01501	3586.7875
2543.72768	3561.6875
2546.43864	3563.3875
2549.14791	3555.6875
2551.85548	3530.0875
2554.56136	3528.5875
2557.26554	3545.2875
2559.96803	3526.6875
2562.66883	3528.5875
2565.36794	3507.1875
2568.06536	3481.4875
2570.7611	3504.3875
2573.45514	3469.6875
2576.14751	3462.8875
2578.83819	3453.6875
2581.52719	3452.1875
2584.21451	3450.3875
2586.90015	3431.1875
2589.58411	3419.0875
2592.2664	3429.8875
2594.94701	3414.6875
2597.62594	3423.0875
2600.30321	3357.9875
2602.9788	3372.0875
2605.65273	3367.2875
2608.32498	3379.0875
2610.99557	3404.1875
2613.66449	3375.9875
2616.33175	3368.3875
2618.99734	3383.7875
2621.66128	3363.9875
2624.32355	3344.4875
2626.98416	3351.6875
2629.64311	3338.3875
2632.30041	3322.4875
2634.95605	3301.0875
2637.61004	3296.6875
2640.26238	3277.7875
2642.91306	3272.3875
2645.56209	3311.8875
2648.20948	3291.6875
2650.85521	3288.0875
2653.4993	3295.0875
2656.14175	3302.3875
2658.78255	3285.3875
2661.42171	3248.4875
2664.05923	3298.0875
2666.6951	3294.8875
2669.32934	3293.0875
2671.96194	3303.6875
2674.59291	3298.9875
2677.22224	3283.6875
2679.84993	3289.9875
2682.476	3272.3875
2685.10043	3279.4875
2687.72324	3255.1875
2690.34441	3269.2875
2692.96396	3258.7875
2695.58188	3280.7875
2698.19818	3267.5875
2700.81285	3250.0875
2703.4259	3251.6875
2706.03733	3216.7875
2708.64714	3227.0875
2711.25533	3249.6875
2713.86191	3258.3875
2716.46687	3241.8875
2719.07021	3245.2875
2721.67194	3237.5875
2724.27206	3256.1875
2726.87057	3228.7875
2729.46747	3232.0875
2732.06276	3239.4875
2734.65644	3235.0875
2737.24852	3223.2875
2739.83899	3204.6875
2742.42786	3211.0875
2745.01513	3211.0875
2747.60079	3205.7875
2750.18486	3173.3875
2752.76733	3192.1875
2755.3482	3167.6875
2757.92747	3183.9875
2760.50515	3163.6875
2763.08123	3154.6875
2765.65573	3157.0875
2768.22863	3147.7875
2770.79994	3122.2875
2773.36967	3132.8875
2775.9378	3119.0875
2778.50435	3125.7875
2781.06932	3103.8875
2783.6327	3101.3875
2786.1945	3131.7875
2788.75471	3116.3875
2791.31335	3101.4875
2793.87041	3095.6875
2796.42589	3089.1875
2798.97979	3059.9875
2801.53212	3085.9875
2804.08288	3083.8875
2806.63206	3065.8875
2809.17967	3044.2875
2811.72571	3072.3875
2814.27018	3053.0875
2816.81308	3040.2875
2819.35442	3007.7875
2821.89419	3016.6875
2824.43239	2999.2875
2826.96904	3035.1875
2829.50412	3010.0875
2832.03763	3013.7875
2834.56959	3013.2875
2837.1	2989.0875
2839.62884	2990.2875
2842.15613	2992.9875
2844.68186	2999.7875
2847.20604	2970.0875
2849.72867	2964.9875
2852.24974	2978.2875
2854.76927	2957.9875
2857.28724	2896.8875
2859.80367	2970.2875
2862.31855	2969.9875
2864.83189	2963.6875
2867.34368	2949.1875
2869.85393	2967.8875
2872.36264	2936.9875
2874.8698	2942.9875
2877.37543	2949.9875
2879.87952	2934.7875
2882.38207	2909.9875
2884.88308	2923.3875
2887.38256	2929.4875
2889.88051	2925.1875
2892.37692	2926.1875
2894.8718	2892.7875
2897.36515	2921.0875
2899.85698	2908.6875
2902.34727	2915.0875
2904.83604	2912.5875
2907.32328	2924.9875
2909.809	2917.1875
2912.29319	2913.5875
2914.77587	2921.4875
2917.25702	2938.4875
2919.73665	2940.7875
2922.21476	2942.0875
2924.69136	2948.4875
2927.16644	2924.0875
2929.64	2932.4875
2932.11205	2908.0875
2934.58258	2902.9875
2937.05161	2888.2875
2939.51912	2902.8875
2941.98513	2910.4875
2944.44962	2898.8875
2946.91261	2850.9875
2949.37409	2873.4875
2951.83407	2868.3875
2954.29254	2861.8875
2956.74951	2861.3875
2959.20498	2840.4875
2961.65895	2849.1875
2964.11142	2826.7875
2966.56239	2836.2875
2969.01186	2838.0875
2971.45984	2828.5875
2973.90632	2828.4875
2976.35131	2841.6875
2978.7948	2818.3875
2981.23681	2806.0875
2983.67732	2804.7875
2986.11635	2800.8875
2988.55388	2787.4875
2990.98993	2790.6875
2993.4245	2775.4875
2995.85758	2759.6875
2998.28917	2761.0875
3000.71928	2739.3875
3003.14791	2738.0875
3005.57506	2738.1875
3008.00073	2713.5875
3010.42493	2663.3875
3012.84764	2719.1875
3015.26888	2720.7875
3017.68865	2702.3875
3020.10694	2659.3875
3022.52376	2669.8875
3024.9391	2676.4875
3027.35298	2660.7875
3029.76539	2652.3875
3032.17632	2643.3875
3034.5858	2640.8875
3036.9938	2647.8875
3039.40034	2635.2875
3041.80542	2626.5875
3044.20903	2613.9875
3046.61118	2616.5875
3049.01187	2616.5875
3051.4111	2605.7875
3053.80888	2597.8875
3056.20519	2576.6875
3058.60005	2559.4875
3060.99345	2591.9875
3063.3854	2561.5875
3065.7759	2545.3875
3068.16494	2542.7875
3070.55254	2535.7875
3072.93868	2548.3875
3075.32338	2516.1875
3077.70662	2525.5875
3080.08842	2521.7875
3082.46878	2504.1875
3084.84769	2517.3875
3087.22515	2511.4875
3089.60118	2507.1875
3091.97576	2495.7875
3094.3489	2508.5875
3096.72061	2495.9875
3099.09087	2487.3875
3101.4597	2493.9875
3103.82709	2506.9875
3106.19305	2472.4875
3108.55757	2480.8875
3110.92066	2460.4875
3113.28232	2472.6875
3115.64255	2470.4875
3118.00134	2462.7875
3120.35871	2450.0875
3122.71466	2416.4875
3125.06917	2441.7875
3127.42226	2414.5875
3129.77393	2409.2875
3132.12417	2422.4875
3134.47299	2418.4875
3136.82039	2403.5875
3139.16636	2385.5875
3141.51092	2399.4875
3143.85406	2403.6875
3146.19579	2394.5875
3148.53609	2387.3875
3150.87499	2394.1875
3153.21246	2380.9875
3155.54853	2389.5875
3157.88318	2395.5875
3160.21642	2395.5875
3162.54826	2383.3875
3164.87868	2393.4875
3167.2077	2337.6875
3169.5353	2359.4875
3171.86151	2398.4875
3174.18631	2368.9875
3176.5097	2352.5875
3178.83169	2366.7875
3181.15228	2360.9875
3183.47147	2331.8875
3185.78926	2320.3875
3188.10565	2330.7875
3190.42065	2298.5875
3192.73424	2318.4875
3195.04645	2307.3875
3197.35725	2281.4875
3199.66667	2305.4875
3201.97469	2298.1875
3204.28132	2286.8875
3206.58656	2303.8875
3208.8904	2312.8875
3211.19287	2294.3875
3213.49394	2295.4875
3215.79363	2282.5875
3218.09193	2297.7875
3220.38884	2295.8875
3222.68438	2282.8875
3224.97853	2260.0875
3227.2713	2284.2875
3229.56269	2271.1875
3231.8527	2270.3875
3234.14133	2257.5875
3236.42858	2257.3875
3238.71446	2228.7875
3240.99896	2256.6875
3243.28209	2229.9875
3245.56384	2237.7875
3247.84423	2225.4875
3250.12324	2232.6875
3252.40088	2230.9875
3254.67715	2209.3875
3256.95205	2213.0875
3259.22558	2227.9875
3261.49775	2221.3875
3263.76855	2202.8875
3266.03799	2216.9875
3268.30606	2209.4875
3270.57277	2209.5875
3272.83812	2188.1875
3275.10211	2185.1875
3277.36474	2192.6875
3279.62601	2174.8875
3281.88593	2153.3875
3284.14448	2146.6875
3286.40168	2182.3875
3288.65753	2156.3875
3290.91202	2155.1875
3293.16516	2135.9875
3295.41695	2153.8875
3297.66738	2156.6875
3299.91647	2139.4875
3302.16421	2129.4875
3304.4106	2097.7875
3306.65564	2104.9875
3308.89933	2078.1875
3311.14169	2074.8875
3313.38269	2051.7875
3315.62236	2035.7875
3317.86068	2033.6875
3320.09766	2028.6875
3322.3333	1984.0875
3324.5676	1979.5875
3326.80056	1948.5875
3329.03219	1940.5875
3331.26248	0.4875
3333.49143	0.3875
3335.71905	-0.2125
