Data from AgNPs_UA_5uM_CRN_500uM_SU_RamanShift__149__11-54-13-169.txt Node

Date: Thu Aug 04 11:54:13 BST 2022
User: TCL
Spectrometer: QEP01345
Trigger mode: 4
Integration Time (sec): 1.000000E0
Scans to average: 10
Electric dark correction enabled: true
Nonlinearity correction enabled: false
Boxcar width: 0
XAxis mode: Raman Shifts
Number of Pixels in Spectrum: 1044
>>>>>Begin Spectral Data<<<<<
46.04893	0.2875
50.45542	0.5875
54.85868	-0.7125
59.25871	-1.5125
63.6555	-57.0125
68.04907	-40.9125
72.43941	-69.5125
76.82654	-55.0125
81.21044	-55.2125
85.59113	-48.3125
89.96862	-77.1125
94.34289	-54.9125
98.71396	-77.3125
103.08183	-58.3125
107.4465	-46.4125
111.80798	-56.8125
116.16626	-44.5125
120.52136	-73.2125
124.87327	-49.9125
129.222	-62.1125
133.56755	-49.5125
137.90993	-63.7125
142.24913	-49.1125
146.58517	-42.3125
150.91804	-40.3125
155.24774	-29.0125
159.57429	-7.6125
163.89768	-3.3125
168.21792	38.6875
172.53501	62.7875
176.84895	144.0875
181.15975	282.9875
185.46741	435.5875
189.77193	625.4875
194.07331	917.8875
198.37157	1206.4875
202.6667	1503.3875
206.9587	1822.3875
211.24758	2147.8875
215.53334	2481.2875
219.81599	2853.0875
224.09553	3262.0875
228.37195	3695.0875
232.64527	4173.6875
236.91549	4656.2875
241.18261	5023.0875
245.44663	5328.4875
249.70755	5520.0875
253.96539	5666.0875
258.22014	5761.7875
262.4718	5825.7875
266.72039	5862.5875
270.96589	5832.1875
275.20832	5727.0875
279.44768	5607.7875
283.68397	5481.4875
287.91719	5417.9875
292.14735	5453.2875
296.37445	5606.3875
300.59849	5883.5875
304.81948	6219.0875
309.03742	6578.6875
313.25231	6796.0875
317.46415	6749.3875
321.67296	6348.0875
325.87872	5963.0875
330.08145	5778.5875
334.28114	5746.9875
338.47781	5829.3875
342.67145	5956.1875
346.86207	6193.4875
351.04966	6556.3875
355.23424	6948.8875
359.4158	7224.2875
363.59435	7277.5875
367.76989	7180.8875
371.94243	7062.4875
376.11196	6956.0875
380.27849	6884.9875
384.44203	6820.4875
388.60257	6784.1875
392.76012	6799.3875
396.91468	6913.6875
401.06626	7081.2875
405.21485	7106.2875
409.36047	6956.9875
413.50311	6643.7875
417.64277	6379.9875
421.77947	6168.0875
425.9132	6091.4875
430.04396	6091.9875
434.17176	6142.0875
438.2966	6229.5875
442.41849	6325.2875
446.53742	6449.8875
450.6534	6553.4875
454.76644	6615.6875
458.87653	6644.3875
462.98368	6596.9875
467.08789	6566.0875
471.18916	6485.4875
475.2875	6381.7875
479.38291	6273.5875
483.4754	6156.1875
487.56496	6133.0875
491.6516	6105.6875
495.73531	6101.6875
499.81612	6118.5875
503.89401	6190.0875
507.96899	6246.6875
512.04106	6334.1875
516.11023	6449.8875
520.1765	6517.7875
524.23987	6559.7875
528.30034	6557.3875
532.35792	6475.7875
536.41261	6425.3875
540.46441	6327.0875
544.51333	6302.8875
548.55936	6343.2875
552.60252	6467.8875
556.64279	6562.8875
560.6802	6679.6875
564.71473	6841.0875
568.7464	7009.7875
572.7752	6964.3875
576.80114	6665.3875
580.82422	6431.2875
584.84444	6325.7875
588.86181	6307.9875
592.87633	6352.7875
596.888	6470.5875
600.89682	6848.8875
604.9028	7767.8875
608.90594	9791.9875
612.90624	12040.3875
616.90371	11218.2875
620.89834	8243.3875
624.89015	6997.7875
628.87913	6795.1875
632.86528	6950.6875
636.84862	7113.6875
640.82913	6970.5875
644.80683	6645.2875
648.78172	6462.9875
652.75379	6499.4875
656.72306	6741.9875
660.68952	6973.2875
664.65319	6887.5875
668.61405	6652.4875
672.57211	6598.6875
676.52738	6614.9875
680.47986	6510.2875
684.42955	6432.3875
688.37646	6392.9875
692.32058	6386.0875
696.26192	6451.8875
700.20048	6561.4875
704.13626	6591.1875
708.06928	6557.2875
711.99952	6499.9875
715.927	6471.1875
719.85171	6525.1875
723.77365	6573.6875
727.69284	6561.9875
731.60928	6554.0875
735.52295	6517.9875
739.43388	6542.9875
743.34206	6580.8875
747.24749	6597.1875
751.15017	6622.9875
755.05012	6662.1875
758.94733	7021.7875
762.8418	7837.2875
766.73354	9083.5875
770.62254	10034.6875
774.50882	10117.1875
778.39237	9642.5875
782.27321	8754.7875
786.15132	7765.4875
790.02671	7117.5875
793.89938	6748.8875
797.76935	6673.1875
801.6366	6577.7875
805.50115	6542.1875
809.36299	6530.3875
813.22213	6515.8875
817.07857	6539.2875
820.93231	6516.6875
824.78336	6533.8875
828.63172	6569.6875
832.47738	6561.1875
836.32036	6565.4875
840.16066	6541.9875
843.99827	6537.8875
847.8332	6533.7875
851.66546	6543.1875
855.49504	6554.7875
859.32195	6592.3875
863.1462	6556.0875
866.96777	6576.7875
870.78668	6556.2875
874.60293	6589.9875
878.41652	6613.7875
882.22745	6672.7875
886.03573	6697.6875
889.84136	6717.1875
893.64433	6713.7875
897.44466	6689.7875
901.24235	6688.7875
905.0374	6703.7875
908.8298	6635.7875
912.61957	6613.0875
916.40671	6557.3875
920.19121	6613.7875
923.97308	6676.5875
927.75233	6739.2875
931.52895	6810.6875
935.30295	6789.9875
939.07433	6650.8875
942.84309	6527.4875
946.60924	6496.8875
950.37278	6473.1875
954.13371	6485.2875
957.89203	6474.6875
961.64774	6475.2875
965.40086	6466.9875
969.15137	6432.6875
972.89929	6495.4875
976.64461	6448.5875
980.38733	6470.2875
984.12747	6494.3875
987.86502	6504.3875
991.59999	6522.6875
995.33237	6590.7875
999.06217	6677.5875
1002.78939	6764.3875
1006.51404	6911.7875
1010.23611	7025.9875
1013.95561	7075.5875
1017.67255	7079.0875
1021.38692	7049.2875
1025.09872	6980.2875
1028.80796	6888.9875
1032.51465	6898.7875
1036.21877	6889.0875
1039.92035	6923.8875
1043.61937	6965.0875
1047.31584	7000.5875
1051.00976	7041.5875
1054.70114	7060.1875
1058.38998	7040.7875
1062.07627	7054.2875
1065.76003	7094.0875
1069.44126	7172.2875
1073.11995	7263.1875
1076.79611	7385.4875
1080.46974	7519.4875
1084.14085	7673.9875
1087.80943	7807.1875
1091.47549	7859.4875
1095.13903	7800.5875
1098.80005	7664.4875
1102.45857	7555.4875
1106.11456	7548.5875
1109.76805	7414.4875
1113.41903	7548.0875
1117.06751	7695.0875
1120.71348	7965.7875
1124.35696	8306.4875
1127.99793	8590.5875
1131.63641	8444.8875
1135.2724	8050.0875
1138.90589	7788.7875
1142.5369	7588.8875
1146.16542	7493.2875
1149.79145	7406.9875
1153.415	7338.4875
1157.03607	7321.1875
1160.65467	7421.0875
1164.27079	7601.3875
1167.88443	7819.4875
1171.49561	8216.8875
1175.10432	8777.4875
1178.71056	9611.4875
1182.31434	10350.3875
1185.91565	10621.6875
1189.51451	10484.4875
1193.11091	10250.2875
1196.70485	10036.8875
1200.29634	9813.3875
1203.88538	9580.8875
1207.47197	9173.5875
1211.05612	8760.9875
1214.63782	8409.7875
1218.21708	8183.5875
1221.79391	8022.3875
1225.36829	7942.0875
1228.94024	7898.2875
1232.50976	7907.9875
1236.07685	7955.8875
1239.6415	7945.8875
1243.20374	7993.8875
1246.76355	8054.7875
1250.32093	8088.0875
1253.8759	8165.1875
1257.42845	8384.9875
1260.97859	8585.4875
1264.52631	8799.0875
1268.07163	8925.6875
1271.61453	9051.6875
1275.15503	9076.1875
1278.69312	9094.9875
1282.22882	9149.6875
1285.76211	9367.8875
1289.29301	9601.6875
1292.82151	9839.6875
1296.34761	10052.9875
1299.87133	10445.0875
1303.39266	11107.5875
1306.9116	12179.3875
1310.42815	13318.0875
1313.94233	13739.0875
1317.45412	12976.0875
1320.96354	11907.3875
1324.47058	10978.2875
1327.97525	10254.0875
1331.47754	9895.6875
1334.97747	9804.7875
1338.47502	9925.3875
1341.97022	10284.1875
1345.46305	10967.1875
1348.95352	11958.5875
1352.44163	13126.0875
1355.92738	14368.7875
1359.41078	15909.9875
1362.89183	17304.6875
1366.37053	16639.9875
1369.84688	13930.1875
1373.32088	11452.4875
1376.79254	10186.2875
1380.26186	9577.3875
1383.72883	9215.7875
1387.19347	8817.8875
1390.65578	8532.9875
1394.11575	8291.6875
1397.57339	8115.3875
1401.0287	8018.1875
1404.48168	8000.5875
1407.93234	8028.9875
1411.38068	8069.5875
1414.82669	8133.1875
1418.27039	8206.9875
1421.71177	8212.7875
1425.15083	8089.1875
1428.58758	8018.1875
1432.02203	8061.5875
1435.45416	8147.3875
1438.88399	8170.2875
1442.31151	8137.0875
1445.73673	8214.3875
1449.15965	8278.1875
1452.58027	8306.9875
1455.9986	8271.4875
1459.41463	8287.7875
1462.82837	8373.1875
1466.23982	8576.7875
1469.64898	8758.5875
1473.05586	8896.3875
1476.46045	8968.4875
1479.86276	9040.7875
1483.26279	9128.9875
1486.66054	9297.1875
1490.05602	9549.1875
1493.44922	10054.3875
1496.84016	10853.7875
1500.22882	12129.0875
1503.61521	13739.7875
1506.99934	15358.4875
1510.38121	16483.2875
1513.76081	16399.6875
1517.13816	14950.0875
1520.51324	12931.9875
1523.88607	11353.9875
1527.25665	10410.6875
1530.62498	9908.3875
1533.99105	9733.0875
1537.35488	9627.4875
1540.71647	9547.4875
1544.07581	9459.5875
1547.4329	9358.0875
1550.78776	9243.2875
1554.14038	9146.1875
1557.49077	9090.1875
1560.83892	9188.5875
1564.18484	9382.0875
1567.52853	9683.1875
1570.86999	9978.8875
1574.20922	10098.0875
1577.54624	9988.8875
1580.88103	9509.4875
1584.2136	8902.7875
1587.54395	8572.5875
1590.87208	8523.7875
1594.19801	8704.4875
1597.52172	9046.7875
1600.84321	9183.7875
1604.16251	9095.7875
1607.47959	8905.5875
1610.79447	8734.0875
1614.10715	8418.9875
1617.41763	8114.8875
1620.7259	7867.9875
1624.03199	7694.1875
1627.33587	7623.1875
1630.63757	7688.9875
1633.93707	7914.8875
1637.23439	8313.9875
1640.52951	8992.8875
1643.82246	9919.4875
1647.11321	11001.4875
1650.40179	11632.6875
1653.68819	11306.3875
1656.97241	10115.9875
1660.25446	8821.9875
1663.53433	7866.3875
1666.81203	7286.3875
1670.08756	6985.9875
1673.36092	6782.6875
1676.63211	6664.8875
1679.90115	6564.4875
1683.16801	6509.9875
1686.43272	6399.4875
1689.69527	6362.9875
1692.95567	6298.4875
1696.2139	6258.8875
1699.46999	6184.7875
1702.72392	6237.3875
1705.97571	6229.2875
1709.22535	6196.7875
1712.47284	6229.2875
1715.71819	6246.0875
1718.96139	6241.7875
1722.20246	6232.4875
1725.44139	6192.0875
1728.67818	6164.5875
1731.91284	6125.6875
1735.14537	6106.8875
1738.37576	6074.0875
1741.60403	6037.6875
1744.83017	6016.3875
1748.05418	6019.2875
1751.27607	6027.7875
1754.49584	5979.4875
1757.71349	5968.9875
1760.92903	5964.5875
1764.14244	5910.3875
1767.35375	5925.6875
1770.56294	5891.7875
1773.77002	5904.4875
1776.97499	5891.7875
1780.17785	5886.8875
1783.37861	5864.7875
1786.57727	5878.3875
1789.77382	5825.8875
1792.96828	5839.0875
1796.16064	5852.5875
1799.3509	5826.6875
1802.53907	5832.7875
1805.72514	5793.5875
1808.90913	5768.6875
1812.09102	5770.6875
1815.27083	5752.6875
1818.44856	5750.3875
1821.6242	5747.5875
1824.79776	5722.8875
1827.96924	5732.9875
1831.13864	5702.5875
1834.30597	5692.1875
1837.47122	5680.3875
1840.6344	5670.1875
1843.7955	5649.2875
1846.95454	5644.4875
1850.11151	5663.8875
1853.26642	5630.5875
1856.41926	5626.3875
1859.57004	5615.3875
1862.71876	5625.0875
1865.86542	5636.8875
1869.01003	5616.4875
1872.15258	5598.0875
1875.29308	5617.7875
1878.43152	5598.2875
1881.56792	5579.4875
1884.70227	5562.4875
1887.83457	5581.1875
1890.96482	5544.7875
1894.09304	5531.8875
1897.21921	5549.1875
1900.34335	5537.3875
1903.46544	5515.2875
1906.58551	5533.3875
1909.70353	5531.1875
1912.81953	5520.0875
1915.93349	5499.2875
1919.04543	5484.7875
1922.15534	5480.4875
1925.26322	5490.6875
1928.36908	5443.6875
1931.47292	5464.0875
1934.57473	5455.1875
1937.67453	5408.5875
1940.77232	5408.4875
1943.86808	5401.9875
1946.96184	5396.8875
1950.05358	5358.3875
1953.14331	5343.9875
1956.23103	5338.4875
1959.31675	5307.2875
1962.40046	5253.7875
1965.48217	5293.8875
1968.56188	5289.7875
1971.63959	5245.0875
1974.7153	5245.9875
1977.78901	5239.5875
1980.86073	5219.6875
1983.93046	5171.0875
1986.99819	5093.2875
1990.06394	5124.4875
1993.1277	5138.4875
1996.18947	5124.2875
1999.24925	5073.9875
2002.30706	5085.6875
2005.36288	5081.6875
2008.41672	5036.4875
2011.46859	5022.1875
2014.51848	5019.0875
2017.56639	4997.1875
2020.61233	4973.3875
2023.6563	4982.7875
2026.6983	4935.2875
2029.73833	4921.3875
2032.7764	4938.7875
2035.8125	4890.3875
2038.84664	4880.3875
2041.87881	4883.7875
2044.90903	4886.1875
2047.93729	4860.0875
2050.96359	4851.3875
2053.98794	4857.5875
2057.01034	4852.1875
2060.03078	4850.6875
2063.04927	4818.0875
2066.06582	4816.9875
2069.08042	4817.8875
2072.09307	4819.3875
2075.10378	4828.9875
2078.11255	4813.7875
2081.11938	4812.6875
2084.12426	4798.8875
2087.12722	4803.1875
2090.12824	4810.6875
2093.12732	4785.0875
2096.12447	4796.9875
2099.11969	4806.5875
2102.11299	4770.8875
2105.10435	4816.8875
2108.09379	4805.2875
2111.08131	4781.9875
2114.0669	4794.7875
2117.05057	4799.1875
2120.03233	4785.1875
2123.01216	4808.7875
2125.99008	4798.5875
2128.96609	4794.0875
2131.94018	4833.1875
2134.91236	4806.6875
2137.88263	4799.5875
2140.851	4816.0875
2143.81746	4821.5875
2146.78201	4829.1875
2149.74466	4800.4875
2152.7054	4809.6875
2155.66425	4800.0875
2158.6212	4790.0875
2161.57625	4783.1875
2164.52941	4728.9875
2167.48067	4766.8875
2170.43004	4753.8875
2173.37752	4793.2875
2176.32311	4753.5875
2179.26681	4764.6875
2182.20863	4769.3875
2185.14856	4757.4875
2188.08661	4756.7875
2191.02278	4788.0875
2193.95707	4752.0875
2196.88948	4733.9875
2199.82001	4743.8875
2202.74867	4742.6875
2205.67545	4724.4875
2208.60037	4743.8875
2211.52341	4715.6875
2214.44458	4704.9875
2217.36388	4704.2875
2220.28132	4668.3875
2223.1969	4656.9875
2226.11061	4660.3875
2229.02246	4652.2875
2231.93245	4650.7875
2234.84058	4622.5875
2237.74686	4625.7875
2240.65128	4609.8875
2243.55385	4598.6875
2246.45456	4582.2875
2249.35343	4607.1875
2252.25044	4582.2875
2255.14561	4578.5875
2258.03893	4592.4875
2260.93041	4573.1875
2263.82004	4549.4875
2266.70783	4554.8875
2269.59378	4525.6875
2272.4779	4506.5875
2275.36017	4526.8875
2278.24061	4489.6875
2281.11922	4457.5875
2283.996	4486.9875
2286.87094	4457.8875
2289.74405	4466.1875
2292.61534	4470.6875
2295.4848	4456.9875
2298.35243	4433.2875
2301.21824	4422.1875
2304.08223	4418.9875
2306.94439	4435.3875
2309.80474	4436.7875
2312.66327	4433.1875
2315.51999	4411.6875
2318.37489	4400.9875
2321.22797	4380.5875
2324.07925	4377.2875
2326.92871	4371.5875
2329.77637	4346.2875
2332.62222	4351.0875
2335.46626	4335.7875
2338.3085	4308.8875
2341.14893	4342.9875
2343.98756	4352.3875
2346.8244	4321.0875
2349.65943	4300.1875
2352.49267	4308.6875
2355.32411	4313.2875
2358.15376	4327.2875
2360.98161	4315.1875
2363.80768	4308.5875
2366.63195	4300.4875
2369.45444	4297.8875
2372.27514	4313.0875
2375.09405	4318.6875
2377.91118	4251.8875
2380.72652	4266.6875
2383.54009	4266.9875
2386.35187	4267.4875
2389.16188	4225.0875
2391.97011	4240.0875
2394.77657	4202.7875
2397.58125	4216.2875
2400.38416	4207.2875
2403.18529	4188.9875
2405.98466	4171.4875
2408.78226	4177.1875
2411.57809	4173.1875
2414.37216	4154.2875
2417.16446	4156.2875
2419.955	4133.6875
2422.74378	4150.0875
2425.5308	4137.1875
2428.31606	4136.2875
2431.09956	4135.8875
2433.88131	4105.8875
2436.6613	4119.9875
2439.43954	4110.2875
2442.21603	4084.1875
2444.99077	4100.0875
2447.76377	4121.0875
2450.53501	4103.4875
2453.30451	4085.1875
2456.07226	4082.3875
2458.83827	4082.8875
2461.60254	4040.1875
2464.36507	4069.4875
2467.12586	4054.9875
2469.88492	4047.9875
2472.64224	4058.6875
2475.39782	4030.3875
2478.15167	4039.4875
2480.90379	4037.2875
2483.65417	4055.4875
2486.40283	4050.1875
2489.14976	4072.9875
2491.89497	4036.0875
2494.63845	4048.1875
2497.3802	4022.3875
2500.12024	4032.9875
2502.85855	4012.2875
2505.59514	4021.6875
2508.33002	4016.7875
2511.06318	3989.1875
2513.79462	3984.7875
2516.52435	3937.9875
2519.25237	3934.9875
2521.97867	3934.4875
2524.70327	3940.2875
2527.42616	3927.1875
2530.14734	3931.6875
2532.86681	3929.2875
2535.58458	3906.1875
2538.30065	3914.2875
2541.01501	3911.2875
2543.72768	3897.5875
2546.43864	3899.7875
2549.14791	3883.6875
2551.85548	3867.4875
2554.56136	3869.1875
2557.26554	3876.8875
2559.96803	3858.2875
2562.66883	3869.2875
2565.36794	3852.1875
2568.06536	3817.0875
2570.7611	3832.1875
2573.45514	3822.9875
2576.14751	3805.6875
2578.83819	3779.3875
2581.52719	3792.2875
2584.21451	3782.2875
2586.90015	3772.2875
2589.58411	3746.8875
2592.2664	3753.6875
2594.94701	3745.5875
2597.62594	3757.9875
2600.30321	3683.1875
2602.9788	3698.2875
2605.65273	3685.5875
2608.32498	3709.5875
2610.99557	3732.6875
2613.66449	3693.5875
2616.33175	3700.1875
2618.99734	3693.1875
2621.66128	3699.9875
2624.32355	3676.7875
2626.98416	3657.1875
2629.64311	3642.1875
2632.30041	3649.9875
2634.95605	3633.4875
2637.61004	3617.9875
2640.26238	3599.3875
2642.91306	3605.0875
2645.56209	3624.4875
2648.20948	3614.5875
2650.85521	3598.5875
2653.4993	3625.7875
2656.14175	3610.8875
2658.78255	3604.8875
2661.42171	3578.7875
2664.05923	3610.6875
2666.6951	3622.1875
2669.32934	3610.1875
2671.96194	3629.1875
2674.59291	3604.0875
2677.22224	3605.6875
2679.84993	3605.2875
2682.476	3602.9875
2685.10043	3598.4875
2687.72324	3580.3875
2690.34441	3582.9875
2692.96396	3569.2875
2695.58188	3586.2875
2698.19818	3581.2875
2700.81285	3572.1875
2703.4259	3568.9875
2706.03733	3541.5875
2708.64714	3534.3875
2711.25533	3566.9875
2713.86191	3576.7875
2716.46687	3559.4875
2719.07021	3555.3875
2721.67194	3555.8875
2724.27206	3580.2875
2726.87057	3552.2875
2729.46747	3552.4875
2732.06276	3554.3875
2734.65644	3540.8875
2737.24852	3531.4875
2739.83899	3515.1875
2742.42786	3520.2875
2745.01513	3534.2875
2747.60079	3515.0875
2750.18486	3488.5875
2752.76733	3500.2875
2755.3482	3494.7875
2757.92747	3496.3875
2760.50515	3459.2875
2763.08123	3473.2875
2765.65573	3462.9875
2768.22863	3445.2875
2770.79994	3433.9875
2773.36967	3435.8875
2775.9378	3439.8875
2778.50435	3420.4875
2781.06932	3430.1875
2783.6327	3411.2875
2786.1945	3438.0875
2788.75471	3410.3875
2791.31335	3414.7875
2793.87041	3412.7875
2796.42589	3376.3875
2798.97979	3368.3875
2801.53212	3372.1875
2804.08288	3380.5875
2806.63206	3376.5875
2809.17967	3332.5875
2811.72571	3359.3875
2814.27018	3350.2875
2816.81308	3347.7875
2819.35442	3309.8875
2821.89419	3319.4875
2824.43239	3312.7875
2826.96904	3324.5875
2829.50412	3313.3875
2832.03763	3307.3875
2834.56959	3307.7875
2837.1	3287.9875
2839.62884	3285.9875
2842.15613	3292.3875
2844.68186	3295.2875
2847.20604	3268.6875
2849.72867	3272.0875
2852.24974	3271.6875
2854.76927	3232.4875
2857.28724	3179.2875
2859.80367	3247.0875
2862.31855	3250.1875
2864.83189	3239.1875
2867.34368	3243.6875
2869.85393	3265.7875
2872.36264	3229.8875
2874.8698	3216.8875
2877.37543	3231.5875
2879.87952	3210.5875
2882.38207	3200.4875
2884.88308	3205.9875
2887.38256	3213.0875
2889.88051	3201.6875
2892.37692	3209.3875
2894.8718	3174.5875
2897.36515	3203.3875
2899.85698	3188.7875
2902.34727	3189.9875
2904.83604	3199.2875
2907.32328	3205.6875
2909.809	3203.0875
2912.29319	3185.5875
2914.77587	3213.0875
2917.25702	3212.3875
2919.73665	3211.2875
2922.21476	3215.7875
2924.69136	3217.0875
2927.16644	3197.3875
2929.64	3205.5875
2932.11205	3174.9875
2934.58258	3185.3875
2937.05161	3173.0875
2939.51912	3167.1875
2941.98513	3175.7875
2944.44962	3160.9875
2946.91261	3140.5875
2949.37409	3143.7875
2951.83407	3147.8875
2954.29254	3142.7875
2956.74951	3130.3875
2959.20498	3114.4875
2961.65895	3115.0875
2964.11142	3122.8875
2966.56239	3108.0875
2969.01186	3126.8875
2971.45984	3112.7875
2973.90632	3096.7875
2976.35131	3109.7875
2978.7948	3092.6875
2981.23681	3075.3875
2983.67732	3092.1875
2986.11635	3076.4875
2988.55388	3046.9875
2990.98993	3055.0875
2993.4245	3038.2875
2995.85758	3022.4875
2998.28917	3036.2875
3000.71928	3007.7875
3003.14791	3016.7875
3005.57506	2992.3875
3008.00073	2984.7875
3010.42493	2921.7875
3012.84764	2979.0875
3015.26888	2973.6875
3017.68865	2973.8875
3020.10694	2926.7875
3022.52376	2922.8875
3024.9391	2936.6875
3027.35298	2925.5875
3029.76539	2916.1875
3032.17632	2916.2875
3034.5858	2894.3875
3036.9938	2895.7875
3039.40034	2904.3875
3041.80542	2888.4875
3044.20903	2880.1875
3046.61118	2869.9875
3049.01187	2866.5875
3051.4111	2863.0875
3053.80888	2849.4875
3056.20519	2841.8875
3058.60005	2826.7875
3060.99345	2836.4875
3063.3854	2815.1875
3065.7759	2811.6875
3068.16494	2798.3875
3070.55254	2802.3875
3072.93868	2788.8875
3075.32338	2780.6875
3077.70662	2777.0875
3080.08842	2769.7875
3082.46878	2749.7875
3084.84769	2770.6875
3087.22515	2743.1875
3089.60118	2754.7875
3091.97576	2742.8875
3094.3489	2758.4875
3096.72061	2732.5875
3099.09087	2734.5875
3101.4597	2729.7875
3103.82709	2721.0875
3106.19305	2720.4875
3108.55757	2729.0875
3110.92066	2711.9875
3113.28232	2714.6875
3115.64255	2721.9875
3118.00134	2710.9875
3120.35871	2683.5875
3122.71466	2674.5875
3125.06917	2675.2875
3127.42226	2667.5875
3129.77393	2642.5875
3132.12417	2651.2875
3134.47299	2666.2875
3136.82039	2645.7875
3139.16636	2607.4875
3141.51092	2646.4875
3143.85406	2636.7875
3146.19579	2620.9875
3148.53609	2629.8875
3150.87499	2628.0875
3153.21246	2612.5875
3155.54853	2629.4875
3157.88318	2621.9875
3160.21642	2631.4875
3162.54826	2614.9875
3164.87868	2628.9875
3167.2077	2580.9875
3169.5353	2603.9875
3171.86151	2611.8875
3174.18631	2603.7875
3176.5097	2601.9875
3178.83169	2591.7875
3181.15228	2593.5875
3183.47147	2563.5875
3185.78926	2559.5875
3188.10565	2564.4875
3190.42065	2532.4875
3192.73424	2552.3875
3195.04645	2544.3875
3197.35725	2522.7875
3199.66667	2536.8875
3201.97469	2533.6875
3204.28132	2523.5875
3206.58656	2532.5875
3208.8904	2543.1875
3211.19287	2535.3875
3213.49394	2516.3875
3215.79363	2516.7875
3218.09193	2521.6875
3220.38884	2520.0875
3222.68438	2524.8875
3224.97853	2499.0875
3227.2713	2510.0875
3229.56269	2487.5875
3231.8527	2494.4875
3234.14133	2485.0875
3236.42858	2482.8875
3238.71446	2460.4875
3240.99896	2479.8875
3243.28209	2449.9875
3245.56384	2460.4875
3247.84423	2448.9875
3250.12324	2451.9875
3252.40088	2453.6875
3254.67715	2447.1875
3256.95205	2423.6875
3259.22558	2435.2875
3261.49775	2423.6875
3263.76855	2431.4875
3266.03799	2427.4875
3268.30606	2431.6875
3270.57277	2438.5875
3272.83812	2405.5875
3275.10211	2414.7875
3277.36474	2426.4875
3279.62601	2408.7875
3281.88593	2381.2875
3284.14448	2366.7875
3286.40168	2386.1875
3288.65753	2368.1875
3290.91202	2374.5875
3293.16516	2359.2875
3295.41695	2372.0875
3297.66738	2372.2875
3299.91647	2342.9875
3302.16421	2336.1875
3304.4106	2302.8875
3306.65564	2316.7875
3308.89933	2284.4875
3311.14169	2276.2875
3313.38269	2253.9875
3315.62236	2233.2875
3317.86068	2215.7875
3320.09766	2213.1875
3322.3333	2178.8875
3324.5676	2160.4875
3326.80056	2136.4875
3329.03219	2136.2875
3331.26248	-0.4125
3333.49143	-0.0125
3335.71905	0.6875
