Data from AgNPs_UA_10uM_CRN_500uM_SU_RamanShift__115__13-24-30-276.txt Node

Date: Thu Aug 04 13:24:30 BST 2022
User: TCL
Spectrometer: QEP01345
Trigger mode: 4
Integration Time (sec): 1.000000E0
Scans to average: 10
Electric dark correction enabled: true
Nonlinearity correction enabled: false
Boxcar width: 0
XAxis mode: Raman Shifts
Number of Pixels in Spectrum: 1044
>>>>>Begin Spectral Data<<<<<
46.04893	0.6
50.45542	-1
54.85868	0.8
59.25871	0
63.6555	21.6
68.04907	22.1
72.43941	21.7
76.82654	24.1
81.21044	24.3
85.59113	25.8
89.96862	26.8
94.34289	28.1
98.71396	27.2
103.08183	29.5
107.4465	29.7
111.80798	32.1
116.16626	30.8
120.52136	34.6
124.87327	35.1
129.222	36.1
133.56755	40.4
137.90993	41.5
142.24913	49.8
146.58517	56.5
150.91804	65.9
155.24774	82.9
159.57429	100.9
163.89768	135.1
168.21792	180.2
172.53501	244.2
176.84895	346.2
181.15975	490.5
185.46741	699.1
189.77193	969.8
194.07331	1302.3
198.37157	1683
202.6667	2089.1
206.9587	2478.9
211.24758	2891.2
215.53334	3308.7
219.81599	3724.2
224.09553	4217.4
228.37195	4748.4
232.64527	5315.7
236.91549	5900.9
241.18261	6414.5
245.44663	6830.2
249.70755	7145.2
253.96539	7442
258.22014	7683.9
262.4718	7929.3
266.72039	8064.2
270.96589	8103.4
275.20832	8066
279.44768	7958.3
283.68397	7822.1
287.91719	7738.8
292.14735	7763.8
296.37445	7886.3
300.59849	8100.5
304.81948	8425.8
309.03742	8704.6
313.25231	8848.8
317.46415	8734.9
321.67296	8437.5
325.87872	8075.1
330.08145	7926
334.28114	7890.1
338.47781	7987.8
342.67145	8127.6
346.86207	8366.7
351.04966	8712.4
355.23424	9063.7
359.4158	9298.5
363.59435	9411.6
367.76989	9431.6
371.94243	9434.9
376.11196	9395.5
380.27849	9394.6
384.44203	9382.6
388.60257	9422
392.76012	9500.8
396.91468	9618.8
401.06626	9789.7
405.21485	9846.5
409.36047	9723.7
413.50311	9407.8
417.64277	9120.3
421.77947	8938.6
425.9132	8860.8
430.04396	8844.1
434.17176	8900.4
438.2966	8998.3
442.41849	9147.6
446.53742	9343.1
450.6534	9576.6
454.76644	9692.2
458.87653	9709.8
462.98368	9721.8
467.08789	9651
471.18916	9510.4
475.2875	9295.1
479.38291	9127.1
483.4754	9003.4
487.56496	8943.3
491.6516	8922.6
495.73531	8914.6
499.81612	8948.3
503.89401	9041.9
507.96899	9113.8
512.04106	9140.2
516.11023	9180.1
520.1765	9264.3
524.23987	9281.9
528.30034	9254.6
532.35792	9234.9
536.41261	9145
540.46441	9031.6
544.51333	9029.8
548.55936	9062.1
552.60252	9193
556.64279	9376
560.6802	9514.3
564.71473	9603.5
568.7464	9720.9
572.7752	9688.8
576.80114	9445.9
580.82422	9251.7
584.84444	9164.2
588.86181	9205.4
592.87633	9274.8
596.888	9441.4
600.89682	9916.8
604.9028	11035.5
608.90594	13447.7
612.90624	15712.2
616.90371	14438.9
620.89834	11198.6
624.89015	9894.8
628.87913	9790.2
632.86528	9974.1
636.84862	10024.1
640.82913	9786.8
644.80683	9407.9
648.78172	9176.7
652.75379	9220.7
656.72306	9504.6
660.68952	9816.9
664.65319	9761
668.61405	9585.8
672.57211	9617.7
676.52738	9655.2
680.47986	9447.7
684.42955	9232.7
688.37646	9204.9
692.32058	9298.7
696.26192	9466.5
700.20048	9659.5
704.13626	9687.2
708.06928	9576
711.99952	9430.8
715.927	9417.4
719.85171	9515.5
723.77365	9526.9
727.69284	9432.3
731.60928	9344.6
735.52295	9342
739.43388	9368
743.34206	9423.3
747.24749	9448.7
751.15017	9441.8
755.05012	9561.1
758.94733	9892.9
762.8418	10765.5
766.73354	12035.5
770.62254	13073
774.50882	13238.1
778.39237	12777.4
782.27321	11866.9
786.15132	10852.5
790.02671	10112.6
793.89938	9764
797.76935	9565.4
801.6366	9490.6
805.50115	9418.1
809.36299	9374.9
813.22213	9362.5
817.07857	9370.3
820.93231	9355
824.78336	9361.9
828.63172	9380.3
832.47738	9381.5
836.32036	9384.2
840.16066	9374.7
843.99827	9367
847.8332	9359.1
851.66546	9331.7
855.49504	9397.5
859.32195	9377.3
863.1462	9383.4
866.96777	9367.1
870.78668	9367
874.60293	9401.4
878.41652	9467.6
882.22745	9545.7
886.03573	9587.5
889.84136	9574.7
893.64433	9525.9
897.44466	9503.8
901.24235	9494.7
905.0374	9465.7
908.8298	9409.6
912.61957	9397.3
916.40671	9430.3
920.19121	9455.3
923.97308	9524.5
927.75233	9626.7
931.52895	9700.4
935.30295	9634.2
939.07433	9460.6
942.84309	9359.9
946.60924	9317.3
950.37278	9315.6
954.13371	9283.8
957.89203	9275.1
961.64774	9272.1
965.40086	9275.7
969.15137	9266.7
972.89929	9235.3
976.64461	9241.9
980.38733	9255.8
984.12747	9296.7
987.86502	9354
991.59999	9386.6
995.33237	9490.4
999.06217	9631.9
1002.78939	9801.4
1006.51404	9972.8
1010.23611	10145.3
1013.95561	10255.4
1017.67255	10284.5
1021.38692	10275
1025.09872	10209.5
1028.80796	10153.1
1032.51465	10212
1036.21877	10280.2
1039.92035	10301
1043.61937	10272.2
1047.31584	10272.2
1051.00976	10188.4
1054.70114	10194.2
1058.38998	10218.4
1062.07627	10237.5
1065.76003	10306.8
1069.44126	10444.4
1073.11995	10623.5
1076.79611	10833.5
1080.46974	10973.5
1084.14085	11095
1087.80943	11199.5
1091.47549	11242.9
1095.13903	11221.8
1098.80005	11188.9
1102.45857	11206.3
1106.11456	11139.2
1109.76805	11005.9
1113.41903	11012
1117.06751	11128.4
1120.71348	11320.1
1124.35696	11566.1
1127.99793	11729.6
1131.63641	11562.3
1135.2724	11223.7
1138.90589	10939.3
1142.5369	10752.5
1146.16542	10666.5
1149.79145	10566.6
1153.415	10446.5
1157.03607	10433.5
1160.65467	10530.2
1164.27079	10720.7
1167.88443	11096.8
1171.49561	11584
1175.10432	12398.4
1178.71056	13445.3
1182.31434	14348.5
1185.91565	14699
1189.51451	14655.1
1193.11091	14367
1196.70485	13985
1200.29634	13617.1
1203.88538	13179.9
1207.47197	12678.3
1211.05612	12159.2
1214.63782	11774.8
1218.21708	11542
1221.79391	11341.1
1225.36829	11314.2
1228.94024	11269.3
1232.50976	11233.4
1236.07685	11228.2
1239.6415	11259.6
1243.20374	11320.4
1246.76355	11402
1250.32093	11532.2
1253.8759	11739.8
1257.42845	12068.7
1260.97859	12414.9
1264.52631	12762.4
1268.07163	13003
1271.61453	13172.4
1275.15503	13251.9
1278.69312	13264.7
1282.22882	13343.8
1285.76211	13462.5
1289.29301	13666.9
1292.82151	13943.9
1296.34761	14223.2
1299.87133	14729.2
1303.39266	15579.9
1306.9116	16866.2
1310.42815	18136.5
1313.94233	18627.2
1317.45412	18043.8
1320.96354	17011.3
1324.47058	15980.9
1327.97525	15158.3
1331.47754	14620.8
1334.97747	14493.2
1338.47502	14659.8
1341.97022	15156.5
1345.46305	15993.7
1348.95352	17117
1352.44163	18368.6
1355.92738	19687.9
1359.41078	21211.9
1362.89183	22267.1
1366.37053	21135.1
1369.84688	18324
1373.32088	15685.1
1376.79254	14270
1380.26186	13556.1
1383.72883	13172.6
1387.19347	12770
1390.65578	12402.1
1394.11575	12019.6
1397.57339	11751
1401.0287	11634.3
1404.48168	11641.9
1407.93234	11709.2
1411.38068	11924.8
1414.82669	12104.5
1418.27039	12144.8
1421.71177	12144.9
1425.15083	12077.2
1428.58758	12038.2
1432.02203	12138
1435.45416	12230.9
1438.88399	12203.4
1442.31151	12181.6
1445.73673	12170.2
1449.15965	12140
1452.58027	12066.6
1455.9986	11997.5
1459.41463	11974.6
1462.82837	12079.4
1466.23982	12265.5
1469.64898	12477.7
1473.05586	12635.1
1476.46045	12811.6
1479.86276	12916.1
1483.26279	13111.6
1486.66054	13320.1
1490.05602	13695.2
1493.44922	14284
1496.84016	15176
1500.22882	16472.8
1503.61521	18064.4
1506.99934	19626.6
1510.38121	20523.1
1513.76081	20247.4
1517.13816	18746
1520.51324	16791
1523.88607	15211.2
1527.25665	14226.5
1530.62498	13717.3
1533.99105	13475.1
1537.35488	13334.9
1540.71647	13216.2
1544.07581	13177.7
1547.4329	13056.9
1550.78776	12909.5
1554.14038	12812.6
1557.49077	12784.3
1560.83892	12935.1
1564.18484	13235.7
1567.52853	13539.1
1570.86999	13751.4
1574.20922	13799
1577.54624	13579.6
1580.88103	13011.9
1584.2136	12420.3
1587.54395	12143.6
1590.87208	12253.7
1594.19801	12711.9
1597.52172	13286.1
1600.84321	13520.2
1604.16251	13425.6
1607.47959	13177.2
1610.79447	12737.8
1614.10715	12132.3
1617.41763	11517.3
1620.7259	11032.6
1624.03199	10790.9
1627.33587	10753.4
1630.63757	10919.5
1633.93707	11330.4
1637.23439	12039
1640.52951	13160.1
1643.82246	14620.9
1647.11321	16036.9
1650.40179	16539.4
1653.68819	15675.3
1656.97241	13824.7
1660.25446	12054.8
1663.53433	10895.4
1666.81203	10172.8
1670.08756	9787.8
1673.36092	9526.4
1676.63211	9360.8
1679.90115	9225.8
1683.16801	9136.5
1686.43272	9045
1689.69527	8983.4
1692.95567	8942.3
1696.2139	8904
1699.46999	8882.1
1702.72392	8875.3
1705.97571	8849.6
1709.22535	8862
1712.47284	8855.4
1715.71819	8871.9
1718.96139	8860.7
1722.20246	8849.7
1725.44139	8820.6
1728.67818	8764.9
1731.91284	8701.8
1735.14537	8665.7
1738.37576	8637.4
1741.60403	8602.4
1744.83017	8580
1748.05418	8551.2
1751.27607	8549.8
1754.49584	8523
1757.71349	8511.2
1760.92903	8509.1
1764.14244	8487
1767.35375	8472.5
1770.56294	8435.9
1773.77002	8412
1776.97499	8406
1780.17785	8376.1
1783.37861	8339.6
1786.57727	8341
1789.77382	8329
1792.96828	8320.9
1796.16064	8309.1
1799.3509	8293.7
1802.53907	8288.8
1805.72514	8298.9
1808.90913	8241.2
1812.09102	8227.5
1815.27083	8209.7
1818.44856	8179.2
1821.6242	8148.1
1824.79776	8150.2
1827.96924	8128.7
1831.13864	8102
1834.30597	8111.1
1837.47122	8096.4
1840.6344	8076.8
1843.7955	8066.5
1846.95454	8086
1850.11151	8063
1853.26642	8046.4
1856.41926	8053.3
1859.57004	8037.9
1862.71876	8055.9
1865.86542	8042.8
1869.01003	8024.8
1872.15258	8028.9
1875.29308	7994.3
1878.43152	7997.2
1881.56792	7945.6
1884.70227	7968
1887.83457	7958.8
1890.96482	7922
1894.09304	7927.6
1897.21921	7913.4
1900.34335	7892.9
1903.46544	7893.3
1906.58551	7887.9
1909.70353	7865.7
1912.81953	7875
1915.93349	7853.2
1919.04543	7846.8
1922.15534	7824.6
1925.26322	7813.2
1928.36908	7793.2
1931.47292	7775.8
1934.57473	7751.9
1937.67453	7736.1
1940.77232	7731.5
1943.86808	7696.9
1946.96184	7688.1
1950.05358	7661.2
1953.14331	7638.6
1956.23103	7630.6
1959.31675	7596.5
1962.40046	7569.6
1965.48217	7543.6
1968.56188	7517.5
1971.63959	7475.8
1974.7153	7492.4
1977.78901	7459
1980.86073	7457.6
1983.93046	7417.6
1986.99819	7408.5
1990.06394	7377.5
1993.1277	7368.3
1996.18947	7324.6
1999.24925	7285.7
2002.30706	7276.9
2005.36288	7253.9
2008.41672	7214.4
2011.46859	7204.9
2014.51848	7182.8
2017.56639	7166.7
2020.61233	7140.2
2023.6563	7116.6
2026.6983	7088.5
2029.73833	7066.2
2032.7764	7067.1
2035.8125	7045.4
2038.84664	7039.1
2041.87881	7010.9
2044.90903	6990.3
2047.93729	6975.8
2050.96359	6982
2053.98794	6957
2057.01034	6971.8
2060.03078	6949.4
2063.04927	6921.1
2066.06582	6903
2069.08042	6928.9
2072.09307	6907.9
2075.10378	6916.7
2078.11255	6875.3
2081.11938	6882.5
2084.12426	6865.4
2087.12722	6886.4
2090.12824	6870.5
2093.12732	6884.6
2096.12447	6884.3
2099.11969	6884.5
2102.11299	6888.7
2105.10435	6889.3
2108.09379	6893.5
2111.08131	6884.4
2114.0669	6885.3
2117.05057	6906.8
2120.03233	6915.7
2123.01216	6914.8
2125.99008	6906.9
2128.96609	6910.8
2131.94018	6929.9
2134.91236	6919.4
2137.88263	6923.5
2140.851	6910.1
2143.81746	6913
2146.78201	6921.7
2149.74466	6910.7
2152.7054	6907.5
2155.66425	6906.9
2158.6212	6877.2
2161.57625	6884.8
2164.52941	6875.8
2167.48067	6879.4
2170.43004	6866.9
2173.37752	6851.4
2176.32311	6875
2179.26681	6879.6
2182.20863	6862
2185.14856	6890.5
2188.08661	6876.1
2191.02278	6876.7
2193.95707	6871.6
2196.88948	6851
2199.82001	6837.4
2202.74867	6851.3
2205.67545	6856.3
2208.60037	6826
2211.52341	6819
2214.44458	6802.9
2217.36388	6792
2220.28132	6754
2223.1969	6755.4
2226.11061	6735.5
2229.02246	6705.4
2231.93245	6701.8
2234.84058	6700.4
2237.74686	6692.1
2240.65128	6679.1
2243.55385	6668.7
2246.45456	6662.8
2249.35343	6643.4
2252.25044	6637.2
2255.14561	6631.4
2258.03893	6652.4
2260.93041	6623.7
2263.82004	6612
2266.70783	6597.2
2269.59378	6575.8
2272.4779	6563.3
2275.36017	6532.7
2278.24061	6536.1
2281.11922	6493.9
2283.996	6489.9
2286.87094	6493.3
2289.74405	6466.8
2292.61534	6478.1
2295.4848	6435.6
2298.35243	6437
2301.21824	6425
2304.08223	6439.3
2306.94439	6429.6
2309.80474	6419
2312.66327	6434.6
2315.51999	6418
2318.37489	6429.2
2321.22797	6405.9
2324.07925	6397
2326.92871	6380
2329.77637	6376.9
2332.62222	6367
2335.46626	6338.9
2338.3085	6340.1
2341.14893	6336.3
2343.98756	6333.5
2346.8244	6349.4
2349.65943	6340.8
2352.49267	6310.3
2355.32411	6301.8
2358.15376	6318.8
2360.98161	6328.4
2363.80768	6313.1
2366.63195	6296.3
2369.45444	6298.4
2372.27514	6297.7
2375.09405	6302.4
2377.91118	6244.1
2380.72652	6247.1
2383.54009	6240.3
2386.35187	6232.2
2389.16188	6204.6
2391.97011	6193.9
2394.77657	6188.9
2397.58125	6155.7
2400.38416	6145.1
2403.18529	6148.7
2405.98466	6136
2408.78226	6117.6
2411.57809	6115.5
2414.37216	6096.5
2417.16446	6098
2419.955	6080.8
2422.74378	6091.6
2425.5308	6073.2
2428.31606	6076.6
2431.09956	6073
2433.88131	6052.9
2436.6613	6055.8
2439.43954	6053.8
2442.21603	6052
2444.99077	6052.6
2447.76377	6045.5
2450.53501	6044.1
2453.30451	6033
2456.07226	6039.6
2458.83827	6027.2
2461.60254	5999.5
2464.36507	5991.6
2467.12586	5978.4
2469.88492	5976.3
2472.64224	5991.1
2475.39782	5981.5
2478.15167	5979.9
2480.90379	5963.2
2483.65417	5973.7
2486.40283	5969.5
2489.14976	5981.3
2491.89497	5968.1
2494.63845	5962.1
2497.3802	5951.2
2500.12024	5966
2502.85855	5939.7
2505.59514	5949.6
2508.33002	5933
2511.06318	5901.8
2513.79462	5901.5
2516.52435	5894.3
2519.25237	5878.9
2521.97867	5872.7
2524.70327	5865
2527.42616	5846.6
2530.14734	5813.4
2532.86681	5825
2535.58458	5844.9
2538.30065	5841.7
2541.01501	5819.2
2543.72768	5818
2546.43864	5809.5
2549.14791	5798.1
2551.85548	5799.5
2554.56136	5779.1
2557.26554	5781.3
2559.96803	5767.9
2562.66883	5751.3
2565.36794	5748.2
2568.06536	5746.1
2570.7611	5718.1
2573.45514	5706.4
2576.14751	5711
2578.83819	5671.3
2581.52719	5672.4
2584.21451	5660.6
2586.90015	5662.3
2589.58411	5648.2
2592.2664	5654.2
2594.94701	5640.3
2597.62594	5638.8
2600.30321	5610.4
2602.9788	5615.6
2605.65273	5633.8
2608.32498	5613.9
2610.99557	5605.9
2613.66449	5597.5
2616.33175	5612.6
2618.99734	5582.6
2621.66128	5587
2624.32355	5571.1
2626.98416	5555.8
2629.64311	5568.4
2632.30041	5531
2634.95605	5538.9
2637.61004	5508.1
2640.26238	5504.3
2642.91306	5510.7
2645.56209	5486.7
2648.20948	5493.4
2650.85521	5491.2
2653.4993	5485.5
2656.14175	5488.1
2658.78255	5469.9
2661.42171	5476.7
2664.05923	5497.8
2666.6951	5492.9
2669.32934	5519.6
2671.96194	5511.1
2674.59291	5509.1
2677.22224	5511.4
2679.84993	5499.8
2682.476	5498.6
2685.10043	5502.3
2687.72324	5504
2690.34441	5482.3
2692.96396	5487.2
2695.58188	5469.6
2698.19818	5448.1
2700.81285	5460.3
2703.4259	5447.6
2706.03733	5458.5
2708.64714	5434.4
2711.25533	5443.2
2713.86191	5451.4
2716.46687	5467.6
2719.07021	5450
2721.67194	5460.4
2724.27206	5443.8
2726.87057	5444.5
2729.46747	5443
2732.06276	5434.2
2734.65644	5436.2
2737.24852	5429.3
2739.83899	5408
2742.42786	5399.2
2745.01513	5399.7
2747.60079	5392.1
2750.18486	5381.4
2752.76733	5383.1
2755.3482	5368.2
2757.92747	5352.1
2760.50515	5351.7
2763.08123	5350
2765.65573	5334
2768.22863	5331.6
2770.79994	5318.9
2773.36967	5317.9
2775.9378	5311.6
2778.50435	5311.4
2781.06932	5287.3
2783.6327	5299.2
2786.1945	5311
2788.75471	5288.2
2791.31335	5260.6
2793.87041	5264.3
2796.42589	5243.2
2798.97979	5232.6
2801.53212	5213.3
2804.08288	5205
2806.63206	5187.8
2809.17967	5200.4
2811.72571	5195.1
2814.27018	5185.1
2816.81308	5188.3
2819.35442	5164.4
2821.89419	5133.3
2824.43239	5150.5
2826.96904	5118.9
2829.50412	5122.9
2832.03763	5114.1
2834.56959	5102.1
2837.1	5080.9
2839.62884	5097.3
2842.15613	5087.6
2844.68186	5072.8
2847.20604	5068.4
2849.72867	5053.2
2852.24974	5046.7
2854.76927	5032.2
2857.28724	5030.5
2859.80367	5030.9
2862.31855	5031.2
2864.83189	5022.6
2867.34368	5035.8
2869.85393	5005.3
2872.36264	5005.5
2874.8698	4987.6
2877.37543	5010.7
2879.87952	4984
2882.38207	4980.5
2884.88308	4970.6
2887.38256	4974.8
2889.88051	4947.1
2892.37692	4957.6
2894.8718	4949.6
2897.36515	4957
2899.85698	4943.1
2902.34727	4961.2
2904.83604	4976.5
2907.32328	4982.6
2909.809	4967.8
2912.29319	4984.4
2914.77587	4980.4
2917.25702	4976.7
2919.73665	4976.7
2922.21476	4961
2924.69136	4978.4
2927.16644	4947.5
2929.64	4951.8
2932.11205	4940.7
2934.58258	4910.2
2937.05161	4912.2
2939.51912	4933.2
2941.98513	4915.8
2944.44962	4908.1
2946.91261	4893.5
2949.37409	4901.1
2951.83407	4902.8
2954.29254	4889.7
2956.74951	4887.6
2959.20498	4878
2961.65895	4868.6
2964.11142	4871.2
2966.56239	4869.1
2969.01186	4868.6
2971.45984	4866
2973.90632	4857.4
2976.35131	4842.7
2978.7948	4837.6
2981.23681	4832.4
2983.67732	4819.2
2986.11635	4801.5
2988.55388	4792.8
2990.98993	4774.7
2993.4245	4775.8
2995.85758	4767.8
2998.28917	4727.9
3000.71928	4733.2
3003.14791	4710.9
3005.57506	4718.3
3008.00073	4704.7
3010.42493	4683.6
3012.84764	4675.2
3015.26888	4658.6
3017.68865	4672.1
3020.10694	4661.3
3022.52376	4638.2
3024.9391	4634.6
3027.35298	4595.5
3029.76539	4604.4
3032.17632	4600.3
3034.5858	4578.4
3036.9938	4569.5
3039.40034	4567.7
3041.80542	4549.4
3044.20903	4542.3
3046.61118	4530.7
3049.01187	4528.2
3051.4111	4513.3
3053.80888	4506.1
3056.20519	4507.8
3058.60005	4478.5
3060.99345	4488.9
3063.3854	4466.6
3065.7759	4453.2
3068.16494	4449
3070.55254	4437.7
3072.93868	4410.2
3075.32338	4395.7
3077.70662	4397.7
3080.08842	4384.3
3082.46878	4370.5
3084.84769	4356.6
3087.22515	4353.8
3089.60118	4352.5
3091.97576	4347.2
3094.3489	4330
3096.72061	4344.1
3099.09087	4333.9
3101.4597	4328.7
3103.82709	4333.2
3106.19305	4314.2
3108.55757	4334.7
3110.92066	4317.2
3113.28232	4298.4
3115.64255	4287.1
3118.00134	4282.7
3120.35871	4278.2
3122.71466	4267.1
3125.06917	4256.7
3127.42226	4247.6
3129.77393	4226.3
3132.12417	4230
3134.47299	4223.6
3136.82039	4214
3139.16636	4214.7
3141.51092	4215.9
3143.85406	4212.2
3146.19579	4197.9
3148.53609	4198.1
3150.87499	4187.4
3153.21246	4199.6
3155.54853	4206.2
3157.88318	4192.4
3160.21642	4186.8
3162.54826	4179.9
3164.87868	4186
3167.2077	4167.3
3169.5353	4163.9
3171.86151	4145.1
3174.18631	4138.7
3176.5097	4139.7
3178.83169	4128.7
3181.15228	4128.6
3183.47147	4115.8
3185.78926	4096.4
3188.10565	4087.9
3190.42065	4074.2
3192.73424	4088.8
3195.04645	4070.7
3197.35725	4072.8
3199.66667	4049.4
3201.97469	4062.4
3204.28132	4067.6
3206.58656	4069.7
3208.8904	4063.8
3211.19287	4069.2
3213.49394	4060.6
3215.79363	4065.3
3218.09193	4070.8
3220.38884	4064.2
3222.68438	4057
3224.97853	4057.1
3227.2713	4042.6
3229.56269	4039
3231.8527	4032.7
3234.14133	4028.9
3236.42858	4005.7
3238.71446	4003.7
3240.99896	3976.1
3243.28209	3984.9
3245.56384	3971.7
3247.84423	3967.9
3250.12324	3960.6
3252.40088	3956.4
3254.67715	3946.2
3256.95205	3941.9
3259.22558	3937.3
3261.49775	3943.5
3263.76855	3941.2
3266.03799	3944.5
3268.30606	3932.2
3270.57277	3939.3
3272.83812	3909.8
3275.10211	3903.5
3277.36474	3909.4
3279.62601	3902.1
3281.88593	3882.6
3284.14448	3879.7
3286.40168	3890.7
3288.65753	3867.4
3290.91202	3874.2
3293.16516	3858.1
3295.41695	3864.7
3297.66738	3844.5
3299.91647	3828.6
3302.16421	3814.6
3304.4106	3781.3
3306.65564	3766.3
3308.89933	3740.6
3311.14169	3704.7
3313.38269	3665.6
3315.62236	3638.7
3317.86068	3619.1
3320.09766	3596.9
3322.3333	3566.4
3324.5676	3545.8
3326.80056	3480.4
3329.03219	3458.2
3331.26248	1.1
3333.49143	0.5
3335.71905	-0.1
