Data from AgNPs_UA_5uM_CRN_500uM_SU_RamanShift__119__11-49-13-163.txt Node

Date: Thu Aug 04 11:49:13 BST 2022
User: TCL
Spectrometer: QEP01345
Trigger mode: 4
Integration Time (sec): 1.000000E0
Scans to average: 10
Electric dark correction enabled: true
Nonlinearity correction enabled: false
Boxcar width: 0
XAxis mode: Raman Shifts
Number of Pixels in Spectrum: 1044
>>>>>Begin Spectral Data<<<<<
46.04893	-1.1125
50.45542	0.4875
54.85868	0.4875
59.25871	-0.4125
63.6555	-59.5125
68.04907	-40.7125
72.43941	-73.7125
76.82654	-58.7125
81.21044	-58.3125
85.59113	-51.2125
89.96862	-76.3125
94.34289	-55.8125
98.71396	-80.5125
103.08183	-60.2125
107.4465	-50.8125
111.80798	-59.6125
116.16626	-48.1125
120.52136	-76.7125
124.87327	-53.2125
129.222	-65.5125
133.56755	-51.7125
137.90993	-68.2125
142.24913	-55.5125
146.58517	-48.8125
150.91804	-45.7125
155.24774	-37.6125
159.57429	-18.0125
163.89768	-17.5125
168.21792	21.0875
172.53501	37.8875
176.84895	109.4875
181.15975	224.6875
185.46741	352.2875
189.77193	507.2875
194.07331	771.4875
198.37157	1021.5875
202.6667	1272.0875
206.9587	1544.6875
211.24758	1824.7875
215.53334	2100.8875
219.81599	2401.8875
224.09553	2736.9875
228.37195	3112.5875
232.64527	3520.8875
236.91549	3934.1875
241.18261	4304.1875
245.44663	4614.7875
249.70755	4820.3875
253.96539	4966.3875
258.22014	5079.2875
262.4718	5101.5875
266.72039	5143.6875
270.96589	5096.7875
275.20832	4996.6875
279.44768	4909.6875
283.68397	4784.3875
287.91719	4731.8875
292.14735	4723.7875
296.37445	4814.3875
300.59849	4974.0875
304.81948	5162.1875
309.03742	5352.7875
313.25231	5482.3875
317.46415	5460.4875
321.67296	5211.0875
325.87872	4986.2875
330.08145	4879.7875
334.28114	4884.1875
338.47781	4903.0875
342.67145	5033.8875
346.86207	5182.4875
351.04966	5440.7875
355.23424	5671.9875
359.4158	5838.0875
363.59435	5888.4875
367.76989	5867.7875
371.94243	5844.6875
376.11196	5799.5875
380.27849	5789.0875
384.44203	5762.9875
388.60257	5756.1875
392.76012	5773.0875
396.91468	5859.7875
401.06626	5981.4875
405.21485	6008.5875
409.36047	5933.6875
413.50311	5774.4875
417.64277	5597.6875
421.77947	5468.4875
425.9132	5442.9875
430.04396	5435.5875
434.17176	5495.6875
438.2966	5587.7875
442.41849	5678.2875
446.53742	5755.5875
450.6534	5844.2875
454.76644	5918.3875
458.87653	5950.0875
462.98368	5960.2875
467.08789	5923.8875
471.18916	5897.6875
475.2875	5851.7875
479.38291	5781.1875
483.4754	5680.8875
487.56496	5631.1875
491.6516	5587.3875
495.73531	5593.0875
499.81612	5594.7875
503.89401	5668.9875
507.96899	5684.1875
512.04106	5772.6875
516.11023	5833.1875
520.1765	5885.2875
524.23987	5921.6875
528.30034	5912.2875
532.35792	5899.7875
536.41261	5890.5875
540.46441	5815.1875
544.51333	5787.0875
548.55936	5834.5875
552.60252	5942.3875
556.64279	5993.8875
560.6802	6084.0875
564.71473	6140.0875
568.7464	6256.4875
572.7752	6207.9875
576.80114	6031.0875
580.82422	5899.9875
584.84444	5843.7875
588.86181	5836.1875
592.87633	5854.7875
596.888	5953.7875
600.89682	6212.9875
604.9028	6828.2875
608.90594	8119.4875
612.90624	9507.3875
616.90371	8955.5875
620.89834	7102.8875
624.89015	6342.0875
628.87913	6207.3875
632.86528	6299.6875
636.84862	6412.7875
640.82913	6357.8875
644.80683	6154.8875
648.78172	6070.1875
652.75379	6099.2875
656.72306	6217.5875
660.68952	6377.4875
664.65319	6315.3875
668.61405	6178.6875
672.57211	6161.9875
676.52738	6191.9875
680.47986	6140.9875
684.42955	6073.0875
688.37646	6049.1875
692.32058	6039.2875
696.26192	6086.4875
700.20048	6177.6875
704.13626	6217.8875
708.06928	6149.1875
711.99952	6141.6875
715.927	6086.6875
719.85171	6138.0875
723.77365	6175.5875
727.69284	6160.6875
731.60928	6150.9875
735.52295	6151.9875
739.43388	6187.9875
743.34206	6191.4875
747.24749	6214.6875
751.15017	6236.5875
755.05012	6248.8875
758.94733	6490.7875
762.8418	6956.9875
766.73354	7739.2875
770.62254	8344.9875
774.50882	8453.0875
778.39237	8137.9875
782.27321	7594.9875
786.15132	6985.3875
790.02671	6533.2875
793.89938	6302.9875
797.76935	6251.2875
801.6366	6203.0875
805.50115	6176.2875
809.36299	6179.1875
813.22213	6174.6875
817.07857	6185.7875
820.93231	6178.5875
824.78336	6181.5875
828.63172	6191.6875
832.47738	6201.3875
836.32036	6224.0875
840.16066	6228.1875
843.99827	6212.3875
847.8332	6221.2875
851.66546	6229.0875
855.49504	6236.5875
859.32195	6267.8875
863.1462	6286.3875
866.96777	6273.0875
870.78668	6261.0875
874.60293	6293.3875
878.41652	6306.5875
882.22745	6358.3875
886.03573	6386.0875
889.84136	6378.8875
893.64433	6382.3875
897.44466	6365.7875
901.24235	6350.1875
905.0374	6372.5875
908.8298	6326.9875
912.61957	6301.7875
916.40671	6247.0875
920.19121	6311.7875
923.97308	6370.0875
927.75233	6414.9875
931.52895	6441.1875
935.30295	6442.3875
939.07433	6355.8875
942.84309	6293.3875
946.60924	6266.0875
950.37278	6227.9875
954.13371	6235.3875
957.89203	6231.1875
961.64774	6258.5875
965.40086	6225.7875
969.15137	6220.6875
972.89929	6231.5875
976.64461	6233.3875
980.38733	6243.3875
984.12747	6260.9875
987.86502	6275.0875
991.59999	6324.1875
995.33237	6393.3875
999.06217	6470.3875
1002.78939	6556.3875
1006.51404	6691.1875
1010.23611	6823.2875
1013.95561	6862.5875
1017.67255	6906.1875
1021.38692	6888.3875
1025.09872	6811.2875
1028.80796	6710.7875
1032.51465	6703.2875
1036.21877	6692.9875
1039.92035	6731.0875
1043.61937	6755.5875
1047.31584	6779.4875
1051.00976	6812.5875
1054.70114	6822.4875
1058.38998	6797.8875
1062.07627	6830.6875
1065.76003	6868.8875
1069.44126	6979.5875
1073.11995	7044.8875
1076.79611	7195.1875
1080.46974	7291.2875
1084.14085	7341.6875
1087.80943	7393.9875
1091.47549	7465.6875
1095.13903	7510.6875
1098.80005	7441.1875
1102.45857	7342.0875
1106.11456	7249.5875
1109.76805	7126.0875
1113.41903	7191.3875
1117.06751	7254.7875
1120.71348	7382.2875
1124.35696	7602.7875
1127.99793	7761.2875
1131.63641	7706.4875
1135.2724	7496.5875
1138.90589	7356.7875
1142.5369	7254.2875
1146.16542	7246.5875
1149.79145	7201.6875
1153.415	7114.0875
1157.03607	7050.3875
1160.65467	7076.9875
1164.27079	7197.1875
1167.88443	7344.6875
1171.49561	7586.4875
1175.10432	7962.8875
1178.71056	8501.6875
1182.31434	8994.5875
1185.91565	9199.8875
1189.51451	9183.7875
1193.11091	9112.7875
1196.70485	9056.0875
1200.29634	8962.8875
1203.88538	8840.1875
1207.47197	8610.2875
1211.05612	8369.8875
1214.63782	8166.0875
1218.21708	7995.6875
1221.79391	7832.0875
1225.36829	7680.8875
1228.94024	7626.4875
1232.50976	7628.8875
1236.07685	7641.7875
1239.6415	7667.9875
1243.20374	7700.1875
1246.76355	7720.8875
1250.32093	7831.7875
1253.8759	7941.3875
1257.42845	8139.0875
1260.97859	8323.0875
1264.52631	8478.9875
1268.07163	8540.1875
1271.61453	8603.2875
1275.15503	8605.1875
1278.69312	8604.6875
1282.22882	8653.4875
1285.76211	8789.6875
1289.29301	8880.3875
1292.82151	9054.5875
1296.34761	9229.8875
1299.87133	9494.1875
1303.39266	9949.0875
1306.9116	10594.8875
1310.42815	11282.7875
1313.94233	11514.1875
1317.45412	11080.8875
1320.96354	10509.0875
1324.47058	9974.6875
1327.97525	9536.9875
1331.47754	9302.1875
1334.97747	9271.8875
1338.47502	9370.1875
1341.97022	9684.9875
1345.46305	10203.8875
1348.95352	10874.7875
1352.44163	11622.6875
1355.92738	12317.4875
1359.41078	13118.4875
1362.89183	13777.3875
1366.37053	13241.1875
1369.84688	11519.9875
1373.32088	9985.4875
1376.79254	9188.2875
1380.26186	8785.7875
1383.72883	8533.9875
1387.19347	8293.8875
1390.65578	8101.8875
1394.11575	7970.4875
1397.57339	7846.3875
1401.0287	7782.8875
1404.48168	7752.9875
1407.93234	7792.1875
1411.38068	7808.8875
1414.82669	7874.8875
1418.27039	7906.8875
1421.71177	7875.8875
1425.15083	7793.7875
1428.58758	7759.6875
1432.02203	7769.9875
1435.45416	7852.6875
1438.88399	7906.4875
1442.31151	7910.1875
1445.73673	7999.6875
1449.15965	8047.9875
1452.58027	8077.0875
1455.9986	8092.2875
1459.41463	8074.3875
1462.82837	8171.6875
1466.23982	8311.7875
1469.64898	8466.8875
1473.05586	8576.2875
1476.46045	8613.3875
1479.86276	8642.9875
1483.26279	8657.8875
1486.66054	8740.8875
1490.05602	8871.9875
1493.44922	9176.9875
1496.84016	9686.8875
1500.22882	10523.6875
1503.61521	11490.4875
1506.99934	12388.9875
1510.38121	12972.0875
1513.76081	12858.8875
1517.13816	11977.5875
1520.51324	10826.2875
1523.88607	9921.7875
1527.25665	9355.9875
1530.62498	9090.6875
1533.99105	8997.1875
1537.35488	8967.3875
1540.71647	8984.3875
1544.07581	8957.3875
1547.4329	8913.5875
1550.78776	8806.9875
1554.14038	8660.7875
1557.49077	8559.5875
1560.83892	8543.1875
1564.18484	8614.3875
1567.52853	8771.7875
1570.86999	8913.3875
1574.20922	8971.4875
1577.54624	8938.3875
1580.88103	8645.2875
1584.2136	8254.4875
1587.54395	8116.6875
1590.87208	8124.8875
1594.19801	8282.7875
1597.52172	8589.9875
1600.84321	8778.5875
1604.16251	8759.4875
1607.47959	8654.5875
1610.79447	8508.3875
1614.10715	8186.4875
1617.41763	7886.0875
1620.7259	7630.2875
1624.03199	7462.5875
1627.33587	7405.8875
1630.63757	7425.7875
1633.93707	7602.5875
1637.23439	7900.3875
1640.52951	8380.8875
1643.82246	9010.6875
1647.11321	9710.1875
1650.40179	10027.1875
1653.68819	9703.9875
1656.97241	8922.5875
1660.25446	8027.9875
1663.53433	7413.4875
1666.81203	6995.4875
1670.08756	6781.0875
1673.36092	6654.7875
1676.63211	6541.4875
1679.90115	6476.4875
1683.16801	6397.8875
1686.43272	6336.2875
1689.69527	6300.6875
1692.95567	6240.3875
1696.2139	6200.8875
1699.46999	6154.7875
1702.72392	6140.7875
1705.97571	6186.5875
1709.22535	6157.1875
1712.47284	6168.3875
1715.71819	6201.6875
1718.96139	6183.4875
1722.20246	6176.7875
1725.44139	6157.8875
1728.67818	6148.0875
1731.91284	6106.3875
1735.14537	6091.2875
1738.37576	6061.6875
1741.60403	6051.2875
1744.83017	6034.9875
1748.05418	6035.8875
1751.27607	6038.6875
1754.49584	6006.6875
1757.71349	5969.9875
1760.92903	5964.2875
1764.14244	5940.2875
1767.35375	5937.4875
1770.56294	5918.0875
1773.77002	5916.4875
1776.97499	5934.3875
1780.17785	5911.9875
1783.37861	5912.8875
1786.57727	5919.7875
1789.77382	5852.6875
1792.96828	5895.4875
1796.16064	5879.1875
1799.3509	5885.4875
1802.53907	5897.7875
1805.72514	5836.1875
1808.90913	5820.2875
1812.09102	5805.0875
1815.27083	5832.1875
1818.44856	5801.6875
1821.6242	5803.1875
1824.79776	5783.5875
1827.96924	5778.6875
1831.13864	5752.6875
1834.30597	5769.7875
1837.47122	5745.0875
1840.6344	5728.8875
1843.7955	5723.6875
1846.95454	5713.4875
1850.11151	5752.1875
1853.26642	5690.6875
1856.41926	5705.1875
1859.57004	5696.9875
1862.71876	5706.6875
1865.86542	5703.7875
1869.01003	5708.6875
1872.15258	5669.7875
1875.29308	5685.6875
1878.43152	5677.8875
1881.56792	5668.8875
1884.70227	5637.8875
1887.83457	5657.1875
1890.96482	5632.6875
1894.09304	5620.7875
1897.21921	5628.4875
1900.34335	5625.9875
1903.46544	5592.0875
1906.58551	5639.5875
1909.70353	5615.3875
1912.81953	5608.9875
1915.93349	5598.2875
1919.04543	5571.1875
1922.15534	5576.1875
1925.26322	5567.4875
1928.36908	5542.4875
1931.47292	5555.1875
1934.57473	5551.4875
1937.67453	5541.6875
1940.77232	5493.2875
1943.86808	5496.3875
1946.96184	5486.2875
1950.05358	5443.5875
1953.14331	5430.6875
1956.23103	5455.4875
1959.31675	5398.6875
1962.40046	5363.5875
1965.48217	5375.7875
1968.56188	5371.9875
1971.63959	5358.3875
1974.7153	5357.7875
1977.78901	5337.6875
1980.86073	5312.9875
1983.93046	5267.6875
1986.99819	5220.8875
1990.06394	5235.7875
1993.1277	5243.6875
1996.18947	5225.6875
1999.24925	5195.8875
2002.30706	5196.7875
2005.36288	5185.4875
2008.41672	5167.8875
2011.46859	5135.8875
2014.51848	5129.2875
2017.56639	5120.3875
2020.61233	5090.9875
2023.6563	5090.1875
2026.6983	5039.7875
2029.73833	5056.8875
2032.7764	5064.0875
2035.8125	5007.6875
2038.84664	5029.2875
2041.87881	4987.8875
2044.90903	4994.7875
2047.93729	4986.1875
2050.96359	4965.6875
2053.98794	4969.9875
2057.01034	4980.0875
2060.03078	4953.7875
2063.04927	4959.8875
2066.06582	4942.0875
2069.08042	4938.2875
2072.09307	4943.2875
2075.10378	4949.9875
2078.11255	4929.6875
2081.11938	4932.9875
2084.12426	4922.3875
2087.12722	4926.3875
2090.12824	4927.3875
2093.12732	4924.6875
2096.12447	4933.0875
2099.11969	4915.9875
2102.11299	4909.0875
2105.10435	4942.4875
2108.09379	4925.6875
2111.08131	4916.7875
2114.0669	4924.8875
2117.05057	4922.5875
2120.03233	4904.6875
2123.01216	4932.9875
2125.99008	4930.8875
2128.96609	4932.0875
2131.94018	4953.0875
2134.91236	4936.0875
2137.88263	4929.5875
2140.851	4931.3875
2143.81746	4951.8875
2146.78201	4941.1875
2149.74466	4953.5875
2152.7054	4952.2875
2155.66425	4925.0875
2158.6212	4935.1875
2161.57625	4920.2875
2164.52941	4902.6875
2167.48067	4902.4875
2170.43004	4906.3875
2173.37752	4923.6875
2176.32311	4904.8875
2179.26681	4905.6875
2182.20863	4894.1875
2185.14856	4916.8875
2188.08661	4901.7875
2191.02278	4917.4875
2193.95707	4895.5875
2196.88948	4890.0875
2199.82001	4897.5875
2202.74867	4885.1875
2205.67545	4876.2875
2208.60037	4882.0875
2211.52341	4855.0875
2214.44458	4857.1875
2217.36388	4842.5875
2220.28132	4832.9875
2223.1969	4797.8875
2226.11061	4807.5875
2229.02246	4787.7875
2231.93245	4793.0875
2234.84058	4780.9875
2237.74686	4765.3875
2240.65128	4760.9875
2243.55385	4761.8875
2246.45456	4734.6875
2249.35343	4746.6875
2252.25044	4734.4875
2255.14561	4731.3875
2258.03893	4727.1875
2260.93041	4706.9875
2263.82004	4705.8875
2266.70783	4694.1875
2269.59378	4677.9875
2272.4779	4668.2875
2275.36017	4672.0875
2278.24061	4662.5875
2281.11922	4625.7875
2283.996	4624.9875
2286.87094	4619.8875
2289.74405	4600.3875
2292.61534	4627.3875
2295.4848	4613.8875
2298.35243	4619.6875
2301.21824	4586.4875
2304.08223	4592.6875
2306.94439	4596.4875
2309.80474	4584.2875
2312.66327	4585.8875
2315.51999	4562.3875
2318.37489	4555.8875
2321.22797	4542.8875
2324.07925	4551.5875
2326.92871	4523.6875
2329.77637	4517.2875
2332.62222	4502.5875
2335.46626	4498.7875
2338.3085	4492.5875
2341.14893	4493.6875
2343.98756	4505.5875
2346.8244	4487.4875
2349.65943	4464.5875
2352.49267	4476.5875
2355.32411	4476.1875
2358.15376	4454.4875
2360.98161	4470.4875
2363.80768	4448.6875
2366.63195	4466.1875
2369.45444	4446.0875
2372.27514	4456.0875
2375.09405	4455.9875
2377.91118	4422.3875
2380.72652	4421.8875
2383.54009	4406.8875
2386.35187	4412.3875
2389.16188	4399.9875
2391.97011	4393.5875
2394.77657	4378.4875
2397.58125	4380.7875
2400.38416	4361.6875
2403.18529	4358.1875
2405.98466	4349.6875
2408.78226	4335.8875
2411.57809	4332.4875
2414.37216	4327.8875
2417.16446	4323.8875
2419.955	4299.1875
2422.74378	4316.6875
2425.5308	4290.7875
2428.31606	4300.4875
2431.09956	4303.8875
2433.88131	4275.9875
2436.6613	4275.2875
2439.43954	4280.3875
2442.21603	4269.2875
2444.99077	4259.2875
2447.76377	4272.0875
2450.53501	4258.2875
2453.30451	4243.3875
2456.07226	4247.3875
2458.83827	4230.1875
2461.60254	4196.8875
2464.36507	4238.4875
2467.12586	4208.0875
2469.88492	4218.6875
2472.64224	4208.7875
2475.39782	4189.9875
2478.15167	4203.3875
2480.90379	4189.6875
2483.65417	4227.8875
2486.40283	4220.8875
2489.14976	4197.0875
2491.89497	4178.4875
2494.63845	4201.9875
2497.3802	4175.7875
2500.12024	4173.3875
2502.85855	4170.9875
2505.59514	4173.0875
2508.33002	4170.1875
2511.06318	4153.3875
2513.79462	4155.1875
2516.52435	4109.9875
2519.25237	4102.5875
2521.97867	4091.0875
2524.70327	4108.6875
2527.42616	4103.3875
2530.14734	4120.0875
2532.86681	4098.8875
2535.58458	4109.2875
2538.30065	4080.6875
2541.01501	4099.7875
2543.72768	4070.2875
2546.43864	4084.3875
2549.14791	4066.4875
2551.85548	4045.6875
2554.56136	4046.1875
2557.26554	4064.4875
2559.96803	4044.9875
2562.66883	4039.9875
2565.36794	4020.3875
2568.06536	3988.2875
2570.7611	3999.1875
2573.45514	3992.2875
2576.14751	3974.6875
2578.83819	3963.9875
2581.52719	3952.7875
2584.21451	3944.8875
2586.90015	3937.9875
2589.58411	3924.6875
2592.2664	3919.9875
2594.94701	3929.9875
2597.62594	3921.4875
2600.30321	3856.9875
2602.9788	3875.2875
2605.65273	3863.0875
2608.32498	3880.5875
2610.99557	3894.9875
2613.66449	3857.5875
2616.33175	3880.5875
2618.99734	3882.4875
2621.66128	3872.2875
2624.32355	3853.8875
2626.98416	3838.4875
2629.64311	3821.8875
2632.30041	3816.6875
2634.95605	3824.5875
2637.61004	3803.3875
2640.26238	3784.5875
2642.91306	3782.8875
2645.56209	3805.7875
2648.20948	3792.7875
2650.85521	3766.7875
2653.4993	3789.4875
2656.14175	3793.0875
2658.78255	3776.6875
2661.42171	3747.3875
2664.05923	3784.2875
2666.6951	3782.0875
2669.32934	3788.8875
2671.96194	3788.9875
2674.59291	3776.4875
2677.22224	3788.6875
2679.84993	3794.6875
2682.476	3775.5875
2685.10043	3759.6875
2687.72324	3748.5875
2690.34441	3759.8875
2692.96396	3747.8875
2695.58188	3764.1875
2698.19818	3768.5875
2700.81285	3759.3875
2703.4259	3730.0875
2706.03733	3713.8875
2708.64714	3714.3875
2711.25533	3748.0875
2713.86191	3735.5875
2716.46687	3741.4875
2719.07021	3726.5875
2721.67194	3732.8875
2724.27206	3741.7875
2726.87057	3736.4875
2729.46747	3726.0875
2732.06276	3726.7875
2734.65644	3699.9875
2737.24852	3707.9875
2739.83899	3699.5875
2742.42786	3700.6875
2745.01513	3706.0875
2747.60079	3690.3875
2750.18486	3672.5875
2752.76733	3677.4875
2755.3482	3688.2875
2757.92747	3671.2875
2760.50515	3651.3875
2763.08123	3645.7875
2765.65573	3652.3875
2768.22863	3632.8875
2770.79994	3628.4875
2773.36967	3618.8875
2775.9378	3618.2875
2778.50435	3620.3875
2781.06932	3585.8875
2783.6327	3582.1875
2786.1945	3604.0875
2788.75471	3598.9875
2791.31335	3573.9875
2793.87041	3576.4875
2796.42589	3556.6875
2798.97979	3551.3875
2801.53212	3532.8875
2804.08288	3559.9875
2806.63206	3550.7875
2809.17967	3515.1875
2811.72571	3521.5875
2814.27018	3522.3875
2816.81308	3510.1875
2819.35442	3477.2875
2821.89419	3491.6875
2824.43239	3471.3875
2826.96904	3511.7875
2829.50412	3464.5875
2832.03763	3473.3875
2834.56959	3472.0875
2837.1	3455.9875
2839.62884	3447.7875
2842.15613	3449.0875
2844.68186	3451.5875
2847.20604	3414.1875
2849.72867	3412.2875
2852.24974	3421.5875
2854.76927	3383.6875
2857.28724	3346.9875
2859.80367	3410.6875
2862.31855	3397.4875
2864.83189	3385.0875
2867.34368	3390.0875
2869.85393	3382.6875
2872.36264	3369.4875
2874.8698	3381.2875
2877.37543	3370.9875
2879.87952	3365.7875
2882.38207	3347.9875
2884.88308	3360.4875
2887.38256	3343.3875
2889.88051	3350.5875
2892.37692	3344.5875
2894.8718	3331.1875
2897.36515	3351.9875
2899.85698	3343.4875
2902.34727	3336.8875
2904.83604	3341.5875
2907.32328	3351.8875
2909.809	3347.7875
2912.29319	3344.7875
2914.77587	3347.4875
2917.25702	3351.6875
2919.73665	3348.5875
2922.21476	3361.8875
2924.69136	3355.4875
2927.16644	3336.4875
2929.64	3338.3875
2932.11205	3332.8875
2934.58258	3325.7875
2937.05161	3318.7875
2939.51912	3315.4875
2941.98513	3343.5875
2944.44962	3313.9875
2946.91261	3285.9875
2949.37409	3305.7875
2951.83407	3298.4875
2954.29254	3284.5875
2956.74951	3284.2875
2959.20498	3276.9875
2961.65895	3273.7875
2964.11142	3265.1875
2966.56239	3265.9875
2969.01186	3260.9875
2971.45984	3263.4875
2973.90632	3246.8875
2976.35131	3247.3875
2978.7948	3242.6875
2981.23681	3238.2875
2983.67732	3238.8875
2986.11635	3223.8875
2988.55388	3194.8875
2990.98993	3202.9875
2993.4245	3195.2875
2995.85758	3179.9875
2998.28917	3176.1875
3000.71928	3164.6875
3003.14791	3151.0875
3005.57506	3144.0875
3008.00073	3120.2875
3010.42493	3068.2875
3012.84764	3124.6875
3015.26888	3124.2875
3017.68865	3112.7875
3020.10694	3067.2875
3022.52376	3079.9875
3024.9391	3080.0875
3027.35298	3061.9875
3029.76539	3050.4875
3032.17632	3055.7875
3034.5858	3048.9875
3036.9938	3041.4875
3039.40034	3043.0875
3041.80542	3027.1875
3044.20903	3013.8875
3046.61118	3014.4875
3049.01187	3023.9875
3051.4111	3002.8875
3053.80888	2983.7875
3056.20519	2997.6875
3058.60005	2950.7875
3060.99345	2991.0875
3063.3854	2952.2875
3065.7759	2939.7875
3068.16494	2933.8875
3070.55254	2914.5875
3072.93868	2948.5875
3075.32338	2929.9875
3077.70662	2911.0875
3080.08842	2907.9875
3082.46878	2896.1875
3084.84769	2916.1875
3087.22515	2882.7875
3089.60118	2908.9875
3091.97576	2894.8875
3094.3489	2892.6875
3096.72061	2878.9875
3099.09087	2872.5875
3101.4597	2878.3875
3103.82709	2875.8875
3106.19305	2851.8875
3108.55757	2866.9875
3110.92066	2843.0875
3113.28232	2861.5875
3115.64255	2853.7875
3118.00134	2839.5875
3120.35871	2821.2875
3122.71466	2807.7875
3125.06917	2809.0875
3127.42226	2797.4875
3129.77393	2772.9875
3132.12417	2798.4875
3134.47299	2792.9875
3136.82039	2780.1875
3139.16636	2744.4875
3141.51092	2776.7875
3143.85406	2777.9875
3146.19579	2763.9875
3148.53609	2758.4875
3150.87499	2770.4875
3153.21246	2757.1875
3155.54853	2765.2875
3157.88318	2778.5875
3160.21642	2760.3875
3162.54826	2771.0875
3164.87868	2766.2875
3167.2077	2728.7875
3169.5353	2746.8875
3171.86151	2758.8875
3174.18631	2742.3875
3176.5097	2721.6875
3178.83169	2730.9875
3181.15228	2726.9875
3183.47147	2704.0875
3185.78926	2677.8875
3188.10565	2703.6875
3190.42065	2679.4875
3192.73424	2695.4875
3195.04645	2672.3875
3197.35725	2670.0875
3199.66667	2672.7875
3201.97469	2656.8875
3204.28132	2645.0875
3206.58656	2666.0875
3208.8904	2677.4875
3211.19287	2661.1875
3213.49394	2644.8875
3215.79363	2638.5875
3218.09193	2661.6875
3220.38884	2642.4875
3222.68438	2643.7875
3224.97853	2616.7875
3227.2713	2647.5875
3229.56269	2625.1875
3231.8527	2618.5875
3234.14133	2618.1875
3236.42858	2612.7875
3238.71446	2597.1875
3240.99896	2614.0875
3243.28209	2589.6875
3245.56384	2602.5875
3247.84423	2586.6875
3250.12324	2593.0875
3252.40088	2580.5875
3254.67715	2570.3875
3256.95205	2559.3875
3259.22558	2575.2875
3261.49775	2568.3875
3263.76855	2573.0875
3266.03799	2560.3875
3268.30606	2562.5875
3270.57277	2550.9875
3272.83812	2541.0875
3275.10211	2537.1875
3277.36474	2539.7875
3279.62601	2547.6875
3281.88593	2515.7875
3284.14448	2494.2875
3286.40168	2511.1875
3288.65753	2501.9875
3290.91202	2497.1875
3293.16516	2468.9875
3295.41695	2499.0875
3297.66738	2481.2875
3299.91647	2471.8875
3302.16421	2455.4875
3304.4106	2412.8875
3306.65564	2429.8875
3308.89933	2395.6875
3311.14169	2395.7875
3313.38269	2382.9875
3315.62236	2342.2875
3317.86068	2337.1875
3320.09766	2334.0875
3322.3333	2287.2875
3324.5676	2275.3875
3326.80056	2237.1875
3329.03219	2221.3875
3331.26248	-0.8125
3333.49143	-0.1125
3335.71905	0.7875
