Data from AgNPs_UA_5uM_CRN_500uM_SU_RamanShift__105__11-46-53-160.txt Node

Date: Thu Aug 04 11:46:53 BST 2022
User: TCL
Spectrometer: QEP01345
Trigger mode: 4
Integration Time (sec): 1.000000E0
Scans to average: 10
Electric dark correction enabled: true
Nonlinearity correction enabled: false
Boxcar width: 0
XAxis mode: Raman Shifts
Number of Pixels in Spectrum: 1044
>>>>>Begin Spectral Data<<<<<
46.04893	0.125
50.45542	0.325
54.85868	0.825
59.25871	-1.275
63.6555	-64.275
68.04907	-46.375
72.43941	-78.275
76.82654	-64.075
81.21044	-63.575
85.59113	-56.975
89.96862	-83.175
94.34289	-64.075
98.71396	-86.175
103.08183	-68.175
107.4465	-60.175
111.80798	-65.375
116.16626	-53.475
120.52136	-83.675
124.87327	-60.875
129.222	-76.075
133.56755	-64.675
137.90993	-80.475
142.24913	-68.175
146.58517	-64.275
150.91804	-67.375
155.24774	-60.275
159.57429	-48.675
163.89768	-60.275
168.21792	-36.775
172.53501	-43.675
176.84895	-6.775
181.15975	58.725
185.46741	116.925
189.77193	172.625
194.07331	315.625
198.37157	433.925
202.6667	535.725
206.9587	673.225
211.24758	806.325
215.53334	941.325
219.81599	1081.125
224.09553	1249.225
228.37195	1448.325
232.64527	1641.625
236.91549	1874.625
241.18261	2074.025
245.44663	2279.925
249.70755	2420.025
253.96539	2489.325
258.22014	2547.925
262.4718	2530.025
266.72039	2515.925
270.96589	2475.525
275.20832	2417.725
279.44768	2369.725
283.68397	2315.325
287.91719	2273.325
292.14735	2225.125
296.37445	2236.525
300.59849	2263.325
304.81948	2270.725
309.03742	2294.725
313.25231	2305.125
317.46415	2329.425
321.67296	2266.225
325.87872	2229.825
330.08145	2212.525
334.28114	2234.425
338.47781	2262.125
342.67145	2292.125
346.86207	2341.625
351.04966	2409.125
355.23424	2474.525
359.4158	2530.725
363.59435	2533.025
367.76989	2549.525
371.94243	2575.925
376.11196	2576.025
380.27849	2610.825
384.44203	2607.525
388.60257	2628.125
392.76012	2654.925
396.91468	2710.425
401.06626	2758.425
405.21485	2736.525
409.36047	2751.825
413.50311	2736.525
417.64277	2728.325
421.77947	2687.025
425.9132	2716.025
430.04396	2727.925
434.17176	2752.025
438.2966	2798.425
442.41849	2819.125
446.53742	2838.425
450.6534	2877.525
454.76644	2907.225
458.87653	2929.425
462.98368	2941.325
467.08789	2944.925
471.18916	2947.825
475.2875	2966.325
479.38291	2974.225
483.4754	2960.225
487.56496	2961.325
491.6516	2960.625
495.73531	2954.425
499.81612	2967.925
503.89401	2988.825
507.96899	2995.025
512.04106	3020.725
516.11023	3041.525
520.1765	3060.325
524.23987	3075.625
528.30034	3089.525
532.35792	3064.225
536.41261	3074.225
540.46441	3087.125
544.51333	3083.425
548.55936	3105.225
552.60252	3147.825
556.64279	3145.125
560.6802	3192.425
564.71473	3214.625
568.7464	3242.925
572.7752	3240.225
576.80114	3202.125
580.82422	3210.925
584.84444	3182.525
588.86181	3193.225
592.87633	3208.825
596.888	3245.025
600.89682	3300.925
604.9028	3454.325
608.90594	3672.625
612.90624	3973.425
616.90371	3864.125
620.89834	3523.825
624.89015	3403.325
628.87913	3361.725
632.86528	3411.125
636.84862	3447.025
640.82913	3450.225
644.80683	3395.525
648.78172	3392.825
652.75379	3423.725
656.72306	3449.625
660.68952	3489.625
664.65319	3494.225
668.61405	3490.825
672.57211	3504.425
676.52738	3542.925
680.47986	3534.125
684.42955	3531.925
688.37646	3547.825
692.32058	3530.125
696.26192	3545.425
700.20048	3571.925
704.13626	3588.925
708.06928	3564.525
711.99952	3591.525
715.927	3577.025
719.85171	3597.125
723.77365	3628.525
727.69284	3608.525
731.60928	3634.725
735.52295	3618.425
739.43388	3658.925
743.34206	3652.125
747.24749	3695.525
751.15017	3697.025
755.05012	3688.425
758.94733	3756.225
762.8418	3832.925
766.73354	3994.325
770.62254	4094.325
774.50882	4090.025
778.39237	4060.425
782.27321	3991.125
786.15132	3892.225
790.02671	3829.325
793.89938	3738.825
797.76935	3770.025
801.6366	3745.725
805.50115	3746.225
809.36299	3760.125
813.22213	3777.025
817.07857	3790.425
820.93231	3793.925
824.78336	3802.925
828.63172	3802.725
832.47738	3812.325
836.32036	3849.925
840.16066	3837.625
843.99827	3852.625
847.8332	3850.625
851.66546	3847.525
855.49504	3839.025
859.32195	3887.625
863.1462	3884.625
866.96777	3922.525
870.78668	3890.325
874.60293	3903.625
878.41652	3916.025
882.22745	3963.925
886.03573	3963.225
889.84136	3942.925
893.64433	3974.025
897.44466	3966.425
901.24235	3965.025
905.0374	3992.425
908.8298	3973.525
912.61957	3970.625
916.40671	3931.325
920.19121	3953.825
923.97308	3996.025
927.75233	3968.825
931.52895	3989.525
935.30295	4018.525
939.07433	4001.825
942.84309	3976.125
946.60924	3986.525
950.37278	3967.525
954.13371	3970.425
957.89203	3959.225
961.64774	3977.525
965.40086	3980.725
969.15137	3956.725
972.89929	3997.325
976.64461	3979.525
980.38733	4012.125
984.12747	3984.025
987.86502	4001.925
991.59999	4007.025
995.33237	4046.425
999.06217	4076.525
1002.78939	4070.925
1006.51404	4085.925
1010.23611	4130.625
1013.95561	4135.825
1017.67255	4158.125
1021.38692	4172.725
1025.09872	4162.325
1028.80796	4130.525
1032.51465	4146.025
1036.21877	4138.025
1039.92035	4167.225
1043.61937	4159.325
1047.31584	4186.825
1051.00976	4223.325
1054.70114	4240.525
1058.38998	4227.225
1062.07627	4233.525
1065.76003	4240.425
1069.44126	4273.925
1073.11995	4280.325
1076.79611	4303.625
1080.46974	4335.925
1084.14085	4361.425
1087.80943	4368.025
1091.47549	4386.825
1095.13903	4405.725
1098.80005	4387.525
1102.45857	4378.125
1106.11456	4381.025
1109.76805	4335.425
1113.41903	4370.925
1117.06751	4384.525
1120.71348	4396.025
1124.35696	4445.025
1127.99793	4468.425
1131.63641	4470.725
1135.2724	4426.625
1138.90589	4403.525
1142.5369	4367.225
1146.16542	4364.925
1149.79145	4336.625
1153.415	4328.025
1157.03607	4313.925
1160.65467	4338.525
1164.27079	4356.625
1167.88443	4381.125
1171.49561	4449.325
1175.10432	4503.325
1178.71056	4615.325
1182.31434	4732.025
1185.91565	4785.525
1189.51451	4771.225
1193.11091	4750.125
1196.70485	4751.725
1200.29634	4742.325
1203.88538	4721.425
1207.47197	4648.625
1211.05612	4610.425
1214.63782	4555.825
1218.21708	4553.425
1221.79391	4530.925
1225.36829	4495.125
1228.94024	4486.025
1232.50976	4506.325
1236.07685	4528.225
1239.6415	4546.625
1243.20374	4562.325
1246.76355	4556.525
1250.32093	4597.825
1253.8759	4590.025
1257.42845	4649.325
1260.97859	4672.525
1264.52631	4716.525
1268.07163	4716.325
1271.61453	4747.625
1275.15503	4740.025
1278.69312	4733.325
1282.22882	4759.125
1285.76211	4781.225
1289.29301	4783.225
1292.82151	4833.125
1296.34761	4844.525
1299.87133	4902.925
1303.39266	4970.625
1306.9116	5120.025
1310.42815	5244.725
1313.94233	5315.825
1317.45412	5233.725
1320.96354	5131.125
1324.47058	5001.925
1327.97525	4910.125
1331.47754	4857.525
1334.97747	4851.925
1338.47502	4864.225
1341.97022	4918.025
1345.46305	5020.825
1348.95352	5135.925
1352.44163	5292.925
1355.92738	5397.525
1359.41078	5543.125
1362.89183	5690.125
1366.37053	5571.225
1369.84688	5247.325
1373.32088	4962.625
1376.79254	4819.925
1380.26186	4711.525
1383.72883	4653.425
1387.19347	4570.925
1390.65578	4505.525
1394.11575	4499.025
1397.57339	4469.125
1401.0287	4444.325
1404.48168	4443.525
1407.93234	4474.225
1411.38068	4476.725
1414.82669	4487.025
1418.27039	4512.125
1421.71177	4515.325
1425.15083	4482.325
1428.58758	4461.925
1432.02203	4458.025
1435.45416	4464.625
1438.88399	4460.125
1442.31151	4431.725
1445.73673	4440.525
1449.15965	4444.825
1452.58027	4436.525
1455.9986	4441.525
1459.41463	4458.625
1462.82837	4468.725
1466.23982	4506.225
1469.64898	4541.525
1473.05586	4556.825
1476.46045	4562.225
1479.86276	4572.325
1483.26279	4580.825
1486.66054	4636.025
1490.05602	4645.225
1493.44922	4737.025
1496.84016	4806.025
1500.22882	4969.725
1503.61521	5148.825
1506.99934	5335.725
1510.38121	5490.625
1513.76081	5519.125
1517.13816	5371.825
1520.51324	5136.425
1523.88607	4942.425
1527.25665	4820.325
1530.62498	4765.925
1533.99105	4755.325
1537.35488	4745.125
1540.71647	4745.425
1544.07581	4759.425
1547.4329	4755.725
1550.78776	4739.525
1554.14038	4715.125
1557.49077	4693.025
1560.83892	4718.725
1564.18484	4758.025
1567.52853	4788.325
1570.86999	4828.225
1574.20922	4817.325
1577.54624	4823.025
1580.88103	4763.525
1584.2136	4661.125
1587.54395	4662.825
1590.87208	4670.025
1594.19801	4652.925
1597.52172	4725.125
1600.84321	4781.025
1604.16251	4758.025
1607.47959	4717.325
1610.79447	4719.125
1614.10715	4638.425
1617.41763	4625.125
1620.7259	4564.325
1624.03199	4550.225
1627.33587	4528.125
1630.63757	4502.725
1633.93707	4549.325
1637.23439	4595.325
1640.52951	4685.625
1643.82246	4789.125
1647.11321	4937.125
1650.40179	4987.425
1653.68819	4922.225
1656.97241	4815.825
1660.25446	4616.725
1663.53433	4482.525
1666.81203	4397.725
1670.08756	4373.125
1673.36092	4347.525
1676.63211	4328.925
1679.90115	4320.025
1683.16801	4319.025
1686.43272	4263.125
1689.69527	4274.725
1692.95567	4253.425
1696.2139	4251.925
1699.46999	4211.825
1702.72392	4221.625
1705.97571	4256.625
1709.22535	4254.425
1712.47284	4272.125
1715.71819	4293.925
1718.96139	4290.025
1722.20246	4275.825
1725.44139	4272.525
1728.67818	4306.025
1731.91284	4262.225
1735.14537	4253.725
1738.37576	4233.825
1741.60403	4249.225
1744.83017	4231.225
1748.05418	4244.325
1751.27607	4259.025
1754.49584	4230.725
1757.71349	4218.025
1760.92903	4235.725
1764.14244	4180.025
1767.35375	4205.425
1770.56294	4206.825
1773.77002	4202.725
1776.97499	4212.125
1780.17785	4209.725
1783.37861	4204.225
1786.57727	4239.825
1789.77382	4189.125
1792.96828	4210.725
1796.16064	4229.425
1799.3509	4215.925
1802.53907	4210.825
1805.72514	4203.925
1808.90913	4191.925
1812.09102	4187.825
1815.27083	4181.425
1818.44856	4186.025
1821.6242	4184.225
1824.79776	4165.725
1827.96924	4162.825
1831.13864	4147.825
1834.30597	4161.425
1837.47122	4146.925
1840.6344	4134.625
1843.7955	4135.125
1846.95454	4131.025
1850.11151	4150.325
1853.26642	4118.725
1856.41926	4130.525
1859.57004	4128.625
1862.71876	4125.425
1865.86542	4114.325
1869.01003	4119.225
1872.15258	4094.725
1875.29308	4119.625
1878.43152	4124.325
1881.56792	4087.225
1884.70227	4090.825
1887.83457	4090.725
1890.96482	4080.625
1894.09304	4073.025
1897.21921	4078.725
1900.34335	4064.425
1903.46544	4066.325
1906.58551	4079.825
1909.70353	4068.625
1912.81953	4066.525
1915.93349	4063.025
1919.04543	4030.925
1922.15534	4034.125
1925.26322	4044.425
1928.36908	4027.525
1931.47292	4041.325
1934.57473	4037.425
1937.67453	4018.025
1940.77232	4002.125
1943.86808	3996.125
1946.96184	3995.125
1950.05358	3978.025
1953.14331	3968.125
1956.23103	3971.325
1959.31675	3941.825
1962.40046	3904.325
1965.48217	3932.525
1968.56188	3906.425
1971.63959	3887.125
1974.7153	3885.325
1977.78901	3879.825
1980.86073	3885.625
1983.93046	3850.825
1986.99819	3777.325
1990.06394	3815.025
1993.1277	3831.625
1996.18947	3807.225
1999.24925	3783.125
2002.30706	3799.725
2005.36288	3803.025
2008.41672	3791.125
2011.46859	3741.925
2014.51848	3760.825
2017.56639	3736.625
2020.61233	3724.425
2023.6563	3733.225
2026.6983	3697.225
2029.73833	3701.425
2032.7764	3713.225
2035.8125	3665.525
2038.84664	3662.625
2041.87881	3660.625
2044.90903	3662.725
2047.93729	3649.325
2050.96359	3635.025
2053.98794	3659.125
2057.01034	3662.725
2060.03078	3644.725
2063.04927	3644.625
2066.06582	3635.425
2069.08042	3632.225
2072.09307	3628.425
2075.10378	3624.725
2078.11255	3622.425
2081.11938	3623.425
2084.12426	3624.725
2087.12722	3628.725
2090.12824	3624.025
2093.12732	3634.925
2096.12447	3633.025
2099.11969	3632.725
2102.11299	3617.125
2105.10435	3648.625
2108.09379	3643.925
2111.08131	3615.025
2114.0669	3629.425
2117.05057	3618.525
2120.03233	3610.225
2123.01216	3625.625
2125.99008	3629.725
2128.96609	3654.925
2131.94018	3658.325
2134.91236	3654.225
2137.88263	3648.325
2140.851	3654.425
2143.81746	3676.925
2146.78201	3661.025
2149.74466	3657.325
2152.7054	3673.025
2155.66425	3653.925
2158.6212	3662.425
2161.57625	3635.525
2164.52941	3616.625
2167.48067	3631.425
2170.43004	3631.625
2173.37752	3643.225
2176.32311	3638.725
2179.26681	3642.225
2182.20863	3642.625
2185.14856	3645.625
2188.08661	3644.125
2191.02278	3658.625
2193.95707	3626.825
2196.88948	3617.425
2199.82001	3638.925
2202.74867	3621.525
2205.67545	3618.225
2208.60037	3636.825
2211.52341	3625.725
2214.44458	3604.225
2217.36388	3610.625
2220.28132	3589.925
2223.1969	3574.925
2226.11061	3587.225
2229.02246	3563.125
2231.93245	3574.325
2234.84058	3558.925
2237.74686	3543.725
2240.65128	3549.025
2243.55385	3537.125
2246.45456	3522.425
2249.35343	3536.625
2252.25044	3516.325
2255.14561	3532.125
2258.03893	3519.325
2260.93041	3508.825
2263.82004	3510.425
2266.70783	3501.825
2269.59378	3475.525
2272.4779	3454.525
2275.36017	3466.725
2278.24061	3460.425
2281.11922	3433.325
2283.996	3438.625
2286.87094	3422.325
2289.74405	3444.225
2292.61534	3426.625
2295.4848	3422.825
2298.35243	3414.525
2301.21824	3407.725
2304.08223	3413.225
2306.94439	3414.225
2309.80474	3432.625
2312.66327	3406.425
2315.51999	3411.325
2318.37489	3391.525
2321.22797	3379.925
2324.07925	3387.825
2326.92871	3373.625
2329.77637	3361.425
2332.62222	3358.225
2335.46626	3332.125
2338.3085	3314.625
2341.14893	3349.525
2343.98756	3345.825
2346.8244	3329.025
2349.65943	3320.225
2352.49267	3309.425
2355.32411	3321.225
2358.15376	3300.525
2360.98161	3307.825
2363.80768	3285.525
2366.63195	3295.625
2369.45444	3292.425
2372.27514	3302.325
2375.09405	3292.925
2377.91118	3261.025
2380.72652	3272.925
2383.54009	3261.525
2386.35187	3285.425
2389.16188	3263.625
2391.97011	3253.225
2394.77657	3238.125
2397.58125	3244.825
2400.38416	3242.625
2403.18529	3221.925
2405.98466	3220.625
2408.78226	3225.225
2411.57809	3212.925
2414.37216	3200.425
2417.16446	3206.325
2419.955	3185.325
2422.74378	3211.125
2425.5308	3175.925
2428.31606	3184.925
2431.09956	3179.025
2433.88131	3164.425
2436.6613	3181.625
2439.43954	3169.925
2442.21603	3159.825
2444.99077	3138.425
2447.76377	3155.725
2450.53501	3148.025
2453.30451	3138.125
2456.07226	3144.325
2458.83827	3130.025
2461.60254	3093.125
2464.36507	3116.325
2467.12586	3100.325
2469.88492	3107.625
2472.64224	3108.525
2475.39782	3081.525
2478.15167	3098.325
2480.90379	3077.425
2483.65417	3095.225
2486.40283	3088.825
2489.14976	3101.725
2491.89497	3073.525
2494.63845	3062.425
2497.3802	3067.525
2500.12024	3063.725
2502.85855	3060.725
2505.59514	3066.025
2508.33002	3068.325
2511.06318	3035.525
2513.79462	3054.725
2516.52435	3023.325
2519.25237	3014.825
2521.97867	3012.625
2524.70327	3017.025
2527.42616	3029.525
2530.14734	3032.925
2532.86681	3004.025
2535.58458	3012.625
2538.30065	3005.825
2541.01501	3010.225
2543.72768	3002.025
2546.43864	3001.025
2549.14791	2984.125
2551.85548	2961.125
2554.56136	2955.625
2557.26554	2973.125
2559.96803	2958.225
2562.66883	2947.025
2565.36794	2930.425
2568.06536	2899.325
2570.7611	2922.725
2573.45514	2920.225
2576.14751	2918.325
2578.83819	2898.125
2581.52719	2897.125
2584.21451	2890.425
2586.90015	2867.325
2589.58411	2854.925
2592.2664	2869.625
2594.94701	2861.025
2597.62594	2861.625
2600.30321	2805.225
2602.9788	2824.325
2605.65273	2807.725
2608.32498	2813.125
2610.99557	2836.925
2613.66449	2803.225
2616.33175	2823.825
2618.99734	2824.525
2621.66128	2816.325
2624.32355	2807.525
2626.98416	2785.725
2629.64311	2784.525
2632.30041	2777.525
2634.95605	2766.625
2637.61004	2753.925
2640.26238	2739.425
2642.91306	2748.725
2645.56209	2770.625
2648.20948	2754.425
2650.85521	2737.225
2653.4993	2756.325
2656.14175	2734.225
2658.78255	2738.925
2661.42171	2713.925
2664.05923	2732.225
2666.6951	2729.325
2669.32934	2758.425
2671.96194	2751.625
2674.59291	2736.525
2677.22224	2726.625
2679.84993	2728.425
2682.476	2725.925
2685.10043	2715.125
2687.72324	2701.825
2690.34441	2723.625
2692.96396	2707.025
2695.58188	2734.525
2698.19818	2705.025
2700.81285	2704.925
2703.4259	2699.125
2706.03733	2664.125
2708.64714	2667.325
2711.25533	2702.125
2713.86191	2695.525
2716.46687	2695.825
2719.07021	2690.725
2721.67194	2696.325
2724.27206	2709.325
2726.87057	2684.825
2729.46747	2686.025
2732.06276	2693.525
2734.65644	2664.225
2737.24852	2678.825
2739.83899	2653.625
2742.42786	2674.125
2745.01513	2680.725
2747.60079	2652.325
2750.18486	2655.925
2752.76733	2651.525
2755.3482	2639.125
2757.92747	2655.625
2760.50515	2629.125
2763.08123	2622.725
2765.65573	2625.425
2768.22863	2620.625
2770.79994	2610.425
2773.36967	2605.525
2775.9378	2599.325
2778.50435	2590.425
2781.06932	2582.025
2783.6327	2574.525
2786.1945	2598.725
2788.75471	2572.025
2791.31335	2566.625
2793.87041	2573.525
2796.42589	2552.325
2798.97979	2536.825
2801.53212	2534.925
2804.08288	2542.225
2806.63206	2523.825
2809.17967	2506.825
2811.72571	2517.425
2814.27018	2514.625
2816.81308	2501.425
2819.35442	2468.925
2821.89419	2487.525
2824.43239	2473.525
2826.96904	2490.025
2829.50412	2472.925
2832.03763	2476.025
2834.56959	2476.025
2837.1	2463.725
2839.62884	2468.925
2842.15613	2467.225
2844.68186	2466.325
2847.20604	2440.325
2849.72867	2436.325
2852.24974	2439.125
2854.76927	2408.525
2857.28724	2369.725
2859.80367	2425.225
2862.31855	2421.425
2864.83189	2403.725
2867.34368	2407.325
2869.85393	2423.025
2872.36264	2398.625
2874.8698	2396.825
2877.37543	2402.825
2879.87952	2384.925
2882.38207	2385.225
2884.88308	2393.025
2887.38256	2393.325
2889.88051	2393.125
2892.37692	2387.425
2894.8718	2368.725
2897.36515	2375.625
2899.85698	2377.725
2902.34727	2374.225
2904.83604	2372.325
2907.32328	2397.425
2909.809	2368.725
2912.29319	2366.625
2914.77587	2372.525
2917.25702	2375.725
2919.73665	2371.825
2922.21476	2382.125
2924.69136	2383.525
2927.16644	2370.425
2929.64	2373.625
2932.11205	2351.125
2934.58258	2365.625
2937.05161	2360.525
2939.51912	2364.025
2941.98513	2373.325
2944.44962	2353.925
2946.91261	2329.125
2949.37409	2340.825
2951.83407	2338.625
2954.29254	2342.025
2956.74951	2332.725
2959.20498	2343.025
2961.65895	2330.425
2964.11142	2323.425
2966.56239	2315.725
2969.01186	2330.525
2971.45984	2325.025
2973.90632	2317.225
2976.35131	2330.125
2978.7948	2313.225
2981.23681	2304.625
2983.67732	2298.125
2986.11635	2304.625
2988.55388	2273.825
2990.98993	2281.625
2993.4245	2264.125
2995.85758	2269.625
2998.28917	2268.525
3000.71928	2247.525
3003.14791	2250.925
3005.57506	2234.325
3008.00073	2228.425
3010.42493	2168.625
3012.84764	2233.725
3015.26888	2240.125
3017.68865	2223.325
3020.10694	2186.525
3022.52376	2202.525
3024.9391	2206.125
3027.35298	2200.025
3029.76539	2193.725
3032.17632	2191.025
3034.5858	2181.825
3036.9938	2192.225
3039.40034	2192.025
3041.80542	2177.025
3044.20903	2170.125
3046.61118	2168.625
3049.01187	2172.325
3051.4111	2150.625
3053.80888	2155.525
3056.20519	2146.825
3058.60005	2136.825
3060.99345	2157.825
3063.3854	2134.925
3065.7759	2118.525
3068.16494	2115.525
3070.55254	2102.225
3072.93868	2124.125
3075.32338	2103.825
3077.70662	2102.125
3080.08842	2091.325
3082.46878	2089.525
3084.84769	2110.225
3087.22515	2080.925
3089.60118	2099.825
3091.97576	2084.325
3094.3489	2098.125
3096.72061	2084.725
3099.09087	2066.625
3101.4597	2095.125
3103.82709	2078.425
3106.19305	2063.125
3108.55757	2079.525
3110.92066	2062.425
3113.28232	2076.525
3115.64255	2084.825
3118.00134	2067.825
3120.35871	2051.525
3122.71466	2040.025
3125.06917	2044.025
3127.42226	2032.025
3129.77393	2029.225
3132.12417	2030.625
3134.47299	2038.325
3136.82039	2015.225
3139.16636	1993.025
3141.51092	2017.725
3143.85406	2031.625
3146.19579	2002.125
3148.53609	2007.125
3150.87499	2017.125
3153.21246	2000.025
3155.54853	2011.425
3157.88318	2020.025
3160.21642	2015.125
3162.54826	2022.025
3164.87868	2016.325
3167.2077	1982.125
3169.5353	2003.825
3171.86151	2014.325
3174.18631	1994.525
3176.5097	2002.725
3178.83169	1995.725
3181.15228	1994.725
3183.47147	1970.225
3185.78926	1970.225
3188.10565	1982.825
3190.42065	1954.425
3192.73424	1969.725
3195.04645	1968.825
3197.35725	1945.725
3199.66667	1964.825
3201.97469	1964.625
3204.28132	1939.725
3206.58656	1974.025
3208.8904	1961.825
3211.19287	1952.725
3213.49394	1943.325
3215.79363	1935.925
3218.09193	1959.525
3220.38884	1936.525
3222.68438	1947.225
3224.97853	1924.425
3227.2713	1948.725
3229.56269	1925.125
3231.8527	1928.625
3234.14133	1926.725
3236.42858	1925.425
3238.71446	1900.125
3240.99896	1916.825
3243.28209	1910.625
3245.56384	1908.525
3247.84423	1899.625
3250.12324	1903.525
3252.40088	1900.525
3254.67715	1888.925
3256.95205	1884.425
3259.22558	1900.125
3261.49775	1900.425
3263.76855	1891.825
3266.03799	1893.525
3268.30606	1892.925
3270.57277	1895.725
3272.83812	1874.625
3275.10211	1862.525
3277.36474	1882.825
3279.62601	1881.725
3281.88593	1849.425
3284.14448	1839.225
3286.40168	1853.525
3288.65753	1844.225
3290.91202	1840.925
3293.16516	1823.625
3295.41695	1852.625
3297.66738	1834.625
3299.91647	1816.425
3302.16421	1814.425
3304.4106	1780.725
3306.65564	1803.525
3308.89933	1759.325
3311.14169	1756.325
3313.38269	1750.525
3315.62236	1732.825
3317.86068	1717.825
3320.09766	1718.825
3322.3333	1695.525
3324.5676	1678.925
3326.80056	1657.325
3329.03219	1649.925
3331.26248	0.025
3333.49143	-0.975
3335.71905	0.025
