Data from AgNPs_UA_5uM_CRN_500uM_SU_RamanShift__4__11-30-03-139.txt Node

Date: Thu Aug 04 11:30:03 BST 2022
User: TCL
Spectrometer: QEP01345
Trigger mode: 4
Integration Time (sec): 1.000000E0
Scans to average: 10
Electric dark correction enabled: true
Nonlinearity correction enabled: false
Boxcar width: 0
XAxis mode: Raman Shifts
Number of Pixels in Spectrum: 1044
>>>>>Begin Spectral Data<<<<<
46.04893	0.1
50.45542	1.3
54.85868	-0.4
59.25871	-2.3
63.6555	-56.1
68.04907	-37.4
72.43941	-69.8
76.82654	-54.9
81.21044	-53
85.59113	-44.5
89.96862	-71.9
94.34289	-50.3
98.71396	-73
103.08183	-53.5
107.4465	-43.8
111.80798	-50.9
116.16626	-38.9
120.52136	-67.1
124.87327	-43.9
129.222	-54.2
133.56755	-39.8
137.90993	-49.5
142.24913	-39.2
146.58517	-27.2
150.91804	-19.3
155.24774	-5.2
159.57429	25.8
163.89768	42.7
168.21792	102.5
172.53501	158.4
176.84895	287.4
181.15975	478.4
185.46741	713.4
189.77193	1010.5
194.07331	1438.2
198.37157	1900.9
202.6667	2354.7
206.9587	2887.6
211.24758	3445.9
215.53334	4064.6
219.81599	4776.5
224.09553	5599.8
228.37195	6482.9
232.64527	7270.3
236.91549	7938.2
241.18261	8253.3
245.44663	8342
249.70755	8288.5
253.96539	8249.4
258.22014	8295.3
262.4718	8371.3
266.72039	8335.8
270.96589	8133.1
275.20832	7778.7
279.44768	7424.9
283.68397	7175.5
287.91719	7100.4
292.14735	7283.9
296.37445	7856.5
300.59849	8826.2
304.81948	10219.3
309.03742	11805.5
313.25231	12934.6
317.46415	12835.5
321.67296	11231
325.87872	9336.7
330.08145	8250.1
334.28114	8015.8
338.47781	8298.4
342.67145	8912.9
346.86207	9860.9
351.04966	11401
355.23424	12887
359.4158	13456
363.59435	12948.1
367.76989	12040.5
371.94243	11133.1
376.11196	10385.7
380.27849	9853.2
384.44203	9436.8
388.60257	9206.6
392.76012	9239.3
396.91468	9541.1
401.06626	9941.5
405.21485	9971.6
409.36047	9322.8
413.50311	8184.9
417.64277	7148.5
421.77947	6492.6
425.9132	6197.3
430.04396	6053.3
434.17176	6006.2
438.2966	6153.9
442.41849	6356.7
446.53742	6560.3
450.6534	6680.1
454.76644	6673.9
458.87653	6556.4
462.98368	6421.2
467.08789	6256.7
471.18916	6063.3
475.2875	5743.4
479.38291	5494.1
483.4754	5356.4
487.56496	5256.1
491.6516	5219.4
495.73531	5200.8
499.81612	5276.5
503.89401	5454.7
507.96899	5659.4
512.04106	5949.5
516.11023	6236.2
520.1765	6453
524.23987	6563.5
528.30034	6528.1
532.35792	6370.8
536.41261	6188.4
540.46441	5949.4
544.51333	5788.1
548.55936	5750.9
552.60252	5899.6
556.64279	6127.7
560.6802	6586.9
564.71473	7573.5
568.7464	8888.3
572.7752	8790.9
576.80114	7158.8
580.82422	5817.6
584.84444	5235.9
588.86181	5042.4
592.87633	5061.4
596.888	5281.1
600.89682	6097.5
604.9028	8794.1
608.90594	15717.3
612.90624	24214.6
616.90371	21941.1
620.89834	11482.2
624.89015	6886.6
628.87913	6355
632.86528	7016.3
636.84862	7311.2
640.82913	6519
644.80683	5415.2
648.78172	4921.1
652.75379	5085.2
656.72306	5883.4
660.68952	6669.1
664.65319	6223.1
668.61405	5172.8
672.57211	4730.1
676.52738	4715.9
680.47986	4663.7
684.42955	4504.8
688.37646	4417.7
692.32058	4424.8
696.26192	4518.8
700.20048	4641.8
704.13626	4691.4
708.06928	4593.3
711.99952	4552.7
715.927	4615.1
719.85171	4825.8
723.77365	4989.3
727.69284	4848.9
731.60928	4691
735.52295	4628.3
739.43388	4697.3
743.34206	4754.4
747.24749	4749.3
751.15017	4788.9
755.05012	5110.9
758.94733	6488
762.8418	9577.1
766.73354	13598.6
770.62254	15587.4
774.50882	14761.6
778.39237	13234.1
782.27321	10927.5
786.15132	7941.5
790.02671	5926.2
793.89938	5025.7
797.76935	4708.2
801.6366	4569.7
805.50115	4488.1
809.36299	4442.4
813.22213	4412.9
817.07857	4422.5
820.93231	4453.5
824.78336	4562.3
828.63172	4679.2
832.47738	4734.3
836.32036	4621.3
840.16066	4418.2
843.99827	4263.7
847.8332	4227.3
851.66546	4225.7
855.49504	4208.6
859.32195	4205.8
863.1462	4139.7
866.96777	4140.5
870.78668	4126
874.60293	4162.9
878.41652	4224.9
882.22745	4392.2
886.03573	4487.7
889.84136	4448.5
893.64433	4424.6
897.44466	4433.4
901.24235	4457.8
905.0374	4339.5
908.8298	4161.6
912.61957	4038.9
916.40671	3935.5
920.19121	4005.1
923.97308	4225
927.75233	4647.9
931.52895	5066.5
935.30295	4828.3
939.07433	4204.9
942.84309	3816.1
946.60924	3675.4
950.37278	3589.5
954.13371	3574.9
957.89203	3573.5
961.64774	3585.6
965.40086	3552.3
969.15137	3530.6
972.89929	3561.6
976.64461	3542.3
980.38733	3518.6
984.12747	3516.3
987.86502	3522.1
991.59999	3547.7
995.33237	3641.8
999.06217	3743
1002.78939	3918.5
1006.51404	4234.4
1010.23611	4389.2
1013.95561	4239.3
1017.67255	4030.1
1021.38692	3852.6
1025.09872	3691.5
1028.80796	3631.1
1032.51465	3682
1036.21877	3708.2
1039.92035	3798
1043.61937	3865.1
1047.31584	3938.9
1051.00976	3952.9
1054.70114	3865.2
1058.38998	3817.3
1062.07627	3775.9
1065.76003	3780.7
1069.44126	3814.9
1073.11995	3935.7
1076.79611	4206.6
1080.46974	4725.9
1084.14085	5497.6
1087.80943	6135.9
1091.47549	6097.2
1095.13903	5454
1098.80005	4793.1
1102.45857	4435.9
1106.11456	4382.6
1109.76805	4501
1113.41903	4920.2
1117.06751	5597.7
1120.71348	6660.9
1124.35696	8297.2
1127.99793	9491.1
1131.63641	8635.9
1135.2724	6942.3
1138.90589	5774.6
1142.5369	5129.5
1146.16542	4727.4
1149.79145	4447.4
1153.415	4376.5
1157.03607	4441.3
1160.65467	4645.9
1164.27079	5054.3
1167.88443	5658
1171.49561	6672.4
1175.10432	8438.8
1178.71056	10952.5
1182.31434	12697.8
1185.91565	12442.4
1189.51451	10806
1193.11091	9088.3
1196.70485	8025.4
1200.29634	7612.2
1203.88538	7087.9
1207.47197	6059.9
1211.05612	5102.4
1214.63782	4507.9
1218.21708	4240.2
1221.79391	4151.9
1225.36829	4119.4
1228.94024	4144.8
1232.50976	4130.8
1236.07685	4131.4
1239.6415	4180.4
1243.20374	4302.4
1246.76355	4456.2
1250.32093	4676.7
1253.8759	4966.1
1257.42845	5461.4
1260.97859	6116.7
1264.52631	6763.2
1268.07163	7092.8
1271.61453	7143.3
1275.15503	6909.9
1278.69312	6671.3
1282.22882	6840
1285.76211	7780.9
1289.29301	9069.3
1292.82151	9918.6
1296.34761	10262.6
1299.87133	11079.6
1303.39266	13220.8
1306.9116	17251
1310.42815	22213.7
1313.94233	23924.8
1317.45412	20137.9
1320.96354	14659.9
1324.47058	10520
1327.97525	8055.7
1331.47754	6809.8
1334.97747	6403.9
1338.47502	6595.7
1341.97022	7578.8
1345.46305	9713.2
1348.95352	12761.4
1352.44163	15871.6
1355.92738	19659.5
1359.41078	26507.4
1362.89183	33994
1366.37053	32535.8
1369.84688	22244.8
1373.32088	13701.9
1376.79254	10069.2
1380.26186	8467.7
1383.72883	7229.7
1387.19347	6054.1
1390.65578	5193.9
1394.11575	4732.3
1397.57339	4497
1401.0287	4359.6
1404.48168	4190.6
1407.93234	4109.1
1411.38068	4194.7
1414.82669	4543.1
1418.27039	4982.2
1421.71177	5077.2
1425.15083	4858.9
1428.58758	4911.2
1432.02203	5392.1
1435.45416	5773.1
1438.88399	5496.9
1442.31151	5131.6
1445.73673	5088.5
1449.15965	5062
1452.58027	4919.1
1455.9986	4754.6
1459.41463	4603.6
1462.82837	4626.5
1466.23982	4877.7
1469.64898	5207.8
1473.05586	5326.3
1476.46045	5310.4
1479.86276	5307.3
1483.26279	5561.2
1486.66054	6164.1
1490.05602	7149.9
1493.44922	8723
1496.84016	11206.2
1500.22882	15109.2
1503.61521	20602.1
1506.99934	27720.7
1510.38121	34796.1
1513.76081	37602.3
1517.13816	33248.7
1520.51324	24722.4
1523.88607	16915.9
1527.25665	11939.2
1530.62498	9171.5
1533.99105	7578.1
1537.35488	6514.9
1540.71647	5921.4
1544.07581	5671.4
1547.4329	5710.3
1550.78776	5870.6
1554.14038	6214
1557.49077	6707.6
1560.83892	7617.8
1564.18484	9039.4
1567.52853	10665.5
1570.86999	11714.1
1574.20922	11919.4
1577.54624	11256.5
1580.88103	9363.4
1584.2136	7058.2
1587.54395	5723.1
1590.87208	5364.7
1594.19801	5746.8
1597.52172	6463.4
1600.84321	6482.9
1604.16251	5686
1607.47959	4943.4
1610.79447	4497.9
1614.10715	4153.5
1617.41763	3928.7
1620.7259	3797.5
1624.03199	3860.7
1627.33587	4041.4
1630.63757	4391.2
1633.93707	5071.7
1637.23439	6239.6
1640.52951	8395.4
1643.82246	12146.6
1647.11321	17271.3
1650.40179	21435.5
1653.68819	21270.2
1656.97241	16608.2
1660.25446	11130
1663.53433	7329.7
1666.81203	5264.8
1670.08756	4201.2
1673.36092	3633.3
1676.63211	3255.5
1679.90115	3045.6
1683.16801	2900.8
1686.43272	2762.4
1689.69527	2711.9
1692.95567	2632.8
1696.2139	2593.7
1699.46999	2525.1
1702.72392	2521.7
1705.97571	2520.6
1709.22535	2499.4
1712.47284	2562.7
1715.71819	2586.1
1718.96139	2596.7
1722.20246	2562.9
1725.44139	2497.5
1728.67818	2440.6
1731.91284	2356.6
1735.14537	2311.5
1738.37576	2270.2
1741.60403	2265.4
1744.83017	2213
1748.05418	2208.9
1751.27607	2194.8
1754.49584	2147.5
1757.71349	2090.6
1760.92903	2066.7
1764.14244	1996.8
1767.35375	1985.3
1770.56294	1933.2
1773.77002	1894.9
1776.97499	1876.2
1780.17785	1844.6
1783.37861	1820.1
1786.57727	1814.3
1789.77382	1760.5
1792.96828	1794.8
1796.16064	1801
1799.3509	1780.5
1802.53907	1795.3
1805.72514	1755.4
1808.90913	1735.7
1812.09102	1738.8
1815.27083	1730.3
1818.44856	1708.9
1821.6242	1707.9
1824.79776	1697.7
1827.96924	1684.9
1831.13864	1646.2
1834.30597	1651.6
1837.47122	1612.8
1840.6344	1601.2
1843.7955	1564.9
1846.95454	1546.2
1850.11151	1555.4
1853.26642	1521.5
1856.41926	1530.3
1859.57004	1533.2
1862.71876	1531.6
1865.86542	1546.4
1869.01003	1551.8
1872.15258	1531.4
1875.29308	1557.2
1878.43152	1563.4
1881.56792	1545.2
1884.70227	1524.9
1887.83457	1533.6
1890.96482	1496.5
1894.09304	1491.3
1897.21921	1497
1900.34335	1504
1903.46544	1474.2
1906.58551	1494.9
1909.70353	1489
1912.81953	1481.4
1915.93349	1481.2
1919.04543	1473.1
1922.15534	1436.8
1925.26322	1437.9
1928.36908	1413.6
1931.47292	1396.2
1934.57473	1392.3
1937.67453	1346.7
1940.77232	1317.5
1943.86808	1306.7
1946.96184	1308.3
1950.05358	1294.9
1953.14331	1278.2
1956.23103	1304.3
1959.31675	1285.3
1962.40046	1261.6
1965.48217	1301.3
1968.56188	1324.7
1971.63959	1330.4
1974.7153	1339
1977.78901	1336.9
1980.86073	1303.2
1983.93046	1258.7
1986.99819	1180.1
1990.06394	1196.7
1993.1277	1210.7
1996.18947	1195
1999.24925	1160
2002.30706	1177.4
2005.36288	1172.6
2008.41672	1148.7
2011.46859	1133.7
2014.51848	1125
2017.56639	1116.1
2020.61233	1108
2023.6563	1108
2026.6983	1070.6
2029.73833	1085.3
2032.7764	1098.3
2035.8125	1061.4
2038.84664	1068.5
2041.87881	1058.2
2044.90903	1076.5
2047.93729	1065.7
2050.96359	1035.9
2053.98794	1046.7
2057.01034	1055.3
2060.03078	1024.6
2063.04927	1010.5
2066.06582	1008.7
2069.08042	987.2
2072.09307	995.7
2075.10378	987.6
2078.11255	983
2081.11938	988.6
2084.12426	986.8
2087.12722	980
2090.12824	978.4
2093.12732	987.5
2096.12447	990
2099.11969	977.9
2102.11299	969.8
2105.10435	997.7
2108.09379	987.2
2111.08131	980.1
2114.0669	996.2
2117.05057	999.9
2120.03233	988.2
2123.01216	1024.7
2125.99008	1043.1
2128.96609	1042.7
2131.94018	1054.2
2134.91236	1030.6
2137.88263	1002.5
2140.851	1001.4
2143.81746	1002.9
2146.78201	977.6
2149.74466	948
2152.7054	955.9
2155.66425	930.6
2158.6212	917.4
2161.57625	892.7
2164.52941	873.3
2167.48067	896.1
2170.43004	896.8
2173.37752	927.2
2176.32311	917.2
2179.26681	927.8
2182.20863	931.5
2185.14856	924.8
2188.08661	923.9
2191.02278	927.1
2193.95707	888.4
2196.88948	878.1
2199.82001	881
2202.74867	869.5
2205.67545	872.1
2208.60037	885.8
2211.52341	870.7
2214.44458	867.3
2217.36388	867.1
2220.28132	850.2
2223.1969	840.7
2226.11061	846.9
2229.02246	828.7
2231.93245	832.6
2234.84058	824.2
2237.74686	823
2240.65128	819.2
2243.55385	834.1
2246.45456	821.7
2249.35343	847.8
2252.25044	850.6
2255.14561	874.8
2258.03893	906.7
2260.93041	914.6
2263.82004	924.9
2266.70783	940.1
2269.59378	921.5
2272.4779	914.5
2275.36017	923.9
2278.24061	909.9
2281.11922	878.3
2283.996	887.7
2286.87094	866.1
2289.74405	865
2292.61534	851.9
2295.4848	830.9
2298.35243	826.5
2301.21824	811.5
2304.08223	803.6
2306.94439	815.5
2309.80474	812.9
2312.66327	810.8
2315.51999	801.6
2318.37489	805.6
2321.22797	785.8
2324.07925	786.3
2326.92871	784.4
2329.77637	776.1
2332.62222	776.9
2335.46626	767.1
2338.3085	772.5
2341.14893	792.2
2343.98756	801.8
2346.8244	796.5
2349.65943	791.6
2352.49267	804.7
2355.32411	823.5
2358.15376	829.6
2360.98161	860.5
2363.80768	856.6
2366.63195	883.1
2369.45444	892.5
2372.27514	900.7
2375.09405	915.4
2377.91118	881.3
2380.72652	878.6
2383.54009	862.4
2386.35187	859
2389.16188	826.6
2391.97011	821
2394.77657	805.1
2397.58125	802.2
2400.38416	796.1
2403.18529	775.3
2405.98466	754.1
2408.78226	762.3
2411.57809	751.1
2414.37216	748.7
2417.16446	750.7
2419.955	739.7
2422.74378	751.8
2425.5308	747.6
2428.31606	757.2
2431.09956	768.3
2433.88131	761.9
2436.6613	780.7
2439.43954	777.8
2442.21603	780.1
2444.99077	781.4
2447.76377	807.7
2450.53501	804.3
2453.30451	798.8
2456.07226	812.6
2458.83827	814.1
2461.60254	771.6
2464.36507	809.8
2467.12586	792.7
2469.88492	806.5
2472.64224	801.7
2475.39782	799.8
2478.15167	819.3
2480.90379	833.2
2483.65417	869.2
2486.40283	881.4
2489.14976	906.3
2491.89497	900.1
2494.63845	907.3
2497.3802	886.6
2500.12024	882.2
2502.85855	872
2505.59514	853.8
2508.33002	833.4
2511.06318	796.3
2513.79462	773.2
2516.52435	713
2519.25237	685.4
2521.97867	679.4
2524.70327	672
2527.42616	668.6
2530.14734	680.2
2532.86681	656.8
2535.58458	657.5
2538.30065	658.2
2541.01501	683.4
2543.72768	667
2546.43864	677.9
2549.14791	692.9
2551.85548	687.1
2554.56136	691.9
2557.26554	703.3
2559.96803	709.6
2562.66883	712.9
2565.36794	706
2568.06536	687.6
2570.7611	714.7
2573.45514	708.1
2576.14751	703.3
2578.83819	692.8
2581.52719	680.5
2584.21451	688
2586.90015	659
2589.58411	647.9
2592.2664	663.6
2594.94701	670.9
2597.62594	669.8
2600.30321	619.8
2602.9788	643.8
2605.65273	642.8
2608.32498	648.3
2610.99557	671
2613.66449	646.2
2616.33175	668.6
2618.99734	669
2621.66128	676.2
2624.32355	670.3
2626.98416	643.9
2629.64311	641.7
2632.30041	627.1
2634.95605	607
2637.61004	596.3
2640.26238	581.6
2642.91306	583.5
2645.56209	597.3
2648.20948	592
2650.85521	581.9
2653.4993	600.3
2656.14175	600.2
2658.78255	597
2661.42171	572.2
2664.05923	618.9
2666.6951	630.9
2669.32934	635.3
2671.96194	654.4
2674.59291	642.8
2677.22224	648.8
2679.84993	647.1
2682.476	630.4
2685.10043	623.2
2687.72324	612.3
2690.34441	611
2692.96396	600.1
2695.58188	621
2698.19818	610.2
2700.81285	592.7
2703.4259	590.6
2706.03733	562.2
2708.64714	574.1
2711.25533	608.5
2713.86191	611.8
2716.46687	608.9
2719.07021	613.8
2721.67194	612.1
2724.27206	619
2726.87057	599.2
2729.46747	586.4
2732.06276	585.4
2734.65644	572.9
2737.24852	572.6
2739.83899	548.8
2742.42786	561.4
2745.01513	563.7
2747.60079	537.6
2750.18486	524.3
2752.76733	523
2755.3482	519.9
2757.92747	515
2760.50515	500.7
2763.08123	499.8
2765.65573	502.9
2768.22863	487.8
2770.79994	482.8
2773.36967	487.3
2775.9378	482.6
2778.50435	494.4
2781.06932	484.7
2783.6327	481.1
2786.1945	507.2
2788.75471	497.6
2791.31335	498.5
2793.87041	516.2
2796.42589	504.2
2798.97979	506.4
2801.53212	527.8
2804.08288	543.1
2806.63206	537.5
2809.17967	533.4
2811.72571	566.4
2814.27018	584.9
2816.81308	585.3
2819.35442	563.7
2821.89419	610.2
2824.43239	606.1
2826.96904	647.1
2829.50412	617.3
2832.03763	617.7
2834.56959	610.3
2837.1	596.5
2839.62884	589.5
2842.15613	582.3
2844.68186	594.3
2847.20604	571.7
2849.72867	577.4
2852.24974	596.5
2854.76927	576.6
2857.28724	552.7
2859.80367	632.5
2862.31855	654.8
2864.83189	657.3
2867.34368	683.1
2869.85393	704.3
2872.36264	694.1
2874.8698	698.3
2877.37543	703.1
2879.87952	686.5
2882.38207	653.9
2884.88308	654.6
2887.38256	641.4
2889.88051	626.9
2892.37692	625.1
2894.8718	596.2
2897.36515	619.2
2899.85698	615
2902.34727	621.2
2904.83604	637
2907.32328	654.8
2909.809	672
2912.29319	689.5
2914.77587	702.7
2917.25702	713.1
2919.73665	699.8
2922.21476	690.5
2924.69136	673.9
2927.16644	637.7
2929.64	627.5
2932.11205	604.3
2934.58258	608.1
2937.05161	592.7
2939.51912	592.2
2941.98513	612.9
2944.44962	593.3
2946.91261	569.1
2949.37409	581.5
2951.83407	579.3
2954.29254	588.5
2956.74951	597.8
2959.20498	586.7
2961.65895	586.2
2964.11142	576.6
2966.56239	583
2969.01186	583.2
2971.45984	564.8
2973.90632	557.8
2976.35131	581.5
2978.7948	578.9
2981.23681	572.9
2983.67732	577.4
2986.11635	586.2
2988.55388	562.9
2990.98993	578.9
2993.4245	571.9
2995.85758	573.6
2998.28917	581
3000.71928	572.3
3003.14791	575.9
3005.57506	574
3008.00073	562.9
3010.42493	507.6
3012.84764	569.2
3015.26888	562.4
3017.68865	556.7
3020.10694	517.3
3022.52376	539.2
3024.9391	530.6
3027.35298	522
3029.76539	502.3
3032.17632	501.3
3034.5858	481.9
3036.9938	481.6
3039.40034	465.1
3041.80542	446
3044.20903	428.1
3046.61118	422.8
3049.01187	438.2
3051.4111	419.4
3053.80888	415.7
3056.20519	415
3058.60005	408.2
3060.99345	434.2
3063.3854	410.8
3065.7759	402.1
3068.16494	400.3
3070.55254	388.3
3072.93868	401.8
3075.32338	398.4
3077.70662	390
3080.08842	386.4
3082.46878	373.2
3084.84769	395.7
3087.22515	375.2
3089.60118	383.9
3091.97576	365.2
3094.3489	378.9
3096.72061	366.3
3099.09087	360
3101.4597	371.3
3103.82709	359.7
3106.19305	354.8
3108.55757	362
3110.92066	356.2
3113.28232	368
3115.64255	370.4
3118.00134	374.2
3120.35871	357.1
3122.71466	347.5
3125.06917	368.3
3127.42226	357.8
3129.77393	346.5
3132.12417	362.4
3134.47299	372.7
3136.82039	354.2
3139.16636	334.7
3141.51092	362.8
3143.85406	366.7
3146.19579	351.3
3148.53609	356.1
3150.87499	356.9
3153.21246	362.4
3155.54853	369.8
3157.88318	370.8
3160.21642	374.7
3162.54826	363.3
3164.87868	372.1
3167.2077	328.7
3169.5353	347.5
3171.86151	358.6
3174.18631	340.7
3176.5097	330.1
3178.83169	331
3181.15228	328.3
3183.47147	308.7
3185.78926	291.6
3188.10565	311.3
3190.42065	286.6
3192.73424	303.2
3195.04645	297.7
3197.35725	286.4
3199.66667	305.1
3201.97469	297.8
3204.28132	291.2
3206.58656	304.2
3208.8904	315.2
3211.19287	305.5
3213.49394	301.1
3215.79363	303.5
3218.09193	320.7
3220.38884	314.8
3222.68438	311.5
3224.97853	297.4
3227.2713	315.4
3229.56269	300.2
3231.8527	304.3
3234.14133	292.5
3236.42858	294.8
3238.71446	271.6
3240.99896	295.1
3243.28209	276.1
3245.56384	292.1
3247.84423	276.6
3250.12324	291.8
3252.40088	286.5
3254.67715	280.3
3256.95205	269.8
3259.22558	286.7
3261.49775	287.3
3263.76855	278
3266.03799	291.2
3268.30606	288.8
3270.57277	291.7
3272.83812	280.5
3275.10211	289.5
3277.36474	310.7
3279.62601	310.7
3281.88593	299.6
3284.14448	282.6
3286.40168	317.1
3288.65753	315.2
3290.91202	322
3293.16516	319.2
3295.41695	353.4
3297.66738	361.3
3299.91647	348.9
3302.16421	374.1
3304.4106	340.4
3306.65564	373.1
3308.89933	348.4
3311.14169	364.5
3313.38269	365.5
3315.62236	357
3317.86068	356.3
3320.09766	371.3
3322.3333	361.2
3324.5676	364
3326.80056	369.4
3329.03219	385.6
3331.26248	-0.5
3333.49143	0.5
3335.71905	1.5
