Data from AgNPs_UA_10uM_CRN_500uM_SU_RamanShift__140__13-28-40-281.txt Node

Date: Thu Aug 04 13:28:40 BST 2022
User: TCL
Spectrometer: QEP01345
Trigger mode: 4
Integration Time (sec): 1.000000E0
Scans to average: 10
Electric dark correction enabled: true
Nonlinearity correction enabled: false
Boxcar width: 0
XAxis mode: Raman Shifts
Number of Pixels in Spectrum: 1044
>>>>>Begin Spectral Data<<<<<
46.04893	-0.1375
50.45542	-0.7375
54.85868	1.0625
59.25871	-0.3375
63.6555	20.8625
68.04907	20.3625
72.43941	21.5625
76.82654	22.7625
81.21044	23.7625
85.59113	25.3625
89.96862	25.2625
94.34289	26.7625
98.71396	26.9625
103.08183	29.6625
107.4465	29.0625
111.80798	31.1625
116.16626	30.0625
120.52136	32.8625
124.87327	36.1625
129.222	35.0625
133.56755	38.5625
137.90993	40.4625
142.24913	46.7625
146.58517	53.3625
150.91804	58.3625
155.24774	74.2625
159.57429	92.3625
163.89768	124.5625
168.21792	162.2625
172.53501	220.9625
176.84895	318.2625
181.15975	444.7625
185.46741	629.9625
189.77193	865.2625
194.07331	1158.1625
198.37157	1499.0625
202.6667	1849.1625
206.9587	2193.6625
211.24758	2545.4625
215.53334	2891.6625
219.81599	3262.6625
224.09553	3690.4625
228.37195	4122.7625
232.64527	4623.4625
236.91549	5118.4625
241.18261	5623.4625
245.44663	6000.7625
249.70755	6342.0625
253.96539	6613.4625
258.22014	6866.5625
262.4718	7094.3625
266.72039	7240.7625
270.96589	7306.2625
275.20832	7273.6625
279.44768	7209.4625
283.68397	7091.7625
287.91719	6988.5625
292.14735	7003.3625
296.37445	7091.6625
300.59849	7258.3625
304.81948	7470.6625
309.03742	7624.2625
313.25231	7694.3625
317.46415	7584.1625
321.67296	7346.2625
325.87872	7127.9625
330.08145	7042.9625
334.28114	7058.4625
338.47781	7157.4625
342.67145	7271.6625
346.86207	7482.4625
351.04966	7744.1625
355.23424	8015.3625
359.4158	8215.3625
363.59435	8354.6625
367.76989	8445.0625
371.94243	8483.6625
376.11196	8497.8625
380.27849	8535.7625
384.44203	8546.7625
388.60257	8584.6625
392.76012	8640.7625
396.91468	8764.6625
401.06626	8900.8625
405.21485	8977.0625
409.36047	8901.8625
413.50311	8657.8625
417.64277	8444.3625
421.77947	8297.0625
425.9132	8281.5625
430.04396	8287.5625
434.17176	8391.9625
438.2966	8513.4625
442.41849	8742.9625
446.53742	9022.7625
450.6534	9271.4625
454.76644	9438.0625
458.87653	9481.5625
462.98368	9387.5625
467.08789	9231.9625
471.18916	9012.1625
475.2875	8764.2625
479.38291	8576.4625
483.4754	8438.1625
487.56496	8355.9625
491.6516	8316.6625
495.73531	8313.3625
499.81612	8319.0625
503.89401	8384.7625
507.96899	8418.9625
512.04106	8485.0625
516.11023	8540.5625
520.1765	8584.6625
524.23987	8621.9625
528.30034	8614.2625
532.35792	8574.3625
536.41261	8464.3625
540.46441	8346.5625
544.51333	8338.1625
548.55936	8399.8625
552.60252	8527.0625
556.64279	8682.1625
560.6802	8755.0625
564.71473	8783.2625
568.7464	8866.6625
572.7752	8859.8625
576.80114	8744.8625
580.82422	8672.3625
584.84444	8737.9625
588.86181	8878.7625
592.87633	9096.7625
596.888	9289.2625
600.89682	9601.6625
604.9028	10531.7625
608.90594	12422.6625
612.90624	14123.8625
616.90371	12975.9625
620.89834	10427.0625
624.89015	9518.1625
628.87913	9459.8625
632.86528	9455.8625
636.84862	9306.3625
640.82913	9056.1625
644.80683	8721.1625
648.78172	8539.4625
652.75379	8576.7625
656.72306	8833.1625
660.68952	9100.9625
664.65319	9050.7625
668.61405	8939.4625
672.57211	8970.2625
676.52738	8942.7625
680.47986	8777.2625
684.42955	8658.4625
688.37646	8676.7625
692.32058	8741.9625
696.26192	8896.3625
700.20048	9032.1625
704.13626	9041.6625
708.06928	8922.3625
711.99952	8815.4625
715.927	8833.1625
719.85171	8887.9625
723.77365	8893.0625
727.69284	8812.9625
731.60928	8730.9625
735.52295	8756.3625
739.43388	8836.7625
743.34206	8887.2625
747.24749	8923.2625
751.15017	8939.6625
755.05012	9053.5625
758.94733	9363.2625
762.8418	10017.6625
766.73354	11011.6625
770.62254	11860.3625
774.50882	12156.3625
778.39237	11673.7625
782.27321	10806.8625
786.15132	9979.9625
790.02671	9424.1625
793.89938	9160.7625
797.76935	9047.9625
801.6366	8969.4625
805.50115	8944.5625
809.36299	8882.6625
813.22213	8848.9625
817.07857	8850.7625
820.93231	8835.9625
824.78336	8834.5625
828.63172	8841.5625
832.47738	8878.8625
836.32036	8905.4625
840.16066	8941.3625
843.99827	8978.4625
847.8332	8940.7625
851.66546	8911.5625
855.49504	8916.4625
859.32195	8901.2625
863.1462	8896.3625
866.96777	8861.0625
870.78668	8853.5625
874.60293	8874.9625
878.41652	8910.6625
882.22745	8999.5625
886.03573	9037.0625
889.84136	9031.1625
893.64433	8982.8625
897.44466	8947.9625
901.24235	8929.0625
905.0374	8907.2625
908.8298	8874.5625
912.61957	8887.0625
916.40671	8913.2625
920.19121	9003.2625
923.97308	9120.8625
927.75233	9237.0625
931.52895	9297.2625
935.30295	9210.0625
939.07433	9042.2625
942.84309	8942.3625
946.60924	8893.8625
950.37278	8874.9625
954.13371	8842.1625
957.89203	8785.4625
961.64774	8726.0625
965.40086	8716.7625
969.15137	8695.5625
972.89929	8698.2625
976.64461	8740.9625
980.38733	8750.7625
984.12747	8789.8625
987.86502	8853.8625
991.59999	8959.0625
995.33237	9156.6625
999.06217	9491.2625
1002.78939	9802.0625
1006.51404	9939.1625
1010.23611	9987.9625
1013.95561	10080.4625
1017.67255	10181.0625
1021.38692	10213.7625
1025.09872	10220.5625
1028.80796	10402.5625
1032.51465	10699.6625
1036.21877	10887.8625
1039.92035	10850.6625
1043.61937	10637.9625
1047.31584	10369.2625
1051.00976	10064.5625
1054.70114	9919.1625
1058.38998	9912.5625
1062.07627	9903.8625
1065.76003	9892.5625
1069.44126	9917.9625
1073.11995	10022.1625
1076.79611	10159.7625
1080.46974	10288.6625
1084.14085	10390.2625
1087.80943	10502.8625
1091.47549	10492.9625
1095.13903	10378.2625
1098.80005	10264.2625
1102.45857	10214.7625
1106.11456	10248.2625
1109.76805	10230.2625
1113.41903	10306.9625
1117.06751	10427.6625
1120.71348	10601.0625
1124.35696	10778.1625
1127.99793	10858.3625
1131.63641	10745.3625
1135.2724	10488.1625
1138.90589	10283.6625
1142.5369	10104.6625
1146.16542	9998.4625
1149.79145	9926.4625
1153.415	9912.9625
1157.03607	9983.3625
1160.65467	10083.9625
1164.27079	10298.4625
1167.88443	10736.5625
1171.49561	11327.4625
1175.10432	12185.7625
1178.71056	13295.8625
1182.31434	14271.9625
1185.91565	14773.1625
1189.51451	14727.0625
1193.11091	14234.4625
1196.70485	13609.2625
1200.29634	13003.0625
1203.88538	12475.2625
1207.47197	11984.3625
1211.05612	11547.2625
1214.63782	11288.3625
1218.21708	11221.5625
1221.79391	11282.2625
1225.36829	11382.9625
1228.94024	11357.0625
1232.50976	11197.2625
1236.07685	11068.3625
1239.6415	11051.9625
1243.20374	11110.1625
1246.76355	11179.6625
1250.32093	11324.7625
1253.8759	11561.1625
1257.42845	11889.6625
1260.97859	12235.3625
1264.52631	12522.5625
1268.07163	12819.1625
1271.61453	13059.2625
1275.15503	13294.9625
1278.69312	13532.9625
1282.22882	13771.7625
1285.76211	13930.7625
1289.29301	14082.6625
1292.82151	14306.8625
1296.34761	14634.1625
1299.87133	15191.6625
1303.39266	16174.6625
1306.9116	17526.1625
1310.42815	18928.9625
1313.94233	19629.4625
1317.45412	19207.5625
1320.96354	18150.6625
1324.47058	17000.0625
1327.97525	16144.7625
1331.47754	15651.8625
1334.97747	15602.6625
1338.47502	15790.8625
1341.97022	16245.5625
1345.46305	16834.1625
1348.95352	17595.4625
1352.44163	18396.7625
1355.92738	19430.0625
1359.41078	20827.2625
1362.89183	21600.2625
1366.37053	20486.6625
1369.84688	17968.8625
1373.32088	15697.5625
1376.79254	14388.2625
1380.26186	13777.7625
1383.72883	13415.8625
1387.19347	13088.3625
1390.65578	12727.0625
1394.11575	12397.6625
1397.57339	12245.2625
1401.0287	12288.3625
1404.48168	12398.6625
1407.93234	12607.5625
1411.38068	12827.2625
1414.82669	12967.2625
1418.27039	12887.3625
1421.71177	12724.2625
1425.15083	12599.5625
1428.58758	12614.7625
1432.02203	12794.3625
1435.45416	12977.1625
1438.88399	12999.5625
1442.31151	12953.2625
1445.73673	12909.4625
1449.15965	12878.2625
1452.58027	12779.5625
1455.9986	12652.1625
1459.41463	12613.2625
1462.82837	12731.8625
1466.23982	12977.5625
1469.64898	13169.9625
1473.05586	13391.8625
1476.46045	13524.0625
1479.86276	13685.3625
1483.26279	13792.3625
1486.66054	13943.0625
1490.05602	14221.4625
1493.44922	14625.7625
1496.84016	15219.1625
1500.22882	16056.0625
1503.61521	17081.8625
1506.99934	18143.7625
1510.38121	18736.4625
1513.76081	18449.4625
1517.13816	17339.3625
1520.51324	15974.7625
1523.88607	14885.4625
1527.25665	14223.5625
1530.62498	13924.9625
1533.99105	13787.2625
1537.35488	13714.0625
1540.71647	13591.6625
1544.07581	13520.1625
1547.4329	13381.8625
1550.78776	13222.0625
1554.14038	13082.4625
1557.49077	12970.7625
1560.83892	13031.5625
1564.18484	13171.3625
1567.52853	13305.8625
1570.86999	13407.1625
1574.20922	13401.4625
1577.54624	13216.1625
1580.88103	12791.4625
1584.2136	12441.2625
1587.54395	12413.2625
1590.87208	12846.7625
1594.19801	13737.2625
1597.52172	14727.3625
1600.84321	15261.2625
1604.16251	15054.2625
1607.47959	14339.7625
1610.79447	13419.6625
1614.10715	12487.8625
1617.41763	11679.8625
1620.7259	11179.2625
1624.03199	10935.1625
1627.33587	10964.9625
1630.63757	11230.1625
1633.93707	11830.0625
1637.23439	12709.7625
1640.52951	13855.2625
1643.82246	15065.3625
1647.11321	15956.5625
1650.40179	15958.9625
1653.68819	14778.7625
1656.97241	13035.3625
1660.25446	11515.4625
1663.53433	10504.4625
1666.81203	9902.3625
1670.08756	9538.6625
1673.36092	9314.1625
1676.63211	9148.1625
1679.90115	9018.5625
1683.16801	8919.7625
1686.43272	8843.3625
1689.69527	8788.3625
1692.95567	8743.3625
1696.2139	8712.9625
1699.46999	8732.5625
1702.72392	8690.4625
1705.97571	8675.5625
1709.22535	8677.8625
1712.47284	8680.4625
1715.71819	8681.9625
1718.96139	8677.0625
1722.20246	8661.6625
1725.44139	8637.0625
1728.67818	8567.9625
1731.91284	8537.5625
1735.14537	8492.9625
1738.37576	8438.1625
1741.60403	8402.8625
1744.83017	8401.1625
1748.05418	8408.1625
1751.27607	8395.5625
1754.49584	8367.9625
1757.71349	8379.5625
1760.92903	8386.3625
1764.14244	8339.9625
1767.35375	8313.2625
1770.56294	8328.3625
1773.77002	8305.1625
1776.97499	8281.3625
1780.17785	8260.3625
1783.37861	8244.6625
1786.57727	8213.0625
1789.77382	8234.0625
1792.96828	8215.6625
1796.16064	8212.1625
1799.3509	8220.2625
1802.53907	8206.7625
1805.72514	8207.8625
1808.90913	8170.5625
1812.09102	8151.4625
1815.27083	8117.4625
1818.44856	8099.1625
1821.6242	8077.1625
1824.79776	8064.0625
1827.96924	8084.7625
1831.13864	8055.1625
1834.30597	8049.0625
1837.47122	8023.5625
1840.6344	8006.2625
1843.7955	8036.0625
1846.95454	8014.2625
1850.11151	8026.8625
1853.26642	8014.0625
1856.41926	8006.5625
1859.57004	8042.2625
1862.71876	8026.1625
1865.86542	8003.4625
1869.01003	8006.2625
1872.15258	7991.3625
1875.29308	7974.7625
1878.43152	7986.8625
1881.56792	7960.8625
1884.70227	7946.1625
1887.83457	7942.0625
1890.96482	7922.6625
1894.09304	7908.9625
1897.21921	7917.4625
1900.34335	7895.4625
1903.46544	7897.5625
1906.58551	7915.1625
1909.70353	7891.5625
1912.81953	7899.0625
1915.93349	7898.3625
1919.04543	7891.4625
1922.15534	7853.2625
1925.26322	7874.4625
1928.36908	7841.0625
1931.47292	7825.1625
1934.57473	7809.6625
1937.67453	7814.9625
1940.77232	7809.1625
1943.86808	7765.5625
1946.96184	7736.0625
1950.05358	7732.4625
1953.14331	7720.8625
1956.23103	7688.2625
1959.31675	7655.8625
1962.40046	7648.3625
1965.48217	7605.1625
1968.56188	7578.2625
1971.63959	7560.4625
1974.7153	7557.1625
1977.78901	7527.2625
1980.86073	7520.2625
1983.93046	7492.7625
1986.99819	7451.2625
1990.06394	7444.5625
1993.1277	7419.6625
1996.18947	7381.1625
1999.24925	7370.1625
2002.30706	7341.1625
2005.36288	7305.7625
2008.41672	7306.0625
2011.46859	7269.6625
2014.51848	7270.2625
2017.56639	7258.7625
2020.61233	7228.8625
2023.6563	7220.7625
2026.6983	7207.7625
2029.73833	7156.6625
2032.7764	7159.0625
2035.8125	7153.2625
2038.84664	7150.0625
2041.87881	7120.1625
2044.90903	7107.4625
2047.93729	7084.7625
2050.96359	7082.3625
2053.98794	7068.6625
2057.01034	7082.4625
2060.03078	7082.2625
2063.04927	7079.8625
2066.06582	7071.9625
2069.08042	7047.2625
2072.09307	7038.4625
2075.10378	7009.4625
2078.11255	7019.9625
2081.11938	7014.8625
2084.12426	6987.4625
2087.12722	6998.8625
2090.12824	7019.9625
2093.12732	6994.0625
2096.12447	7016.0625
2099.11969	7035.4625
2102.11299	7003.3625
2105.10435	7010.1625
2108.09379	7030.8625
2111.08131	7020.0625
2114.0669	7021.9625
2117.05057	7014.1625
2120.03233	7038.8625
2123.01216	7041.4625
2125.99008	7029.7625
2128.96609	7051.1625
2131.94018	7043.5625
2134.91236	7051.2625
2137.88263	7043.7625
2140.851	7019.2625
2143.81746	7042.4625
2146.78201	7037.5625
2149.74466	7036.4625
2152.7054	7069.8625
2155.66425	7038.7625
2158.6212	7039.7625
2161.57625	7034.3625
2164.52941	7026.3625
2167.48067	7030.1625
2170.43004	7033.3625
2173.37752	7004.6625
2176.32311	7023.8625
2179.26681	7055.1625
2182.20863	7040.3625
2185.14856	7053.6625
2188.08661	7039.7625
2191.02278	7052.0625
2193.95707	7039.6625
2196.88948	7022.3625
2199.82001	7025.0625
2202.74867	7020.5625
2205.67545	7045.7625
2208.60037	7047.6625
2211.52341	7030.4625
2214.44458	7027.8625
2217.36388	7000.0625
2220.28132	6984.1625
2223.1969	6974.1625
2226.11061	6951.8625
2229.02246	6937.6625
2231.93245	6915.8625
2234.84058	6922.5625
2237.74686	6897.8625
2240.65128	6888.9625
2243.55385	6859.5625
2246.45456	6858.7625
2249.35343	6871.4625
2252.25044	6844.2625
2255.14561	6835.9625
2258.03893	6860.3625
2260.93041	6837.0625
2263.82004	6818.8625
2266.70783	6805.1625
2269.59378	6791.1625
2272.4779	6769.9625
2275.36017	6745.3625
2278.24061	6734.9625
2281.11922	6717.5625
2283.996	6705.5625
2286.87094	6706.6625
2289.74405	6693.3625
2292.61534	6678.2625
2295.4848	6680.0625
2298.35243	6668.5625
2301.21824	6658.1625
2304.08223	6640.7625
2306.94439	6670.3625
2309.80474	6695.0625
2312.66327	6678.9625
2315.51999	6666.7625
2318.37489	6693.9625
2321.22797	6674.8625
2324.07925	6656.1625
2326.92871	6647.8625
2329.77637	6646.1625
2332.62222	6652.3625
2335.46626	6639.0625
2338.3085	6648.5625
2341.14893	6653.6625
2343.98756	6652.2625
2346.8244	6668.6625
2349.65943	6665.6625
2352.49267	6643.5625
2355.32411	6639.2625
2358.15376	6637.0625
2360.98161	6641.9625
2363.80768	6630.2625
2366.63195	6601.4625
2369.45444	6604.0625
2372.27514	6624.8625
2375.09405	6591.7625
2377.91118	6555.6625
2380.72652	6555.8625
2383.54009	6534.9625
2386.35187	6515.7625
2389.16188	6498.2625
2391.97011	6488.9625
2394.77657	6484.9625
2397.58125	6457.8625
2400.38416	6443.7625
2403.18529	6438.0625
2405.98466	6441.5625
2408.78226	6410.0625
2411.57809	6404.6625
2414.37216	6381.7625
2417.16446	6368.4625
2419.955	6365.8625
2422.74378	6361.5625
2425.5308	6368.3625
2428.31606	6359.6625
2431.09956	6340.1625
2433.88131	6334.7625
2436.6613	6343.9625
2439.43954	6339.8625
2442.21603	6333.5625
2444.99077	6324.7625
2447.76377	6328.0625
2450.53501	6322.2625
2453.30451	6319.9625
2456.07226	6312.0625
2458.83827	6305.5625
2461.60254	6297.6625
2464.36507	6269.0625
2467.12586	6263.5625
2469.88492	6295.1625
2472.64224	6308.8625
2475.39782	6293.2625
2478.15167	6285.7625
2480.90379	6268.9625
2483.65417	6270.7625
2486.40283	6275.9625
2489.14976	6290.3625
2491.89497	6297.8625
2494.63845	6307.4625
2497.3802	6289.9625
2500.12024	6280.6625
2502.85855	6275.9625
2505.59514	6261.8625
2508.33002	6270.3625
2511.06318	6223.7625
2513.79462	6213.6625
2516.52435	6228.5625
2519.25237	6217.8625
2521.97867	6204.7625
2524.70327	6211.9625
2527.42616	6188.8625
2530.14734	6190.9625
2532.86681	6175.1625
2535.58458	6209.0625
2538.30065	6195.1625
2541.01501	6206.8625
2543.72768	6188.2625
2546.43864	6178.1625
2549.14791	6180.3625
2551.85548	6164.4625
2554.56136	6143.3625
2557.26554	6156.4625
2559.96803	6149.2625
2562.66883	6139.7625
2565.36794	6106.0625
2568.06536	6100.3625
2570.7611	6098.3625
2573.45514	6069.4625
2576.14751	6093.2625
2578.83819	6077.1625
2581.52719	6069.9625
2584.21451	6072.2625
2586.90015	6060.1625
2589.58411	6056.2625
2592.2664	6063.4625
2594.94701	6070.2625
2597.62594	6038.8625
2600.30321	6022.4625
2602.9788	6049.9625
2605.65273	6040.3625
2608.32498	6025.5625
2610.99557	6053.4625
2613.66449	6024.3625
2616.33175	6020.4625
2618.99734	6029.8625
2621.66128	6011.1625
2624.32355	6022.8625
2626.98416	6008.4625
2629.64311	6024.1625
2632.30041	6019.6625
2634.95605	6012.3625
2637.61004	6003.7625
2640.26238	5990.7625
2642.91306	5983.3625
2645.56209	5982.9625
2648.20948	5970.9625
2650.85521	5950.3625
2653.4993	5944.8625
2656.14175	5945.0625
2658.78255	5941.7625
2661.42171	5946.8625
2664.05923	5937.4625
2666.6951	5961.8625
2669.32934	5971.7625
2671.96194	5953.0625
2674.59291	5973.3625
2677.22224	5972.3625
2679.84993	5969.4625
2682.476	5962.9625
2685.10043	5952.0625
2687.72324	5951.3625
2690.34441	5952.7625
2692.96396	5945.5625
2695.58188	5916.1625
2698.19818	5919.9625
2700.81285	5934.3625
2703.4259	5902.2625
2706.03733	5910.5625
2708.64714	5891.0625
2711.25533	5898.7625
2713.86191	5898.1625
2716.46687	5909.1625
2719.07021	5914.3625
2721.67194	5912.9625
2724.27206	5914.8625
2726.87057	5892.3625
2729.46747	5908.9625
2732.06276	5917.2625
2734.65644	5922.3625
2737.24852	5903.5625
2739.83899	5882.5625
2742.42786	5886.1625
2745.01513	5877.8625
2747.60079	5879.5625
2750.18486	5846.1625
2752.76733	5873.4625
2755.3482	5855.3625
2757.92747	5829.6625
2760.50515	5838.7625
2763.08123	5852.2625
2765.65573	5817.8625
2768.22863	5833.6625
2770.79994	5816.9625
2773.36967	5823.1625
2775.9378	5824.5625
2778.50435	5807.7625
2781.06932	5800.4625
2783.6327	5814.3625
2786.1945	5824.8625
2788.75471	5799.7625
2791.31335	5787.2625
2793.87041	5780.9625
2796.42589	5767.5625
2798.97979	5730.2625
2801.53212	5733.0625
2804.08288	5729.0625
2806.63206	5692.9625
2809.17967	5711.0625
2811.72571	5691.5625
2814.27018	5698.4625
2816.81308	5698.0625
2819.35442	5666.1625
2821.89419	5677.6625
2824.43239	5658.1625
2826.96904	5640.2625
2829.50412	5648.8625
2832.03763	5629.2625
2834.56959	5632.0625
2837.1	5608.4625
2839.62884	5609.5625
2842.15613	5610.8625
2844.68186	5608.9625
2847.20604	5604.6625
2849.72867	5580.3625
2852.24974	5586.5625
2854.76927	5568.5625
2857.28724	5550.7625
2859.80367	5549.7625
2862.31855	5545.3625
2864.83189	5513.4625
2867.34368	5556.4625
2869.85393	5547.8625
2872.36264	5523.4625
2874.8698	5530.5625
2877.37543	5531.2625
2879.87952	5536.0625
2882.38207	5511.3625
2884.88308	5516.6625
2887.38256	5523.7625
2889.88051	5510.1625
2892.37692	5511.0625
2894.8718	5494.0625
2897.36515	5515.9625
2899.85698	5503.8625
2902.34727	5512.5625
2904.83604	5530.6625
2907.32328	5518.5625
2909.809	5527.0625
2912.29319	5521.5625
2914.77587	5522.8625
2917.25702	5544.8625
2919.73665	5524.4625
2922.21476	5522.5625
2924.69136	5512.7625
2927.16644	5502.3625
2929.64	5501.1625
2932.11205	5484.7625
2934.58258	5468.4625
2937.05161	5469.8625
2939.51912	5469.2625
2941.98513	5463.2625
2944.44962	5433.0625
2946.91261	5431.4625
2949.37409	5465.9625
2951.83407	5461.6625
2954.29254	5436.3625
2956.74951	5441.6625
2959.20498	5437.6625
2961.65895	5433.1625
2964.11142	5429.3625
2966.56239	5433.5625
2969.01186	5427.4625
2971.45984	5406.6625
2973.90632	5405.5625
2976.35131	5375.6625
2978.7948	5380.8625
2981.23681	5365.3625
2983.67732	5363.3625
2986.11635	5342.5625
2988.55388	5324.3625
2990.98993	5311.1625
2993.4245	5306.9625
2995.85758	5278.2625
2998.28917	5261.4625
3000.71928	5262.6625
3003.14791	5248.8625
3005.57506	5224.4625
3008.00073	5228.4625
3010.42493	5205.7625
3012.84764	5199.1625
3015.26888	5197.2625
3017.68865	5181.2625
3020.10694	5187.2625
3022.52376	5153.3625
3024.9391	5144.7625
3027.35298	5122.0625
3029.76539	5108.5625
3032.17632	5106.5625
3034.5858	5132.4625
3036.9938	5113.7625
3039.40034	5103.0625
3041.80542	5083.2625
3044.20903	5057.5625
3046.61118	5064.8625
3049.01187	5045.0625
3051.4111	5059.8625
3053.80888	5008.0625
3056.20519	5029.1625
3058.60005	5001.8625
3060.99345	4989.2625
3063.3854	4982.5625
3065.7759	4962.9625
3068.16494	4944.3625
3070.55254	4936.9625
3072.93868	4933.6625
3075.32338	4900.2625
3077.70662	4907.3625
3080.08842	4888.5625
3082.46878	4887.2625
3084.84769	4866.9625
3087.22515	4853.5625
3089.60118	4852.6625
3091.97576	4849.2625
3094.3489	4841.5625
3096.72061	4847.2625
3099.09087	4840.4625
3101.4597	4845.3625
3103.82709	4836.3625
3106.19305	4832.4625
3108.55757	4827.8625
3110.92066	4823.4625
3113.28232	4794.5625
3115.64255	4782.1625
3118.00134	4781.8625
3120.35871	4783.6625
3122.71466	4773.9625
3125.06917	4752.6625
3127.42226	4751.6625
3129.77393	4726.7625
3132.12417	4731.7625
3134.47299	4720.2625
3136.82039	4711.4625
3139.16636	4705.4625
3141.51092	4721.8625
3143.85406	4699.8625
3146.19579	4700.7625
3148.53609	4708.9625
3150.87499	4694.2625
3153.21246	4689.8625
3155.54853	4692.2625
3157.88318	4684.4625
3160.21642	4686.1625
3162.54826	4694.7625
3164.87868	4684.8625
3167.2077	4674.0625
3169.5353	4660.9625
3171.86151	4657.3625
3174.18631	4647.8625
3176.5097	4644.5625
3178.83169	4623.1625
3181.15228	4626.7625
3183.47147	4626.5625
3185.78926	4617.4625
3188.10565	4590.5625
3190.42065	4578.3625
3192.73424	4591.6625
3195.04645	4587.3625
3197.35725	4582.0625
3199.66667	4569.5625
3201.97469	4573.1625
3204.28132	4569.9625
3206.58656	4580.5625
3208.8904	4564.3625
3211.19287	4593.2625
3213.49394	4583.1625
3215.79363	4568.9625
3218.09193	4582.2625
3220.38884	4577.3625
3222.68438	4571.9625
3224.97853	4549.5625
3227.2713	4553.3625
3229.56269	4549.5625
3231.8527	4551.0625
3234.14133	4533.6625
3236.42858	4517.2625
3238.71446	4524.1625
3240.99896	4501.2625
3243.28209	4498.3625
3245.56384	4486.8625
3247.84423	4479.9625
3250.12324	4464.7625
3252.40088	4475.5625
3254.67715	4469.0625
3256.95205	4473.8625
3259.22558	4458.6625
3261.49775	4450.5625
3263.76855	4470.1625
3266.03799	4445.3625
3268.30606	4435.9625
3270.57277	4456.4625
3272.83812	4426.2625
3275.10211	4428.3625
3277.36474	4405.6625
3279.62601	4407.3625
3281.88593	4410.0625
3284.14448	4395.9625
3286.40168	4397.7625
3288.65753	4394.5625
3290.91202	4387.9625
3293.16516	4377.0625
3295.41695	4365.8625
3297.66738	4366.8625
3299.91647	4350.3625
3302.16421	4321.1625
3304.4106	4286.9625
3306.65564	4266.1625
3308.89933	4219.7625
3311.14169	4196.2625
3313.38269	4143.9625
3315.62236	4137.5625
3317.86068	4109.9625
3320.09766	4094.2625
3322.3333	4042.1625
3324.5676	4019.7625
3326.80056	3944.8625
3329.03219	3915.8625
3331.26248	0.4625
3333.49143	-0.8375
3335.71905	0.9625
