Data from AgNPs_UA_5uM_CRN_500uM_SU_RamanShift__18__11-32-23-142.txt Node

Date: Thu Aug 04 11:32:23 BST 2022
User: TCL
Spectrometer: QEP01345
Trigger mode: 4
Integration Time (sec): 1.000000E0
Scans to average: 10
Electric dark correction enabled: true
Nonlinearity correction enabled: false
Boxcar width: 0
XAxis mode: Raman Shifts
Number of Pixels in Spectrum: 1044
>>>>>Begin Spectral Data<<<<<
46.04893	-0.0125
50.45542	-0.0125
54.85868	0.6875
59.25871	-1.7125
63.6555	-53.8125
68.04907	-34.8125
72.43941	-67.2125
76.82654	-50.5125
81.21044	-49.9125
85.59113	-42.5125
89.96862	-69.0125
94.34289	-48.8125
98.71396	-70.7125
103.08183	-52.7125
107.4465	-41.7125
111.80798	-49.3125
116.16626	-36.2125
120.52136	-65.0125
124.87327	-39.1125
129.222	-48.5125
133.56755	-33.3125
137.90993	-44.6125
142.24913	-30.8125
146.58517	-17.7125
150.91804	-8.0125
155.24774	9.3875
159.57429	39.6875
163.89768	68.3875
168.21792	137.4875
172.53501	203.8875
176.84895	353.1875
181.15975	575.8875
185.46741	844.7875
189.77193	1199.4875
194.07331	1692.0875
198.37157	2214.9875
202.6667	2767.8875
206.9587	3364.3875
211.24758	3998.8875
215.53334	4715.6875
219.81599	5540.4875
224.09553	6507.9875
228.37195	7487.4875
232.64527	8417.7875
236.91549	9154.6875
241.18261	9554.3875
245.44663	9664.4875
249.70755	9629.3875
253.96539	9642.0875
258.22014	9716.3875
262.4718	9816.6875
266.72039	9799.3875
270.96589	9583.4875
275.20832	9149.6875
279.44768	8741.5875
283.68397	8431.9875
287.91719	8334.9875
292.14735	8572.5875
296.37445	9193.9875
300.59849	10340.6875
304.81948	11923.2875
309.03742	13734.4875
313.25231	15056.1875
317.46415	14825.8875
321.67296	12990.4875
325.87872	10844.1875
330.08145	9639.2875
334.28114	9368.8875
338.47781	9728.0875
342.67145	10413.0875
346.86207	11540.2875
351.04966	13242.5875
355.23424	14916.2875
359.4158	15483.4875
363.59435	14903.7875
367.76989	13870.9875
371.94243	12907.1875
376.11196	12086.6875
380.27849	11477.0875
384.44203	10993.0875
388.60257	10734.9875
392.76012	10771.9875
396.91468	11116.8875
401.06626	11570.6875
405.21485	11577.3875
409.36047	10809.4875
413.50311	9502.7875
417.64277	8288.8875
421.77947	7520.9875
425.9132	7164.0875
430.04396	7024.6875
434.17176	6981.3875
438.2966	7116.7875
442.41849	7392.0875
446.53742	7648.3875
450.6534	7798.0875
454.76644	7780.7875
458.87653	7655.4875
462.98368	7466.6875
467.08789	7294.8875
471.18916	7034.4875
475.2875	6684.9875
479.38291	6383.2875
483.4754	6179.6875
487.56496	6089.4875
491.6516	6013.2875
495.73531	6018.8875
499.81612	6083.8875
503.89401	6287.2875
507.96899	6528.0875
512.04106	6839.3875
516.11023	7178.2875
520.1765	7428.7875
524.23987	7508.7875
528.30034	7473.8875
532.35792	7346.3875
536.41261	7162.0875
540.46441	6910.8875
544.51333	6727.1875
548.55936	6699.5875
552.60252	6869.1875
556.64279	7154.7875
560.6802	7689.6875
564.71473	8877.2875
568.7464	10440.4875
572.7752	10375.3875
576.80114	8385.2875
580.82422	6793.4875
584.84444	6095.9875
588.86181	5864.0875
592.87633	5858.1875
596.888	6103.7875
600.89682	7072.3875
604.9028	10282.4875
608.90594	18444.5875
612.90624	28309.7875
616.90371	25507.5875
620.89834	13304.0875
624.89015	8005.6875
628.87913	7428.3875
632.86528	8210.4875
636.84862	8464.6875
640.82913	7487.2875
644.80683	6200.0875
648.78172	5652.8875
652.75379	5847.6875
656.72306	6804.7875
660.68952	7720.1875
664.65319	7189.0875
668.61405	5940.6875
672.57211	5431.3875
676.52738	5417.7875
680.47986	5350.6875
684.42955	5179.9875
688.37646	5090.6875
692.32058	5092.7875
696.26192	5195.5875
700.20048	5343.5875
704.13626	5379.9875
708.06928	5284.2875
711.99952	5249.6875
715.927	5313.3875
719.85171	5583.8875
723.77365	5767.8875
727.69284	5592.4875
731.60928	5391.0875
735.52295	5325.8875
739.43388	5419.6875
743.34206	5464.6875
747.24749	5447.2875
751.15017	5490.5875
755.05012	5900.2875
758.94733	7530.9875
762.8418	11152.5875
766.73354	15760.1875
770.62254	18104.0875
774.50882	17147.7875
778.39237	15283.0875
782.27321	12445.9875
786.15132	8999.4875
790.02671	6773.3875
793.89938	5753.3875
797.76935	5413.0875
801.6366	5217.6875
805.50115	5135.4875
809.36299	5080.0875
813.22213	5049.4875
817.07857	5074.7875
820.93231	5110.6875
824.78336	5228.6875
828.63172	5377.1875
832.47738	5446.4875
836.32036	5321.6875
840.16066	5036.3875
843.99827	4874.7875
847.8332	4819.3875
851.66546	4828.4875
855.49504	4796.4875
859.32195	4788.3875
863.1462	4738.4875
866.96777	4716.1875
870.78668	4723.2875
874.60293	4767.0875
878.41652	4854.0875
882.22745	5036.3875
886.03573	5148.6875
889.84136	5107.0875
893.64433	5055.4875
897.44466	5070.9875
901.24235	5083.9875
905.0374	4995.2875
908.8298	4789.1875
912.61957	4641.1875
916.40671	4543.2875
920.19121	4620.4875
923.97308	4849.0875
927.75233	5339.2875
931.52895	5850.4875
935.30295	5569.8875
939.07433	4843.4875
942.84309	4371.1875
946.60924	4202.6875
950.37278	4129.2875
954.13371	4121.3875
957.89203	4117.1875
961.64774	4117.0875
965.40086	4090.0875
969.15137	4064.9875
972.89929	4069.4875
976.64461	4040.0875
980.38733	4040.3875
984.12747	4025.8875
987.86502	4042.3875
991.59999	4075.9875
995.33237	4170.8875
999.06217	4297.1875
1002.78939	4510.7875
1006.51404	4896.9875
1010.23611	5049.7875
1013.95561	4876.5875
1017.67255	4616.7875
1021.38692	4428.5875
1025.09872	4254.6875
1028.80796	4176.0875
1032.51465	4229.5875
1036.21877	4266.8875
1039.92035	4357.6875
1043.61937	4431.6875
1047.31584	4517.0875
1051.00976	4534.7875
1054.70114	4447.7875
1058.38998	4380.0875
1062.07627	4354.7875
1065.76003	4376.4875
1069.44126	4417.6875
1073.11995	4544.8875
1076.79611	4874.3875
1080.46974	5479.4875
1084.14085	6354.4875
1087.80943	7061.2875
1091.47549	6979.8875
1095.13903	6275.0875
1098.80005	5516.6875
1102.45857	5106.5875
1106.11456	5076.5875
1109.76805	5201.8875
1113.41903	5708.2875
1117.06751	6501.4875
1120.71348	7756.0875
1124.35696	9610.3875
1127.99793	10858.8875
1131.63641	9823.5875
1135.2724	7901.9875
1138.90589	6587.7875
1142.5369	5884.7875
1146.16542	5433.1875
1149.79145	5123.0875
1153.415	5066.3875
1157.03607	5141.7875
1160.65467	5427.7875
1164.27079	5911.2875
1167.88443	6645.9875
1171.49561	7863.9875
1175.10432	9931.8875
1178.71056	12736.1875
1182.31434	14624.7875
1185.91565	14230.8875
1189.51451	12415.3875
1193.11091	10524.7875
1196.70485	9265.1875
1200.29634	8798.9875
1203.88538	8181.1875
1207.47197	6996.0875
1211.05612	5937.2875
1214.63782	5251.6875
1218.21708	4932.8875
1221.79391	4830.3875
1225.36829	4806.5875
1228.94024	4828.3875
1232.50976	4815.3875
1236.07685	4833.7875
1239.6415	4913.4875
1243.20374	5049.8875
1246.76355	5263.9875
1250.32093	5506.9875
1253.8759	5895.4875
1257.42845	6503.9875
1260.97859	7319.2875
1264.52631	8075.3875
1268.07163	8415.9875
1271.61453	8391.9875
1275.15503	8081.4875
1278.69312	7783.6875
1282.22882	8013.4875
1285.76211	9087.2875
1289.29301	10542.8875
1292.82151	11507.7875
1296.34761	11917.7875
1299.87133	12900.7875
1303.39266	15356.1875
1306.9116	19993.2875
1310.42815	25692.9875
1313.94233	27877.1875
1317.45412	23653.2875
1320.96354	17248.9875
1324.47058	12423.7875
1327.97525	9494.1875
1331.47754	8025.6875
1334.97747	7547.3875
1338.47502	7766.7875
1341.97022	8916.9875
1345.46305	11367.2875
1348.95352	14865.7875
1352.44163	18526.7875
1355.92738	23189.1875
1359.41078	31273.7875
1362.89183	39601.9875
1366.37053	37293.1875
1369.84688	25377.6875
1373.32088	15836.9875
1376.79254	11710.1875
1380.26186	9824.4875
1383.72883	8386.9875
1387.19347	7062.0875
1390.65578	6109.0875
1394.11575	5558.2875
1397.57339	5306.9875
1401.0287	5111.4875
1404.48168	4926.3875
1407.93234	4846.8875
1411.38068	4967.5875
1414.82669	5390.6875
1418.27039	5895.3875
1421.71177	5987.7875
1425.15083	5776.2875
1428.58758	5876.6875
1432.02203	6532.5875
1435.45416	6987.4875
1438.88399	6661.9875
1442.31151	6232.5875
1445.73673	6144.9875
1449.15965	6087.5875
1452.58027	5932.6875
1455.9986	5678.4875
1459.41463	5487.0875
1462.82837	5474.0875
1466.23982	5755.4875
1469.64898	6136.1875
1473.05586	6258.3875
1476.46045	6209.2875
1479.86276	6238.8875
1483.26279	6574.8875
1486.66054	7285.3875
1490.05602	8396.2875
1493.44922	10224.9875
1496.84016	13082.8875
1500.22882	17488.4875
1503.61521	23737.7875
1506.99934	31928.8875
1510.38121	40139.5875
1513.76081	43698.8875
1517.13816	38988.9875
1520.51324	29190.2875
1523.88607	20076.9875
1527.25665	14207.1875
1530.62498	10848.9875
1533.99105	8879.1875
1537.35488	7602.2875
1540.71647	6920.3875
1544.07581	6624.1875
1547.4329	6616.9875
1550.78776	6817.9875
1554.14038	7188.5875
1557.49077	7838.1875
1560.83892	8997.5875
1564.18484	10732.8875
1567.52853	12603.5875
1570.86999	13640.2875
1574.20922	13641.1875
1577.54624	12849.9875
1580.88103	10686.3875
1584.2136	8107.7875
1587.54395	6593.7875
1590.87208	6258.9875
1594.19801	6716.8875
1597.52172	7568.4875
1600.84321	7601.4875
1604.16251	6707.7875
1607.47959	5825.3875
1610.79447	5305.9875
1614.10715	4905.7875
1617.41763	4618.2875
1620.7259	4496.9875
1624.03199	4571.3875
1627.33587	4805.3875
1630.63757	5238.3875
1633.93707	6072.3875
1637.23439	7536.8875
1640.52951	10275.4875
1643.82246	14881.6875
1647.11321	21186.3875
1650.40179	26085.1875
1653.68819	25550.5875
1656.97241	19660.2875
1660.25446	13097.2875
1663.53433	8595.0875
1666.81203	6171.1875
1670.08756	4939.9875
1673.36092	4280.5875
1676.63211	3857.3875
1679.90115	3595.5875
1683.16801	3415.8875
1686.43272	3268.8875
1689.69527	3191.6875
1692.95567	3099.5875
1696.2139	3059.1875
1699.46999	2970.5875
1702.72392	2966.4875
1705.97571	2973.3875
1709.22535	2945.9875
1712.47284	3005.0875
1715.71819	3028.0875
1718.96139	3039.6875
1722.20246	2993.9875
1725.44139	2933.6875
1728.67818	2859.6875
1731.91284	2764.7875
1735.14537	2696.8875
1738.37576	2656.6875
1741.60403	2632.6875
1744.83017	2597.1875
1748.05418	2590.4875
1751.27607	2561.6875
1754.49584	2495.4875
1757.71349	2433.5875
1760.92903	2402.0875
1764.14244	2319.4875
1767.35375	2307.6875
1770.56294	2251.7875
1773.77002	2202.2875
1776.97499	2183.6875
1780.17785	2140.1875
1783.37861	2104.5875
1786.57727	2100.7875
1789.77382	2041.7875
1792.96828	2071.1875
1796.16064	2073.3875
1799.3509	2061.9875
1802.53907	2066.9875
1805.72514	2044.9875
1808.90913	2004.2875
1812.09102	2011.0875
1815.27083	1996.4875
1818.44856	1988.7875
1821.6242	1970.0875
1824.79776	1962.6875
1827.96924	1940.3875
1831.13864	1912.1875
1834.30597	1913.6875
1837.47122	1870.7875
1840.6344	1850.5875
1843.7955	1822.9875
1846.95454	1800.0875
1850.11151	1807.4875
1853.26642	1774.5875
1856.41926	1778.9875
1859.57004	1780.5875
1862.71876	1783.4875
1865.86542	1807.5875
1869.01003	1799.4875
1872.15258	1783.6875
1875.29308	1814.3875
1878.43152	1811.0875
1881.56792	1795.2875
1884.70227	1770.8875
1887.83457	1774.6875
1890.96482	1743.7875
1894.09304	1737.2875
1897.21921	1719.7875
1900.34335	1734.1875
1903.46544	1719.6875
1906.58551	1734.9875
1909.70353	1718.8875
1912.81953	1724.3875
1915.93349	1715.3875
1919.04543	1700.5875
1922.15534	1674.6875
1925.26322	1669.8875
1928.36908	1639.8875
1931.47292	1620.1875
1934.57473	1598.4875
1937.67453	1556.1875
1940.77232	1520.8875
1943.86808	1509.8875
1946.96184	1513.2875
1950.05358	1495.6875
1953.14331	1485.2875
1956.23103	1491.6875
1959.31675	1485.8875
1962.40046	1463.7875
1965.48217	1515.6875
1968.56188	1534.2875
1971.63959	1539.2875
1974.7153	1552.7875
1977.78901	1541.2875
1980.86073	1497.9875
1983.93046	1447.4875
1986.99819	1350.2875
1990.06394	1370.5875
1993.1277	1391.4875
1996.18947	1369.3875
1999.24925	1334.6875
2002.30706	1354.0875
2005.36288	1342.4875
2008.41672	1317.9875
2011.46859	1298.8875
2014.51848	1289.3875
2017.56639	1274.5875
2020.61233	1268.1875
2023.6563	1279.3875
2026.6983	1238.7875
2029.73833	1250.5875
2032.7764	1262.5875
2035.8125	1212.7875
2038.84664	1226.2875
2041.87881	1223.1875
2044.90903	1238.4875
2047.93729	1228.7875
2050.96359	1191.1875
2053.98794	1202.5875
2057.01034	1196.5875
2060.03078	1179.0875
2063.04927	1156.1875
2066.06582	1148.7875
2069.08042	1129.2875
2072.09307	1132.6875
2075.10378	1134.6875
2078.11255	1128.2875
2081.11938	1126.0875
2084.12426	1132.3875
2087.12722	1127.3875
2090.12824	1125.1875
2093.12732	1126.7875
2096.12447	1129.3875
2099.11969	1118.5875
2102.11299	1114.9875
2105.10435	1142.3875
2108.09379	1133.3875
2111.08131	1127.5875
2114.0669	1137.3875
2117.05057	1142.9875
2120.03233	1145.6875
2123.01216	1192.1875
2125.99008	1202.6875
2128.96609	1205.6875
2131.94018	1221.9875
2134.91236	1182.6875
2137.88263	1157.4875
2140.851	1140.2875
2143.81746	1140.7875
2146.78201	1112.2875
2149.74466	1081.7875
2152.7054	1079.3875
2155.66425	1059.2875
2158.6212	1043.8875
2161.57625	1015.6875
2164.52941	1005.7875
2167.48067	1025.9875
2170.43004	1024.3875
2173.37752	1049.5875
2176.32311	1051.8875
2179.26681	1062.3875
2182.20863	1065.1875
2185.14856	1051.6875
2188.08661	1048.1875
2191.02278	1052.4875
2193.95707	1025.7875
2196.88948	1001.5875
2199.82001	1002.8875
2202.74867	991.6875
2205.67545	987.5875
2208.60037	1005.1875
2211.52341	996.9875
2214.44458	986.3875
2217.36388	985.7875
2220.28132	968.1875
2223.1969	961.6875
2226.11061	954.2875
2229.02246	941.5875
2231.93245	962.7875
2234.84058	940.3875
2237.74686	927.4875
2240.65128	923.7875
2243.55385	949.4875
2246.45456	931.4875
2249.35343	969.9875
2252.25044	973.5875
2255.14561	1012.2875
2258.03893	1041.6875
2260.93041	1057.4875
2263.82004	1069.2875
2266.70783	1078.6875
2269.59378	1060.5875
2272.4779	1044.7875
2275.36017	1052.6875
2278.24061	1034.7875
2281.11922	1007.8875
2283.996	1023.8875
2286.87094	987.7875
2289.74405	988.6875
2292.61534	968.0875
2295.4848	953.1875
2298.35243	941.5875
2301.21824	917.8875
2304.08223	912.3875
2306.94439	922.4875
2309.80474	924.0875
2312.66327	916.0875
2315.51999	909.5875
2318.37489	909.9875
2321.22797	897.6875
2324.07925	896.2875
2326.92871	896.5875
2329.77637	883.6875
2332.62222	885.9875
2335.46626	878.4875
2338.3085	884.9875
2341.14893	906.9875
2343.98756	914.6875
2346.8244	901.5875
2349.65943	906.8875
2352.49267	926.8875
2355.32411	941.9875
2358.15376	948.2875
2360.98161	979.9875
2363.80768	979.4875
2366.63195	998.8875
2369.45444	1024.2875
2372.27514	1022.4875
2375.09405	1042.1875
2377.91118	998.6875
2380.72652	991.9875
2383.54009	979.1875
2386.35187	967.3875
2389.16188	942.7875
2391.97011	925.3875
2394.77657	905.3875
2397.58125	905.0875
2400.38416	894.1875
2403.18529	875.4875
2405.98466	857.1875
2408.78226	868.7875
2411.57809	852.6875
2414.37216	848.8875
2417.16446	861.7875
2419.955	844.8875
2422.74378	868.7875
2425.5308	849.8875
2428.31606	869.9875
2431.09956	874.6875
2433.88131	875.0875
2436.6613	888.6875
2439.43954	898.8875
2442.21603	895.0875
2444.99077	896.6875
2447.76377	920.8875
2450.53501	924.0875
2453.30451	917.9875
2456.07226	932.6875
2458.83827	929.8875
2461.60254	880.8875
2464.36507	917.6875
2467.12586	905.3875
2469.88492	913.6875
2472.64224	914.4875
2475.39782	914.0875
2478.15167	940.1875
2480.90379	953.8875
2483.65417	990.6875
2486.40283	1012.5875
2489.14976	1029.9875
2491.89497	1025.1875
2494.63845	1028.9875
2497.3802	1012.3875
2500.12024	997.7875
2502.85855	981.1875
2505.59514	976.5875
2508.33002	948.9875
2511.06318	888.6875
2513.79462	883.5875
2516.52435	823.6875
2519.25237	785.1875
2521.97867	780.3875
2524.70327	767.1875
2527.42616	762.7875
2530.14734	766.6875
2532.86681	744.1875
2535.58458	756.1875
2538.30065	757.0875
2541.01501	774.7875
2543.72768	771.2875
2546.43864	773.1875
2549.14791	788.3875
2551.85548	785.3875
2554.56136	791.6875
2557.26554	809.5875
2559.96803	814.7875
2562.66883	815.5875
2565.36794	814.0875
2568.06536	785.1875
2570.7611	820.1875
2573.45514	807.9875
2576.14751	806.8875
2578.83819	786.7875
2581.52719	778.6875
2584.21451	783.1875
2586.90015	752.5875
2589.58411	743.4875
2592.2664	753.1875
2594.94701	755.8875
2597.62594	769.1875
2600.30321	709.4875
2602.9788	735.6875
2605.65273	734.3875
2608.32498	743.6875
2610.99557	771.3875
2613.66449	736.8875
2616.33175	763.3875
2618.99734	771.0875
2621.66128	773.0875
2624.32355	761.9875
2626.98416	737.4875
2629.64311	728.8875
2632.30041	717.4875
2634.95605	701.2875
2637.61004	687.2875
2640.26238	665.1875
2642.91306	666.2875
2645.56209	686.0875
2648.20948	678.7875
2650.85521	666.9875
2653.4993	690.4875
2656.14175	694.5875
2658.78255	690.0875
2661.42171	675.0875
2664.05923	710.4875
2666.6951	724.6875
2669.32934	738.1875
2671.96194	751.7875
2674.59291	739.0875
2677.22224	736.7875
2679.84993	737.4875
2682.476	726.9875
2685.10043	719.3875
2687.72324	702.1875
2690.34441	699.8875
2692.96396	699.6875
2695.58188	711.5875
2698.19818	699.7875
2700.81285	688.2875
2703.4259	681.9875
2706.03733	658.6875
2708.64714	667.9875
2711.25533	700.0875
2713.86191	713.5875
2716.46687	707.2875
2719.07021	711.5875
2721.67194	701.2875
2724.27206	720.9875
2726.87057	694.5875
2729.46747	681.2875
2732.06276	680.8875
2734.65644	662.5875
2737.24852	658.0875
2739.83899	631.4875
2742.42786	650.0875
2745.01513	645.9875
2747.60079	624.4875
2750.18486	607.3875
2752.76733	606.7875
2755.3482	593.1875
2757.92747	596.0875
2760.50515	574.4875
2763.08123	569.9875
2765.65573	584.1875
2768.22863	563.4875
2770.79994	560.0875
2773.36967	563.6875
2775.9378	560.6875
2778.50435	568.8875
2781.06932	569.4875
2783.6327	559.7875
2786.1945	586.1875
2788.75471	578.3875
2791.31335	583.6875
2793.87041	589.9875
2796.42589	580.6875
2798.97979	587.7875
2801.53212	599.0875
2804.08288	628.5875
2806.63206	625.1875
2809.17967	625.5875
2811.72571	659.1875
2814.27018	676.0875
2816.81308	689.5875
2819.35442	674.2875
2821.89419	714.3875
2824.43239	710.4875
2826.96904	745.1875
2829.50412	725.5875
2832.03763	726.7875
2834.56959	715.8875
2837.1	698.9875
2839.62884	686.6875
2842.15613	688.0875
2844.68186	692.6875
2847.20604	670.4875
2849.72867	675.6875
2852.24974	697.8875
2854.76927	682.2875
2857.28724	656.1875
2859.80367	739.4875
2862.31855	762.2875
2864.83189	775.9875
2867.34368	794.8875
2869.85393	820.9875
2872.36264	805.0875
2874.8698	816.8875
2877.37543	824.0875
2879.87952	810.3875
2882.38207	764.8875
2884.88308	756.8875
2887.38256	757.2875
2889.88051	736.0875
2892.37692	727.3875
2894.8718	704.0875
2897.36515	716.4875
2899.85698	723.4875
2902.34727	723.7875
2904.83604	748.1875
2907.32328	770.7875
2909.809	794.1875
2912.29319	802.9875
2914.77587	823.6875
2917.25702	818.5875
2919.73665	811.2875
2922.21476	792.0875
2924.69136	774.7875
2927.16644	730.2875
2929.64	716.9875
2932.11205	692.6875
2934.58258	695.3875
2937.05161	678.8875
2939.51912	694.9875
2941.98513	700.1875
2944.44962	687.9875
2946.91261	659.3875
2949.37409	674.5875
2951.83407	678.6875
2954.29254	685.6875
2956.74951	691.7875
2959.20498	679.1875
2961.65895	685.5875
2964.11142	673.5875
2966.56239	681.2875
2969.01186	666.4875
2971.45984	657.8875
2973.90632	651.2875
2976.35131	670.3875
2978.7948	668.8875
2981.23681	660.9875
2983.67732	668.5875
2986.11635	671.5875
2988.55388	653.4875
2990.98993	670.7875
2993.4245	667.9875
2995.85758	667.2875
2998.28917	674.5875
3000.71928	663.1875
3003.14791	677.3875
3005.57506	672.0875
3008.00073	653.0875
3010.42493	602.1875
3012.84764	661.5875
3015.26888	662.5875
3017.68865	651.4875
3020.10694	608.1875
3022.52376	630.6875
3024.9391	624.1875
3027.35298	613.6875
3029.76539	588.6875
3032.17632	581.5875
3034.5858	565.2875
3036.9938	564.9875
3039.40034	546.3875
3041.80542	521.5875
3044.20903	499.7875
3046.61118	496.9875
3049.01187	509.4875
3051.4111	493.0875
3053.80888	480.9875
3056.20519	484.8875
3058.60005	468.4875
3060.99345	494.3875
3063.3854	475.8875
3065.7759	467.1875
3068.16494	465.0875
3070.55254	450.7875
3072.93868	465.6875
3075.32338	456.3875
3077.70662	454.0875
3080.08842	444.2875
3082.46878	435.4875
3084.84769	455.8875
3087.22515	434.4875
3089.60118	446.2875
3091.97576	428.4875
3094.3489	433.1875
3096.72061	426.5875
3099.09087	409.5875
3101.4597	417.4875
3103.82709	412.4875
3106.19305	407.6875
3108.55757	418.6875
3110.92066	409.3875
3113.28232	425.9875
3115.64255	428.4875
3118.00134	430.2875
3120.35871	409.1875
3122.71466	400.0875
3125.06917	415.5875
3127.42226	415.3875
3129.77393	401.5875
3132.12417	415.9875
3134.47299	425.5875
3136.82039	412.3875
3139.16636	390.4875
3141.51092	421.3875
3143.85406	419.9875
3146.19579	404.8875
3148.53609	405.9875
3150.87499	419.2875
3153.21246	414.2875
3155.54853	421.9875
3157.88318	429.7875
3160.21642	431.1875
3162.54826	421.7875
3164.87868	428.0875
3167.2077	386.0875
3169.5353	405.0875
3171.86151	410.7875
3174.18631	384.3875
3176.5097	380.5875
3178.83169	378.6875
3181.15228	378.2875
3183.47147	358.3875
3185.78926	329.8875
3188.10565	354.1875
3190.42065	331.0875
3192.73424	343.3875
3195.04645	341.9875
3197.35725	328.7875
3199.66667	346.3875
3201.97469	339.4875
3204.28132	334.7875
3206.58656	348.8875
3208.8904	363.4875
3211.19287	355.0875
3213.49394	352.9875
3215.79363	349.2875
3218.09193	365.3875
3220.38884	358.7875
3222.68438	357.5875
3224.97853	338.8875
3227.2713	363.9875
3229.56269	349.3875
3231.8527	347.6875
3234.14133	336.3875
3236.42858	337.7875
3238.71446	314.5875
3240.99896	343.3875
3243.28209	317.0875
3245.56384	332.0875
3247.84423	323.0875
3250.12324	326.6875
3252.40088	328.5875
3254.67715	319.6875
3256.95205	311.0875
3259.22558	325.8875
3261.49775	327.9875
3263.76855	322.3875
3266.03799	330.5875
3268.30606	338.1875
3270.57277	339.3875
3272.83812	323.8875
3275.10211	337.9875
3277.36474	361.2875
3279.62601	362.9875
3281.88593	352.9875
3284.14448	343.9875
3286.40168	379.9875
3288.65753	374.7875
3290.91202	389.6875
3293.16516	387.4875
3295.41695	424.7875
3297.66738	437.9875
3299.91647	427.3875
3302.16421	448.0875
3304.4106	420.4875
3306.65564	455.3875
3308.89933	437.7875
3311.14169	448.5875
3313.38269	455.3875
3315.62236	444.9875
3317.86068	454.1875
3320.09766	466.2875
3322.3333	454.3875
3324.5676	463.0875
3326.80056	467.0875
3329.03219	474.3875
3331.26248	0.0875
3333.49143	0.0875
3335.71905	-0.0125
