Data from AgNPs_UA_5uM_CRN_500uM_SU_RamanShift__201__12-02-53-179.txt Node

Date: Thu Aug 04 12:02:53 BST 2022
User: TCL
Spectrometer: QEP01345
Trigger mode: 4
Integration Time (sec): 1.000000E0
Scans to average: 10
Electric dark correction enabled: true
Nonlinearity correction enabled: false
Boxcar width: 0
XAxis mode: Raman Shifts
Number of Pixels in Spectrum: 1044
>>>>>Begin Spectral Data<<<<<
46.04893	0.2875
50.45542	-0.2125
54.85868	0.2875
59.25871	-1.5125
63.6555	-58.1125
68.04907	-39.0125
72.43941	-69.3125
76.82654	-57.1125
81.21044	-56.3125
85.59113	-49.9125
89.96862	-73.9125
94.34289	-55.5125
98.71396	-76.4125
103.08183	-56.4125
107.4465	-50.6125
111.80798	-56.0125
116.16626	-43.7125
120.52136	-72.7125
124.87327	-50.6125
129.222	-61.9125
133.56755	-50.3125
137.90993	-62.1125
142.24913	-50.0125
146.58517	-43.8125
150.91804	-39.3125
155.24774	-29.6125
159.57429	-7.6125
163.89768	-4.4125
168.21792	38.9875
172.53501	58.8875
176.84895	141.0875
181.15975	273.2875
185.46741	425.5875
189.77193	611.7875
194.07331	899.8875
198.37157	1190.3875
202.6667	1468.8875
206.9587	1788.5875
211.24758	2129.5875
215.53334	2423.1875
219.81599	2787.1875
224.09553	3184.1875
228.37195	3639.1875
232.64527	4089.0875
236.91549	4569.7875
241.18261	4935.4875
245.44663	5212.4875
249.70755	5397.1875
253.96539	5512.2875
258.22014	5620.5875
262.4718	5706.1875
266.72039	5739.4875
270.96589	5710.2875
275.20832	5606.3875
279.44768	5499.2875
283.68397	5374.3875
287.91719	5313.8875
292.14735	5362.0875
296.37445	5528.5875
300.59849	5800.5875
304.81948	6169.7875
309.03742	6536.8875
313.25231	6790.0875
317.46415	6725.8875
321.67296	6349.3875
325.87872	5924.9875
330.08145	5719.8875
334.28114	5690.1875
338.47781	5742.1875
342.67145	5893.8875
346.86207	6130.3875
351.04966	6492.9875
355.23424	6907.8875
359.4158	7174.2875
363.59435	7211.7875
367.76989	7128.1875
371.94243	7001.0875
376.11196	6873.5875
380.27849	6805.5875
384.44203	6728.2875
388.60257	6687.9875
392.76012	6710.5875
396.91468	6829.7875
401.06626	6978.4875
405.21485	7020.4875
409.36047	6857.6875
413.50311	6530.0875
417.64277	6239.9875
421.77947	6041.9875
425.9132	5957.4875
430.04396	5937.3875
434.17176	5975.1875
438.2966	6077.6875
442.41849	6161.9875
446.53742	6288.6875
450.6534	6376.1875
454.76644	6453.5875
458.87653	6473.4875
462.98368	6436.9875
467.08789	6367.2875
471.18916	6284.6875
475.2875	6171.8875
479.38291	6063.9875
483.4754	5962.2875
487.56496	5921.1875
491.6516	5864.3875
495.73531	5886.8875
499.81612	5929.5875
503.89401	5971.8875
507.96899	6043.6875
512.04106	6130.7875
516.11023	6235.5875
520.1765	6328.6875
524.23987	6352.5875
528.30034	6352.8875
532.35792	6280.1875
536.41261	6217.8875
540.46441	6140.8875
544.51333	6061.1875
548.55936	6122.5875
552.60252	6249.1875
556.64279	6343.1875
560.6802	6480.4875
564.71473	6604.3875
568.7464	6796.9875
572.7752	6780.7875
576.80114	6464.6875
580.82422	6219.6875
584.84444	6125.9875
588.86181	6107.1875
592.87633	6125.3875
596.888	6259.7875
600.89682	6623.3875
604.9028	7598.6875
608.90594	9700.5875
612.90624	12112.2875
616.90371	11224.7875
620.89834	8106.8875
624.89015	6781.7875
628.87913	6573.1875
632.86528	6725.6875
636.84862	6872.3875
640.82913	6753.0875
644.80683	6384.5875
648.78172	6213.9875
652.75379	6245.7875
656.72306	6479.1875
660.68952	6732.1875
664.65319	6637.9875
668.61405	6393.0875
672.57211	6338.2875
676.52738	6335.4875
680.47986	6221.2875
684.42955	6139.3875
688.37646	6096.0875
692.32058	6103.0875
696.26192	6157.2875
700.20048	6254.8875
704.13626	6296.6875
708.06928	6248.5875
711.99952	6230.1875
715.927	6202.1875
719.85171	6246.8875
723.77365	6307.3875
727.69284	6270.5875
731.60928	6245.4875
735.52295	6228.1875
739.43388	6258.6875
743.34206	6288.4875
747.24749	6290.8875
751.15017	6329.2875
755.05012	6388.8875
758.94733	6781.6875
762.8418	7614.3875
766.73354	8964.7875
770.62254	9984.3875
774.50882	10063.2875
778.39237	9531.6875
782.27321	8613.8875
786.15132	7554.0875
790.02671	6865.9875
793.89938	6492.9875
797.76935	6359.0875
801.6366	6282.6875
805.50115	6223.9875
809.36299	6222.3875
813.22213	6215.3875
817.07857	6224.3875
820.93231	6217.5875
824.78336	6222.6875
828.63172	6251.3875
832.47738	6266.8875
836.32036	6271.1875
840.16066	6237.7875
843.99827	6207.8875
847.8332	6193.3875
851.66546	6207.7875
855.49504	6217.5875
859.32195	6263.5875
863.1462	6242.3875
866.96777	6223.1875
870.78668	6224.0875
874.60293	6250.6875
878.41652	6273.1875
882.22745	6352.8875
886.03573	6391.6875
889.84136	6377.4875
893.64433	6377.4875
897.44466	6354.2875
901.24235	6359.3875
905.0374	6353.2875
908.8298	6295.8875
912.61957	6246.5875
916.40671	6217.5875
920.19121	6263.4875
923.97308	6356.3875
927.75233	6426.2875
931.52895	6501.6875
935.30295	6452.9875
939.07433	6295.5875
942.84309	6176.8875
946.60924	6149.8875
950.37278	6118.5875
954.13371	6112.5875
957.89203	6104.2875
961.64774	6127.2875
965.40086	6119.3875
969.15137	6074.3875
972.89929	6116.5875
976.64461	6097.6875
980.38733	6129.0875
984.12747	6122.4875
987.86502	6142.5875
991.59999	6173.4875
995.33237	6241.3875
999.06217	6292.3875
1002.78939	6371.9875
1006.51404	6515.7875
1010.23611	6639.1875
1013.95561	6682.4875
1017.67255	6675.8875
1021.38692	6675.6875
1025.09872	6598.4875
1028.80796	6516.1875
1032.51465	6508.5875
1036.21877	6498.7875
1039.92035	6549.5875
1043.61937	6580.0875
1047.31584	6635.6875
1051.00976	6683.6875
1054.70114	6686.0875
1058.38998	6645.6875
1062.07627	6685.8875
1065.76003	6712.8875
1069.44126	6786.0875
1073.11995	6854.6875
1076.79611	6993.9875
1080.46974	7146.9875
1084.14085	7312.5875
1087.80943	7452.8875
1091.47549	7487.1875
1095.13903	7372.8875
1098.80005	7264.4875
1102.45857	7163.1875
1106.11456	7129.5875
1109.76805	7090.7875
1113.41903	7190.2875
1117.06751	7373.3875
1120.71348	7634.3875
1124.35696	8022.2875
1127.99793	8305.5875
1131.63641	8142.6875
1135.2724	7744.0875
1138.90589	7565.8875
1142.5369	7244.8875
1146.16542	7132.6875
1149.79145	7016.4875
1153.415	6985.2875
1157.03607	6972.4875
1160.65467	7064.4875
1164.27079	7265.9875
1167.88443	7520.6875
1171.49561	7944.7875
1175.10432	8551.9875
1178.71056	9474.9875
1182.31434	10271.0875
1185.91565	10507.0875
1189.51451	10346.1875
1193.11091	10119.4875
1196.70485	9876.5875
1200.29634	9642.9875
1203.88538	9335.0875
1207.47197	8902.4875
1211.05612	8442.6875
1214.63782	8015.9875
1218.21708	7765.5875
1221.79391	7623.8875
1225.36829	7531.9875
1228.94024	7532.7875
1232.50976	7545.5875
1236.07685	7566.4875
1239.6415	7594.1875
1243.20374	7614.0875
1246.76355	7657.7875
1250.32093	7742.8875
1253.8759	7801.6875
1257.42845	7988.5875
1260.97859	8181.5875
1264.52631	8415.7875
1268.07163	8580.7875
1271.61453	8698.5875
1275.15503	8741.8875
1278.69312	8767.6875
1282.22882	8819.9875
1285.76211	9037.7875
1289.29301	9284.6875
1292.82151	9561.5875
1296.34761	9757.0875
1299.87133	10177.4875
1303.39266	10898.5875
1306.9116	12028.2875
1310.42815	13290.8875
1313.94233	13713.8875
1317.45412	12938.6875
1320.96354	11754.8875
1324.47058	10728.8875
1327.97525	10007.2875
1331.47754	9595.6875
1334.97747	9470.2875
1338.47502	9599.8875
1341.97022	9946.0875
1345.46305	10696.2875
1348.95352	11807.4875
1352.44163	13088.6875
1355.92738	14438.3875
1359.41078	16152.6875
1362.89183	17636.6875
1366.37053	17007.8875
1369.84688	14110.1875
1373.32088	11426.2875
1376.79254	10012.3875
1380.26186	9325.9875
1383.72883	8916.9875
1387.19347	8521.9875
1390.65578	8160.7875
1394.11575	7915.6875
1397.57339	7758.3875
1401.0287	7663.3875
1404.48168	7598.8875
1407.93234	7631.9875
1411.38068	7661.6875
1414.82669	7741.3875
1418.27039	7827.6875
1421.71177	7823.7875
1425.15083	7692.1875
1428.58758	7642.0875
1432.02203	7677.9875
1435.45416	7750.8875
1438.88399	7732.9875
1442.31151	7756.6875
1445.73673	7804.6875
1449.15965	7831.7875
1452.58027	7860.1875
1455.9986	7871.1875
1459.41463	7883.0875
1462.82837	7963.5875
1466.23982	8154.6875
1469.64898	8373.4875
1473.05586	8512.3875
1476.46045	8600.3875
1479.86276	8683.8875
1483.26279	8780.1875
1486.66054	8970.7875
1490.05602	9251.9875
1493.44922	9818.4875
1496.84016	10667.9875
1500.22882	12024.3875
1503.61521	13831.0875
1506.99934	15621.5875
1510.38121	16833.7875
1513.76081	16695.1875
1517.13816	15106.6875
1520.51324	12983.2875
1523.88607	11245.7875
1527.25665	10239.5875
1530.62498	9747.8875
1533.99105	9523.4875
1537.35488	9369.4875
1540.71647	9277.3875
1544.07581	9167.6875
1547.4329	9041.3875
1550.78776	8930.4875
1554.14038	8826.4875
1557.49077	8800.9875
1560.83892	8894.9875
1564.18484	9122.9875
1567.52853	9476.4875
1570.86999	9788.5875
1574.20922	9927.9875
1577.54624	9847.0875
1580.88103	9313.5875
1584.2136	8627.4875
1587.54395	8264.5875
1590.87208	8174.8875
1594.19801	8341.1875
1597.52172	8695.8875
1600.84321	8849.2875
1604.16251	8710.0875
1607.47959	8523.3875
1610.79447	8316.1875
1614.10715	8024.9875
1617.41763	7728.5875
1620.7259	7455.8875
1624.03199	7305.6875
1627.33587	7237.2875
1630.63757	7293.8875
1633.93707	7510.5875
1637.23439	7944.0875
1640.52951	8629.0875
1643.82246	9623.6875
1647.11321	10787.3875
1650.40179	11516.4875
1653.68819	11206.2875
1656.97241	9912.7875
1660.25446	8518.3875
1663.53433	7507.3875
1666.81203	6890.3875
1670.08756	6566.2875
1673.36092	6379.1875
1676.63211	6241.3875
1679.90115	6151.7875
1683.16801	6060.4875
1686.43272	5987.9875
1689.69527	5922.2875
1692.95567	5867.3875
1696.2139	5853.6875
1699.46999	5800.2875
1702.72392	5791.9875
1705.97571	5815.1875
1709.22535	5803.9875
1712.47284	5818.8875
1715.71819	5843.8875
1718.96139	5818.4875
1722.20246	5811.7875
1725.44139	5777.0875
1728.67818	5748.8875
1731.91284	5723.5875
1735.14537	5670.9875
1738.37576	5651.5875
1741.60403	5614.3875
1744.83017	5590.2875
1748.05418	5595.1875
1751.27607	5596.3875
1754.49584	5563.8875
1757.71349	5525.9875
1760.92903	5541.1875
1764.14244	5485.8875
1767.35375	5495.7875
1770.56294	5461.9875
1773.77002	5458.6875
1776.97499	5478.2875
1780.17785	5459.0875
1783.37861	5438.4875
1786.57727	5433.5875
1789.77382	5374.8875
1792.96828	5418.1875
1796.16064	5417.3875
1799.3509	5399.1875
1802.53907	5393.6875
1805.72514	5370.0875
1808.90913	5339.3875
1812.09102	5345.0875
1815.27083	5332.3875
1818.44856	5316.2875
1821.6242	5319.2875
1824.79776	5300.2875
1827.96924	5273.2875
1831.13864	5267.1875
1834.30597	5267.4875
1837.47122	5247.8875
1840.6344	5235.2875
1843.7955	5215.2875
1846.95454	5215.1875
1850.11151	5240.6875
1853.26642	5189.7875
1856.41926	5197.6875
1859.57004	5215.8875
1862.71876	5186.5875
1865.86542	5205.1875
1869.01003	5202.0875
1872.15258	5180.6875
1875.29308	5183.4875
1878.43152	5191.4875
1881.56792	5146.9875
1884.70227	5140.2875
1887.83457	5146.3875
1890.96482	5125.9875
1894.09304	5119.4875
1897.21921	5100.3875
1900.34335	5118.4875
1903.46544	5092.8875
1906.58551	5108.6875
1909.70353	5100.5875
1912.81953	5080.8875
1915.93349	5074.7875
1919.04543	5076.0875
1922.15534	5059.5875
1925.26322	5048.4875
1928.36908	5026.0875
1931.47292	5048.2875
1934.57473	5039.8875
1937.67453	5018.3875
1940.77232	4983.8875
1943.86808	4963.3875
1946.96184	4968.1875
1950.05358	4944.6875
1953.14331	4919.6875
1956.23103	4934.3875
1959.31675	4889.9875
1962.40046	4846.7875
1965.48217	4868.9875
1968.56188	4852.2875
1971.63959	4844.8875
1974.7153	4853.9875
1977.78901	4831.7875
1980.86073	4806.8875
1983.93046	4759.8875
1986.99819	4686.7875
1990.06394	4725.2875
1993.1277	4734.2875
1996.18947	4702.7875
1999.24925	4664.1875
2002.30706	4677.1875
2005.36288	4675.3875
2008.41672	4646.2875
2011.46859	4627.4875
2014.51848	4604.4875
2017.56639	4584.6875
2020.61233	4568.3875
2023.6563	4583.4875
2026.6983	4527.6875
2029.73833	4541.2875
2032.7764	4542.3875
2035.8125	4499.2875
2038.84664	4513.1875
2041.87881	4488.5875
2044.90903	4485.5875
2047.93729	4491.4875
2050.96359	4460.1875
2053.98794	4466.2875
2057.01034	4463.3875
2060.03078	4444.5875
2063.04927	4430.6875
2066.06582	4425.9875
2069.08042	4424.7875
2072.09307	4433.9875
2075.10378	4434.5875
2078.11255	4404.2875
2081.11938	4410.5875
2084.12426	4407.0875
2087.12722	4406.9875
2090.12824	4396.0875
2093.12732	4410.4875
2096.12447	4401.2875
2099.11969	4389.3875
2102.11299	4387.6875
2105.10435	4411.6875
2108.09379	4386.8875
2111.08131	4397.2875
2114.0669	4399.4875
2117.05057	4399.9875
2120.03233	4389.7875
2123.01216	4421.2875
2125.99008	4409.1875
2128.96609	4399.3875
2131.94018	4416.8875
2134.91236	4415.0875
2137.88263	4398.7875
2140.851	4402.7875
2143.81746	4435.3875
2146.78201	4430.0875
2149.74466	4405.0875
2152.7054	4421.0875
2155.66425	4393.7875
2158.6212	4402.0875
2161.57625	4394.4875
2164.52941	4359.9875
2167.48067	4360.7875
2170.43004	4359.2875
2173.37752	4393.0875
2176.32311	4370.2875
2179.26681	4365.2875
2182.20863	4372.1875
2185.14856	4373.9875
2188.08661	4370.8875
2191.02278	4378.7875
2193.95707	4344.3875
2196.88948	4348.1875
2199.82001	4336.6875
2202.74867	4326.2875
2205.67545	4340.7875
2208.60037	4338.1875
2211.52341	4322.3875
2214.44458	4320.0875
2217.36388	4305.2875
2220.28132	4298.4875
2223.1969	4257.9875
2226.11061	4281.5875
2229.02246	4254.2875
2231.93245	4247.8875
2234.84058	4236.7875
2237.74686	4240.9875
2240.65128	4218.4875
2243.55385	4220.6875
2246.45456	4196.5875
2249.35343	4216.4875
2252.25044	4200.5875
2255.14561	4199.5875
2258.03893	4195.9875
2260.93041	4187.9875
2263.82004	4167.8875
2266.70783	4179.3875
2269.59378	4160.6875
2272.4779	4137.3875
2275.36017	4136.3875
2278.24061	4123.9875
2281.11922	4091.1875
2283.996	4106.5875
2286.87094	4083.2875
2289.74405	4093.1875
2292.61534	4089.8875
2295.4848	4069.0875
2298.35243	4058.7875
2301.21824	4060.2875
2304.08223	4060.7875
2306.94439	4051.5875
2309.80474	4059.0875
2312.66327	4042.9875
2315.51999	4035.8875
2318.37489	4043.5875
2321.22797	4005.8875
2324.07925	4004.5875
2326.92871	4013.2875
2329.77637	3985.6875
2332.62222	3985.8875
2335.46626	3963.5875
2338.3085	3943.2875
2341.14893	3977.4875
2343.98756	3982.4875
2346.8244	3952.6875
2349.65943	3949.5875
2352.49267	3942.6875
2355.32411	3949.0875
2358.15376	3931.0875
2360.98161	3941.5875
2363.80768	3923.8875
2366.63195	3927.4875
2369.45444	3935.4875
2372.27514	3947.2875
2375.09405	3960.6875
2377.91118	3908.9875
2380.72652	3903.0875
2383.54009	3911.5875
2386.35187	3914.6875
2389.16188	3875.7875
2391.97011	3868.3875
2394.77657	3856.3875
2397.58125	3865.1875
2400.38416	3850.2875
2403.18529	3832.5875
2405.98466	3818.9875
2408.78226	3822.7875
2411.57809	3821.0875
2414.37216	3797.9875
2417.16446	3800.5875
2419.955	3768.6875
2422.74378	3804.3875
2425.5308	3773.6875
2428.31606	3783.4875
2431.09956	3793.5875
2433.88131	3763.3875
2436.6613	3768.6875
2439.43954	3753.8875
2442.21603	3735.8875
2444.99077	3741.7875
2447.76377	3753.0875
2450.53501	3739.7875
2453.30451	3742.3875
2456.07226	3743.3875
2458.83827	3730.4875
2461.60254	3675.0875
2464.36507	3714.0875
2467.12586	3689.0875
2469.88492	3709.5875
2472.64224	3705.0875
2475.39782	3678.2875
2478.15167	3714.8875
2480.90379	3689.9875
2483.65417	3706.4875
2486.40283	3702.5875
2489.14976	3713.0875
2491.89497	3698.9875
2494.63845	3706.7875
2497.3802	3699.3875
2500.12024	3687.5875
2502.85855	3682.2875
2505.59514	3684.1875
2508.33002	3669.0875
2511.06318	3627.3875
2513.79462	3628.1875
2516.52435	3616.8875
2519.25237	3585.1875
2521.97867	3589.2875
2524.70327	3592.5875
2527.42616	3599.9875
2530.14734	3592.7875
2532.86681	3582.3875
2535.58458	3577.5875
2538.30065	3549.3875
2541.01501	3570.8875
2543.72768	3563.9875
2546.43864	3562.0875
2549.14791	3538.8875
2551.85548	3530.2875
2554.56136	3534.2875
2557.26554	3530.4875
2559.96803	3526.1875
2562.66883	3532.3875
2565.36794	3493.0875
2568.06536	3485.1875
2570.7611	3500.3875
2573.45514	3488.4875
2576.14751	3475.2875
2578.83819	3459.1875
2581.52719	3465.0875
2584.21451	3437.6875
2586.90015	3430.3875
2589.58411	3418.4875
2592.2664	3417.1875
2594.94701	3421.2875
2597.62594	3423.8875
2600.30321	3361.1875
2602.9788	3371.6875
2605.65273	3362.7875
2608.32498	3380.0875
2610.99557	3385.3875
2613.66449	3361.8875
2616.33175	3379.9875
2618.99734	3375.8875
2621.66128	3386.1875
2624.32355	3367.9875
2626.98416	3341.4875
2629.64311	3329.6875
2632.30041	3319.6875
2634.95605	3311.2875
2637.61004	3306.4875
2640.26238	3292.0875
2642.91306	3289.0875
2645.56209	3304.9875
2648.20948	3297.3875
2650.85521	3292.0875
2653.4993	3316.9875
2656.14175	3274.0875
2658.78255	3275.0875
2661.42171	3249.5875
2664.05923	3281.3875
2666.6951	3287.3875
2669.32934	3306.1875
2671.96194	3305.7875
2674.59291	3298.4875
2677.22224	3292.6875
2679.84993	3284.5875
2682.476	3266.8875
2685.10043	3271.2875
2687.72324	3262.2875
2690.34441	3263.6875
2692.96396	3256.5875
2695.58188	3284.0875
2698.19818	3262.3875
2700.81285	3259.6875
2703.4259	3238.9875
2706.03733	3227.9875
2708.64714	3211.7875
2711.25533	3252.1875
2713.86191	3249.5875
2716.46687	3262.6875
2719.07021	3249.5875
2721.67194	3240.0875
2724.27206	3265.9875
2726.87057	3248.7875
2729.46747	3229.5875
2732.06276	3238.5875
2734.65644	3222.1875
2737.24852	3225.9875
2739.83899	3207.9875
2742.42786	3222.0875
2745.01513	3218.3875
2747.60079	3193.8875
2750.18486	3186.3875
2752.76733	3183.9875
2755.3482	3179.9875
2757.92747	3182.1875
2760.50515	3167.7875
2763.08123	3156.3875
2765.65573	3150.5875
2768.22863	3137.8875
2770.79994	3137.0875
2773.36967	3130.8875
2775.9378	3124.5875
2778.50435	3120.3875
2781.06932	3123.5875
2783.6327	3107.1875
2786.1945	3143.9875
2788.75471	3116.0875
2791.31335	3089.0875
2793.87041	3101.5875
2796.42589	3074.9875
2798.97979	3080.9875
2801.53212	3068.6875
2804.08288	3081.6875
2806.63206	3067.2875
2809.17967	3039.5875
2811.72571	3061.5875
2814.27018	3070.9875
2816.81308	3038.8875
2819.35442	3011.3875
2821.89419	3031.9875
2824.43239	3010.9875
2826.96904	3038.4875
2829.50412	3012.8875
2832.03763	3015.9875
2834.56959	3009.1875
2837.1	3001.5875
2839.62884	3005.3875
2842.15613	2999.3875
2844.68186	3004.3875
2847.20604	2982.8875
2849.72867	2974.4875
2852.24974	2980.0875
2854.76927	2955.2875
2857.28724	2911.4875
2859.80367	2968.1875
2862.31855	2965.8875
2864.83189	2951.5875
2867.34368	2964.6875
2869.85393	2977.6875
2872.36264	2945.3875
2874.8698	2959.4875
2877.37543	2942.3875
2879.87952	2935.2875
2882.38207	2931.6875
2884.88308	2929.6875
2887.38256	2932.8875
2889.88051	2928.6875
2892.37692	2916.4875
2894.8718	2907.3875
2897.36515	2928.9875
2899.85698	2915.8875
2902.34727	2903.2875
2904.83604	2919.7875
2907.32328	2939.4875
2909.809	2923.5875
2912.29319	2917.7875
2914.77587	2931.0875
2917.25702	2947.8875
2919.73665	2953.9875
2922.21476	2951.6875
2924.69136	2947.1875
2927.16644	2921.1875
2929.64	2931.2875
2932.11205	2908.7875
2934.58258	2920.3875
2937.05161	2903.1875
2939.51912	2898.3875
2941.98513	2920.2875
2944.44962	2888.9875
2946.91261	2858.7875
2949.37409	2880.0875
2951.83407	2875.7875
2954.29254	2863.5875
2956.74951	2861.2875
2959.20498	2863.8875
2961.65895	2850.9875
2964.11142	2839.0875
2966.56239	2847.4875
2969.01186	2843.8875
2971.45984	2839.2875
2973.90632	2831.7875
2976.35131	2833.1875
2978.7948	2836.9875
2981.23681	2811.2875
2983.67732	2819.9875
2986.11635	2810.5875
2988.55388	2784.0875
2990.98993	2784.7875
2993.4245	2780.2875
2995.85758	2759.7875
2998.28917	2767.0875
3000.71928	2750.3875
3003.14791	2742.0875
3005.57506	2726.7875
3008.00073	2718.9875
3010.42493	2666.1875
3012.84764	2724.9875
3015.26888	2719.0875
3017.68865	2707.3875
3020.10694	2661.3875
3022.52376	2686.8875
3024.9391	2676.7875
3027.35298	2663.1875
3029.76539	2651.6875
3032.17632	2655.6875
3034.5858	2641.7875
3036.9938	2661.4875
3039.40034	2650.4875
3041.80542	2630.0875
3044.20903	2612.8875
3046.61118	2612.4875
3049.01187	2624.5875
3051.4111	2601.0875
3053.80888	2596.6875
3056.20519	2582.3875
3058.60005	2570.7875
3060.99345	2590.0875
3063.3854	2573.7875
3065.7759	2563.7875
3068.16494	2552.4875
3070.55254	2545.7875
3072.93868	2544.4875
3075.32338	2537.3875
3077.70662	2525.9875
3080.08842	2525.3875
3082.46878	2505.1875
3084.84769	2520.9875
3087.22515	2503.1875
3089.60118	2526.4875
3091.97576	2494.2875
3094.3489	2505.4875
3096.72061	2498.6875
3099.09087	2487.3875
3101.4597	2502.9875
3103.82709	2491.4875
3106.19305	2467.4875
3108.55757	2487.7875
3110.92066	2474.5875
3113.28232	2480.4875
3115.64255	2468.5875
3118.00134	2456.1875
3120.35871	2437.8875
3122.71466	2434.1875
3125.06917	2444.9875
3127.42226	2431.0875
3129.77393	2412.6875
3132.12417	2416.4875
3134.47299	2424.1875
3136.82039	2401.5875
3139.16636	2378.7875
3141.51092	2406.2875
3143.85406	2413.7875
3146.19579	2395.5875
3148.53609	2394.1875
3150.87499	2392.3875
3153.21246	2378.5875
3155.54853	2385.0875
3157.88318	2393.8875
3160.21642	2390.2875
3162.54826	2385.8875
3164.87868	2390.0875
3167.2077	2362.0875
3169.5353	2370.7875
3171.86151	2373.8875
3174.18631	2369.8875
3176.5097	2353.6875
3178.83169	2354.2875
3181.15228	2357.8875
3183.47147	2343.3875
3185.78926	2319.1875
3188.10565	2330.3875
3190.42065	2304.8875
3192.73424	2318.5875
3195.04645	2307.2875
3197.35725	2294.6875
3199.66667	2308.4875
3201.97469	2311.7875
3204.28132	2298.7875
3206.58656	2304.4875
3208.8904	2304.8875
3211.19287	2299.9875
3213.49394	2295.4875
3215.79363	2288.7875
3218.09193	2296.7875
3220.38884	2291.2875
3222.68438	2288.6875
3224.97853	2269.0875
3227.2713	2289.2875
3229.56269	2271.7875
3231.8527	2278.7875
3234.14133	2264.9875
3236.42858	2247.1875
3238.71446	2229.5875
3240.99896	2253.8875
3243.28209	2233.3875
3245.56384	2249.8875
3247.84423	2219.1875
3250.12324	2236.9875
3252.40088	2223.5875
3254.67715	2214.0875
3256.95205	2209.8875
3259.22558	2224.3875
3261.49775	2215.0875
3263.76855	2206.7875
3266.03799	2212.9875
3268.30606	2205.2875
3270.57277	2208.0875
3272.83812	2196.1875
3275.10211	2187.5875
3277.36474	2203.4875
3279.62601	2196.2875
3281.88593	2160.9875
3284.14448	2148.6875
3286.40168	2178.0875
3288.65753	2157.5875
3290.91202	2166.2875
3293.16516	2145.5875
3295.41695	2163.4875
3297.66738	2164.5875
3299.91647	2136.3875
3302.16421	2133.6875
3304.4106	2097.5875
3306.65564	2116.0875
3308.89933	2073.2875
3311.14169	2074.3875
3313.38269	2063.8875
3315.62236	2044.0875
3317.86068	2035.6875
3320.09766	2026.3875
3322.3333	1976.0875
3324.5676	1978.8875
3326.80056	1943.0875
3329.03219	1945.4875
3331.26248	-0.0125
3333.49143	0.1875
3335.71905	0.8875
