Data from AgNPs_UA_5uM_CRN_500uM_SU_RamanShift__68__11-40-43-153.txt Node

Date: Thu Aug 04 11:40:43 BST 2022
User: TCL
Spectrometer: QEP01345
Trigger mode: 4
Integration Time (sec): 1.000000E0
Scans to average: 10
Electric dark correction enabled: true
Nonlinearity correction enabled: false
Boxcar width: 0
XAxis mode: Raman Shifts
Number of Pixels in Spectrum: 1044
>>>>>Begin Spectral Data<<<<<
46.04893	-1
50.45542	0.8
54.85868	1.6
59.25871	-1
63.6555	-55.8
68.04907	-39.1
72.43941	-70.2
76.82654	-55.1
81.21044	-56.2
85.59113	-46.3
89.96862	-73
94.34289	-54.1
98.71396	-75.6
103.08183	-56.6
107.4465	-47.1
111.80798	-54.4
116.16626	-41.1
120.52136	-71.5
124.87327	-48
129.222	-57.9
133.56755	-44
137.90993	-57.8
142.24913	-43.4
146.58517	-34.3
150.91804	-29.7
155.24774	-16.4
159.57429	9.4
163.89768	20.2
168.21792	72.5
172.53501	107.5
176.84895	220.3
181.15975	375.5
185.46741	572.9
189.77193	809
194.07331	1177.9
198.37157	1537.2
202.6667	1920.4
206.9587	2356
211.24758	2787.8
215.53334	3269.6
219.81599	3805.7
224.09553	4454.6
228.37195	5088.4
232.64527	5720.9
236.91549	6269.6
241.18261	6578.8
245.44663	6761.8
249.70755	6831
253.96539	6905.4
258.22014	7027.2
262.4718	7142.9
266.72039	7192.1
270.96589	7065.8
275.20832	6851.6
279.44768	6630.3
283.68397	6441.7
287.91719	6347.7
292.14735	6477.8
296.37445	6815.6
300.59849	7440.3
304.81948	8280.8
309.03742	9258.9
313.25231	9962.8
317.46415	9873.7
321.67296	8847.7
325.87872	7706.2
330.08145	7053.5
334.28114	6906.9
338.47781	7076.7
342.67145	7460.3
346.86207	8085.1
351.04966	9010.7
355.23424	9992.2
359.4158	10411.5
363.59435	10143.1
367.76989	9617.2
371.94243	9111.8
376.11196	8669.4
380.27849	8367
384.44203	8141.7
388.60257	8028.9
392.76012	8084.2
396.91468	8295.6
401.06626	8561.4
405.21485	8596.6
409.36047	8219.5
413.50311	7518.2
417.64277	6866.5
421.77947	6437.6
425.9132	6225.5
430.04396	6142.9
434.17176	6130.9
438.2966	6231
442.41849	6367.9
446.53742	6541.9
450.6534	6670.7
454.76644	6710.6
458.87653	6677.6
462.98368	6609.5
467.08789	6512.2
471.18916	6354.1
475.2875	6127.6
479.38291	5961.4
483.4754	5863.8
487.56496	5839.3
491.6516	5766.7
495.73531	5762.5
499.81612	5811.2
503.89401	5940.3
507.96899	6075.4
512.04106	6250.8
516.11023	6421.7
520.1765	6560.2
524.23987	6620.6
528.30034	6611.4
532.35792	6487.2
536.41261	6379.4
540.46441	6244.2
544.51333	6127.2
548.55936	6141.4
552.60252	6282.3
556.64279	6417.9
560.6802	6749.9
564.71473	7346.7
568.7464	8091.3
572.7752	8028.7
576.80114	6999.7
580.82422	6189.7
584.84444	5843.1
588.86181	5726.3
592.87633	5748.9
596.888	5921.7
600.89682	6491.3
604.9028	8320.8
608.90594	12844.7
612.90624	18246.5
616.90371	16612.4
620.89834	9912.6
624.89015	6981.2
628.87913	6676.7
632.86528	7107
636.84862	7315.5
640.82913	6800
644.80683	6085
648.78172	5749.6
652.75379	5846.8
656.72306	6385.3
660.68952	6918.6
664.65319	6680.5
668.61405	6068.3
672.57211	5840.5
676.52738	5847.6
680.47986	5738.4
684.42955	5573.1
688.37646	5538.8
692.32058	5528
696.26192	5647.9
700.20048	5782.7
704.13626	5816.2
708.06928	5730.3
711.99952	5680.6
715.927	5701.2
719.85171	5852.6
723.77365	5963.4
727.69284	5820.9
731.60928	5750.5
735.52295	5690.5
739.43388	5755
743.34206	5776.8
747.24749	5790.7
751.15017	5813.7
755.05012	6013.7
758.94733	6889
762.8418	8809.2
766.73354	11390.4
770.62254	12755.4
774.50882	12279.8
778.39237	11377.1
782.27321	9933.4
786.15132	8037.2
790.02671	6700.7
793.89938	6068.6
797.76935	5853.8
801.6366	5714.2
805.50115	5664.1
809.36299	5629.4
813.22213	5610.3
817.07857	5594.7
820.93231	5643.2
824.78336	5702.7
828.63172	5799.2
832.47738	5807.8
836.32036	5773.2
840.16066	5605.4
843.99827	5551.9
847.8332	5530.8
851.66546	5511.6
855.49504	5529.4
859.32195	5523.3
863.1462	5486.8
866.96777	5463.9
870.78668	5462.2
874.60293	5515.6
878.41652	5561.8
882.22745	5675.6
886.03573	5741
889.84136	5692.7
893.64433	5704.8
897.44466	5685.7
901.24235	5705.5
905.0374	5646.6
908.8298	5507.4
912.61957	5441.4
916.40671	5355.3
920.19121	5420.7
923.97308	5554.3
927.75233	5806.3
931.52895	6052.1
935.30295	5924.4
939.07433	5538.4
942.84309	5278.4
946.60924	5199.9
950.37278	5152.3
954.13371	5125.1
957.89203	5131.5
961.64774	5158.1
965.40086	5122.6
969.15137	5103.5
972.89929	5139.1
976.64461	5105.8
980.38733	5110.4
984.12747	5101.1
987.86502	5115.2
991.59999	5131.4
995.33237	5214
999.06217	5282.6
1002.78939	5403.1
1006.51404	5617.4
1010.23611	5745.3
1013.95561	5658.9
1017.67255	5567.5
1021.38692	5476.3
1025.09872	5374.9
1028.80796	5294.8
1032.51465	5301.3
1036.21877	5352.4
1039.92035	5391.2
1043.61937	5440.5
1047.31584	5506.2
1051.00976	5521.1
1054.70114	5509.5
1058.38998	5463.8
1062.07627	5471.2
1065.76003	5482.5
1069.44126	5551.9
1073.11995	5658.6
1076.79611	5888.4
1080.46974	6219.8
1084.14085	6676.7
1087.80943	7060
1091.47549	7081.9
1095.13903	6713.9
1098.80005	6415.7
1102.45857	6278.3
1106.11456	6239.2
1109.76805	6233.9
1113.41903	6426.5
1117.06751	6840.8
1120.71348	7479.1
1124.35696	8445
1127.99793	9153.1
1131.63641	8596.1
1135.2724	7521.4
1138.90589	6783
1142.5369	6379.7
1146.16542	6149.5
1149.79145	5937.2
1153.415	5896.2
1157.03607	5880
1160.65467	6020.7
1164.27079	6292.9
1167.88443	6702.8
1171.49561	7368.5
1175.10432	8573.6
1178.71056	10204.9
1182.31434	11393
1185.91565	11315.8
1189.51451	10335.7
1193.11091	9283.3
1196.70485	8607.2
1200.29634	8288.6
1203.88538	7917.5
1207.47197	7254
1211.05612	6606.7
1214.63782	6147.1
1218.21708	5942.7
1221.79391	5853.3
1225.36829	5790
1228.94024	5828.1
1232.50976	5810.3
1236.07685	5835
1239.6415	5875
1243.20374	5967
1246.76355	6068.9
1250.32093	6211.9
1253.8759	6396.9
1257.42845	6739.3
1260.97859	7208.3
1264.52631	7688.6
1268.07163	7892.5
1271.61453	7944.8
1275.15503	7834.2
1278.69312	7654.2
1282.22882	7776.3
1285.76211	8330.2
1289.29301	9103.3
1292.82151	9588.1
1296.34761	9848.4
1299.87133	10386.4
1303.39266	11793.2
1306.9116	14353.3
1310.42815	17454.3
1313.94233	18524.4
1317.45412	16177.3
1320.96354	12852.1
1324.47058	10330.6
1327.97525	8751.4
1331.47754	7914.2
1334.97747	7613.8
1338.47502	7741.9
1341.97022	8425
1345.46305	9880
1348.95352	11877.8
1352.44163	13982.9
1355.92738	16418.4
1359.41078	20552
1362.89183	25033
1366.37053	24056.1
1369.84688	17587.4
1373.32088	12133.9
1376.79254	9770.5
1380.26186	8696.2
1383.72883	7876.4
1387.19347	7085.6
1390.65578	6495.1
1394.11575	6164.5
1397.57339	5973.3
1401.0287	5843.3
1404.48168	5749.7
1407.93234	5768.2
1411.38068	5842.3
1414.82669	6098.2
1418.27039	6385.6
1421.71177	6465.8
1425.15083	6343.2
1428.58758	6282
1432.02203	6555.8
1435.45416	6763.7
1438.88399	6562.6
1442.31151	6332.9
1445.73673	6310.1
1449.15965	6271.2
1452.58027	6199.1
1455.9986	6100.6
1459.41463	5976.3
1462.82837	6025.4
1466.23982	6205.8
1469.64898	6414.8
1473.05586	6534.4
1476.46045	6546
1479.86276	6601.4
1483.26279	6795
1486.66054	7222.4
1490.05602	7877.6
1493.44922	8968.6
1496.84016	10645.2
1500.22882	13212.8
1503.61521	16776.1
1506.99934	21166.7
1510.38121	25428.5
1513.76081	26880.5
1517.13816	23956.8
1520.51324	18504.4
1523.88607	13684
1527.25665	10647.8
1530.62498	8930.5
1533.99105	7974.5
1537.35488	7308.7
1540.71647	6949.3
1544.07581	6804.2
1547.4329	6798.8
1550.78776	6910.2
1554.14038	7092.6
1557.49077	7444.1
1560.83892	8009.3
1564.18484	8932.3
1567.52853	9965.1
1570.86999	10568.7
1574.20922	10680.9
1577.54624	10307.7
1580.88103	9097.9
1584.2136	7644.8
1587.54395	6792.5
1590.87208	6573.5
1594.19801	6833.1
1597.52172	7329.6
1600.84321	7343
1604.16251	6852.9
1607.47959	6376
1610.79447	6075.5
1614.10715	5778
1617.41763	5563.4
1620.7259	5457.2
1624.03199	5438.9
1627.33587	5532.8
1630.63757	5753.1
1633.93707	6196.7
1637.23439	6999.8
1640.52951	8454.5
1643.82246	10904.4
1647.11321	14175.9
1650.40179	16710.8
1653.68819	16430.6
1656.97241	13401.4
1660.25446	9875.5
1663.53433	7492.2
1666.81203	6154.2
1670.08756	5496.9
1673.36092	5128.7
1676.63211	4900
1679.90115	4768.2
1683.16801	4653
1686.43272	4553.5
1689.69527	4509.7
1692.95567	4428.6
1696.2139	4419.8
1699.46999	4342.3
1702.72392	4344.5
1705.97571	4356.8
1709.22535	4332.9
1712.47284	4389.6
1715.71819	4409.9
1718.96139	4415.1
1722.20246	4403.2
1725.44139	4366.4
1728.67818	4321.2
1731.91284	4254.4
1735.14537	4218.6
1738.37576	4183.1
1741.60403	4166.4
1744.83017	4123.6
1748.05418	4131.5
1751.27607	4121.2
1754.49584	4074.6
1757.71349	4027.6
1760.92903	4010.1
1764.14244	3961.8
1767.35375	3953.8
1770.56294	3930.1
1773.77002	3876.7
1776.97499	3888.3
1780.17785	3859.1
1783.37861	3831.2
1786.57727	3853
1789.77382	3798
1792.96828	3821.3
1796.16064	3818.4
1799.3509	3816.2
1802.53907	3830
1805.72514	3785.7
1808.90913	3769.4
1812.09102	3768.6
1815.27083	3762.1
1818.44856	3737.5
1821.6242	3733.6
1824.79776	3706.5
1827.96924	3717.2
1831.13864	3676.5
1834.30597	3685.3
1837.47122	3647.8
1840.6344	3618.5
1843.7955	3608.1
1846.95454	3605.4
1850.11151	3626.6
1853.26642	3569.8
1856.41926	3571.1
1859.57004	3582
1862.71876	3574.5
1865.86542	3579.3
1869.01003	3574.6
1872.15258	3571.6
1875.29308	3593.3
1878.43152	3590.1
1881.56792	3564
1884.70227	3559.4
1887.83457	3553.1
1890.96482	3510.1
1894.09304	3518.2
1897.21921	3509
1900.34335	3506.3
1903.46544	3493.6
1906.58551	3499
1909.70353	3512.5
1912.81953	3495
1915.93349	3479.1
1919.04543	3477
1922.15534	3458.9
1925.26322	3463.1
1928.36908	3427.5
1931.47292	3424.1
1934.57473	3412.1
1937.67453	3380.8
1940.77232	3340.4
1943.86808	3329.1
1946.96184	3331.5
1950.05358	3305.4
1953.14331	3294.5
1956.23103	3297.1
1959.31675	3282.7
1962.40046	3248.6
1965.48217	3279.7
1968.56188	3285.1
1971.63959	3266.3
1974.7153	3290.5
1977.78901	3270.2
1980.86073	3242.1
1983.93046	3197.6
1986.99819	3122.7
1990.06394	3135
1993.1277	3142.7
1996.18947	3132.1
1999.24925	3108.2
2002.30706	3104.2
2005.36288	3095.4
2008.41672	3085.5
2011.46859	3047.4
2014.51848	3043.3
2017.56639	3029.5
2020.61233	3010.5
2023.6563	3017.1
2026.6983	2989.7
2029.73833	2989
2032.7764	2991.8
2035.8125	2936.1
2038.84664	2953.3
2041.87881	2939.1
2044.90903	2949.1
2047.93729	2952.3
2050.96359	2920.7
2053.98794	2917.5
2057.01034	2925.8
2060.03078	2906.6
2063.04927	2890.9
2066.06582	2883.1
2069.08042	2868.8
2072.09307	2869.3
2075.10378	2863.8
2078.11255	2882.6
2081.11938	2874.5
2084.12426	2854.9
2087.12722	2864.4
2090.12824	2860.2
2093.12732	2865.6
2096.12447	2864.2
2099.11969	2872.7
2102.11299	2839.5
2105.10435	2877.2
2108.09379	2867
2111.08131	2854.9
2114.0669	2857.6
2117.05057	2864.9
2120.03233	2862
2123.01216	2886.3
2125.99008	2902.6
2128.96609	2893.9
2131.94018	2900.5
2134.91236	2892.7
2137.88263	2875.5
2140.851	2874
2143.81746	2884.7
2146.78201	2870.1
2149.74466	2841
2152.7054	2849.5
2155.66425	2819.2
2158.6212	2818.2
2161.57625	2804
2164.52941	2777.3
2167.48067	2787.5
2170.43004	2790.3
2173.37752	2808.2
2176.32311	2801
2179.26681	2813.6
2182.20863	2822.4
2185.14856	2815
2188.08661	2811.1
2191.02278	2811.1
2193.95707	2779.8
2196.88948	2770.3
2199.82001	2783.5
2202.74867	2768.1
2205.67545	2775.2
2208.60037	2786
2211.52341	2773.5
2214.44458	2759
2217.36388	2751
2220.28132	2731.2
2223.1969	2718.2
2226.11061	2714
2229.02246	2702.4
2231.93245	2704.3
2234.84058	2688
2237.74686	2690.7
2240.65128	2678.7
2243.55385	2677.9
2246.45456	2671.7
2249.35343	2689.7
2252.25044	2681.5
2255.14561	2705.3
2258.03893	2706.1
2260.93041	2713.8
2263.82004	2720.5
2266.70783	2715.3
2269.59378	2703.1
2272.4779	2683.8
2275.36017	2690.6
2278.24061	2671.5
2281.11922	2653.9
2283.996	2647.4
2286.87094	2626.1
2289.74405	2630.8
2292.61534	2631.1
2295.4848	2612.5
2298.35243	2598.6
2301.21824	2599.8
2304.08223	2586.3
2306.94439	2573.6
2309.80474	2588.2
2312.66327	2594.7
2315.51999	2572
2318.37489	2568.4
2321.22797	2552.5
2324.07925	2552.4
2326.92871	2544.1
2329.77637	2535.7
2332.62222	2525.7
2335.46626	2511.6
2338.3085	2520.8
2341.14893	2527.9
2343.98756	2539.5
2346.8244	2517.9
2349.65943	2503
2352.49267	2524.2
2355.32411	2534.6
2358.15376	2528.2
2360.98161	2542
2363.80768	2534.2
2366.63195	2564.6
2369.45444	2557.1
2372.27514	2567.9
2375.09405	2575.7
2377.91118	2537.3
2380.72652	2528.7
2383.54009	2526.6
2386.35187	2521.5
2389.16188	2496.9
2391.97011	2495
2394.77657	2475
2397.58125	2474.2
2400.38416	2466.3
2403.18529	2437.4
2405.98466	2418.4
2408.78226	2427.1
2411.57809	2417.1
2414.37216	2411.5
2417.16446	2411.2
2419.955	2391.3
2422.74378	2417.8
2425.5308	2404.6
2428.31606	2411
2431.09956	2417.1
2433.88131	2392.9
2436.6613	2418.2
2439.43954	2415.6
2442.21603	2399.9
2444.99077	2397.9
2447.76377	2421.4
2450.53501	2423.3
2453.30451	2412.4
2456.07226	2417.6
2458.83827	2396.5
2461.60254	2367.9
2464.36507	2408.7
2467.12586	2389
2469.88492	2390.4
2472.64224	2392.5
2475.39782	2369.9
2478.15167	2402.3
2480.90379	2388.7
2483.65417	2414.7
2486.40283	2435
2489.14976	2442
2491.89497	2430.6
2494.63845	2430.6
2497.3802	2418.3
2500.12024	2404.5
2502.85855	2394.5
2505.59514	2380.3
2508.33002	2360.9
2511.06318	2340.5
2513.79462	2326.4
2516.52435	2283.4
2519.25237	2253.3
2521.97867	2250.9
2524.70327	2246
2527.42616	2261.1
2530.14734	2262.2
2532.86681	2237.1
2535.58458	2228
2538.30065	2226.1
2541.01501	2262
2543.72768	2236.6
2546.43864	2242.9
2549.14791	2238.5
2551.85548	2238.2
2554.56136	2224.8
2557.26554	2233.9
2559.96803	2240.6
2562.66883	2233.1
2565.36794	2220.2
2568.06536	2203.1
2570.7611	2220.9
2573.45514	2217.6
2576.14751	2203.7
2578.83819	2188.9
2581.52719	2159.8
2584.21451	2182.1
2586.90015	2155.6
2589.58411	2145.1
2592.2664	2156.9
2594.94701	2159.6
2597.62594	2164
2600.30321	2087.7
2602.9788	2114.9
2605.65273	2117.4
2608.32498	2111.8
2610.99557	2151.7
2613.66449	2108.3
2616.33175	2127.3
2618.99734	2130.6
2621.66128	2120
2624.32355	2116.3
2626.98416	2092.7
2629.64311	2081.4
2632.30041	2080.9
2634.95605	2060.7
2637.61004	2046.7
2640.26238	2027.9
2642.91306	2023.4
2645.56209	2049.9
2648.20948	2036.6
2650.85521	2014.8
2653.4993	2039.3
2656.14175	2036.9
2658.78255	2029.2
2661.42171	1997.4
2664.05923	2048.3
2666.6951	2060
2669.32934	2060.3
2671.96194	2076.3
2674.59291	2052.4
2677.22224	2064.4
2679.84993	2059.7
2682.476	2045.1
2685.10043	2037.2
2687.72324	2031.5
2690.34441	2034.1
2692.96396	2024.2
2695.58188	2041.6
2698.19818	2022
2700.81285	2020.6
2703.4259	2004.9
2706.03733	1979.5
2708.64714	1983.1
2711.25533	2019.7
2713.86191	2017.9
2716.46687	2020.1
2719.07021	2012
2721.67194	2018.1
2724.27206	2036.8
2726.87057	2003.5
2729.46747	1995.9
2732.06276	2008.9
2734.65644	1983.9
2737.24852	1985.3
2739.83899	1970.2
2742.42786	1981.2
2745.01513	1986.6
2747.60079	1956.4
2750.18486	1942.7
2752.76733	1929.4
2755.3482	1927.5
2757.92747	1948.1
2760.50515	1918.1
2763.08123	1904.1
2765.65573	1907.1
2768.22863	1903.8
2770.79994	1890.6
2773.36967	1884.5
2775.9378	1895.8
2778.50435	1880
2781.06932	1880.7
2783.6327	1872.3
2786.1945	1886.9
2788.75471	1875.4
2791.31335	1880.4
2793.87041	1873.4
2796.42589	1866.2
2798.97979	1853.1
2801.53212	1875.1
2804.08288	1882.9
2806.63206	1875.1
2809.17967	1863.7
2811.72571	1880.1
2814.27018	1884.5
2816.81308	1877.2
2819.35442	1853
2821.89419	1894
2824.43239	1875.1
2826.96904	1907.1
2829.50412	1881.8
2832.03763	1878.6
2834.56959	1884.7
2837.1	1864.1
2839.62884	1865.3
2842.15613	1860.1
2844.68186	1857.3
2847.20604	1843.8
2849.72867	1843
2852.24974	1850
2854.76927	1825.4
2857.28724	1794.6
2859.80367	1853.9
2862.31855	1880.5
2864.83189	1862.2
2867.34368	1871.3
2869.85393	1893.4
2872.36264	1875.1
2874.8698	1882.4
2877.37543	1879.7
2879.87952	1865.5
2882.38207	1841.7
2884.88308	1853.9
2887.38256	1838
2889.88051	1819.8
2892.37692	1823.1
2894.8718	1800.4
2897.36515	1818.4
2899.85698	1811.6
2902.34727	1814.1
2904.83604	1820.3
2907.32328	1839.5
2909.809	1856.9
2912.29319	1856.8
2914.77587	1859.5
2917.25702	1875
2919.73665	1862.8
2922.21476	1857.8
2924.69136	1847.6
2927.16644	1819.5
2929.64	1818.4
2932.11205	1788.6
2934.58258	1790.2
2937.05161	1780.9
2939.51912	1769
2941.98513	1800.5
2944.44962	1787.6
2946.91261	1750.8
2949.37409	1765.9
2951.83407	1763.3
2954.29254	1767.5
2956.74951	1776
2959.20498	1761.6
2961.65895	1770.9
2964.11142	1762.4
2966.56239	1748.8
2969.01186	1763.9
2971.45984	1739.2
2973.90632	1747.5
2976.35131	1758.9
2978.7948	1755.8
2981.23681	1736.4
2983.67732	1754.4
2986.11635	1753.2
2988.55388	1728.4
2990.98993	1742.4
2993.4245	1731.6
2995.85758	1718.7
2998.28917	1726.8
3000.71928	1716.3
3003.14791	1713.7
3005.57506	1702.9
3008.00073	1705.6
3010.42493	1634.9
3012.84764	1691
3015.26888	1694.3
3017.68865	1691.1
3020.10694	1643.1
3022.52376	1659.1
3024.9391	1664
3027.35298	1655.6
3029.76539	1625.8
3032.17632	1624.2
3034.5858	1618.4
3036.9938	1613
3039.40034	1600
3041.80542	1591
3044.20903	1578.1
3046.61118	1568.5
3049.01187	1574.4
3051.4111	1562.1
3053.80888	1551.5
3056.20519	1554.5
3058.60005	1538.8
3060.99345	1560.4
3063.3854	1533.1
3065.7759	1535.2
3068.16494	1523.9
3070.55254	1516.4
3072.93868	1528.3
3075.32338	1519.9
3077.70662	1507
3080.08842	1499.7
3082.46878	1487.1
3084.84769	1512.4
3087.22515	1488
3089.60118	1505.2
3091.97576	1483.5
3094.3489	1495
3096.72061	1482.3
3099.09087	1471.9
3101.4597	1483.6
3103.82709	1478.5
3106.19305	1464.9
3108.55757	1477.4
3110.92066	1465.6
3113.28232	1479.7
3115.64255	1473.2
3118.00134	1467.5
3120.35871	1467
3122.71466	1441.4
3125.06917	1450.2
3127.42226	1450
3129.77393	1429
3132.12417	1438.6
3134.47299	1444
3136.82039	1428.8
3139.16636	1413.3
3141.51092	1434.7
3143.85406	1441.2
3146.19579	1421.9
3148.53609	1430.2
3150.87499	1431.6
3153.21246	1428.2
3155.54853	1433.2
3157.88318	1436.4
3160.21642	1438.6
3162.54826	1433.6
3164.87868	1434
3167.2077	1396.6
3169.5353	1417.9
3171.86151	1418.5
3174.18631	1406.4
3176.5097	1400.3
3178.83169	1401.2
3181.15228	1399.6
3183.47147	1377.5
3185.78926	1360.2
3188.10565	1375.1
3190.42065	1349.3
3192.73424	1366.1
3195.04645	1358.1
3197.35725	1344.9
3199.66667	1365.7
3201.97469	1353.7
3204.28132	1344.7
3206.58656	1368.1
3208.8904	1369.4
3211.19287	1360.5
3213.49394	1351.6
3215.79363	1349.7
3218.09193	1371.6
3220.38884	1355
3222.68438	1352.9
3224.97853	1342.5
3227.2713	1367.3
3229.56269	1345.9
3231.8527	1344.8
3234.14133	1330.2
3236.42858	1328
3238.71446	1302.1
3240.99896	1334.5
3243.28209	1321.4
3245.56384	1323.9
3247.84423	1303.6
3250.12324	1310.2
3252.40088	1319
3254.67715	1296.4
3256.95205	1287.5
3259.22558	1303.3
3261.49775	1307.8
3263.76855	1300.2
3266.03799	1303.9
3268.30606	1302.3
3270.57277	1306.3
3272.83812	1286.9
3275.10211	1297.2
3277.36474	1314.3
3279.62601	1308.5
3281.88593	1287.8
3284.14448	1273.8
3286.40168	1300.2
3288.65753	1287
3290.91202	1298.8
3293.16516	1279.4
3295.41695	1318.3
3297.66738	1314.5
3299.91647	1300.3
3302.16421	1306.8
3304.4106	1278.9
3306.65564	1283.1
3308.89933	1265
3311.14169	1263.9
3313.38269	1269.5
3315.62236	1253.8
3317.86068	1245.7
3320.09766	1245.6
3322.3333	1220.1
3324.5676	1223.5
3326.80056	1201.8
3329.03219	1210.3
3331.26248	-1.1
3333.49143	-0
3335.71905	0.8
