Data from AgNPs_UA_20uM_CRN_500uM_SU_RamanShift__44__13-43-50-299.txt Node

Date: Thu Aug 04 13:43:50 BST 2022
User: TCL
Spectrometer: QEP01345
Trigger mode: 4
Integration Time (sec): 1.000000E0
Scans to average: 10
Electric dark correction enabled: true
Nonlinearity correction enabled: false
Boxcar width: 0
XAxis mode: Raman Shifts
Number of Pixels in Spectrum: 1044
>>>>>Begin Spectral Data<<<<<
46.04893	-2.1625
50.45542	0.8375
54.85868	0.7375
59.25871	1.2375
63.6555	17.4375
68.04907	16.7375
72.43941	19.9375
76.82654	19.0375
81.21044	18.8375
85.59113	20.4375
89.96862	20.8375
94.34289	23.0375
98.71396	23.2375
103.08183	25.8375
107.4465	22.9375
111.80798	25.9375
116.16626	29.1375
120.52136	30.0375
124.87327	29.8375
129.222	32.7375
133.56755	32.4375
137.90993	36.8375
142.24913	41.6375
146.58517	47.4375
150.91804	52.9375
155.24774	65.1375
159.57429	83.2375
163.89768	108.0375
168.21792	144.0375
172.53501	202.5375
176.84895	282.0375
181.15975	398.8375
185.46741	565.1375
189.77193	778.8375
194.07331	1047.3375
198.37157	1356.3375
202.6667	1672.2375
206.9587	1987.7375
211.24758	2311.2375
215.53334	2635.1375
219.81599	2990.8375
224.09553	3375.1375
228.37195	3798.4375
232.64527	4249.7375
236.91549	4702.1375
241.18261	5142.8375
245.44663	5491.8375
249.70755	5761.1375
253.96539	6016.4375
258.22014	6246.5375
262.4718	6419.5375
266.72039	6547.5375
270.96589	6599.2375
275.20832	6581.8375
279.44768	6488.2375
283.68397	6382.7375
287.91719	6299.6375
292.14735	6304.2375
296.37445	6388.0375
300.59849	6532.6375
304.81948	6750.6375
309.03742	6952.5375
313.25231	7029.5375
317.46415	6950.1375
321.67296	6741.7375
325.87872	6523.2375
330.08145	6369.0375
334.28114	6383.5375
338.47781	6471.0375
342.67145	6575.5375
346.86207	6762.1375
351.04966	6991.2375
355.23424	7241.5375
359.4158	7438.3375
363.59435	7538.8375
367.76989	7585.4375
371.94243	7582.8375
376.11196	7607.9375
380.27849	7630.7375
384.44203	7609.2375
388.60257	7651.4375
392.76012	7730.6375
396.91468	7817.3375
401.06626	7936.4375
405.21485	7972.8375
409.36047	7869.3375
413.50311	7672.3375
417.64277	7470.2375
421.77947	7343.0375
425.9132	7291.7375
430.04396	7277.1375
434.17176	7312.6375
438.2966	7390.6375
442.41849	7543.7375
446.53742	7691.8375
450.6534	7861.4375
454.76644	8004.0375
458.87653	7997.5375
462.98368	8008.6375
467.08789	7951.9375
471.18916	7832.5375
475.2875	7674.0375
479.38291	7525.7375
483.4754	7450.3375
487.56496	7415.6375
491.6516	7355.3375
495.73531	7365.2375
499.81612	7365.7375
503.89401	7445.2375
507.96899	7491.5375
512.04106	7524.2375
516.11023	7584.2375
520.1765	7616.8375
524.23987	7630.4375
528.30034	7598.3375
532.35792	7582.5375
536.41261	7546.0375
540.46441	7465.4375
544.51333	7424.5375
548.55936	7480.3375
552.60252	7593.9375
556.64279	7701.8375
560.6802	7787.6375
564.71473	7876.8375
568.7464	7956.0375
572.7752	7903.8375
576.80114	7740.7375
580.82422	7592.1375
584.84444	7560.9375
588.86181	7566.3375
592.87633	7657.3375
596.888	7798.8375
600.89682	8152.0375
604.9028	8982.9375
608.90594	10724.0375
612.90624	12400.6375
616.90371	11452.4375
620.89834	9100.4375
624.89015	8138.7375
628.87913	8091.8375
632.86528	8196.8375
636.84862	8224.4375
640.82913	8052.9375
644.80683	7749.5375
648.78172	7585.4375
652.75379	7615.6375
656.72306	7845.1375
660.68952	8089.4375
664.65319	8049.9375
668.61405	7915.6375
672.57211	7964.4375
676.52738	7956.1375
680.47986	7792.1375
684.42955	7674.7375
688.37646	7655.1375
692.32058	7710.7375
696.26192	7859.6375
700.20048	7969.9375
704.13626	8012.1375
708.06928	7927.2375
711.99952	7829.3375
715.927	7837.3375
719.85171	7874.4375
723.77365	7884.2375
727.69284	7809.6375
731.60928	7767.0375
735.52295	7746.5375
739.43388	7783.1375
743.34206	7821.4375
747.24749	7856.4375
751.15017	7880.3375
755.05012	7940.4375
758.94733	8179.6375
762.8418	8795.4375
766.73354	9691.6375
770.62254	10465.4375
774.50882	10630.6375
778.39237	10295.2375
782.27321	9621.9375
786.15132	8852.7375
790.02671	8333.8375
793.89938	8064.9375
797.76935	7934.2375
801.6366	7867.7375
805.50115	7802.8375
809.36299	7786.9375
813.22213	7792.2375
817.07857	7773.4375
820.93231	7791.1375
824.78336	7808.8375
828.63172	7825.1375
832.47738	7826.6375
836.32036	7812.5375
840.16066	7794.4375
843.99827	7813.9375
847.8332	7812.7375
851.66546	7830.6375
855.49504	7828.3375
859.32195	7846.6375
863.1462	7840.7375
866.96777	7838.0375
870.78668	7812.2375
874.60293	7838.4375
878.41652	7884.4375
882.22745	7925.3375
886.03573	7944.9375
889.84136	7949.4375
893.64433	7905.5375
897.44466	7901.4375
901.24235	7892.5375
905.0374	7873.0375
908.8298	7837.8375
912.61957	7810.7375
916.40671	7823.2375
920.19121	7851.4375
923.97308	7923.5375
927.75233	8014.1375
931.52895	8061.5375
935.30295	8007.9375
939.07433	7905.5375
942.84309	7779.1375
946.60924	7743.8375
950.37278	7738.7375
954.13371	7712.6375
957.89203	7709.7375
961.64774	7699.3375
965.40086	7682.7375
969.15137	7675.0375
972.89929	7685.4375
976.64461	7672.4375
980.38733	7702.0375
984.12747	7705.4375
987.86502	7746.3375
991.59999	7799.9375
995.33237	7912.8375
999.06217	8017.2375
1002.78939	8165.3375
1006.51404	8284.7375
1010.23611	8378.6375
1013.95561	8435.1375
1017.67255	8487.2375
1021.38692	8474.2375
1025.09872	8433.8375
1028.80796	8427.6375
1032.51465	8471.3375
1036.21877	8553.4375
1039.92035	8561.8375
1043.61937	8534.7375
1047.31584	8473.4375
1051.00976	8444.4375
1054.70114	8384.7375
1058.38998	8399.5375
1062.07627	8456.6375
1065.76003	8502.6375
1069.44126	8585.9375
1073.11995	8707.8375
1076.79611	8836.7375
1080.46974	8939.9375
1084.14085	9044.2375
1087.80943	9142.2375
1091.47549	9151.8375
1095.13903	9137.4375
1098.80005	9062.0375
1102.45857	9065.6375
1106.11456	9025.9375
1109.76805	8960.0375
1113.41903	8956.6375
1117.06751	9056.0375
1120.71348	9188.3375
1124.35696	9385.9375
1127.99793	9490.0375
1131.63641	9342.9375
1135.2724	9116.7375
1138.90589	8888.2375
1142.5369	8764.9375
1146.16542	8683.5375
1149.79145	8612.6375
1153.415	8546.5375
1157.03607	8538.3375
1160.65467	8622.1375
1164.27079	8780.0375
1167.88443	9006.3375
1171.49561	9397.1375
1175.10432	9994.9375
1178.71056	10768.5375
1182.31434	11483.7375
1185.91565	11772.7375
1189.51451	11719.1375
1193.11091	11488.2375
1196.70485	11181.4375
1200.29634	10859.9375
1203.88538	10493.5375
1207.47197	10121.0375
1211.05612	9742.2375
1214.63782	9490.4375
1218.21708	9297.1375
1221.79391	9193.6375
1225.36829	9200.5375
1228.94024	9177.8375
1232.50976	9147.1375
1236.07685	9117.9375
1239.6415	9153.8375
1243.20374	9187.9375
1246.76355	9252.3375
1250.32093	9357.1375
1253.8759	9537.2375
1257.42845	9745.9375
1260.97859	10008.9375
1264.52631	10262.1375
1268.07163	10407.5375
1271.61453	10551.0375
1275.15503	10617.5375
1278.69312	10654.2375
1282.22882	10714.3375
1285.76211	10816.7375
1289.29301	10971.8375
1292.82151	11177.9375
1296.34761	11423.4375
1299.87133	11754.1375
1303.39266	12410.8375
1306.9116	13291.5375
1310.42815	14188.5375
1313.94233	14517.2375
1317.45412	14129.0375
1320.96354	13375.8375
1324.47058	12665.9375
1327.97525	11998.9375
1331.47754	11670.5375
1334.97747	11642.8375
1338.47502	11819.4375
1341.97022	12232.6375
1345.46305	12821.3375
1348.95352	13581.8375
1352.44163	14423.0375
1355.92738	15304.2375
1359.41078	16353.5375
1362.89183	17098.9375
1366.37053	16341.9375
1369.84688	14308.1375
1373.32088	12412.0375
1376.79254	11329.7375
1380.26186	10798.9375
1383.72883	10515.3375
1387.19347	10245.4375
1390.65578	9958.2375
1394.11575	9689.6375
1397.57339	9499.7375
1401.0287	9415.2375
1404.48168	9427.0375
1407.93234	9487.2375
1411.38068	9621.7375
1414.82669	9788.0375
1418.27039	9815.5375
1421.71177	9785.3375
1425.15083	9724.5375
1428.58758	9687.4375
1432.02203	9779.1375
1435.45416	9843.4375
1438.88399	9862.5375
1442.31151	9818.9375
1445.73673	9778.2375
1449.15965	9769.5375
1452.58027	9721.8375
1455.9986	9604.9375
1459.41463	9589.2375
1462.82837	9666.4375
1466.23982	9817.7375
1469.64898	9986.2375
1473.05586	10128.1375
1476.46045	10262.1375
1479.86276	10338.3375
1483.26279	10478.5375
1486.66054	10654.2375
1490.05602	10962.8375
1493.44922	11391.9375
1496.84016	12056.9375
1500.22882	12984.3375
1503.61521	14152.2375
1506.99934	15232.6375
1510.38121	15812.6375
1513.76081	15528.3375
1517.13816	14484.8375
1520.51324	13106.0375
1523.88607	11987.4375
1527.25665	11298.6375
1530.62498	10940.8375
1533.99105	10734.1375
1537.35488	10628.7375
1540.71647	10544.5375
1544.07581	10450.6375
1547.4329	10360.2375
1550.78776	10274.6375
1554.14038	10183.6375
1557.49077	10205.2375
1560.83892	10286.2375
1564.18484	10466.3375
1567.52853	10681.7375
1570.86999	10828.2375
1574.20922	10895.8375
1577.54624	10716.8375
1580.88103	10341.8375
1584.2136	9916.6375
1587.54395	9721.8375
1590.87208	9840.4375
1594.19801	10209.2375
1597.52172	10696.8375
1600.84321	10953.5375
1604.16251	10893.6375
1607.47959	10614.8375
1610.79447	10211.4375
1614.10715	9675.5375
1617.41763	9229.9375
1620.7259	8904.1375
1624.03199	8718.1375
1627.33587	8688.2375
1630.63757	8805.6375
1633.93707	9134.9375
1637.23439	9654.9375
1640.52951	10475.9375
1643.82246	11497.2375
1647.11321	12409.9375
1650.40179	12736.0375
1653.68819	12036.6375
1656.97241	10759.5375
1660.25446	9523.8375
1663.53433	8669.6375
1666.81203	8197.2375
1670.08756	7912.0375
1673.36092	7732.4375
1676.63211	7605.4375
1679.90115	7511.5375
1683.16801	7443.9375
1686.43272	7387.5375
1689.69527	7339.2375
1692.95567	7313.1375
1696.2139	7302.2375
1699.46999	7279.5375
1702.72392	7251.0375
1705.97571	7274.4375
1709.22535	7276.6375
1712.47284	7288.8375
1715.71819	7262.8375
1718.96139	7234.4375
1722.20246	7219.0375
1725.44139	7203.9375
1728.67818	7160.1375
1731.91284	7126.4375
1735.14537	7087.0375
1738.37576	7077.4375
1741.60403	7065.8375
1744.83017	7043.3375
1748.05418	7030.7375
1751.27607	7011.4375
1754.49584	6988.6375
1757.71349	6963.7375
1760.92903	6949.4375
1764.14244	6963.3375
1767.35375	6921.8375
1770.56294	6932.7375
1773.77002	6928.0375
1776.97499	6913.3375
1780.17785	6897.0375
1783.37861	6865.0375
1786.57727	6843.9375
1789.77382	6855.4375
1792.96828	6837.5375
1796.16064	6820.3375
1799.3509	6805.8375
1802.53907	6806.0375
1805.72514	6804.9375
1808.90913	6770.7375
1812.09102	6766.6375
1815.27083	6746.9375
1818.44856	6729.6375
1821.6242	6718.1375
1824.79776	6722.4375
1827.96924	6714.2375
1831.13864	6697.7375
1834.30597	6674.0375
1837.47122	6662.2375
1840.6344	6622.6375
1843.7955	6642.5375
1846.95454	6639.9375
1850.11151	6634.1375
1853.26642	6636.3375
1856.41926	6635.1375
1859.57004	6602.7375
1862.71876	6622.1375
1865.86542	6598.4375
1869.01003	6598.8375
1872.15258	6596.1375
1875.29308	6589.3375
1878.43152	6589.0375
1881.56792	6587.4375
1884.70227	6553.5375
1887.83457	6556.9375
1890.96482	6559.4375
1894.09304	6531.7375
1897.21921	6524.6375
1900.34335	6508.8375
1903.46544	6506.6375
1906.58551	6516.6375
1909.70353	6496.7375
1912.81953	6483.0375
1915.93349	6480.7375
1919.04543	6468.3375
1922.15534	6443.0375
1925.26322	6438.6375
1928.36908	6423.8375
1931.47292	6420.1375
1934.57473	6405.8375
1937.67453	6393.1375
1940.77232	6403.1375
1943.86808	6352.9375
1946.96184	6332.2375
1950.05358	6334.1375
1953.14331	6310.8375
1956.23103	6288.7375
1959.31675	6253.0375
1962.40046	6238.7375
1965.48217	6212.2375
1968.56188	6194.0375
1971.63959	6184.3375
1974.7153	6185.4375
1977.78901	6152.5375
1980.86073	6139.6375
1983.93046	6109.7375
1986.99819	6090.6375
1990.06394	6073.1375
1993.1277	6056.4375
1996.18947	6034.4375
1999.24925	6039.1375
2002.30706	5982.3375
2005.36288	5984.7375
2008.41672	5957.4375
2011.46859	5936.1375
2014.51848	5932.3375
2017.56639	5915.2375
2020.61233	5892.8375
2023.6563	5879.8375
2026.6983	5860.8375
2029.73833	5852.1375
2032.7764	5822.2375
2035.8125	5815.3375
2038.84664	5796.4375
2041.87881	5806.5375
2044.90903	5782.8375
2047.93729	5765.4375
2050.96359	5782.8375
2053.98794	5767.1375
2057.01034	5752.8375
2060.03078	5740.9375
2063.04927	5712.1375
2066.06582	5731.3375
2069.08042	5706.5375
2072.09307	5710.2375
2075.10378	5695.2375
2078.11255	5717.2375
2081.11938	5689.0375
2084.12426	5698.8375
2087.12722	5690.5375
2090.12824	5692.6375
2093.12732	5688.4375
2096.12447	5700.8375
2099.11969	5680.8375
2102.11299	5685.7375
2105.10435	5697.0375
2108.09379	5686.8375
2111.08131	5684.6375
2114.0669	5681.1375
2117.05057	5691.9375
2120.03233	5693.2375
2123.01216	5681.5375
2125.99008	5685.2375
2128.96609	5715.0375
2131.94018	5724.1375
2134.91236	5707.9375
2137.88263	5717.0375
2140.851	5703.0375
2143.81746	5692.3375
2146.78201	5707.3375
2149.74466	5697.5375
2152.7054	5701.2375
2155.66425	5701.1375
2158.6212	5700.9375
2161.57625	5705.6375
2164.52941	5706.6375
2167.48067	5682.7375
2170.43004	5661.8375
2173.37752	5687.2375
2176.32311	5679.5375
2179.26681	5686.7375
2182.20863	5680.4375
2185.14856	5665.2375
2188.08661	5672.8375
2191.02278	5678.7375
2193.95707	5662.8375
2196.88948	5671.8375
2199.82001	5655.2375
2202.74867	5655.2375
2205.67545	5658.3375
2208.60037	5641.9375
2211.52341	5626.4375
2214.44458	5614.1375
2217.36388	5589.2375
2220.28132	5584.3375
2223.1969	5548.4375
2226.11061	5570.1375
2229.02246	5551.1375
2231.93245	5516.3375
2234.84058	5533.8375
2237.74686	5532.6375
2240.65128	5522.1375
2243.55385	5516.2375
2246.45456	5514.9375
2249.35343	5482.8375
2252.25044	5479.7375
2255.14561	5490.1375
2258.03893	5473.7375
2260.93041	5472.8375
2263.82004	5464.1375
2266.70783	5452.0375
2269.59378	5421.2375
2272.4779	5427.0375
2275.36017	5406.3375
2278.24061	5380.6375
2281.11922	5364.8375
2283.996	5363.7375
2286.87094	5342.2375
2289.74405	5343.7375
2292.61534	5329.2375
2295.4848	5320.4375
2298.35243	5334.0375
2301.21824	5306.3375
2304.08223	5314.7375
2306.94439	5336.8375
2309.80474	5316.4375
2312.66327	5292.0375
2315.51999	5295.1375
2318.37489	5294.0375
2321.22797	5297.6375
2324.07925	5279.1375
2326.92871	5268.1375
2329.77637	5255.9375
2332.62222	5248.4375
2335.46626	5228.1375
2338.3085	5238.3375
2341.14893	5225.2375
2343.98756	5235.1375
2346.8244	5240.3375
2349.65943	5246.5375
2352.49267	5209.9375
2355.32411	5232.7375
2358.15376	5216.5375
2360.98161	5210.1375
2363.80768	5221.7375
2366.63195	5200.4375
2369.45444	5197.0375
2372.27514	5188.2375
2375.09405	5176.1375
2377.91118	5181.0375
2380.72652	5179.0375
2383.54009	5157.1375
2386.35187	5150.8375
2389.16188	5142.5375
2391.97011	5106.0375
2394.77657	5109.0375
2397.58125	5104.0375
2400.38416	5085.7375
2403.18529	5088.8375
2405.98466	5086.3375
2408.78226	5054.0375
2411.57809	5048.8375
2414.37216	5029.1375
2417.16446	5040.8375
2419.955	5036.6375
2422.74378	5016.9375
2425.5308	5016.1375
2428.31606	4999.6375
2431.09956	5010.7375
2433.88131	5005.9375
2436.6613	4996.7375
2439.43954	4993.1375
2442.21603	4995.0375
2444.99077	4997.4375
2447.76377	4998.2375
2450.53501	4971.8375
2453.30451	4966.4375
2456.07226	4985.1375
2458.83827	4949.9375
2461.60254	4938.2375
2464.36507	4939.6375
2467.12586	4931.7375
2469.88492	4930.3375
2472.64224	4933.7375
2475.39782	4935.5375
2478.15167	4935.7375
2480.90379	4920.6375
2483.65417	4914.1375
2486.40283	4928.6375
2489.14976	4929.4375
2491.89497	4915.2375
2494.63845	4914.2375
2497.3802	4926.0375
2500.12024	4910.0375
2502.85855	4884.7375
2505.59514	4866.0375
2508.33002	4867.1375
2511.06318	4866.9375
2513.79462	4847.4375
2516.52435	4836.7375
2519.25237	4836.7375
2521.97867	4838.2375
2524.70327	4831.1375
2527.42616	4819.4375
2530.14734	4811.7375
2532.86681	4813.9375
2535.58458	4804.2375
2538.30065	4797.2375
2541.01501	4782.7375
2543.72768	4788.2375
2546.43864	4795.0375
2549.14791	4795.0375
2551.85548	4785.4375
2554.56136	4767.8375
2557.26554	4777.8375
2559.96803	4746.3375
2562.66883	4733.8375
2565.36794	4735.2375
2568.06536	4718.1375
2570.7611	4700.0375
2573.45514	4709.6375
2576.14751	4700.7375
2578.83819	4686.3375
2581.52719	4679.2375
2584.21451	4677.8375
2586.90015	4656.1375
2589.58411	4638.8375
2592.2664	4645.4375
2594.94701	4644.5375
2597.62594	4637.4375
2600.30321	4641.4375
2602.9788	4633.3375
2605.65273	4607.5375
2608.32498	4614.0375
2610.99557	4610.2375
2613.66449	4601.0375
2616.33175	4592.7375
2618.99734	4592.3375
2621.66128	4583.0375
2624.32355	4576.4375
2626.98416	4585.4375
2629.64311	4570.1375
2632.30041	4570.2375
2634.95605	4553.2375
2637.61004	4547.6375
2640.26238	4542.2375
2642.91306	4540.4375
2645.56209	4518.2375
2648.20948	4521.1375
2650.85521	4520.9375
2653.4993	4516.2375
2656.14175	4512.3375
2658.78255	4513.8375
2661.42171	4501.6375
2664.05923	4533.6375
2666.6951	4518.0375
2669.32934	4536.8375
2671.96194	4524.0375
2674.59291	4528.6375
2677.22224	4504.9375
2679.84993	4514.7375
2682.476	4509.8375
2685.10043	4517.4375
2687.72324	4501.1375
2690.34441	4505.1375
2692.96396	4495.9375
2695.58188	4488.6375
2698.19818	4492.3375
2700.81285	4504.1375
2703.4259	4481.1375
2706.03733	4491.4375
2708.64714	4482.6375
2711.25533	4453.3375
2713.86191	4475.5375
2716.46687	4474.4375
2719.07021	4475.0375
2721.67194	4501.7375
2724.27206	4484.5375
2726.87057	4498.1375
2729.46747	4498.5375
2732.06276	4476.1375
2734.65644	4470.4375
2737.24852	4466.8375
2739.83899	4456.0375
2742.42786	4460.1375
2745.01513	4457.0375
2747.60079	4446.3375
2750.18486	4441.7375
2752.76733	4441.3375
2755.3482	4429.4375
2757.92747	4421.3375
2760.50515	4396.1375
2763.08123	4408.0375
2765.65573	4384.0375
2768.22863	4367.2375
2770.79994	4381.5375
2773.36967	4377.9375
2775.9378	4385.7375
2778.50435	4385.9375
2781.06932	4366.7375
2783.6327	4361.3375
2786.1945	4359.3375
2788.75471	4340.3375
2791.31335	4336.1375
2793.87041	4326.2375
2796.42589	4318.4375
2798.97979	4320.5375
2801.53212	4287.1375
2804.08288	4300.3375
2806.63206	4291.4375
2809.17967	4295.9375
2811.72571	4277.4375
2814.27018	4272.2375
2816.81308	4255.1375
2819.35442	4255.6375
2821.89419	4238.2375
2824.43239	4226.1375
2826.96904	4222.6375
2829.50412	4221.8375
2832.03763	4208.6375
2834.56959	4203.4375
2837.1	4200.1375
2839.62884	4201.2375
2842.15613	4185.9375
2844.68186	4186.6375
2847.20604	4176.5375
2849.72867	4186.5375
2852.24974	4161.2375
2854.76927	4141.3375
2857.28724	4139.3375
2859.80367	4126.0375
2862.31855	4123.6375
2864.83189	4125.8375
2867.34368	4126.4375
2869.85393	4127.1375
2872.36264	4127.5375
2874.8698	4102.2375
2877.37543	4099.5375
2879.87952	4101.2375
2882.38207	4074.5375
2884.88308	4081.0375
2887.38256	4088.7375
2889.88051	4078.3375
2892.37692	4073.8375
2894.8718	4079.7375
2897.36515	4071.1375
2899.85698	4069.3375
2902.34727	4091.3375
2904.83604	4076.6375
2907.32328	4074.7375
2909.809	4087.9375
2912.29319	4084.9375
2914.77587	4087.8375
2917.25702	4091.1375
2919.73665	4084.2375
2922.21476	4090.6375
2924.69136	4076.1375
2927.16644	4077.3375
2929.64	4063.4375
2932.11205	4063.9375
2934.58258	4035.9375
2937.05161	4029.6375
2939.51912	4046.4375
2941.98513	4027.3375
2944.44962	4026.1375
2946.91261	4009.4375
2949.37409	4021.6375
2951.83407	4034.2375
2954.29254	4011.1375
2956.74951	4004.1375
2959.20498	4008.2375
2961.65895	4003.3375
2964.11142	3997.5375
2966.56239	3992.2375
2969.01186	3997.8375
2971.45984	3990.7375
2973.90632	3988.6375
2976.35131	3989.7375
2978.7948	3977.8375
2981.23681	3961.2375
2983.67732	3952.9375
2986.11635	3953.8375
2988.55388	3941.5375
2990.98993	3929.5375
2993.4245	3925.5375
2995.85758	3911.1375
2998.28917	3912.5375
3000.71928	3901.9375
3003.14791	3885.2375
3005.57506	3879.4375
3008.00073	3867.4375
3010.42493	3852.4375
3012.84764	3838.4375
3015.26888	3829.7375
3017.68865	3824.2375
3020.10694	3830.0375
3022.52376	3831.5375
3024.9391	3812.0375
3027.35298	3795.1375
3029.76539	3782.4375
3032.17632	3777.2375
3034.5858	3787.1375
3036.9938	3765.8375
3039.40034	3758.0375
3041.80542	3748.9375
3044.20903	3740.4375
3046.61118	3740.3375
3049.01187	3720.0375
3051.4111	3721.5375
3053.80888	3708.5375
3056.20519	3706.1375
3058.60005	3684.1375
3060.99345	3689.5375
3063.3854	3680.7375
3065.7759	3674.7375
3068.16494	3666.7375
3070.55254	3656.4375
3072.93868	3649.4375
3075.32338	3638.7375
3077.70662	3619.2375
3080.08842	3607.2375
3082.46878	3595.7375
3084.84769	3589.6375
3087.22515	3576.4375
3089.60118	3585.4375
3091.97576	3595.1375
3094.3489	3588.0375
3096.72061	3575.9375
3099.09087	3557.9375
3101.4597	3568.9375
3103.82709	3572.9375
3106.19305	3545.7375
3108.55757	3559.8375
3110.92066	3549.7375
3113.28232	3547.1375
3115.64255	3517.4375
3118.00134	3509.9375
3120.35871	3508.3375
3122.71466	3506.9375
3125.06917	3528.3375
3127.42226	3493.8375
3129.77393	3487.6375
3132.12417	3491.5375
3134.47299	3474.6375
3136.82039	3462.6375
3139.16636	3458.4375
3141.51092	3451.1375
3143.85406	3465.0375
3146.19579	3469.3375
3148.53609	3454.3375
3150.87499	3455.3375
3153.21246	3442.0375
3155.54853	3454.8375
3157.88318	3445.6375
3160.21642	3465.6375
3162.54826	3440.6375
3164.87868	3443.8375
3167.2077	3436.3375
3169.5353	3431.6375
3171.86151	3430.1375
3174.18631	3422.5375
3176.5097	3416.0375
3178.83169	3407.4375
3181.15228	3403.0375
3183.47147	3394.4375
3185.78926	3399.8375
3188.10565	3383.5375
3190.42065	3359.7375
3192.73424	3372.8375
3195.04645	3358.2375
3197.35725	3350.6375
3199.66667	3349.1375
3201.97469	3349.8375
3204.28132	3340.9375
3206.58656	3351.1375
3208.8904	3348.9375
3211.19287	3353.0375
3213.49394	3373.0375
3215.79363	3364.4375
3218.09193	3352.8375
3220.38884	3343.1375
3222.68438	3352.5375
3224.97853	3341.5375
3227.2713	3342.5375
3229.56269	3340.3375
3231.8527	3327.0375
3234.14133	3316.2375
3236.42858	3317.8375
3238.71446	3305.5375
3240.99896	3293.9375
3243.28209	3280.2375
3245.56384	3295.7375
3247.84423	3272.3375
3250.12324	3258.9375
3252.40088	3267.5375
3254.67715	3264.6375
3256.95205	3252.8375
3259.22558	3242.5375
3261.49775	3250.4375
3263.76855	3241.0375
3266.03799	3263.8375
3268.30606	3248.9375
3270.57277	3256.5375
3272.83812	3243.0375
3275.10211	3230.1375
3277.36474	3223.6375
3279.62601	3212.4375
3281.88593	3191.5375
3284.14448	3206.9375
3286.40168	3206.1375
3288.65753	3205.6375
3290.91202	3194.5375
3293.16516	3182.0375
3295.41695	3173.2375
3297.66738	3146.4375
3299.91647	3142.7375
3302.16421	3136.8375
3304.4106	3122.1375
3306.65564	3088.1375
3308.89933	3072.6375
3311.14169	3037.6375
3313.38269	3013.0375
3315.62236	2999.1375
3317.86068	2968.9375
3320.09766	2946.3375
3322.3333	2905.0375
3324.5676	2890.1375
3326.80056	2859.9375
3329.03219	2833.3375
3331.26248	1.7375
3333.49143	-1.4625
3335.71905	-0.8625
