Data from AgNPs_UA_5uM_CRN_500uM_SU_RamanShift__262__12-13-03-192.txt Node

Date: Thu Aug 04 12:13:03 BST 2022
User: TCL
Spectrometer: QEP01345
Trigger mode: 4
Integration Time (sec): 1.000000E0
Scans to average: 10
Electric dark correction enabled: true
Nonlinearity correction enabled: false
Boxcar width: 0
XAxis mode: Raman Shifts
Number of Pixels in Spectrum: 1044
>>>>>Begin Spectral Data<<<<<
46.04893	-0.8125
50.45542	0.9875
54.85868	0.2875
59.25871	-1.7125
63.6555	-58.2125
68.04907	-41.8125
72.43941	-72.0125
76.82654	-58.6125
81.21044	-57.6125
85.59113	-50.8125
89.96862	-75.8125
94.34289	-56.8125
98.71396	-78.1125
103.08183	-60.7125
107.4465	-51.2125
111.80798	-56.6125
116.16626	-46.9125
120.52136	-74.8125
124.87327	-51.1125
129.222	-63.0125
133.56755	-49.9125
137.90993	-64.8125
142.24913	-54.3125
146.58517	-44.3125
150.91804	-44.0125
155.24774	-30.9125
159.57429	-11.2125
163.89768	-9.9125
168.21792	32.0875
172.53501	52.2875
176.84895	130.2875
181.15975	261.4875
185.46741	408.8875
189.77193	585.7875
194.07331	860.8875
198.37157	1140.7875
202.6667	1412.4875
206.9587	1734.0875
211.24758	2025.2875
215.53334	2339.9875
219.81599	2684.8875
224.09553	3091.4875
228.37195	3505.1875
232.64527	3952.6875
236.91549	4405.3875
241.18261	4746.8875
245.44663	5023.0875
249.70755	5193.4875
253.96539	5299.5875
258.22014	5397.7875
262.4718	5469.5875
266.72039	5511.7875
270.96589	5487.0875
275.20832	5392.6875
279.44768	5282.8875
283.68397	5199.8875
287.91719	5144.7875
292.14735	5159.1875
296.37445	5339.2875
300.59849	5626.9875
304.81948	5972.7875
309.03742	6337.5875
313.25231	6566.0875
317.46415	6517.6875
321.67296	6151.3875
325.87872	5750.2875
330.08145	5553.8875
334.28114	5501.3875
338.47781	5562.0875
342.67145	5698.6875
346.86207	5925.9875
351.04966	6279.8875
355.23424	6663.1875
359.4158	6894.2875
363.59435	6938.2875
367.76989	6874.4875
371.94243	6767.5875
376.11196	6637.9875
380.27849	6560.7875
384.44203	6485.5875
388.60257	6463.9875
392.76012	6466.1875
396.91468	6583.9875
401.06626	6734.5875
405.21485	6768.0875
409.36047	6599.0875
413.50311	6297.3875
417.64277	5997.5875
421.77947	5778.0875
425.9132	5725.0875
430.04396	5722.3875
434.17176	5767.4875
438.2966	5832.3875
442.41849	5926.9875
446.53742	6024.5875
450.6534	6139.9875
454.76644	6193.3875
458.87653	6220.3875
462.98368	6158.3875
467.08789	6092.1875
471.18916	5985.2875
475.2875	5884.2875
479.38291	5783.8875
483.4754	5685.8875
487.56496	5645.1875
491.6516	5602.2875
495.73531	5628.9875
499.81612	5655.8875
503.89401	5736.2875
507.96899	5788.3875
512.04106	5868.5875
516.11023	5986.0875
520.1765	6055.2875
524.23987	6085.5875
528.30034	6080.2875
532.35792	5973.0875
536.41261	5930.8875
540.46441	5841.7875
544.51333	5806.1875
548.55936	5840.3875
552.60252	5972.0875
556.64279	6068.0875
560.6802	6189.0875
564.71473	6303.4875
568.7464	6535.7875
572.7752	6488.0875
576.80114	6183.9875
580.82422	5983.9875
584.84444	5861.5875
588.86181	5849.7875
592.87633	5863.0875
596.888	6004.2875
600.89682	6355.4875
604.9028	7312.5875
608.90594	9389.3875
612.90624	11708.1875
616.90371	10840.2875
620.89834	7797.9875
624.89015	6464.7875
628.87913	6239.4875
632.86528	6412.5875
636.84862	6567.9875
640.82913	6451.4875
644.80683	6089.6875
648.78172	5903.4875
652.75379	5938.7875
656.72306	6174.6875
660.68952	6415.2875
664.65319	6318.5875
668.61405	6078.4875
672.57211	6009.7875
676.52738	6004.2875
680.47986	5904.8875
684.42955	5810.5875
688.37646	5775.8875
692.32058	5784.1875
696.26192	5829.7875
700.20048	5934.6875
704.13626	5998.1875
708.06928	5954.4875
711.99952	5890.9875
715.927	5873.3875
719.85171	5933.4875
723.77365	5971.1875
727.69284	5931.6875
731.60928	5923.1875
735.52295	5906.8875
739.43388	5947.3875
743.34206	5959.9875
747.24749	5972.8875
751.15017	6004.0875
755.05012	6065.9875
758.94733	6447.2875
762.8418	7290.6875
766.73354	8641.5875
770.62254	9672.6875
774.50882	9762.7875
778.39237	9211.0875
782.27321	8255.5875
786.15132	7208.6875
790.02671	6543.4875
793.89938	6178.9875
797.76935	6062.1875
801.6366	5945.4875
805.50115	5896.8875
809.36299	5878.7875
813.22213	5885.4875
817.07857	5892.0875
820.93231	5889.2875
824.78336	5886.5875
828.63172	5907.8875
832.47738	5909.8875
836.32036	5933.6875
840.16066	5891.0875
843.99827	5862.2875
847.8332	5860.8875
851.66546	5862.3875
855.49504	5885.1875
859.32195	5907.2875
863.1462	5887.2875
866.96777	5881.5875
870.78668	5870.2875
874.60293	5910.8875
878.41652	5914.1875
882.22745	6005.1875
886.03573	6018.6875
889.84136	6014.6875
893.64433	6035.4875
897.44466	5998.9875
901.24235	5998.2875
905.0374	6007.6875
908.8298	5941.9875
912.61957	5912.0875
916.40671	5868.4875
920.19121	5946.7875
923.97308	5999.0875
927.75233	6063.9875
931.52895	6123.1875
935.30295	6094.8875
939.07433	5943.7875
942.84309	5848.6875
946.60924	5793.9875
950.37278	5748.5875
954.13371	5753.3875
957.89203	5760.0875
961.64774	5764.7875
965.40086	5750.9875
969.15137	5724.0875
972.89929	5749.3875
976.64461	5747.0875
980.38733	5774.4875
984.12747	5749.7875
987.86502	5784.0875
991.59999	5817.2875
995.33237	5880.9875
999.06217	5944.2875
1002.78939	6021.5875
1006.51404	6146.4875
1010.23611	6240.1875
1013.95561	6303.7875
1017.67255	6302.6875
1021.38692	6269.9875
1025.09872	6218.7875
1028.80796	6142.6875
1032.51465	6148.0875
1036.21877	6108.1875
1039.92035	6172.6875
1043.61937	6204.0875
1047.31584	6248.8875
1051.00976	6279.5875
1054.70114	6311.9875
1058.38998	6289.2875
1062.07627	6295.5875
1065.76003	6329.2875
1069.44126	6407.1875
1073.11995	6493.4875
1076.79611	6615.6875
1080.46974	6769.6875
1084.14085	6925.2875
1087.80943	7051.9875
1091.47549	7090.8875
1095.13903	7007.0875
1098.80005	6877.2875
1102.45857	6790.6875
1106.11456	6748.5875
1109.76805	6698.3875
1113.41903	6810.7875
1117.06751	6990.6875
1120.71348	7254.6875
1124.35696	7631.6875
1127.99793	7906.3875
1131.63641	7754.7875
1135.2724	7338.8875
1138.90589	7054.0875
1142.5369	6867.1875
1146.16542	6746.9875
1149.79145	6621.1875
1153.415	6584.4875
1157.03607	6606.2875
1160.65467	6693.7875
1164.27079	6896.1875
1167.88443	7163.9875
1171.49561	7594.3875
1175.10432	8222.6875
1178.71056	9149.9875
1182.31434	9926.9875
1185.91565	10177.8875
1189.51451	10061.2875
1193.11091	9780.8875
1196.70485	9539.2875
1200.29634	9284.1875
1203.88538	8989.8875
1207.47197	8535.3875
1211.05612	8061.2875
1214.63782	7636.3875
1218.21708	7386.2875
1221.79391	7234.1875
1225.36829	7171.0875
1228.94024	7170.0875
1232.50976	7183.9875
1236.07685	7197.6875
1239.6415	7227.2875
1243.20374	7255.8875
1246.76355	7291.3875
1250.32093	7345.8875
1253.8759	7418.1875
1257.42845	7588.1875
1260.97859	7788.1875
1264.52631	8037.0875
1268.07163	8192.9875
1271.61453	8300.8875
1275.15503	8370.0875
1278.69312	8371.5875
1282.22882	8453.6875
1285.76211	8635.6875
1289.29301	8877.5875
1292.82151	9148.7875
1296.34761	9374.0875
1299.87133	9758.6875
1303.39266	10481.8875
1306.9116	11618.0875
1310.42815	12855.1875
1313.94233	13254.1875
1317.45412	12510.9875
1320.96354	11381.0875
1324.47058	10376.5875
1327.97525	9592.5875
1331.47754	9185.1875
1334.97747	9073.6875
1338.47502	9191.3875
1341.97022	9560.1875
1345.46305	10294.5875
1348.95352	11400.9875
1352.44163	12747.1875
1355.92738	14106.4875
1359.41078	15806.6875
1362.89183	17337.1875
1366.37053	16709.5875
1369.84688	13879.1875
1373.32088	11129.1875
1376.79254	9670.9875
1380.26186	8991.8875
1383.72883	8570.7875
1387.19347	8156.6875
1390.65578	7819.6875
1394.11575	7548.8875
1397.57339	7382.9875
1401.0287	7267.4875
1404.48168	7215.6875
1407.93234	7252.7875
1411.38068	7266.5875
1414.82669	7326.1875
1418.27039	7403.2875
1421.71177	7416.9875
1425.15083	7298.7875
1428.58758	7235.6875
1432.02203	7242.8875
1435.45416	7321.8875
1438.88399	7331.0875
1442.31151	7316.8875
1445.73673	7384.6875
1449.15965	7415.7875
1452.58027	7459.1875
1455.9986	7432.4875
1459.41463	7451.4875
1462.82837	7560.9875
1466.23982	7725.6875
1469.64898	7939.5875
1473.05586	8090.1875
1476.46045	8199.2875
1479.86276	8299.3875
1483.26279	8396.4875
1486.66054	8579.2875
1490.05602	8872.2875
1493.44922	9442.1875
1496.84016	10308.9875
1500.22882	11718.5875
1503.61521	13483.7875
1506.99934	15314.7875
1510.38121	16498.2875
1513.76081	16330.7875
1517.13816	14736.2875
1520.51324	12599.1875
1523.88607	10890.5875
1527.25665	9862.2875
1530.62498	9378.3875
1533.99105	9206.3875
1537.35488	9071.5875
1540.71647	8936.9875
1544.07581	8823.4875
1547.4329	8659.2875
1550.78776	8519.6875
1554.14038	8433.8875
1557.49077	8416.8875
1560.83892	8526.0875
1564.18484	8746.4875
1567.52853	9104.0875
1570.86999	9428.8875
1574.20922	9579.1875
1577.54624	9464.5875
1580.88103	8932.8875
1584.2136	8231.8875
1587.54395	7869.9875
1590.87208	7800.8875
1594.19801	7938.1875
1597.52172	8301.0875
1600.84321	8446.4875
1604.16251	8274.7875
1607.47959	8075.0875
1610.79447	7908.1875
1614.10715	7611.3875
1617.41763	7350.1875
1620.7259	7075.5875
1624.03199	6898.2875
1627.33587	6824.0875
1630.63757	6900.4875
1633.93707	7128.4875
1637.23439	7512.8875
1640.52951	8199.5875
1643.82246	9192.4875
1647.11321	10376.8875
1650.40179	11094.5875
1653.68819	10774.5875
1656.97241	9530.0875
1660.25446	8133.7875
1663.53433	7125.1875
1666.81203	6509.7875
1670.08756	6182.5875
1673.36092	5992.9875
1676.63211	5856.9875
1679.90115	5763.3875
1683.16801	5671.7875
1686.43272	5599.0875
1689.69527	5567.3875
1692.95567	5498.8875
1696.2139	5501.4875
1699.46999	5427.3875
1702.72392	5434.6875
1705.97571	5446.4875
1709.22535	5413.9875
1712.47284	5453.2875
1715.71819	5464.0875
1718.96139	5459.3875
1722.20246	5448.6875
1725.44139	5405.1875
1728.67818	5387.3875
1731.91284	5339.0875
1735.14537	5290.1875
1738.37576	5264.9875
1741.60403	5258.5875
1744.83017	5216.4875
1748.05418	5229.9875
1751.27607	5227.1875
1754.49584	5195.0875
1757.71349	5157.2875
1760.92903	5138.7875
1764.14244	5107.2875
1767.35375	5109.5875
1770.56294	5105.2875
1773.77002	5073.6875
1776.97499	5090.7875
1780.17785	5077.0875
1783.37861	5066.0875
1786.57727	5065.9875
1789.77382	5009.6875
1792.96828	5046.1875
1796.16064	5058.7875
1799.3509	5011.0875
1802.53907	5035.7875
1805.72514	5003.8875
1808.90913	4984.9875
1812.09102	4975.6875
1815.27083	4970.0875
1818.44856	4952.0875
1821.6242	4944.7875
1824.79776	4933.0875
1827.96924	4927.5875
1831.13864	4906.7875
1834.30597	4906.5875
1837.47122	4891.2875
1840.6344	4892.2875
1843.7955	4845.9875
1846.95454	4855.2875
1850.11151	4869.7875
1853.26642	4839.5875
1856.41926	4838.8875
1859.57004	4843.6875
1862.71876	4826.7875
1865.86542	4841.7875
1869.01003	4823.6875
1872.15258	4800.2875
1875.29308	4835.9875
1878.43152	4832.2875
1881.56792	4807.9875
1884.70227	4785.7875
1887.83457	4794.7875
1890.96482	4774.3875
1894.09304	4760.2875
1897.21921	4775.3875
1900.34335	4761.4875
1903.46544	4734.8875
1906.58551	4754.5875
1909.70353	4734.4875
1912.81953	4733.7875
1915.93349	4714.3875
1919.04543	4701.7875
1922.15534	4694.6875
1925.26322	4679.0875
1928.36908	4685.8875
1931.47292	4682.9875
1934.57473	4677.6875
1937.67453	4642.6875
1940.77232	4609.4875
1943.86808	4617.2875
1946.96184	4619.9875
1950.05358	4595.7875
1953.14331	4576.6875
1956.23103	4591.9875
1959.31675	4542.4875
1962.40046	4493.7875
1965.48217	4518.9875
1968.56188	4530.7875
1971.63959	4488.3875
1974.7153	4505.2875
1977.78901	4494.5875
1980.86073	4475.0875
1983.93046	4416.2875
1986.99819	4359.8875
1990.06394	4387.8875
1993.1277	4389.0875
1996.18947	4366.2875
1999.24925	4352.7875
2002.30706	4331.9875
2005.36288	4340.4875
2008.41672	4309.0875
2011.46859	4284.2875
2014.51848	4284.5875
2017.56639	4268.8875
2020.61233	4254.2875
2023.6563	4251.1875
2026.6983	4197.9875
2029.73833	4218.1875
2032.7764	4219.8875
2035.8125	4176.1875
2038.84664	4166.8875
2041.87881	4157.2875
2044.90903	4171.3875
2047.93729	4154.1875
2050.96359	4140.1875
2053.98794	4150.3875
2057.01034	4136.9875
2060.03078	4125.3875
2063.04927	4110.8875
2066.06582	4133.3875
2069.08042	4109.5875
2072.09307	4108.9875
2075.10378	4097.2875
2078.11255	4095.9875
2081.11938	4103.5875
2084.12426	4079.9875
2087.12722	4075.9875
2090.12824	4076.8875
2093.12732	4070.4875
2096.12447	4097.4875
2099.11969	4073.5875
2102.11299	4079.6875
2105.10435	4098.1875
2108.09379	4089.1875
2111.08131	4078.1875
2114.0669	4074.3875
2117.05057	4077.7875
2120.03233	4063.3875
2123.01216	4088.6875
2125.99008	4090.8875
2128.96609	4098.3875
2131.94018	4111.4875
2134.91236	4102.5875
2137.88263	4095.5875
2140.851	4086.5875
2143.81746	4120.9875
2146.78201	4103.3875
2149.74466	4078.0875
2152.7054	4105.0875
2155.66425	4084.7875
2158.6212	4079.9875
2161.57625	4050.4875
2164.52941	4027.5875
2167.48067	4042.0875
2170.43004	4046.0875
2173.37752	4060.7875
2176.32311	4051.1875
2179.26681	4049.3875
2182.20863	4061.6875
2185.14856	4045.8875
2188.08661	4052.7875
2191.02278	4061.7875
2193.95707	4039.2875
2196.88948	4015.9875
2199.82001	4017.2875
2202.74867	3999.8875
2205.67545	4020.9875
2208.60037	4020.7875
2211.52341	4001.8875
2214.44458	3998.5875
2217.36388	3992.7875
2220.28132	3976.7875
2223.1969	3942.8875
2226.11061	3970.6875
2229.02246	3940.1875
2231.93245	3937.7875
2234.84058	3917.1875
2237.74686	3914.8875
2240.65128	3914.2875
2243.55385	3908.2875
2246.45456	3884.5875
2249.35343	3895.7875
2252.25044	3873.1875
2255.14561	3883.3875
2258.03893	3889.1875
2260.93041	3881.4875
2263.82004	3865.2875
2266.70783	3866.1875
2269.59378	3840.4875
2272.4779	3833.8875
2275.36017	3833.6875
2278.24061	3825.1875
2281.11922	3794.0875
2283.996	3806.6875
2286.87094	3775.3875
2289.74405	3806.6875
2292.61534	3790.9875
2295.4848	3778.5875
2298.35243	3762.5875
2301.21824	3762.2875
2304.08223	3759.6875
2306.94439	3751.4875
2309.80474	3757.7875
2312.66327	3752.0875
2315.51999	3737.3875
2318.37489	3735.7875
2321.22797	3718.8875
2324.07925	3724.8875
2326.92871	3710.0875
2329.77637	3687.2875
2332.62222	3682.7875
2335.46626	3658.1875
2338.3085	3666.3875
2341.14893	3674.9875
2343.98756	3675.2875
2346.8244	3662.3875
2349.65943	3647.7875
2352.49267	3649.9875
2355.32411	3664.1875
2358.15376	3661.7875
2360.98161	3663.9875
2363.80768	3635.7875
2366.63195	3638.4875
2369.45444	3660.6875
2372.27514	3641.6875
2375.09405	3657.7875
2377.91118	3627.0875
2380.72652	3612.6875
2383.54009	3610.7875
2386.35187	3628.9875
2389.16188	3599.0875
2391.97011	3583.5875
2394.77657	3575.3875
2397.58125	3569.9875
2400.38416	3562.4875
2403.18529	3547.4875
2405.98466	3528.7875
2408.78226	3533.6875
2411.57809	3530.5875
2414.37216	3520.9875
2417.16446	3503.9875
2419.955	3489.2875
2422.74378	3530.4875
2425.5308	3501.1875
2428.31606	3494.9875
2431.09956	3507.5875
2433.88131	3471.3875
2436.6613	3498.8875
2439.43954	3469.9875
2442.21603	3474.1875
2444.99077	3456.1875
2447.76377	3475.2875
2450.53501	3450.9875
2453.30451	3447.6875
2456.07226	3463.6875
2458.83827	3450.8875
2461.60254	3416.1875
2464.36507	3445.3875
2467.12586	3427.7875
2469.88492	3434.3875
2472.64224	3439.3875
2475.39782	3400.2875
2478.15167	3437.9875
2480.90379	3420.1875
2483.65417	3428.3875
2486.40283	3437.4875
2489.14976	3443.6875
2491.89497	3440.7875
2494.63845	3417.2875
2497.3802	3411.6875
2500.12024	3411.9875
2502.85855	3408.9875
2505.59514	3410.9875
2508.33002	3401.8875
2511.06318	3367.6875
2513.79462	3383.2875
2516.52435	3353.0875
2519.25237	3324.8875
2521.97867	3310.2875
2524.70327	3331.8875
2527.42616	3334.1875
2530.14734	3348.2875
2532.86681	3299.1875
2535.58458	3297.3875
2538.30065	3307.8875
2541.01501	3321.7875
2543.72768	3294.9875
2546.43864	3292.9875
2549.14791	3281.2875
2551.85548	3264.3875
2554.56136	3257.2875
2557.26554	3275.8875
2559.96803	3268.0875
2562.66883	3258.8875
2565.36794	3244.5875
2568.06536	3211.4875
2570.7611	3245.1875
2573.45514	3225.2875
2576.14751	3215.4875
2578.83819	3203.7875
2581.52719	3193.0875
2584.21451	3197.3875
2586.90015	3168.2875
2589.58411	3169.1875
2592.2664	3149.9875
2594.94701	3167.7875
2597.62594	3161.6875
2600.30321	3102.2875
2602.9788	3120.1875
2605.65273	3119.7875
2608.32498	3121.1875
2610.99557	3139.1875
2613.66449	3115.0875
2616.33175	3121.5875
2618.99734	3124.8875
2621.66128	3134.6875
2624.32355	3103.3875
2626.98416	3086.1875
2629.64311	3076.8875
2632.30041	3071.3875
2634.95605	3059.3875
2637.61004	3053.8875
2640.26238	3025.1875
2642.91306	3046.6875
2645.56209	3065.3875
2648.20948	3061.0875
2650.85521	3028.1875
2653.4993	3058.8875
2656.14175	3032.7875
2658.78255	3032.3875
2661.42171	2990.6875
2664.05923	3036.3875
2666.6951	3053.0875
2669.32934	3054.6875
2671.96194	3057.2875
2674.59291	3056.4875
2677.22224	3035.4875
2679.84993	3053.2875
2682.476	3028.8875
2685.10043	3021.5875
2687.72324	3013.7875
2690.34441	3015.8875
2692.96396	3020.6875
2695.58188	3029.0875
2698.19818	3036.3875
2700.81285	3012.5875
2703.4259	3010.8875
2706.03733	2974.0875
2708.64714	2969.3875
2711.25533	3002.3875
2713.86191	3016.4875
2716.46687	3005.5875
2719.07021	2993.0875
2721.67194	2996.6875
2724.27206	3022.0875
2726.87057	2997.0875
2729.46747	2986.2875
2732.06276	2999.3875
2734.65644	2962.4875
2737.24852	2975.4875
2739.83899	2960.6875
2742.42786	2979.2875
2745.01513	2990.1875
2747.60079	2959.7875
2750.18486	2940.6875
2752.76733	2943.4875
2755.3482	2941.2875
2757.92747	2934.2875
2760.50515	2924.4875
2763.08123	2914.9875
2765.65573	2926.8875
2768.22863	2901.9875
2770.79994	2898.3875
2773.36967	2894.6875
2775.9378	2874.6875
2778.50435	2877.4875
2781.06932	2878.9875
2783.6327	2873.3875
2786.1945	2881.3875
2788.75471	2890.1875
2791.31335	2872.4875
2793.87041	2865.5875
2796.42589	2838.9875
2798.97979	2842.4875
2801.53212	2844.2875
2804.08288	2851.8875
2806.63206	2833.5875
2809.17967	2818.1875
2811.72571	2832.8875
2814.27018	2829.5875
2816.81308	2824.2875
2819.35442	2778.1875
2821.89419	2796.8875
2824.43239	2777.3875
2826.96904	2821.7875
2829.50412	2788.0875
2832.03763	2798.6875
2834.56959	2788.2875
2837.1	2783.8875
2839.62884	2775.9875
2842.15613	2779.9875
2844.68186	2788.0875
2847.20604	2751.8875
2849.72867	2751.1875
2852.24974	2763.0875
2854.76927	2729.8875
2857.28724	2694.0875
2859.80367	2748.5875
2862.31855	2741.9875
2864.83189	2750.1875
2867.34368	2743.9875
2869.85393	2765.7875
2872.36264	2717.5875
2874.8698	2737.4875
2877.37543	2735.8875
2879.87952	2727.9875
2882.38207	2708.1875
2884.88308	2726.9875
2887.38256	2711.4875
2889.88051	2710.5875
2892.37692	2701.8875
2894.8718	2676.5875
2897.36515	2706.9875
2899.85698	2697.2875
2902.34727	2700.9875
2904.83604	2700.3875
2907.32328	2718.0875
2909.809	2719.7875
2912.29319	2712.9875
2914.77587	2710.9875
2917.25702	2732.4875
2919.73665	2730.1875
2922.21476	2745.0875
2924.69136	2727.5875
2927.16644	2710.9875
2929.64	2711.7875
2932.11205	2697.0875
2934.58258	2695.4875
2937.05161	2696.6875
2939.51912	2698.3875
2941.98513	2708.0875
2944.44962	2685.3875
2946.91261	2656.2875
2949.37409	2665.5875
2951.83407	2663.5875
2954.29254	2662.5875
2956.74951	2664.4875
2959.20498	2647.7875
2961.65895	2649.4875
2964.11142	2627.8875
2966.56239	2630.7875
2969.01186	2635.0875
2971.45984	2619.9875
2973.90632	2612.6875
2976.35131	2630.9875
2978.7948	2621.1875
2981.23681	2602.4875
2983.67732	2611.1875
2986.11635	2598.6875
2988.55388	2568.8875
2990.98993	2585.5875
2993.4245	2565.5875
2995.85758	2546.3875
2998.28917	2547.0875
3000.71928	2548.0875
3003.14791	2538.4875
3005.57506	2536.5875
3008.00073	2518.6875
3010.42493	2452.7875
3012.84764	2512.3875
3015.26888	2519.6875
3017.68865	2512.0875
3020.10694	2460.8875
3022.52376	2471.8875
3024.9391	2471.0875
3027.35298	2454.6875
3029.76539	2457.3875
3032.17632	2453.1875
3034.5858	2451.1875
3036.9938	2452.0875
3039.40034	2442.6875
3041.80542	2423.1875
3044.20903	2425.9875
3046.61118	2407.7875
3049.01187	2413.9875
3051.4111	2413.4875
3053.80888	2397.9875
3056.20519	2388.5875
3058.60005	2379.7875
3060.99345	2393.1875
3063.3854	2371.8875
3065.7759	2368.8875
3068.16494	2359.7875
3070.55254	2342.0875
3072.93868	2365.1875
3075.32338	2359.9875
3077.70662	2343.4875
3080.08842	2335.2875
3082.46878	2320.0875
3084.84769	2331.3875
3087.22515	2311.6875
3089.60118	2336.4875
3091.97576	2312.4875
3094.3489	2324.9875
3096.72061	2307.0875
3099.09087	2302.4875
3101.4597	2304.1875
3103.82709	2306.4875
3106.19305	2293.8875
3108.55757	2297.0875
3110.92066	2276.9875
3113.28232	2288.0875
3115.64255	2276.8875
3118.00134	2282.2875
3120.35871	2259.5875
3122.71466	2238.9875
3125.06917	2253.2875
3127.42226	2253.6875
3129.77393	2223.6875
3132.12417	2238.0875
3134.47299	2238.8875
3136.82039	2223.8875
3139.16636	2197.8875
3141.51092	2221.9875
3143.85406	2229.7875
3146.19579	2210.4875
3148.53609	2205.9875
3150.87499	2219.8875
3153.21246	2203.4875
3155.54853	2213.8875
3157.88318	2217.8875
3160.21642	2217.7875
3162.54826	2207.6875
3164.87868	2207.4875
3167.2077	2170.0875
3169.5353	2187.1875
3171.86151	2202.1875
3174.18631	2177.8875
3176.5097	2179.0875
3178.83169	2182.2875
3181.15228	2179.2875
3183.47147	2156.5875
3185.78926	2147.8875
3188.10565	2158.9875
3190.42065	2134.5875
3192.73424	2152.4875
3195.04645	2135.4875
3197.35725	2126.6875
3199.66667	2133.9875
3201.97469	2130.7875
3204.28132	2124.9875
3206.58656	2132.0875
3208.8904	2143.8875
3211.19287	2129.3875
3213.49394	2122.4875
3215.79363	2105.9875
3218.09193	2132.2875
3220.38884	2113.2875
3222.68438	2110.7875
3224.97853	2093.8875
3227.2713	2109.9875
3229.56269	2101.6875
3231.8527	2103.3875
3234.14133	2095.2875
3236.42858	2087.6875
3238.71446	2056.6875
3240.99896	2083.0875
3243.28209	2064.4875
3245.56384	2066.8875
3247.84423	2071.6875
3250.12324	2059.8875
3252.40088	2058.3875
3254.67715	2049.2875
3256.95205	2047.3875
3259.22558	2062.5875
3261.49775	2055.2875
3263.76855	2044.1875
3266.03799	2051.3875
3268.30606	2042.1875
3270.57277	2050.5875
3272.83812	2019.2875
3275.10211	2016.8875
3277.36474	2038.0875
3279.62601	2025.5875
3281.88593	2009.0875
3284.14448	1996.2875
3286.40168	2014.5875
3288.65753	2004.9875
3290.91202	1993.8875
3293.16516	1975.2875
3295.41695	1994.7875
3297.66738	2002.8875
3299.91647	1979.0875
3302.16421	1976.8875
3304.4106	1939.8875
3306.65564	1957.8875
3308.89933	1927.7875
3311.14169	1917.6875
3313.38269	1905.9875
3315.62236	1883.6875
3317.86068	1873.3875
3320.09766	1873.4875
3322.3333	1830.5875
3324.5676	1835.4875
3326.80056	1815.1875
3329.03219	1795.7875
3331.26248	-0.4125
3333.49143	0.9875
3335.71905	0.6875
