Data from AgNPs_UA_5uM_CRN_500uM_SU_RamanShift__99__11-45-53-159.txt Node

Date: Thu Aug 04 11:45:53 BST 2022
User: TCL
Spectrometer: QEP01345
Trigger mode: 4
Integration Time (sec): 1.000000E0
Scans to average: 10
Electric dark correction enabled: true
Nonlinearity correction enabled: false
Boxcar width: 0
XAxis mode: Raman Shifts
Number of Pixels in Spectrum: 1044
>>>>>Begin Spectral Data<<<<<
46.04893	-0.7875
50.45542	0.3125
54.85868	0.9125
59.25871	-0.6875
63.6555	-65.9875
68.04907	-46.4875
72.43941	-79.8875
76.82654	-64.3875
81.21044	-64.0875
85.59113	-57.4875
89.96862	-83.9875
94.34289	-64.9875
98.71396	-85.1875
103.08183	-67.4875
107.4465	-59.8875
111.80798	-66.4875
116.16626	-57.3875
120.52136	-83.9875
124.87327	-64.2875
129.222	-77.4875
133.56755	-66.2875
137.90993	-80.5875
142.24913	-71.4875
146.58517	-69.4875
150.91804	-69.2875
155.24774	-66.6875
159.57429	-53.7875
163.89768	-67.9875
168.21792	-45.6875
172.53501	-59.4875
176.84895	-28.2875
181.15975	28.2125
185.46741	70.5125
189.77193	108.9125
194.07331	224.9125
198.37157	314.4125
202.6667	384.1125
206.9587	489.3125
211.24758	582.2125
215.53334	665.8125
219.81599	764.6125
224.09553	880.5125
228.37195	992.5125
232.64527	1112.1125
236.91549	1269.7125
241.18261	1388.9125
245.44663	1527.0125
249.70755	1631.1125
253.96539	1737.0125
258.22014	1832.4125
262.4718	1892.7125
266.72039	1950.7125
270.96589	1966.8125
275.20832	1945.9125
279.44768	1930.8125
283.68397	1897.5125
287.91719	1875.4125
292.14735	1847.2125
296.37445	1850.3125
300.59849	1875.6125
304.81948	1876.6125
309.03742	1904.7125
313.25231	1919.8125
317.46415	1947.3125
321.67296	1903.5125
325.87872	1857.8125
330.08145	1878.4125
334.28114	1886.9125
338.47781	1910.1125
342.67145	1933.5125
346.86207	1976.4125
351.04966	2029.3125
355.23424	2082.8125
359.4158	2137.8125
363.59435	2136.9125
367.76989	2165.1125
371.94243	2172.5125
376.11196	2169.3125
380.27849	2196.2125
384.44203	2200.1125
388.60257	2218.5125
392.76012	2230.1125
396.91468	2282.2125
401.06626	2305.9125
405.21485	2308.3125
409.36047	2325.9125
413.50311	2313.4125
417.64277	2305.1125
421.77947	2298.7125
425.9132	2311.8125
430.04396	2324.2125
434.17176	2338.1125
438.2966	2373.8125
442.41849	2394.9125
446.53742	2406.1125
450.6534	2427.4125
454.76644	2473.3125
458.87653	2503.6125
462.98368	2488.7125
467.08789	2486.6125
471.18916	2501.4125
475.2875	2516.5125
479.38291	2531.1125
483.4754	2535.2125
487.56496	2554.2125
491.6516	2545.2125
495.73531	2558.4125
499.81612	2555.5125
503.89401	2588.6125
507.96899	2588.6125
512.04106	2613.4125
516.11023	2623.9125
520.1765	2639.8125
524.23987	2660.9125
528.30034	2679.0125
532.35792	2646.3125
536.41261	2683.3125
540.46441	2686.3125
544.51333	2679.9125
548.55936	2706.6125
552.60252	2736.6125
556.64279	2744.1125
560.6802	2780.7125
564.71473	2785.0125
568.7464	2825.5125
572.7752	2823.8125
576.80114	2803.3125
580.82422	2802.6125
584.84444	2793.0125
588.86181	2805.7125
592.87633	2823.5125
596.888	2841.4125
600.89682	2887.0125
604.9028	2990.3125
608.90594	3155.8125
612.90624	3369.9125
616.90371	3292.3125
620.89834	3044.9125
624.89015	2975.2125
628.87913	2955.5125
632.86528	2979.5125
636.84862	3009.4125
640.82913	3032.5125
644.80683	2993.4125
648.78172	2998.1125
652.75379	3012.1125
656.72306	3045.1125
660.68952	3071.0125
664.65319	3080.4125
668.61405	3056.2125
672.57211	3065.5125
676.52738	3097.6125
680.47986	3095.1125
684.42955	3110.6125
688.37646	3119.2125
692.32058	3124.8125
696.26192	3132.3125
700.20048	3153.1125
704.13626	3166.2125
708.06928	3158.6125
711.99952	3188.1125
715.927	3172.7125
719.85171	3180.0125
723.77365	3217.7125
727.69284	3205.2125
731.60928	3246.7125
735.52295	3219.0125
739.43388	3258.3125
743.34206	3259.0125
747.24749	3285.5125
751.15017	3293.6125
755.05012	3290.4125
758.94733	3354.6125
762.8418	3413.7125
766.73354	3526.0125
770.62254	3595.9125
774.50882	3593.1125
778.39237	3552.8125
782.27321	3509.4125
786.15132	3447.9125
790.02671	3423.8125
793.89938	3342.5125
797.76935	3379.9125
801.6366	3370.9125
805.50115	3375.5125
809.36299	3388.0125
813.22213	3397.9125
817.07857	3419.9125
820.93231	3403.8125
824.78336	3418.6125
828.63172	3451.0125
832.47738	3423.8125
836.32036	3472.6125
840.16066	3470.2125
843.99827	3481.1125
847.8332	3468.2125
851.66546	3488.4125
855.49504	3471.8125
859.32195	3519.2125
863.1462	3513.2125
866.96777	3528.1125
870.78668	3516.9125
874.60293	3531.0125
878.41652	3540.6125
882.22745	3577.1125
886.03573	3576.5125
889.84136	3574.9125
893.64433	3592.7125
897.44466	3573.1125
901.24235	3593.0125
905.0374	3627.0125
908.8298	3589.8125
912.61957	3613.5125
916.40671	3550.6125
920.19121	3600.6125
923.97308	3626.9125
927.75233	3598.4125
931.52895	3591.2125
935.30295	3642.7125
939.07433	3630.7125
942.84309	3606.7125
946.60924	3618.8125
950.37278	3607.3125
954.13371	3613.2125
957.89203	3614.3125
961.64774	3632.1125
965.40086	3612.1125
969.15137	3598.5125
972.89929	3643.1125
976.64461	3629.5125
980.38733	3637.8125
984.12747	3640.2125
987.86502	3632.9125
991.59999	3640.0125
995.33237	3686.1125
999.06217	3697.9125
1002.78939	3701.3125
1006.51404	3707.1125
1010.23611	3721.0125
1013.95561	3731.6125
1017.67255	3749.5125
1021.38692	3772.3125
1025.09872	3756.6125
1028.80796	3728.5125
1032.51465	3776.0125
1036.21877	3762.9125
1039.92035	3763.7125
1043.61937	3768.3125
1047.31584	3780.6125
1051.00976	3819.0125
1054.70114	3840.2125
1058.38998	3824.9125
1062.07627	3835.0125
1065.76003	3839.0125
1069.44126	3868.7125
1073.11995	3866.2125
1076.79611	3875.7125
1080.46974	3920.0125
1084.14085	3943.2125
1087.80943	3929.7125
1091.47549	3938.2125
1095.13903	3945.4125
1098.80005	3937.6125
1102.45857	3939.1125
1106.11456	3922.3125
1109.76805	3885.0125
1113.41903	3917.3125
1117.06751	3948.3125
1120.71348	3961.4125
1124.35696	4018.7125
1127.99793	4030.3125
1131.63641	4023.6125
1135.2724	3998.3125
1138.90589	3984.6125
1142.5369	3932.4125
1146.16542	3939.4125
1149.79145	3906.4125
1153.415	3914.7125
1157.03607	3911.4125
1160.65467	3920.4125
1164.27079	3942.2125
1167.88443	3940.5125
1171.49561	4022.0125
1175.10432	4057.7125
1178.71056	4132.8125
1182.31434	4213.2125
1185.91565	4233.8125
1189.51451	4241.9125
1193.11091	4213.0125
1196.70485	4218.7125
1200.29634	4191.0125
1203.88538	4161.0125
1207.47197	4101.3125
1211.05612	4074.9125
1214.63782	4048.2125
1218.21708	4054.0125
1221.79391	4052.3125
1225.36829	4016.0125
1228.94024	4037.7125
1232.50976	4039.3125
1236.07685	4063.5125
1239.6415	4065.7125
1243.20374	4067.6125
1246.76355	4100.9125
1250.32093	4125.1125
1253.8759	4116.9125
1257.42845	4153.3125
1260.97859	4163.6125
1264.52631	4214.8125
1268.07163	4193.7125
1271.61453	4212.5125
1275.15503	4198.8125
1278.69312	4189.8125
1282.22882	4223.0125
1285.76211	4241.8125
1289.29301	4241.9125
1292.82151	4285.8125
1296.34761	4285.0125
1299.87133	4338.6125
1303.39266	4386.9125
1306.9116	4487.4125
1310.42815	4596.1125
1313.94233	4657.4125
1317.45412	4587.1125
1320.96354	4492.4125
1324.47058	4388.6125
1327.97525	4329.6125
1331.47754	4287.1125
1334.97747	4269.6125
1338.47502	4263.3125
1341.97022	4281.4125
1345.46305	4345.3125
1348.95352	4430.5125
1352.44163	4532.2125
1355.92738	4598.0125
1359.41078	4733.0125
1362.89183	4865.2125
1366.37053	4806.3125
1369.84688	4579.7125
1373.32088	4386.7125
1376.79254	4262.8125
1380.26186	4195.6125
1383.72883	4127.0125
1387.19347	4088.3125
1390.65578	4030.2125
1394.11575	4020.4125
1397.57339	4012.0125
1401.0287	3997.8125
1404.48168	3994.9125
1407.93234	4014.0125
1411.38068	3985.3125
1414.82669	3991.9125
1418.27039	4018.5125
1421.71177	4032.5125
1425.15083	3997.8125
1428.58758	3991.2125
1432.02203	3990.1125
1435.45416	4018.5125
1438.88399	4003.9125
1442.31151	3952.9125
1445.73673	3963.3125
1449.15965	3958.7125
1452.58027	3962.8125
1455.9986	3964.9125
1459.41463	3970.5125
1462.82837	3985.0125
1466.23982	4002.4125
1469.64898	4010.7125
1473.05586	4013.8125
1476.46045	4034.9125
1479.86276	4046.3125
1483.26279	4057.8125
1486.66054	4093.2125
1490.05602	4106.0125
1493.44922	4183.2125
1496.84016	4231.0125
1500.22882	4366.3125
1503.61521	4500.5125
1506.99934	4647.2125
1510.38121	4769.7125
1513.76081	4824.0125
1517.13816	4731.3125
1520.51324	4548.2125
1523.88607	4391.6125
1527.25665	4304.6125
1530.62498	4227.2125
1533.99105	4220.3125
1537.35488	4226.4125
1540.71647	4244.8125
1544.07581	4228.3125
1547.4329	4224.9125
1550.78776	4229.9125
1554.14038	4217.2125
1557.49077	4240.1125
1560.83892	4278.2125
1564.18484	4291.6125
1567.52853	4313.1125
1570.86999	4340.0125
1574.20922	4341.9125
1577.54624	4345.5125
1580.88103	4302.4125
1584.2136	4234.8125
1587.54395	4224.1125
1590.87208	4238.0125
1594.19801	4201.8125
1597.52172	4269.7125
1600.84321	4281.7125
1604.16251	4260.2125
1607.47959	4220.3125
1610.79447	4206.0125
1614.10715	4189.7125
1617.41763	4197.7125
1620.7259	4142.5125
1624.03199	4135.4125
1627.33587	4128.4125
1630.63757	4122.4125
1633.93707	4160.0125
1637.23439	4174.3125
1640.52951	4246.8125
1643.82246	4319.3125
1647.11321	4430.7125
1650.40179	4487.2125
1653.68819	4443.1125
1656.97241	4347.1125
1660.25446	4222.3125
1663.53433	4126.3125
1666.81203	4054.9125
1670.08756	4053.4125
1673.36092	4050.3125
1676.63211	4049.4125
1679.90115	4031.0125
1683.16801	4030.0125
1686.43272	3978.8125
1689.69527	3994.9125
1692.95567	3962.5125
1696.2139	3982.6125
1699.46999	3934.4125
1702.72392	3975.0125
1705.97571	3985.6125
1709.22535	3967.4125
1712.47284	4012.4125
1715.71819	4010.3125
1718.96139	4040.4125
1722.20246	4040.7125
1725.44139	4020.0125
1728.67818	4033.6125
1731.91284	4010.8125
1735.14537	4015.4125
1738.37576	4003.4125
1741.60403	3992.7125
1744.83017	3977.8125
1748.05418	3996.4125
1751.27607	4008.2125
1754.49584	3968.9125
1757.71349	3952.9125
1760.92903	3971.1125
1764.14244	3923.1125
1767.35375	3948.5125
1770.56294	3945.6125
1773.77002	3946.9125
1776.97499	3971.8125
1780.17785	3969.3125
1783.37861	3968.1125
1786.57727	4004.0125
1789.77382	3930.6125
1792.96828	3979.0125
1796.16064	3977.6125
1799.3509	3966.6125
1802.53907	3988.5125
1805.72514	3962.0125
1808.90913	3933.4125
1812.09102	3944.1125
1815.27083	3956.6125
1818.44856	3939.9125
1821.6242	3948.1125
1824.79776	3931.1125
1827.96924	3944.4125
1831.13864	3920.9125
1834.30597	3938.4125
1837.47122	3915.9125
1840.6344	3926.4125
1843.7955	3908.6125
1846.95454	3902.2125
1850.11151	3934.7125
1853.26642	3909.7125
1856.41926	3907.8125
1859.57004	3899.9125
1862.71876	3917.8125
1865.86542	3920.9125
1869.01003	3911.1125
1872.15258	3879.9125
1875.29308	3919.2125
1878.43152	3907.7125
1881.56792	3903.5125
1884.70227	3867.6125
1887.83457	3893.3125
1890.96482	3861.9125
1894.09304	3879.4125
1897.21921	3864.3125
1900.34335	3876.6125
1903.46544	3849.8125
1906.58551	3871.4125
1909.70353	3864.1125
1912.81953	3863.7125
1915.93349	3850.2125
1919.04543	3849.3125
1922.15534	3836.2125
1925.26322	3863.8125
1928.36908	3840.6125
1931.47292	3837.7125
1934.57473	3853.4125
1937.67453	3826.7125
1940.77232	3811.9125
1943.86808	3808.7125
1946.96184	3819.3125
1950.05358	3780.5125
1953.14331	3764.9125
1956.23103	3780.9125
1959.31675	3748.2125
1962.40046	3714.5125
1965.48217	3738.8125
1968.56188	3721.4125
1971.63959	3723.1125
1974.7153	3713.4125
1977.78901	3717.0125
1980.86073	3688.2125
1983.93046	3655.1125
1986.99819	3598.3125
1990.06394	3629.3125
1993.1277	3660.8125
1996.18947	3636.1125
1999.24925	3605.3125
2002.30706	3621.7125
2005.36288	3617.6125
2008.41672	3608.9125
2011.46859	3577.1125
2014.51848	3584.0125
2017.56639	3575.3125
2020.61233	3552.9125
2023.6563	3566.2125
2026.6983	3507.2125
2029.73833	3540.7125
2032.7764	3533.2125
2035.8125	3491.3125
2038.84664	3520.1125
2041.87881	3512.2125
2044.90903	3515.8125
2047.93729	3490.8125
2050.96359	3475.3125
2053.98794	3483.6125
2057.01034	3497.9125
2060.03078	3478.2125
2063.04927	3466.0125
2066.06582	3478.3125
2069.08042	3473.3125
2072.09307	3481.9125
2075.10378	3471.8125
2078.11255	3470.4125
2081.11938	3476.4125
2084.12426	3473.2125
2087.12722	3469.3125
2090.12824	3463.7125
2093.12732	3472.7125
2096.12447	3466.7125
2099.11969	3468.2125
2102.11299	3464.5125
2105.10435	3492.2125
2108.09379	3472.5125
2111.08131	3465.3125
2114.0669	3470.9125
2117.05057	3477.4125
2120.03233	3453.7125
2123.01216	3485.9125
2125.99008	3491.3125
2128.96609	3480.5125
2131.94018	3500.0125
2134.91236	3502.8125
2137.88263	3504.7125
2140.851	3499.0125
2143.81746	3534.3125
2146.78201	3510.1125
2149.74466	3518.6125
2152.7054	3522.1125
2155.66425	3518.1125
2158.6212	3508.9125
2161.57625	3488.2125
2164.52941	3484.2125
2167.48067	3502.3125
2170.43004	3481.3125
2173.37752	3517.6125
2176.32311	3484.9125
2179.26681	3499.4125
2182.20863	3513.7125
2185.14856	3488.6125
2188.08661	3496.6125
2191.02278	3507.5125
2193.95707	3493.9125
2196.88948	3471.6125
2199.82001	3494.0125
2202.74867	3470.4125
2205.67545	3491.5125
2208.60037	3500.7125
2211.52341	3488.6125
2214.44458	3481.2125
2217.36388	3463.0125
2220.28132	3460.2125
2223.1969	3433.8125
2226.11061	3444.4125
2229.02246	3445.6125
2231.93245	3441.7125
2234.84058	3423.7125
2237.74686	3420.6125
2240.65128	3401.0125
2243.55385	3408.3125
2246.45456	3408.4125
2249.35343	3401.3125
2252.25044	3398.5125
2255.14561	3387.3125
2258.03893	3398.2125
2260.93041	3380.8125
2263.82004	3364.6125
2266.70783	3367.3125
2269.59378	3355.4125
2272.4779	3331.4125
2275.36017	3332.7125
2278.24061	3330.3125
2281.11922	3299.4125
2283.996	3329.2125
2286.87094	3305.1125
2289.74405	3302.9125
2292.61534	3321.3125
2295.4848	3304.2125
2298.35243	3295.5125
2301.21824	3277.8125
2304.08223	3299.3125
2306.94439	3309.0125
2309.80474	3293.3125
2312.66327	3295.5125
2315.51999	3282.0125
2318.37489	3285.1125
2321.22797	3260.6125
2324.07925	3276.2125
2326.92871	3245.1125
2329.77637	3241.1125
2332.62222	3247.7125
2335.46626	3224.7125
2338.3085	3211.0125
2341.14893	3232.8125
2343.98756	3236.6125
2346.8244	3210.4125
2349.65943	3191.9125
2352.49267	3207.9125
2355.32411	3209.9125
2358.15376	3197.9125
2360.98161	3204.8125
2363.80768	3184.1125
2366.63195	3187.3125
2369.45444	3196.4125
2372.27514	3180.3125
2375.09405	3188.4125
2377.91118	3152.5125
2380.72652	3157.8125
2383.54009	3157.4125
2386.35187	3158.8125
2389.16188	3151.8125
2391.97011	3147.3125
2394.77657	3142.0125
2397.58125	3130.4125
2400.38416	3143.9125
2403.18529	3131.0125
2405.98466	3104.1125
2408.78226	3114.5125
2411.57809	3104.8125
2414.37216	3092.7125
2417.16446	3112.1125
2419.955	3086.3125
2422.74378	3100.7125
2425.5308	3079.4125
2428.31606	3086.1125
2431.09956	3086.7125
2433.88131	3059.6125
2436.6613	3087.0125
2439.43954	3057.2125
2442.21603	3050.5125
2444.99077	3033.8125
2447.76377	3071.9125
2450.53501	3038.5125
2453.30451	3042.9125
2456.07226	3048.7125
2458.83827	3022.2125
2461.60254	2980.6125
2464.36507	3029.7125
2467.12586	3008.0125
2469.88492	3006.0125
2472.64224	3008.0125
2475.39782	2977.6125
2478.15167	2980.9125
2480.90379	2991.5125
2483.65417	2993.4125
2486.40283	2998.8125
2489.14976	3002.3125
2491.89497	2982.1125
2494.63845	2977.6125
2497.3802	2964.4125
2500.12024	2963.6125
2502.85855	2957.7125
2505.59514	2964.4125
2508.33002	2970.4125
2511.06318	2948.9125
2513.79462	2959.1125
2516.52435	2926.7125
2519.25237	2914.1125
2521.97867	2921.1125
2524.70327	2928.8125
2527.42616	2931.9125
2530.14734	2939.0125
2532.86681	2918.5125
2535.58458	2920.2125
2538.30065	2896.7125
2541.01501	2926.6125
2543.72768	2889.9125
2546.43864	2893.1125
2549.14791	2886.6125
2551.85548	2871.3125
2554.56136	2866.4125
2557.26554	2876.4125
2559.96803	2861.0125
2562.66883	2862.4125
2565.36794	2836.1125
2568.06536	2816.1125
2570.7611	2840.3125
2573.45514	2821.7125
2576.14751	2822.1125
2578.83819	2802.3125
2581.52719	2799.6125
2584.21451	2814.1125
2586.90015	2789.6125
2589.58411	2776.3125
2592.2664	2790.3125
2594.94701	2776.6125
2597.62594	2777.9125
2600.30321	2718.8125
2602.9788	2739.6125
2605.65273	2727.1125
2608.32498	2743.7125
2610.99557	2763.5125
2613.66449	2714.8125
2616.33175	2736.0125
2618.99734	2728.3125
2621.66128	2732.9125
2624.32355	2703.9125
2626.98416	2696.8125
2629.64311	2699.6125
2632.30041	2687.0125
2634.95605	2669.6125
2637.61004	2671.3125
2640.26238	2659.7125
2642.91306	2659.9125
2645.56209	2678.7125
2648.20948	2679.7125
2650.85521	2650.3125
2653.4993	2666.3125
2656.14175	2661.0125
2658.78255	2649.1125
2661.42171	2614.9125
2664.05923	2656.9125
2666.6951	2649.8125
2669.32934	2655.0125
2671.96194	2656.8125
2674.59291	2654.0125
2677.22224	2665.7125
2679.84993	2648.2125
2682.476	2635.2125
2685.10043	2640.4125
2687.72324	2633.6125
2690.34441	2623.2125
2692.96396	2622.6125
2695.58188	2638.1125
2698.19818	2628.5125
2700.81285	2630.7125
2703.4259	2615.8125
2706.03733	2588.7125
2708.64714	2593.6125
2711.25533	2619.4125
2713.86191	2612.2125
2716.46687	2609.5125
2719.07021	2614.6125
2721.67194	2623.3125
2724.27206	2628.2125
2726.87057	2606.4125
2729.46747	2605.6125
2732.06276	2613.1125
2734.65644	2597.7125
2737.24852	2603.4125
2739.83899	2573.9125
2742.42786	2601.2125
2745.01513	2590.5125
2747.60079	2578.7125
2750.18486	2567.3125
2752.76733	2576.5125
2755.3482	2572.4125
2757.92747	2568.3125
2760.50515	2542.3125
2763.08123	2551.3125
2765.65573	2545.5125
2768.22863	2545.7125
2770.79994	2536.1125
2773.36967	2536.3125
2775.9378	2529.4125
2778.50435	2510.3125
2781.06932	2517.0125
2783.6327	2492.6125
2786.1945	2509.9125
2788.75471	2516.9125
2791.31335	2510.3125
2793.87041	2501.2125
2796.42589	2470.0125
2798.97979	2474.4125
2801.53212	2468.0125
2804.08288	2490.3125
2806.63206	2453.7125
2809.17967	2441.9125
2811.72571	2450.3125
2814.27018	2449.4125
2816.81308	2433.3125
2819.35442	2401.9125
2821.89419	2418.8125
2824.43239	2398.9125
2826.96904	2423.7125
2829.50412	2404.5125
2832.03763	2403.7125
2834.56959	2401.8125
2837.1	2405.9125
2839.62884	2391.9125
2842.15613	2400.8125
2844.68186	2400.1125
2847.20604	2363.4125
2849.72867	2369.9125
2852.24974	2363.2125
2854.76927	2342.0125
2857.28724	2300.6125
2859.80367	2343.5125
2862.31855	2357.1125
2864.83189	2346.4125
2867.34368	2348.1125
2869.85393	2346.9125
2872.36264	2321.6125
2874.8698	2327.5125
2877.37543	2326.9125
2879.87952	2326.7125
2882.38207	2304.3125
2884.88308	2317.3125
2887.38256	2324.9125
2889.88051	2312.8125
2892.37692	2314.2125
2894.8718	2302.8125
2897.36515	2321.6125
2899.85698	2303.2125
2902.34727	2309.3125
2904.83604	2305.3125
2907.32328	2305.9125
2909.809	2303.3125
2912.29319	2295.5125
2914.77587	2300.4125
2917.25702	2306.1125
2919.73665	2298.8125
2922.21476	2313.3125
2924.69136	2304.0125
2927.16644	2288.2125
2929.64	2292.0125
2932.11205	2295.0125
2934.58258	2290.9125
2937.05161	2277.8125
2939.51912	2287.4125
2941.98513	2307.8125
2944.44962	2283.0125
2946.91261	2252.2125
2949.37409	2274.9125
2951.83407	2275.1125
2954.29254	2278.8125
2956.74951	2282.7125
2959.20498	2257.6125
2961.65895	2266.8125
2964.11142	2255.5125
2966.56239	2265.6125
2969.01186	2270.1125
2971.45984	2258.0125
2973.90632	2252.9125
2976.35131	2268.0125
2978.7948	2265.6125
2981.23681	2236.1125
2983.67732	2239.7125
2986.11635	2238.4125
2988.55388	2232.5125
2990.98993	2232.6125
2993.4245	2223.5125
2995.85758	2210.0125
2998.28917	2201.1125
3000.71928	2205.6125
3003.14791	2200.6125
3005.57506	2187.8125
3008.00073	2172.9125
3010.42493	2124.5125
3012.84764	2171.0125
3015.26888	2182.4125
3017.68865	2178.2125
3020.10694	2138.8125
3022.52376	2157.5125
3024.9391	2157.2125
3027.35298	2155.5125
3029.76539	2135.9125
3032.17632	2149.8125
3034.5858	2137.9125
3036.9938	2153.8125
3039.40034	2137.7125
3041.80542	2129.9125
3044.20903	2128.0125
3046.61118	2117.1125
3049.01187	2126.3125
3051.4111	2127.3125
3053.80888	2109.3125
3056.20519	2097.7125
3058.60005	2084.4125
3060.99345	2103.4125
3063.3854	2086.0125
3065.7759	2078.7125
3068.16494	2065.8125
3070.55254	2057.0125
3072.93868	2071.3125
3075.32338	2060.3125
3077.70662	2058.7125
3080.08842	2050.4125
3082.46878	2044.7125
3084.84769	2061.9125
3087.22515	2047.2125
3089.60118	2060.3125
3091.97576	2051.1125
3094.3489	2056.2125
3096.72061	2046.3125
3099.09087	2028.2125
3101.4597	2051.8125
3103.82709	2044.6125
3106.19305	2026.5125
3108.55757	2028.8125
3110.92066	2020.2125
3113.28232	2035.5125
3115.64255	2026.3125
3118.00134	2041.3125
3120.35871	2004.2125
3122.71466	1993.6125
3125.06917	2008.3125
3127.42226	2010.2125
3129.77393	1977.6125
3132.12417	2002.2125
3134.47299	2003.9125
3136.82039	1983.8125
3139.16636	1955.8125
3141.51092	1990.7125
3143.85406	1992.5125
3146.19579	1971.0125
3148.53609	1977.6125
3150.87499	1973.3125
3153.21246	1980.1125
3155.54853	1976.6125
3157.88318	1984.2125
3160.21642	1983.7125
3162.54826	1982.9125
3164.87868	1996.2125
3167.2077	1953.7125
3169.5353	1973.6125
3171.86151	1990.4125
3174.18631	1972.6125
3176.5097	1957.5125
3178.83169	1969.7125
3181.15228	1977.6125
3183.47147	1953.7125
3185.78926	1937.9125
3188.10565	1948.3125
3190.42065	1924.1125
3192.73424	1952.1125
3195.04645	1935.7125
3197.35725	1927.4125
3199.66667	1937.6125
3201.97469	1925.1125
3204.28132	1924.1125
3206.58656	1925.0125
3208.8904	1939.3125
3211.19287	1935.8125
3213.49394	1921.6125
3215.79363	1912.0125
3218.09193	1931.0125
3220.38884	1918.7125
3222.68438	1911.5125
3224.97853	1892.3125
3227.2713	1918.9125
3229.56269	1899.9125
3231.8527	1902.2125
3234.14133	1901.3125
3236.42858	1901.1125
3238.71446	1889.3125
3240.99896	1899.7125
3243.28209	1877.6125
3245.56384	1893.1125
3247.84423	1865.2125
3250.12324	1878.9125
3252.40088	1877.1125
3254.67715	1866.9125
3256.95205	1862.8125
3259.22558	1879.3125
3261.49775	1879.2125
3263.76855	1860.0125
3266.03799	1872.8125
3268.30606	1874.9125
3270.57277	1859.2125
3272.83812	1851.6125
3275.10211	1852.1125
3277.36474	1860.5125
3279.62601	1854.6125
3281.88593	1827.8125
3284.14448	1815.9125
3286.40168	1837.2125
3288.65753	1823.3125
3290.91202	1821.4125
3293.16516	1790.9125
3295.41695	1832.5125
3297.66738	1829.0125
3299.91647	1801.3125
3302.16421	1795.5125
3304.4106	1758.3125
3306.65564	1777.6125
3308.89933	1742.1125
3311.14169	1745.2125
3313.38269	1733.1125
3315.62236	1728.1125
3317.86068	1707.2125
3320.09766	1709.0125
3322.3333	1674.1125
3324.5676	1652.9125
3326.80056	1631.2125
3329.03219	1628.9125
3331.26248	-0.7875
3333.49143	0.4125
3335.71905	0.1125
