Data from AgNPs_UA_20uM_CRN_500uM_SU_RamanShift__23__13-40-20-295.txt Node

Date: Thu Aug 04 13:40:20 BST 2022
User: TCL
Spectrometer: QEP01345
Trigger mode: 4
Integration Time (sec): 1.000000E0
Scans to average: 10
Electric dark correction enabled: true
Nonlinearity correction enabled: false
Boxcar width: 0
XAxis mode: Raman Shifts
Number of Pixels in Spectrum: 1044
>>>>>Begin Spectral Data<<<<<
46.04893	-1.875
50.45542	-0.275
54.85868	1.325
59.25871	-0.675
63.6555	18.425
68.04907	17.725
72.43941	19.125
76.82654	18.525
81.21044	19.125
85.59113	19.625
89.96862	21.925
94.34289	21.625
98.71396	21.725
103.08183	24.025
107.4465	22.325
111.80798	24.925
116.16626	26.625
120.52136	27.425
124.87327	27.125
129.222	30.925
133.56755	30.525
137.90993	32.125
142.24913	38.125
146.58517	43.525
150.91804	50.025
155.24774	62.425
159.57429	76.825
163.89768	99.725
168.21792	135.525
172.53501	184.125
176.84895	253.825
181.15975	368.625
185.46741	520.425
189.77193	725.625
194.07331	980.425
198.37157	1260.725
202.6667	1571.925
206.9587	1881.225
211.24758	2192.225
215.53334	2512.125
219.81599	2859.225
224.09553	3244.825
228.37195	3681.425
232.64527	4148.025
236.91549	4607.825
241.18261	4989.225
245.44663	5283.525
249.70755	5488.825
253.96539	5667.825
258.22014	5797.025
262.4718	5929.525
266.72039	5999.625
270.96589	6006.325
275.20832	5968.625
279.44768	5858.725
283.68397	5761.825
287.91719	5699.725
292.14735	5741.025
296.37445	5856.525
300.59849	6125.025
304.81948	6456.325
309.03742	6777.425
313.25231	6974.725
317.46415	6881.325
321.67296	6552.725
325.87872	6198.225
330.08145	5991.225
334.28114	5963.325
338.47781	6036.325
342.67145	6188.625
346.86207	6390.525
351.04966	6677.125
355.23424	7004.725
359.4158	7227.825
363.59435	7278.525
367.76989	7274.625
371.94243	7193.825
376.11196	7124.325
380.27849	7061.725
384.44203	7032.525
388.60257	6998.525
392.76012	7064.025
396.91468	7172.625
401.06626	7284.425
405.21485	7328.625
409.36047	7176.525
413.50311	6860.825
417.64277	6569.625
421.77947	6411.825
425.9132	6359.625
430.04396	6354.325
434.17176	6388.625
438.2966	6483.725
442.41849	6591.325
446.53742	6714.625
450.6534	6864.525
454.76644	6911.725
458.87653	6897.125
462.98368	6873.325
467.08789	6826.925
471.18916	6724.725
475.2875	6586.825
479.38291	6477.925
483.4754	6367.425
487.56496	6322.125
491.6516	6283.625
495.73531	6308.325
499.81612	6318.125
503.89401	6373.025
507.96899	6433.925
512.04106	6519.125
516.11023	6607.525
520.1765	6660.125
524.23987	6678.425
528.30034	6663.625
532.35792	6631.325
536.41261	6549.325
540.46441	6450.425
544.51333	6397.125
548.55936	6444.525
552.60252	6573.825
556.64279	6670.625
560.6802	6753.825
564.71473	6884.725
568.7464	7036.425
572.7752	7021.825
576.80114	6779.225
580.82422	6582.725
584.84444	6504.425
588.86181	6468.125
592.87633	6488.425
596.888	6637.025
600.89682	7000.825
604.9028	7984.025
608.90594	10065.025
612.90624	12212.125
616.90371	11233.525
620.89834	8236.925
624.89015	6966.625
628.87913	6799.125
632.86528	6989.425
636.84862	7119.525
640.82913	6988.925
644.80683	6693.225
648.78172	6500.825
652.75379	6510.225
656.72306	6725.825
660.68952	6988.525
664.65319	6862.325
668.61405	6636.125
672.57211	6617.225
676.52738	6615.425
680.47986	6536.325
684.42955	6415.325
688.37646	6361.625
692.32058	6382.125
696.26192	6499.825
700.20048	6628.925
704.13626	6656.525
708.06928	6611.425
711.99952	6559.925
715.927	6563.325
719.85171	6585.125
723.77365	6603.825
727.69284	6569.425
731.60928	6503.025
735.52295	6490.025
739.43388	6521.625
743.34206	6552.925
747.24749	6558.225
751.15017	6558.925
755.05012	6650.925
758.94733	6986.225
762.8418	7822.925
766.73354	9067.325
770.62254	10034.525
774.50882	10165.425
778.39237	9613.425
782.27321	8634.825
786.15132	7661.625
790.02671	7015.725
793.89938	6728.825
797.76935	6588.025
801.6366	6503.225
805.50115	6450.025
809.36299	6447.225
813.22213	6421.725
817.07857	6438.225
820.93231	6412.625
824.78336	6429.525
828.63172	6482.925
832.47738	6475.825
836.32036	6440.425
840.16066	6418.125
843.99827	6396.925
847.8332	6400.525
851.66546	6434.125
855.49504	6439.325
859.32195	6450.225
863.1462	6450.625
866.96777	6441.125
870.78668	6436.725
874.60293	6462.925
878.41652	6500.725
882.22745	6555.525
886.03573	6585.325
889.84136	6592.125
893.64433	6572.125
897.44466	6552.025
901.24235	6541.625
905.0374	6509.625
908.8298	6489.425
912.61957	6438.125
916.40671	6450.225
920.19121	6463.325
923.97308	6560.825
927.75233	6647.825
931.52895	6684.725
935.30295	6614.325
939.07433	6468.425
942.84309	6365.325
946.60924	6330.725
950.37278	6291.825
954.13371	6293.825
957.89203	6301.225
961.64774	6314.425
965.40086	6304.725
969.15137	6281.925
972.89929	6266.125
976.64461	6276.225
980.38733	6286.125
984.12747	6313.325
987.86502	6320.825
991.59999	6390.625
995.33237	6432.825
999.06217	6489.725
1002.78939	6630.125
1006.51404	6790.725
1010.23611	6925.625
1013.95561	6969.725
1017.67255	6973.125
1021.38692	6907.825
1025.09872	6802.425
1028.80796	6711.425
1032.51465	6674.225
1036.21877	6694.825
1039.92035	6724.625
1043.61937	6788.425
1047.31584	6820.325
1051.00976	6836.625
1054.70114	6819.525
1058.38998	6829.425
1062.07627	6845.425
1065.76003	6911.025
1069.44126	7018.625
1073.11995	7166.325
1076.79611	7346.625
1080.46974	7517.025
1084.14085	7629.925
1087.80943	7761.225
1091.47549	7823.025
1095.13903	7797.025
1098.80005	7708.025
1102.45857	7570.825
1106.11456	7414.825
1109.76805	7340.725
1113.41903	7377.825
1117.06751	7530.625
1120.71348	7763.125
1124.35696	8079.525
1127.99793	8300.325
1131.63641	8130.325
1135.2724	7775.925
1138.90589	7550.025
1142.5369	7391.725
1146.16542	7396.825
1149.79145	7341.225
1153.415	7204.025
1157.03607	7139.425
1160.65467	7184.225
1164.27079	7331.325
1167.88443	7594.725
1171.49561	7991.725
1175.10432	8663.525
1178.71056	9548.525
1182.31434	10338.825
1185.91565	10518.425
1189.51451	10364.325
1193.11091	10073.325
1196.70485	9819.125
1200.29634	9551.325
1203.88538	9310.225
1207.47197	8917.225
1211.05612	8551.425
1214.63782	8264.525
1218.21708	8035.325
1221.79391	7825.125
1225.36829	7709.825
1228.94024	7662.025
1232.50976	7653.125
1236.07685	7661.325
1239.6415	7694.025
1243.20374	7715.825
1246.76355	7782.325
1250.32093	7893.525
1253.8759	8067.425
1257.42845	8318.925
1260.97859	8607.425
1264.52631	8854.925
1268.07163	8984.725
1271.61453	9084.825
1275.15503	9117.825
1278.69312	9115.625
1282.22882	9109.325
1285.76211	9257.025
1289.29301	9462.925
1292.82151	9692.825
1296.34761	9948.525
1299.87133	10311.125
1303.39266	10974.825
1306.9116	11998.925
1310.42815	13069.625
1313.94233	13388.925
1317.45412	12714.625
1320.96354	11758.425
1324.47058	10850.025
1327.97525	10151.025
1331.47754	9720.625
1334.97747	9647.325
1338.47502	9793.825
1341.97022	10203.125
1345.46305	10955.025
1348.95352	12000.025
1352.44163	13145.725
1355.92738	14415.225
1359.41078	15980.825
1362.89183	17269.625
1366.37053	16538.125
1369.84688	13912.925
1373.32088	11433.925
1376.79254	10073.225
1380.26186	9433.425
1383.72883	9067.625
1387.19347	8726.925
1390.65578	8429.425
1394.11575	8156.525
1397.57339	7973.625
1401.0287	7823.225
1404.48168	7766.225
1407.93234	7748.925
1411.38068	7842.325
1414.82669	7901.725
1418.27039	7957.325
1421.71177	7909.325
1425.15083	7824.525
1428.58758	7785.825
1432.02203	7814.225
1435.45416	7891.025
1438.88399	7969.925
1442.31151	8024.425
1445.73673	8087.025
1449.15965	8122.425
1452.58027	8097.525
1455.9986	8039.825
1459.41463	8034.625
1462.82837	8116.825
1466.23982	8264.225
1469.64898	8479.225
1473.05586	8643.725
1476.46045	8708.625
1479.86276	8761.325
1483.26279	8919.825
1486.66054	9101.525
1490.05602	9442.425
1493.44922	9952.625
1496.84016	10773.425
1500.22882	12061.825
1503.61521	13694.625
1506.99934	15294.225
1510.38121	16187.425
1513.76081	15904.725
1517.13816	14481.225
1520.51324	12575.825
1523.88607	11092.725
1527.25665	10236.625
1530.62498	9804.625
1533.99105	9589.825
1537.35488	9461.025
1540.71647	9410.625
1544.07581	9295.225
1547.4329	9213.525
1550.78776	9072.925
1554.14038	8964.625
1557.49077	8912.925
1560.83892	9004.225
1564.18484	9223.925
1567.52853	9565.625
1570.86999	9876.525
1574.20922	9990.725
1577.54624	9827.825
1580.88103	9315.325
1584.2136	8671.425
1587.54395	8315.925
1590.87208	8263.625
1594.19801	8523.925
1597.52172	8899.625
1600.84321	9111.025
1604.16251	9016.725
1607.47959	8852.425
1610.79447	8588.125
1614.10715	8169.025
1617.41763	7729.125
1620.7259	7431.325
1624.03199	7253.525
1627.33587	7218.525
1630.63757	7254.225
1633.93707	7503.425
1637.23439	7942.925
1640.52951	8654.925
1643.82246	9682.225
1647.11321	10853.425
1650.40179	11559.625
1653.68819	11171.225
1656.97241	9883.825
1660.25446	8479.525
1663.53433	7503.925
1666.81203	6933.725
1670.08756	6586.325
1673.36092	6412.625
1676.63211	6279.425
1679.90115	6164.425
1683.16801	6107.525
1686.43272	6028.025
1689.69527	5998.725
1692.95567	5973.425
1696.2139	5947.725
1699.46999	5923.425
1702.72392	5915.525
1705.97571	5917.525
1709.22535	5923.025
1712.47284	5923.225
1715.71819	5916.125
1718.96139	5892.525
1722.20246	5887.525
1725.44139	5873.325
1728.67818	5817.725
1731.91284	5790.825
1735.14537	5749.325
1738.37576	5724.225
1741.60403	5705.925
1744.83017	5701.525
1748.05418	5690.925
1751.27607	5681.325
1754.49584	5649.525
1757.71349	5652.825
1760.92903	5626.425
1764.14244	5618.425
1767.35375	5613.525
1770.56294	5592.225
1773.77002	5587.625
1776.97499	5570.425
1780.17785	5527.025
1783.37861	5543.725
1786.57727	5503.525
1789.77382	5497.225
1792.96828	5481.925
1796.16064	5471.725
1799.3509	5459.125
1802.53907	5448.525
1805.72514	5418.925
1808.90913	5445.925
1812.09102	5436.125
1815.27083	5397.625
1818.44856	5396.825
1821.6242	5376.725
1824.79776	5372.325
1827.96924	5371.525
1831.13864	5345.625
1834.30597	5352.425
1837.47122	5342.325
1840.6344	5318.925
1843.7955	5306.725
1846.95454	5290.925
1850.11151	5294.225
1853.26642	5306.925
1856.41926	5302.725
1859.57004	5298.725
1862.71876	5284.725
1865.86542	5280.625
1869.01003	5274.025
1872.15258	5284.425
1875.29308	5263.925
1878.43152	5245.425
1881.56792	5242.725
1884.70227	5231.025
1887.83457	5244.825
1890.96482	5226.725
1894.09304	5209.625
1897.21921	5203.225
1900.34335	5181.425
1903.46544	5194.425
1906.58551	5194.925
1909.70353	5194.425
1912.81953	5181.325
1915.93349	5169.025
1919.04543	5161.325
1922.15534	5159.325
1925.26322	5150.125
1928.36908	5117.425
1931.47292	5134.425
1934.57473	5102.025
1937.67453	5090.225
1940.77232	5087.025
1943.86808	5064.625
1946.96184	5039.625
1950.05358	5031.325
1953.14331	5010.925
1956.23103	4998.025
1959.31675	4994.025
1962.40046	4966.025
1965.48217	4957.525
1968.56188	4941.225
1971.63959	4927.425
1974.7153	4925.925
1977.78901	4904.925
1980.86073	4901.025
1983.93046	4871.025
1986.99819	4855.425
1990.06394	4837.325
1993.1277	4834.825
1996.18947	4807.925
1999.24925	4791.025
2002.30706	4786.025
2005.36288	4769.825
2008.41672	4729.025
2011.46859	4730.725
2014.51848	4703.025
2017.56639	4697.625
2020.61233	4693.825
2023.6563	4682.625
2026.6983	4653.525
2029.73833	4661.125
2032.7764	4630.725
2035.8125	4617.825
2038.84664	4592.325
2041.87881	4598.525
2044.90903	4596.325
2047.93729	4594.225
2050.96359	4582.425
2053.98794	4572.325
2057.01034	4564.025
2060.03078	4564.025
2063.04927	4529.625
2066.06582	4542.525
2069.08042	4536.125
2072.09307	4525.225
2075.10378	4540.325
2078.11255	4529.025
2081.11938	4518.725
2084.12426	4517.425
2087.12722	4521.125
2090.12824	4523.425
2093.12732	4526.425
2096.12447	4530.025
2099.11969	4516.325
2102.11299	4514.025
2105.10435	4528.125
2108.09379	4524.025
2111.08131	4527.725
2114.0669	4522.325
2117.05057	4530.925
2120.03233	4527.425
2123.01216	4518.325
2125.99008	4531.225
2128.96609	4529.325
2131.94018	4546.825
2134.91236	4543.725
2137.88263	4529.225
2140.851	4526.225
2143.81746	4536.625
2146.78201	4541.125
2149.74466	4530.725
2152.7054	4524.225
2155.66425	4521.625
2158.6212	4532.525
2161.57625	4528.525
2164.52941	4532.925
2167.48067	4520.125
2170.43004	4524.225
2173.37752	4498.325
2176.32311	4507.325
2179.26681	4503.625
2182.20863	4511.325
2185.14856	4499.025
2188.08661	4511.925
2191.02278	4501.525
2193.95707	4496.825
2196.88948	4486.325
2199.82001	4501.025
2202.74867	4493.825
2205.67545	4485.425
2208.60037	4480.325
2211.52341	4465.525
2214.44458	4455.225
2217.36388	4442.725
2220.28132	4428.725
2223.1969	4420.525
2226.11061	4405.225
2229.02246	4382.325
2231.93245	4380.825
2234.84058	4382.325
2237.74686	4371.525
2240.65128	4381.825
2243.55385	4376.025
2246.45456	4354.825
2249.35343	4357.725
2252.25044	4346.525
2255.14561	4351.925
2258.03893	4350.525
2260.93041	4352.125
2263.82004	4326.925
2266.70783	4325.925
2269.59378	4316.725
2272.4779	4308.525
2275.36017	4293.825
2278.24061	4288.325
2281.11922	4272.025
2283.996	4256.825
2286.87094	4254.525
2289.74405	4255.625
2292.61534	4245.925
2295.4848	4244.925
2298.35243	4228.925
2301.21824	4226.625
2304.08223	4216.825
2306.94439	4227.225
2309.80474	4223.825
2312.66327	4219.425
2315.51999	4179.125
2318.37489	4189.725
2321.22797	4202.425
2324.07925	4182.725
2326.92871	4169.325
2329.77637	4168.525
2332.62222	4164.825
2335.46626	4157.325
2338.3085	4152.925
2341.14893	4145.825
2343.98756	4146.825
2346.8244	4152.525
2349.65943	4135.625
2352.49267	4156.725
2355.32411	4141.925
2358.15376	4139.625
2360.98161	4158.325
2363.80768	4151.425
2366.63195	4148.225
2369.45444	4144.325
2372.27514	4141.025
2375.09405	4135.625
2377.91118	4132.925
2380.72652	4126.225
2383.54009	4105.525
2386.35187	4090.425
2389.16188	4070.325
2391.97011	4063.725
2394.77657	4050.625
2397.58125	4043.825
2400.38416	4020.925
2403.18529	4026.425
2405.98466	4022.525
2408.78226	4020.225
2411.57809	4009.325
2414.37216	3992.025
2417.16446	3993.725
2419.955	3992.425
2422.74378	4005.525
2425.5308	3995.425
2428.31606	3989.325
2431.09956	3986.625
2433.88131	3984.125
2436.6613	3979.925
2439.43954	3991.325
2442.21603	3991.625
2444.99077	3977.225
2447.76377	3981.125
2450.53501	3985.125
2453.30451	3969.725
2456.07226	3956.925
2458.83827	3973.325
2461.60254	3944.325
2464.36507	3951.225
2467.12586	3933.225
2469.88492	3943.125
2472.64224	3967.125
2475.39782	3940.725
2478.15167	3930.225
2480.90379	3938.625
2483.65417	3941.425
2486.40283	3948.825
2489.14976	3951.625
2491.89497	3947.325
2494.63845	3954.725
2497.3802	3940.125
2500.12024	3932.325
2502.85855	3921.525
2505.59514	3904.725
2508.33002	3891.825
2511.06318	3878.425
2513.79462	3875.725
2516.52435	3881.325
2519.25237	3852.625
2521.97867	3849.525
2524.70327	3858.325
2527.42616	3846.525
2530.14734	3829.025
2532.86681	3829.725
2535.58458	3841.825
2538.30065	3832.625
2541.01501	3812.625
2543.72768	3827.325
2546.43864	3838.825
2549.14791	3812.725
2551.85548	3819.925
2554.56136	3819.725
2557.26554	3807.725
2559.96803	3807.425
2562.66883	3801.725
2565.36794	3789.925
2568.06536	3775.725
2570.7611	3755.225
2573.45514	3743.825
2576.14751	3752.725
2578.83819	3739.225
2581.52719	3727.225
2584.21451	3703.125
2586.90015	3700.425
2589.58411	3686.225
2592.2664	3701.025
2594.94701	3684.125
2597.62594	3691.225
2600.30321	3677.625
2602.9788	3674.925
2605.65273	3663.925
2608.32498	3653.325
2610.99557	3662.725
2613.66449	3648.625
2616.33175	3646.725
2618.99734	3657.625
2621.66128	3647.025
2624.32355	3638.125
2626.98416	3641.625
2629.64311	3623.625
2632.30041	3609.625
2634.95605	3606.825
2637.61004	3590.825
2640.26238	3596.125
2642.91306	3584.725
2645.56209	3575.425
2648.20948	3582.725
2650.85521	3570.225
2653.4993	3582.425
2656.14175	3576.525
2658.78255	3590.825
2661.42171	3585.825
2664.05923	3592.925
2666.6951	3601.825
2669.32934	3609.725
2671.96194	3597.125
2674.59291	3583.725
2677.22224	3588.625
2679.84993	3595.625
2682.476	3584.125
2685.10043	3578.425
2687.72324	3565.425
2690.34441	3554.225
2692.96396	3568.725
2695.58188	3568.525
2698.19818	3555.525
2700.81285	3566.625
2703.4259	3569.225
2706.03733	3579.525
2708.64714	3565.025
2711.25533	3552.025
2713.86191	3555.025
2716.46687	3550.225
2719.07021	3554.925
2721.67194	3548.025
2724.27206	3566.825
2726.87057	3552.025
2729.46747	3560.825
2732.06276	3552.425
2734.65644	3533.425
2737.24852	3546.425
2739.83899	3532.925
2742.42786	3538.725
2745.01513	3535.625
2747.60079	3526.225
2750.18486	3511.025
2752.76733	3509.025
2755.3482	3515.025
2757.92747	3494.225
2760.50515	3492.625
2763.08123	3498.725
2765.65573	3470.825
2768.22863	3448.625
2770.79994	3468.825
2773.36967	3457.725
2775.9378	3451.825
2778.50435	3447.325
2781.06932	3440.325
2783.6327	3426.725
2786.1945	3432.825
2788.75471	3424.725
2791.31335	3422.925
2793.87041	3410.925
2796.42589	3400.225
2798.97979	3400.625
2801.53212	3395.225
2804.08288	3398.225
2806.63206	3391.525
2809.17967	3391.025
2811.72571	3380.425
2814.27018	3391.025
2816.81308	3384.325
2819.35442	3354.825
2821.89419	3351.225
2824.43239	3354.425
2826.96904	3339.125
2829.50412	3337.425
2832.03763	3327.825
2834.56959	3326.125
2837.1	3313.325
2839.62884	3307.025
2842.15613	3312.125
2844.68186	3304.025
2847.20604	3302.125
2849.72867	3296.625
2852.24974	3279.625
2854.76927	3275.125
2857.28724	3272.125
2859.80367	3270.625
2862.31855	3259.325
2864.83189	3244.925
2867.34368	3271.525
2869.85393	3268.425
2872.36264	3251.825
2874.8698	3261.725
2877.37543	3248.625
2879.87952	3242.725
2882.38207	3245.725
2884.88308	3232.925
2887.38256	3238.125
2889.88051	3222.025
2892.37692	3215.225
2894.8718	3212.525
2897.36515	3213.825
2899.85698	3225.025
2902.34727	3212.525
2904.83604	3222.025
2907.32328	3215.325
2909.809	3216.625
2912.29319	3236.125
2914.77587	3228.925
2917.25702	3232.725
2919.73665	3232.425
2922.21476	3241.925
2924.69136	3221.925
2927.16644	3219.325
2929.64	3209.225
2932.11205	3210.125
2934.58258	3200.725
2937.05161	3189.125
2939.51912	3187.025
2941.98513	3170.925
2944.44962	3171.525
2946.91261	3174.225
2949.37409	3183.025
2951.83407	3165.625
2954.29254	3168.225
2956.74951	3161.725
2959.20498	3146.925
2961.65895	3145.325
2964.11142	3133.725
2966.56239	3137.225
2969.01186	3149.925
2971.45984	3136.925
2973.90632	3132.225
2976.35131	3134.825
2978.7948	3122.525
2981.23681	3104.225
2983.67732	3104.625
2986.11635	3114.225
2988.55388	3108.325
2990.98993	3100.525
2993.4245	3090.125
2995.85758	3093.325
2998.28917	3076.125
3000.71928	3067.925
3003.14791	3061.525
3005.57506	3043.325
3008.00073	3038.725
3010.42493	3032.725
3012.84764	3019.125
3015.26888	3019.625
3017.68865	3024.525
3020.10694	3010.925
3022.52376	3002.525
3024.9391	2997.025
3027.35298	2980.825
3029.76539	2971.825
3032.17632	2962.325
3034.5858	2960.325
3036.9938	2955.325
3039.40034	2950.325
3041.80542	2957.425
3044.20903	2947.525
3046.61118	2936.825
3049.01187	2912.925
3051.4111	2920.125
3053.80888	2918.725
3056.20519	2915.825
3058.60005	2889.525
3060.99345	2896.725
3063.3854	2899.125
3065.7759	2875.125
3068.16494	2891.525
3070.55254	2864.525
3072.93868	2857.825
3075.32338	2856.525
3077.70662	2845.325
3080.08842	2831.925
3082.46878	2835.425
3084.84769	2825.725
3087.22515	2810.525
3089.60118	2814.125
3091.97576	2818.325
3094.3489	2803.925
3096.72061	2812.125
3099.09087	2817.525
3101.4597	2807.125
3103.82709	2797.525
3106.19305	2788.825
3108.55757	2790.825
3110.92066	2778.825
3113.28232	2781.025
3115.64255	2770.425
3118.00134	2760.525
3120.35871	2752.425
3122.71466	2758.725
3125.06917	2748.225
3127.42226	2739.825
3129.77393	2742.425
3132.12417	2727.525
3134.47299	2726.325
3136.82039	2725.025
3139.16636	2718.525
3141.51092	2731.225
3143.85406	2716.525
3146.19579	2708.625
3148.53609	2715.025
3150.87499	2710.725
3153.21246	2700.725
3155.54853	2710.225
3157.88318	2714.725
3160.21642	2716.825
3162.54826	2699.625
3164.87868	2697.425
3167.2077	2697.225
3169.5353	2695.325
3171.86151	2689.525
3174.18631	2685.425
3176.5097	2684.625
3178.83169	2663.725
3181.15228	2664.225
3183.47147	2653.225
3185.78926	2658.625
3188.10565	2646.925
3190.42065	2634.025
3192.73424	2644.225
3195.04645	2632.325
3197.35725	2620.225
3199.66667	2631.825
3201.97469	2615.325
3204.28132	2618.225
3206.58656	2622.325
3208.8904	2619.325
3211.19287	2615.625
3213.49394	2628.425
3215.79363	2630.125
3218.09193	2631.425
3220.38884	2609.025
3222.68438	2612.625
3224.97853	2614.625
3227.2713	2620.925
3229.56269	2611.425
3231.8527	2616.225
3234.14133	2594.525
3236.42858	2581.825
3238.71446	2583.525
3240.99896	2584.925
3243.28209	2575.325
3245.56384	2581.725
3247.84423	2568.325
3250.12324	2551.825
3252.40088	2544.525
3254.67715	2551.525
3256.95205	2537.325
3259.22558	2537.725
3261.49775	2548.425
3263.76855	2557.525
3266.03799	2548.625
3268.30606	2541.325
3270.57277	2541.125
3272.83812	2535.825
3275.10211	2522.125
3277.36474	2522.625
3279.62601	2522.025
3281.88593	2493.625
3284.14448	2503.025
3286.40168	2492.025
3288.65753	2503.525
3290.91202	2495.125
3293.16516	2488.925
3295.41695	2479.125
3297.66738	2474.025
3299.91647	2453.425
3302.16421	2443.025
3304.4106	2431.325
3306.65564	2410.225
3308.89933	2377.525
3311.14169	2366.525
3313.38269	2362.925
3315.62236	2340.325
3317.86068	2312.625
3320.09766	2297.125
3322.3333	2283.125
3324.5676	2269.325
3326.80056	2246.425
3329.03219	2229.125
3331.26248	1.825
3333.49143	0.025
3335.71905	-1.675
