Data from AgNPs_UA_5uM_CRN_500uM_SU_RamanShift__179__11-59-13-175.txt Node

Date: Thu Aug 04 11:59:13 BST 2022
User: TCL
Spectrometer: QEP01345
Trigger mode: 4
Integration Time (sec): 1.000000E0
Scans to average: 10
Electric dark correction enabled: true
Nonlinearity correction enabled: false
Boxcar width: 0
XAxis mode: Raman Shifts
Number of Pixels in Spectrum: 1044
>>>>>Begin Spectral Data<<<<<
46.04893	0.5875
50.45542	0.0875
54.85868	0.9875
59.25871	-1.4125
63.6555	-57.8125
68.04907	-38.8125
72.43941	-71.2125
76.82654	-54.3125
81.21044	-56.5125
85.59113	-48.9125
89.96862	-73.6125
94.34289	-53.8125
98.71396	-75.1125
103.08183	-58.5125
107.4465	-50.4125
111.80798	-56.9125
116.16626	-43.7125
120.52136	-74.2125
124.87327	-48.6125
129.222	-63.0125
133.56755	-47.8125
137.90993	-62.5125
142.24913	-52.3125
146.58517	-41.0125
150.91804	-40.4125
155.24774	-28.4125
159.57429	-8.7125
163.89768	-5.1125
168.21792	43.9875
172.53501	59.1875
176.84895	144.4875
181.15975	280.1875
185.46741	430.6875
189.77193	613.7875
194.07331	912.1875
198.37157	1203.2875
202.6667	1489.7875
206.9587	1820.2875
211.24758	2149.1875
215.53334	2476.5875
219.81599	2839.9875
224.09553	3249.1875
228.37195	3692.7875
232.64527	4168.5875
236.91549	4651.2875
241.18261	4997.6875
245.44663	5299.5875
249.70755	5469.0875
253.96539	5611.8875
258.22014	5737.1875
262.4718	5791.9875
266.72039	5821.0875
270.96589	5791.9875
275.20832	5686.9875
279.44768	5593.9875
283.68397	5463.7875
287.91719	5412.2875
292.14735	5452.5875
296.37445	5618.2875
300.59849	5896.7875
304.81948	6251.6875
309.03742	6627.8875
313.25231	6839.1875
317.46415	6801.7875
321.67296	6391.5875
325.87872	5987.8875
330.08145	5782.6875
334.28114	5748.6875
338.47781	5830.5875
342.67145	5971.9875
346.86207	6234.3875
351.04966	6589.1875
355.23424	6985.3875
359.4158	7275.7875
363.59435	7306.1875
367.76989	7242.4875
371.94243	7086.8875
376.11196	6976.9875
380.27849	6935.3875
384.44203	6847.7875
388.60257	6801.2875
392.76012	6803.0875
396.91468	6933.2875
401.06626	7072.2875
405.21485	7116.1875
409.36047	6964.3875
413.50311	6633.3875
417.64277	6324.6875
421.77947	6112.2875
425.9132	6036.5875
430.04396	6050.3875
434.17176	6106.4875
438.2966	6199.6875
442.41849	6268.6875
446.53742	6389.7875
450.6534	6500.1875
454.76644	6563.7875
458.87653	6594.3875
462.98368	6555.9875
467.08789	6482.3875
471.18916	6388.9875
475.2875	6267.9875
479.38291	6174.1875
483.4754	6079.0875
487.56496	6039.3875
491.6516	5989.5875
495.73531	6008.3875
499.81612	6025.8875
503.89401	6109.2875
507.96899	6161.3875
512.04106	6259.3875
516.11023	6363.1875
520.1765	6451.4875
524.23987	6483.9875
528.30034	6456.4875
532.35792	6396.1875
536.41261	6338.9875
540.46441	6235.4875
544.51333	6191.9875
548.55936	6227.2875
552.60252	6375.4875
556.64279	6478.7875
560.6802	6592.7875
564.71473	6732.4875
568.7464	6935.5875
572.7752	6912.9875
576.80114	6569.8875
580.82422	6344.6875
584.84444	6238.1875
588.86181	6229.1875
592.87633	6254.8875
596.888	6390.6875
600.89682	6737.7875
604.9028	7726.0875
608.90594	9833.9875
612.90624	12228.1875
616.90371	11345.0875
620.89834	8233.1875
624.89015	6899.9875
628.87913	6705.0875
632.86528	6854.2875
636.84862	7004.4875
640.82913	6872.2875
644.80683	6534.8875
648.78172	6330.2875
652.75379	6381.0875
656.72306	6621.2875
660.68952	6865.5875
664.65319	6774.1875
668.61405	6544.0875
672.57211	6463.9875
676.52738	6463.4875
680.47986	6378.9875
684.42955	6256.1875
688.37646	6232.0875
692.32058	6242.5875
696.26192	6316.5875
700.20048	6413.0875
704.13626	6447.0875
708.06928	6408.0875
711.99952	6381.9875
715.927	6348.6875
719.85171	6370.0875
723.77365	6438.8875
727.69284	6417.7875
731.60928	6379.3875
735.52295	6385.8875
739.43388	6408.4875
743.34206	6427.5875
747.24749	6456.5875
751.15017	6472.0875
755.05012	6535.4875
758.94733	6900.2875
762.8418	7774.4875
766.73354	9096.8875
770.62254	10096.1875
774.50882	10188.2875
778.39237	9687.9875
782.27321	8740.6875
786.15132	7691.1875
790.02671	7017.3875
793.89938	6624.6875
797.76935	6497.5875
801.6366	6399.9875
805.50115	6362.3875
809.36299	6364.5875
813.22213	6370.8875
817.07857	6381.6875
820.93231	6360.6875
824.78336	6396.4875
828.63172	6400.5875
832.47738	6415.9875
836.32036	6405.7875
840.16066	6383.2875
843.99827	6376.1875
847.8332	6351.2875
851.66546	6394.0875
855.49504	6359.3875
859.32195	6415.3875
863.1462	6392.9875
866.96777	6394.1875
870.78668	6369.9875
874.60293	6424.2875
878.41652	6420.6875
882.22745	6503.9875
886.03573	6523.2875
889.84136	6532.3875
893.64433	6527.9875
897.44466	6529.3875
901.24235	6507.9875
905.0374	6499.1875
908.8298	6454.2875
912.61957	6421.4875
916.40671	6374.9875
920.19121	6425.6875
923.97308	6511.1875
927.75233	6579.1875
931.52895	6655.5875
935.30295	6614.6875
939.07433	6458.9875
942.84309	6342.8875
946.60924	6324.1875
950.37278	6267.7875
954.13371	6263.2875
957.89203	6268.6875
961.64774	6294.8875
965.40086	6260.5875
969.15137	6250.8875
972.89929	6290.5875
976.64461	6276.8875
980.38733	6290.9875
984.12747	6280.4875
987.86502	6314.4875
991.59999	6330.1875
995.33237	6406.0875
999.06217	6463.4875
1002.78939	6574.3875
1006.51404	6694.8875
1010.23611	6822.5875
1013.95561	6861.7875
1017.67255	6876.3875
1021.38692	6846.8875
1025.09872	6769.8875
1028.80796	6692.0875
1032.51465	6694.7875
1036.21877	6690.2875
1039.92035	6729.3875
1043.61937	6754.2875
1047.31584	6809.2875
1051.00976	6833.1875
1054.70114	6834.8875
1058.38998	6843.9875
1062.07627	6859.9875
1065.76003	6880.5875
1069.44126	6938.0875
1073.11995	7030.4875
1076.79611	7178.9875
1080.46974	7323.8875
1084.14085	7476.1875
1087.80943	7623.4875
1091.47549	7658.8875
1095.13903	7588.2875
1098.80005	7457.5875
1102.45857	7348.8875
1106.11456	7324.0875
1109.76805	7268.3875
1113.41903	7372.1875
1117.06751	7540.4875
1120.71348	7801.7875
1124.35696	8184.2875
1127.99793	8469.4875
1131.63641	8315.0875
1135.2724	7900.0875
1138.90589	7600.4875
1142.5369	7400.2875
1146.16542	7287.1875
1149.79145	7194.1875
1153.415	7155.6875
1157.03607	7149.0875
1160.65467	7232.6875
1164.27079	7419.5875
1167.88443	7676.2875
1171.49561	8095.0875
1175.10432	8698.8875
1178.71056	9594.2875
1182.31434	10398.1875
1185.91565	10649.8875
1189.51451	10493.6875
1193.11091	10235.6875
1196.70485	9988.0875
1200.29634	9783.5875
1203.88538	9494.5875
1207.47197	9052.5875
1211.05612	8633.9875
1214.63782	8225.3875
1218.21708	7948.8875
1221.79391	7803.4875
1225.36829	7730.5875
1228.94024	7731.8875
1232.50976	7725.6875
1236.07685	7763.9875
1239.6415	7775.8875
1243.20374	7804.0875
1246.76355	7848.6875
1250.32093	7902.7875
1253.8759	7994.7875
1257.42845	8159.2875
1260.97859	8368.8875
1264.52631	8602.9875
1268.07163	8771.0875
1271.61453	8902.1875
1275.15503	8946.8875
1278.69312	8938.9875
1282.22882	8997.1875
1285.76211	9193.8875
1289.29301	9456.6875
1292.82151	9717.4875
1296.34761	9946.1875
1299.87133	10352.6875
1303.39266	11059.2875
1306.9116	12179.1875
1310.42815	13465.8875
1313.94233	13866.0875
1317.45412	13091.5875
1320.96354	11912.5875
1324.47058	10902.6875
1327.97525	10164.9875
1331.47754	9766.1875
1334.97747	9646.6875
1338.47502	9776.9875
1341.97022	10163.8875
1345.46305	10877.2875
1348.95352	11960.2875
1352.44163	13187.5875
1355.92738	14571.3875
1359.41078	16226.5875
1362.89183	17723.3875
1366.37053	17042.1875
1369.84688	14177.7875
1373.32088	11555.8875
1376.79254	10139.1875
1380.26186	9506.2875
1383.72883	9099.2875
1387.19347	8700.2875
1390.65578	8343.8875
1394.11575	8129.4875
1397.57339	7924.8875
1401.0287	7828.8875
1404.48168	7796.2875
1407.93234	7808.8875
1411.38068	7852.7875
1414.82669	7915.6875
1418.27039	8002.9875
1421.71177	7991.9875
1425.15083	7919.2875
1428.58758	7817.4875
1432.02203	7833.9875
1435.45416	7933.5875
1438.88399	7924.6875
1442.31151	7935.7875
1445.73673	8010.3875
1449.15965	8052.1875
1452.58027	8081.4875
1455.9986	8053.0875
1459.41463	8088.8875
1462.82837	8175.1875
1466.23982	8350.5875
1469.64898	8588.0875
1473.05586	8713.6875
1476.46045	8813.0875
1479.86276	8881.6875
1483.26279	8968.1875
1486.66054	9159.8875
1490.05602	9438.6875
1493.44922	9973.9875
1496.84016	10851.5875
1500.22882	12211.5875
1503.61521	13939.1875
1506.99934	15734.1875
1510.38121	16920.7875
1513.76081	16816.3875
1517.13816	15259.1875
1520.51324	13088.1875
1523.88607	11400.5875
1527.25665	10352.0875
1530.62498	9880.6875
1533.99105	9643.7875
1537.35488	9534.1875
1540.71647	9453.8875
1544.07581	9352.2875
1547.4329	9220.6875
1550.78776	9122.8875
1554.14038	9016.5875
1557.49077	8984.5875
1560.83892	9063.9875
1564.18484	9303.1875
1567.52853	9625.7875
1570.86999	9948.8875
1574.20922	10077.6875
1577.54624	9983.0875
1580.88103	9461.5875
1584.2136	8790.8875
1587.54395	8419.1875
1590.87208	8373.3875
1594.19801	8515.3875
1597.52172	8893.8875
1600.84321	9060.8875
1604.16251	8885.7875
1607.47959	8723.1875
1610.79447	8532.4875
1614.10715	8243.7875
1617.41763	7923.5875
1620.7259	7649.3875
1624.03199	7504.6875
1627.33587	7427.5875
1630.63757	7478.4875
1633.93707	7716.8875
1637.23439	8140.8875
1640.52951	8855.2875
1643.82246	9831.4875
1647.11321	10989.8875
1650.40179	11688.7875
1653.68819	11376.3875
1656.97241	10089.3875
1660.25446	8689.1875
1663.53433	7711.0875
1666.81203	7113.7875
1670.08756	6767.1875
1673.36092	6571.7875
1676.63211	6424.1875
1679.90115	6330.3875
1683.16801	6267.6875
1686.43272	6170.8875
1689.69527	6131.8875
1692.95567	6066.2875
1696.2139	6034.7875
1699.46999	5991.1875
1702.72392	6002.8875
1705.97571	6012.6875
1709.22535	5983.7875
1712.47284	6034.5875
1715.71819	6041.1875
1718.96139	6001.8875
1722.20246	6000.9875
1725.44139	5955.3875
1728.67818	5941.7875
1731.91284	5894.6875
1735.14537	5878.3875
1738.37576	5826.6875
1741.60403	5816.4875
1744.83017	5786.2875
1748.05418	5803.6875
1751.27607	5806.1875
1754.49584	5748.4875
1757.71349	5726.3875
1760.92903	5721.3875
1764.14244	5682.1875
1767.35375	5689.1875
1770.56294	5660.8875
1773.77002	5647.4875
1776.97499	5672.4875
1780.17785	5632.5875
1783.37861	5623.3875
1786.57727	5646.3875
1789.77382	5592.1875
1792.96828	5606.0875
1796.16064	5607.6875
1799.3509	5586.9875
1802.53907	5614.8875
1805.72514	5557.7875
1808.90913	5557.7875
1812.09102	5559.2875
1815.27083	5532.8875
1818.44856	5520.6875
1821.6242	5511.3875
1824.79776	5485.5875
1827.96924	5484.0875
1831.13864	5471.7875
1834.30597	5466.9875
1837.47122	5453.8875
1840.6344	5430.0875
1843.7955	5417.5875
1846.95454	5406.3875
1850.11151	5433.9875
1853.26642	5398.4875
1856.41926	5395.5875
1859.57004	5406.8875
1862.71876	5387.5875
1865.86542	5392.2875
1869.01003	5389.5875
1872.15258	5361.2875
1875.29308	5386.9875
1878.43152	5372.1875
1881.56792	5358.9875
1884.70227	5335.2875
1887.83457	5334.3875
1890.96482	5319.9875
1894.09304	5309.5875
1897.21921	5312.6875
1900.34335	5311.3875
1903.46544	5279.0875
1906.58551	5312.7875
1909.70353	5298.2875
1912.81953	5281.5875
1915.93349	5292.8875
1919.04543	5265.0875
1922.15534	5225.8875
1925.26322	5242.2875
1928.36908	5215.1875
1931.47292	5209.0875
1934.57473	5234.1875
1937.67453	5190.1875
1940.77232	5171.2875
1943.86808	5174.3875
1946.96184	5166.8875
1950.05358	5130.2875
1953.14331	5110.5875
1956.23103	5121.7875
1959.31675	5057.8875
1962.40046	5038.9875
1965.48217	5057.2875
1968.56188	5046.1875
1971.63959	5035.6875
1974.7153	5033.1875
1977.78901	5018.5875
1980.86073	5004.6875
1983.93046	4964.1875
1986.99819	4882.4875
1990.06394	4907.0875
1993.1277	4922.1875
1996.18947	4901.4875
1999.24925	4859.1875
2002.30706	4864.7875
2005.36288	4858.2875
2008.41672	4842.3875
2011.46859	4813.0875
2014.51848	4787.6875
2017.56639	4783.8875
2020.61233	4766.3875
2023.6563	4757.0875
2026.6983	4712.2875
2029.73833	4724.0875
2032.7764	4716.2875
2035.8125	4681.2875
2038.84664	4683.1875
2041.87881	4663.0875
2044.90903	4683.1875
2047.93729	4669.8875
2050.96359	4635.6875
2053.98794	4646.6875
2057.01034	4650.3875
2060.03078	4616.1875
2063.04927	4622.3875
2066.06582	4617.5875
2069.08042	4600.0875
2072.09307	4584.5875
2075.10378	4592.4875
2078.11255	4586.6875
2081.11938	4585.9875
2084.12426	4587.4875
2087.12722	4588.8875
2090.12824	4575.4875
2093.12732	4607.6875
2096.12447	4599.4875
2099.11969	4584.1875
2102.11299	4578.8875
2105.10435	4603.6875
2108.09379	4587.9875
2111.08131	4569.9875
2114.0669	4570.0875
2117.05057	4585.3875
2120.03233	4572.5875
2123.01216	4605.1875
2125.99008	4595.9875
2128.96609	4589.0875
2131.94018	4612.3875
2134.91236	4588.1875
2137.88263	4597.1875
2140.851	4607.5875
2143.81746	4614.9875
2146.78201	4588.6875
2149.74466	4580.6875
2152.7054	4596.4875
2155.66425	4601.8875
2158.6212	4592.4875
2161.57625	4559.8875
2164.52941	4539.1875
2167.48067	4562.4875
2170.43004	4539.8875
2173.37752	4559.8875
2176.32311	4552.0875
2179.26681	4560.8875
2182.20863	4559.1875
2185.14856	4550.7875
2188.08661	4547.5875
2191.02278	4568.4875
2193.95707	4529.0875
2196.88948	4516.3875
2199.82001	4534.1875
2202.74867	4509.3875
2205.67545	4527.9875
2208.60037	4522.7875
2211.52341	4516.1875
2214.44458	4492.3875
2217.36388	4477.6875
2220.28132	4473.9875
2223.1969	4439.2875
2226.11061	4439.5875
2229.02246	4433.5875
2231.93245	4444.1875
2234.84058	4419.5875
2237.74686	4404.3875
2240.65128	4399.2875
2243.55385	4388.9875
2246.45456	4381.3875
2249.35343	4383.9875
2252.25044	4366.7875
2255.14561	4375.2875
2258.03893	4366.9875
2260.93041	4358.7875
2263.82004	4347.6875
2266.70783	4358.0875
2269.59378	4337.8875
2272.4779	4298.1875
2275.36017	4303.3875
2278.24061	4296.0875
2281.11922	4269.5875
2283.996	4279.6875
2286.87094	4257.6875
2289.74405	4278.8875
2292.61534	4251.9875
2295.4848	4249.3875
2298.35243	4238.2875
2301.21824	4238.0875
2304.08223	4223.2875
2306.94439	4235.9875
2309.80474	4229.0875
2312.66327	4232.9875
2315.51999	4197.6875
2318.37489	4207.7875
2321.22797	4180.4875
2324.07925	4183.5875
2326.92871	4161.4875
2329.77637	4156.9875
2332.62222	4159.2875
2335.46626	4132.1875
2338.3085	4117.5875
2341.14893	4147.9875
2343.98756	4146.9875
2346.8244	4124.3875
2349.65943	4103.2875
2352.49267	4128.7875
2355.32411	4113.5875
2358.15376	4113.7875
2360.98161	4111.1875
2363.80768	4108.8875
2366.63195	4100.5875
2369.45444	4117.8875
2372.27514	4095.0875
2375.09405	4115.8875
2377.91118	4071.5875
2380.72652	4074.0875
2383.54009	4059.2875
2386.35187	4065.8875
2389.16188	4035.0875
2391.97011	4030.5875
2394.77657	4017.9875
2397.58125	4019.6875
2400.38416	4023.5875
2403.18529	4002.1875
2405.98466	3969.6875
2408.78226	3992.4875
2411.57809	3973.9875
2414.37216	3965.9875
2417.16446	3963.0875
2419.955	3935.6875
2422.74378	3955.8875
2425.5308	3927.4875
2428.31606	3949.4875
2431.09956	3952.0875
2433.88131	3917.5875
2436.6613	3928.3875
2439.43954	3925.2875
2442.21603	3922.1875
2444.99077	3914.2875
2447.76377	3910.7875
2450.53501	3905.9875
2453.30451	3900.1875
2456.07226	3907.2875
2458.83827	3891.5875
2461.60254	3849.9875
2464.36507	3895.4875
2467.12586	3860.1875
2469.88492	3854.7875
2472.64224	3870.3875
2475.39782	3851.3875
2478.15167	3860.6875
2480.90379	3854.1875
2483.65417	3859.6875
2486.40283	3868.9875
2489.14976	3862.7875
2491.89497	3841.0875
2494.63845	3857.5875
2497.3802	3853.1875
2500.12024	3833.8875
2502.85855	3841.6875
2505.59514	3838.9875
2508.33002	3816.9875
2511.06318	3784.8875
2513.79462	3806.4875
2516.52435	3749.7875
2519.25237	3743.9875
2521.97867	3741.4875
2524.70327	3764.4875
2527.42616	3734.7875
2530.14734	3758.7875
2532.86681	3725.1875
2535.58458	3739.9875
2538.30065	3724.3875
2541.01501	3738.3875
2543.72768	3711.5875
2546.43864	3701.1875
2549.14791	3695.6875
2551.85548	3691.9875
2554.56136	3691.1875
2557.26554	3691.5875
2559.96803	3680.7875
2562.66883	3666.4875
2565.36794	3651.2875
2568.06536	3620.9875
2570.7611	3642.0875
2573.45514	3648.3875
2576.14751	3631.0875
2578.83819	3608.7875
2581.52719	3589.2875
2584.21451	3611.6875
2586.90015	3588.9875
2589.58411	3562.0875
2592.2664	3577.4875
2594.94701	3571.8875
2597.62594	3573.1875
2600.30321	3502.8875
2602.9788	3525.8875
2605.65273	3508.7875
2608.32498	3521.6875
2610.99557	3536.8875
2613.66449	3501.3875
2616.33175	3526.8875
2618.99734	3525.0875
2621.66128	3517.4875
2624.32355	3497.4875
2626.98416	3474.0875
2629.64311	3475.9875
2632.30041	3472.3875
2634.95605	3453.9875
2637.61004	3449.0875
2640.26238	3421.8875
2642.91306	3448.1875
2645.56209	3463.7875
2648.20948	3450.2875
2650.85521	3424.5875
2653.4993	3449.5875
2656.14175	3426.6875
2658.78255	3414.5875
2661.42171	3382.7875
2664.05923	3422.5875
2666.6951	3425.6875
2669.32934	3447.6875
2671.96194	3451.6875
2674.59291	3442.3875
2677.22224	3449.7875
2679.84993	3439.4875
2682.476	3425.5875
2685.10043	3422.1875
2687.72324	3399.5875
2690.34441	3411.3875
2692.96396	3398.2875
2695.58188	3413.2875
2698.19818	3426.1875
2700.81285	3397.1875
2703.4259	3390.4875
2706.03733	3349.9875
2708.64714	3367.0875
2711.25533	3393.8875
2713.86191	3400.2875
2716.46687	3390.3875
2719.07021	3388.7875
2721.67194	3393.3875
2724.27206	3391.0875
2726.87057	3383.3875
2729.46747	3371.3875
2732.06276	3378.4875
2734.65644	3361.5875
2737.24852	3363.1875
2739.83899	3335.2875
2742.42786	3347.6875
2745.01513	3356.9875
2747.60079	3345.7875
2750.18486	3335.2875
2752.76733	3330.9875
2755.3482	3313.8875
2757.92747	3317.7875
2760.50515	3298.7875
2763.08123	3299.7875
2765.65573	3286.3875
2768.22863	3271.4875
2770.79994	3277.9875
2773.36967	3274.8875
2775.9378	3267.9875
2778.50435	3260.9875
2781.06932	3248.9875
2783.6327	3246.5875
2786.1945	3259.0875
2788.75471	3249.8875
2791.31335	3244.5875
2793.87041	3241.9875
2796.42589	3219.8875
2798.97979	3212.8875
2801.53212	3214.3875
2804.08288	3218.3875
2806.63206	3198.9875
2809.17967	3180.8875
2811.72571	3210.5875
2814.27018	3197.4875
2816.81308	3172.2875
2819.35442	3145.7875
2821.89419	3165.1875
2824.43239	3137.9875
2826.96904	3173.8875
2829.50412	3152.3875
2832.03763	3139.6875
2834.56959	3128.2875
2837.1	3130.8875
2839.62884	3142.9875
2842.15613	3138.6875
2844.68186	3143.7875
2847.20604	3110.0875
2849.72867	3105.6875
2852.24974	3103.3875
2854.76927	3065.1875
2857.28724	3037.7875
2859.80367	3091.1875
2862.31855	3100.6875
2864.83189	3088.5875
2867.34368	3087.6875
2869.85393	3103.5875
2872.36264	3065.1875
2874.8698	3067.4875
2877.37543	3091.0875
2879.87952	3069.1875
2882.38207	3049.3875
2884.88308	3064.4875
2887.38256	3058.8875
2889.88051	3054.6875
2892.37692	3046.2875
2894.8718	3027.8875
2897.36515	3051.3875
2899.85698	3049.7875
2902.34727	3024.2875
2904.83604	3054.4875
2907.32328	3055.9875
2909.809	3048.5875
2912.29319	3051.1875
2914.77587	3055.6875
2917.25702	3070.1875
2919.73665	3070.8875
2922.21476	3074.4875
2924.69136	3068.8875
2927.16644	3046.5875
2929.64	3058.3875
2932.11205	3040.6875
2934.58258	3032.2875
2937.05161	3020.2875
2939.51912	3022.1875
2941.98513	3027.9875
2944.44962	3023.2875
2946.91261	2990.0875
2949.37409	3001.1875
2951.83407	2987.6875
2954.29254	2985.1875
2956.74951	2985.0875
2959.20498	2978.7875
2961.65895	2969.0875
2964.11142	2951.6875
2966.56239	2974.9875
2969.01186	2963.3875
2971.45984	2954.4875
2973.90632	2950.1875
2976.35131	2955.8875
2978.7948	2947.9875
2981.23681	2936.3875
2983.67732	2940.8875
2986.11635	2937.6875
2988.55388	2906.3875
2990.98993	2920.3875
2993.4245	2887.9875
2995.85758	2875.1875
2998.28917	2877.8875
3000.71928	2876.4875
3003.14791	2869.5875
3005.57506	2850.5875
3008.00073	2839.2875
3010.42493	2778.8875
3012.84764	2832.4875
3015.26888	2834.6875
3017.68865	2823.6875
3020.10694	2781.7875
3022.52376	2803.0875
3024.9391	2801.4875
3027.35298	2778.4875
3029.76539	2770.1875
3032.17632	2767.0875
3034.5858	2752.6875
3036.9938	2757.5875
3039.40034	2765.9875
3041.80542	2754.7875
3044.20903	2726.6875
3046.61118	2716.7875
3049.01187	2733.3875
3051.4111	2715.9875
3053.80888	2709.5875
3056.20519	2711.3875
3058.60005	2690.7875
3060.99345	2706.4875
3063.3854	2680.8875
3065.7759	2667.5875
3068.16494	2670.4875
3070.55254	2638.7875
3072.93868	2657.9875
3075.32338	2652.7875
3077.70662	2643.1875
3080.08842	2623.8875
3082.46878	2622.8875
3084.84769	2630.4875
3087.22515	2605.7875
3089.60118	2626.4875
3091.97576	2612.9875
3094.3489	2620.0875
3096.72061	2605.7875
3099.09087	2587.4875
3101.4597	2605.7875
3103.82709	2605.5875
3106.19305	2579.9875
3108.55757	2594.7875
3110.92066	2577.6875
3113.28232	2588.5875
3115.64255	2583.3875
3118.00134	2573.1875
3120.35871	2542.2875
3122.71466	2541.0875
3125.06917	2537.3875
3127.42226	2534.3875
3129.77393	2506.8875
3132.12417	2528.9875
3134.47299	2536.7875
3136.82039	2508.0875
3139.16636	2487.0875
3141.51092	2511.6875
3143.85406	2517.2875
3146.19579	2482.3875
3148.53609	2492.4875
3150.87499	2507.3875
3153.21246	2486.7875
3155.54853	2493.9875
3157.88318	2498.2875
3160.21642	2488.3875
3162.54826	2494.8875
3164.87868	2488.4875
3167.2077	2457.9875
3169.5353	2479.9875
3171.86151	2485.4875
3174.18631	2470.6875
3176.5097	2461.1875
3178.83169	2459.9875
3181.15228	2462.8875
3183.47147	2452.7875
3185.78926	2423.8875
3188.10565	2436.4875
3190.42065	2416.9875
3192.73424	2417.7875
3195.04645	2403.7875
3197.35725	2396.1875
3199.66667	2407.8875
3201.97469	2409.6875
3204.28132	2387.8875
3206.58656	2409.6875
3208.8904	2410.8875
3211.19287	2405.6875
3213.49394	2383.1875
3215.79363	2393.6875
3218.09193	2400.3875
3220.38884	2392.5875
3222.68438	2374.3875
3224.97853	2368.1875
3227.2713	2392.4875
3229.56269	2373.7875
3231.8527	2370.8875
3234.14133	2350.5875
3236.42858	2356.4875
3238.71446	2331.3875
3240.99896	2353.1875
3243.28209	2334.5875
3245.56384	2344.1875
3247.84423	2327.0875
3250.12324	2322.9875
3252.40088	2320.7875
3254.67715	2307.2875
3256.95205	2307.4875
3259.22558	2309.7875
3261.49775	2315.8875
3263.76855	2314.4875
3266.03799	2317.5875
3268.30606	2302.6875
3270.57277	2301.9875
3272.83812	2288.2875
3275.10211	2290.3875
3277.36474	2298.8875
3279.62601	2279.2875
3281.88593	2265.8875
3284.14448	2246.4875
3286.40168	2272.6875
3288.65753	2248.5875
3290.91202	2259.4875
3293.16516	2235.2875
3295.41695	2264.9875
3297.66738	2262.0875
3299.91647	2235.9875
3302.16421	2231.3875
3304.4106	2184.6875
3306.65564	2204.2875
3308.89933	2167.5875
3311.14169	2161.9875
3313.38269	2154.0875
3315.62236	2127.1875
3317.86068	2121.2875
3320.09766	2103.9875
3322.3333	2064.9875
3324.5676	2058.4875
3326.80056	2042.9875
3329.03219	2016.1875
3331.26248	-0.3125
3333.49143	-0.4125
3335.71905	0.0875
