Data from AgNPs_UA_5uM_CRN_500uM_SU_RamanShift__139__11-52-33-167.txt Node

Date: Thu Aug 04 11:52:33 BST 2022
User: TCL
Spectrometer: QEP01345
Trigger mode: 4
Integration Time (sec): 1.000000E0
Scans to average: 10
Electric dark correction enabled: true
Nonlinearity correction enabled: false
Boxcar width: 0
XAxis mode: Raman Shifts
Number of Pixels in Spectrum: 1044
>>>>>Begin Spectral Data<<<<<
46.04893	0.4375
50.45542	0.1375
54.85868	0.0375
59.25871	-0.4625
63.6555	-57.6625
68.04907	-39.3625
72.43941	-70.9625
76.82654	-56.4625
81.21044	-56.0625
85.59113	-48.6625
89.96862	-74.9625
94.34289	-55.0625
98.71396	-75.8625
103.08183	-57.6625
107.4465	-48.4625
111.80798	-55.0625
116.16626	-43.4625
120.52136	-73.1625
124.87327	-49.9625
129.222	-61.8625
133.56755	-50.0625
137.90993	-62.0625
142.24913	-48.5625
146.58517	-42.3625
150.91804	-40.3625
155.24774	-29.3625
159.57429	-8.7625
163.89768	-4.5625
168.21792	40.4375
172.53501	60.4375
176.84895	145.7375
181.15975	273.3375
185.46741	428.9375
189.77193	614.3375
194.07331	897.6375
198.37157	1188.7375
202.6667	1471.7375
206.9587	1804.9375
211.24758	2111.9375
215.53334	2444.4375
219.81599	2787.9375
224.09553	3205.4375
228.37195	3638.0375
232.64527	4121.7375
236.91549	4588.3375
241.18261	4970.6375
245.44663	5265.2375
249.70755	5458.5375
253.96539	5617.8375
258.22014	5715.6375
262.4718	5776.5375
266.72039	5801.1375
270.96589	5770.4375
275.20832	5665.2375
279.44768	5538.6375
283.68397	5415.9375
287.91719	5349.6375
292.14735	5379.7375
296.37445	5523.7375
300.59849	5776.8375
304.81948	6092.8375
309.03742	6417.2375
313.25231	6648.8375
317.46415	6580.9375
321.67296	6228.9375
325.87872	5856.9375
330.08145	5689.9375
334.28114	5657.6375
338.47781	5725.6375
342.67145	5871.5375
346.86207	6108.9375
351.04966	6447.5375
355.23424	6803.5375
359.4158	7066.4375
363.59435	7086.5375
367.76989	7049.0375
371.94243	6938.0375
376.11196	6840.9375
380.27849	6793.6375
384.44203	6716.3375
388.60257	6680.3375
392.76012	6689.5375
396.91468	6820.7375
401.06626	6944.1375
405.21485	6990.1375
409.36047	6833.4375
413.50311	6555.2375
417.64277	6313.5375
421.77947	6118.6375
425.9132	6049.8375
430.04396	6037.8375
434.17176	6092.0375
438.2966	6174.4375
442.41849	6285.8375
446.53742	6410.3375
450.6534	6498.3375
454.76644	6574.8375
458.87653	6591.8375
462.98368	6571.8375
467.08789	6513.4375
471.18916	6457.8375
475.2875	6346.6375
479.38291	6258.3375
483.4754	6163.3375
487.56496	6116.4375
491.6516	6072.2375
495.73531	6072.4375
499.81612	6097.2375
503.89401	6178.7375
507.96899	6226.3375
512.04106	6302.8375
516.11023	6406.8375
520.1765	6478.5375
524.23987	6510.2375
528.30034	6510.8375
532.35792	6435.2375
536.41261	6401.7375
540.46441	6323.2375
544.51333	6278.3375
548.55936	6320.6375
552.60252	6443.4375
556.64279	6523.6375
560.6802	6647.0375
564.71473	6759.7375
568.7464	6944.8375
572.7752	6924.5375
576.80114	6621.8375
580.82422	6388.8375
584.84444	6299.6375
588.86181	6274.1375
592.87633	6316.6375
596.888	6440.1375
600.89682	6793.9375
604.9028	7688.5375
608.90594	9550.8375
612.90624	11736.8375
616.90371	10943.3375
620.89834	8134.3375
624.89015	6948.4375
628.87913	6767.6375
632.86528	6902.3375
636.84862	7054.9375
640.82913	6933.8375
644.80683	6626.1375
648.78172	6481.1375
652.75379	6497.9375
656.72306	6727.0375
660.68952	6943.2375
664.65319	6852.7375
668.61405	6662.8375
672.57211	6610.6375
676.52738	6596.4375
680.47986	6513.6375
684.42955	6433.7375
688.37646	6403.2375
692.32058	6392.9375
696.26192	6470.6375
700.20048	6569.2375
704.13626	6600.6375
708.06928	6533.8375
711.99952	6525.3375
715.927	6476.9375
719.85171	6539.8375
723.77365	6563.0375
727.69284	6549.7375
731.60928	6547.8375
735.52295	6516.9375
739.43388	6569.2375
743.34206	6578.1375
747.24749	6617.7375
751.15017	6623.1375
755.05012	6675.5375
758.94733	7009.3375
762.8418	7751.2375
766.73354	8945.0375
770.62254	9846.7375
774.50882	9891.3375
778.39237	9478.7375
782.27321	8636.7375
786.15132	7730.5375
790.02671	7109.6375
793.89938	6748.3375
797.76935	6662.3375
801.6366	6581.8375
805.50115	6540.1375
809.36299	6532.4375
813.22213	6539.0375
817.07857	6550.3375
820.93231	6517.3375
824.78336	6548.9375
828.63172	6579.8375
832.47738	6593.3375
836.32036	6591.6375
840.16066	6568.0375
843.99827	6545.8375
847.8332	6548.5375
851.66546	6548.9375
855.49504	6542.0375
859.32195	6623.6375
863.1462	6595.8375
866.96777	6589.4375
870.78668	6588.3375
874.60293	6623.2375
878.41652	6617.8375
882.22745	6714.6375
886.03573	6735.3375
889.84136	6722.0375
893.64433	6719.0375
897.44466	6682.6375
901.24235	6703.0375
905.0374	6703.2375
908.8298	6662.0375
912.61957	6623.1375
916.40671	6572.8375
920.19121	6630.8375
923.97308	6707.4375
927.75233	6755.6375
931.52895	6823.8375
935.30295	6803.2375
939.07433	6669.3375
942.84309	6551.4375
946.60924	6526.3375
950.37278	6490.1375
954.13371	6492.4375
957.89203	6499.9375
961.64774	6527.2375
965.40086	6489.5375
969.15137	6450.3375
972.89929	6514.3375
976.64461	6498.7375
980.38733	6523.4375
984.12747	6513.0375
987.86502	6531.8375
991.59999	6562.8375
995.33237	6632.5375
999.06217	6721.5375
1002.78939	6799.3375
1006.51404	6930.9375
1010.23611	7046.3375
1013.95561	7098.3375
1017.67255	7110.3375
1021.38692	7084.1375
1025.09872	7033.1375
1028.80796	6942.0375
1032.51465	6933.9375
1036.21877	6917.2375
1039.92035	6978.9375
1043.61937	6998.7375
1047.31584	7050.1375
1051.00976	7075.4375
1054.70114	7083.9375
1058.38998	7070.8375
1062.07627	7067.0375
1065.76003	7121.8375
1069.44126	7200.6375
1073.11995	7284.6375
1076.79611	7427.4375
1080.46974	7551.3375
1084.14085	7699.4375
1087.80943	7810.8375
1091.47549	7862.6375
1095.13903	7786.9375
1098.80005	7700.3375
1102.45857	7609.8375
1106.11456	7573.3375
1109.76805	7503.1375
1113.41903	7548.3375
1117.06751	7718.4375
1120.71348	7931.7375
1124.35696	8280.8375
1127.99793	8535.8375
1131.63641	8395.4375
1135.2724	8054.4375
1138.90589	7771.1375
1142.5369	7599.7375
1146.16542	7542.1375
1149.79145	7442.8375
1153.415	7381.8375
1157.03607	7354.8375
1160.65467	7413.8375
1164.27079	7604.0375
1167.88443	7812.8375
1171.49561	8198.5375
1175.10432	8719.6375
1178.71056	9518.2375
1182.31434	10205.6375
1185.91565	10438.6375
1189.51451	10330.8375
1193.11091	10147.8375
1196.70485	9940.9375
1200.29634	9776.2375
1203.88538	9555.1375
1207.47197	9159.8375
1211.05612	8769.5375
1214.63782	8416.6375
1218.21708	8218.2375
1221.79391	8047.2375
1225.36829	7942.3375
1228.94024	7908.1375
1232.50976	7918.9375
1236.07685	7959.1375
1239.6415	7990.1375
1243.20374	7996.1375
1246.76355	8060.8375
1250.32093	8139.4375
1253.8759	8216.6375
1257.42845	8416.5375
1260.97859	8620.5375
1264.52631	8813.1375
1268.07163	8951.1375
1271.61453	9034.3375
1275.15503	9100.4375
1278.69312	9073.9375
1282.22882	9162.1375
1285.76211	9322.2375
1289.29301	9562.0375
1292.82151	9789.4375
1296.34761	9992.7375
1299.87133	10371.6375
1303.39266	10975.2375
1306.9116	11994.2375
1310.42815	13082.3375
1313.94233	13450.7375
1317.45412	12779.2375
1320.96354	11751.2375
1324.47058	10871.7375
1327.97525	10210.3375
1331.47754	9868.4375
1334.97747	9791.7375
1338.47502	9901.0375
1341.97022	10220.8375
1345.46305	10895.9375
1348.95352	11846.6375
1352.44163	12954.8375
1355.92738	14095.0375
1359.41078	15520.5375
1362.89183	16752.4375
1366.37053	16142.0375
1369.84688	13602.2375
1373.32088	11297.5375
1376.79254	10089.7375
1380.26186	9535.1375
1383.72883	9170.1375
1387.19347	8829.1375
1390.65578	8502.3375
1394.11575	8308.1375
1397.57339	8169.7375
1401.0287	8062.2375
1404.48168	8014.1375
1407.93234	8048.2375
1411.38068	8059.0375
1414.82669	8133.7375
1418.27039	8209.6375
1421.71177	8192.5375
1425.15083	8124.6375
1428.58758	8032.6375
1432.02203	8052.8375
1435.45416	8182.4375
1438.88399	8161.1375
1442.31151	8148.0375
1445.73673	8236.4375
1449.15965	8320.1375
1452.58027	8310.9375
1455.9986	8283.4375
1459.41463	8308.6375
1462.82837	8403.3375
1466.23982	8579.5375
1469.64898	8762.4375
1473.05586	8915.4375
1476.46045	8982.2375
1479.86276	9032.6375
1483.26279	9104.4375
1486.66054	9256.7375
1490.05602	9484.7375
1493.44922	9944.3375
1496.84016	10738.0375
1500.22882	11915.1375
1503.61521	13396.2375
1506.99934	14927.0375
1510.38121	15945.7375
1513.76081	15878.4375
1517.13816	14494.7375
1520.51324	12660.4375
1523.88607	11163.9375
1527.25665	10267.8375
1530.62498	9840.4375
1533.99105	9664.1375
1537.35488	9556.9375
1540.71647	9493.8375
1544.07581	9419.8375
1547.4329	9312.6375
1550.78776	9220.8375
1554.14038	9119.2375
1557.49077	9068.3375
1560.83892	9138.6375
1564.18484	9302.9375
1567.52853	9595.3375
1570.86999	9860.7375
1574.20922	9992.2375
1577.54624	9879.4375
1580.88103	9460.0375
1584.2136	8861.4375
1587.54395	8558.8375
1590.87208	8491.0375
1594.19801	8676.8375
1597.52172	9022.8375
1600.84321	9169.8375
1604.16251	9086.7375
1607.47959	8916.7375
1610.79447	8739.9375
1614.10715	8442.7375
1617.41763	8134.3375
1620.7259	7884.6375
1624.03199	7715.5375
1627.33587	7642.9375
1630.63757	7698.1375
1633.93707	7906.8375
1637.23439	8317.9375
1640.52951	8972.1375
1643.82246	9815.7375
1647.11321	10849.5375
1650.40179	11432.0375
1653.68819	11104.5375
1656.97241	9995.0375
1660.25446	8734.4375
1663.53433	7844.4375
1666.81203	7295.3375
1670.08756	7001.9375
1673.36092	6853.6375
1676.63211	6681.7375
1679.90115	6609.1375
1683.16801	6547.3375
1686.43272	6448.7375
1689.69527	6403.5375
1692.95567	6333.7375
1696.2139	6315.1375
1699.46999	6254.2375
1702.72392	6253.5375
1705.97571	6260.2375
1709.22535	6254.6375
1712.47284	6282.2375
1715.71819	6285.2375
1718.96139	6293.1375
1722.20246	6271.5375
1725.44139	6246.9375
1728.67818	6218.2375
1731.91284	6190.7375
1735.14537	6166.7375
1738.37576	6147.8375
1741.60403	6120.4375
1744.83017	6066.9375
1748.05418	6085.0375
1751.27607	6071.2375
1754.49584	6059.9375
1757.71349	6028.3375
1760.92903	6034.1375
1764.14244	5970.0375
1767.35375	5994.7375
1770.56294	5983.9375
1773.77002	5964.1375
1776.97499	5960.9375
1780.17785	5945.6375
1783.37861	5920.1375
1786.57727	5945.1375
1789.77382	5883.7375
1792.96828	5925.3375
1796.16064	5903.6375
1799.3509	5895.0375
1802.53907	5900.6375
1805.72514	5880.6375
1808.90913	5857.2375
1812.09102	5839.7375
1815.27083	5825.9375
1818.44856	5823.9375
1821.6242	5832.6375
1824.79776	5806.0375
1827.96924	5764.3375
1831.13864	5761.4375
1834.30597	5774.0375
1837.47122	5767.4375
1840.6344	5744.3375
1843.7955	5745.8375
1846.95454	5722.8375
1850.11151	5747.0375
1853.26642	5698.8375
1856.41926	5719.2375
1859.57004	5720.3375
1862.71876	5709.3375
1865.86542	5707.2375
1869.01003	5700.2375
1872.15258	5659.4375
1875.29308	5690.3375
1878.43152	5695.0375
1881.56792	5650.3375
1884.70227	5651.7375
1887.83457	5662.1375
1890.96482	5621.0375
1894.09304	5628.6375
1897.21921	5615.2375
1900.34335	5612.0375
1903.46544	5602.4375
1906.58551	5615.0375
1909.70353	5619.2375
1912.81953	5591.0375
1915.93349	5588.3375
1919.04543	5576.6375
1922.15534	5556.8375
1925.26322	5561.4375
1928.36908	5531.9375
1931.47292	5533.5375
1934.57473	5531.0375
1937.67453	5508.6375
1940.77232	5476.4375
1943.86808	5463.5375
1946.96184	5462.4375
1950.05358	5438.0375
1953.14331	5417.2375
1956.23103	5432.3375
1959.31675	5381.5375
1962.40046	5349.2375
1965.48217	5354.6375
1968.56188	5355.8375
1971.63959	5325.5375
1974.7153	5348.3375
1977.78901	5323.2375
1980.86073	5299.2375
1983.93046	5258.8375
1986.99819	5185.2375
1990.06394	5210.3375
1993.1277	5221.1375
1996.18947	5198.5375
1999.24925	5155.4375
2002.30706	5156.4375
2005.36288	5149.5375
2008.41672	5125.2375
2011.46859	5114.0375
2014.51848	5087.3375
2017.56639	5070.4375
2020.61233	5042.0375
2023.6563	5048.7375
2026.6983	5021.7375
2029.73833	5015.4375
2032.7764	5022.2375
2035.8125	4970.8375
2038.84664	4975.6375
2041.87881	4970.4375
2044.90903	4961.9375
2047.93729	4953.0375
2050.96359	4903.6375
2053.98794	4936.9375
2057.01034	4932.1375
2060.03078	4902.5375
2063.04927	4906.8375
2066.06582	4897.6375
2069.08042	4897.9375
2072.09307	4900.2375
2075.10378	4881.7375
2078.11255	4893.9375
2081.11938	4881.3375
2084.12426	4878.5375
2087.12722	4883.3375
2090.12824	4860.8375
2093.12732	4866.6375
2096.12447	4890.6375
2099.11969	4848.7375
2102.11299	4862.8375
2105.10435	4892.4375
2108.09379	4871.3375
2111.08131	4870.2375
2114.0669	4878.4375
2117.05057	4875.7375
2120.03233	4857.7375
2123.01216	4877.8375
2125.99008	4874.2375
2128.96609	4872.5375
2131.94018	4904.3375
2134.91236	4887.0375
2137.88263	4878.3375
2140.851	4890.4375
2143.81746	4917.2375
2146.78201	4895.9375
2149.74466	4898.6375
2152.7054	4889.2375
2155.66425	4887.9375
2158.6212	4860.6375
2161.57625	4853.2375
2164.52941	4835.6375
2167.48067	4831.8375
2170.43004	4827.8375
2173.37752	4848.1375
2176.32311	4839.1375
2179.26681	4846.9375
2182.20863	4836.2375
2185.14856	4848.4375
2188.08661	4840.0375
2191.02278	4860.8375
2193.95707	4832.6375
2196.88948	4809.3375
2199.82001	4823.4375
2202.74867	4811.0375
2205.67545	4805.0375
2208.60037	4797.6375
2211.52341	4798.8375
2214.44458	4790.4375
2217.36388	4766.4375
2220.28132	4758.3375
2223.1969	4730.0375
2226.11061	4730.1375
2229.02246	4714.7375
2231.93245	4721.9375
2234.84058	4698.9375
2237.74686	4683.6375
2240.65128	4696.0375
2243.55385	4679.5375
2246.45456	4670.5375
2249.35343	4680.6375
2252.25044	4664.7375
2255.14561	4665.0375
2258.03893	4665.0375
2260.93041	4650.2375
2263.82004	4623.2375
2266.70783	4635.4375
2269.59378	4619.4375
2272.4779	4587.1375
2275.36017	4596.8375
2278.24061	4587.0375
2281.11922	4538.3375
2283.996	4564.2375
2286.87094	4539.7375
2289.74405	4553.2375
2292.61534	4537.7375
2295.4848	4536.4375
2298.35243	4521.0375
2301.21824	4523.8375
2304.08223	4514.0375
2306.94439	4512.6375
2309.80474	4502.4375
2312.66327	4504.5375
2315.51999	4482.9375
2318.37489	4481.6375
2321.22797	4458.9375
2324.07925	4454.6375
2326.92871	4458.7375
2329.77637	4431.1375
2332.62222	4423.9375
2335.46626	4407.0375
2338.3085	4397.7375
2341.14893	4423.3375
2343.98756	4420.9375
2346.8244	4396.0375
2349.65943	4390.1375
2352.49267	4394.8375
2355.32411	4395.5375
2358.15376	4390.3375
2360.98161	4384.6375
2363.80768	4358.2375
2366.63195	4384.2375
2369.45444	4399.3375
2372.27514	4380.2375
2375.09405	4399.7375
2377.91118	4354.0375
2380.72652	4342.5375
2383.54009	4349.6375
2386.35187	4344.9375
2389.16188	4308.8375
2391.97011	4307.5375
2394.77657	4294.8375
2397.58125	4276.9375
2400.38416	4272.6375
2403.18529	4271.7375
2405.98466	4249.6375
2408.78226	4258.7375
2411.57809	4255.3375
2414.37216	4233.5375
2417.16446	4230.5375
2419.955	4214.0375
2422.74378	4214.9375
2425.5308	4213.9375
2428.31606	4216.5375
2431.09956	4227.4375
2433.88131	4189.4375
2436.6613	4209.0375
2439.43954	4196.7375
2442.21603	4173.5375
2444.99077	4167.6375
2447.76377	4183.4375
2450.53501	4169.0375
2453.30451	4160.5375
2456.07226	4167.2375
2458.83827	4163.0375
2461.60254	4109.1375
2464.36507	4143.9375
2467.12586	4122.9375
2469.88492	4123.6375
2472.64224	4124.3375
2475.39782	4104.8375
2478.15167	4122.0375
2480.90379	4097.3375
2483.65417	4131.6375
2486.40283	4119.1375
2489.14976	4125.0375
2491.89497	4113.6375
2494.63845	4104.4375
2497.3802	4094.5375
2500.12024	4103.9375
2502.85855	4090.4375
2505.59514	4093.2375
2508.33002	4072.1375
2511.06318	4056.2375
2513.79462	4052.7375
2516.52435	4025.8375
2519.25237	4017.9375
2521.97867	4017.0375
2524.70327	4011.9375
2527.42616	4004.1375
2530.14734	4014.2375
2532.86681	3992.2375
2535.58458	3984.0375
2538.30065	3993.7375
2541.01501	3997.8375
2543.72768	3981.2375
2546.43864	3969.5375
2549.14791	3964.4375
2551.85548	3947.4375
2554.56136	3934.7375
2557.26554	3953.3375
2559.96803	3948.5375
2562.66883	3940.5375
2565.36794	3905.8375
2568.06536	3898.3375
2570.7611	3903.1375
2573.45514	3895.4375
2576.14751	3879.6375
2578.83819	3859.4375
2581.52719	3854.1375
2584.21451	3859.9375
2586.90015	3841.8375
2589.58411	3820.4375
2592.2664	3828.7375
2594.94701	3827.6375
2597.62594	3825.2375
2600.30321	3763.4375
2602.9788	3786.2375
2605.65273	3764.5375
2608.32498	3776.9375
2610.99557	3797.0375
2613.66449	3762.3375
2616.33175	3772.6375
2618.99734	3775.9375
2621.66128	3774.2375
2624.32355	3749.0375
2626.98416	3740.3375
2629.64311	3720.4375
2632.30041	3705.7375
2634.95605	3706.4375
2637.61004	3693.6375
2640.26238	3670.6375
2642.91306	3666.7375
2645.56209	3697.4375
2648.20948	3690.4375
2650.85521	3675.4375
2653.4993	3694.6375
2656.14175	3685.2375
2658.78255	3682.3375
2661.42171	3644.0375
2664.05923	3681.3375
2666.6951	3674.3375
2669.32934	3684.9375
2671.96194	3687.7375
2674.59291	3686.6375
2677.22224	3672.3375
2679.84993	3682.7375
2682.476	3676.3375
2685.10043	3671.3375
2687.72324	3648.0375
2690.34441	3656.8375
2692.96396	3656.8375
2695.58188	3666.6375
2698.19818	3651.4375
2700.81285	3646.0375
2703.4259	3631.0375
2706.03733	3605.0375
2708.64714	3610.6375
2711.25533	3631.8375
2713.86191	3622.1375
2716.46687	3631.8375
2719.07021	3638.9375
2721.67194	3635.7375
2724.27206	3645.8375
2726.87057	3631.4375
2729.46747	3624.6375
2732.06276	3614.7375
2734.65644	3605.1375
2737.24852	3622.0375
2739.83899	3579.9375
2742.42786	3609.9375
2745.01513	3605.2375
2747.60079	3579.2375
2750.18486	3578.6375
2752.76733	3578.3375
2755.3482	3558.7375
2757.92747	3572.3375
2760.50515	3537.8375
2763.08123	3549.1375
2765.65573	3552.0375
2768.22863	3520.0375
2770.79994	3517.2375
2773.36967	3510.1375
2775.9378	3505.6375
2778.50435	3493.0375
2781.06932	3492.7375
2783.6327	3491.4375
2786.1945	3506.7375
2788.75471	3485.6375
2791.31335	3474.9375
2793.87041	3469.5375
2796.42589	3445.6375
2798.97979	3443.1375
2801.53212	3447.2375
2804.08288	3466.7375
2806.63206	3439.6375
2809.17967	3431.1375
2811.72571	3420.2375
2814.27018	3423.4375
2816.81308	3409.1375
2819.35442	3374.7375
2821.89419	3387.3375
2824.43239	3360.0375
2826.96904	3401.5375
2829.50412	3370.7375
2832.03763	3370.4375
2834.56959	3373.3375
2837.1	3364.0375
2839.62884	3361.4375
2842.15613	3358.6375
2844.68186	3368.5375
2847.20604	3342.0375
2849.72867	3327.9375
2852.24974	3340.9375
2854.76927	3289.8375
2857.28724	3266.8375
2859.80367	3306.9375
2862.31855	3314.7375
2864.83189	3294.6375
2867.34368	3307.3375
2869.85393	3312.9375
2872.36264	3281.3375
2874.8698	3285.0375
2877.37543	3291.5375
2879.87952	3275.6375
2882.38207	3260.2375
2884.88308	3270.0375
2887.38256	3279.8375
2889.88051	3259.0375
2892.37692	3249.8375
2894.8718	3250.8375
2897.36515	3259.8375
2899.85698	3252.3375
2902.34727	3246.7375
2904.83604	3248.7375
2907.32328	3269.8375
2909.809	3259.0375
2912.29319	3259.3375
2914.77587	3267.1375
2917.25702	3271.7375
2919.73665	3283.6375
2922.21476	3274.6375
2924.69136	3280.7375
2927.16644	3258.3375
2929.64	3250.8375
2932.11205	3238.1375
2934.58258	3237.2375
2937.05161	3231.9375
2939.51912	3232.3375
2941.98513	3250.5375
2944.44962	3228.5375
2946.91261	3202.0375
2949.37409	3204.6375
2951.83407	3205.0375
2954.29254	3202.2375
2956.74951	3195.8375
2959.20498	3185.7375
2961.65895	3181.8375
2964.11142	3176.8375
2966.56239	3176.3375
2969.01186	3184.2375
2971.45984	3162.9375
2973.90632	3156.3375
2976.35131	3160.5375
2978.7948	3159.1375
2981.23681	3136.8375
2983.67732	3151.1375
2986.11635	3126.8375
2988.55388	3105.5375
2990.98993	3124.1375
2993.4245	3108.4375
2995.85758	3081.4375
2998.28917	3078.8375
3000.71928	3077.8375
3003.14791	3063.0375
3005.57506	3049.2375
3008.00073	3039.1375
3010.42493	2987.0375
3012.84764	3045.6375
3015.26888	3038.1375
3017.68865	3026.4375
3020.10694	2986.3375
3022.52376	2983.5375
3024.9391	2982.8375
3027.35298	2987.5375
3029.76539	2969.5375
3032.17632	2969.3375
3034.5858	2952.9375
3036.9938	2960.2375
3039.40034	2952.2375
3041.80542	2944.1375
3044.20903	2929.3375
3046.61118	2923.2375
3049.01187	2926.0375
3051.4111	2911.8375
3053.80888	2904.0375
3056.20519	2905.0375
3058.60005	2880.6375
3060.99345	2908.3375
3063.3854	2885.0375
3065.7759	2850.9375
3068.16494	2847.6375
3070.55254	2832.8375
3072.93868	2854.3375
3075.32338	2857.7375
3077.70662	2837.8375
3080.08842	2826.6375
3082.46878	2813.0375
3084.84769	2823.8375
3087.22515	2808.3375
3089.60118	2826.1375
3091.97576	2799.1375
3094.3489	2803.9375
3096.72061	2792.5375
3099.09087	2787.2375
3101.4597	2796.4375
3103.82709	2806.2375
3106.19305	2777.5375
3108.55757	2770.5375
3110.92066	2765.3375
3113.28232	2771.5375
3115.64255	2772.8375
3118.00134	2771.3375
3120.35871	2732.0375
3122.71466	2728.1375
3125.06917	2739.1375
3127.42226	2706.9375
3129.77393	2701.8375
3132.12417	2709.3375
3134.47299	2722.6375
3136.82039	2688.6375
3139.16636	2682.8375
3141.51092	2696.1375
3143.85406	2696.2375
3146.19579	2676.4375
3148.53609	2674.8375
3150.87499	2691.4375
3153.21246	2660.3375
3155.54853	2683.9375
3157.88318	2679.9375
3160.21642	2679.8375
3162.54826	2675.9375
3164.87868	2674.6375
3167.2077	2635.5375
3169.5353	2662.0375
3171.86151	2665.8375
3174.18631	2654.1375
3176.5097	2640.6375
3178.83169	2646.6375
3181.15228	2646.5375
3183.47147	2623.0375
3185.78926	2612.1375
3188.10565	2616.9375
3190.42065	2580.8375
3192.73424	2605.6375
3195.04645	2594.3375
3197.35725	2575.3375
3199.66667	2582.8375
3201.97469	2591.3375
3204.28132	2574.4375
3206.58656	2591.2375
3208.8904	2593.0375
3211.19287	2578.4375
3213.49394	2557.7375
3215.79363	2568.8375
3218.09193	2577.0375
3220.38884	2556.0375
3222.68438	2561.7375
3224.97853	2552.2375
3227.2713	2567.0375
3229.56269	2548.0375
3231.8527	2548.6375
3234.14133	2538.8375
3236.42858	2528.4375
3238.71446	2510.0375
3240.99896	2528.5375
3243.28209	2511.1375
3245.56384	2501.6375
3247.84423	2496.6375
3250.12324	2500.5375
3252.40088	2499.7375
3254.67715	2477.7375
3256.95205	2479.0375
3259.22558	2496.6375
3261.49775	2492.1375
3263.76855	2482.2375
3266.03799	2485.4375
3268.30606	2490.2375
3270.57277	2466.1375
3272.83812	2450.4375
3275.10211	2460.3375
3277.36474	2474.4375
3279.62601	2448.1375
3281.88593	2438.4375
3284.14448	2421.8375
3286.40168	2444.8375
3288.65753	2425.8375
3290.91202	2417.4375
3293.16516	2400.2375
3295.41695	2416.0375
3297.66738	2428.8375
3299.91647	2390.7375
3302.16421	2388.9375
3304.4106	2349.6375
3306.65564	2368.5375
3308.89933	2323.8375
3311.14169	2317.7375
3313.38269	2321.0375
3315.62236	2282.3375
3317.86068	2264.2375
3320.09766	2262.3375
3322.3333	2220.1375
3324.5676	2214.8375
3326.80056	2177.5375
3329.03219	2174.6375
3331.26248	-1.4625
3333.49143	0.3375
3335.71905	1.0375
