Data from AgNPs_UA_5uM_CRN_500uM_SU_RamanShift__189__12-00-53-177.txt Node

Date: Thu Aug 04 12:00:53 BST 2022
User: TCL
Spectrometer: QEP01345
Trigger mode: 4
Integration Time (sec): 1.000000E0
Scans to average: 10
Electric dark correction enabled: true
Nonlinearity correction enabled: false
Boxcar width: 0
XAxis mode: Raman Shifts
Number of Pixels in Spectrum: 1044
>>>>>Begin Spectral Data<<<<<
46.04893	0.425
50.45542	0.425
54.85868	-0.675
59.25871	-1.075
63.6555	-57.675
68.04907	-38.875
72.43941	-69.975
76.82654	-57.075
81.21044	-57.675
85.59113	-48.075
89.96862	-73.675
94.34289	-56.775
98.71396	-76.675
103.08183	-58.675
107.4465	-49.175
111.80798	-54.475
116.16626	-42.675
120.52136	-73.275
124.87327	-49.175
129.222	-62.875
133.56755	-47.975
137.90993	-62.775
142.24913	-49.275
146.58517	-42.975
150.91804	-38.875
155.24774	-29.975
159.57429	-9.175
163.89768	-2.975
168.21792	40.625
172.53501	60.525
176.84895	142.225
181.15975	279.325
185.46741	430.125
189.77193	613.525
194.07331	911.725
198.37157	1199.025
202.6667	1486.125
206.9587	1815.525
211.24758	2141.325
215.53334	2476.725
219.81599	2836.525
224.09553	3242.025
228.37195	3699.225
232.64527	4158.225
236.91549	4642.625
241.18261	4995.125
245.44663	5279.025
249.70755	5460.425
253.96539	5600.425
258.22014	5702.525
262.4718	5770.725
266.72039	5801.625
270.96589	5779.825
275.20832	5687.125
279.44768	5572.725
283.68397	5451.825
287.91719	5409.225
292.14735	5428.425
296.37445	5585.125
300.59849	5898.925
304.81948	6244.125
309.03742	6618.125
313.25231	6855.225
317.46415	6807.425
321.67296	6402.625
325.87872	5999.125
330.08145	5788.625
334.28114	5744.825
338.47781	5816.625
342.67145	5964.325
346.86207	6207.025
351.04966	6578.725
355.23424	6986.825
359.4158	7259.925
363.59435	7287.625
367.76989	7218.425
371.94243	7085.425
376.11196	6971.825
380.27849	6877.825
384.44203	6819.225
388.60257	6768.625
392.76012	6789.925
396.91468	6918.625
401.06626	7050.525
405.21485	7096.725
409.36047	6935.325
413.50311	6590.725
417.64277	6301.625
421.77947	6093.125
425.9132	6050.225
430.04396	6019.725
434.17176	6050.125
438.2966	6150.725
442.41849	6254.625
446.53742	6370.925
450.6534	6482.025
454.76644	6528.725
458.87653	6567.825
462.98368	6508.725
467.08789	6448.525
471.18916	6359.925
475.2875	6237.025
479.38291	6130.425
483.4754	6036.925
487.56496	5994.625
491.6516	5958.325
495.73531	5972.325
499.81612	5991.825
503.89401	6080.625
507.96899	6134.025
512.04106	6223.425
516.11023	6331.625
520.1765	6421.125
524.23987	6444.225
528.30034	6428.025
532.35792	6359.925
536.41261	6314.825
540.46441	6198.125
544.51333	6153.025
548.55936	6222.525
552.60252	6339.125
556.64279	6432.025
560.6802	6564.725
564.71473	6714.225
568.7464	6912.625
572.7752	6873.225
576.80114	6559.925
580.82422	6319.725
584.84444	6200.825
588.86181	6200.325
592.87633	6217.925
596.888	6355.025
600.89682	6723.025
604.9028	7700.025
608.90594	9831.825
612.90624	12237.725
616.90371	11333.125
620.89834	8203.725
624.89015	6871.625
628.87913	6667.325
632.86528	6819.825
636.84862	6985.625
640.82913	6838.825
644.80683	6482.925
648.78172	6324.825
652.75379	6348.525
656.72306	6584.725
660.68952	6833.925
664.65319	6740.825
668.61405	6498.725
672.57211	6442.225
676.52738	6442.825
680.47986	6323.025
684.42955	6250.825
688.37646	6189.925
692.32058	6204.925
696.26192	6291.925
700.20048	6369.325
704.13626	6421.825
708.06928	6358.425
711.99952	6315.025
715.927	6311.525
719.85171	6334.425
723.77365	6387.725
727.69284	6373.225
731.60928	6356.025
735.52295	6317.725
739.43388	6370.525
743.34206	6386.925
747.24749	6413.425
751.15017	6428.325
755.05012	6489.325
758.94733	6880.925
762.8418	7740.325
766.73354	9087.925
770.62254	10081.125
774.50882	10183.225
778.39237	9662.325
782.27321	8712.525
786.15132	7662.925
790.02671	6972.925
793.89938	6572.725
797.76935	6482.225
801.6366	6382.125
805.50115	6339.825
809.36299	6318.725
813.22213	6322.425
817.07857	6329.625
820.93231	6317.125
824.78336	6330.625
828.63172	6353.425
832.47738	6352.425
836.32036	6356.425
840.16066	6317.725
843.99827	6323.625
847.8332	6308.325
851.66546	6321.625
855.49504	6328.025
859.32195	6369.425
863.1462	6351.225
866.96777	6358.225
870.78668	6317.325
874.60293	6352.225
878.41652	6390.025
882.22745	6463.825
886.03573	6478.225
889.84136	6484.025
893.64433	6501.425
897.44466	6469.225
901.24235	6455.325
905.0374	6449.125
908.8298	6389.425
912.61957	6364.725
916.40671	6332.025
920.19121	6379.725
923.97308	6486.025
927.75233	6507.225
931.52895	6591.425
935.30295	6573.825
939.07433	6426.225
942.84309	6303.425
946.60924	6267.625
950.37278	6231.925
954.13371	6227.725
957.89203	6218.725
961.64774	6244.525
965.40086	6231.725
969.15137	6194.325
972.89929	6225.725
976.64461	6215.125
980.38733	6241.925
984.12747	6220.725
987.86502	6252.425
991.59999	6270.825
995.33237	6355.325
999.06217	6423.425
1002.78939	6515.025
1006.51404	6631.725
1010.23611	6751.725
1013.95561	6795.425
1017.67255	6803.725
1021.38692	6778.325
1025.09872	6704.425
1028.80796	6635.425
1032.51465	6607.325
1036.21877	6624.125
1039.92035	6651.125
1043.61937	6708.325
1047.31584	6744.125
1051.00976	6788.125
1054.70114	6804.825
1058.38998	6798.325
1062.07627	6806.025
1065.76003	6842.125
1069.44126	6917.925
1073.11995	6975.325
1076.79611	7110.525
1080.46974	7282.925
1084.14085	7457.425
1087.80943	7554.725
1091.47549	7618.125
1095.13903	7514.525
1098.80005	7395.825
1102.45857	7296.725
1106.11456	7250.125
1109.76805	7196.525
1113.41903	7318.925
1117.06751	7490.625
1120.71348	7756.625
1124.35696	8144.525
1127.99793	8424.125
1131.63641	8257.525
1135.2724	7849.425
1138.90589	7561.825
1142.5369	7355.525
1146.16542	7236.925
1149.79145	7125.525
1153.415	7095.425
1157.03607	7098.925
1160.65467	7188.625
1164.27079	7368.625
1167.88443	7623.625
1171.49561	8051.825
1175.10432	8669.125
1178.71056	9602.025
1182.31434	10408.225
1185.91565	10643.925
1189.51451	10497.225
1193.11091	10223.725
1196.70485	9969.425
1200.29634	9761.425
1203.88538	9467.225
1207.47197	9026.325
1211.05612	8559.025
1214.63782	8144.525
1218.21708	7905.025
1221.79391	7734.425
1225.36829	7630.125
1228.94024	7655.825
1232.50976	7671.925
1236.07685	7693.425
1239.6415	7750.925
1243.20374	7740.125
1246.76355	7790.325
1250.32093	7878.125
1253.8759	7932.425
1257.42845	8112.725
1260.97859	8321.025
1264.52631	8577.325
1268.07163	8700.225
1271.61453	8864.025
1275.15503	8890.425
1278.69312	8888.525
1282.22882	8945.525
1285.76211	9174.425
1289.29301	9431.325
1292.82151	9710.325
1296.34761	9898.325
1299.87133	10297.625
1303.39266	11032.025
1306.9116	12181.325
1310.42815	13467.925
1313.94233	13857.825
1317.45412	13077.225
1320.96354	11914.925
1324.47058	10901.425
1327.97525	10110.825
1331.47754	9691.325
1334.97747	9619.925
1338.47502	9712.725
1341.97022	10099.925
1345.46305	10830.025
1348.95352	11931.625
1352.44163	13215.325
1355.92738	14602.925
1359.41078	16275.925
1362.89183	17784.025
1366.37053	17130.225
1369.84688	14238.025
1373.32088	11537.225
1376.79254	10136.025
1380.26186	9470.825
1383.72883	9077.625
1387.19347	8652.525
1390.65578	8285.525
1394.11575	8062.125
1397.57339	7901.525
1401.0287	7773.725
1404.48168	7757.425
1407.93234	7772.925
1411.38068	7780.625
1414.82669	7874.825
1418.27039	7940.625
1421.71177	7954.325
1425.15083	7866.525
1428.58758	7778.825
1432.02203	7792.925
1435.45416	7886.225
1438.88399	7890.025
1442.31151	7881.125
1445.73673	7924.525
1449.15965	7978.925
1452.58027	8012.625
1455.9986	8003.025
1459.41463	8030.325
1462.82837	8120.725
1466.23982	8305.725
1469.64898	8520.325
1473.05586	8635.625
1476.46045	8749.825
1479.86276	8807.525
1483.26279	8924.925
1486.66054	9123.225
1490.05602	9383.225
1493.44922	9952.225
1496.84016	10850.525
1500.22882	12199.425
1503.61521	13951.425
1506.99934	15762.225
1510.38121	16987.025
1513.76081	16860.625
1517.13816	15260.325
1520.51324	13096.725
1523.88607	11368.325
1527.25665	10340.025
1530.62498	9842.225
1533.99105	9627.525
1537.35488	9502.925
1540.71647	9417.625
1544.07581	9300.525
1547.4329	9185.325
1550.78776	9042.425
1554.14038	8947.925
1557.49077	8934.725
1560.83892	9029.425
1564.18484	9277.625
1567.52853	9609.325
1570.86999	9946.725
1574.20922	10078.125
1577.54624	9938.225
1580.88103	9425.725
1584.2136	8754.825
1587.54395	8397.525
1590.87208	8303.525
1594.19801	8486.725
1597.52172	8849.925
1600.84321	9003.225
1604.16251	8868.625
1607.47959	8676.425
1610.79447	8473.425
1614.10715	8186.725
1617.41763	7870.425
1620.7259	7591.925
1624.03199	7425.025
1627.33587	7366.325
1630.63757	7426.225
1633.93707	7652.825
1637.23439	8081.325
1640.52951	8767.625
1643.82246	9782.225
1647.11321	10940.725
1650.40179	11664.825
1653.68819	11333.925
1656.97241	10085.225
1660.25446	8662.325
1663.53433	7655.725
1666.81203	7040.325
1670.08756	6695.425
1673.36092	6516.925
1676.63211	6385.825
1679.90115	6285.425
1683.16801	6181.925
1686.43272	6105.925
1689.69527	6058.125
1692.95567	6007.625
1696.2139	5983.725
1699.46999	5925.125
1702.72392	5928.525
1705.97571	5925.825
1709.22535	5925.825
1712.47284	5963.625
1715.71819	5957.625
1718.96139	5959.625
1722.20246	5951.225
1725.44139	5908.525
1728.67818	5889.225
1731.91284	5835.125
1735.14537	5806.625
1738.37576	5766.825
1741.60403	5737.525
1744.83017	5707.725
1748.05418	5717.925
1751.27607	5729.525
1754.49584	5689.925
1757.71349	5665.125
1760.92903	5649.825
1764.14244	5613.425
1767.35375	5621.925
1770.56294	5588.425
1773.77002	5570.125
1776.97499	5590.725
1780.17785	5570.925
1783.37861	5558.025
1786.57727	5573.625
1789.77382	5494.825
1792.96828	5535.525
1796.16064	5545.125
1799.3509	5523.125
1802.53907	5530.525
1805.72514	5490.425
1808.90913	5479.825
1812.09102	5478.025
1815.27083	5467.225
1818.44856	5454.525
1821.6242	5464.725
1824.79776	5416.025
1827.96924	5400.525
1831.13864	5384.525
1834.30597	5415.125
1837.47122	5378.025
1840.6344	5370.025
1843.7955	5351.125
1846.95454	5351.225
1850.11151	5378.625
1853.26642	5316.825
1856.41926	5345.425
1859.57004	5329.025
1862.71876	5318.525
1865.86542	5338.225
1869.01003	5322.325
1872.15258	5280.525
1875.29308	5314.625
1878.43152	5310.225
1881.56792	5286.425
1884.70227	5270.825
1887.83457	5269.425
1890.96482	5238.925
1894.09304	5244.825
1897.21921	5254.225
1900.34335	5245.325
1903.46544	5215.325
1906.58551	5219.625
1909.70353	5239.325
1912.81953	5212.225
1915.93349	5204.425
1919.04543	5196.825
1922.15534	5178.825
1925.26322	5184.225
1928.36908	5179.925
1931.47292	5164.625
1934.57473	5165.225
1937.67453	5123.525
1940.77232	5108.525
1943.86808	5090.825
1946.96184	5092.925
1950.05358	5064.825
1953.14331	5048.225
1956.23103	5059.525
1959.31675	4999.625
1962.40046	4987.825
1965.48217	4968.925
1968.56188	4987.925
1971.63959	4975.225
1974.7153	4976.725
1977.78901	4952.025
1980.86073	4926.225
1983.93046	4889.825
1986.99819	4823.925
1990.06394	4842.325
1993.1277	4852.925
1996.18947	4831.425
1999.24925	4774.625
2002.30706	4783.925
2005.36288	4797.425
2008.41672	4759.125
2011.46859	4733.725
2014.51848	4736.325
2017.56639	4720.325
2020.61233	4692.525
2023.6563	4701.525
2026.6983	4661.325
2029.73833	4650.425
2032.7764	4670.825
2035.8125	4617.725
2038.84664	4605.225
2041.87881	4603.025
2044.90903	4612.725
2047.93729	4611.525
2050.96359	4581.225
2053.98794	4578.725
2057.01034	4578.525
2060.03078	4559.425
2063.04927	4553.525
2066.06582	4565.925
2069.08042	4549.625
2072.09307	4549.725
2075.10378	4537.925
2078.11255	4534.025
2081.11938	4534.425
2084.12426	4521.225
2087.12722	4523.125
2090.12824	4509.325
2093.12732	4523.625
2096.12447	4535.625
2099.11969	4519.325
2102.11299	4506.625
2105.10435	4525.825
2108.09379	4521.625
2111.08131	4509.625
2114.0669	4529.525
2117.05057	4513.725
2120.03233	4505.525
2123.01216	4528.625
2125.99008	4533.725
2128.96609	4519.625
2131.94018	4533.225
2134.91236	4532.325
2137.88263	4524.925
2140.851	4531.625
2143.81746	4543.525
2146.78201	4535.225
2149.74466	4519.525
2152.7054	4545.025
2155.66425	4519.125
2158.6212	4524.125
2161.57625	4498.425
2164.52941	4474.125
2167.48067	4495.625
2170.43004	4477.725
2173.37752	4490.025
2176.32311	4482.625
2179.26681	4491.325
2182.20863	4486.925
2185.14856	4494.825
2188.08661	4489.525
2191.02278	4486.525
2193.95707	4467.225
2196.88948	4449.825
2199.82001	4477.825
2202.74867	4447.925
2205.67545	4448.925
2208.60037	4469.025
2211.52341	4440.925
2214.44458	4424.425
2217.36388	4417.325
2220.28132	4385.925
2223.1969	4385.825
2226.11061	4380.225
2229.02246	4360.125
2231.93245	4359.125
2234.84058	4350.925
2237.74686	4332.925
2240.65128	4336.625
2243.55385	4334.825
2246.45456	4307.025
2249.35343	4313.725
2252.25044	4317.725
2255.14561	4322.825
2258.03893	4312.625
2260.93041	4308.125
2263.82004	4298.025
2266.70783	4272.325
2269.59378	4258.125
2272.4779	4238.625
2275.36017	4247.725
2278.24061	4236.225
2281.11922	4202.825
2283.996	4218.325
2286.87094	4188.925
2289.74405	4204.625
2292.61534	4194.525
2295.4848	4201.525
2298.35243	4190.825
2301.21824	4172.025
2304.08223	4165.325
2306.94439	4167.225
2309.80474	4172.725
2312.66327	4160.225
2315.51999	4141.525
2318.37489	4127.325
2321.22797	4118.525
2324.07925	4108.325
2326.92871	4105.725
2329.77637	4096.625
2332.62222	4091.925
2335.46626	4072.125
2338.3085	4059.225
2341.14893	4077.725
2343.98756	4088.225
2346.8244	4066.225
2349.65943	4052.125
2352.49267	4064.025
2355.32411	4064.225
2358.15376	4054.125
2360.98161	4051.825
2363.80768	4038.325
2366.63195	4059.325
2369.45444	4054.425
2372.27514	4057.325
2375.09405	4057.325
2377.91118	4009.225
2380.72652	4007.825
2383.54009	4016.625
2386.35187	4012.925
2389.16188	3983.925
2391.97011	3974.525
2394.77657	3943.925
2397.58125	3972.925
2400.38416	3960.025
2403.18529	3915.725
2405.98466	3939.325
2408.78226	3922.525
2411.57809	3916.325
2414.37216	3904.125
2417.16446	3913.625
2419.955	3896.925
2422.74378	3895.625
2425.5308	3865.025
2428.31606	3887.025
2431.09956	3897.525
2433.88131	3855.625
2436.6613	3863.625
2439.43954	3859.425
2442.21603	3860.225
2444.99077	3851.425
2447.76377	3859.725
2450.53501	3841.625
2453.30451	3835.125
2456.07226	3834.225
2458.83827	3835.025
2461.60254	3790.225
2464.36507	3833.325
2467.12586	3814.225
2469.88492	3807.325
2472.64224	3813.225
2475.39782	3781.225
2478.15167	3797.625
2480.90379	3791.625
2483.65417	3808.625
2486.40283	3804.425
2489.14976	3829.325
2491.89497	3806.125
2494.63845	3803.125
2497.3802	3781.225
2500.12024	3790.025
2502.85855	3778.825
2505.59514	3765.725
2508.33002	3771.025
2511.06318	3728.325
2513.79462	3737.725
2516.52435	3716.725
2519.25237	3682.225
2521.97867	3697.625
2524.70327	3702.525
2527.42616	3692.725
2530.14734	3713.625
2532.86681	3682.225
2535.58458	3688.525
2538.30065	3663.225
2541.01501	3676.825
2543.72768	3653.625
2546.43864	3657.425
2549.14791	3641.625
2551.85548	3632.825
2554.56136	3630.925
2557.26554	3642.025
2559.96803	3614.725
2562.66883	3621.825
2565.36794	3602.725
2568.06536	3569.925
2570.7611	3592.725
2573.45514	3591.125
2576.14751	3581.325
2578.83819	3554.225
2581.52719	3557.725
2584.21451	3561.925
2586.90015	3522.025
2589.58411	3517.725
2592.2664	3525.425
2594.94701	3529.525
2597.62594	3518.825
2600.30321	3471.025
2602.9788	3474.825
2605.65273	3473.225
2608.32498	3474.125
2610.99557	3488.525
2613.66449	3462.425
2616.33175	3463.825
2618.99734	3473.425
2621.66128	3469.625
2624.32355	3456.825
2626.98416	3430.525
2629.64311	3438.725
2632.30041	3425.425
2634.95605	3416.325
2637.61004	3392.925
2640.26238	3377.225
2642.91306	3385.425
2645.56209	3406.025
2648.20948	3406.325
2650.85521	3371.525
2653.4993	3390.825
2656.14175	3385.125
2658.78255	3373.925
2661.42171	3348.325
2664.05923	3384.725
2666.6951	3386.125
2669.32934	3399.625
2671.96194	3411.625
2674.59291	3382.725
2677.22224	3405.525
2679.84993	3379.925
2682.476	3376.325
2685.10043	3371.025
2687.72324	3357.425
2690.34441	3347.225
2692.96396	3359.825
2695.58188	3374.825
2698.19818	3363.525
2700.81285	3352.825
2703.4259	3342.225
2706.03733	3310.825
2708.64714	3303.525
2711.25533	3346.525
2713.86191	3356.825
2716.46687	3359.725
2719.07021	3328.825
2721.67194	3333.725
2724.27206	3343.125
2726.87057	3317.425
2729.46747	3326.825
2732.06276	3339.625
2734.65644	3318.625
2737.24852	3311.825
2739.83899	3285.825
2742.42786	3299.525
2745.01513	3312.725
2747.60079	3292.125
2750.18486	3271.025
2752.76733	3288.425
2755.3482	3267.325
2757.92747	3273.625
2760.50515	3255.625
2763.08123	3249.325
2765.65573	3255.125
2768.22863	3241.525
2770.79994	3230.925
2773.36967	3222.625
2775.9378	3213.025
2778.50435	3219.525
2781.06932	3205.425
2783.6327	3196.725
2786.1945	3218.925
2788.75471	3194.125
2791.31335	3193.225
2793.87041	3191.225
2796.42589	3170.225
2798.97979	3156.325
2801.53212	3179.825
2804.08288	3179.725
2806.63206	3158.525
2809.17967	3143.225
2811.72571	3155.125
2814.27018	3135.625
2816.81308	3121.925
2819.35442	3097.325
2821.89419	3120.425
2824.43239	3092.125
2826.96904	3119.325
2829.50412	3109.225
2832.03763	3099.725
2834.56959	3121.625
2837.1	3093.125
2839.62884	3090.125
2842.15613	3096.725
2844.68186	3091.225
2847.20604	3069.525
2849.72867	3060.025
2852.24974	3065.225
2854.76927	3035.425
2857.28724	2996.625
2859.80367	3043.025
2862.31855	3059.525
2864.83189	3035.725
2867.34368	3042.625
2869.85393	3060.625
2872.36264	3029.925
2874.8698	3024.925
2877.37543	3029.725
2879.87952	3021.125
2882.38207	3009.425
2884.88308	3015.425
2887.38256	3013.025
2889.88051	2998.125
2892.37692	3002.925
2894.8718	2989.625
2897.36515	3000.425
2899.85698	2996.225
2902.34727	2993.825
2904.83604	3003.525
2907.32328	3007.525
2909.809	3017.325
2912.29319	3013.425
2914.77587	3006.325
2917.25702	3031.525
2919.73665	3023.225
2922.21476	3022.625
2924.69136	3033.725
2927.16644	3017.125
2929.64	3002.725
2932.11205	2989.625
2934.58258	2985.225
2937.05161	2978.425
2939.51912	2970.825
2941.98513	2979.725
2944.44962	2972.425
2946.91261	2940.225
2949.37409	2964.525
2951.83407	2939.925
2954.29254	2952.625
2956.74951	2955.825
2959.20498	2923.325
2961.65895	2933.225
2964.11142	2919.325
2966.56239	2924.125
2969.01186	2930.325
2971.45984	2905.025
2973.90632	2898.825
2976.35131	2909.225
2978.7948	2903.325
2981.23681	2884.025
2983.67732	2897.625
2986.11635	2896.325
2988.55388	2861.225
2990.98993	2870.725
2993.4245	2838.825
2995.85758	2839.525
2998.28917	2839.725
3000.71928	2823.825
3003.14791	2828.025
3005.57506	2818.325
3008.00073	2792.325
3010.42493	2740.225
3012.84764	2796.925
3015.26888	2793.025
3017.68865	2786.925
3020.10694	2746.125
3022.52376	2755.725
3024.9391	2755.025
3027.35298	2737.825
3029.76539	2731.325
3032.17632	2732.725
3034.5858	2712.125
3036.9938	2734.625
3039.40034	2712.525
3041.80542	2714.425
3044.20903	2696.925
3046.61118	2681.325
3049.01187	2689.825
3051.4111	2685.025
3053.80888	2666.725
3056.20519	2666.125
3058.60005	2647.025
3060.99345	2661.925
3063.3854	2638.125
3065.7759	2623.925
3068.16494	2615.425
3070.55254	2612.525
3072.93868	2625.125
3075.32338	2601.125
3077.70662	2608.725
3080.08842	2597.825
3082.46878	2585.025
3084.84769	2594.225
3087.22515	2576.425
3089.60118	2588.625
3091.97576	2556.725
3094.3489	2571.125
3096.72061	2572.925
3099.09087	2549.725
3101.4597	2565.425
3103.82709	2566.325
3106.19305	2540.925
3108.55757	2549.725
3110.92066	2539.725
3113.28232	2554.825
3115.64255	2549.225
3118.00134	2536.125
3120.35871	2526.425
3122.71466	2495.325
3125.06917	2499.125
3127.42226	2483.625
3129.77393	2475.725
3132.12417	2491.925
3134.47299	2489.925
3136.82039	2473.825
3139.16636	2450.325
3141.51092	2467.425
3143.85406	2471.225
3146.19579	2464.125
3148.53609	2456.925
3150.87499	2473.725
3153.21246	2446.025
3155.54853	2463.325
3157.88318	2469.125
3160.21642	2460.425
3162.54826	2466.225
3164.87868	2462.125
3167.2077	2428.425
3169.5353	2451.025
3171.86151	2455.825
3174.18631	2437.225
3176.5097	2425.425
3178.83169	2431.225
3181.15228	2431.825
3183.47147	2393.225
3185.78926	2377.925
3188.10565	2410.325
3190.42065	2368.125
3192.73424	2387.425
3195.04645	2385.125
3197.35725	2368.025
3199.66667	2370.025
3201.97469	2369.525
3204.28132	2355.825
3206.58656	2360.925
3208.8904	2371.125
3211.19287	2363.925
3213.49394	2353.125
3215.79363	2342.825
3218.09193	2368.325
3220.38884	2362.725
3222.68438	2359.625
3224.97853	2331.125
3227.2713	2361.125
3229.56269	2330.925
3231.8527	2334.925
3234.14133	2317.225
3236.42858	2327.925
3238.71446	2303.525
3240.99896	2311.325
3243.28209	2287.225
3245.56384	2307.225
3247.84423	2287.725
3250.12324	2301.925
3252.40088	2302.325
3254.67715	2282.425
3256.95205	2262.725
3259.22558	2288.325
3261.49775	2292.325
3263.76855	2279.025
3266.03799	2266.725
3268.30606	2270.525
3270.57277	2274.525
3272.83812	2246.025
3275.10211	2253.025
3277.36474	2278.125
3279.62601	2254.825
3281.88593	2241.725
3284.14448	2213.325
3286.40168	2232.025
3288.65753	2215.525
3290.91202	2218.625
3293.16516	2200.125
3295.41695	2227.925
3297.66738	2217.925
3299.91647	2198.725
3302.16421	2198.025
3304.4106	2161.825
3306.65564	2163.825
3308.89933	2132.425
3311.14169	2130.225
3313.38269	2106.125
3315.62236	2097.625
3317.86068	2072.825
3320.09766	2083.625
3322.3333	2040.825
3324.5676	2039.825
3326.80056	2008.725
3329.03219	1996.825
3331.26248	-0.175
3333.49143	0.025
3335.71905	0.625
