Data from AgNPs_UA_5uM_CRN_500uM_SU_RamanShift__281__12-16-13-198.txt Node

Date: Thu Aug 04 12:16:13 BST 2022
User: TCL
Spectrometer: QEP01345
Trigger mode: 4
Integration Time (sec): 1.000000E0
Scans to average: 10
Electric dark correction enabled: true
Nonlinearity correction enabled: false
Boxcar width: 0
XAxis mode: Raman Shifts
Number of Pixels in Spectrum: 1044
>>>>>Begin Spectral Data<<<<<
46.04893	-0.5875
50.45542	0.7125
54.85868	0.6125
59.25871	-1.0875
63.6555	-58.3875
68.04907	-39.5875
72.43941	-70.8875
76.82654	-57.6875
81.21044	-58.4875
85.59113	-51.5875
89.96862	-73.5875
94.34289	-55.1875
98.71396	-78.0875
103.08183	-58.2875
107.4465	-48.3875
111.80798	-56.8875
116.16626	-45.4875
120.52136	-73.5875
124.87327	-50.1875
129.222	-62.4875
133.56755	-50.7875
137.90993	-64.2875
142.24913	-52.1875
146.58517	-44.0875
150.91804	-40.5875
155.24774	-28.7875
159.57429	-9.5875
163.89768	-5.2875
168.21792	37.0125
172.53501	59.1125
176.84895	140.8125
181.15975	270.9125
185.46741	425.5125
189.77193	599.7125
194.07331	889.9125
198.37157	1182.4125
202.6667	1463.0125
206.9587	1780.4125
211.24758	2100.2125
215.53334	2427.1125
219.81599	2777.4125
224.09553	3195.5125
228.37195	3629.0125
232.64527	4087.8125
236.91549	4565.4125
241.18261	4909.7125
245.44663	5181.9125
249.70755	5364.9125
253.96539	5485.6125
258.22014	5564.9125
262.4718	5648.9125
266.72039	5703.4125
270.96589	5674.1125
275.20832	5580.6125
279.44768	5469.5125
283.68397	5354.2125
287.91719	5313.7125
292.14735	5351.3125
296.37445	5527.9125
300.59849	5826.5125
304.81948	6161.1125
309.03742	6561.4125
313.25231	6802.5125
317.46415	6773.0125
321.67296	6371.4125
325.87872	5979.2125
330.08145	5733.3125
334.28114	5700.8125
338.47781	5741.6125
342.67145	5884.3125
346.86207	6132.0125
351.04966	6500.0125
355.23424	6889.0125
359.4158	7156.2125
363.59435	7198.2125
367.76989	7122.6125
371.94243	7001.1125
376.11196	6852.4125
380.27849	6769.0125
384.44203	6701.9125
388.60257	6654.1125
392.76012	6670.1125
396.91468	6790.9125
401.06626	6958.7125
405.21485	6994.4125
409.36047	6820.1125
413.50311	6489.4125
417.64277	6180.7125
421.77947	5979.2125
425.9132	5905.5125
430.04396	5907.6125
434.17176	5933.6125
438.2966	6006.9125
442.41849	6110.2125
446.53742	6228.1125
450.6534	6319.9125
454.76644	6393.4125
458.87653	6388.6125
462.98368	6363.3125
467.08789	6292.8125
471.18916	6183.7125
475.2875	6073.7125
479.38291	5937.8125
483.4754	5847.3125
487.56496	5812.8125
491.6516	5784.7125
495.73531	5800.3125
499.81612	5836.2125
503.89401	5923.6125
507.96899	5960.1125
512.04106	6051.2125
516.11023	6146.2125
520.1765	6226.8125
524.23987	6247.7125
528.30034	6267.0125
532.35792	6176.7125
536.41261	6116.8125
540.46441	6013.1125
544.51333	5978.4125
548.55936	5995.4125
552.60252	6142.4125
556.64279	6257.5125
560.6802	6364.1125
564.71473	6499.8125
568.7464	6710.2125
572.7752	6682.8125
576.80114	6378.8125
580.82422	6151.0125
584.84444	6046.9125
588.86181	6024.5125
592.87633	6053.5125
596.888	6164.6125
600.89682	6558.5125
604.9028	7552.6125
608.90594	9696.4125
612.90624	12095.5125
616.90371	11178.0125
620.89834	8042.8125
624.89015	6651.9125
628.87913	6436.6125
632.86528	6605.7125
636.84862	6768.4125
640.82913	6617.1125
644.80683	6275.8125
648.78172	6066.3125
652.75379	6116.0125
656.72306	6359.9125
660.68952	6592.1125
664.65319	6493.6125
668.61405	6241.4125
672.57211	6195.0125
676.52738	6177.7125
680.47986	6090.0125
684.42955	6000.6125
688.37646	5927.3125
692.32058	5925.9125
696.26192	6012.8125
700.20048	6096.2125
704.13626	6156.3125
708.06928	6108.0125
711.99952	6088.7125
715.927	6032.7125
719.85171	6085.1125
723.77365	6144.5125
727.69284	6113.7125
731.60928	6102.8125
735.52295	6067.0125
739.43388	6099.6125
743.34206	6115.2125
747.24749	6144.5125
751.15017	6162.5125
755.05012	6241.3125
758.94733	6643.6125
762.8418	7518.7125
766.73354	8917.3125
770.62254	9972.6125
774.50882	10084.4125
778.39237	9496.5125
782.27321	8496.9125
786.15132	7455.1125
790.02671	6717.5125
793.89938	6331.5125
797.76935	6217.0125
801.6366	6109.4125
805.50115	6060.8125
809.36299	6050.9125
813.22213	6018.7125
817.07857	6044.9125
820.93231	6032.0125
824.78336	6062.4125
828.63172	6079.2125
832.47738	6058.8125
836.32036	6084.4125
840.16066	6047.1125
843.99827	6026.8125
847.8332	6024.9125
851.66546	6034.3125
855.49504	6033.0125
859.32195	6063.8125
863.1462	6043.9125
866.96777	6035.6125
870.78668	6027.5125
874.60293	6056.1125
878.41652	6075.0125
882.22745	6151.7125
886.03573	6185.6125
889.84136	6176.2125
893.64433	6178.6125
897.44466	6171.4125
901.24235	6164.8125
905.0374	6166.0125
908.8298	6092.0125
912.61957	6047.8125
916.40671	6016.5125
920.19121	6073.7125
923.97308	6167.1125
927.75233	6241.4125
931.52895	6277.8125
935.30295	6246.7125
939.07433	6102.5125
942.84309	5978.2125
946.60924	5950.3125
950.37278	5915.8125
954.13371	5899.1125
957.89203	5906.5125
961.64774	5911.8125
965.40086	5905.3125
969.15137	5869.8125
972.89929	5908.0125
976.64461	5898.5125
980.38733	5923.9125
984.12747	5926.0125
987.86502	5934.1125
991.59999	5961.6125
995.33237	6025.7125
999.06217	6081.5125
1002.78939	6163.4125
1006.51404	6289.0125
1010.23611	6408.4125
1013.95561	6460.2125
1017.67255	6466.4125
1021.38692	6435.0125
1025.09872	6344.9125
1028.80796	6287.8125
1032.51465	6279.2125
1036.21877	6270.2125
1039.92035	6331.9125
1043.61937	6346.1125
1047.31584	6412.7125
1051.00976	6461.8125
1054.70114	6462.7125
1058.38998	6443.0125
1062.07627	6447.1125
1065.76003	6485.0125
1069.44126	6575.8125
1073.11995	6646.9125
1076.79611	6790.6125
1080.46974	6933.2125
1084.14085	7097.1125
1087.80943	7253.1125
1091.47549	7282.7125
1095.13903	7178.0125
1098.80005	7055.1125
1102.45857	6965.0125
1106.11456	6932.0125
1109.76805	6857.1125
1113.41903	7017.5125
1117.06751	7182.1125
1120.71348	7445.9125
1124.35696	7849.7125
1127.99793	8130.6125
1131.63641	7975.7125
1135.2724	7540.1125
1138.90589	7237.0125
1142.5369	7036.6125
1146.16542	6910.6125
1149.79145	6804.6125
1153.415	6778.1125
1157.03607	6786.5125
1160.65467	6878.0125
1164.27079	7093.1125
1167.88443	7355.8125
1171.49561	7824.4125
1175.10432	8463.7125
1178.71056	9411.6125
1182.31434	10257.7125
1185.91565	10507.4125
1189.51451	10370.2125
1193.11091	10085.5125
1196.70485	9844.9125
1200.29634	9577.4125
1203.88538	9257.2125
1207.47197	8779.5125
1211.05612	8298.1125
1214.63782	7849.2125
1218.21708	7589.2125
1221.79391	7414.3125
1225.36829	7353.6125
1228.94024	7347.6125
1232.50976	7365.4125
1236.07685	7415.1125
1239.6415	7422.9125
1243.20374	7431.5125
1246.76355	7474.0125
1250.32093	7557.9125
1253.8759	7622.8125
1257.42845	7804.3125
1260.97859	8011.0125
1264.52631	8242.6125
1268.07163	8420.5125
1271.61453	8554.3125
1275.15503	8626.1125
1278.69312	8652.4125
1282.22882	8703.6125
1285.76211	8905.4125
1289.29301	9147.0125
1292.82151	9419.0125
1296.34761	9662.9125
1299.87133	10079.2125
1303.39266	10796.5125
1306.9116	11991.7125
1310.42815	13250.7125
1313.94233	13724.0125
1317.45412	12882.8125
1320.96354	11721.6125
1324.47058	10685.3125
1327.97525	9880.0125
1331.47754	9463.7125
1334.97747	9348.2125
1338.47502	9457.8125
1341.97022	9835.3125
1345.46305	10588.0125
1348.95352	11751.4125
1352.44163	13145.6125
1355.92738	14591.8125
1359.41078	16387.4125
1362.89183	17923.5125
1366.37053	17309.7125
1369.84688	14354.0125
1373.32088	11504.0125
1376.79254	9976.5125
1380.26186	9249.5125
1383.72883	8816.2125
1387.19347	8385.9125
1390.65578	8019.9125
1394.11575	7759.3125
1397.57339	7578.3125
1401.0287	7464.8125
1404.48168	7429.3125
1407.93234	7436.9125
1411.38068	7465.0125
1414.82669	7541.4125
1418.27039	7605.5125
1421.71177	7581.6125
1425.15083	7498.7125
1428.58758	7433.8125
1432.02203	7439.1125
1435.45416	7539.6125
1438.88399	7526.4125
1442.31151	7497.6125
1445.73673	7590.4125
1449.15965	7632.4125
1452.58027	7635.0125
1455.9986	7636.6125
1459.41463	7656.8125
1462.82837	7769.1125
1466.23982	7957.3125
1469.64898	8182.0125
1473.05586	8328.0125
1476.46045	8422.1125
1479.86276	8500.0125
1483.26279	8633.4125
1486.66054	8866.1125
1490.05602	9147.0125
1493.44922	9744.3125
1496.84016	10652.3125
1500.22882	12114.0125
1503.61521	13911.8125
1506.99934	15833.0125
1510.38121	17072.6125
1513.76081	16893.7125
1517.13816	15237.6125
1520.51324	13008.5125
1523.88607	11251.9125
1527.25665	10209.1125
1530.62498	9686.5125
1533.99105	9472.2125
1537.35488	9345.9125
1540.71647	9250.0125
1544.07581	9097.9125
1547.4329	8950.2125
1550.78776	8781.8125
1554.14038	8706.0125
1557.49077	8678.9125
1560.83892	8764.9125
1564.18484	9008.1125
1567.52853	9378.0125
1570.86999	9698.9125
1574.20922	9882.4125
1577.54624	9763.8125
1580.88103	9221.4125
1584.2136	8483.8125
1587.54395	8070.3125
1590.87208	7991.0125
1594.19801	8175.5125
1597.52172	8538.9125
1600.84321	8690.0125
1604.16251	8545.7125
1607.47959	8316.2125
1610.79447	8114.0125
1614.10715	7840.4125
1617.41763	7533.3125
1620.7259	7258.4125
1624.03199	7104.7125
1627.33587	7025.0125
1630.63757	7071.6125
1633.93707	7303.9125
1637.23439	7740.8125
1640.52951	8442.1125
1643.82246	9472.0125
1647.11321	10663.5125
1650.40179	11461.8125
1653.68819	11120.6125
1656.97241	9828.2125
1660.25446	8354.8125
1663.53433	7326.9125
1666.81203	6672.5125
1670.08756	6346.0125
1673.36092	6155.7125
1676.63211	5987.0125
1679.90115	5900.4125
1683.16801	5817.1125
1686.43272	5727.9125
1689.69527	5704.1125
1692.95567	5618.7125
1696.2139	5621.2125
1699.46999	5569.1125
1702.72392	5549.0125
1705.97571	5555.7125
1709.22535	5539.2125
1712.47284	5579.4125
1715.71819	5578.1125
1718.96139	5560.4125
1722.20246	5583.5125
1725.44139	5528.0125
1728.67818	5498.0125
1731.91284	5446.2125
1735.14537	5426.1125
1738.37576	5388.9125
1741.60403	5366.7125
1744.83017	5338.5125
1748.05418	5337.7125
1751.27607	5349.7125
1754.49584	5308.9125
1757.71349	5272.0125
1760.92903	5278.7125
1764.14244	5235.5125
1767.35375	5230.8125
1770.56294	5221.4125
1773.77002	5204.4125
1776.97499	5211.1125
1780.17785	5198.4125
1783.37861	5176.2125
1786.57727	5190.2125
1789.77382	5119.9125
1792.96828	5156.4125
1796.16064	5166.8125
1799.3509	5135.9125
1802.53907	5144.9125
1805.72514	5112.3125
1808.90913	5095.0125
1812.09102	5089.4125
1815.27083	5069.0125
1818.44856	5060.6125
1821.6242	5060.3125
1824.79776	5043.5125
1827.96924	5026.8125
1831.13864	4998.7125
1834.30597	5021.4125
1837.47122	4993.9125
1840.6344	4981.8125
1843.7955	4970.3125
1846.95454	4970.6125
1850.11151	4979.8125
1853.26642	4941.9125
1856.41926	4954.4125
1859.57004	4949.1125
1862.71876	4935.0125
1865.86542	4945.2125
1869.01003	4930.6125
1872.15258	4907.5125
1875.29308	4927.9125
1878.43152	4918.9125
1881.56792	4908.0125
1884.70227	4891.4125
1887.83457	4886.7125
1890.96482	4863.1125
1894.09304	4860.4125
1897.21921	4861.5125
1900.34335	4852.5125
1903.46544	4837.7125
1906.58551	4858.6125
1909.70353	4857.6125
1912.81953	4843.8125
1915.93349	4814.8125
1919.04543	4809.9125
1922.15534	4795.2125
1925.26322	4807.6125
1928.36908	4775.7125
1931.47292	4771.1125
1934.57473	4776.2125
1937.67453	4748.6125
1940.77232	4730.1125
1943.86808	4710.3125
1946.96184	4718.8125
1950.05358	4695.6125
1953.14331	4669.0125
1956.23103	4683.9125
1959.31675	4630.2125
1962.40046	4589.3125
1965.48217	4623.5125
1968.56188	4608.5125
1971.63959	4610.7125
1974.7153	4589.5125
1977.78901	4582.6125
1980.86073	4567.1125
1983.93046	4522.4125
1986.99819	4453.9125
1990.06394	4474.9125
1993.1277	4497.1125
1996.18947	4456.9125
1999.24925	4438.0125
2002.30706	4431.1125
2005.36288	4432.6125
2008.41672	4392.8125
2011.46859	4374.5125
2014.51848	4388.6125
2017.56639	4354.4125
2020.61233	4338.9125
2023.6563	4347.1125
2026.6983	4292.3125
2029.73833	4301.2125
2032.7764	4293.8125
2035.8125	4249.1125
2038.84664	4263.4125
2041.87881	4247.9125
2044.90903	4258.8125
2047.93729	4245.0125
2050.96359	4227.1125
2053.98794	4225.9125
2057.01034	4238.1125
2060.03078	4201.3125
2063.04927	4183.1125
2066.06582	4182.4125
2069.08042	4191.0125
2072.09307	4202.3125
2075.10378	4192.8125
2078.11255	4181.4125
2081.11938	4173.4125
2084.12426	4180.5125
2087.12722	4172.0125
2090.12824	4161.1125
2093.12732	4172.0125
2096.12447	4183.9125
2099.11969	4160.9125
2102.11299	4151.2125
2105.10435	4170.5125
2108.09379	4165.0125
2111.08131	4147.7125
2114.0669	4174.5125
2117.05057	4157.8125
2120.03233	4159.1125
2123.01216	4178.8125
2125.99008	4179.9125
2128.96609	4168.5125
2131.94018	4202.6125
2134.91236	4191.0125
2137.88263	4172.2125
2140.851	4180.7125
2143.81746	4212.7125
2146.78201	4172.8125
2149.74466	4158.2125
2152.7054	4174.5125
2155.66425	4162.3125
2158.6212	4172.8125
2161.57625	4129.4125
2164.52941	4126.4125
2167.48067	4132.5125
2170.43004	4120.3125
2173.37752	4159.5125
2176.32311	4135.0125
2179.26681	4122.5125
2182.20863	4134.4125
2185.14856	4130.8125
2188.08661	4130.4125
2191.02278	4132.0125
2193.95707	4114.8125
2196.88948	4111.5125
2199.82001	4117.9125
2202.74867	4084.5125
2205.67545	4091.7125
2208.60037	4096.0125
2211.52341	4090.9125
2214.44458	4078.2125
2217.36388	4068.2125
2220.28132	4049.8125
2223.1969	4034.0125
2226.11061	4043.6125
2229.02246	4019.0125
2231.93245	4021.7125
2234.84058	4007.3125
2237.74686	3998.2125
2240.65128	3996.9125
2243.55385	3994.3125
2246.45456	3972.6125
2249.35343	3977.3125
2252.25044	3970.3125
2255.14561	3974.3125
2258.03893	3969.7125
2260.93041	3957.4125
2263.82004	3959.5125
2266.70783	3945.0125
2269.59378	3927.3125
2272.4779	3903.0125
2275.36017	3916.6125
2278.24061	3908.5125
2281.11922	3868.9125
2283.996	3885.5125
2286.87094	3862.7125
2289.74405	3873.3125
2292.61534	3862.4125
2295.4848	3836.5125
2298.35243	3848.1125
2301.21824	3843.6125
2304.08223	3833.4125
2306.94439	3836.6125
2309.80474	3826.9125
2312.66327	3832.0125
2315.51999	3814.0125
2318.37489	3813.8125
2321.22797	3787.6125
2324.07925	3778.6125
2326.92871	3786.4125
2329.77637	3779.3125
2332.62222	3758.7125
2335.46626	3747.8125
2338.3085	3724.6125
2341.14893	3752.5125
2343.98756	3758.5125
2346.8244	3736.8125
2349.65943	3716.8125
2352.49267	3723.3125
2355.32411	3738.7125
2358.15376	3729.7125
2360.98161	3721.9125
2363.80768	3712.6125
2366.63195	3728.1125
2369.45444	3732.0125
2372.27514	3719.8125
2375.09405	3726.7125
2377.91118	3706.0125
2380.72652	3687.2125
2383.54009	3687.9125
2386.35187	3690.5125
2389.16188	3659.8125
2391.97011	3657.2125
2394.77657	3655.5125
2397.58125	3634.5125
2400.38416	3633.4125
2403.18529	3622.7125
2405.98466	3615.2125
2408.78226	3611.6125
2411.57809	3602.7125
2414.37216	3581.4125
2417.16446	3585.6125
2419.955	3555.6125
2422.74378	3569.0125
2425.5308	3564.5125
2428.31606	3567.0125
2431.09956	3570.9125
2433.88131	3540.7125
2436.6613	3571.9125
2439.43954	3547.5125
2442.21603	3533.1125
2444.99077	3535.7125
2447.76377	3554.4125
2450.53501	3526.8125
2453.30451	3514.5125
2456.07226	3540.7125
2458.83827	3524.3125
2461.60254	3490.3125
2464.36507	3509.0125
2467.12586	3503.1125
2469.88492	3506.1125
2472.64224	3513.2125
2475.39782	3477.1125
2478.15167	3495.1125
2480.90379	3499.6125
2483.65417	3511.1125
2486.40283	3507.7125
2489.14976	3514.4125
2491.89497	3490.3125
2494.63845	3490.5125
2497.3802	3477.0125
2500.12024	3476.1125
2502.85855	3477.3125
2505.59514	3482.5125
2508.33002	3469.4125
2511.06318	3439.6125
2513.79462	3442.2125
2516.52435	3409.1125
2519.25237	3389.8125
2521.97867	3383.4125
2524.70327	3380.2125
2527.42616	3391.8125
2530.14734	3397.7125
2532.86681	3356.1125
2535.58458	3374.1125
2538.30065	3366.5125
2541.01501	3379.8125
2543.72768	3363.3125
2546.43864	3358.8125
2549.14791	3359.8125
2551.85548	3328.6125
2554.56136	3338.8125
2557.26554	3332.1125
2559.96803	3325.5125
2562.66883	3313.0125
2565.36794	3293.3125
2568.06536	3267.6125
2570.7611	3313.4125
2573.45514	3280.9125
2576.14751	3285.0125
2578.83819	3272.2125
2581.52719	3260.9125
2584.21451	3268.1125
2586.90015	3232.8125
2589.58411	3229.1125
2592.2664	3235.5125
2594.94701	3224.6125
2597.62594	3241.4125
2600.30321	3176.1125
2602.9788	3190.7125
2605.65273	3187.0125
2608.32498	3178.6125
2610.99557	3208.8125
2613.66449	3172.6125
2616.33175	3187.3125
2618.99734	3183.3125
2621.66128	3177.2125
2624.32355	3167.5125
2626.98416	3161.9125
2629.64311	3141.2125
2632.30041	3146.1125
2634.95605	3133.5125
2637.61004	3104.7125
2640.26238	3095.3125
2642.91306	3098.9125
2645.56209	3126.7125
2648.20948	3114.8125
2650.85521	3091.7125
2653.4993	3109.1125
2656.14175	3108.4125
2658.78255	3089.3125
2661.42171	3062.6125
2664.05923	3097.7125
2666.6951	3108.7125
2669.32934	3113.7125
2671.96194	3120.3125
2674.59291	3103.7125
2677.22224	3116.1125
2679.84993	3097.7125
2682.476	3086.2125
2685.10043	3094.3125
2687.72324	3074.8125
2690.34441	3066.3125
2692.96396	3084.9125
2695.58188	3108.3125
2698.19818	3089.0125
2700.81285	3080.5125
2703.4259	3061.8125
2706.03733	3036.8125
2708.64714	3039.6125
2711.25533	3064.7125
2713.86191	3065.0125
2716.46687	3062.3125
2719.07021	3060.6125
2721.67194	3077.1125
2724.27206	3074.3125
2726.87057	3053.7125
2729.46747	3050.6125
2732.06276	3068.7125
2734.65644	3035.2125
2737.24852	3037.3125
2739.83899	3027.3125
2742.42786	3032.7125
2745.01513	3043.4125
2747.60079	3011.5125
2750.18486	2987.7125
2752.76733	3020.1125
2755.3482	2999.2125
2757.92747	3012.4125
2760.50515	2986.9125
2763.08123	2978.6125
2765.65573	2963.2125
2768.22863	2969.2125
2770.79994	2955.4125
2773.36967	2967.3125
2775.9378	2945.0125
2778.50435	2940.5125
2781.06932	2942.3125
2783.6327	2930.9125
2786.1945	2949.6125
2788.75471	2925.1125
2791.31335	2918.0125
2793.87041	2924.8125
2796.42589	2905.2125
2798.97979	2900.9125
2801.53212	2912.3125
2804.08288	2919.5125
2806.63206	2885.6125
2809.17967	2885.1125
2811.72571	2885.2125
2814.27018	2888.6125
2816.81308	2878.1125
2819.35442	2845.3125
2821.89419	2860.4125
2824.43239	2832.0125
2826.96904	2872.1125
2829.50412	2843.1125
2832.03763	2854.6125
2834.56959	2849.2125
2837.1	2837.6125
2839.62884	2838.6125
2842.15613	2835.1125
2844.68186	2831.5125
2847.20604	2814.8125
2849.72867	2798.4125
2852.24974	2801.9125
2854.76927	2780.6125
2857.28724	2739.9125
2859.80367	2803.0125
2862.31855	2814.8125
2864.83189	2804.2125
2867.34368	2799.6125
2869.85393	2816.0125
2872.36264	2787.5125
2874.8698	2790.2125
2877.37543	2787.9125
2879.87952	2778.5125
2882.38207	2762.9125
2884.88308	2768.1125
2887.38256	2785.2125
2889.88051	2769.3125
2892.37692	2762.5125
2894.8718	2744.0125
2897.36515	2754.8125
2899.85698	2745.3125
2902.34727	2758.0125
2904.83604	2758.1125
2907.32328	2765.8125
2909.809	2771.4125
2912.29319	2761.7125
2914.77587	2778.9125
2917.25702	2796.0125
2919.73665	2798.9125
2922.21476	2789.3125
2924.69136	2793.2125
2927.16644	2780.3125
2929.64	2769.8125
2932.11205	2757.8125
2934.58258	2763.5125
2937.05161	2741.3125
2939.51912	2753.3125
2941.98513	2755.1125
2944.44962	2747.0125
2946.91261	2710.4125
2949.37409	2725.6125
2951.83407	2709.7125
2954.29254	2721.1125
2956.74951	2708.3125
2959.20498	2691.1125
2961.65895	2692.7125
2964.11142	2684.2125
2966.56239	2681.2125
2969.01186	2686.9125
2971.45984	2671.6125
2973.90632	2671.6125
2976.35131	2683.0125
2978.7948	2668.8125
2981.23681	2660.1125
2983.67732	2671.2125
2986.11635	2647.6125
2988.55388	2629.2125
2990.98993	2628.8125
2993.4245	2614.0125
2995.85758	2616.6125
2998.28917	2613.3125
3000.71928	2599.0125
3003.14791	2592.1125
3005.57506	2578.9125
3008.00073	2571.0125
3010.42493	2513.5125
3012.84764	2574.0125
3015.26888	2565.5125
3017.68865	2555.5125
3020.10694	2514.4125
3022.52376	2523.3125
3024.9391	2527.6125
3027.35298	2506.1125
3029.76539	2502.5125
3032.17632	2503.2125
3034.5858	2490.9125
3036.9938	2502.9125
3039.40034	2486.8125
3041.80542	2483.2125
3044.20903	2473.5125
3046.61118	2469.5125
3049.01187	2475.5125
3051.4111	2460.1125
3053.80888	2442.8125
3056.20519	2445.0125
3058.60005	2429.1125
3060.99345	2456.2125
3063.3854	2416.3125
3065.7759	2417.4125
3068.16494	2412.0125
3070.55254	2389.5125
3072.93868	2413.9125
3075.32338	2383.3125
3077.70662	2396.0125
3080.08842	2386.3125
3082.46878	2363.4125
3084.84769	2391.0125
3087.22515	2362.5125
3089.60118	2376.4125
3091.97576	2358.8125
3094.3489	2363.9125
3096.72061	2363.3125
3099.09087	2344.5125
3101.4597	2363.9125
3103.82709	2350.7125
3106.19305	2326.6125
3108.55757	2350.4125
3110.92066	2326.5125
3113.28232	2326.6125
3115.64255	2340.0125
3118.00134	2330.0125
3120.35871	2311.8125
3122.71466	2293.0125
3125.06917	2301.9125
3127.42226	2293.0125
3129.77393	2275.7125
3132.12417	2294.4125
3134.47299	2287.9125
3136.82039	2274.4125
3139.16636	2240.0125
3141.51092	2264.3125
3143.85406	2272.9125
3146.19579	2261.2125
3148.53609	2253.6125
3150.87499	2260.3125
3153.21246	2255.7125
3155.54853	2263.8125
3157.88318	2260.8125
3160.21642	2268.8125
3162.54826	2262.4125
3164.87868	2261.1125
3167.2077	2225.4125
3169.5353	2240.3125
3171.86151	2256.6125
3174.18631	2232.5125
3176.5097	2227.2125
3178.83169	2231.2125
3181.15228	2223.7125
3183.47147	2206.4125
3185.78926	2177.7125
3188.10565	2202.8125
3190.42065	2178.1125
3192.73424	2202.7125
3195.04645	2181.5125
3197.35725	2161.9125
3199.66667	2190.6125
3201.97469	2173.4125
3204.28132	2168.6125
3206.58656	2180.8125
3208.8904	2182.4125
3211.19287	2172.2125
3213.49394	2167.6125
3215.79363	2162.2125
3218.09193	2177.3125
3220.38884	2170.1125
3222.68438	2160.4125
3224.97853	2141.8125
3227.2713	2162.1125
3229.56269	2154.8125
3231.8527	2157.4125
3234.14133	2141.1125
3236.42858	2119.6125
3238.71446	2098.8125
3240.99896	2125.1125
3243.28209	2099.9125
3245.56384	2119.9125
3247.84423	2108.6125
3250.12324	2102.9125
3252.40088	2111.8125
3254.67715	2093.0125
3256.95205	2084.2125
3259.22558	2098.8125
3261.49775	2097.5125
3263.76855	2093.7125
3266.03799	2098.1125
3268.30606	2088.8125
3270.57277	2084.7125
3272.83812	2066.1125
3275.10211	2062.2125
3277.36474	2089.4125
3279.62601	2067.0125
3281.88593	2053.6125
3284.14448	2028.8125
3286.40168	2051.8125
3288.65753	2037.9125
3290.91202	2039.2125
3293.16516	2025.1125
3295.41695	2047.4125
3297.66738	2038.0125
3299.91647	2027.8125
3302.16421	2014.0125
3304.4106	1977.9125
3306.65564	1991.4125
3308.89933	1964.1125
3311.14169	1959.3125
3313.38269	1942.3125
3315.62236	1934.9125
3317.86068	1918.2125
3320.09766	1912.6125
3322.3333	1872.5125
3324.5676	1867.6125
3326.80056	1846.2125
3329.03219	1838.9125
3331.26248	-1.1875
3333.49143	-0.6875
3335.71905	1.8125
