Data from AgNPs_UA_5uM_CRN_500uM_SU_RamanShift__27__11-33-53-144.txt Node

Date: Thu Aug 04 11:33:53 BST 2022
User: TCL
Spectrometer: QEP01345
Trigger mode: 4
Integration Time (sec): 1.000000E0
Scans to average: 10
Electric dark correction enabled: true
Nonlinearity correction enabled: false
Boxcar width: 0
XAxis mode: Raman Shifts
Number of Pixels in Spectrum: 1044
>>>>>Begin Spectral Data<<<<<
46.04893	0.0875
50.45542	0.3875
54.85868	-0.2125
59.25871	0.5875
63.6555	-53.2125
68.04907	-35.3125
72.43941	-65.4125
76.82654	-51.6125
81.21044	-50.3125
85.59113	-41.5125
89.96862	-66.7125
94.34289	-50.9125
98.71396	-71.3125
103.08183	-48.2125
107.4465	-43.5125
111.80798	-48.5125
116.16626	-35.1125
120.52136	-63.1125
124.87327	-37.6125
129.222	-48.5125
133.56755	-34.0125
137.90993	-44.1125
142.24913	-30.8125
146.58517	-20.9125
150.91804	-12.0125
155.24774	8.7875
159.57429	42.5875
163.89768	64.7875
168.21792	142.5875
172.53501	208.5875
176.84895	356.9875
181.15975	577.2875
185.46741	851.0875
189.77193	1199.1875
194.07331	1697.3875
198.37157	2226.6875
202.6667	2766.5875
206.9587	3375.1875
211.24758	4009.9875
215.53334	4730.5875
219.81599	5554.8875
224.09553	6517.7875
228.37195	7505.9875
232.64527	8437.7875
236.91549	9196.9875
241.18261	9577.8875
245.44663	9711.0875
249.70755	9659.0875
253.96539	9670.7875
258.22014	9757.9875
262.4718	9841.8875
266.72039	9824.8875
270.96589	9587.3875
275.20832	9184.4875
279.44768	8784.1875
283.68397	8455.6875
287.91719	8355.2875
292.14735	8572.2875
296.37445	9243.5875
300.59849	10372.1875
304.81948	11950.8875
309.03742	13781.7875
313.25231	15078.7875
317.46415	14904.4875
321.67296	13045.5875
325.87872	10898.1875
330.08145	9683.4875
334.28114	9407.9875
338.47781	9752.9875
342.67145	10450.6875
346.86207	11590.9875
351.04966	13266.0875
355.23424	14921.0875
359.4158	15547.6875
363.59435	14948.2875
367.76989	13941.7875
371.94243	12948.6875
376.11196	12107.8875
380.27849	11499.1875
384.44203	11013.1875
388.60257	10747.8875
392.76012	10804.6875
396.91468	11149.7875
401.06626	11625.0875
405.21485	11625.2875
409.36047	10871.7875
413.50311	9538.6875
417.64277	8344.3875
421.77947	7566.7875
425.9132	7198.9875
430.04396	7037.1875
434.17176	7013.0875
438.2966	7167.8875
442.41849	7407.6875
446.53742	7669.1875
450.6534	7829.8875
454.76644	7804.2875
458.87653	7659.9875
462.98368	7475.1875
467.08789	7305.4875
471.18916	7045.3875
475.2875	6686.2875
479.38291	6383.4875
483.4754	6200.5875
487.56496	6122.6875
491.6516	6041.1875
495.73531	6006.1875
499.81612	6097.0875
503.89401	6313.7875
507.96899	6515.1875
512.04106	6852.4875
516.11023	7174.2875
520.1765	7442.2875
524.23987	7538.5875
528.30034	7493.8875
532.35792	7360.5875
536.41261	7178.7875
540.46441	6938.3875
544.51333	6733.8875
548.55936	6717.4875
552.60252	6925.2875
556.64279	7166.2875
560.6802	7718.4875
564.71473	8913.6875
568.7464	10462.7875
572.7752	10402.6875
576.80114	8425.7875
580.82422	6805.1875
584.84444	6122.1875
588.86181	5913.4875
592.87633	5889.6875
596.888	6137.2875
600.89682	7101.9875
604.9028	10294.0875
608.90594	18490.8875
612.90624	28371.6875
616.90371	25580.1875
620.89834	13335.4875
624.89015	8011.4875
628.87913	7446.7875
632.86528	8221.9875
636.84862	8503.1875
640.82913	7506.2875
644.80683	6214.7875
648.78172	5657.7875
652.75379	5879.8875
656.72306	6828.4875
660.68952	7753.3875
664.65319	7224.4875
668.61405	5952.9875
672.57211	5454.3875
676.52738	5430.7875
680.47986	5357.0875
684.42955	5192.4875
688.37646	5097.4875
692.32058	5097.9875
696.26192	5215.5875
700.20048	5368.0875
704.13626	5416.8875
708.06928	5314.0875
711.99952	5251.2875
715.927	5355.3875
719.85171	5610.4875
723.77365	5787.9875
727.69284	5594.4875
731.60928	5408.4875
735.52295	5334.0875
739.43388	5437.0875
743.34206	5498.2875
747.24749	5475.3875
751.15017	5501.0875
755.05012	5931.2875
758.94733	7545.7875
762.8418	11175.3875
766.73354	15826.9875
770.62254	18165.5875
774.50882	17232.4875
778.39237	15293.5875
782.27321	12487.4875
786.15132	9043.7875
790.02671	6777.2875
793.89938	5741.9875
797.76935	5423.0875
801.6366	5260.2875
805.50115	5139.1875
809.36299	5093.6875
813.22213	5083.5875
817.07857	5058.1875
820.93231	5130.4875
824.78336	5248.1875
828.63172	5396.2875
832.47738	5459.5875
836.32036	5337.8875
840.16066	5064.4875
843.99827	4894.3875
847.8332	4833.8875
851.66546	4861.7875
855.49504	4813.2875
859.32195	4819.3875
863.1462	4753.6875
866.96777	4733.5875
870.78668	4726.7875
874.60293	4767.6875
878.41652	4867.7875
882.22745	5040.7875
886.03573	5154.5875
889.84136	5113.8875
893.64433	5081.0875
897.44466	5091.2875
901.24235	5107.6875
905.0374	5001.9875
908.8298	4797.5875
912.61957	4657.9875
916.40671	4564.1875
920.19121	4619.4875
923.97308	4881.9875
927.75233	5354.9875
931.52895	5880.2875
935.30295	5588.1875
939.07433	4852.9875
942.84309	4385.7875
946.60924	4227.1875
950.37278	4147.6875
954.13371	4141.1875
957.89203	4113.2875
961.64774	4122.0875
965.40086	4100.0875
969.15137	4060.8875
972.89929	4068.0875
976.64461	4054.8875
980.38733	4060.3875
984.12747	4032.2875
987.86502	4060.6875
991.59999	4090.2875
995.33237	4170.6875
999.06217	4295.5875
1002.78939	4520.5875
1006.51404	4910.1875
1010.23611	5076.6875
1013.95561	4901.7875
1017.67255	4639.4875
1021.38692	4450.3875
1025.09872	4284.9875
1028.80796	4183.2875
1032.51465	4244.8875
1036.21877	4282.0875
1039.92035	4382.0875
1043.61937	4448.5875
1047.31584	4533.2875
1051.00976	4547.0875
1054.70114	4476.2875
1058.38998	4397.8875
1062.07627	4350.6875
1065.76003	4367.6875
1069.44126	4431.9875
1073.11995	4566.3875
1076.79611	4888.2875
1080.46974	5502.4875
1084.14085	6385.3875
1087.80943	7073.5875
1091.47549	7021.1875
1095.13903	6272.1875
1098.80005	5531.9875
1102.45857	5118.8875
1106.11456	5071.4875
1109.76805	5234.6875
1113.41903	5730.6875
1117.06751	6506.0875
1120.71348	7754.2875
1124.35696	9659.2875
1127.99793	10894.2875
1131.63641	9893.1875
1135.2724	7940.0875
1138.90589	6630.2875
1142.5369	5893.2875
1146.16542	5448.7875
1149.79145	5149.7875
1153.415	5083.3875
1157.03607	5155.8875
1160.65467	5432.4875
1164.27079	5932.1875
1167.88443	6652.0875
1171.49561	7866.9875
1175.10432	9946.3875
1178.71056	12797.7875
1182.31434	14652.4875
1185.91565	14307.2875
1189.51451	12443.3875
1193.11091	10554.4875
1196.70485	9316.3875
1200.29634	8834.7875
1203.88538	8215.2875
1207.47197	7042.9875
1211.05612	5968.2875
1214.63782	5286.3875
1218.21708	4964.4875
1221.79391	4845.6875
1225.36829	4845.5875
1228.94024	4847.7875
1232.50976	4832.9875
1236.07685	4848.7875
1239.6415	4921.1875
1243.20374	5080.4875
1246.76355	5275.1875
1250.32093	5532.1875
1253.8759	5906.5875
1257.42845	6556.0875
1260.97859	7339.6875
1264.52631	8126.6875
1268.07163	8457.6875
1271.61453	8445.4875
1275.15503	8121.3875
1278.69312	7800.1875
1282.22882	8062.8875
1285.76211	9134.3875
1289.29301	10608.3875
1292.82151	11560.4875
1296.34761	11952.1875
1299.87133	12959.7875
1303.39266	15403.9875
1306.9116	20031.7875
1310.42815	25788.5875
1313.94233	27995.4875
1317.45412	23717.1875
1320.96354	17352.2875
1324.47058	12498.4875
1327.97525	9552.7875
1331.47754	8088.4875
1334.97747	7618.7875
1338.47502	7807.5875
1341.97022	8945.2875
1345.46305	11410.6875
1348.95352	14935.3875
1352.44163	18605.4875
1355.92738	23274.6875
1359.41078	31366.2875
1362.89183	39724.0875
1366.37053	37492.2875
1369.84688	25529.8875
1373.32088	15905.6875
1376.79254	11774.0875
1380.26186	9896.5875
1383.72883	8426.8875
1387.19347	7104.3875
1390.65578	6139.1875
1394.11575	5599.4875
1397.57339	5334.6875
1401.0287	5151.1875
1404.48168	4957.1875
1407.93234	4882.6875
1411.38068	4994.1875
1414.82669	5430.3875
1418.27039	5921.2875
1421.71177	6007.2875
1425.15083	5801.3875
1428.58758	5911.4875
1432.02203	6581.0875
1435.45416	7051.5875
1438.88399	6725.3875
1442.31151	6249.7875
1445.73673	6166.9875
1449.15965	6115.8875
1452.58027	5936.6875
1455.9986	5718.5875
1459.41463	5510.4875
1462.82837	5516.5875
1466.23982	5794.5875
1469.64898	6166.6875
1473.05586	6296.0875
1476.46045	6239.3875
1479.86276	6284.9875
1483.26279	6585.9875
1486.66054	7321.7875
1490.05602	8448.5875
1493.44922	10271.2875
1496.84016	13135.1875
1500.22882	17573.8875
1503.61521	23821.4875
1506.99934	31940.4875
1510.38121	40264.4875
1513.76081	43836.0875
1517.13816	39138.0875
1520.51324	29322.4875
1523.88607	20199.7875
1527.25665	14246.7875
1530.62498	10880.3875
1533.99105	8912.4875
1537.35488	7654.2875
1540.71647	6949.3875
1544.07581	6649.1875
1547.4329	6661.3875
1550.78776	6842.2875
1554.14038	7205.4875
1557.49077	7872.4875
1560.83892	9016.7875
1564.18484	10803.9875
1567.52853	12651.7875
1570.86999	13676.9875
1574.20922	13679.5875
1577.54624	12906.2875
1580.88103	10725.5875
1584.2136	8158.6875
1587.54395	6630.4875
1590.87208	6267.4875
1594.19801	6761.6875
1597.52172	7602.1875
1600.84321	7636.9875
1604.16251	6723.6875
1607.47959	5861.8875
1610.79447	5330.7875
1614.10715	4912.3875
1617.41763	4636.8875
1620.7259	4529.5875
1624.03199	4588.6875
1627.33587	4827.0875
1630.63757	5275.2875
1633.93707	6109.0875
1637.23439	7573.5875
1640.52951	10318.6875
1643.82246	14962.5875
1647.11321	21247.8875
1650.40179	26214.7875
1653.68819	25663.2875
1656.97241	19794.6875
1660.25446	13147.3875
1663.53433	8658.0875
1666.81203	6202.1875
1670.08756	4964.8875
1673.36092	4299.0875
1676.63211	3865.6875
1679.90115	3609.6875
1683.16801	3426.4875
1686.43272	3276.0875
1689.69527	3179.8875
1692.95567	3115.0875
1696.2139	3067.4875
1699.46999	2988.9875
1702.72392	2976.6875
1705.97571	2987.5875
1709.22535	2960.1875
1712.47284	3008.9875
1715.71819	3051.1875
1718.96139	3044.3875
1722.20246	3019.3875
1725.44139	2938.2875
1728.67818	2865.9875
1731.91284	2774.0875
1735.14537	2717.9875
1738.37576	2663.2875
1741.60403	2641.5875
1744.83017	2601.9875
1748.05418	2581.6875
1751.27607	2569.1875
1754.49584	2508.1875
1757.71349	2438.3875
1760.92903	2405.5875
1764.14244	2334.1875
1767.35375	2308.2875
1770.56294	2256.0875
1773.77002	2214.7875
1776.97499	2182.9875
1780.17785	2143.2875
1783.37861	2107.7875
1786.57727	2121.7875
1789.77382	2042.8875
1792.96828	2076.5875
1796.16064	2086.5875
1799.3509	2066.4875
1802.53907	2067.7875
1805.72514	2042.4875
1808.90913	2021.7875
1812.09102	2013.3875
1815.27083	2009.0875
1818.44856	1981.2875
1821.6242	1978.3875
1824.79776	1962.7875
1827.96924	1953.9875
1831.13864	1921.3875
1834.30597	1914.5875
1837.47122	1877.6875
1840.6344	1858.6875
1843.7955	1819.3875
1846.95454	1801.8875
1850.11151	1810.1875
1853.26642	1770.0875
1856.41926	1777.9875
1859.57004	1788.8875
1862.71876	1800.7875
1865.86542	1802.9875
1869.01003	1803.6875
1872.15258	1785.3875
1875.29308	1810.4875
1878.43152	1823.9875
1881.56792	1806.2875
1884.70227	1767.2875
1887.83457	1771.7875
1890.96482	1742.2875
1894.09304	1737.3875
1897.21921	1730.3875
1900.34335	1743.3875
1903.46544	1719.9875
1906.58551	1737.3875
1909.70353	1732.0875
1912.81953	1722.3875
1915.93349	1708.0875
1919.04543	1712.6875
1922.15534	1676.3875
1925.26322	1670.8875
1928.36908	1648.0875
1931.47292	1630.6875
1934.57473	1606.9875
1937.67453	1566.5875
1940.77232	1525.5875
1943.86808	1507.1875
1946.96184	1511.3875
1950.05358	1496.0875
1953.14331	1487.6875
1956.23103	1509.4875
1959.31675	1489.8875
1962.40046	1470.2875
1965.48217	1511.5875
1968.56188	1531.7875
1971.63959	1551.5875
1974.7153	1556.3875
1977.78901	1541.9875
1980.86073	1501.7875
1983.93046	1438.8875
1986.99819	1361.4875
1990.06394	1362.0875
1993.1277	1390.2875
1996.18947	1373.7875
1999.24925	1351.1875
2002.30706	1349.7875
2005.36288	1347.4875
2008.41672	1322.0875
2011.46859	1298.3875
2014.51848	1293.2875
2017.56639	1282.8875
2020.61233	1271.3875
2023.6563	1276.7875
2026.6983	1240.7875
2029.73833	1253.7875
2032.7764	1265.9875
2035.8125	1223.0875
2038.84664	1238.4875
2041.87881	1220.7875
2044.90903	1233.8875
2047.93729	1231.1875
2050.96359	1202.3875
2053.98794	1198.5875
2057.01034	1202.7875
2060.03078	1167.9875
2063.04927	1156.5875
2066.06582	1152.1875
2069.08042	1138.4875
2072.09307	1137.5875
2075.10378	1132.6875
2078.11255	1134.3875
2081.11938	1138.4875
2084.12426	1125.8875
2087.12722	1129.6875
2090.12824	1123.2875
2093.12732	1131.3875
2096.12447	1133.4875
2099.11969	1117.4875
2102.11299	1109.2875
2105.10435	1136.9875
2108.09379	1129.4875
2111.08131	1124.1875
2114.0669	1138.6875
2117.05057	1150.2875
2120.03233	1138.6875
2123.01216	1192.7875
2125.99008	1199.9875
2128.96609	1202.9875
2131.94018	1206.4875
2134.91236	1186.4875
2137.88263	1152.8875
2140.851	1145.1875
2143.81746	1138.9875
2146.78201	1110.4875
2149.74466	1078.5875
2152.7054	1091.7875
2155.66425	1055.4875
2158.6212	1048.2875
2161.57625	1019.8875
2164.52941	997.0875
2167.48067	1029.8875
2170.43004	1026.9875
2173.37752	1050.3875
2176.32311	1041.9875
2179.26681	1059.5875
2182.20863	1066.0875
2185.14856	1056.8875
2188.08661	1047.2875
2191.02278	1053.7875
2193.95707	1021.2875
2196.88948	999.0875
2199.82001	1006.3875
2202.74867	994.9875
2205.67545	994.7875
2208.60037	1007.4875
2211.52341	992.6875
2214.44458	987.9875
2217.36388	990.0875
2220.28132	970.9875
2223.1969	957.1875
2226.11061	956.4875
2229.02246	946.5875
2231.93245	954.3875
2234.84058	935.3875
2237.74686	933.6875
2240.65128	941.4875
2243.55385	948.6875
2246.45456	931.4875
2249.35343	971.9875
2252.25044	969.8875
2255.14561	1001.3875
2258.03893	1037.0875
2260.93041	1060.8875
2263.82004	1074.1875
2266.70783	1071.7875
2269.59378	1055.9875
2272.4779	1042.0875
2275.36017	1052.9875
2278.24061	1035.4875
2281.11922	1017.5875
2283.996	1018.1875
2286.87094	991.2875
2289.74405	986.0875
2292.61534	963.9875
2295.4848	946.7875
2298.35243	938.8875
2301.21824	921.3875
2304.08223	918.6875
2306.94439	919.3875
2309.80474	919.3875
2312.66327	924.4875
2315.51999	910.7875
2318.37489	909.9875
2321.22797	890.5875
2324.07925	892.0875
2326.92871	889.0875
2329.77637	882.0875
2332.62222	892.3875
2335.46626	877.2875
2338.3085	885.7875
2341.14893	902.4875
2343.98756	909.6875
2346.8244	901.9875
2349.65943	901.2875
2352.49267	921.3875
2355.32411	948.1875
2358.15376	952.8875
2360.98161	976.0875
2363.80768	970.5875
2366.63195	1002.1875
2369.45444	1029.9875
2372.27514	1019.7875
2375.09405	1041.6875
2377.91118	999.6875
2380.72652	985.8875
2383.54009	974.7875
2386.35187	974.1875
2389.16188	936.1875
2391.97011	928.6875
2394.77657	913.0875
2397.58125	906.8875
2400.38416	895.0875
2403.18529	877.0875
2405.98466	854.2875
2408.78226	868.6875
2411.57809	862.6875
2414.37216	848.3875
2417.16446	858.9875
2419.955	843.8875
2422.74378	862.1875
2425.5308	857.3875
2428.31606	866.2875
2431.09956	887.0875
2433.88131	871.9875
2436.6613	890.4875
2439.43954	894.2875
2442.21603	896.8875
2444.99077	893.5875
2447.76377	931.2875
2450.53501	916.3875
2453.30451	925.0875
2456.07226	938.9875
2458.83827	917.8875
2461.60254	886.1875
2464.36507	924.9875
2467.12586	906.3875
2469.88492	920.2875
2472.64224	923.5875
2475.39782	912.5875
2478.15167	939.4875
2480.90379	946.7875
2483.65417	992.2875
2486.40283	1009.6875
2489.14976	1036.2875
2491.89497	1019.0875
2494.63845	1030.6875
2497.3802	1012.3875
2500.12024	1000.1875
2502.85855	991.7875
2505.59514	973.4875
2508.33002	943.6875
2511.06318	895.8875
2513.79462	886.3875
2516.52435	819.7875
2519.25237	783.3875
2521.97867	774.4875
2524.70327	773.8875
2527.42616	759.5875
2530.14734	777.9875
2532.86681	754.8875
2535.58458	752.3875
2538.30065	757.5875
2541.01501	780.4875
2543.72768	771.3875
2546.43864	780.7875
2549.14791	788.3875
2551.85548	784.8875
2554.56136	789.0875
2557.26554	812.0875
2559.96803	806.7875
2562.66883	819.4875
2565.36794	807.8875
2568.06536	791.8875
2570.7611	818.0875
2573.45514	802.1875
2576.14751	803.5875
2578.83819	789.1875
2581.52719	780.1875
2584.21451	780.1875
2586.90015	751.6875
2589.58411	746.1875
2592.2664	750.4875
2594.94701	762.0875
2597.62594	764.0875
2600.30321	712.3875
2602.9788	734.2875
2605.65273	740.0875
2608.32498	747.1875
2610.99557	767.0875
2613.66449	741.2875
2616.33175	764.8875
2618.99734	771.3875
2621.66128	772.9875
2624.32355	756.3875
2626.98416	744.5875
2629.64311	731.8875
2632.30041	724.7875
2634.95605	698.8875
2637.61004	685.5875
2640.26238	666.4875
2642.91306	664.2875
2645.56209	691.5875
2648.20948	679.1875
2650.85521	667.9875
2653.4993	693.4875
2656.14175	690.5875
2658.78255	691.0875
2661.42171	666.9875
2664.05923	710.9875
2666.6951	725.2875
2669.32934	731.0875
2671.96194	749.5875
2674.59291	744.6875
2677.22224	750.0875
2679.84993	741.9875
2682.476	732.1875
2685.10043	716.9875
2687.72324	704.1875
2690.34441	708.0875
2692.96396	705.2875
2695.58188	710.9875
2698.19818	698.8875
2700.81285	684.7875
2703.4259	679.7875
2706.03733	659.4875
2708.64714	663.4875
2711.25533	701.5875
2713.86191	709.2875
2716.46687	707.2875
2719.07021	705.2875
2721.67194	708.2875
2724.27206	720.5875
2726.87057	687.6875
2729.46747	679.2875
2732.06276	684.0875
2734.65644	658.0875
2737.24852	653.9875
2739.83899	631.3875
2742.42786	642.9875
2745.01513	649.7875
2747.60079	621.9875
2750.18486	605.2875
2752.76733	607.4875
2755.3482	592.9875
2757.92747	597.1875
2760.50515	578.3875
2763.08123	574.8875
2765.65573	573.6875
2768.22863	567.8875
2770.79994	564.0875
2773.36967	562.2875
2775.9378	564.3875
2778.50435	567.5875
2781.06932	571.5875
2783.6327	561.8875
2786.1945	591.6875
2788.75471	571.6875
2791.31335	579.6875
2793.87041	591.3875
2796.42589	583.0875
2798.97979	583.7875
2801.53212	602.2875
2804.08288	630.3875
2806.63206	629.8875
2809.17967	633.5875
2811.72571	667.1875
2814.27018	677.7875
2816.81308	691.5875
2819.35442	674.1875
2821.89419	713.9875
2824.43239	711.4875
2826.96904	747.9875
2829.50412	725.7875
2832.03763	724.8875
2834.56959	721.5875
2837.1	702.3875
2839.62884	693.8875
2842.15613	675.7875
2844.68186	693.5875
2847.20604	664.5875
2849.72867	677.4875
2852.24974	705.6875
2854.76927	691.1875
2857.28724	663.6875
2859.80367	744.3875
2862.31855	766.5875
2864.83189	773.4875
2867.34368	800.9875
2869.85393	821.1875
2872.36264	813.2875
2874.8698	818.6875
2877.37543	820.9875
2879.87952	803.8875
2882.38207	772.3875
2884.88308	766.6875
2887.38256	758.0875
2889.88051	736.9875
2892.37692	731.4875
2894.8718	713.2875
2897.36515	726.1875
2899.85698	714.4875
2902.34727	729.9875
2904.83604	752.2875
2907.32328	773.6875
2909.809	789.0875
2912.29319	805.9875
2914.77587	819.2875
2917.25702	821.4875
2919.73665	811.9875
2922.21476	789.6875
2924.69136	773.3875
2927.16644	734.1875
2929.64	722.3875
2932.11205	698.8875
2934.58258	698.4875
2937.05161	680.3875
2939.51912	688.4875
2941.98513	699.0875
2944.44962	685.7875
2946.91261	668.3875
2949.37409	678.2875
2951.83407	686.2875
2954.29254	690.7875
2956.74951	692.4875
2959.20498	681.0875
2961.65895	683.4875
2964.11142	671.3875
2966.56239	671.4875
2969.01186	668.6875
2971.45984	664.8875
2973.90632	652.9875
2976.35131	674.4875
2978.7948	661.4875
2981.23681	662.1875
2983.67732	674.9875
2986.11635	672.1875
2988.55388	646.8875
2990.98993	667.2875
2993.4245	666.4875
2995.85758	659.9875
2998.28917	672.3875
3000.71928	670.4875
3003.14791	672.1875
3005.57506	664.2875
3008.00073	655.3875
3010.42493	602.5875
3012.84764	657.2875
3015.26888	657.7875
3017.68865	652.0875
3020.10694	618.8875
3022.52376	621.2875
3024.9391	624.4875
3027.35298	611.8875
3029.76539	586.3875
3032.17632	576.5875
3034.5858	564.9875
3036.9938	566.1875
3039.40034	548.4875
3041.80542	521.2875
3044.20903	503.3875
3046.61118	493.6875
3049.01187	508.0875
3051.4111	491.7875
3053.80888	491.5875
3056.20519	481.7875
3058.60005	467.5875
3060.99345	498.4875
3063.3854	473.6875
3065.7759	466.4875
3068.16494	457.0875
3070.55254	453.4875
3072.93868	469.6875
3075.32338	460.4875
3077.70662	453.9875
3080.08842	441.9875
3082.46878	426.5875
3084.84769	455.9875
3087.22515	432.1875
3089.60118	441.5875
3091.97576	425.8875
3094.3489	434.9875
3096.72061	427.0875
3099.09087	412.0875
3101.4597	423.5875
3103.82709	415.7875
3106.19305	407.6875
3108.55757	418.8875
3110.92066	407.8875
3113.28232	423.2875
3115.64255	425.1875
3118.00134	430.9875
3120.35871	408.7875
3122.71466	402.0875
3125.06917	420.2875
3127.42226	412.0875
3129.77393	401.7875
3132.12417	417.6875
3134.47299	426.3875
3136.82039	411.1875
3139.16636	387.5875
3141.51092	418.0875
3143.85406	419.9875
3146.19579	412.7875
3148.53609	409.6875
3150.87499	419.9875
3153.21246	414.5875
3155.54853	428.8875
3157.88318	424.1875
3160.21642	432.1875
3162.54826	426.5875
3164.87868	423.5875
3167.2077	385.6875
3169.5353	400.8875
3171.86151	406.6875
3174.18631	386.8875
3176.5097	381.9875
3178.83169	375.7875
3181.15228	374.3875
3183.47147	351.0875
3185.78926	334.7875
3188.10565	350.3875
3190.42065	328.3875
3192.73424	340.3875
3195.04645	333.5875
3197.35725	328.0875
3199.66667	340.6875
3201.97469	343.8875
3204.28132	335.6875
3206.58656	354.1875
3208.8904	363.0875
3211.19287	355.7875
3213.49394	349.9875
3215.79363	354.7875
3218.09193	364.3875
3220.38884	358.1875
3222.68438	357.6875
3224.97853	344.4875
3227.2713	363.4875
3229.56269	342.9875
3231.8527	350.0875
3234.14133	336.9875
3236.42858	333.7875
3238.71446	311.6875
3240.99896	333.6875
3243.28209	321.5875
3245.56384	332.8875
3247.84423	320.8875
3250.12324	333.7875
3252.40088	326.3875
3254.67715	324.1875
3256.95205	315.9875
3259.22558	329.0875
3261.49775	325.7875
3263.76855	320.1875
3266.03799	332.3875
3268.30606	327.6875
3270.57277	335.7875
3272.83812	326.5875
3275.10211	338.6875
3277.36474	359.4875
3279.62601	365.9875
3281.88593	351.3875
3284.14448	345.2875
3286.40168	377.7875
3288.65753	378.3875
3290.91202	393.2875
3293.16516	385.9875
3295.41695	422.6875
3297.66738	441.5875
3299.91647	433.1875
3302.16421	454.8875
3304.4106	424.0875
3306.65564	457.8875
3308.89933	439.4875
3311.14169	446.2875
3313.38269	451.3875
3315.62236	447.4875
3317.86068	449.4875
3320.09766	467.9875
3322.3333	453.8875
3324.5676	461.5875
3326.80056	471.5875
3329.03219	480.0875
3331.26248	-0.9125
3333.49143	-0.5125
3335.71905	0.2875
