Data from AgNPs_UA_20uM_CRN_500uM_SU_RamanShift__11__13-38-20-293.txt Node

Date: Thu Aug 04 13:38:20 BST 2022
User: TCL
Spectrometer: QEP01345
Trigger mode: 4
Integration Time (sec): 1.000000E0
Scans to average: 10
Electric dark correction enabled: true
Nonlinearity correction enabled: false
Boxcar width: 0
XAxis mode: Raman Shifts
Number of Pixels in Spectrum: 1044
>>>>>Begin Spectral Data<<<<<
46.04893	-0.9875
50.45542	-0.1875
54.85868	1.8125
59.25871	-0.3875
63.6555	18.0125
68.04907	16.1125
72.43941	19.6125
76.82654	17.7125
81.21044	19.2125
85.59113	19.4125
89.96862	20.3125
94.34289	22.3125
98.71396	21.2125
103.08183	24.0125
107.4465	21.9125
111.80798	26.4125
116.16626	24.5125
120.52136	30.0125
124.87327	26.5125
129.222	32.2125
133.56755	31.3125
137.90993	34.8125
142.24913	37.9125
146.58517	45.5125
150.91804	52.3125
155.24774	67.5125
159.57429	81.6125
163.89768	104.1125
168.21792	140.4125
172.53501	194.2125
176.84895	275.8125
181.15975	392.3125
185.46741	539.2125
189.77193	758.1125
194.07331	1019.8125
198.37157	1322.6125
202.6667	1635.7125
206.9587	1951.0125
211.24758	2279.5125
215.53334	2616.1125
219.81599	2977.0125
224.09553	3377.4125
228.37195	3847.1125
232.64527	4328.3125
236.91549	4779.7125
241.18261	5170.9125
245.44663	5472.5125
249.70755	5676.9125
253.96539	5841.4125
258.22014	6009.9125
262.4718	6139.9125
266.72039	6226.7125
270.96589	6267.7125
275.20832	6192.4125
279.44768	6103.5125
283.68397	5991.2125
287.91719	5928.5125
292.14735	5979.2125
296.37445	6117.3125
300.59849	6399.6125
304.81948	6775.8125
309.03742	7104.3125
313.25231	7305.7125
317.46415	7210.6125
321.67296	6855.5125
325.87872	6440.6125
330.08145	6230.2125
334.28114	6204.0125
338.47781	6262.5125
342.67145	6437.3125
346.86207	6654.6125
351.04966	6957.8125
355.23424	7307.8125
359.4158	7554.4125
363.59435	7593.3125
367.76989	7614.1125
371.94243	7525.1125
376.11196	7442.9125
380.27849	7393.2125
384.44203	7320.7125
388.60257	7303.6125
392.76012	7360.9125
396.91468	7475.5125
401.06626	7598.5125
405.21485	7644.3125
409.36047	7470.5125
413.50311	7129.1125
417.64277	6806.9125
421.77947	6637.4125
425.9132	6552.9125
430.04396	6586.0125
434.17176	6606.3125
438.2966	6712.5125
442.41849	6846.0125
446.53742	6998.4125
450.6534	7145.2125
454.76644	7196.3125
458.87653	7163.8125
462.98368	7125.5125
467.08789	7071.2125
471.18916	6963.9125
475.2875	6803.0125
479.38291	6681.8125
483.4754	6574.1125
487.56496	6508.7125
491.6516	6474.4125
495.73531	6486.5125
499.81612	6509.8125
503.89401	6565.1125
507.96899	6619.7125
512.04106	6691.7125
516.11023	6784.4125
520.1765	6873.5125
524.23987	6875.8125
528.30034	6882.3125
532.35792	6848.0125
536.41261	6766.3125
540.46441	6651.0125
544.51333	6594.5125
548.55936	6656.4125
552.60252	6781.1125
556.64279	6896.8125
560.6802	6978.5125
564.71473	7127.5125
568.7464	7280.8125
572.7752	7256.3125
576.80114	7009.7125
580.82422	6799.3125
584.84444	6684.7125
588.86181	6674.5125
592.87633	6735.8125
596.888	6869.7125
600.89682	7246.9125
604.9028	8299.6125
608.90594	10562.7125
612.90624	12968.4125
616.90371	11884.0125
620.89834	8578.3125
624.89015	7192.7125
628.87913	7000.5125
632.86528	7218.0125
636.84862	7339.4125
640.82913	7171.6125
644.80683	6873.5125
648.78172	6682.3125
652.75379	6680.9125
656.72306	6939.0125
660.68952	7195.7125
664.65319	7076.9125
668.61405	6816.8125
672.57211	6753.6125
676.52738	6756.0125
680.47986	6688.1125
684.42955	6581.8125
688.37646	6510.9125
692.32058	6558.9125
696.26192	6655.3125
700.20048	6776.5125
704.13626	6807.4125
708.06928	6761.2125
711.99952	6702.9125
715.927	6698.6125
719.85171	6737.8125
723.77365	6762.6125
727.69284	6730.4125
731.60928	6664.1125
735.52295	6628.4125
739.43388	6689.8125
743.34206	6710.4125
747.24749	6719.4125
751.15017	6718.9125
755.05012	6836.9125
758.94733	7185.2125
762.8418	8064.9125
766.73354	9466.4125
770.62254	10508.7125
774.50882	10634.2125
778.39237	10000.5125
782.27321	8946.6125
786.15132	7873.0125
790.02671	7197.8125
793.89938	6852.5125
797.76935	6726.6125
801.6366	6661.2125
805.50115	6604.7125
809.36299	6595.5125
813.22213	6573.1125
817.07857	6560.9125
820.93231	6561.5125
824.78336	6604.6125
828.63172	6623.6125
832.47738	6622.8125
836.32036	6592.4125
840.16066	6540.4125
843.99827	6546.3125
847.8332	6531.0125
851.66546	6567.5125
855.49504	6594.0125
859.32195	6607.7125
863.1462	6583.0125
866.96777	6577.7125
870.78668	6583.7125
874.60293	6605.2125
878.41652	6638.8125
882.22745	6699.8125
886.03573	6719.9125
889.84136	6739.0125
893.64433	6697.0125
897.44466	6674.4125
901.24235	6683.4125
905.0374	6655.6125
908.8298	6595.3125
912.61957	6561.7125
916.40671	6597.0125
920.19121	6604.1125
923.97308	6700.4125
927.75233	6796.6125
931.52895	6849.5125
935.30295	6763.3125
939.07433	6622.4125
942.84309	6489.7125
946.60924	6442.4125
950.37278	6405.0125
954.13371	6410.2125
957.89203	6414.9125
961.64774	6416.9125
965.40086	6401.8125
969.15137	6389.2125
972.89929	6392.1125
976.64461	6377.4125
980.38733	6378.9125
984.12747	6395.2125
987.86502	6436.1125
991.59999	6495.7125
995.33237	6543.2125
999.06217	6660.9125
1002.78939	6781.9125
1006.51404	6970.3125
1010.23611	7138.5125
1013.95561	7184.6125
1017.67255	7185.8125
1021.38692	7113.8125
1025.09872	6998.3125
1028.80796	6914.7125
1032.51465	6852.5125
1036.21877	6882.2125
1039.92035	6945.9125
1043.61937	6988.8125
1047.31584	6999.0125
1051.00976	6994.0125
1054.70114	7025.1125
1058.38998	7002.1125
1062.07627	7036.2125
1065.76003	7090.7125
1069.44126	7200.7125
1073.11995	7364.5125
1076.79611	7555.0125
1080.46974	7716.9125
1084.14085	7843.4125
1087.80943	7978.1125
1091.47549	8075.3125
1095.13903	8052.6125
1098.80005	7919.5125
1102.45857	7732.0125
1106.11456	7591.1125
1109.76805	7520.8125
1113.41903	7592.3125
1117.06751	7749.0125
1120.71348	8012.1125
1124.35696	8352.3125
1127.99793	8586.0125
1131.63641	8421.3125
1135.2724	8048.0125
1138.90589	7764.1125
1142.5369	7622.0125
1146.16542	7587.3125
1149.79145	7554.0125
1153.415	7427.3125
1157.03607	7358.4125
1160.65467	7388.7125
1164.27079	7581.0125
1167.88443	7877.6125
1171.49561	8279.5125
1175.10432	9017.6125
1178.71056	9988.5125
1182.31434	10808.2125
1185.91565	11041.5125
1189.51451	10900.5125
1193.11091	10564.8125
1196.70485	10222.0125
1200.29634	9963.4125
1203.88538	9654.5125
1207.47197	9249.2125
1211.05612	8848.8125
1214.63782	8562.9125
1218.21708	8327.9125
1221.79391	8117.2125
1225.36829	8004.4125
1228.94024	7932.1125
1232.50976	7918.6125
1236.07685	7923.7125
1239.6415	7920.6125
1243.20374	7991.6125
1246.76355	8044.5125
1250.32093	8187.8125
1253.8759	8372.4125
1257.42845	8670.8125
1260.97859	8986.7125
1264.52631	9252.3125
1268.07163	9418.7125
1271.61453	9511.1125
1275.15503	9561.1125
1278.69312	9562.1125
1282.22882	9583.1125
1285.76211	9739.7125
1289.29301	9970.9125
1292.82151	10230.9125
1296.34761	10503.7125
1299.87133	10983.1125
1303.39266	11720.8125
1306.9116	12841.5125
1310.42815	14000.9125
1313.94233	14355.9125
1317.45412	13634.1125
1320.96354	12588.6125
1324.47058	11631.5125
1327.97525	10789.4125
1331.47754	10320.7125
1334.97747	10197.6125
1338.47502	10395.9125
1341.97022	10849.2125
1345.46305	11609.4125
1348.95352	12740.2125
1352.44163	13977.6125
1355.92738	15325.4125
1359.41078	17070.2125
1362.89183	18455.4125
1366.37053	17544.2125
1369.84688	14634.2125
1373.32088	11987.3125
1376.79254	10547.6125
1380.26186	9865.2125
1383.72883	9456.3125
1387.19347	9132.2125
1390.65578	8799.6125
1394.11575	8511.2125
1397.57339	8310.3125
1401.0287	8184.9125
1404.48168	8106.6125
1407.93234	8091.3125
1411.38068	8190.7125
1414.82669	8299.6125
1418.27039	8340.0125
1421.71177	8308.5125
1425.15083	8221.4125
1428.58758	8184.9125
1432.02203	8250.4125
1435.45416	8343.8125
1438.88399	8452.7125
1442.31151	8456.6125
1445.73673	8518.1125
1449.15965	8565.7125
1452.58027	8539.9125
1455.9986	8466.7125
1459.41463	8440.6125
1462.82837	8527.1125
1466.23982	8704.9125
1469.64898	8930.6125
1473.05586	9058.7125
1476.46045	9143.8125
1479.86276	9189.3125
1483.26279	9328.9125
1486.66054	9551.1125
1490.05602	9891.6125
1493.44922	10459.4125
1496.84016	11379.2125
1500.22882	12761.8125
1503.61521	14575.3125
1506.99934	16351.6125
1510.38121	17379.2125
1513.76081	17091.2125
1517.13816	15500.9125
1520.51324	13450.2125
1523.88607	11797.5125
1527.25665	10824.5125
1530.62498	10349.6125
1533.99105	10079.7125
1537.35488	9951.5125
1540.71647	9847.3125
1544.07581	9770.9125
1547.4329	9680.3125
1550.78776	9569.4125
1554.14038	9427.9125
1557.49077	9377.9125
1560.83892	9467.0125
1564.18484	9725.4125
1567.52853	10114.3125
1570.86999	10386.6125
1574.20922	10530.3125
1577.54624	10333.0125
1580.88103	9748.4125
1584.2136	9096.8125
1587.54395	8708.1125
1590.87208	8688.1125
1594.19801	8975.3125
1597.52172	9427.1125
1600.84321	9685.8125
1604.16251	9594.1125
1607.47959	9423.7125
1610.79447	9097.8125
1614.10715	8583.5125
1617.41763	8116.5125
1620.7259	7773.4125
1624.03199	7571.3125
1627.33587	7527.6125
1630.63757	7619.0125
1633.93707	7900.1125
1637.23439	8405.3125
1640.52951	9242.9125
1643.82246	10438.4125
1647.11321	11773.9125
1650.40179	12449.4125
1653.68819	11955.4125
1656.97241	10447.0125
1660.25446	8883.0125
1663.53433	7804.5125
1666.81203	7144.0125
1670.08756	6792.9125
1673.36092	6592.8125
1676.63211	6433.4125
1679.90115	6324.1125
1683.16801	6230.5125
1686.43272	6173.6125
1689.69527	6157.9125
1692.95567	6108.0125
1696.2139	6109.5125
1699.46999	6058.0125
1702.72392	6068.8125
1705.97571	6057.1125
1709.22535	6078.4125
1712.47284	6046.1125
1715.71819	6051.6125
1718.96139	6030.7125
1722.20246	6014.6125
1725.44139	5990.6125
1728.67818	5952.9125
1731.91284	5922.4125
1735.14537	5887.7125
1738.37576	5864.7125
1741.60403	5839.3125
1744.83017	5849.1125
1748.05418	5813.4125
1751.27607	5798.0125
1754.49584	5783.0125
1757.71349	5766.6125
1760.92903	5750.0125
1764.14244	5743.0125
1767.35375	5738.8125
1770.56294	5706.1125
1773.77002	5698.9125
1776.97499	5689.8125
1780.17785	5658.4125
1783.37861	5655.0125
1786.57727	5639.1125
1789.77382	5632.2125
1792.96828	5617.8125
1796.16064	5591.8125
1799.3509	5582.5125
1802.53907	5579.6125
1805.72514	5593.4125
1808.90913	5560.6125
1812.09102	5547.5125
1815.27083	5530.1125
1818.44856	5502.3125
1821.6242	5498.4125
1824.79776	5491.3125
1827.96924	5494.1125
1831.13864	5475.7125
1834.30597	5474.1125
1837.47122	5445.8125
1840.6344	5433.4125
1843.7955	5454.5125
1846.95454	5416.8125
1850.11151	5415.3125
1853.26642	5424.3125
1856.41926	5421.6125
1859.57004	5417.4125
1862.71876	5417.3125
1865.86542	5401.8125
1869.01003	5404.3125
1872.15258	5387.5125
1875.29308	5377.7125
1878.43152	5387.2125
1881.56792	5377.6125
1884.70227	5357.0125
1887.83457	5355.3125
1890.96482	5347.8125
1894.09304	5333.0125
1897.21921	5329.3125
1900.34335	5313.1125
1903.46544	5322.7125
1906.58551	5311.3125
1909.70353	5329.9125
1912.81953	5298.2125
1915.93349	5289.6125
1919.04543	5268.2125
1922.15534	5277.3125
1925.26322	5254.5125
1928.36908	5253.9125
1931.47292	5227.5125
1934.57473	5207.8125
1937.67453	5216.5125
1940.77232	5210.0125
1943.86808	5195.0125
1946.96184	5156.8125
1950.05358	5142.5125
1953.14331	5130.9125
1956.23103	5128.5125
1959.31675	5083.2125
1962.40046	5074.9125
1965.48217	5085.1125
1968.56188	5051.4125
1971.63959	5061.7125
1974.7153	5054.0125
1977.78901	5034.5125
1980.86073	5002.6125
1983.93046	4991.5125
1986.99819	4962.5125
1990.06394	4962.7125
1993.1277	4934.6125
1996.18947	4942.0125
1999.24925	4925.4125
2002.30706	4904.9125
2005.36288	4881.0125
2008.41672	4863.6125
2011.46859	4837.8125
2014.51848	4842.3125
2017.56639	4810.6125
2020.61233	4809.0125
2023.6563	4805.2125
2026.6983	4772.1125
2029.73833	4778.2125
2032.7764	4742.5125
2035.8125	4738.8125
2038.84664	4739.6125
2041.87881	4726.8125
2044.90903	4718.2125
2047.93729	4704.9125
2050.96359	4696.0125
2053.98794	4706.1125
2057.01034	4678.2125
2060.03078	4677.7125
2063.04927	4662.9125
2066.06582	4656.5125
2069.08042	4649.5125
2072.09307	4656.3125
2075.10378	4661.9125
2078.11255	4645.5125
2081.11938	4645.0125
2084.12426	4638.1125
2087.12722	4635.1125
2090.12824	4642.0125
2093.12732	4657.1125
2096.12447	4642.8125
2099.11969	4662.5125
2102.11299	4655.3125
2105.10435	4635.5125
2108.09379	4662.9125
2111.08131	4636.4125
2114.0669	4644.2125
2117.05057	4651.1125
2120.03233	4660.1125
2123.01216	4649.2125
2125.99008	4653.7125
2128.96609	4671.2125
2131.94018	4686.6125
2134.91236	4675.6125
2137.88263	4680.1125
2140.851	4671.3125
2143.81746	4655.6125
2146.78201	4650.7125
2149.74466	4654.7125
2152.7054	4644.6125
2155.66425	4654.0125
2158.6212	4667.3125
2161.57625	4650.7125
2164.52941	4643.3125
2167.48067	4632.5125
2170.43004	4643.7125
2173.37752	4639.5125
2176.32311	4626.8125
2179.26681	4634.8125
2182.20863	4649.8125
2185.14856	4640.8125
2188.08661	4635.3125
2191.02278	4624.1125
2193.95707	4617.1125
2196.88948	4615.4125
2199.82001	4622.9125
2202.74867	4609.9125
2205.67545	4611.1125
2208.60037	4602.5125
2211.52341	4598.0125
2214.44458	4581.3125
2217.36388	4587.5125
2220.28132	4557.4125
2223.1969	4542.9125
2226.11061	4549.5125
2229.02246	4519.5125
2231.93245	4510.2125
2234.84058	4509.3125
2237.74686	4517.5125
2240.65128	4502.2125
2243.55385	4519.0125
2246.45456	4515.3125
2249.35343	4490.0125
2252.25044	4489.5125
2255.14561	4488.2125
2258.03893	4472.9125
2260.93041	4484.3125
2263.82004	4464.4125
2266.70783	4467.5125
2269.59378	4448.7125
2272.4779	4443.8125
2275.36017	4436.0125
2278.24061	4403.7125
2281.11922	4424.9125
2283.996	4399.0125
2286.87094	4384.2125
2289.74405	4387.8125
2292.61534	4377.1125
2295.4848	4367.9125
2298.35243	4366.4125
2301.21824	4370.4125
2304.08223	4359.2125
2306.94439	4363.8125
2309.80474	4376.8125
2312.66327	4363.0125
2315.51999	4330.1125
2318.37489	4327.5125
2321.22797	4327.7125
2324.07925	4317.5125
2326.92871	4310.3125
2329.77637	4322.1125
2332.62222	4302.7125
2335.46626	4295.3125
2338.3085	4282.8125
2341.14893	4276.6125
2343.98756	4284.2125
2346.8244	4295.9125
2349.65943	4281.3125
2352.49267	4293.9125
2355.32411	4284.3125
2358.15376	4281.3125
2360.98161	4293.5125
2363.80768	4307.1125
2366.63195	4286.6125
2369.45444	4292.3125
2372.27514	4274.5125
2375.09405	4278.5125
2377.91118	4272.3125
2380.72652	4270.3125
2383.54009	4244.4125
2386.35187	4236.9125
2389.16188	4214.8125
2391.97011	4213.7125
2394.77657	4202.3125
2397.58125	4177.0125
2400.38416	4191.5125
2403.18529	4178.3125
2405.98466	4179.4125
2408.78226	4163.7125
2411.57809	4155.2125
2414.37216	4155.0125
2417.16446	4146.7125
2419.955	4136.3125
2422.74378	4153.4125
2425.5308	4132.2125
2428.31606	4133.2125
2431.09956	4137.7125
2433.88131	4133.4125
2436.6613	4124.1125
2439.43954	4135.8125
2442.21603	4139.7125
2444.99077	4130.4125
2447.76377	4123.8125
2450.53501	4108.2125
2453.30451	4114.6125
2456.07226	4116.4125
2458.83827	4090.4125
2461.60254	4100.7125
2464.36507	4083.6125
2467.12586	4091.2125
2469.88492	4106.0125
2472.64224	4099.4125
2475.39782	4104.7125
2478.15167	4102.2125
2480.90379	4076.7125
2483.65417	4097.4125
2486.40283	4099.3125
2489.14976	4098.5125
2491.89497	4095.0125
2494.63845	4097.5125
2497.3802	4110.0125
2500.12024	4082.7125
2502.85855	4080.1125
2505.59514	4061.8125
2508.33002	4054.0125
2511.06318	4026.0125
2513.79462	4014.5125
2516.52435	4027.6125
2519.25237	4021.6125
2521.97867	4004.5125
2524.70327	4010.0125
2527.42616	3999.3125
2530.14734	3995.9125
2532.86681	3990.9125
2535.58458	3977.4125
2538.30065	3992.3125
2541.01501	3982.5125
2543.72768	3975.2125
2546.43864	3991.1125
2549.14791	3977.5125
2551.85548	3986.9125
2554.56136	3981.7125
2557.26554	3975.4125
2559.96803	3955.7125
2562.66883	3940.9125
2565.36794	3954.8125
2568.06536	3934.8125
2570.7611	3911.3125
2573.45514	3920.2125
2576.14751	3905.4125
2578.83819	3895.0125
2581.52719	3879.1125
2584.21451	3873.2125
2586.90015	3864.3125
2589.58411	3855.2125
2592.2664	3853.7125
2594.94701	3850.3125
2597.62594	3846.6125
2600.30321	3836.7125
2602.9788	3834.7125
2605.65273	3848.1125
2608.32498	3842.0125
2610.99557	3824.1125
2613.66449	3843.0125
2616.33175	3818.1125
2618.99734	3808.4125
2621.66128	3817.6125
2624.32355	3809.5125
2626.98416	3817.9125
2629.64311	3802.7125
2632.30041	3778.5125
2634.95605	3780.0125
2637.61004	3762.7125
2640.26238	3767.8125
2642.91306	3763.5125
2645.56209	3755.5125
2648.20948	3753.0125
2650.85521	3737.0125
2653.4993	3755.1125
2656.14175	3744.9125
2658.78255	3754.4125
2661.42171	3756.8125
2664.05923	3778.3125
2666.6951	3764.2125
2669.32934	3767.3125
2671.96194	3768.5125
2674.59291	3757.2125
2677.22224	3766.2125
2679.84993	3776.7125
2682.476	3762.6125
2685.10043	3741.3125
2687.72324	3739.1125
2690.34441	3751.2125
2692.96396	3749.7125
2695.58188	3750.6125
2698.19818	3749.1125
2700.81285	3748.6125
2703.4259	3748.8125
2706.03733	3745.8125
2708.64714	3743.6125
2711.25533	3721.2125
2713.86191	3727.2125
2716.46687	3738.3125
2719.07021	3745.1125
2721.67194	3745.0125
2724.27206	3732.7125
2726.87057	3740.1125
2729.46747	3736.5125
2732.06276	3720.0125
2734.65644	3724.7125
2737.24852	3725.3125
2739.83899	3720.8125
2742.42786	3723.5125
2745.01513	3719.6125
2747.60079	3712.4125
2750.18486	3699.2125
2752.76733	3701.1125
2755.3482	3689.0125
2757.92747	3674.0125
2760.50515	3669.2125
2763.08123	3672.9125
2765.65573	3657.0125
2768.22863	3648.2125
2770.79994	3639.8125
2773.36967	3631.8125
2775.9378	3640.9125
2778.50435	3627.5125
2781.06932	3630.5125
2783.6327	3624.7125
2786.1945	3616.3125
2788.75471	3607.0125
2791.31335	3602.3125
2793.87041	3593.0125
2796.42589	3595.5125
2798.97979	3602.2125
2801.53212	3600.2125
2804.08288	3584.5125
2806.63206	3580.2125
2809.17967	3580.9125
2811.72571	3574.7125
2814.27018	3573.7125
2816.81308	3563.7125
2819.35442	3555.2125
2821.89419	3541.4125
2824.43239	3538.5125
2826.96904	3537.4125
2829.50412	3527.6125
2832.03763	3516.4125
2834.56959	3506.1125
2837.1	3505.5125
2839.62884	3496.2125
2842.15613	3500.0125
2844.68186	3488.7125
2847.20604	3483.6125
2849.72867	3479.2125
2852.24974	3470.3125
2854.76927	3460.7125
2857.28724	3458.7125
2859.80367	3462.4125
2862.31855	3466.4125
2864.83189	3454.6125
2867.34368	3462.0125
2869.85393	3454.8125
2872.36264	3453.0125
2874.8698	3439.3125
2877.37543	3446.9125
2879.87952	3426.8125
2882.38207	3432.9125
2884.88308	3424.7125
2887.38256	3420.4125
2889.88051	3423.4125
2892.37692	3414.7125
2894.8718	3413.4125
2897.36515	3411.2125
2899.85698	3417.4125
2902.34727	3411.1125
2904.83604	3419.1125
2907.32328	3417.9125
2909.809	3410.4125
2912.29319	3423.4125
2914.77587	3418.2125
2917.25702	3419.5125
2919.73665	3421.4125
2922.21476	3436.3125
2924.69136	3421.6125
2927.16644	3403.6125
2929.64	3408.6125
2932.11205	3398.1125
2934.58258	3388.4125
2937.05161	3382.7125
2939.51912	3387.4125
2941.98513	3374.5125
2944.44962	3364.3125
2946.91261	3353.5125
2949.37409	3370.8125
2951.83407	3378.1125
2954.29254	3371.3125
2956.74951	3360.1125
2959.20498	3358.0125
2961.65895	3349.9125
2964.11142	3339.7125
2966.56239	3343.7125
2969.01186	3349.3125
2971.45984	3332.0125
2973.90632	3323.5125
2976.35131	3322.2125
2978.7948	3301.5125
2981.23681	3309.3125
2983.67732	3305.7125
2986.11635	3303.6125
2988.55388	3290.8125
2990.98993	3288.4125
2993.4245	3291.7125
2995.85758	3280.3125
2998.28917	3269.4125
3000.71928	3263.7125
3003.14791	3251.6125
3005.57506	3256.1125
3008.00073	3247.3125
3010.42493	3221.7125
3012.84764	3211.4125
3015.26888	3207.4125
3017.68865	3192.9125
3020.10694	3184.1125
3022.52376	3198.3125
3024.9391	3192.6125
3027.35298	3173.9125
3029.76539	3151.1125
3032.17632	3161.6125
3034.5858	3151.3125
3036.9938	3144.7125
3039.40034	3130.1125
3041.80542	3128.1125
3044.20903	3121.7125
3046.61118	3121.3125
3049.01187	3093.5125
3051.4111	3093.5125
3053.80888	3108.9125
3056.20519	3102.3125
3058.60005	3096.4125
3060.99345	3089.1125
3063.3854	3076.0125
3065.7759	3070.7125
3068.16494	3070.3125
3070.55254	3066.2125
3072.93868	3055.0125
3075.32338	3041.7125
3077.70662	3027.4125
3080.08842	3006.3125
3082.46878	3000.7125
3084.84769	3002.7125
3087.22515	2993.1125
3089.60118	2988.3125
3091.97576	2997.5125
3094.3489	2989.9125
3096.72061	2979.3125
3099.09087	2983.9125
3101.4597	2986.1125
3103.82709	2979.6125
3106.19305	2974.3125
3108.55757	2970.8125
3110.92066	2965.8125
3113.28232	2965.9125
3115.64255	2949.1125
3118.00134	2931.4125
3120.35871	2930.9125
3122.71466	2938.2125
3125.06917	2932.0125
3127.42226	2928.5125
3129.77393	2907.3125
3132.12417	2900.4125
3134.47299	2904.5125
3136.82039	2897.3125
3139.16636	2893.4125
3141.51092	2893.7125
3143.85406	2891.1125
3146.19579	2885.2125
3148.53609	2895.1125
3150.87499	2884.1125
3153.21246	2883.4125
3155.54853	2886.9125
3157.88318	2879.1125
3160.21642	2881.4125
3162.54826	2877.8125
3164.87868	2876.9125
3167.2077	2866.8125
3169.5353	2874.4125
3171.86151	2865.8125
3174.18631	2867.6125
3176.5097	2842.2125
3178.83169	2848.0125
3181.15228	2840.6125
3183.47147	2830.1125
3185.78926	2836.7125
3188.10565	2822.5125
3190.42065	2805.6125
3192.73424	2815.8125
3195.04645	2805.6125
3197.35725	2800.2125
3199.66667	2788.5125
3201.97469	2799.2125
3204.28132	2783.2125
3206.58656	2796.6125
3208.8904	2795.2125
3211.19287	2799.2125
3213.49394	2814.5125
3215.79363	2792.8125
3218.09193	2806.8125
3220.38884	2788.9125
3222.68438	2792.7125
3224.97853	2781.9125
3227.2713	2796.2125
3229.56269	2783.6125
3231.8527	2772.1125
3234.14133	2773.0125
3236.42858	2763.1125
3238.71446	2755.1125
3240.99896	2748.6125
3243.28209	2752.5125
3245.56384	2735.0125
3247.84423	2741.8125
3250.12324	2732.9125
3252.40088	2732.2125
3254.67715	2727.2125
3256.95205	2714.0125
3259.22558	2715.0125
3261.49775	2710.1125
3263.76855	2724.7125
3266.03799	2712.1125
3268.30606	2709.5125
3270.57277	2716.4125
3272.83812	2716.6125
3275.10211	2697.8125
3277.36474	2689.8125
3279.62601	2685.5125
3281.88593	2666.1125
3284.14448	2676.4125
3286.40168	2682.9125
3288.65753	2688.1125
3290.91202	2666.4125
3293.16516	2651.2125
3295.41695	2645.1125
3297.66738	2639.3125
3299.91647	2634.1125
3302.16421	2612.5125
3304.4106	2603.1125
3306.65564	2581.2125
3308.89933	2559.9125
3311.14169	2536.7125
3313.38269	2542.5125
3315.62236	2505.7125
3317.86068	2490.2125
3320.09766	2469.5125
3322.3333	2449.5125
3324.5676	2436.4125
3326.80056	2399.9125
3329.03219	2376.1125
3331.26248	1.1125
3333.49143	-0.4875
3335.71905	-1.2875
