Data from AgNPs_UA_5uM_CRN_500uM_SU_RamanShift__133__11-51-33-166.txt Node

Date: Thu Aug 04 11:51:33 BST 2022
User: TCL
Spectrometer: QEP01345
Trigger mode: 4
Integration Time (sec): 1.000000E0
Scans to average: 10
Electric dark correction enabled: true
Nonlinearity correction enabled: false
Boxcar width: 0
XAxis mode: Raman Shifts
Number of Pixels in Spectrum: 1044
>>>>>Begin Spectral Data<<<<<
46.04893	0.4875
50.45542	-0.7125
54.85868	0.2875
59.25871	-1.3125
63.6555	-58.5125
68.04907	-39.1125
72.43941	-71.7125
76.82654	-57.8125
81.21044	-57.0125
85.59113	-49.6125
89.96862	-74.8125
94.34289	-54.6125
98.71396	-77.5125
103.08183	-59.2125
107.4465	-50.1125
111.80798	-55.3125
116.16626	-44.0125
120.52136	-75.4125
124.87327	-50.9125
129.222	-63.8125
133.56755	-48.7125
137.90993	-63.6125
142.24913	-52.8125
146.58517	-43.3125
150.91804	-42.5125
155.24774	-31.0125
159.57429	-11.3125
163.89768	-10.9125
168.21792	36.5875
172.53501	52.6875
176.84895	133.3875
181.15975	259.0875
185.46741	397.8875
189.77193	571.7875
194.07331	851.1875
198.37157	1129.2875
202.6667	1404.0875
206.9587	1721.2875
211.24758	2017.1875
215.53334	2312.2875
219.81599	2661.1875
224.09553	3055.6875
228.37195	3474.9875
232.64527	3899.3875
236.91549	4372.4875
241.18261	4716.0875
245.44663	5046.2875
249.70755	5241.0875
253.96539	5378.6875
258.22014	5499.7875
262.4718	5532.5875
266.72039	5573.7875
270.96589	5530.2875
275.20832	5430.0875
279.44768	5309.2875
283.68397	5198.2875
287.91719	5127.3875
292.14735	5132.3875
296.37445	5273.8875
300.59849	5495.3875
304.81948	5784.1875
309.03742	6085.4875
313.25231	6280.7875
317.46415	6245.7875
321.67296	5891.4875
325.87872	5556.2875
330.08145	5415.8875
334.28114	5386.4875
338.47781	5455.4875
342.67145	5579.7875
346.86207	5792.4875
351.04966	6110.9875
355.23424	6459.4875
359.4158	6695.1875
363.59435	6730.4875
367.76989	6697.5875
371.94243	6583.2875
376.11196	6484.6875
380.27849	6446.8875
384.44203	6378.5875
388.60257	6360.5875
392.76012	6374.5875
396.91468	6471.6875
401.06626	6625.2875
405.21485	6669.0875
409.36047	6527.5875
413.50311	6284.8875
417.64277	6048.2875
421.77947	5863.3875
425.9132	5797.8875
430.04396	5793.6875
434.17176	5846.8875
438.2966	5942.2875
442.41849	6037.1875
446.53742	6134.2875
450.6534	6221.9875
454.76644	6295.7875
458.87653	6314.4875
462.98368	6318.6875
467.08789	6259.4875
471.18916	6213.1875
475.2875	6117.9875
479.38291	6032.4875
483.4754	5927.8875
487.56496	5873.5875
491.6516	5854.5875
495.73531	5858.7875
499.81612	5855.4875
503.89401	5951.8875
507.96899	6001.3875
512.04106	6078.6875
516.11023	6182.4875
520.1765	6242.0875
524.23987	6279.6875
528.30034	6275.8875
532.35792	6207.8875
536.41261	6167.0875
540.46441	6081.9875
544.51333	6061.9875
548.55936	6087.7875
552.60252	6205.4875
556.64279	6283.1875
560.6802	6405.3875
564.71473	6516.0875
568.7464	6676.3875
572.7752	6637.0875
576.80114	6355.5875
580.82422	6170.1875
584.84444	6071.9875
588.86181	6056.0875
592.87633	6093.5875
596.888	6204.0875
600.89682	6527.2875
604.9028	7363.1875
608.90594	9078.7875
612.90624	11079.2875
616.90371	10319.1875
620.89834	7771.5875
624.89015	6679.5875
628.87913	6496.8875
632.86528	6644.0875
636.84862	6784.7875
640.82913	6685.8875
644.80683	6402.4875
648.78172	6252.7875
652.75379	6277.4875
656.72306	6470.1875
660.68952	6709.7875
664.65319	6607.8875
668.61405	6432.5875
672.57211	6367.6875
676.52738	6391.1875
680.47986	6307.9875
684.42955	6219.7875
688.37646	6195.0875
692.32058	6196.5875
696.26192	6264.3875
700.20048	6336.2875
704.13626	6371.7875
708.06928	6360.7875
711.99952	6328.1875
715.927	6276.9875
719.85171	6325.7875
723.77365	6372.3875
727.69284	6340.1875
731.60928	6349.1875
735.52295	6322.3875
739.43388	6354.8875
743.34206	6367.9875
747.24749	6382.7875
751.15017	6390.1875
755.05012	6458.8875
758.94733	6756.5875
762.8418	7456.7875
766.73354	8548.9875
770.62254	9348.9875
774.50882	9412.4875
778.39237	9018.0875
782.27321	8259.5875
786.15132	7408.7875
790.02671	6853.6875
793.89938	6525.7875
797.76935	6420.5875
801.6366	6379.5875
805.50115	6352.2875
809.36299	6344.8875
813.22213	6331.5875
817.07857	6338.6875
820.93231	6330.0875
824.78336	6355.9875
828.63172	6371.3875
832.47738	6374.1875
836.32036	6386.8875
840.16066	6362.5875
843.99827	6341.8875
847.8332	6349.3875
851.66546	6386.3875
855.49504	6352.0875
859.32195	6399.9875
863.1462	6387.8875
866.96777	6415.8875
870.78668	6372.3875
874.60293	6407.0875
878.41652	6441.2875
882.22745	6509.1875
886.03573	6530.7875
889.84136	6532.6875
893.64433	6520.9875
897.44466	6525.7875
901.24235	6514.5875
905.0374	6499.1875
908.8298	6456.4875
912.61957	6414.1875
916.40671	6378.5875
920.19121	6424.3875
923.97308	6516.8875
927.75233	6554.6875
931.52895	6607.5875
935.30295	6605.1875
939.07433	6474.6875
942.84309	6367.7875
946.60924	6346.6875
950.37278	6333.4875
954.13371	6321.3875
957.89203	6306.5875
961.64774	6321.8875
965.40086	6332.7875
969.15137	6287.5875
972.89929	6332.8875
976.64461	6307.1875
980.38733	6326.5875
984.12747	6321.6875
987.86502	6369.4875
991.59999	6364.8875
995.33237	6456.1875
999.06217	6531.3875
1002.78939	6608.4875
1006.51404	6743.2875
1010.23611	6852.9875
1013.95561	6898.6875
1017.67255	6926.9875
1021.38692	6920.0875
1025.09872	6851.5875
1028.80796	6759.3875
1032.51465	6741.8875
1036.21877	6733.1875
1039.92035	6767.5875
1043.61937	6822.1875
1047.31584	6840.0875
1051.00976	6867.2875
1054.70114	6910.5875
1058.38998	6885.7875
1062.07627	6882.4875
1065.76003	6909.4875
1069.44126	7031.0875
1073.11995	7099.0875
1076.79611	7227.3875
1080.46974	7356.4875
1084.14085	7481.1875
1087.80943	7557.2875
1091.47549	7628.7875
1095.13903	7567.6875
1098.80005	7507.6875
1102.45857	7403.6875
1106.11456	7340.5875
1109.76805	7270.7875
1113.41903	7353.6875
1117.06751	7468.7875
1120.71348	7679.6875
1124.35696	7980.2875
1127.99793	8221.3875
1131.63641	8098.6875
1135.2724	7759.7875
1138.90589	7523.0875
1142.5369	7371.7875
1146.16542	7328.0875
1149.79145	7254.7875
1153.415	7179.9875
1157.03607	7152.6875
1160.65467	7211.1875
1164.27079	7355.5875
1167.88443	7570.9875
1171.49561	7893.0875
1175.10432	8390.9875
1178.71056	9102.7875
1182.31434	9767.3875
1185.91565	9987.2875
1189.51451	9868.0875
1193.11091	9697.2875
1196.70485	9554.2875
1200.29634	9395.9875
1203.88538	9181.4875
1207.47197	8844.8875
1211.05612	8464.4875
1214.63782	8158.4875
1218.21708	7969.0875
1221.79391	7807.9875
1225.36829	7728.3875
1228.94024	7695.0875
1232.50976	7685.5875
1236.07685	7710.9875
1239.6415	7759.5875
1243.20374	7770.0875
1246.76355	7825.7875
1250.32093	7905.9875
1253.8759	7956.4875
1257.42845	8161.2875
1260.97859	8350.2875
1264.52631	8525.6875
1268.07163	8641.5875
1271.61453	8759.0875
1275.15503	8784.3875
1278.69312	8788.5875
1282.22882	8837.8875
1285.76211	9010.9875
1289.29301	9198.9875
1292.82151	9422.2875
1296.34761	9607.5875
1299.87133	9969.4875
1303.39266	10529.2875
1306.9116	11446.3875
1310.42815	12447.1875
1313.94233	12779.2875
1317.45412	12144.1875
1320.96354	11235.2875
1324.47058	10444.2875
1327.97525	9860.0875
1331.47754	9515.6875
1334.97747	9447.5875
1338.47502	9558.8875
1341.97022	9892.9875
1345.46305	10504.5875
1348.95352	11396.7875
1352.44163	12386.7875
1355.92738	13420.6875
1359.41078	14688.5875
1362.89183	15817.6875
1366.37053	15247.1875
1369.84688	12922.0875
1373.32088	10793.5875
1376.79254	9700.7875
1380.26186	9158.0875
1383.72883	8827.4875
1387.19347	8526.6875
1390.65578	8251.7875
1394.11575	8065.4875
1397.57339	7924.8875
1401.0287	7825.8875
1404.48168	7808.8875
1407.93234	7825.2875
1411.38068	7842.8875
1414.82669	7914.1875
1418.27039	7976.5875
1421.71177	7967.7875
1425.15083	7885.0875
1428.58758	7806.8875
1432.02203	7843.1875
1435.45416	7926.8875
1438.88399	7930.7875
1442.31151	7925.3875
1445.73673	8020.5875
1449.15965	8080.9875
1452.58027	8081.6875
1455.9986	8080.9875
1459.41463	8070.3875
1462.82837	8152.9875
1466.23982	8334.4875
1469.64898	8501.9875
1473.05586	8617.5875
1476.46045	8708.4875
1479.86276	8756.3875
1483.26279	8816.9875
1486.66054	8951.8875
1490.05602	9156.1875
1493.44922	9573.4875
1496.84016	10289.4875
1500.22882	11378.6875
1503.61521	12740.4875
1506.99934	14105.9875
1510.38121	15043.7875
1513.76081	14943.1875
1517.13816	13728.4875
1520.51324	12028.7875
1523.88607	10693.2875
1527.25665	9892.6875
1530.62498	9498.6875
1533.99105	9310.5875
1537.35488	9235.1875
1540.71647	9178.3875
1544.07581	9118.3875
1547.4329	9040.7875
1550.78776	8901.2875
1554.14038	8834.4875
1557.49077	8749.5875
1560.83892	8833.8875
1564.18484	9009.4875
1567.52853	9240.7875
1570.86999	9500.0875
1574.20922	9589.1875
1577.54624	9494.8875
1580.88103	9079.3875
1584.2136	8559.4875
1587.54395	8296.1875
1590.87208	8258.3875
1594.19801	8425.9875
1597.52172	8729.5875
1600.84321	8908.3875
1604.16251	8822.3875
1607.47959	8672.3875
1610.79447	8467.4875
1614.10715	8206.2875
1617.41763	7942.5875
1620.7259	7670.6875
1624.03199	7520.3875
1627.33587	7448.9875
1630.63757	7481.5875
1633.93707	7703.0875
1637.23439	8057.5875
1640.52951	8647.5875
1643.82246	9467.2875
1647.11321	10394.1875
1650.40179	10920.0875
1653.68819	10619.5875
1656.97241	9564.5875
1660.25446	8416.5875
1663.53433	7604.7875
1666.81203	7097.4875
1670.08756	6823.9875
1673.36092	6695.2875
1676.63211	6546.0875
1679.90115	6449.3875
1683.16801	6382.9875
1686.43272	6319.0875
1689.69527	6260.3875
1692.95567	6192.8875
1696.2139	6173.2875
1699.46999	6131.0875
1702.72392	6132.9875
1705.97571	6121.1875
1709.22535	6109.7875
1712.47284	6146.3875
1715.71819	6170.1875
1718.96139	6143.5875
1722.20246	6159.1875
1725.44139	6106.0875
1728.67818	6093.9875
1731.91284	6047.9875
1735.14537	6023.6875
1738.37576	6006.0875
1741.60403	5979.3875
1744.83017	5954.1875
1748.05418	5961.7875
1751.27607	5955.4875
1754.49584	5943.6875
1757.71349	5885.8875
1760.92903	5910.2875
1764.14244	5849.8875
1767.35375	5870.0875
1770.56294	5851.1875
1773.77002	5815.9875
1776.97499	5858.7875
1780.17785	5817.1875
1783.37861	5816.1875
1786.57727	5829.3875
1789.77382	5772.4875
1792.96828	5791.6875
1796.16064	5821.4875
1799.3509	5757.8875
1802.53907	5808.9875
1805.72514	5742.4875
1808.90913	5734.5875
1812.09102	5719.9875
1815.27083	5704.6875
1818.44856	5723.8875
1821.6242	5715.8875
1824.79776	5686.5875
1827.96924	5681.0875
1831.13864	5668.1875
1834.30597	5666.2875
1837.47122	5644.5875
1840.6344	5632.6875
1843.7955	5619.5875
1846.95454	5627.9875
1850.11151	5648.7875
1853.26642	5594.5875
1856.41926	5594.5875
1859.57004	5607.6875
1862.71876	5581.9875
1865.86542	5613.8875
1869.01003	5590.8875
1872.15258	5556.2875
1875.29308	5576.0875
1878.43152	5585.6875
1881.56792	5559.5875
1884.70227	5551.7875
1887.83457	5532.2875
1890.96482	5512.1875
1894.09304	5510.8875
1897.21921	5521.1875
1900.34335	5509.3875
1903.46544	5490.8875
1906.58551	5505.1875
1909.70353	5496.9875
1912.81953	5489.5875
1915.93349	5466.7875
1919.04543	5463.7875
1922.15534	5447.7875
1925.26322	5448.7875
1928.36908	5427.4875
1931.47292	5429.6875
1934.57473	5440.1875
1937.67453	5414.5875
1940.77232	5381.5875
1943.86808	5372.4875
1946.96184	5363.6875
1950.05358	5343.5875
1953.14331	5328.8875
1956.23103	5323.3875
1959.31675	5273.8875
1962.40046	5245.1875
1965.48217	5268.0875
1968.56188	5254.1875
1971.63959	5239.1875
1974.7153	5224.5875
1977.78901	5212.4875
1980.86073	5199.9875
1983.93046	5153.1875
1986.99819	5088.6875
1990.06394	5103.0875
1993.1277	5114.6875
1996.18947	5109.2875
1999.24925	5062.6875
2002.30706	5070.1875
2005.36288	5066.1875
2008.41672	5035.1875
2011.46859	4997.7875
2014.51848	5005.0875
2017.56639	4990.1875
2020.61233	4967.0875
2023.6563	4959.4875
2026.6983	4908.8875
2029.73833	4925.2875
2032.7764	4918.2875
2035.8125	4883.4875
2038.84664	4881.9875
2041.87881	4872.5875
2044.90903	4867.3875
2047.93729	4861.3875
2050.96359	4833.5875
2053.98794	4844.7875
2057.01034	4841.3875
2060.03078	4818.5875
2063.04927	4818.1875
2066.06582	4826.2875
2069.08042	4813.6875
2072.09307	4813.9875
2075.10378	4804.8875
2078.11255	4803.6875
2081.11938	4790.5875
2084.12426	4788.5875
2087.12722	4788.2875
2090.12824	4783.8875
2093.12732	4791.4875
2096.12447	4801.3875
2099.11969	4783.8875
2102.11299	4787.9875
2105.10435	4801.6875
2108.09379	4787.0875
2111.08131	4791.2875
2114.0669	4778.2875
2117.05057	4794.4875
2120.03233	4783.4875
2123.01216	4806.7875
2125.99008	4800.4875
2128.96609	4799.8875
2131.94018	4813.2875
2134.91236	4803.3875
2137.88263	4796.4875
2140.851	4808.9875
2143.81746	4824.7875
2146.78201	4815.2875
2149.74466	4814.8875
2152.7054	4817.7875
2155.66425	4788.3875
2158.6212	4799.9875
2161.57625	4767.1875
2164.52941	4733.3875
2167.48067	4752.8875
2170.43004	4758.4875
2173.37752	4785.4875
2176.32311	4764.9875
2179.26681	4769.8875
2182.20863	4781.1875
2185.14856	4775.3875
2188.08661	4766.6875
2191.02278	4758.7875
2193.95707	4758.6875
2196.88948	4716.6875
2199.82001	4745.2875
2202.74867	4718.6875
2205.67545	4739.6875
2208.60037	4735.9875
2211.52341	4725.4875
2214.44458	4704.3875
2217.36388	4690.4875
2220.28132	4690.1875
2223.1969	4659.4875
2226.11061	4651.3875
2229.02246	4648.4875
2231.93245	4648.4875
2234.84058	4633.0875
2237.74686	4626.3875
2240.65128	4605.4875
2243.55385	4612.4875
2246.45456	4585.0875
2249.35343	4607.8875
2252.25044	4595.5875
2255.14561	4594.7875
2258.03893	4592.8875
2260.93041	4571.1875
2263.82004	4543.3875
2266.70783	4572.7875
2269.59378	4522.2875
2272.4779	4510.9875
2275.36017	4523.8875
2278.24061	4512.1875
2281.11922	4466.1875
2283.996	4486.3875
2286.87094	4465.0875
2289.74405	4471.2875
2292.61534	4463.7875
2295.4848	4443.4875
2298.35243	4453.2875
2301.21824	4445.3875
2304.08223	4425.5875
2306.94439	4440.3875
2309.80474	4439.1875
2312.66327	4421.7875
2315.51999	4423.6875
2318.37489	4426.4875
2321.22797	4393.4875
2324.07925	4390.5875
2326.92871	4380.6875
2329.77637	4359.3875
2332.62222	4358.8875
2335.46626	4329.6875
2338.3085	4323.4875
2341.14893	4346.0875
2343.98756	4362.0875
2346.8244	4326.6875
2349.65943	4309.7875
2352.49267	4311.0875
2355.32411	4325.7875
2358.15376	4305.2875
2360.98161	4307.7875
2363.80768	4282.3875
2366.63195	4298.2875
2369.45444	4309.8875
2372.27514	4309.4875
2375.09405	4308.9875
2377.91118	4277.8875
2380.72652	4266.5875
2383.54009	4274.8875
2386.35187	4262.7875
2389.16188	4235.7875
2391.97011	4230.7875
2394.77657	4230.2875
2397.58125	4233.0875
2400.38416	4221.2875
2403.18529	4209.0875
2405.98466	4175.1875
2408.78226	4191.7875
2411.57809	4168.4875
2414.37216	4164.9875
2417.16446	4171.3875
2419.955	4150.2875
2422.74378	4158.6875
2425.5308	4133.3875
2428.31606	4125.7875
2431.09956	4141.4875
2433.88131	4133.4875
2436.6613	4146.6875
2439.43954	4115.9875
2442.21603	4111.9875
2444.99077	4104.4875
2447.76377	4106.7875
2450.53501	4110.1875
2453.30451	4084.4875
2456.07226	4108.4875
2458.83827	4078.2875
2461.60254	4057.8875
2464.36507	4083.9875
2467.12586	4072.4875
2469.88492	4068.9875
2472.64224	4050.4875
2475.39782	4037.2875
2478.15167	4061.1875
2480.90379	4050.4875
2483.65417	4055.5875
2486.40283	4050.2875
2489.14976	4065.4875
2491.89497	4048.5875
2494.63845	4057.0875
2497.3802	4020.1875
2500.12024	4027.6875
2502.85855	4028.2875
2505.59514	4022.1875
2508.33002	4012.6875
2511.06318	3977.6875
2513.79462	4001.1875
2516.52435	3964.9875
2519.25237	3940.7875
2521.97867	3949.7875
2524.70327	3950.9875
2527.42616	3952.0875
2530.14734	3950.1875
2532.86681	3932.0875
2535.58458	3936.9875
2538.30065	3929.3875
2541.01501	3934.3875
2543.72768	3919.0875
2546.43864	3917.1875
2549.14791	3892.6875
2551.85548	3884.6875
2554.56136	3883.4875
2557.26554	3895.1875
2559.96803	3891.4875
2562.66883	3879.5875
2565.36794	3859.9875
2568.06536	3812.9875
2570.7611	3852.3875
2573.45514	3836.5875
2576.14751	3817.3875
2578.83819	3788.2875
2581.52719	3790.9875
2584.21451	3794.1875
2586.90015	3781.1875
2589.58411	3751.3875
2592.2664	3773.3875
2594.94701	3764.4875
2597.62594	3775.7875
2600.30321	3698.0875
2602.9788	3720.1875
2605.65273	3712.0875
2608.32498	3723.4875
2610.99557	3739.3875
2613.66449	3706.0875
2616.33175	3717.3875
2618.99734	3701.0875
2621.66128	3720.5875
2624.32355	3692.5875
2626.98416	3682.2875
2629.64311	3664.9875
2632.30041	3669.2875
2634.95605	3645.0875
2637.61004	3638.6875
2640.26238	3635.2875
2642.91306	3626.7875
2645.56209	3649.4875
2648.20948	3639.2875
2650.85521	3610.0875
2653.4993	3636.3875
2656.14175	3620.5875
2658.78255	3600.3875
2661.42171	3581.1875
2664.05923	3634.5875
2666.6951	3618.9875
2669.32934	3641.0875
2671.96194	3650.5875
2674.59291	3614.6875
2677.22224	3629.8875
2679.84993	3628.3875
2682.476	3615.4875
2685.10043	3610.7875
2687.72324	3598.8875
2690.34441	3597.6875
2692.96396	3604.9875
2695.58188	3597.2875
2698.19818	3602.0875
2700.81285	3595.1875
2703.4259	3579.8875
2706.03733	3545.7875
2708.64714	3553.4875
2711.25533	3584.8875
2713.86191	3590.2875
2716.46687	3572.6875
2719.07021	3582.1875
2721.67194	3576.3875
2724.27206	3594.4875
2726.87057	3580.2875
2729.46747	3562.2875
2732.06276	3566.5875
2734.65644	3551.5875
2737.24852	3562.6875
2739.83899	3525.9875
2742.42786	3551.7875
2745.01513	3543.2875
2747.60079	3535.9875
2750.18486	3503.4875
2752.76733	3507.1875
2755.3482	3504.9875
2757.92747	3502.3875
2760.50515	3478.4875
2763.08123	3481.7875
2765.65573	3490.4875
2768.22863	3479.4875
2770.79994	3463.6875
2773.36967	3458.5875
2775.9378	3449.3875
2778.50435	3447.7875
2781.06932	3446.9875
2783.6327	3423.9875
2786.1945	3453.0875
2788.75471	3422.1875
2791.31335	3413.1875
2793.87041	3431.2875
2796.42589	3392.3875
2798.97979	3386.7875
2801.53212	3399.9875
2804.08288	3412.5875
2806.63206	3381.6875
2809.17967	3364.3875
2811.72571	3372.4875
2814.27018	3372.5875
2816.81308	3350.0875
2819.35442	3319.5875
2821.89419	3340.1875
2824.43239	3318.9875
2826.96904	3342.2875
2829.50412	3312.1875
2832.03763	3316.1875
2834.56959	3320.7875
2837.1	3310.3875
2839.62884	3302.4875
2842.15613	3306.5875
2844.68186	3303.9875
2847.20604	3289.0875
2849.72867	3272.9875
2852.24974	3278.6875
2854.76927	3247.2875
2857.28724	3205.4875
2859.80367	3252.8875
2862.31855	3267.3875
2864.83189	3247.4875
2867.34368	3249.1875
2869.85393	3243.4875
2872.36264	3231.4875
2874.8698	3235.7875
2877.37543	3243.1875
2879.87952	3224.8875
2882.38207	3206.9875
2884.88308	3210.2875
2887.38256	3213.3875
2889.88051	3203.3875
2892.37692	3215.1875
2894.8718	3192.1875
2897.36515	3217.7875
2899.85698	3210.4875
2902.34727	3207.4875
2904.83604	3190.0875
2907.32328	3217.7875
2909.809	3214.3875
2912.29319	3209.6875
2914.77587	3210.1875
2917.25702	3226.4875
2919.73665	3208.9875
2922.21476	3219.5875
2924.69136	3220.9875
2927.16644	3209.0875
2929.64	3206.8875
2932.11205	3183.2875
2934.58258	3197.5875
2937.05161	3182.5875
2939.51912	3181.0875
2941.98513	3188.4875
2944.44962	3178.9875
2946.91261	3140.5875
2949.37409	3149.4875
2951.83407	3147.9875
2954.29254	3139.9875
2956.74951	3150.6875
2959.20498	3126.2875
2961.65895	3137.4875
2964.11142	3127.4875
2966.56239	3112.9875
2969.01186	3132.6875
2971.45984	3117.5875
2973.90632	3103.7875
2976.35131	3122.1875
2978.7948	3115.3875
2981.23681	3085.4875
2983.67732	3087.4875
2986.11635	3094.6875
2988.55388	3056.6875
2990.98993	3079.2875
2993.4245	3056.4875
2995.85758	3044.9875
2998.28917	3031.5875
3000.71928	3024.4875
3003.14791	3029.7875
3005.57506	3011.4875
3008.00073	3007.0875
3010.42493	2944.3875
3012.84764	2995.3875
3015.26888	2972.8875
3017.68865	2980.3875
3020.10694	2940.9875
3022.52376	2939.4875
3024.9391	2937.8875
3027.35298	2934.4875
3029.76539	2924.1875
3032.17632	2924.9875
3034.5858	2914.7875
3036.9938	2917.8875
3039.40034	2893.9875
3041.80542	2899.1875
3044.20903	2883.0875
3046.61118	2880.6875
3049.01187	2882.3875
3051.4111	2867.5875
3053.80888	2869.0875
3056.20519	2860.1875
3058.60005	2823.1875
3060.99345	2861.9875
3063.3854	2822.8875
3065.7759	2819.2875
3068.16494	2810.9875
3070.55254	2788.2875
3072.93868	2803.4875
3075.32338	2798.6875
3077.70662	2794.8875
3080.08842	2771.1875
3082.46878	2769.4875
3084.84769	2776.5875
3087.22515	2752.7875
3089.60118	2766.4875
3091.97576	2747.7875
3094.3489	2765.6875
3096.72061	2742.6875
3099.09087	2738.6875
3101.4597	2757.6875
3103.82709	2763.1875
3106.19305	2737.3875
3108.55757	2744.1875
3110.92066	2710.0875
3113.28232	2728.9875
3115.64255	2722.8875
3118.00134	2728.0875
3120.35871	2683.7875
3122.71466	2683.1875
3125.06917	2680.5875
3127.42226	2668.8875
3129.77393	2650.0875
3132.12417	2683.1875
3134.47299	2672.7875
3136.82039	2640.7875
3139.16636	2623.8875
3141.51092	2645.5875
3143.85406	2651.3875
3146.19579	2630.2875
3148.53609	2632.2875
3150.87499	2646.2875
3153.21246	2621.5875
3155.54853	2636.0875
3157.88318	2642.4875
3160.21642	2644.1875
3162.54826	2637.6875
3164.87868	2636.1875
3167.2077	2607.6875
3169.5353	2631.7875
3171.86151	2629.0875
3174.18631	2606.9875
3176.5097	2611.7875
3178.83169	2599.8875
3181.15228	2608.0875
3183.47147	2587.7875
3185.78926	2566.0875
3188.10565	2563.5875
3190.42065	2554.1875
3192.73424	2570.8875
3195.04645	2552.9875
3197.35725	2529.1875
3199.66667	2551.7875
3201.97469	2542.7875
3204.28132	2520.5875
3206.58656	2547.6875
3208.8904	2552.7875
3211.19287	2533.4875
3213.49394	2520.0875
3215.79363	2528.8875
3218.09193	2550.3875
3220.38884	2533.4875
3222.68438	2531.6875
3224.97853	2502.6875
3227.2713	2522.2875
3229.56269	2502.6875
3231.8527	2506.8875
3234.14133	2493.0875
3236.42858	2492.8875
3238.71446	2466.5875
3240.99896	2497.8875
3243.28209	2460.2875
3245.56384	2476.4875
3247.84423	2472.6875
3250.12324	2461.7875
3252.40088	2455.2875
3254.67715	2443.0875
3256.95205	2445.4875
3259.22558	2451.7875
3261.49775	2452.5875
3263.76855	2448.0875
3266.03799	2444.5875
3268.30606	2438.7875
3270.57277	2442.7875
3272.83812	2411.4875
3275.10211	2424.3875
3277.36474	2427.7875
3279.62601	2421.7875
3281.88593	2406.5875
3284.14448	2374.2875
3286.40168	2404.1875
3288.65753	2389.1875
3290.91202	2384.7875
3293.16516	2375.4875
3295.41695	2393.1875
3297.66738	2381.4875
3299.91647	2358.2875
3302.16421	2350.5875
3304.4106	2300.3875
3306.65564	2330.6875
3308.89933	2292.4875
3311.14169	2279.4875
3313.38269	2261.5875
3315.62236	2248.5875
3317.86068	2233.2875
3320.09766	2220.4875
3322.3333	2192.7875
3324.5676	2182.4875
3326.80056	2143.4875
3329.03219	2135.7875
3331.26248	-0.4125
3333.49143	-0.1125
3335.71905	-0.2125
