Data from AgNPs_UA_50uM_CRN_500uM_SU_RamanShift__71__14-07-40-327.txt Node

Date: Thu Aug 04 14:07:40 BST 2022
User: TCL
Spectrometer: QEP01345
Trigger mode: 4
Integration Time (sec): 1.000000E0
Scans to average: 10
Electric dark correction enabled: true
Nonlinearity correction enabled: false
Boxcar width: 0
XAxis mode: Raman Shifts
Number of Pixels in Spectrum: 1044
>>>>>Begin Spectral Data<<<<<
46.04893	-0.7875
50.45542	0.1125
54.85868	-0.5875
59.25871	-0.3875
63.6555	18.4125
68.04907	16.3125
72.43941	17.3125
76.82654	20.8125
81.21044	20.5125
85.59113	22.2125
89.96862	22.1125
94.34289	23.0125
98.71396	23.4125
103.08183	23.7125
107.4465	23.7125
111.80798	23.4125
116.16626	24.6125
120.52136	26.2125
124.87327	30.0125
129.222	32.7125
133.56755	34.9125
137.90993	38.2125
142.24913	39.1125
146.58517	45.2125
150.91804	52.8125
155.24774	64.1125
159.57429	78.7125
163.89768	103.2125
168.21792	136.0125
172.53501	192.0125
176.84895	270.5125
181.15975	384.2125
185.46741	540.6125
189.77193	752.5125
194.07331	1010.6125
198.37157	1314.2125
202.6667	1612.6125
206.9587	1919.3125
211.24758	2223.1125
215.53334	2533.0125
219.81599	2865.5125
224.09553	3233.3125
228.37195	3652.6125
232.64527	4086.4125
236.91549	4523.6125
241.18261	4911.5125
245.44663	5235.1125
249.70755	5504.9125
253.96539	5706.1125
258.22014	5928.3125
262.4718	6115.2125
266.72039	6256.7125
270.96589	6301.2125
275.20832	6272.0125
279.44768	6165.4125
283.68397	6059.3125
287.91719	5995.2125
292.14735	5986.4125
296.37445	6099.7125
300.59849	6262.8125
304.81948	6505.4125
309.03742	6716.1125
313.25231	6789.5125
317.46415	6699.0125
321.67296	6431.6125
325.87872	6170.2125
330.08145	6028.7125
334.28114	6054.5125
338.47781	6146.5125
342.67145	6282.3125
346.86207	6475.8125
351.04966	6729.6125
355.23424	7008.4125
359.4158	7210.1125
363.59435	7327.0125
367.76989	7363.2125
371.94243	7372.1125
376.11196	7376.4125
380.27849	7364.6125
384.44203	7368.0125
388.60257	7387.7125
392.76012	7431.2125
396.91468	7519.8125
401.06626	7628.7125
405.21485	7697.8125
409.36047	7580.6125
413.50311	7319.6125
417.64277	7070.3125
421.77947	6916.5125
425.9132	6869.8125
430.04396	6908.1125
434.17176	6961.3125
438.2966	7134.6125
442.41849	7335.6125
446.53742	7557.8125
450.6534	7790.4125
454.76644	7958.3125
458.87653	7966.9125
462.98368	7888.8125
467.08789	7733.9125
471.18916	7527.5125
475.2875	7304.6125
479.38291	7109.4125
483.4754	6987.7125
487.56496	6909.8125
491.6516	6842.7125
495.73531	6808.1125
499.81612	6819.5125
503.89401	6860.2125
507.96899	6923.1125
512.04106	6961.4125
516.11023	7049.3125
520.1765	7125.2125
524.23987	7150.8125
528.30034	7156.9125
532.35792	7109.8125
536.41261	7012.1125
540.46441	6902.9125
544.51333	6862.0125
548.55936	6914.2125
552.60252	7063.9125
556.64279	7163.4125
560.6802	7215.0125
564.71473	7277.1125
568.7464	7373.6125
572.7752	7369.6125
576.80114	7219.6125
580.82422	7108.7125
584.84444	7163.6125
588.86181	7305.0125
592.87633	7528.4125
596.888	7707.0125
600.89682	7991.3125
604.9028	8892.6125
608.90594	10777.2125
612.90624	12549.4125
616.90371	11390.4125
620.89834	8838.4125
624.89015	7897.4125
628.87913	7858.5125
632.86528	7791.6125
636.84862	7656.9125
640.82913	7369.5125
644.80683	7059.9125
648.78172	6877.3125
652.75379	6962.5125
656.72306	7189.1125
660.68952	7450.6125
664.65319	7387.4125
668.61405	7244.2125
672.57211	7219.5125
676.52738	7186.9125
680.47986	7053.0125
684.42955	6944.9125
688.37646	6990.9125
692.32058	7041.2125
696.26192	7159.2125
700.20048	7254.3125
704.13626	7265.8125
708.06928	7165.9125
711.99952	7088.8125
715.927	7103.7125
719.85171	7170.8125
723.77365	7110.7125
727.69284	7055.7125
731.60928	7021.7125
735.52295	7010.1125
739.43388	7066.6125
743.34206	7133.3125
747.24749	7167.5125
751.15017	7185.0125
755.05012	7285.1125
758.94733	7596.4125
762.8418	8238.9125
766.73354	9246.9125
770.62254	10109.4125
774.50882	10321.4125
778.39237	9826.3125
782.27321	8917.8125
786.15132	8068.9125
790.02671	7523.0125
793.89938	7306.7125
797.76935	7201.7125
801.6366	7161.0125
805.50115	7105.8125
809.36299	7084.4125
813.22213	7029.1125
817.07857	7016.7125
820.93231	7013.4125
824.78336	7029.3125
828.63172	7055.6125
832.47738	7081.7125
836.32036	7099.9125
840.16066	7130.7125
843.99827	7169.5125
847.8332	7130.4125
851.66546	7071.7125
855.49504	7080.3125
859.32195	7059.3125
863.1462	7064.6125
866.96777	7019.1125
870.78668	7004.6125
874.60293	7007.0125
878.41652	7042.8125
882.22745	7090.9125
886.03573	7124.7125
889.84136	7108.1125
893.64433	7071.8125
897.44466	7041.2125
901.24235	7046.1125
905.0374	7023.6125
908.8298	6991.1125
912.61957	6993.9125
916.40671	7032.5125
920.19121	7136.6125
923.97308	7230.0125
927.75233	7350.4125
931.52895	7410.6125
935.30295	7333.0125
939.07433	7137.7125
942.84309	7018.2125
946.60924	7007.0125
950.37278	6966.4125
954.13371	6909.9125
957.89203	6860.7125
961.64774	6818.3125
965.40086	6784.2125
969.15137	6787.6125
972.89929	6777.3125
976.64461	6784.8125
980.38733	6805.5125
984.12747	6835.8125
987.86502	6904.4125
991.59999	7011.2125
995.33237	7215.6125
999.06217	7497.7125
1002.78939	7806.2125
1006.51404	7905.4125
1010.23611	7923.0125
1013.95561	8006.6125
1017.67255	8113.5125
1021.38692	8110.1125
1025.09872	8130.0125
1028.80796	8296.8125
1032.51465	8610.4125
1036.21877	8810.8125
1039.92035	8761.0125
1043.61937	8550.7125
1047.31584	8227.5125
1051.00976	7952.9125
1054.70114	7786.8125
1058.38998	7774.5125
1062.07627	7745.4125
1065.76003	7705.6125
1069.44126	7725.5125
1073.11995	7787.8125
1076.79611	7901.4125
1080.46974	8005.3125
1084.14085	8174.9125
1087.80943	8262.0125
1091.47549	8245.4125
1095.13903	8107.1125
1098.80005	7942.4125
1102.45857	7878.9125
1106.11456	7886.7125
1109.76805	7919.3125
1113.41903	8033.8125
1117.06751	8191.9125
1120.71348	8366.5125
1124.35696	8575.7125
1127.99793	8691.2125
1131.63641	8558.0125
1135.2724	8283.5125
1138.90589	8064.2125
1142.5369	7913.2125
1146.16542	7810.5125
1149.79145	7741.9125
1153.415	7731.7125
1157.03607	7752.6125
1160.65467	7872.7125
1164.27079	8089.4125
1167.88443	8425.9125
1171.49561	8984.2125
1175.10432	9813.5125
1178.71056	10873.9125
1182.31434	11814.8125
1185.91565	12233.4125
1189.51451	12062.8125
1193.11091	11456.9125
1196.70485	10781.8125
1200.29634	10224.9125
1203.88538	9765.0125
1207.47197	9281.0125
1211.05612	8905.0125
1214.63782	8714.1125
1218.21708	8691.0125
1221.79391	8785.6125
1225.36829	8858.6125
1228.94024	8851.9125
1232.50976	8688.3125
1236.07685	8607.1125
1239.6415	8573.4125
1243.20374	8610.8125
1246.76355	8659.3125
1250.32093	8795.2125
1253.8759	9018.1125
1257.42845	9322.2125
1260.97859	9637.6125
1264.52631	9892.5125
1268.07163	10144.0125
1271.61453	10328.5125
1275.15503	10514.4125
1278.69312	10756.9125
1282.22882	10999.6125
1285.76211	11180.4125
1289.29301	11335.0125
1292.82151	11509.2125
1296.34761	11818.5125
1299.87133	12331.2125
1303.39266	13267.8125
1306.9116	14563.1125
1310.42815	15929.5125
1313.94233	16546.1125
1317.45412	16033.2125
1320.96354	14934.4125
1324.47058	13863.1125
1327.97525	12986.1125
1331.47754	12515.1125
1334.97747	12434.0125
1338.47502	12591.2125
1341.97022	12904.5125
1345.46305	13421.0125
1348.95352	14090.0125
1352.44163	14935.7125
1355.92738	16037.5125
1359.41078	17555.0125
1362.89183	18488.0125
1366.37053	17455.7125
1369.84688	15030.4125
1373.32088	12835.9125
1376.79254	11537.5125
1380.26186	10954.3125
1383.72883	10633.1125
1387.19347	10316.7125
1390.65578	9940.2125
1394.11575	9649.8125
1397.57339	9538.8125
1401.0287	9549.3125
1404.48168	9640.3125
1407.93234	9780.0125
1411.38068	9956.3125
1414.82669	10092.9125
1418.27039	10049.9125
1421.71177	9885.9125
1425.15083	9778.1125
1428.58758	9751.1125
1432.02203	9934.1125
1435.45416	10093.5125
1438.88399	10131.1125
1442.31151	10075.0125
1445.73673	10034.6125
1449.15965	10024.8125
1452.58027	9893.6125
1455.9986	9736.4125
1459.41463	9668.8125
1462.82837	9770.7125
1466.23982	9962.4125
1469.64898	10170.4125
1473.05586	10356.4125
1476.46045	10487.7125
1479.86276	10622.7125
1483.26279	10761.9125
1486.66054	10937.4125
1490.05602	11156.9125
1493.44922	11529.5125
1496.84016	12091.4125
1500.22882	12944.5125
1503.61521	14036.4125
1506.99934	15142.2125
1510.38121	15844.7125
1513.76081	15656.3125
1517.13816	14581.2125
1520.51324	13180.7125
1523.88607	12079.7125
1527.25665	11412.4125
1530.62498	11038.5125
1533.99105	10873.2125
1537.35488	10729.3125
1540.71647	10667.5125
1544.07581	10550.5125
1547.4329	10390.9125
1550.78776	10239.4125
1554.14038	10142.5125
1557.49077	10102.7125
1560.83892	10154.1125
1564.18484	10263.6125
1567.52853	10478.4125
1570.86999	10599.1125
1574.20922	10567.1125
1577.54624	10377.5125
1580.88103	9999.7125
1584.2136	9650.8125
1587.54395	9595.8125
1590.87208	9962.1125
1594.19801	10779.2125
1597.52172	11703.1125
1600.84321	12195.9125
1604.16251	11960.7125
1607.47959	11229.2125
1610.79447	10377.3125
1614.10715	9535.2125
1617.41763	8894.8125
1620.7259	8476.9125
1624.03199	8324.7125
1627.33587	8360.8125
1630.63757	8630.6125
1633.93707	9137.4125
1637.23439	9898.7125
1640.52951	10876.3125
1643.82246	12022.4125
1647.11321	12914.5125
1650.40179	12987.0125
1653.68819	11985.5125
1656.97241	10416.5125
1660.25446	9042.7125
1663.53433	8125.8125
1666.81203	7557.9125
1670.08756	7245.3125
1673.36092	7010.1125
1676.63211	6888.8125
1679.90115	6784.0125
1683.16801	6696.5125
1686.43272	6646.2125
1689.69527	6601.0125
1692.95567	6569.6125
1696.2139	6552.7125
1699.46999	6520.1125
1702.72392	6545.2125
1705.97571	6523.0125
1709.22535	6526.2125
1712.47284	6531.1125
1715.71819	6529.7125
1718.96139	6521.5125
1722.20246	6492.3125
1725.44139	6456.1125
1728.67818	6420.9125
1731.91284	6373.9125
1735.14537	6351.7125
1738.37576	6324.9125
1741.60403	6312.4125
1744.83017	6295.3125
1748.05418	6277.2125
1751.27607	6284.3125
1754.49584	6239.2125
1757.71349	6244.6125
1760.92903	6248.2125
1764.14244	6223.6125
1767.35375	6209.9125
1770.56294	6212.7125
1773.77002	6207.8125
1776.97499	6168.2125
1780.17785	6165.3125
1783.37861	6156.8125
1786.57727	6144.3125
1789.77382	6137.3125
1792.96828	6110.1125
1796.16064	6133.6125
1799.3509	6110.0125
1802.53907	6103.8125
1805.72514	6082.7125
1808.90913	6080.3125
1812.09102	6067.6125
1815.27083	6048.2125
1818.44856	6042.9125
1821.6242	6041.4125
1824.79776	6009.7125
1827.96924	6005.0125
1831.13864	5965.1125
1834.30597	5964.3125
1837.47122	5968.9125
1840.6344	5964.6125
1843.7955	5957.5125
1846.95454	5958.3125
1850.11151	5971.5125
1853.26642	5971.1125
1856.41926	5943.4125
1859.57004	5961.7125
1862.71876	5965.8125
1865.86542	5941.2125
1869.01003	5928.7125
1872.15258	5939.6125
1875.29308	5935.2125
1878.43152	5934.1125
1881.56792	5931.9125
1884.70227	5926.6125
1887.83457	5915.8125
1890.96482	5920.8125
1894.09304	5914.5125
1897.21921	5901.9125
1900.34335	5877.0125
1903.46544	5868.4125
1906.58551	5881.8125
1909.70353	5844.8125
1912.81953	5842.2125
1915.93349	5856.3125
1919.04543	5834.5125
1922.15534	5814.7125
1925.26322	5815.5125
1928.36908	5823.5125
1931.47292	5822.4125
1934.57473	5806.9125
1937.67453	5784.7125
1940.77232	5771.1125
1943.86808	5757.7125
1946.96184	5756.4125
1950.05358	5728.9125
1953.14331	5716.3125
1956.23103	5691.0125
1959.31675	5669.3125
1962.40046	5664.1125
1965.48217	5637.6125
1968.56188	5621.8125
1971.63959	5626.9125
1974.7153	5589.4125
1977.78901	5579.6125
1980.86073	5565.6125
1983.93046	5568.9125
1986.99819	5546.5125
1990.06394	5512.5125
1993.1277	5503.4125
1996.18947	5496.4125
1999.24925	5460.1125
2002.30706	5448.7125
2005.36288	5410.1125
2008.41672	5392.2125
2011.46859	5402.3125
2014.51848	5380.9125
2017.56639	5362.7125
2020.61233	5365.8125
2023.6563	5339.8125
2026.6983	5309.8125
2029.73833	5292.2125
2032.7764	5288.2125
2035.8125	5284.8125
2038.84664	5283.2125
2041.87881	5290.4125
2044.90903	5278.6125
2047.93729	5259.6125
2050.96359	5256.2125
2053.98794	5241.2125
2057.01034	5230.2125
2060.03078	5245.6125
2063.04927	5242.7125
2066.06582	5229.5125
2069.08042	5214.1125
2072.09307	5195.0125
2075.10378	5204.8125
2078.11255	5199.4125
2081.11938	5199.0125
2084.12426	5186.0125
2087.12722	5194.9125
2090.12824	5195.4125
2093.12732	5171.3125
2096.12447	5189.6125
2099.11969	5199.7125
2102.11299	5196.3125
2105.10435	5200.7125
2108.09379	5194.7125
2111.08131	5193.3125
2114.0669	5166.8125
2117.05057	5196.4125
2120.03233	5198.7125
2123.01216	5192.0125
2125.99008	5204.3125
2128.96609	5201.8125
2131.94018	5202.1125
2134.91236	5195.5125
2137.88263	5192.9125
2140.851	5191.7125
2143.81746	5205.9125
2146.78201	5219.4125
2149.74466	5206.3125
2152.7054	5203.3125
2155.66425	5198.0125
2158.6212	5200.6125
2161.57625	5188.2125
2164.52941	5189.3125
2167.48067	5197.2125
2170.43004	5188.7125
2173.37752	5199.5125
2176.32311	5182.4125
2179.26681	5179.7125
2182.20863	5190.2125
2185.14856	5205.1125
2188.08661	5186.1125
2191.02278	5188.7125
2193.95707	5175.6125
2196.88948	5170.7125
2199.82001	5179.9125
2202.74867	5174.4125
2205.67545	5175.4125
2208.60037	5183.3125
2211.52341	5188.6125
2214.44458	5178.1125
2217.36388	5163.7125
2220.28132	5166.1125
2223.1969	5146.5125
2226.11061	5137.9125
2229.02246	5129.7125
2231.93245	5096.7125
2234.84058	5117.8125
2237.74686	5084.4125
2240.65128	5071.0125
2243.55385	5069.5125
2246.45456	5053.4125
2249.35343	5057.4125
2252.25044	5049.7125
2255.14561	5050.8125
2258.03893	5054.6125
2260.93041	5044.1125
2263.82004	5039.4125
2266.70783	5014.7125
2269.59378	5025.3125
2272.4779	4984.7125
2275.36017	4978.9125
2278.24061	4942.2125
2281.11922	4948.0125
2283.996	4931.5125
2286.87094	4943.4125
2289.74405	4925.9125
2292.61534	4930.6125
2295.4848	4924.2125
2298.35243	4941.2125
2301.21824	4951.4125
2304.08223	4931.2125
2306.94439	4931.9125
2309.80474	4951.9125
2312.66327	4942.0125
2315.51999	4951.0125
2318.37489	4945.9125
2321.22797	4932.2125
2324.07925	4924.6125
2326.92871	4913.6125
2329.77637	4933.6125
2332.62222	4926.1125
2335.46626	4911.8125
2338.3085	4916.0125
2341.14893	4927.0125
2343.98756	4931.7125
2346.8244	4934.5125
2349.65943	4921.7125
2352.49267	4918.5125
2355.32411	4914.0125
2358.15376	4917.6125
2360.98161	4916.7125
2363.80768	4922.2125
2366.63195	4914.5125
2369.45444	4877.1125
2372.27514	4884.4125
2375.09405	4867.3125
2377.91118	4861.5125
2380.72652	4835.6125
2383.54009	4809.6125
2386.35187	4813.5125
2389.16188	4804.2125
2391.97011	4795.9125
2394.77657	4783.8125
2397.58125	4772.9125
2400.38416	4772.7125
2403.18529	4769.2125
2405.98466	4751.0125
2408.78226	4739.0125
2411.57809	4729.7125
2414.37216	4705.0125
2417.16446	4705.6125
2419.955	4688.6125
2422.74378	4688.2125
2425.5308	4687.0125
2428.31606	4681.2125
2431.09956	4678.7125
2433.88131	4684.5125
2436.6613	4672.4125
2439.43954	4675.9125
2442.21603	4673.8125
2444.99077	4668.6125
2447.76377	4669.1125
2450.53501	4664.9125
2453.30451	4676.1125
2456.07226	4673.0125
2458.83827	4641.6125
2461.60254	4667.7125
2464.36507	4644.0125
2467.12586	4660.9125
2469.88492	4634.4125
2472.64224	4645.4125
2475.39782	4635.7125
2478.15167	4640.3125
2480.90379	4634.2125
2483.65417	4628.1125
2486.40283	4644.0125
2489.14976	4665.8125
2491.89497	4656.9125
2494.63845	4666.2125
2497.3802	4650.4125
2500.12024	4653.3125
2502.85855	4658.4125
2505.59514	4653.5125
2508.33002	4639.3125
2511.06318	4620.6125
2513.79462	4614.2125
2516.52435	4598.8125
2519.25237	4581.0125
2521.97867	4599.3125
2524.70327	4597.6125
2527.42616	4583.5125
2530.14734	4591.9125
2532.86681	4577.5125
2535.58458	4593.1125
2538.30065	4582.8125
2541.01501	4590.4125
2543.72768	4581.6125
2546.43864	4585.4125
2549.14791	4566.9125
2551.85548	4561.8125
2554.56136	4552.4125
2557.26554	4549.9125
2559.96803	4538.1125
2562.66883	4532.5125
2565.36794	4528.7125
2568.06536	4527.3125
2570.7611	4500.1125
2573.45514	4512.6125
2576.14751	4498.5125
2578.83819	4508.8125
2581.52719	4480.8125
2584.21451	4495.6125
2586.90015	4494.6125
2589.58411	4516.7125
2592.2664	4487.8125
2594.94701	4489.4125
2597.62594	4495.3125
2600.30321	4483.2125
2602.9788	4495.5125
2605.65273	4464.9125
2608.32498	4487.9125
2610.99557	4477.7125
2613.66449	4477.9125
2616.33175	4459.9125
2618.99734	4472.6125
2621.66128	4482.5125
2624.32355	4475.0125
2626.98416	4473.8125
2629.64311	4463.3125
2632.30041	4487.4125
2634.95605	4462.8125
2637.61004	4453.5125
2640.26238	4454.4125
2642.91306	4444.4125
2645.56209	4442.7125
2648.20948	4444.0125
2650.85521	4424.1125
2653.4993	4426.7125
2656.14175	4405.3125
2658.78255	4416.5125
2661.42171	4410.8125
2664.05923	4415.5125
2666.6951	4435.6125
2669.32934	4425.2125
2671.96194	4415.7125
2674.59291	4418.6125
2677.22224	4418.7125
2679.84993	4422.6125
2682.476	4398.9125
2685.10043	4395.1125
2687.72324	4414.0125
2690.34441	4383.7125
2692.96396	4383.2125
2695.58188	4386.5125
2698.19818	4386.8125
2700.81285	4387.9125
2703.4259	4377.6125
2706.03733	4370.6125
2708.64714	4368.8125
2711.25533	4362.9125
2713.86191	4356.1125
2716.46687	4361.2125
2719.07021	4370.5125
2721.67194	4357.4125
2724.27206	4382.4125
2726.87057	4375.8125
2729.46747	4369.7125
2732.06276	4363.2125
2734.65644	4359.1125
2737.24852	4359.8125
2739.83899	4364.1125
2742.42786	4350.0125
2745.01513	4326.2125
2747.60079	4327.9125
2750.18486	4327.8125
2752.76733	4333.7125
2755.3482	4335.8125
2757.92747	4324.5125
2760.50515	4307.6125
2763.08123	4331.1125
2765.65573	4307.1125
2768.22863	4308.1125
2770.79994	4284.0125
2773.36967	4293.4125
2775.9378	4318.6125
2778.50435	4316.7125
2781.06932	4296.4125
2783.6327	4304.3125
2786.1945	4279.4125
2788.75471	4284.4125
2791.31335	4285.5125
2793.87041	4281.5125
2796.42589	4270.2125
2798.97979	4264.4125
2801.53212	4244.7125
2804.08288	4261.8125
2806.63206	4248.3125
2809.17967	4230.7125
2811.72571	4213.7125
2814.27018	4216.2125
2816.81308	4215.5125
2819.35442	4197.2125
2821.89419	4192.5125
2824.43239	4187.7125
2826.96904	4179.6125
2829.50412	4182.4125
2832.03763	4167.9125
2834.56959	4167.8125
2837.1	4159.0125
2839.62884	4171.3125
2842.15613	4162.2125
2844.68186	4159.9125
2847.20604	4146.1125
2849.72867	4140.6125
2852.24974	4138.7125
2854.76927	4126.5125
2857.28724	4107.0125
2859.80367	4106.4125
2862.31855	4111.1125
2864.83189	4114.0125
2867.34368	4113.0125
2869.85393	4098.3125
2872.36264	4087.7125
2874.8698	4105.0125
2877.37543	4102.6125
2879.87952	4093.4125
2882.38207	4090.0125
2884.88308	4085.4125
2887.38256	4084.8125
2889.88051	4063.5125
2892.37692	4064.6125
2894.8718	4060.1125
2897.36515	4064.9125
2899.85698	4074.5125
2902.34727	4077.8125
2904.83604	4080.1125
2907.32328	4082.4125
2909.809	4093.2125
2912.29319	4103.3125
2914.77587	4108.0125
2917.25702	4113.0125
2919.73665	4093.9125
2922.21476	4095.9125
2924.69136	4091.9125
2927.16644	4069.0125
2929.64	4077.0125
2932.11205	4059.6125
2934.58258	4045.5125
2937.05161	4063.2125
2939.51912	4048.0125
2941.98513	4033.6125
2944.44962	4038.9125
2946.91261	4026.2125
2949.37409	4034.1125
2951.83407	4030.2125
2954.29254	4029.4125
2956.74951	4032.4125
2959.20498	4028.9125
2961.65895	4006.6125
2964.11142	4027.9125
2966.56239	3971.3125
2969.01186	3999.9125
2971.45984	3989.8125
2973.90632	4005.7125
2976.35131	3974.2125
2978.7948	3980.2125
2981.23681	3960.1125
2983.67732	3953.0125
2986.11635	3946.7125
2988.55388	3933.5125
2990.98993	3914.3125
2993.4245	3900.1125
2995.85758	3914.4125
2998.28917	3903.0125
3000.71928	3884.5125
3003.14791	3883.8125
3005.57506	3880.5125
3008.00073	3857.5125
3010.42493	3863.0125
3012.84764	3840.8125
3015.26888	3837.9125
3017.68865	3838.9125
3020.10694	3804.8125
3022.52376	3811.8125
3024.9391	3795.6125
3027.35298	3783.5125
3029.76539	3779.3125
3032.17632	3765.1125
3034.5858	3765.7125
3036.9938	3765.3125
3039.40034	3755.6125
3041.80542	3755.7125
3044.20903	3742.6125
3046.61118	3743.2125
3049.01187	3727.9125
3051.4111	3731.7125
3053.80888	3704.9125
3056.20519	3699.8125
3058.60005	3696.5125
3060.99345	3688.2125
3063.3854	3695.2125
3065.7759	3670.3125
3068.16494	3654.6125
3070.55254	3635.5125
3072.93868	3636.2125
3075.32338	3630.7125
3077.70662	3609.2125
3080.08842	3613.0125
3082.46878	3593.4125
3084.84769	3593.9125
3087.22515	3573.5125
3089.60118	3583.4125
3091.97576	3588.1125
3094.3489	3582.1125
3096.72061	3573.3125
3099.09087	3581.6125
3101.4597	3581.6125
3103.82709	3569.7125
3106.19305	3561.3125
3108.55757	3559.4125
3110.92066	3550.7125
3113.28232	3550.7125
3115.64255	3543.7125
3118.00134	3523.6125
3120.35871	3534.9125
3122.71466	3516.2125
3125.06917	3508.9125
3127.42226	3500.0125
3129.77393	3503.2125
3132.12417	3497.0125
3134.47299	3501.4125
3136.82039	3479.2125
3139.16636	3492.2125
3141.51092	3485.1125
3143.85406	3469.6125
3146.19579	3465.2125
3148.53609	3469.2125
3150.87499	3472.1125
3153.21246	3465.9125
3155.54853	3470.4125
3157.88318	3465.6125
3160.21642	3479.4125
3162.54826	3457.0125
3164.87868	3459.6125
3167.2077	3456.1125
3169.5353	3449.1125
3171.86151	3440.1125
3174.18631	3437.8125
3176.5097	3441.0125
3178.83169	3454.5125
3181.15228	3438.3125
3183.47147	3421.6125
3185.78926	3417.1125
3188.10565	3413.2125
3190.42065	3413.3125
3192.73424	3400.9125
3195.04645	3405.9125
3197.35725	3392.7125
3199.66667	3379.4125
3201.97469	3383.0125
3204.28132	3404.8125
3206.58656	3396.5125
3208.8904	3391.9125
3211.19287	3389.6125
3213.49394	3393.6125
3215.79363	3398.3125
3218.09193	3396.7125
3220.38884	3385.6125
3222.68438	3385.9125
3224.97853	3387.0125
3227.2713	3384.0125
3229.56269	3369.4125
3231.8527	3372.3125
3234.14133	3355.6125
3236.42858	3353.8125
3238.71446	3345.2125
3240.99896	3351.3125
3243.28209	3329.8125
3245.56384	3346.8125
3247.84423	3331.7125
3250.12324	3335.0125
3252.40088	3329.9125
3254.67715	3319.2125
3256.95205	3313.1125
3259.22558	3294.5125
3261.49775	3314.7125
3263.76855	3316.2125
3266.03799	3301.8125
3268.30606	3293.7125
3270.57277	3294.1125
3272.83812	3283.7125
3275.10211	3279.6125
3277.36474	3265.9125
3279.62601	3271.3125
3281.88593	3270.8125
3284.14448	3268.0125
3286.40168	3268.8125
3288.65753	3268.4125
3290.91202	3262.9125
3293.16516	3255.9125
3295.41695	3241.5125
3297.66738	3247.4125
3299.91647	3216.4125
3302.16421	3201.3125
3304.4106	3178.6125
3306.65564	3170.2125
3308.89933	3149.5125
3311.14169	3118.0125
3313.38269	3080.5125
3315.62236	3077.6125
3317.86068	3043.1125
3320.09766	3027.8125
3322.3333	2996.4125
3324.5676	2991.5125
3326.80056	2939.0125
3329.03219	2919.6125
3331.26248	0.1125
3333.49143	0.6125
3335.71905	0.0125
