Data from AgNPs_UA_5uM_CRN_500uM_SU_RamanShift__205__12-03-33-178.txt Node

Date: Thu Aug 04 12:03:33 BST 2022
User: TCL
Spectrometer: QEP01345
Trigger mode: 4
Integration Time (sec): 1.000000E0
Scans to average: 10
Electric dark correction enabled: true
Nonlinearity correction enabled: false
Boxcar width: 0
XAxis mode: Raman Shifts
Number of Pixels in Spectrum: 1044
>>>>>Begin Spectral Data<<<<<
46.04893	1.3875
50.45542	-0.3125
54.85868	-0.7125
59.25871	-0.6125
63.6555	-57.5125
68.04907	-39.3125
72.43941	-72.4125
76.82654	-56.0125
81.21044	-56.0125
85.59113	-50.1125
89.96862	-74.1125
94.34289	-54.0125
98.71396	-76.4125
103.08183	-59.9125
107.4465	-49.1125
111.80798	-55.6125
116.16626	-45.3125
120.52136	-74.1125
124.87327	-51.5125
129.222	-65.3125
133.56755	-47.8125
137.90993	-64.7125
142.24913	-52.2125
146.58517	-43.8125
150.91804	-39.1125
155.24774	-29.9125
159.57429	-10.2125
163.89768	-5.5125
168.21792	40.1875
172.53501	57.7875
176.84895	142.2875
181.15975	273.4875
185.46741	420.1875
189.77193	602.0875
194.07331	891.9875
198.37157	1187.3875
202.6667	1462.9875
206.9587	1786.9875
211.24758	2109.8875
215.53334	2423.8875
219.81599	2779.4875
224.09553	3193.8875
228.37195	3625.2875
232.64527	4087.2875
236.91549	4567.1875
241.18261	4912.5875
245.44663	5207.7875
249.70755	5364.2875
253.96539	5500.2875
258.22014	5603.3875
262.4718	5664.7875
266.72039	5712.3875
270.96589	5689.8875
275.20832	5586.9875
279.44768	5470.0875
283.68397	5369.2875
287.91719	5314.1875
292.14735	5360.7875
296.37445	5525.4875
300.59849	5816.4875
304.81948	6151.2875
309.03742	6541.6875
313.25231	6773.0875
317.46415	6714.5875
321.67296	6327.9875
325.87872	5921.6875
330.08145	5717.2875
334.28114	5675.7875
338.47781	5745.0875
342.67145	5897.2875
346.86207	6144.4875
351.04966	6482.5875
355.23424	6876.6875
359.4158	7154.4875
363.59435	7171.3875
367.76989	7129.1875
371.94243	6991.1875
376.11196	6861.0875
380.27849	6791.9875
384.44203	6735.0875
388.60257	6682.5875
392.76012	6697.3875
396.91468	6807.7875
401.06626	6970.8875
405.21485	7007.2875
409.36047	6834.1875
413.50311	6507.1875
417.64277	6221.2875
421.77947	6011.3875
425.9132	5933.7875
430.04396	5929.2875
434.17176	5981.4875
438.2966	6056.8875
442.41849	6148.9875
446.53742	6270.7875
450.6534	6378.7875
454.76644	6441.4875
458.87653	6458.4875
462.98368	6409.5875
467.08789	6362.4875
471.18916	6272.9875
475.2875	6146.8875
479.38291	6028.5875
483.4754	5946.8875
487.56496	5900.5875
491.6516	5850.1875
495.73531	5869.4875
499.81612	5897.5875
503.89401	5977.1875
507.96899	6030.7875
512.04106	6140.5875
516.11023	6232.1875
520.1765	6320.2875
524.23987	6348.4875
528.30034	6343.6875
532.35792	6262.3875
536.41261	6191.7875
540.46441	6118.9875
544.51333	6043.2875
548.55936	6094.6875
552.60252	6219.4875
556.64279	6340.0875
560.6802	6459.9875
564.71473	6603.9875
568.7464	6791.6875
572.7752	6771.5875
576.80114	6450.9875
580.82422	6210.4875
584.84444	6112.6875
588.86181	6067.7875
592.87633	6125.7875
596.888	6245.6875
600.89682	6605.9875
604.9028	7592.9875
608.90594	9726.4875
612.90624	12086.3875
616.90371	11185.4875
620.89834	8076.0875
624.89015	6745.7875
628.87913	6558.9875
632.86528	6707.1875
636.84862	6861.8875
640.82913	6728.6875
644.80683	6381.0875
648.78172	6197.5875
652.75379	6223.3875
656.72306	6466.4875
660.68952	6708.1875
664.65319	6636.9875
668.61405	6385.6875
672.57211	6337.7875
676.52738	6305.7875
680.47986	6215.6875
684.42955	6128.0875
688.37646	6063.0875
692.32058	6081.6875
696.26192	6150.3875
700.20048	6251.9875
704.13626	6281.8875
708.06928	6243.1875
711.99952	6223.0875
715.927	6182.5875
719.85171	6227.6875
723.77365	6280.6875
727.69284	6238.2875
731.60928	6211.7875
735.52295	6204.1875
739.43388	6255.0875
743.34206	6269.1875
747.24749	6278.6875
751.15017	6302.0875
755.05012	6380.5875
758.94733	6773.0875
762.8418	7626.3875
766.73354	8959.3875
770.62254	9960.6875
774.50882	10065.1875
778.39237	9548.3875
782.27321	8601.8875
786.15132	7519.2875
790.02671	6847.5875
793.89938	6475.8875
797.76935	6352.3875
801.6366	6276.7875
805.50115	6208.6875
809.36299	6219.7875
813.22213	6190.1875
817.07857	6193.4875
820.93231	6210.5875
824.78336	6225.5875
828.63172	6252.2875
832.47738	6237.2875
836.32036	6257.6875
840.16066	6227.3875
843.99827	6189.9875
847.8332	6183.7875
851.66546	6197.5875
855.49504	6203.0875
859.32195	6230.2875
863.1462	6221.0875
866.96777	6213.4875
870.78668	6199.5875
874.60293	6234.7875
878.41652	6260.8875
882.22745	6343.6875
886.03573	6364.5875
889.84136	6362.4875
893.64433	6346.2875
897.44466	6344.6875
901.24235	6334.1875
905.0374	6310.8875
908.8298	6285.3875
912.61957	6248.9875
916.40671	6199.3875
920.19121	6243.4875
923.97308	6329.9875
927.75233	6404.7875
931.52895	6461.3875
935.30295	6440.6875
939.07433	6283.7875
942.84309	6167.3875
946.60924	6139.7875
950.37278	6086.5875
954.13371	6107.5875
957.89203	6098.4875
961.64774	6112.8875
965.40086	6084.0875
969.15137	6044.8875
972.89929	6101.5875
976.64461	6087.3875
980.38733	6120.9875
984.12747	6109.4875
987.86502	6132.8875
991.59999	6142.9875
995.33237	6210.5875
999.06217	6288.9875
1002.78939	6369.9875
1006.51404	6509.5875
1010.23611	6615.8875
1013.95561	6667.6875
1017.67255	6659.5875
1021.38692	6651.2875
1025.09872	6570.2875
1028.80796	6489.7875
1032.51465	6494.9875
1036.21877	6494.7875
1039.92035	6525.9875
1043.61937	6548.1875
1047.31584	6609.5875
1051.00976	6644.5875
1054.70114	6653.6875
1058.38998	6646.6875
1062.07627	6642.3875
1065.76003	6685.4875
1069.44126	6750.0875
1073.11995	6837.9875
1076.79611	6961.1875
1080.46974	7134.5875
1084.14085	7289.1875
1087.80943	7431.9875
1091.47549	7457.4875
1095.13903	7379.1875
1098.80005	7260.4875
1102.45857	7149.4875
1106.11456	7112.3875
1109.76805	7080.6875
1113.41903	7179.8875
1117.06751	7355.3875
1120.71348	7621.8875
1124.35696	8002.3875
1127.99793	8291.0875
1131.63641	8125.7875
1135.2724	7712.5875
1138.90589	7401.0875
1142.5369	7212.5875
1146.16542	7112.6875
1149.79145	7002.1875
1153.415	6939.9875
1157.03607	6956.0875
1160.65467	7044.9875
1164.27079	7275.2875
1167.88443	7520.9875
1171.49561	7927.8875
1175.10432	8559.6875
1178.71056	9455.0875
1182.31434	10245.9875
1185.91565	10513.9875
1189.51451	10363.1875
1193.11091	10104.5875
1196.70485	9872.1875
1200.29634	9618.6875
1203.88538	9346.5875
1207.47197	8871.6875
1211.05612	8417.4875
1214.63782	7990.1875
1218.21708	7756.2875
1221.79391	7609.0875
1225.36829	7516.9875
1228.94024	7520.5875
1232.50976	7535.8875
1236.07685	7562.1875
1239.6415	7571.0875
1243.20374	7621.4875
1246.76355	7639.0875
1250.32093	7729.5875
1253.8759	7799.7875
1257.42845	7970.4875
1260.97859	8191.2875
1264.52631	8420.7875
1268.07163	8561.6875
1271.61453	8702.5875
1275.15503	8748.0875
1278.69312	8748.0875
1282.22882	8801.1875
1285.76211	9028.6875
1289.29301	9276.8875
1292.82151	9562.6875
1296.34761	9774.1875
1299.87133	10152.1875
1303.39266	10885.6875
1306.9116	12042.4875
1310.42815	13322.7875
1313.94233	13716.4875
1317.45412	12912.3875
1320.96354	11768.4875
1324.47058	10737.5875
1327.97525	10000.6875
1331.47754	9563.7875
1334.97747	9459.4875
1338.47502	9600.7875
1341.97022	9969.7875
1345.46305	10708.9875
1348.95352	11795.3875
1352.44163	13087.9875
1355.92738	14442.4875
1359.41078	16146.2875
1362.89183	17654.6875
1366.37053	17006.3875
1369.84688	14125.8875
1373.32088	11420.7875
1376.79254	10005.0875
1380.26186	9339.2875
1383.72883	8909.4875
1387.19347	8509.8875
1390.65578	8157.7875
1394.11575	7909.1875
1397.57339	7747.3875
1401.0287	7633.1875
1404.48168	7602.0875
1407.93234	7614.2875
1411.38068	7639.8875
1414.82669	7724.1875
1418.27039	7812.6875
1421.71177	7810.1875
1425.15083	7682.0875
1428.58758	7635.9875
1432.02203	7626.4875
1435.45416	7727.2875
1438.88399	7736.9875
1442.31151	7723.1875
1445.73673	7786.1875
1449.15965	7844.8875
1452.58027	7858.4875
1455.9986	7843.4875
1459.41463	7858.2875
1462.82837	7962.6875
1466.23982	8135.1875
1469.64898	8377.1875
1473.05586	8502.3875
1476.46045	8615.6875
1479.86276	8661.2875
1483.26279	8776.5875
1486.66054	8978.8875
1490.05602	9262.5875
1493.44922	9812.1875
1496.84016	10686.9875
1500.22882	12068.4875
1503.61521	13817.2875
1506.99934	15655.0875
1510.38121	16850.2875
1513.76081	16711.9875
1517.13816	15149.2875
1520.51324	12954.9875
1523.88607	11248.2875
1527.25665	10236.7875
1530.62498	9724.9875
1533.99105	9530.8875
1537.35488	9402.6875
1540.71647	9282.8875
1544.07581	9144.4875
1547.4329	9037.9875
1550.78776	8918.8875
1554.14038	8828.0875
1557.49077	8793.5875
1560.83892	8891.5875
1564.18484	9127.2875
1567.52853	9443.0875
1570.86999	9791.6875
1574.20922	9960.5875
1577.54624	9814.1875
1580.88103	9299.1875
1584.2136	8620.0875
1587.54395	8241.7875
1590.87208	8166.6875
1594.19801	8340.7875
1597.52172	8695.9875
1600.84321	8867.5875
1604.16251	8709.7875
1607.47959	8521.6875
1610.79447	8325.1875
1614.10715	8023.3875
1617.41763	7712.2875
1620.7259	7440.5875
1624.03199	7303.5875
1627.33587	7231.7875
1630.63757	7295.2875
1633.93707	7524.1875
1637.23439	7940.7875
1640.52951	8641.7875
1643.82246	9636.7875
1647.11321	10790.8875
1650.40179	11522.4875
1653.68819	11181.3875
1656.97241	9907.3875
1660.25446	8519.6875
1663.53433	7509.9875
1666.81203	6884.0875
1670.08756	6564.2875
1673.36092	6361.4875
1676.63211	6230.6875
1679.90115	6144.5875
1683.16801	6060.9875
1686.43272	5959.4875
1689.69527	5926.6875
1692.95567	5857.9875
1696.2139	5831.1875
1699.46999	5781.5875
1702.72392	5796.2875
1705.97571	5797.3875
1709.22535	5786.3875
1712.47284	5827.3875
1715.71819	5824.2875
1718.96139	5804.5875
1722.20246	5795.5875
1725.44139	5778.2875
1728.67818	5740.6875
1731.91284	5691.5875
1735.14537	5640.0875
1738.37576	5620.8875
1741.60403	5616.3875
1744.83017	5598.8875
1748.05418	5588.9875
1751.27607	5597.0875
1754.49584	5554.6875
1757.71349	5524.4875
1760.92903	5528.6875
1764.14244	5461.0875
1767.35375	5483.4875
1770.56294	5454.4875
1773.77002	5450.2875
1776.97499	5460.1875
1780.17785	5430.8875
1783.37861	5428.5875
1786.57727	5435.7875
1789.77382	5363.5875
1792.96828	5401.5875
1796.16064	5400.3875
1799.3509	5391.0875
1802.53907	5420.1875
1805.72514	5352.5875
1808.90913	5326.1875
1812.09102	5333.3875
1815.27083	5306.0875
1818.44856	5299.5875
1821.6242	5310.7875
1824.79776	5291.7875
1827.96924	5285.4875
1831.13864	5250.4875
1834.30597	5258.9875
1837.47122	5239.1875
1840.6344	5229.6875
1843.7955	5217.1875
1846.95454	5218.9875
1850.11151	5233.0875
1853.26642	5199.1875
1856.41926	5186.3875
1859.57004	5185.0875
1862.71876	5178.3875
1865.86542	5194.0875
1869.01003	5188.8875
1872.15258	5159.9875
1875.29308	5190.9875
1878.43152	5185.7875
1881.56792	5157.7875
1884.70227	5144.7875
1887.83457	5135.7875
1890.96482	5106.9875
1894.09304	5106.1875
1897.21921	5105.4875
1900.34335	5111.3875
1903.46544	5079.8875
1906.58551	5098.7875
1909.70353	5087.9875
1912.81953	5081.5875
1915.93349	5079.2875
1919.04543	5058.0875
1922.15534	5045.1875
1925.26322	5043.1875
1928.36908	5029.6875
1931.47292	5014.5875
1934.57473	5016.3875
1937.67453	4994.6875
1940.77232	4981.6875
1943.86808	4959.7875
1946.96184	4943.5875
1950.05358	4929.3875
1953.14331	4913.1875
1956.23103	4922.5875
1959.31675	4894.8875
1962.40046	4834.0875
1965.48217	4868.0875
1968.56188	4863.8875
1971.63959	4831.5875
1974.7153	4832.7875
1977.78901	4836.1875
1980.86073	4806.4875
1983.93046	4757.9875
1986.99819	4692.2875
1990.06394	4705.3875
1993.1277	4725.2875
1996.18947	4715.6875
1999.24925	4657.9875
2002.30706	4672.3875
2005.36288	4676.2875
2008.41672	4636.6875
2011.46859	4608.2875
2014.51848	4615.9875
2017.56639	4581.2875
2020.61233	4570.6875
2023.6563	4569.7875
2026.6983	4530.4875
2029.73833	4523.5875
2032.7764	4537.5875
2035.8125	4501.0875
2038.84664	4502.3875
2041.87881	4492.0875
2044.90903	4479.0875
2047.93729	4475.0875
2050.96359	4442.1875
2053.98794	4455.5875
2057.01034	4456.1875
2060.03078	4436.3875
2063.04927	4426.1875
2066.06582	4441.2875
2069.08042	4413.3875
2072.09307	4427.4875
2075.10378	4423.5875
2078.11255	4415.2875
2081.11938	4417.4875
2084.12426	4417.5875
2087.12722	4390.2875
2090.12824	4383.5875
2093.12732	4389.1875
2096.12447	4410.7875
2099.11969	4391.2875
2102.11299	4379.4875
2105.10435	4392.3875
2108.09379	4370.6875
2111.08131	4380.4875
2114.0669	4386.4875
2117.05057	4373.7875
2120.03233	4370.6875
2123.01216	4387.8875
2125.99008	4403.2875
2128.96609	4385.8875
2131.94018	4428.7875
2134.91236	4403.7875
2137.88263	4385.1875
2140.851	4396.6875
2143.81746	4422.3875
2146.78201	4415.8875
2149.74466	4397.7875
2152.7054	4409.6875
2155.66425	4393.4875
2158.6212	4402.7875
2161.57625	4362.8875
2164.52941	4343.7875
2167.48067	4367.3875
2170.43004	4364.9875
2173.37752	4374.9875
2176.32311	4345.8875
2179.26681	4347.9875
2182.20863	4355.4875
2185.14856	4360.0875
2188.08661	4357.3875
2191.02278	4363.4875
2193.95707	4345.0875
2196.88948	4337.0875
2199.82001	4350.9875
2202.74867	4317.3875
2205.67545	4332.5875
2208.60037	4328.9875
2211.52341	4327.6875
2214.44458	4315.9875
2217.36388	4275.3875
2220.28132	4267.4875
2223.1969	4241.3875
2226.11061	4239.2875
2229.02246	4241.5875
2231.93245	4253.6875
2234.84058	4227.6875
2237.74686	4226.3875
2240.65128	4223.2875
2243.55385	4214.2875
2246.45456	4190.8875
2249.35343	4202.1875
2252.25044	4202.7875
2255.14561	4189.3875
2258.03893	4178.1875
2260.93041	4180.7875
2263.82004	4177.8875
2266.70783	4167.8875
2269.59378	4155.9875
2272.4779	4141.5875
2275.36017	4127.7875
2278.24061	4120.0875
2281.11922	4088.3875
2283.996	4107.0875
2286.87094	4080.6875
2289.74405	4080.9875
2292.61534	4068.3875
2295.4848	4062.8875
2298.35243	4057.3875
2301.21824	4048.8875
2304.08223	4049.1875
2306.94439	4037.7875
2309.80474	4054.8875
2312.66327	4046.0875
2315.51999	4015.5875
2318.37489	4025.0875
2321.22797	4005.7875
2324.07925	4000.6875
2326.92871	4001.5875
2329.77637	3988.7875
2332.62222	3969.0875
2335.46626	3950.4875
2338.3085	3952.1875
2341.14893	3973.8875
2343.98756	3973.1875
2346.8244	3949.9875
2349.65943	3936.4875
2352.49267	3938.3875
2355.32411	3941.9875
2358.15376	3927.7875
2360.98161	3945.9875
2363.80768	3917.9875
2366.63195	3923.9875
2369.45444	3938.8875
2372.27514	3926.3875
2375.09405	3941.6875
2377.91118	3895.0875
2380.72652	3904.7875
2383.54009	3890.9875
2386.35187	3904.1875
2389.16188	3859.0875
2391.97011	3868.2875
2394.77657	3847.4875
2397.58125	3856.1875
2400.38416	3843.8875
2403.18529	3837.9875
2405.98466	3803.8875
2408.78226	3823.2875
2411.57809	3800.3875
2414.37216	3800.4875
2417.16446	3792.4875
2419.955	3764.6875
2422.74378	3788.9875
2425.5308	3767.6875
2428.31606	3768.3875
2431.09956	3766.3875
2433.88131	3742.1875
2436.6613	3758.7875
2439.43954	3748.8875
2442.21603	3740.7875
2444.99077	3738.3875
2447.76377	3748.1875
2450.53501	3735.9875
2453.30451	3728.5875
2456.07226	3745.6875
2458.83827	3723.9875
2461.60254	3680.5875
2464.36507	3719.8875
2467.12586	3694.7875
2469.88492	3705.3875
2472.64224	3697.2875
2475.39782	3681.4875
2478.15167	3700.9875
2480.90379	3692.0875
2483.65417	3690.9875
2486.40283	3704.0875
2489.14976	3716.1875
2491.89497	3695.4875
2494.63845	3696.1875
2497.3802	3685.1875
2500.12024	3678.2875
2502.85855	3686.6875
2505.59514	3681.8875
2508.33002	3650.8875
2511.06318	3629.3875
2513.79462	3632.7875
2516.52435	3606.6875
2519.25237	3581.0875
2521.97867	3588.6875
2524.70327	3593.5875
2527.42616	3574.3875
2530.14734	3582.2875
2532.86681	3568.8875
2535.58458	3566.5875
2538.30065	3560.5875
2541.01501	3572.2875
2543.72768	3542.4875
2546.43864	3557.1875
2549.14791	3545.5875
2551.85548	3532.9875
2554.56136	3517.3875
2557.26554	3516.1875
2559.96803	3520.5875
2562.66883	3520.2875
2565.36794	3498.0875
2568.06536	3457.2875
2570.7611	3496.3875
2573.45514	3479.5875
2576.14751	3477.8875
2578.83819	3463.2875
2581.52719	3437.3875
2584.21451	3433.3875
2586.90015	3421.7875
2589.58411	3399.5875
2592.2664	3417.9875
2594.94701	3415.3875
2597.62594	3407.5875
2600.30321	3355.1875
2602.9788	3372.8875
2605.65273	3369.3875
2608.32498	3371.7875
2610.99557	3385.9875
2613.66449	3349.9875
2616.33175	3372.2875
2618.99734	3362.8875
2621.66128	3364.7875
2624.32355	3336.3875
2626.98416	3332.6875
2629.64311	3322.5875
2632.30041	3323.1875
2634.95605	3303.3875
2637.61004	3293.9875
2640.26238	3281.6875
2642.91306	3279.8875
2645.56209	3300.9875
2648.20948	3297.6875
2650.85521	3274.9875
2653.4993	3302.5875
2656.14175	3289.2875
2658.78255	3268.5875
2661.42171	3254.4875
2664.05923	3273.4875
2666.6951	3282.2875
2669.32934	3291.8875
2671.96194	3296.3875
2674.59291	3285.1875
2677.22224	3283.1875
2679.84993	3277.5875
2682.476	3277.5875
2685.10043	3278.9875
2687.72324	3271.8875
2690.34441	3243.7875
2692.96396	3250.9875
2695.58188	3288.5875
2698.19818	3268.7875
2700.81285	3255.2875
2703.4259	3229.2875
2706.03733	3205.5875
2708.64714	3211.1875
2711.25533	3238.4875
2713.86191	3249.9875
2716.46687	3241.3875
2719.07021	3256.5875
2721.67194	3244.0875
2724.27206	3247.1875
2726.87057	3238.5875
2729.46747	3233.2875
2732.06276	3231.5875
2734.65644	3217.4875
2737.24852	3212.5875
2739.83899	3197.0875
2742.42786	3203.7875
2745.01513	3217.5875
2747.60079	3194.7875
2750.18486	3183.1875
2752.76733	3183.5875
2755.3482	3180.2875
2757.92747	3184.8875
2760.50515	3168.9875
2763.08123	3147.5875
2765.65573	3134.1875
2768.22863	3136.4875
2770.79994	3126.7875
2773.36967	3126.9875
2775.9378	3127.5875
2778.50435	3115.8875
2781.06932	3116.0875
2783.6327	3105.8875
2786.1945	3118.4875
2788.75471	3104.7875
2791.31335	3091.4875
2793.87041	3091.8875
2796.42589	3069.9875
2798.97979	3063.8875
2801.53212	3070.5875
2804.08288	3088.1875
2806.63206	3058.6875
2809.17967	3045.0875
2811.72571	3045.1875
2814.27018	3047.8875
2816.81308	3044.4875
2819.35442	2992.7875
2821.89419	3017.1875
2824.43239	2997.2875
2826.96904	3031.5875
2829.50412	3024.6875
2832.03763	3010.7875
2834.56959	2998.6875
2837.1	2997.2875
2839.62884	2997.8875
2842.15613	2993.0875
2844.68186	3006.8875
2847.20604	2970.7875
2849.72867	2960.1875
2852.24974	2976.9875
2854.76927	2943.4875
2857.28724	2901.1875
2859.80367	2955.3875
2862.31855	2973.2875
2864.83189	2949.7875
2867.34368	2951.5875
2869.85393	2961.3875
2872.36264	2935.3875
2874.8698	2943.9875
2877.37543	2935.1875
2879.87952	2929.6875
2882.38207	2921.1875
2884.88308	2924.7875
2887.38256	2926.1875
2889.88051	2913.5875
2892.37692	2919.8875
2894.8718	2902.7875
2897.36515	2910.9875
2899.85698	2909.0875
2902.34727	2888.9875
2904.83604	2907.6875
2907.32328	2924.8875
2909.809	2925.2875
2912.29319	2923.1875
2914.77587	2918.1875
2917.25702	2940.8875
2919.73665	2947.0875
2922.21476	2937.6875
2924.69136	2940.3875
2927.16644	2914.8875
2929.64	2922.2875
2932.11205	2909.6875
2934.58258	2907.6875
2937.05161	2890.4875
2939.51912	2902.0875
2941.98513	2916.8875
2944.44962	2886.3875
2946.91261	2857.6875
2949.37409	2862.7875
2951.83407	2852.9875
2954.29254	2860.6875
2956.74951	2855.0875
2959.20498	2832.5875
2961.65895	2844.8875
2964.11142	2834.2875
2966.56239	2846.3875
2969.01186	2832.2875
2971.45984	2833.0875
2973.90632	2819.2875
2976.35131	2823.6875
2978.7948	2825.7875
2981.23681	2812.7875
2983.67732	2818.1875
2986.11635	2791.8875
2988.55388	2778.6875
2990.98993	2780.2875
2993.4245	2761.6875
2995.85758	2759.0875
2998.28917	2759.0875
3000.71928	2738.4875
3003.14791	2726.5875
3005.57506	2731.0875
3008.00073	2711.4875
3010.42493	2653.1875
3012.84764	2724.4875
3015.26888	2713.3875
3017.68865	2699.9875
3020.10694	2648.6875
3022.52376	2663.7875
3024.9391	2670.5875
3027.35298	2650.7875
3029.76539	2637.4875
3032.17632	2638.5875
3034.5858	2632.8875
3036.9938	2635.8875
3039.40034	2634.7875
3041.80542	2619.5875
3044.20903	2601.7875
3046.61118	2608.7875
3049.01187	2629.5875
3051.4111	2592.0875
3053.80888	2574.2875
3056.20519	2570.0875
3058.60005	2560.5875
3060.99345	2572.6875
3063.3854	2555.2875
3065.7759	2546.5875
3068.16494	2535.4875
3070.55254	2532.8875
3072.93868	2541.3875
3075.32338	2526.5875
3077.70662	2524.6875
3080.08842	2504.7875
3082.46878	2496.5875
3084.84769	2521.8875
3087.22515	2501.3875
3089.60118	2515.4875
3091.97576	2481.1875
3094.3489	2503.8875
3096.72061	2486.4875
3099.09087	2476.6875
3101.4597	2489.8875
3103.82709	2478.4875
3106.19305	2476.2875
3108.55757	2476.0875
3110.92066	2455.9875
3113.28232	2473.5875
3115.64255	2461.0875
3118.00134	2455.8875
3120.35871	2437.0875
3122.71466	2421.5875
3125.06917	2431.4875
3127.42226	2409.9875
3129.77393	2403.9875
3132.12417	2408.9875
3134.47299	2421.4875
3136.82039	2395.9875
3139.16636	2364.4875
3141.51092	2399.5875
3143.85406	2402.1875
3146.19579	2385.3875
3148.53609	2383.8875
3150.87499	2388.5875
3153.21246	2371.0875
3155.54853	2394.6875
3157.88318	2380.1875
3160.21642	2392.1875
3162.54826	2384.5875
3164.87868	2381.3875
3167.2077	2348.5875
3169.5353	2357.3875
3171.86151	2369.5875
3174.18631	2352.6875
3176.5097	2349.0875
3178.83169	2355.7875
3181.15228	2355.1875
3183.47147	2321.7875
3185.78926	2307.4875
3188.10565	2319.6875
3190.42065	2300.3875
3192.73424	2319.5875
3195.04645	2307.3875
3197.35725	2280.6875
3199.66667	2307.0875
3201.97469	2289.6875
3204.28132	2281.0875
3206.58656	2296.8875
3208.8904	2298.2875
3211.19287	2298.3875
3213.49394	2285.5875
3215.79363	2270.9875
3218.09193	2291.0875
3220.38884	2281.3875
3222.68438	2282.4875
3224.97853	2264.9875
3227.2713	2285.7875
3229.56269	2257.8875
3231.8527	2266.8875
3234.14133	2247.4875
3236.42858	2250.6875
3238.71446	2222.7875
3240.99896	2242.0875
3243.28209	2215.8875
3245.56384	2239.0875
3247.84423	2220.7875
3250.12324	2226.6875
3252.40088	2225.1875
3254.67715	2211.4875
3256.95205	2199.6875
3259.22558	2211.5875
3261.49775	2208.6875
3263.76855	2203.5875
3266.03799	2207.2875
3268.30606	2210.4875
3270.57277	2206.6875
3272.83812	2174.9875
3275.10211	2177.3875
3277.36474	2185.7875
3279.62601	2184.9875
3281.88593	2163.7875
3284.14448	2146.6875
3286.40168	2172.5875
3288.65753	2147.6875
3290.91202	2152.6875
3293.16516	2136.6875
3295.41695	2150.4875
3297.66738	2162.2875
3299.91647	2136.2875
3302.16421	2117.7875
3304.4106	2084.8875
3306.65564	2104.0875
3308.89933	2073.0875
3311.14169	2066.2875
3313.38269	2059.7875
3315.62236	2034.4875
3317.86068	2013.7875
3320.09766	2017.8875
3322.3333	1975.8875
3324.5676	1972.6875
3326.80056	1943.6875
3329.03219	1933.7875
3331.26248	0.0875
3333.49143	-0.7125
3335.71905	0.3875
