Data from AgNPs_UA_5uM_CRN_500uM_SU_RamanShift__25__11-33-33-143.txt Node

Date: Thu Aug 04 11:33:33 BST 2022
User: TCL
Spectrometer: QEP01345
Trigger mode: 4
Integration Time (sec): 1.000000E0
Scans to average: 10
Electric dark correction enabled: true
Nonlinearity correction enabled: false
Boxcar width: 0
XAxis mode: Raman Shifts
Number of Pixels in Spectrum: 1044
>>>>>Begin Spectral Data<<<<<
46.04893	-0.1625
50.45542	0.5375
54.85868	0.3375
59.25871	-0.7625
63.6555	-54.4625
68.04907	-35.1625
72.43941	-67.1625
76.82654	-52.2625
81.21044	-52.6625
85.59113	-43.8625
89.96862	-68.2625
94.34289	-48.5625
98.71396	-72.2625
103.08183	-52.0625
107.4465	-42.1625
111.80798	-49.5625
116.16626	-36.9625
120.52136	-65.5625
124.87327	-39.1625
129.222	-51.3625
133.56755	-35.6625
137.90993	-46.4625
142.24913	-30.5625
146.58517	-20.1625
150.91804	-12.9625
155.24774	7.7375
159.57429	41.5375
163.89768	62.7375
168.21792	134.7375
172.53501	198.3375
176.84895	345.4375
181.15975	561.3375
185.46741	833.9375
189.77193	1176.3375
194.07331	1665.4375
198.37157	2183.1375
202.6667	2717.1375
206.9587	3312.0375
211.24758	3943.2375
215.53334	4639.0375
219.81599	5450.6375
224.09553	6392.1375
228.37195	7366.2375
232.64527	8293.4375
236.91549	9034.4375
241.18261	9417.4375
245.44663	9510.6375
249.70755	9490.5375
253.96539	9480.8375
258.22014	9569.8375
262.4718	9663.2375
266.72039	9674.0375
270.96589	9410.9375
275.20832	9002.0375
279.44768	8600.8375
283.68397	8285.0375
287.91719	8203.6375
292.14735	8406.1375
296.37445	9060.2375
300.59849	10180.1375
304.81948	11749.9375
309.03742	13522.6375
313.25231	14807.4375
317.46415	14630.6375
321.67296	12804.1375
325.87872	10713.6375
330.08145	9487.2375
334.28114	9234.3375
338.47781	9564.1375
342.67145	10251.5375
346.86207	11347.6375
351.04966	13037.5375
355.23424	14667.8375
359.4158	15249.5375
363.59435	14673.7375
367.76989	13680.0375
371.94243	12698.0375
376.11196	11884.2375
380.27849	11319.9375
384.44203	10850.7375
388.60257	10561.7375
392.76012	10582.6375
396.91468	10952.2375
401.06626	11383.1375
405.21485	11395.6375
409.36047	10667.5375
413.50311	9361.7375
417.64277	8185.4375
421.77947	7406.4375
425.9132	7054.2375
430.04396	6907.0375
434.17176	6889.5375
438.2966	7030.5375
442.41849	7274.4375
446.53742	7521.8375
450.6534	7672.5375
454.76644	7664.8375
458.87653	7514.0375
462.98368	7360.7375
467.08789	7174.5375
471.18916	6904.8375
475.2875	6561.3375
479.38291	6291.1375
483.4754	6097.8375
487.56496	6002.8375
491.6516	5918.8375
495.73531	5905.0375
499.81612	5975.7375
503.89401	6170.3375
507.96899	6403.9375
512.04106	6717.8375
516.11023	7037.0375
520.1765	7299.6375
524.23987	7385.3375
528.30034	7363.6375
532.35792	7199.5375
536.41261	7069.9375
540.46441	6803.8375
544.51333	6618.4375
548.55936	6602.1375
552.60252	6785.9375
556.64279	7044.7375
560.6802	7566.2375
564.71473	8710.3375
568.7464	10267.9375
572.7752	10199.0375
576.80114	8249.3375
580.82422	6693.3375
584.84444	5994.9375
588.86181	5788.7375
592.87633	5786.8375
596.888	6016.3375
600.89682	6956.0375
604.9028	10112.0375
608.90594	18122.1375
612.90624	27843.0375
616.90371	25123.8375
620.89834	13092.1375
624.89015	7872.7375
628.87913	7302.5375
632.86528	8082.3375
636.84862	8342.4375
640.82913	7344.8375
644.80683	6097.7375
648.78172	5557.9375
652.75379	5757.3375
656.72306	6695.0375
660.68952	7600.9375
664.65319	7077.0375
668.61405	5851.8375
672.57211	5345.2375
676.52738	5319.2375
680.47986	5288.7375
684.42955	5094.9375
688.37646	5006.0375
692.32058	5009.6375
696.26192	5120.9375
700.20048	5262.2375
704.13626	5298.5375
708.06928	5185.0375
711.99952	5150.0375
715.927	5230.9375
719.85171	5493.3375
723.77365	5673.3375
727.69284	5488.1375
731.60928	5315.9375
735.52295	5234.8375
739.43388	5330.1375
743.34206	5380.8375
747.24749	5358.7375
751.15017	5402.5375
755.05012	5802.1375
758.94733	7408.4375
762.8418	10976.5375
766.73354	15534.4375
770.62254	17804.5375
774.50882	16932.9375
778.39237	14987.7375
782.27321	12275.8375
786.15132	8862.9375
790.02671	6671.9375
793.89938	5667.2375
797.76935	5302.1375
801.6366	5131.7375
805.50115	5055.3375
809.36299	5002.4375
813.22213	4977.2375
817.07857	4978.3375
820.93231	5020.8375
824.78336	5147.3375
828.63172	5308.9375
832.47738	5350.9375
836.32036	5220.9375
840.16066	4962.8375
843.99827	4814.8375
847.8332	4753.4375
851.66546	4745.5375
855.49504	4715.2375
859.32195	4710.7375
863.1462	4656.0375
866.96777	4659.7375
870.78668	4633.2375
874.60293	4681.1375
878.41652	4780.2375
882.22745	4954.9375
886.03573	5056.6375
889.84136	5018.7375
893.64433	4983.0375
897.44466	4978.8375
901.24235	5003.3375
905.0374	4917.3375
908.8298	4689.5375
912.61957	4566.9375
916.40671	4467.1375
920.19121	4518.6375
923.97308	4772.7375
927.75233	5268.3375
931.52895	5767.2375
935.30295	5479.0375
939.07433	4755.3375
942.84309	4291.4375
946.60924	4129.7375
950.37278	4054.8375
954.13371	4050.5375
957.89203	4061.5375
961.64774	4050.7375
965.40086	4019.4375
969.15137	3982.1375
972.89929	4025.5375
976.64461	3976.9375
980.38733	3972.8375
984.12747	3957.1375
987.86502	4000.5375
991.59999	4017.8375
995.33237	4117.2375
999.06217	4237.5375
1002.78939	4448.3375
1006.51404	4803.7375
1010.23611	4976.2375
1013.95561	4805.2375
1017.67255	4544.2375
1021.38692	4369.7375
1025.09872	4205.8375
1028.80796	4103.8375
1032.51465	4158.7375
1036.21877	4175.6375
1039.92035	4278.3375
1043.61937	4365.1375
1047.31584	4454.1375
1051.00976	4460.9375
1054.70114	4394.8375
1058.38998	4301.5375
1062.07627	4279.4375
1065.76003	4289.6375
1069.44126	4348.7375
1073.11995	4459.1375
1076.79611	4802.7375
1080.46974	5379.9375
1084.14085	6248.2375
1087.80943	6931.1375
1091.47549	6889.2375
1095.13903	6160.1375
1098.80005	5411.5375
1102.45857	5017.5375
1106.11456	4984.5375
1109.76805	5124.3375
1113.41903	5629.6375
1117.06751	6381.9375
1120.71348	7624.4375
1124.35696	9481.5375
1127.99793	10687.4375
1131.63641	9710.2375
1135.2724	7805.6375
1138.90589	6490.8375
1142.5369	5772.1375
1146.16542	5345.5375
1149.79145	5056.0375
1153.415	4986.5375
1157.03607	5078.0375
1160.65467	5318.4375
1164.27079	5844.6375
1167.88443	6520.2375
1171.49561	7727.1375
1175.10432	9750.0375
1178.71056	12538.3375
1182.31434	14414.8375
1185.91565	14043.7375
1189.51451	12226.0375
1193.11091	10334.7375
1196.70485	9137.2375
1200.29634	8649.2375
1203.88538	8054.2375
1207.47197	6912.9375
1211.05612	5855.7375
1214.63782	5191.0375
1218.21708	4873.0375
1221.79391	4754.2375
1225.36829	4755.6375
1228.94024	4746.2375
1232.50976	4719.2375
1236.07685	4762.9375
1239.6415	4843.3375
1243.20374	4992.2375
1246.76355	5173.9375
1250.32093	5436.3375
1253.8759	5800.9375
1257.42845	6435.6375
1260.97859	7202.5375
1264.52631	7970.4375
1268.07163	8297.3375
1271.61453	8288.8375
1275.15503	7974.0375
1278.69312	7659.0375
1282.22882	7881.7375
1285.76211	8967.6375
1289.29301	10419.1375
1292.82151	11341.6375
1296.34761	11723.7375
1299.87133	12707.1375
1303.39266	15122.0375
1306.9116	19684.9375
1310.42815	25309.3375
1313.94233	27465.4375
1317.45412	23345.4375
1320.96354	17042.0375
1324.47058	12242.9375
1327.97525	9371.5375
1331.47754	7925.0375
1334.97747	7454.1375
1338.47502	7660.2375
1341.97022	8749.7375
1345.46305	11234.4375
1348.95352	14644.5375
1352.44163	18259.1375
1355.92738	22853.1375
1359.41078	30795.2375
1362.89183	39026.6375
1366.37053	36807.2375
1369.84688	25077.7375
1373.32088	15631.6375
1376.79254	11582.1375
1380.26186	9688.9375
1383.72883	8270.0375
1387.19347	6974.0375
1390.65578	5994.1375
1394.11575	5499.5375
1397.57339	5224.1375
1401.0287	5046.6375
1404.48168	4864.1375
1407.93234	4766.5375
1411.38068	4912.4375
1414.82669	5320.3375
1418.27039	5815.3375
1421.71177	5903.4375
1425.15083	5665.4375
1428.58758	5785.9375
1432.02203	6427.9375
1435.45416	6908.9375
1438.88399	6598.3375
1442.31151	6131.6375
1445.73673	6044.8375
1449.15965	5998.6375
1452.58027	5846.1375
1455.9986	5598.4375
1459.41463	5394.4375
1462.82837	5410.8375
1466.23982	5682.9375
1469.64898	6045.3375
1473.05586	6174.1375
1476.46045	6128.7375
1479.86276	6159.0375
1483.26279	6489.2375
1486.66054	7177.1375
1490.05602	8294.2375
1493.44922	10071.7375
1496.84016	12893.6375
1500.22882	17230.2375
1503.61521	23371.1375
1506.99934	31397.6375
1510.38121	39566.7375
1513.76081	43013.5375
1517.13816	38446.5375
1520.51324	28780.9375
1523.88607	19835.9375
1527.25665	13999.4375
1530.62498	10686.9375
1533.99105	8741.6375
1537.35488	7515.1375
1540.71647	6801.5375
1544.07581	6530.9375
1547.4329	6530.3375
1550.78776	6709.4375
1554.14038	7090.7375
1557.49077	7720.1375
1560.83892	8862.3375
1564.18484	10585.6375
1567.52853	12424.3375
1570.86999	13418.1375
1574.20922	13465.5375
1577.54624	12683.7375
1580.88103	10520.3375
1584.2136	8004.3375
1587.54395	6501.6375
1590.87208	6162.0375
1594.19801	6638.8375
1597.52172	7446.7375
1600.84321	7506.1375
1604.16251	6609.3375
1607.47959	5753.8375
1610.79447	5226.2375
1614.10715	4817.1375
1617.41763	4559.4375
1620.7259	4435.6375
1624.03199	4494.3375
1627.33587	4725.8375
1630.63757	5175.0375
1633.93707	5981.1375
1637.23439	7441.8375
1640.52951	10121.5375
1643.82246	14717.5375
1647.11321	20855.0375
1650.40179	25749.4375
1653.68819	25235.6375
1656.97241	19453.8375
1660.25446	12925.8375
1663.53433	8501.0375
1666.81203	6082.6375
1670.08756	4863.5375
1673.36092	4223.0375
1676.63211	3774.9375
1679.90115	3536.4375
1683.16801	3362.4375
1686.43272	3209.4375
1689.69527	3143.3375
1692.95567	3056.6375
1696.2139	3006.5375
1699.46999	2927.1375
1702.72392	2921.9375
1705.97571	2936.5375
1709.22535	2906.0375
1712.47284	2958.2375
1715.71819	2983.7375
1718.96139	2994.8375
1722.20246	2962.6375
1725.44139	2885.3375
1728.67818	2823.3375
1731.91284	2723.3375
1735.14537	2649.8375
1738.37576	2611.9375
1741.60403	2585.9375
1744.83017	2558.7375
1748.05418	2543.0375
1751.27607	2515.5375
1754.49584	2465.7375
1757.71349	2387.1375
1760.92903	2363.7375
1764.14244	2292.9375
1767.35375	2268.8375
1770.56294	2215.2375
1773.77002	2161.9375
1776.97499	2145.2375
1780.17785	2094.3375
1783.37861	2078.3375
1786.57727	2064.3375
1789.77382	2004.8375
1792.96828	2036.9375
1796.16064	2036.5375
1799.3509	2019.1375
1802.53907	2029.9375
1805.72514	2003.9375
1808.90913	1978.2375
1812.09102	1973.5375
1815.27083	1957.3375
1818.44856	1942.6375
1821.6242	1942.6375
1824.79776	1930.9375
1827.96924	1910.7375
1831.13864	1897.2375
1834.30597	1881.1375
1837.47122	1843.5375
1840.6344	1818.3375
1843.7955	1784.3375
1846.95454	1763.8375
1850.11151	1772.5375
1853.26642	1739.0375
1856.41926	1746.1375
1859.57004	1747.0375
1862.71876	1758.7375
1865.86542	1765.8375
1869.01003	1769.1375
1872.15258	1754.8375
1875.29308	1788.6375
1878.43152	1784.3375
1881.56792	1768.6375
1884.70227	1741.1375
1887.83457	1743.3375
1890.96482	1714.5375
1894.09304	1703.2375
1897.21921	1697.2375
1900.34335	1711.1375
1903.46544	1684.8375
1906.58551	1706.8375
1909.70353	1697.2375
1912.81953	1696.1375
1915.93349	1684.5375
1919.04543	1663.6375
1922.15534	1653.6375
1925.26322	1641.1375
1928.36908	1609.7375
1931.47292	1592.6375
1934.57473	1585.8375
1937.67453	1530.8375
1940.77232	1500.1375
1943.86808	1481.0375
1946.96184	1487.7375
1950.05358	1466.3375
1953.14331	1459.7375
1956.23103	1477.5375
1959.31675	1463.6375
1962.40046	1436.5375
1965.48217	1486.3375
1968.56188	1509.1375
1971.63959	1508.5375
1974.7153	1524.2375
1977.78901	1509.7375
1980.86073	1477.3375
1983.93046	1418.9375
1986.99819	1332.8375
1990.06394	1351.0375
1993.1277	1366.9375
1996.18947	1341.6375
1999.24925	1312.9375
2002.30706	1329.6375
2005.36288	1316.2375
2008.41672	1287.1375
2011.46859	1272.8375
2014.51848	1271.2375
2017.56639	1252.3375
2020.61233	1244.3375
2023.6563	1255.9375
2026.6983	1213.1375
2029.73833	1224.8375
2032.7764	1238.2375
2035.8125	1192.9375
2038.84664	1205.8375
2041.87881	1202.3375
2044.90903	1211.4375
2047.93729	1204.6375
2050.96359	1166.9375
2053.98794	1176.6375
2057.01034	1182.2375
2060.03078	1147.0375
2063.04927	1130.1375
2066.06582	1134.0375
2069.08042	1114.2375
2072.09307	1107.6375
2075.10378	1116.9375
2078.11255	1113.9375
2081.11938	1108.6375
2084.12426	1105.1375
2087.12722	1110.8375
2090.12824	1103.9375
2093.12732	1113.9375
2096.12447	1109.2375
2099.11969	1106.2375
2102.11299	1092.1375
2105.10435	1112.9375
2108.09379	1101.8375
2111.08131	1099.8375
2114.0669	1111.9375
2117.05057	1128.3375
2120.03233	1120.3375
2123.01216	1175.6375
2125.99008	1184.9375
2128.96609	1190.3375
2131.94018	1182.9375
2134.91236	1161.6375
2137.88263	1133.6375
2140.851	1117.9375
2143.81746	1121.2375
2146.78201	1092.6375
2149.74466	1067.1375
2152.7054	1065.6375
2155.66425	1039.4375
2158.6212	1026.0375
2161.57625	1002.4375
2164.52941	985.6375
2167.48067	1006.2375
2170.43004	1001.3375
2173.37752	1030.5375
2176.32311	1031.3375
2179.26681	1035.7375
2182.20863	1046.5375
2185.14856	1036.7375
2188.08661	1031.8375
2191.02278	1028.8375
2193.95707	999.7375
2196.88948	973.6375
2199.82001	987.1375
2202.74867	974.4375
2205.67545	967.1375
2208.60037	988.9375
2211.52341	982.0375
2214.44458	971.4375
2217.36388	972.0375
2220.28132	957.9375
2223.1969	934.8375
2226.11061	936.0375
2229.02246	925.7375
2231.93245	928.7375
2234.84058	910.7375
2237.74686	914.1375
2240.65128	912.5375
2243.55385	929.1375
2246.45456	917.6375
2249.35343	955.4375
2252.25044	953.7375
2255.14561	992.0375
2258.03893	1014.5375
2260.93041	1040.5375
2263.82004	1050.0375
2266.70783	1055.2375
2269.59378	1032.2375
2272.4779	1020.4375
2275.36017	1042.6375
2278.24061	1018.9375
2281.11922	994.8375
2283.996	994.5375
2286.87094	967.5375
2289.74405	970.0375
2292.61534	950.2375
2295.4848	932.9375
2298.35243	916.8375
2301.21824	901.6375
2304.08223	896.7375
2306.94439	906.0375
2309.80474	917.4375
2312.66327	908.5375
2315.51999	898.8375
2318.37489	885.3375
2321.22797	872.4375
2324.07925	877.9375
2326.92871	872.3375
2329.77637	862.4375
2332.62222	872.3375
2335.46626	854.4375
2338.3085	863.3375
2341.14893	889.6375
2343.98756	899.3375
2346.8244	885.1375
2349.65943	888.4375
2352.49267	907.3375
2355.32411	920.1375
2358.15376	928.6375
2360.98161	960.6375
2363.80768	958.5375
2366.63195	985.0375
2369.45444	1001.1375
2372.27514	1008.5375
2375.09405	1014.1375
2377.91118	980.3375
2380.72652	973.8375
2383.54009	962.9375
2386.35187	954.8375
2389.16188	929.5375
2391.97011	914.2375
2394.77657	894.1375
2397.58125	893.9375
2400.38416	877.8375
2403.18529	862.2375
2405.98466	838.0375
2408.78226	850.7375
2411.57809	834.9375
2414.37216	834.7375
2417.16446	843.7375
2419.955	821.3375
2422.74378	848.0375
2425.5308	831.0375
2428.31606	848.3375
2431.09956	862.5375
2433.88131	853.6375
2436.6613	873.6375
2439.43954	875.2375
2442.21603	884.5375
2444.99077	875.2375
2447.76377	896.5375
2450.53501	902.5375
2453.30451	900.5375
2456.07226	920.0375
2458.83827	911.3375
2461.60254	870.8375
2464.36507	908.3375
2467.12586	884.8375
2469.88492	899.6375
2472.64224	899.8375
2475.39782	892.8375
2478.15167	921.3375
2480.90379	937.9375
2483.65417	970.4375
2486.40283	984.8375
2489.14976	1014.2375
2491.89497	1002.1375
2494.63845	1014.0375
2497.3802	993.2375
2500.12024	986.0375
2502.85855	967.6375
2505.59514	957.9375
2508.33002	926.8375
2511.06318	879.2375
2513.79462	865.5375
2516.52435	800.9375
2519.25237	767.3375
2521.97867	762.6375
2524.70327	757.3375
2527.42616	747.3375
2530.14734	753.5375
2532.86681	734.9375
2535.58458	741.5375
2538.30065	732.9375
2541.01501	759.0375
2543.72768	756.0375
2546.43864	773.0375
2549.14791	774.6375
2551.85548	778.6375
2554.56136	770.3375
2557.26554	793.9375
2559.96803	796.5375
2562.66883	803.6375
2565.36794	791.7375
2568.06536	773.7375
2570.7611	802.0375
2573.45514	793.8375
2576.14751	781.5375
2578.83819	777.3375
2581.52719	763.5375
2584.21451	764.2375
2586.90015	740.3375
2589.58411	727.6375
2592.2664	743.4375
2594.94701	743.3375
2597.62594	742.7375
2600.30321	690.0375
2602.9788	717.7375
2605.65273	715.8375
2608.32498	731.9375
2610.99557	751.4375
2613.66449	727.1375
2616.33175	743.6375
2618.99734	754.2375
2621.66128	759.8375
2624.32355	748.6375
2626.98416	732.6375
2629.64311	718.8375
2632.30041	710.3375
2634.95605	694.6375
2637.61004	673.4375
2640.26238	657.8375
2642.91306	652.4375
2645.56209	666.8375
2648.20948	662.5375
2650.85521	656.8375
2653.4993	676.7375
2656.14175	678.9375
2658.78255	679.5375
2661.42171	653.8375
2664.05923	696.4375
2666.6951	711.5375
2669.32934	720.3375
2671.96194	735.3375
2674.59291	728.8375
2677.22224	736.9375
2679.84993	730.7375
2682.476	714.8375
2685.10043	705.8375
2687.72324	697.2375
2690.34441	694.8375
2692.96396	688.9375
2695.58188	700.1375
2698.19818	686.8375
2700.81285	670.7375
2703.4259	665.5375
2706.03733	640.5375
2708.64714	652.4375
2711.25533	685.9375
2713.86191	693.9375
2716.46687	689.0375
2719.07021	695.7375
2721.67194	687.6375
2724.27206	710.7375
2726.87057	680.7375
2729.46747	665.6375
2732.06276	671.2375
2734.65644	647.6375
2737.24852	647.9375
2739.83899	617.3375
2742.42786	628.0375
2745.01513	632.0375
2747.60079	609.1375
2750.18486	589.9375
2752.76733	604.4375
2755.3482	590.6375
2757.92747	582.1375
2760.50515	566.8375
2763.08123	562.4375
2765.65573	565.0375
2768.22863	553.1375
2770.79994	550.0375
2773.36967	551.9375
2775.9378	549.0375
2778.50435	556.1375
2781.06932	554.8375
2783.6327	551.2375
2786.1945	575.6375
2788.75471	563.6375
2791.31335	570.3375
2793.87041	577.9375
2796.42589	575.0375
2798.97979	571.9375
2801.53212	593.6375
2804.08288	617.5375
2806.63206	613.7375
2809.17967	614.5375
2811.72571	648.1375
2814.27018	661.2375
2816.81308	677.9375
2819.35442	658.4375
2821.89419	704.8375
2824.43239	702.3375
2826.96904	731.6375
2829.50412	706.3375
2832.03763	712.7375
2834.56959	713.7375
2837.1	686.4375
2839.62884	676.2375
2842.15613	666.9375
2844.68186	672.9375
2847.20604	657.2375
2849.72867	663.0375
2852.24974	683.5375
2854.76927	672.4375
2857.28724	647.9375
2859.80367	726.9375
2862.31855	748.5375
2864.83189	754.0375
2867.34368	788.3375
2869.85393	811.2375
2872.36264	790.1375
2874.8698	803.4375
2877.37543	817.2375
2879.87952	787.9375
2882.38207	754.3375
2884.88308	755.2375
2887.38256	732.9375
2889.88051	718.4375
2892.37692	711.3375
2894.8718	690.9375
2897.36515	713.0375
2899.85698	718.2375
2902.34727	710.4375
2904.83604	731.8375
2907.32328	761.1375
2909.809	772.6375
2912.29319	781.9375
2914.77587	800.7375
2917.25702	808.1375
2919.73665	800.4375
2922.21476	779.3375
2924.69136	761.8375
2927.16644	717.2375
2929.64	704.5375
2932.11205	680.4375
2934.58258	690.0375
2937.05161	674.2375
2939.51912	670.1375
2941.98513	683.7375
2944.44962	675.3375
2946.91261	654.2375
2949.37409	663.6375
2951.83407	669.8375
2954.29254	672.9375
2956.74951	678.5375
2959.20498	668.6375
2961.65895	670.2375
2964.11142	666.6375
2966.56239	669.9375
2969.01186	655.9375
2971.45984	646.9375
2973.90632	638.1375
2976.35131	658.1375
2978.7948	657.3375
2981.23681	647.7375
2983.67732	659.5375
2986.11635	665.2375
2988.55388	639.6375
2990.98993	655.3375
2993.4245	655.4375
2995.85758	646.0375
2998.28917	659.6375
3000.71928	653.0375
3003.14791	663.2375
3005.57506	652.6375
3008.00073	645.9375
3010.42493	594.7375
3012.84764	646.3375
3015.26888	643.9375
3017.68865	640.4375
3020.10694	600.7375
3022.52376	618.8375
3024.9391	614.9375
3027.35298	596.1375
3029.76539	578.3375
3032.17632	572.0375
3034.5858	549.9375
3036.9938	548.2375
3039.40034	535.0375
3041.80542	515.2375
3044.20903	491.4375
3046.61118	476.9375
3049.01187	496.1375
3051.4111	481.4375
3053.80888	469.0375
3056.20519	474.5375
3058.60005	462.3375
3060.99345	488.2375
3063.3854	463.2375
3065.7759	456.5375
3068.16494	447.9375
3070.55254	443.5375
3072.93868	453.0375
3075.32338	452.6375
3077.70662	441.8375
3080.08842	442.0375
3082.46878	424.1375
3084.84769	445.9375
3087.22515	418.6375
3089.60118	440.8375
3091.97576	417.3375
3094.3489	424.3375
3096.72061	420.7375
3099.09087	403.9375
3101.4597	418.2375
3103.82709	408.3375
3106.19305	399.8375
3108.55757	408.3375
3110.92066	405.1375
3113.28232	414.3375
3115.64255	416.8375
3118.00134	417.3375
3120.35871	403.2375
3122.71466	394.6375
3125.06917	410.8375
3127.42226	407.1375
3129.77393	393.7375
3132.12417	411.0375
3134.47299	414.4375
3136.82039	403.6375
3139.16636	381.0375
3141.51092	407.3375
3143.85406	407.6375
3146.19579	394.7375
3148.53609	396.5375
3150.87499	408.6375
3153.21246	407.2375
3155.54853	417.4375
3157.88318	417.7375
3160.21642	417.4375
3162.54826	415.0375
3164.87868	414.9375
3167.2077	381.7375
3169.5353	395.7375
3171.86151	405.3375
3174.18631	378.8375
3176.5097	371.0375
3178.83169	370.1375
3181.15228	369.3375
3183.47147	343.3375
3185.78926	325.4375
3188.10565	336.0375
3190.42065	322.6375
3192.73424	334.4375
3195.04645	326.1375
3197.35725	320.5375
3199.66667	340.4375
3201.97469	329.5375
3204.28132	323.9375
3206.58656	342.0375
3208.8904	352.3375
3211.19287	348.9375
3213.49394	340.7375
3215.79363	341.9375
3218.09193	356.4375
3220.38884	349.2375
3222.68438	351.2375
3224.97853	333.6375
3227.2713	354.8375
3229.56269	337.7375
3231.8527	340.9375
3234.14133	332.7375
3236.42858	324.5375
3238.71446	309.9375
3240.99896	330.9375
3243.28209	313.1375
3245.56384	326.2375
3247.84423	312.7375
3250.12324	323.4375
3252.40088	320.4375
3254.67715	315.4375
3256.95205	307.4375
3259.22558	323.0375
3261.49775	319.2375
3263.76855	312.8375
3266.03799	321.1375
3268.30606	323.4375
3270.57277	330.8375
3272.83812	321.6375
3275.10211	328.8375
3277.36474	351.9375
3279.62601	355.9375
3281.88593	347.8375
3284.14448	335.4375
3286.40168	368.7375
3288.65753	370.8375
3290.91202	382.0375
3293.16516	379.4375
3295.41695	422.6375
3297.66738	432.4375
3299.91647	424.4375
3302.16421	444.9375
3304.4106	412.8375
3306.65564	445.9375
3308.89933	424.3375
3311.14169	439.5375
3313.38269	443.8375
3315.62236	440.4375
3317.86068	443.9375
3320.09766	452.4375
3322.3333	447.0375
3324.5676	453.0375
3326.80056	457.5375
3329.03219	470.1375
3331.26248	-0.1625
3333.49143	-0.0625
3335.71905	-0.1625
