Data from AgNPs_UA_50uM_CRN_500uM_SU_RamanShift__31__14-01-00-320.txt Node

Date: Thu Aug 04 14:01:00 BST 2022
User: TCL
Spectrometer: QEP01345
Trigger mode: 4
Integration Time (sec): 1.000000E0
Scans to average: 10
Electric dark correction enabled: true
Nonlinearity correction enabled: false
Boxcar width: 0
XAxis mode: Raman Shifts
Number of Pixels in Spectrum: 1044
>>>>>Begin Spectral Data<<<<<
46.04893	1.4875
50.45542	-0.4125
54.85868	-0.1125
59.25871	-0.7125
63.6555	16.1875
68.04907	11.6875
72.43941	14.5875
76.82654	15.2875
81.21044	13.8875
85.59113	17.5875
89.96862	17.4875
94.34289	19.4875
98.71396	19.3875
103.08183	18.0875
107.4465	17.1875
111.80798	18.5875
116.16626	20.7875
120.52136	20.8875
124.87327	22.6875
129.222	23.4875
133.56755	26.9875
137.90993	26.6875
142.24913	28.4875
146.58517	32.9875
150.91804	40.9875
155.24774	49.5875
159.57429	63.7875
163.89768	76.4875
168.21792	106.0875
172.53501	142.0875
176.84895	206.0875
181.15975	291.6875
185.46741	416.0875
189.77193	575.5875
194.07331	769.3875
198.37157	995.5875
202.6667	1232.5875
206.9587	1472.0875
211.24758	1713.9875
215.53334	1954.5875
219.81599	2222.9875
224.09553	2532.1875
228.37195	2856.5875
232.64527	3200.1875
236.91549	3569.8875
241.18261	3868.0875
245.44663	4107.3875
249.70755	4300.6875
253.96539	4469.0875
258.22014	4599.4875
262.4718	4708.9875
266.72039	4781.4875
270.96589	4803.0875
275.20832	4770.4875
279.44768	4682.9875
283.68397	4618.5875
287.91719	4564.7875
292.14735	4564.8875
296.37445	4643.5875
300.59849	4819.4875
304.81948	5022.7875
309.03742	5236.0875
313.25231	5319.2875
317.46415	5278.8875
321.67296	5062.0875
325.87872	4819.4875
330.08145	4685.6875
334.28114	4672.9875
338.47781	4733.5875
342.67145	4834.8875
346.86207	4996.7875
351.04966	5216.3875
355.23424	5426.6875
359.4158	5571.9875
363.59435	5647.1875
367.76989	5630.6875
371.94243	5600.6875
376.11196	5541.5875
380.27849	5517.5875
384.44203	5515.9875
388.60257	5504.0875
392.76012	5552.7875
396.91468	5603.1875
401.06626	5711.9875
405.21485	5737.8875
409.36047	5657.7875
413.50311	5450.6875
417.64277	5250.6875
421.77947	5140.5875
425.9132	5096.4875
430.04396	5103.7875
434.17176	5130.6875
438.2966	5181.9875
442.41849	5275.1875
446.53742	5371.4875
450.6534	5479.3875
454.76644	5532.0875
458.87653	5523.8875
462.98368	5534.0875
467.08789	5498.5875
471.18916	5400.8875
475.2875	5304.5875
479.38291	5237.0875
483.4754	5177.0875
487.56496	5160.6875
491.6516	5128.9875
495.73531	5115.5875
499.81612	5139.5875
503.89401	5180.0875
507.96899	5240.7875
512.04106	5271.2875
516.11023	5342.7875
520.1765	5377.0875
524.23987	5382.1875
528.30034	5380.0875
532.35792	5362.5875
536.41261	5319.4875
540.46441	5238.3875
544.51333	5230.1875
548.55936	5260.9875
552.60252	5346.3875
556.64279	5422.0875
560.6802	5460.6875
564.71473	5549.4875
568.7464	5650.3875
572.7752	5617.5875
576.80114	5471.8875
580.82422	5335.3875
584.84444	5300.1875
588.86181	5301.0875
592.87633	5312.7875
596.888	5396.7875
600.89682	5662.9875
604.9028	6299.0875
608.90594	7683.3875
612.90624	9157.3875
616.90371	8487.0875
620.89834	6486.4875
624.89015	5637.0875
628.87913	5537.4875
632.86528	5637.9875
636.84862	5729.0875
640.82913	5635.6875
644.80683	5429.5875
648.78172	5307.2875
652.75379	5349.0875
656.72306	5492.8875
660.68952	5650.7875
664.65319	5611.3875
668.61405	5470.6875
672.57211	5468.8875
676.52738	5459.3875
680.47986	5398.6875
684.42955	5316.2875
688.37646	5288.6875
692.32058	5338.7875
696.26192	5388.0875
700.20048	5463.4875
704.13626	5480.9875
708.06928	5456.2875
711.99952	5413.0875
715.927	5412.5875
719.85171	5448.2875
723.77365	5453.1875
727.69284	5436.7875
731.60928	5395.6875
735.52295	5380.6875
739.43388	5392.5875
743.34206	5417.5875
747.24749	5429.7875
751.15017	5432.7875
755.05012	5488.1875
758.94733	5710.4875
762.8418	6247.0875
766.73354	7064.1875
770.62254	7676.9875
774.50882	7789.1875
778.39237	7417.6875
782.27321	6824.1875
786.15132	6199.4875
790.02671	5749.7875
793.89938	5560.8875
797.76935	5458.3875
801.6366	5409.3875
805.50115	5382.1875
809.36299	5366.8875
813.22213	5358.0875
817.07857	5346.2875
820.93231	5349.2875
824.78336	5360.3875
828.63172	5394.7875
832.47738	5389.5875
836.32036	5391.9875
840.16066	5353.8875
843.99827	5357.8875
847.8332	5367.6875
851.66546	5359.6875
855.49504	5383.4875
859.32195	5383.3875
863.1462	5392.7875
866.96777	5374.4875
870.78668	5387.9875
874.60293	5383.5875
878.41652	5403.4875
882.22745	5467.2875
886.03573	5471.7875
889.84136	5480.8875
893.64433	5448.6875
897.44466	5446.0875
901.24235	5441.3875
905.0374	5434.3875
908.8298	5408.9875
912.61957	5408.5875
916.40671	5383.6875
920.19121	5398.7875
923.97308	5469.1875
927.75233	5502.1875
931.52895	5534.6875
935.30295	5487.7875
939.07433	5392.2875
942.84309	5318.7875
946.60924	5314.5875
950.37278	5299.0875
954.13371	5281.6875
957.89203	5272.9875
961.64774	5271.9875
965.40086	5263.9875
969.15137	5266.1875
972.89929	5252.2875
976.64461	5250.7875
980.38733	5254.3875
984.12747	5264.7875
987.86502	5291.3875
991.59999	5321.3875
995.33237	5346.2875
999.06217	5398.4875
1002.78939	5461.6875
1006.51404	5561.5875
1010.23611	5659.9875
1013.95561	5693.9875
1017.67255	5686.5875
1021.38692	5654.2875
1025.09872	5579.7875
1028.80796	5511.5875
1032.51465	5495.8875
1036.21877	5508.0875
1039.92035	5531.3875
1043.61937	5570.7875
1047.31584	5586.5875
1051.00976	5608.0875
1054.70114	5617.5875
1058.38998	5602.5875
1062.07627	5612.1875
1065.76003	5670.3875
1069.44126	5737.0875
1073.11995	5822.2875
1076.79611	5934.3875
1080.46974	6048.6875
1084.14085	6132.3875
1087.80943	6189.5875
1091.47549	6213.8875
1095.13903	6175.8875
1098.80005	6140.7875
1102.45857	6072.6875
1106.11456	6005.4875
1109.76805	5974.3875
1113.41903	5992.5875
1117.06751	6086.6875
1120.71348	6234.0875
1124.35696	6427.1875
1127.99793	6573.2875
1131.63641	6459.9875
1135.2724	6239.1875
1138.90589	6071.8875
1142.5369	5974.6875
1146.16542	5934.6875
1149.79145	5898.0875
1153.415	5844.4875
1157.03607	5799.2875
1160.65467	5838.1875
1164.27079	5936.0875
1167.88443	6094.2875
1171.49561	6364.0875
1175.10432	6790.4875
1178.71056	7369.0875
1182.31434	7865.6875
1185.91565	7975.0875
1189.51451	7877.7875
1193.11091	7654.8875
1196.70485	7442.5875
1200.29634	7307.4875
1203.88538	7121.0875
1207.47197	6858.4875
1211.05612	6630.6875
1214.63782	6443.2875
1218.21708	6295.7875
1221.79391	6178.6875
1225.36829	6122.6875
1228.94024	6098.5875
1232.50976	6100.0875
1236.07685	6115.7875
1239.6415	6129.1875
1243.20374	6146.3875
1246.76355	6190.4875
1250.32093	6258.8875
1253.8759	6334.3875
1257.42845	6498.1875
1260.97859	6666.5875
1264.52631	6827.1875
1268.07163	6940.9875
1271.61453	6998.6875
1275.15503	7007.0875
1278.69312	7012.7875
1282.22882	7006.0875
1285.76211	7109.2875
1289.29301	7225.4875
1292.82151	7379.9875
1296.34761	7517.8875
1299.87133	7777.3875
1303.39266	8202.2875
1306.9116	8857.7875
1310.42815	9574.2875
1313.94233	9731.0875
1317.45412	9311.5875
1320.96354	8670.7875
1324.47058	8113.8875
1327.97525	7677.4875
1331.47754	7399.8875
1334.97747	7350.3875
1338.47502	7413.9875
1341.97022	7667.2875
1345.46305	8132.6875
1348.95352	8783.1875
1352.44163	9521.6875
1355.92738	10299.7875
1359.41078	11313.9875
1362.89183	12130.4875
1366.37053	11655.6875
1369.84688	9999.3875
1373.32088	8454.9875
1376.79254	7584.6875
1380.26186	7166.5875
1383.72883	6935.0875
1387.19347	6716.3875
1390.65578	6493.5875
1394.11575	6315.4875
1397.57339	6186.1875
1401.0287	6120.1875
1404.48168	6085.4875
1407.93234	6081.0875
1411.38068	6138.5875
1414.82669	6222.6875
1418.27039	6218.1875
1421.71177	6196.5875
1425.15083	6158.7875
1428.58758	6114.0875
1432.02203	6136.0875
1435.45416	6177.6875
1438.88399	6208.4875
1442.31151	6197.4875
1445.73673	6258.2875
1449.15965	6267.1875
1452.58027	6261.3875
1455.9986	6203.1875
1459.41463	6187.0875
1462.82837	6251.2875
1466.23982	6360.9875
1469.64898	6470.0875
1473.05586	6571.7875
1476.46045	6639.8875
1479.86276	6693.4875
1483.26279	6773.9875
1486.66054	6905.9875
1490.05602	7126.2875
1493.44922	7460.9875
1496.84016	7967.2875
1500.22882	8781.0875
1503.61521	9811.7875
1506.99934	10789.2875
1510.38121	11388.6875
1513.76081	11170.9875
1517.13816	10263.7875
1520.51324	9079.3875
1523.88607	8114.4875
1527.25665	7543.5875
1530.62498	7239.8875
1533.99105	7110.5875
1537.35488	7048.3875
1540.71647	6961.2875
1544.07581	6925.7875
1547.4329	6866.0875
1550.78776	6795.5875
1554.14038	6745.3875
1557.49077	6756.5875
1560.83892	6822.7875
1564.18484	7009.0875
1567.52853	7243.3875
1570.86999	7412.2875
1574.20922	7487.1875
1577.54624	7356.8875
1580.88103	7048.7875
1584.2136	6651.4875
1587.54395	6410.2875
1590.87208	6386.9875
1594.19801	6538.1875
1597.52172	6745.5875
1600.84321	6850.0875
1604.16251	6783.0875
1607.47959	6667.9875
1610.79447	6488.8875
1614.10715	6231.6875
1617.41763	5978.3875
1620.7259	5802.7875
1624.03199	5706.4875
1627.33587	5678.0875
1630.63757	5730.9875
1633.93707	5872.5875
1637.23439	6142.7875
1640.52951	6590.2875
1643.82246	7273.4875
1647.11321	8035.9875
1650.40179	8453.8875
1653.68819	8216.1875
1656.97241	7403.0875
1660.25446	6520.1875
1663.53433	5903.9875
1666.81203	5516.0875
1670.08756	5327.5875
1673.36092	5193.0875
1676.63211	5094.9875
1679.90115	5042.0875
1683.16801	5003.3875
1686.43272	4953.1875
1689.69527	4920.3875
1692.95567	4901.3875
1696.2139	4884.4875
1699.46999	4866.2875
1702.72392	4867.2875
1705.97571	4873.6875
1709.22535	4860.5875
1712.47284	4861.3875
1715.71819	4863.2875
1718.96139	4862.0875
1722.20246	4847.3875
1725.44139	4808.3875
1728.67818	4793.9875
1731.91284	4769.3875
1735.14537	4752.7875
1738.37576	4746.1875
1741.60403	4728.6875
1744.83017	4710.9875
1748.05418	4707.5875
1751.27607	4696.0875
1754.49584	4679.9875
1757.71349	4665.7875
1760.92903	4660.6875
1764.14244	4654.3875
1767.35375	4671.3875
1770.56294	4645.3875
1773.77002	4640.1875
1776.97499	4627.2875
1780.17785	4596.0875
1783.37861	4595.3875
1786.57727	4574.7875
1789.77382	4572.1875
1792.96828	4570.7875
1796.16064	4564.5875
1799.3509	4543.3875
1802.53907	4552.9875
1805.72514	4527.0875
1808.90913	4511.5875
1812.09102	4505.6875
1815.27083	4513.6875
1818.44856	4505.1875
1821.6242	4482.8875
1824.79776	4478.3875
1827.96924	4467.6875
1831.13864	4440.8875
1834.30597	4451.4875
1837.47122	4430.3875
1840.6344	4421.3875
1843.7955	4426.7875
1846.95454	4439.8875
1850.11151	4433.2875
1853.26642	4424.0875
1856.41926	4427.4875
1859.57004	4431.7875
1862.71876	4425.7875
1865.86542	4415.0875
1869.01003	4396.1875
1872.15258	4408.7875
1875.29308	4399.7875
1878.43152	4385.6875
1881.56792	4375.3875
1884.70227	4379.4875
1887.83457	4361.3875
1890.96482	4357.3875
1894.09304	4361.9875
1897.21921	4350.8875
1900.34335	4350.8875
1903.46544	4327.6875
1906.58551	4313.6875
1909.70353	4321.4875
1912.81953	4305.2875
1915.93349	4308.9875
1919.04543	4304.2875
1922.15534	4280.8875
1925.26322	4280.4875
1928.36908	4288.9875
1931.47292	4279.0875
1934.57473	4258.3875
1937.67453	4250.8875
1940.77232	4228.1875
1943.86808	4216.9875
1946.96184	4201.3875
1950.05358	4208.4875
1953.14331	4184.1875
1956.23103	4172.9875
1959.31675	4153.7875
1962.40046	4141.5875
1965.48217	4153.4875
1968.56188	4136.1875
1971.63959	4124.9875
1974.7153	4108.0875
1977.78901	4092.4875
1980.86073	4085.6875
1983.93046	4077.8875
1986.99819	4048.9875
1990.06394	4047.2875
1993.1277	4044.9875
1996.18947	4018.1875
1999.24925	4005.0875
2002.30706	3982.1875
2005.36288	3972.7875
2008.41672	3954.5875
2011.46859	3955.2875
2014.51848	3947.4875
2017.56639	3936.9875
2020.61233	3921.4875
2023.6563	3911.8875
2026.6983	3888.9875
2029.73833	3864.8875
2032.7764	3862.4875
2035.8125	3845.9875
2038.84664	3850.2875
2041.87881	3857.7875
2044.90903	3822.2875
2047.93729	3814.9875
2050.96359	3820.9875
2053.98794	3805.9875
2057.01034	3805.9875
2060.03078	3801.1875
2063.04927	3808.0875
2066.06582	3802.9875
2069.08042	3790.2875
2072.09307	3780.1875
2075.10378	3776.7875
2078.11255	3777.3875
2081.11938	3782.6875
2084.12426	3784.0875
2087.12722	3772.3875
2090.12824	3778.3875
2093.12732	3788.2875
2096.12447	3784.8875
2099.11969	3785.3875
2102.11299	3783.2875
2105.10435	3784.9875
2108.09379	3773.8875
2111.08131	3772.7875
2114.0669	3780.1875
2117.05057	3787.4875
2120.03233	3772.4875
2123.01216	3792.1875
2125.99008	3780.4875
2128.96609	3794.6875
2131.94018	3785.9875
2134.91236	3791.3875
2137.88263	3790.9875
2140.851	3790.7875
2143.81746	3787.5875
2146.78201	3779.4875
2149.74466	3792.4875
2152.7054	3792.7875
2155.66425	3781.5875
2158.6212	3786.1875
2161.57625	3767.0875
2164.52941	3762.4875
2167.48067	3772.3875
2170.43004	3771.3875
2173.37752	3764.0875
2176.32311	3779.6875
2179.26681	3772.7875
2182.20863	3784.9875
2185.14856	3763.0875
2188.08661	3750.2875
2191.02278	3762.0875
2193.95707	3747.7875
2196.88948	3746.6875
2199.82001	3751.9875
2202.74867	3740.2875
2205.67545	3739.2875
2208.60037	3737.7875
2211.52341	3740.0875
2214.44458	3726.9875
2217.36388	3716.5875
2220.28132	3722.6875
2223.1969	3690.1875
2226.11061	3676.9875
2229.02246	3676.9875
2231.93245	3675.5875
2234.84058	3658.4875
2237.74686	3672.3875
2240.65128	3650.6875
2243.55385	3639.3875
2246.45456	3620.2875
2249.35343	3640.8875
2252.25044	3640.2875
2255.14561	3646.1875
2258.03893	3623.6875
2260.93041	3633.8875
2263.82004	3616.4875
2266.70783	3625.6875
2269.59378	3600.9875
2272.4779	3582.0875
2275.36017	3582.7875
2278.24061	3578.3875
2281.11922	3549.7875
2283.996	3553.3875
2286.87094	3532.6875
2289.74405	3546.5875
2292.61534	3543.7875
2295.4848	3543.6875
2298.35243	3538.7875
2301.21824	3515.3875
2304.08223	3521.4875
2306.94439	3526.4875
2309.80474	3509.2875
2312.66327	3497.7875
2315.51999	3516.8875
2318.37489	3505.6875
2321.22797	3506.9875
2324.07925	3487.0875
2326.92871	3479.1875
2329.77637	3471.3875
2332.62222	3470.8875
2335.46626	3459.0875
2338.3085	3458.2875
2341.14893	3457.5875
2343.98756	3463.9875
2346.8244	3447.0875
2349.65943	3444.8875
2352.49267	3430.1875
2355.32411	3444.8875
2358.15376	3435.3875
2360.98161	3423.6875
2363.80768	3443.7875
2366.63195	3436.5875
2369.45444	3413.9875
2372.27514	3421.2875
2375.09405	3430.7875
2377.91118	3423.6875
2380.72652	3413.1875
2383.54009	3388.2875
2386.35187	3396.4875
2389.16188	3388.3875
2391.97011	3376.3875
2394.77657	3380.5875
2397.58125	3353.4875
2400.38416	3340.5875
2403.18529	3341.9875
2405.98466	3349.0875
2408.78226	3345.1875
2411.57809	3329.5875
2414.37216	3318.2875
2417.16446	3317.3875
2419.955	3328.2875
2422.74378	3315.6875
2425.5308	3316.8875
2428.31606	3317.3875
2431.09956	3305.9875
2433.88131	3290.9875
2436.6613	3291.2875
2439.43954	3298.0875
2442.21603	3296.6875
2444.99077	3287.9875
2447.76377	3294.3875
2450.53501	3299.5875
2453.30451	3289.8875
2456.07226	3277.4875
2458.83827	3292.3875
2461.60254	3273.4875
2464.36507	3259.8875
2467.12586	3265.0875
2469.88492	3263.5875
2472.64224	3259.5875
2475.39782	3249.3875
2478.15167	3256.6875
2480.90379	3257.2875
2483.65417	3241.5875
2486.40283	3255.6875
2489.14976	3263.8875
2491.89497	3259.7875
2494.63845	3245.6875
2497.3802	3260.4875
2500.12024	3241.2875
2502.85855	3240.3875
2505.59514	3238.4875
2508.33002	3232.2875
2511.06318	3217.3875
2513.79462	3207.5875
2516.52435	3195.7875
2519.25237	3184.0875
2521.97867	3176.3875
2524.70327	3170.5875
2527.42616	3166.6875
2530.14734	3176.5875
2532.86681	3168.0875
2535.58458	3168.2875
2538.30065	3158.4875
2541.01501	3167.0875
2543.72768	3158.2875
2546.43864	3153.9875
2549.14791	3137.9875
2551.85548	3141.8875
2554.56136	3147.1875
2557.26554	3137.5875
2559.96803	3111.9875
2562.66883	3125.3875
2565.36794	3112.0875
2568.06536	3099.6875
2570.7611	3091.0875
2573.45514	3083.6875
2576.14751	3074.6875
2578.83819	3072.8875
2581.52719	3047.6875
2584.21451	3059.4875
2586.90015	3055.3875
2589.58411	3052.5875
2592.2664	3051.6875
2594.94701	3043.4875
2597.62594	3038.4875
2600.30321	3049.7875
2602.9788	3023.6875
2605.65273	3013.3875
2608.32498	3012.3875
2610.99557	3009.6875
2613.66449	3026.5875
2616.33175	3007.0875
2618.99734	3000.3875
2621.66128	2987.6875
2624.32355	2995.6875
2626.98416	2976.9875
2629.64311	2970.0875
2632.30041	2957.8875
2634.95605	2962.2875
2637.61004	2944.1875
2640.26238	2955.3875
2642.91306	2943.6875
2645.56209	2951.3875
2648.20948	2946.7875
2650.85521	2933.2875
2653.4993	2941.2875
2656.14175	2934.5875
2658.78255	2936.7875
2661.42171	2939.4875
2664.05923	2928.7875
2666.6951	2932.5875
2669.32934	2929.5875
2671.96194	2935.1875
2674.59291	2928.8875
2677.22224	2925.6875
2679.84993	2931.3875
2682.476	2923.9875
2685.10043	2922.9875
2687.72324	2920.6875
2690.34441	2908.0875
2692.96396	2926.1875
2695.58188	2903.0875
2698.19818	2916.1875
2700.81285	2919.1875
2703.4259	2899.5875
2706.03733	2918.0875
2708.64714	2908.1875
2711.25533	2906.8875
2713.86191	2888.9875
2716.46687	2910.6875
2719.07021	2900.2875
2721.67194	2900.3875
2724.27206	2906.9875
2726.87057	2906.3875
2729.46747	2890.2875
2732.06276	2887.9875
2734.65644	2895.0875
2737.24852	2891.5875
2739.83899	2892.8875
2742.42786	2874.9875
2745.01513	2870.9875
2747.60079	2876.3875
2750.18486	2870.7875
2752.76733	2876.2875
2755.3482	2862.3875
2757.92747	2855.1875
2760.50515	2842.4875
2763.08123	2854.0875
2765.65573	2832.1875
2768.22863	2836.9875
2770.79994	2813.7875
2773.36967	2810.4875
2775.9378	2821.3875
2778.50435	2824.0875
2781.06932	2812.5875
2783.6327	2813.9875
2786.1945	2807.6875
2788.75471	2803.4875
2791.31335	2780.8875
2793.87041	2789.0875
2796.42589	2782.4875
2798.97979	2774.3875
2801.53212	2777.0875
2804.08288	2768.0875
2806.63206	2764.1875
2809.17967	2764.3875
2811.72571	2740.2875
2814.27018	2742.5875
2816.81308	2733.6875
2819.35442	2735.0875
2821.89419	2722.1875
2824.43239	2721.1875
2826.96904	2703.8875
2829.50412	2714.6875
2832.03763	2702.9875
2834.56959	2702.8875
2837.1	2696.0875
2839.62884	2688.8875
2842.15613	2684.7875
2844.68186	2672.6875
2847.20604	2688.8875
2849.72867	2674.1875
2852.24974	2666.3875
2854.76927	2667.7875
2857.28724	2659.9875
2859.80367	2663.0875
2862.31855	2651.9875
2864.83189	2650.6875
2867.34368	2646.5875
2869.85393	2664.9875
2872.36264	2638.0875
2874.8698	2649.5875
2877.37543	2663.2875
2879.87952	2634.7875
2882.38207	2633.2875
2884.88308	2645.5875
2887.38256	2618.6875
2889.88051	2619.7875
2892.37692	2631.9875
2894.8718	2610.9875
2897.36515	2624.5875
2899.85698	2613.1875
2902.34727	2607.2875
2904.83604	2616.2875
2907.32328	2629.0875
2909.809	2619.1875
2912.29319	2633.1875
2914.77587	2622.6875
2917.25702	2640.3875
2919.73665	2618.4875
2922.21476	2643.8875
2924.69136	2609.4875
2927.16644	2604.4875
2929.64	2605.1875
2932.11205	2607.3875
2934.58258	2590.0875
2937.05161	2615.2875
2939.51912	2599.4875
2941.98513	2589.6875
2944.44962	2582.2875
2946.91261	2570.9875
2949.37409	2573.8875
2951.83407	2572.0875
2954.29254	2578.2875
2956.74951	2568.4875
2959.20498	2566.0875
2961.65895	2562.8875
2964.11142	2565.2875
2966.56239	2566.6875
2969.01186	2563.7875
2971.45984	2561.8875
2973.90632	2554.6875
2976.35131	2540.5875
2978.7948	2549.4875
2981.23681	2542.0875
2983.67732	2545.4875
2986.11635	2530.1875
2988.55388	2526.1875
2990.98993	2521.1875
2993.4245	2515.6875
2995.85758	2513.0875
2998.28917	2499.4875
3000.71928	2495.2875
3003.14791	2492.4875
3005.57506	2485.7875
3008.00073	2481.1875
3010.42493	2472.9875
3012.84764	2483.6875
3015.26888	2468.3875
3017.68865	2450.7875
3020.10694	2458.0875
3022.52376	2447.8875
3024.9391	2431.2875
3027.35298	2443.5875
3029.76539	2425.4875
3032.17632	2432.7875
3034.5858	2418.0875
3036.9938	2415.5875
3039.40034	2414.1875
3041.80542	2414.3875
3044.20903	2404.9875
3046.61118	2403.8875
3049.01187	2394.3875
3051.4111	2392.6875
3053.80888	2389.5875
3056.20519	2374.4875
3058.60005	2379.5875
3060.99345	2371.6875
3063.3854	2370.0875
3065.7759	2350.2875
3068.16494	2358.3875
3070.55254	2340.2875
3072.93868	2342.0875
3075.32338	2331.3875
3077.70662	2336.1875
3080.08842	2313.7875
3082.46878	2321.1875
3084.84769	2303.6875
3087.22515	2304.2875
3089.60118	2304.1875
3091.97576	2303.6875
3094.3489	2311.0875
3096.72061	2302.4875
3099.09087	2303.4875
3101.4597	2289.6875
3103.82709	2281.0875
3106.19305	2285.4875
3108.55757	2297.4875
3110.92066	2288.0875
3113.28232	2289.8875
3115.64255	2273.2875
3118.00134	2269.8875
3120.35871	2273.4875
3122.71466	2263.4875
3125.06917	2249.1875
3127.42226	2253.9875
3129.77393	2248.3875
3132.12417	2251.4875
3134.47299	2252.3875
3136.82039	2247.5875
3139.16636	2239.8875
3141.51092	2242.6875
3143.85406	2226.0875
3146.19579	2230.1875
3148.53609	2236.7875
3150.87499	2232.2875
3153.21246	2240.1875
3155.54853	2235.8875
3157.88318	2224.0875
3160.21642	2229.4875
3162.54826	2233.0875
3164.87868	2222.7875
3167.2077	2234.3875
3169.5353	2214.1875
3171.86151	2216.8875
3174.18631	2215.5875
3176.5097	2220.8875
3178.83169	2216.3875
3181.15228	2210.9875
3183.47147	2199.4875
3185.78926	2198.6875
3188.10565	2198.7875
3190.42065	2182.7875
3192.73424	2188.2875
3195.04645	2177.3875
3197.35725	2179.0875
3199.66667	2179.8875
3201.97469	2172.8875
3204.28132	2180.0875
3206.58656	2177.7875
3208.8904	2174.5875
3211.19287	2178.3875
3213.49394	2181.0875
3215.79363	2176.9875
3218.09193	2166.8875
3220.38884	2162.7875
3222.68438	2172.6875
3224.97853	2161.7875
3227.2713	2154.1875
3229.56269	2158.2875
3231.8527	2160.9875
3234.14133	2146.7875
3236.42858	2141.5875
3238.71446	2135.5875
3240.99896	2135.1875
3243.28209	2121.8875
3245.56384	2131.2875
3247.84423	2125.3875
3250.12324	2121.0875
3252.40088	2123.6875
3254.67715	2119.0875
3256.95205	2106.3875
3259.22558	2103.3875
3261.49775	2113.1875
3263.76855	2106.3875
3266.03799	2104.4875
3268.30606	2099.1875
3270.57277	2105.9875
3272.83812	2088.3875
3275.10211	2087.5875
3277.36474	2081.0875
3279.62601	2074.3875
3281.88593	2068.0875
3284.14448	2072.1875
3286.40168	2072.3875
3288.65753	2078.2875
3290.91202	2072.3875
3293.16516	2067.5875
3295.41695	2067.4875
3297.66738	2069.8875
3299.91647	2037.6875
3302.16421	2018.9875
3304.4106	1995.9875
3306.65564	1999.6875
3308.89933	1985.4875
3311.14169	1962.9875
3313.38269	1947.3875
3315.62236	1941.6875
3317.86068	1927.6875
3320.09766	1911.7875
3322.3333	1899.6875
3324.5676	1884.0875
3326.80056	1843.3875
3329.03219	1848.0875
3331.26248	0.1875
3333.49143	0.6875
3335.71905	-0.3125
