Data from AgNPs_UA_5uM_CRN_500uM_SU_RamanShift__209__12-04-13-182.txt Node

Date: Thu Aug 04 12:04:13 BST 2022
User: TCL
Spectrometer: QEP01345
Trigger mode: 4
Integration Time (sec): 1.000000E0
Scans to average: 10
Electric dark correction enabled: true
Nonlinearity correction enabled: false
Boxcar width: 0
XAxis mode: Raman Shifts
Number of Pixels in Spectrum: 1044
>>>>>Begin Spectral Data<<<<<
46.04893	-0.8625
50.45542	0.5375
54.85868	1.3375
59.25871	-1.7625
63.6555	-58.3625
68.04907	-39.8625
72.43941	-72.9625
76.82654	-57.4625
81.21044	-55.4625
85.59113	-49.7625
89.96862	-74.6625
94.34289	-55.5625
98.71396	-79.0625
103.08183	-59.4625
107.4465	-50.0625
111.80798	-56.9625
116.16626	-46.3625
120.52136	-73.4625
124.87327	-50.1625
129.222	-61.6625
133.56755	-50.6625
137.90993	-63.1625
142.24913	-53.3625
146.58517	-45.2625
150.91804	-42.1625
155.24774	-30.2625
159.57429	-11.5625
163.89768	-8.6625
168.21792	36.1375
172.53501	55.6375
176.84895	134.4375
181.15975	262.1375
185.46741	415.5375
189.77193	589.7375
194.07331	874.6375
198.37157	1158.0375
202.6667	1425.1375
206.9587	1742.0375
211.24758	2050.2375
215.53334	2373.8375
219.81599	2722.3375
224.09553	3120.3375
228.37195	3538.5375
232.64527	4010.5375
236.91549	4445.3375
241.18261	4803.4375
245.44663	5079.6375
249.70755	5245.0375
253.96539	5359.2375
258.22014	5472.3375
262.4718	5540.0375
266.72039	5577.3375
270.96589	5551.7375
275.20832	5433.7375
279.44768	5349.5375
283.68397	5239.9375
287.91719	5183.4375
292.14735	5224.3375
296.37445	5394.9375
300.59849	5675.4375
304.81948	6016.7375
309.03742	6381.1375
313.25231	6597.5375
317.46415	6559.0375
321.67296	6167.9375
325.87872	5775.2375
330.08145	5588.1375
334.28114	5544.8375
338.47781	5615.4375
342.67145	5732.6375
346.86207	5990.5375
351.04966	6346.5375
355.23424	6714.4375
359.4158	7001.3375
363.59435	7033.3375
367.76989	6973.1375
371.94243	6833.7375
376.11196	6703.3375
380.27849	6630.7375
384.44203	6556.5375
388.60257	6530.7375
392.76012	6528.0375
396.91468	6635.4375
401.06626	6812.5375
405.21485	6821.0375
409.36047	6692.8375
413.50311	6342.7375
417.64277	6068.4375
421.77947	5882.3375
425.9132	5798.7375
430.04396	5778.5375
434.17176	5830.8375
438.2966	5927.9375
442.41849	5995.7375
446.53742	6131.5375
450.6534	6218.8375
454.76644	6274.9375
458.87653	6293.3375
462.98368	6246.7375
467.08789	6184.6375
471.18916	6113.1375
475.2875	6003.9375
479.38291	5887.1375
483.4754	5780.3375
487.56496	5756.7375
491.6516	5720.4375
495.73531	5731.9375
499.81612	5748.5375
503.89401	5831.6375
507.96899	5896.6375
512.04106	5976.5375
516.11023	6091.2375
520.1765	6151.6375
524.23987	6194.1375
528.30034	6179.9375
532.35792	6096.7375
536.41261	6050.4375
540.46441	5970.1375
544.51333	5915.8375
548.55936	5958.5375
552.60252	6069.2375
556.64279	6178.0375
560.6802	6288.6375
564.71473	6415.1375
568.7464	6626.8375
572.7752	6586.3375
576.80114	6289.7375
580.82422	6037.5375
584.84444	5968.7375
588.86181	5933.6375
592.87633	5964.9375
596.888	6080.2375
600.89682	6437.1375
604.9028	7399.1375
608.90594	9477.1375
612.90624	11802.6375
616.90371	10934.3375
620.89834	7884.1375
624.89015	6588.0375
628.87913	6377.4375
632.86528	6548.6375
636.84862	6700.4375
640.82913	6572.7375
644.80683	6216.9375
648.78172	6033.6375
652.75379	6067.4375
656.72306	6288.2375
660.68952	6547.4375
664.65319	6455.0375
668.61405	6230.5375
672.57211	6154.5375
676.52738	6149.5375
680.47986	6047.3375
684.42955	5955.0375
688.37646	5922.1375
692.32058	5919.7375
696.26192	5994.3375
700.20048	6106.6375
704.13626	6133.9375
708.06928	6073.6375
711.99952	6057.6375
715.927	6042.7375
719.85171	6065.9375
723.77365	6123.9375
727.69284	6079.9375
731.60928	6062.9375
735.52295	6042.8375
739.43388	6093.1375
743.34206	6111.7375
747.24749	6135.1375
751.15017	6150.2375
755.05012	6216.4375
758.94733	6592.1375
762.8418	7431.0375
766.73354	8738.6375
770.62254	9738.8375
774.50882	9825.6375
778.39237	9319.6375
782.27321	8396.1375
786.15132	7352.8375
790.02671	6675.9375
793.89938	6303.6375
797.76935	6198.4375
801.6366	6099.4375
805.50115	6056.1375
809.36299	6032.1375
813.22213	6034.1375
817.07857	6053.7375
820.93231	6062.8375
824.78336	6067.5375
828.63172	6084.6375
832.47738	6074.2375
836.32036	6079.9375
840.16066	6058.5375
843.99827	6039.1375
847.8332	6014.2375
851.66546	6042.0375
855.49504	6035.9375
859.32195	6082.8375
863.1462	6069.1375
866.96777	6069.5375
870.78668	6055.5375
874.60293	6080.9375
878.41652	6089.5375
882.22745	6166.2375
886.03573	6209.0375
889.84136	6201.6375
893.64433	6202.2375
897.44466	6169.1375
901.24235	6159.3375
905.0374	6166.7375
908.8298	6116.7375
912.61957	6083.1375
916.40671	6037.3375
920.19121	6083.6375
923.97308	6181.2375
927.75233	6252.6375
931.52895	6302.9375
935.30295	6272.8375
939.07433	6120.3375
942.84309	6005.9375
946.60924	5967.6375
950.37278	5938.3375
954.13371	5934.0375
957.89203	5941.8375
961.64774	5955.0375
965.40086	5937.9375
969.15137	5891.1375
972.89929	5960.3375
976.64461	5922.6375
980.38733	5954.4375
984.12747	5957.5375
987.86502	5973.4375
991.59999	5988.1375
995.33237	6056.3375
999.06217	6134.5375
1002.78939	6209.0375
1006.51404	6343.1375
1010.23611	6443.9375
1013.95561	6483.3375
1017.67255	6504.8375
1021.38692	6454.4375
1025.09872	6405.6375
1028.80796	6328.9375
1032.51465	6326.6375
1036.21877	6335.0375
1039.92035	6349.2375
1043.61937	6402.8375
1047.31584	6455.4375
1051.00976	6484.4375
1054.70114	6488.4375
1058.38998	6487.5375
1062.07627	6502.7375
1065.76003	6528.7375
1069.44126	6588.4375
1073.11995	6672.7375
1076.79611	6801.5375
1080.46974	6949.8375
1084.14085	7126.0375
1087.80943	7244.7375
1091.47549	7268.7375
1095.13903	7196.6375
1098.80005	7086.9375
1102.45857	6960.0375
1106.11456	6928.4375
1109.76805	6891.0375
1113.41903	7001.7375
1117.06751	7179.1375
1120.71348	7439.9375
1124.35696	7802.9375
1127.99793	8095.7375
1131.63641	7912.0375
1135.2724	7534.3375
1138.90589	7250.6375
1142.5369	7041.1375
1146.16542	6917.7375
1149.79145	6813.7375
1153.415	6759.4375
1157.03607	6780.4375
1160.65467	6881.8375
1164.27079	7081.3375
1167.88443	7343.1375
1171.49561	7756.2375
1175.10432	8364.4375
1178.71056	9258.0375
1182.31434	10022.2375
1185.91565	10279.3375
1189.51451	10120.4375
1193.11091	9886.4375
1196.70485	9628.1375
1200.29634	9416.8375
1203.88538	9139.9375
1207.47197	8684.0375
1211.05612	8220.5375
1214.63782	7808.4375
1218.21708	7579.0375
1221.79391	7431.2375
1225.36829	7346.8375
1228.94024	7336.1375
1232.50976	7344.7375
1236.07685	7365.2375
1239.6415	7399.0375
1243.20374	7440.3375
1246.76355	7451.8375
1250.32093	7524.3375
1253.8759	7597.3375
1257.42845	7779.7375
1260.97859	7970.4375
1264.52631	8211.8375
1268.07163	8357.1375
1271.61453	8489.9375
1275.15503	8542.6375
1278.69312	8517.8375
1282.22882	8610.3375
1285.76211	8796.1375
1289.29301	9058.7375
1292.82151	9322.7375
1296.34761	9553.9375
1299.87133	9942.4375
1303.39266	10608.1375
1306.9116	11768.9375
1310.42815	12977.7375
1313.94233	13424.4375
1317.45412	12614.7375
1320.96354	11485.5375
1324.47058	10497.1375
1327.97525	9755.0375
1331.47754	9357.5375
1334.97747	9236.2375
1338.47502	9349.0375
1341.97022	9714.5375
1345.46305	10457.8375
1348.95352	11500.0375
1352.44163	12818.1375
1355.92738	14147.3375
1359.41078	15783.6375
1362.89183	17262.2375
1366.37053	16623.1375
1369.84688	13850.0375
1373.32088	11159.9375
1376.79254	9779.8375
1380.26186	9117.2375
1383.72883	8708.3375
1387.19347	8319.0375
1390.65578	7943.3375
1394.11575	7739.6375
1397.57339	7549.3375
1401.0287	7484.1375
1404.48168	7405.8375
1407.93234	7437.4375
1411.38068	7460.1375
1414.82669	7542.9375
1418.27039	7613.7375
1421.71177	7622.4375
1425.15083	7506.0375
1428.58758	7442.6375
1432.02203	7460.9375
1435.45416	7554.6375
1438.88399	7528.5375
1442.31151	7540.9375
1445.73673	7595.2375
1449.15965	7628.4375
1452.58027	7642.4375
1455.9986	7650.9375
1459.41463	7660.1375
1462.82837	7762.3375
1466.23982	7920.3375
1469.64898	8141.2375
1473.05586	8294.4375
1476.46045	8388.2375
1479.86276	8457.0375
1483.26279	8562.8375
1486.66054	8765.8375
1490.05602	9019.3375
1493.44922	9583.8375
1496.84016	10440.7375
1500.22882	11814.0375
1503.61521	13517.5375
1506.99934	15319.4375
1510.38121	16505.1375
1513.76081	16332.8375
1517.13816	14796.8375
1520.51324	12681.5375
1523.88607	10999.4375
1527.25665	10012.3375
1530.62498	9476.0375
1533.99105	9294.7375
1537.35488	9172.0375
1540.71647	9078.3375
1544.07581	8959.9375
1547.4329	8806.9375
1550.78776	8684.0375
1554.14038	8627.7375
1557.49077	8590.8375
1560.83892	8661.6375
1564.18484	8891.1375
1567.52853	9236.3375
1570.86999	9551.3375
1574.20922	9710.8375
1577.54624	9585.3375
1580.88103	9098.3375
1584.2136	8392.0375
1587.54395	8035.9375
1590.87208	7955.8375
1594.19801	8117.3375
1597.52172	8471.7375
1600.84321	8621.0375
1604.16251	8503.8375
1607.47959	8283.9375
1610.79447	8114.4375
1614.10715	7816.8375
1617.41763	7536.8375
1620.7259	7255.1375
1624.03199	7125.9375
1627.33587	7040.2375
1630.63757	7107.3375
1633.93707	7322.9375
1637.23439	7749.7375
1640.52951	8435.2375
1643.82246	9394.7375
1647.11321	10546.6375
1650.40179	11272.9375
1653.68819	10935.9375
1656.97241	9671.7375
1660.25446	8305.9375
1663.53433	7317.3375
1666.81203	6743.2375
1670.08756	6395.9375
1673.36092	6221.5375
1676.63211	6060.3375
1679.90115	5967.4375
1683.16801	5899.5375
1686.43272	5822.7375
1689.69527	5766.4375
1692.95567	5692.9375
1696.2139	5694.0375
1699.46999	5632.9375
1702.72392	5644.7375
1705.97571	5653.4375
1709.22535	5629.6375
1712.47284	5672.2375
1715.71819	5678.3375
1718.96139	5667.7375
1722.20246	5649.8375
1725.44139	5612.3375
1728.67818	5600.9375
1731.91284	5549.5375
1735.14537	5527.3375
1738.37576	5481.2375
1741.60403	5458.2375
1744.83017	5445.3375
1748.05418	5425.3375
1751.27607	5437.1375
1754.49584	5422.7375
1757.71349	5380.4375
1760.92903	5378.7375
1764.14244	5319.4375
1767.35375	5333.8375
1770.56294	5324.6375
1773.77002	5301.8375
1776.97499	5316.4375
1780.17785	5286.5375
1783.37861	5287.5375
1786.57727	5287.3375
1789.77382	5236.3375
1792.96828	5254.0375
1796.16064	5260.0375
1799.3509	5237.1375
1802.53907	5245.4375
1805.72514	5220.0375
1808.90913	5194.2375
1812.09102	5184.1375
1815.27083	5196.5375
1818.44856	5156.3375
1821.6242	5155.6375
1824.79776	5142.0375
1827.96924	5137.8375
1831.13864	5120.9375
1834.30597	5128.1375
1837.47122	5105.6375
1840.6344	5100.1375
1843.7955	5081.7375
1846.95454	5061.8375
1850.11151	5073.8375
1853.26642	5056.5375
1856.41926	5061.6375
1859.57004	5055.2375
1862.71876	5046.3375
1865.86542	5045.4375
1869.01003	5041.1375
1872.15258	5026.0375
1875.29308	5031.8375
1878.43152	5039.2375
1881.56792	5010.1375
1884.70227	4999.2375
1887.83457	4993.6375
1890.96482	4986.9375
1894.09304	4961.4375
1897.21921	4976.2375
1900.34335	4973.6375
1903.46544	4948.8375
1906.58551	4960.5375
1909.70353	4962.0375
1912.81953	4936.8375
1915.93349	4940.4375
1919.04543	4934.5375
1922.15534	4897.4375
1925.26322	4901.8375
1928.36908	4904.3375
1931.47292	4888.5375
1934.57473	4902.1375
1937.67453	4873.1375
1940.77232	4833.3375
1943.86808	4834.1375
1946.96184	4826.7375
1950.05358	4798.3375
1953.14331	4778.4375
1956.23103	4807.5375
1959.31675	4783.3375
1962.40046	4720.1375
1965.48217	4730.6375
1968.56188	4729.9375
1971.63959	4707.2375
1974.7153	4706.5375
1977.78901	4706.1375
1980.86073	4676.5375
1983.93046	4645.8375
1986.99819	4568.0375
1990.06394	4585.8375
1993.1277	4599.1375
1996.18947	4594.4375
1999.24925	4535.1375
2002.30706	4544.4375
2005.36288	4533.4375
2008.41672	4514.1375
2011.46859	4498.3375
2014.51848	4474.9375
2017.56639	4468.5375
2020.61233	4450.1375
2023.6563	4444.2375
2026.6983	4389.3375
2029.73833	4415.8375
2032.7764	4407.2375
2035.8125	4351.1375
2038.84664	4375.2375
2041.87881	4358.7375
2044.90903	4371.7375
2047.93729	4360.7375
2050.96359	4329.9375
2053.98794	4325.4375
2057.01034	4343.9375
2060.03078	4325.1375
2063.04927	4304.5375
2066.06582	4305.9375
2069.08042	4303.7375
2072.09307	4315.6375
2075.10378	4305.9375
2078.11255	4290.6375
2081.11938	4287.5375
2084.12426	4278.9375
2087.12722	4270.7375
2090.12824	4274.7375
2093.12732	4282.1375
2096.12447	4285.0375
2099.11969	4265.4375
2102.11299	4260.7375
2105.10435	4305.2375
2108.09379	4273.6375
2111.08131	4272.3375
2114.0669	4287.4375
2117.05057	4278.1375
2120.03233	4265.1375
2123.01216	4285.6375
2125.99008	4297.2375
2128.96609	4278.1375
2131.94018	4300.4375
2134.91236	4282.5375
2137.88263	4283.2375
2140.851	4272.3375
2143.81746	4313.3375
2146.78201	4296.7375
2149.74466	4277.2375
2152.7054	4303.4375
2155.66425	4287.3375
2158.6212	4267.8375
2161.57625	4251.4375
2164.52941	4221.6375
2167.48067	4240.2375
2170.43004	4241.6375
2173.37752	4258.6375
2176.32311	4237.9375
2179.26681	4246.2375
2182.20863	4241.4375
2185.14856	4247.0375
2188.08661	4246.6375
2191.02278	4241.5375
2193.95707	4227.0375
2196.88948	4216.0375
2199.82001	4212.5375
2202.74867	4193.3375
2205.67545	4210.6375
2208.60037	4219.3375
2211.52341	4209.6375
2214.44458	4184.5375
2217.36388	4173.5375
2220.28132	4167.8375
2223.1969	4144.8375
2226.11061	4146.8375
2229.02246	4134.5375
2231.93245	4129.6375
2234.84058	4124.5375
2237.74686	4105.0375
2240.65128	4086.8375
2243.55385	4112.1375
2246.45456	4068.4375
2249.35343	4103.1375
2252.25044	4068.4375
2255.14561	4091.1375
2258.03893	4067.0375
2260.93041	4062.5375
2263.82004	4060.4375
2266.70783	4049.9375
2269.59378	4032.1375
2272.4779	4024.9375
2275.36017	4037.0375
2278.24061	3998.5375
2281.11922	3975.3375
2283.996	3990.6375
2286.87094	3971.3375
2289.74405	3976.9375
2292.61534	3951.7375
2295.4848	3964.8375
2298.35243	3940.8375
2301.21824	3935.6375
2304.08223	3954.0375
2306.94439	3953.8375
2309.80474	3954.3375
2312.66327	3942.7375
2315.51999	3921.9375
2318.37489	3915.6375
2321.22797	3896.9375
2324.07925	3907.3375
2326.92871	3883.0375
2329.77637	3867.8375
2332.62222	3854.0375
2335.46626	3842.2375
2338.3085	3841.7375
2341.14893	3853.1375
2343.98756	3859.6375
2346.8244	3835.7375
2349.65943	3834.6375
2352.49267	3850.0375
2355.32411	3847.7375
2358.15376	3834.5375
2360.98161	3843.0375
2363.80768	3835.1375
2366.63195	3821.7375
2369.45444	3831.1375
2372.27514	3838.7375
2375.09405	3832.2375
2377.91118	3800.8375
2380.72652	3791.4375
2383.54009	3783.4375
2386.35187	3789.6375
2389.16188	3765.9375
2391.97011	3761.3375
2394.77657	3746.7375
2397.58125	3744.8375
2400.38416	3747.1375
2403.18529	3725.0375
2405.98466	3712.1375
2408.78226	3720.4375
2411.57809	3694.1375
2414.37216	3695.3375
2417.16446	3699.8375
2419.955	3671.1375
2422.74378	3679.4375
2425.5308	3672.1375
2428.31606	3663.3375
2431.09956	3685.7375
2433.88131	3653.1375
2436.6613	3647.4375
2439.43954	3659.4375
2442.21603	3659.0375
2444.99077	3634.0375
2447.76377	3641.3375
2450.53501	3642.0375
2453.30451	3626.7375
2456.07226	3635.9375
2458.83827	3629.5375
2461.60254	3569.1375
2464.36507	3605.6375
2467.12586	3593.0375
2469.88492	3606.1375
2472.64224	3607.9375
2475.39782	3581.9375
2478.15167	3602.1375
2480.90379	3584.1375
2483.65417	3594.6375
2486.40283	3597.2375
2489.14976	3621.2375
2491.89497	3591.1375
2494.63845	3584.8375
2497.3802	3566.1375
2500.12024	3568.1375
2502.85855	3560.3375
2505.59514	3573.6375
2508.33002	3557.4375
2511.06318	3530.7375
2513.79462	3544.1375
2516.52435	3507.7375
2519.25237	3491.3375
2521.97867	3485.7375
2524.70327	3487.0375
2527.42616	3479.9375
2530.14734	3501.1375
2532.86681	3476.4375
2535.58458	3469.8375
2538.30065	3474.0375
2541.01501	3480.3375
2543.72768	3451.8375
2546.43864	3467.1375
2549.14791	3437.5375
2551.85548	3428.5375
2554.56136	3434.0375
2557.26554	3437.8375
2559.96803	3429.7375
2562.66883	3421.8375
2565.36794	3405.5375
2568.06536	3370.4375
2570.7611	3403.5375
2573.45514	3380.1375
2576.14751	3378.4375
2578.83819	3354.3375
2581.52719	3347.9375
2584.21451	3363.6375
2586.90015	3341.3375
2589.58411	3333.8375
2592.2664	3331.7375
2594.94701	3330.0375
2597.62594	3328.4375
2600.30321	3252.2375
2602.9788	3277.9375
2605.65273	3280.4375
2608.32498	3269.8375
2610.99557	3296.9375
2613.66449	3267.8375
2616.33175	3286.8375
2618.99734	3279.9375
2621.66128	3267.9375
2624.32355	3251.8375
2626.98416	3228.8375
2629.64311	3225.8375
2632.30041	3237.7375
2634.95605	3216.8375
2637.61004	3215.3375
2640.26238	3182.9375
2642.91306	3206.1375
2645.56209	3209.5375
2648.20948	3209.1375
2650.85521	3182.2375
2653.4993	3203.9375
2656.14175	3181.2375
2658.78255	3185.4375
2661.42171	3150.5375
2664.05923	3198.4375
2666.6951	3198.5375
2669.32934	3199.3375
2671.96194	3197.8375
2674.59291	3197.5375
2677.22224	3195.0375
2679.84993	3193.7375
2682.476	3195.2375
2685.10043	3178.4375
2687.72324	3170.2375
2690.34441	3184.0375
2692.96396	3166.3375
2695.58188	3192.6375
2698.19818	3174.1375
2700.81285	3157.8375
2703.4259	3149.8375
2706.03733	3121.3375
2708.64714	3134.6375
2711.25533	3158.1375
2713.86191	3162.1375
2716.46687	3155.7375
2719.07021	3153.0375
2721.67194	3141.0375
2724.27206	3155.9375
2726.87057	3129.4375
2729.46747	3143.1375
2732.06276	3146.0375
2734.65644	3127.3375
2737.24852	3128.1375
2739.83899	3104.1375
2742.42786	3116.7375
2745.01513	3138.6375
2747.60079	3102.7375
2750.18486	3083.5375
2752.76733	3109.7375
2755.3482	3091.0375
2757.92747	3095.4375
2760.50515	3066.8375
2763.08123	3064.1375
2765.65573	3073.0375
2768.22863	3063.5375
2770.79994	3052.4375
2773.36967	3034.2375
2775.9378	3032.9375
2778.50435	3043.7375
2781.06932	3038.6375
2783.6327	3009.0375
2786.1945	3029.2375
2788.75471	3018.6375
2791.31335	3015.8375
2793.87041	3013.2375
2796.42589	2985.9375
2798.97979	2984.7375
2801.53212	2987.8375
2804.08288	3006.5375
2806.63206	2978.8375
2809.17967	2956.4375
2811.72571	2972.6375
2814.27018	2962.5375
2816.81308	2964.7375
2819.35442	2922.2375
2821.89419	2942.8375
2824.43239	2929.8375
2826.96904	2954.9375
2829.50412	2939.6375
2832.03763	2933.5375
2834.56959	2943.6375
2837.1	2905.9375
2839.62884	2909.8375
2842.15613	2917.9375
2844.68186	2919.7375
2847.20604	2896.9375
2849.72867	2893.8375
2852.24974	2886.7375
2854.76927	2865.2375
2857.28724	2818.7375
2859.80367	2881.6375
2862.31855	2881.9375
2864.83189	2867.2375
2867.34368	2882.3375
2869.85393	2886.8375
2872.36264	2854.6375
2874.8698	2862.4375
2877.37543	2868.3375
2879.87952	2859.8375
2882.38207	2845.5375
2884.88308	2839.2375
2887.38256	2836.8375
2889.88051	2836.2375
2892.37692	2834.0375
2894.8718	2814.8375
2897.36515	2837.4375
2899.85698	2822.4375
2902.34727	2825.0375
2904.83604	2827.3375
2907.32328	2851.7375
2909.809	2840.4375
2912.29319	2836.7375
2914.77587	2845.6375
2917.25702	2863.9375
2919.73665	2868.8375
2922.21476	2852.9375
2924.69136	2860.4375
2927.16644	2851.8375
2929.64	2840.6375
2932.11205	2826.2375
2934.58258	2817.3375
2937.05161	2816.7375
2939.51912	2808.1375
2941.98513	2833.0375
2944.44962	2810.4375
2946.91261	2778.4375
2949.37409	2801.8375
2951.83407	2784.7375
2954.29254	2779.6375
2956.74951	2780.6375
2959.20498	2761.0375
2961.65895	2769.3375
2964.11142	2757.2375
2966.56239	2763.8375
2969.01186	2749.8375
2971.45984	2753.3375
2973.90632	2740.3375
2976.35131	2755.4375
2978.7948	2751.5375
2981.23681	2735.2375
2983.67732	2736.8375
2986.11635	2715.9375
2988.55388	2694.1375
2990.98993	2720.5375
2993.4245	2694.8375
2995.85758	2684.7375
2998.28917	2676.3375
3000.71928	2653.2375
3003.14791	2664.3375
3005.57506	2650.6375
3008.00073	2626.1375
3010.42493	2590.2375
3012.84764	2639.1375
3015.26888	2642.0375
3017.68865	2626.1375
3020.10694	2580.9375
3022.52376	2604.1375
3024.9391	2602.2375
3027.35298	2593.9375
3029.76539	2564.8375
3032.17632	2578.5375
3034.5858	2564.7375
3036.9938	2573.4375
3039.40034	2553.0375
3041.80542	2542.9375
3044.20903	2551.1375
3046.61118	2539.5375
3049.01187	2536.6375
3051.4111	2525.1375
3053.80888	2518.4375
3056.20519	2519.2375
3058.60005	2497.2375
3060.99345	2518.4375
3063.3854	2478.0375
3065.7759	2468.7375
3068.16494	2481.4375
3070.55254	2462.2375
3072.93868	2480.0375
3075.32338	2457.1375
3077.70662	2464.3375
3080.08842	2442.0375
3082.46878	2422.8375
3084.84769	2459.5375
3087.22515	2436.5375
3089.60118	2444.2375
3091.97576	2426.5375
3094.3489	2440.5375
3096.72061	2429.8375
3099.09087	2409.5375
3101.4597	2429.8375
3103.82709	2412.5375
3106.19305	2405.6375
3108.55757	2407.1375
3110.92066	2392.4375
3113.28232	2396.4375
3115.64255	2390.4375
3118.00134	2394.4375
3120.35871	2359.9375
3122.71466	2349.7375
3125.06917	2353.2375
3127.42226	2349.1375
3129.77393	2330.9375
3132.12417	2357.0375
3134.47299	2360.9375
3136.82039	2324.9375
3139.16636	2306.6375
3141.51092	2345.7375
3143.85406	2339.0375
3146.19579	2323.5375
3148.53609	2316.4375
3150.87499	2317.4375
3153.21246	2316.6375
3155.54853	2328.0375
3157.88318	2331.7375
3160.21642	2326.3375
3162.54826	2321.9375
3164.87868	2327.3375
3167.2077	2277.9375
3169.5353	2312.7375
3171.86151	2302.0375
3174.18631	2301.2375
3176.5097	2282.2375
3178.83169	2296.7375
3181.15228	2289.7375
3183.47147	2263.7375
3185.78926	2247.9375
3188.10565	2267.8375
3190.42065	2239.3375
3192.73424	2253.1375
3195.04645	2248.6375
3197.35725	2238.9375
3199.66667	2239.0375
3201.97469	2240.9375
3204.28132	2221.1375
3206.58656	2227.9375
3208.8904	2244.0375
3211.19287	2235.1375
3213.49394	2228.5375
3215.79363	2212.9375
3218.09193	2228.3375
3220.38884	2224.3375
3222.68438	2220.9375
3224.97853	2201.2375
3227.2713	2225.3375
3229.56269	2195.7375
3231.8527	2198.6375
3234.14133	2197.1375
3236.42858	2196.0375
3238.71446	2167.6375
3240.99896	2190.9375
3243.28209	2169.9375
3245.56384	2182.9375
3247.84423	2163.8375
3250.12324	2162.6375
3252.40088	2162.3375
3254.67715	2154.4375
3256.95205	2140.3375
3259.22558	2150.7375
3261.49775	2150.8375
3263.76855	2144.3375
3266.03799	2144.3375
3268.30606	2138.1375
3270.57277	2152.2375
3272.83812	2125.5375
3275.10211	2117.4375
3277.36474	2138.4375
3279.62601	2127.8375
3281.88593	2112.1375
3284.14448	2097.6375
3286.40168	2108.8375
3288.65753	2097.0375
3290.91202	2096.1375
3293.16516	2078.8375
3295.41695	2101.2375
3297.66738	2101.8375
3299.91647	2075.3375
3302.16421	2073.2375
3304.4106	2030.6375
3306.65564	2057.5375
3308.89933	2013.3375
3311.14169	2014.4375
3313.38269	1997.3375
3315.62236	1979.0375
3317.86068	1965.2375
3320.09766	1957.5375
3322.3333	1920.5375
3324.5676	1923.4375
3326.80056	1892.3375
3329.03219	1893.6375
3331.26248	0.0375
3333.49143	0.1375
3335.71905	1.1375
