Data from AgNPs_UA_5uM_CRN_500uM_SU_RamanShift__266__12-13-43-193.txt Node

Date: Thu Aug 04 12:13:43 BST 2022
User: TCL
Spectrometer: QEP01345
Trigger mode: 4
Integration Time (sec): 1.000000E0
Scans to average: 10
Electric dark correction enabled: true
Nonlinearity correction enabled: false
Boxcar width: 0
XAxis mode: Raman Shifts
Number of Pixels in Spectrum: 1044
>>>>>Begin Spectral Data<<<<<
46.04893	-0.2125
50.45542	-1.0125
54.85868	-0.1125
59.25871	-0.0125
63.6555	-57.4125
68.04907	-39.7125
72.43941	-71.3125
76.82654	-56.4125
81.21044	-56.8125
85.59113	-48.5125
89.96862	-76.1125
94.34289	-55.6125
98.71396	-79.6125
103.08183	-56.5125
107.4465	-50.9125
111.80798	-55.3125
116.16626	-45.1125
120.52136	-74.1125
124.87327	-49.8125
129.222	-63.5125
133.56755	-50.5125
137.90993	-63.0125
142.24913	-51.9125
146.58517	-44.2125
150.91804	-41.0125
155.24774	-29.6125
159.57429	-12.1125
163.89768	-5.9125
168.21792	37.3875
172.53501	55.0875
176.84895	137.2875
181.15975	264.7875
185.46741	412.8875
189.77193	594.5875
194.07331	880.6875
198.37157	1162.4875
202.6667	1440.7875
206.9587	1758.9875
211.24758	2070.2875
215.53334	2383.6875
219.81599	2736.8875
224.09553	3135.1875
228.37195	3569.7875
232.64527	4030.4875
236.91549	4486.8875
241.18261	4838.0875
245.44663	5096.1875
249.70755	5273.1875
253.96539	5384.0875
258.22014	5496.6875
262.4718	5579.6875
266.72039	5612.5875
270.96589	5575.6875
275.20832	5490.8875
279.44768	5387.8875
283.68397	5276.4875
287.91719	5231.5875
292.14735	5263.0875
296.37445	5437.7875
300.59849	5723.8875
304.81948	6072.0875
309.03742	6456.0875
313.25231	6690.3875
317.46415	6642.8875
321.67296	6261.4875
325.87872	5862.4875
330.08145	5652.0875
334.28114	5599.6875
338.47781	5662.4875
342.67145	5800.0875
346.86207	6024.1875
351.04966	6393.6875
355.23424	6775.7875
359.4158	7043.1875
363.59435	7085.8875
367.76989	6995.6875
371.94243	6893.4875
376.11196	6760.2875
380.27849	6676.1875
384.44203	6596.3875
388.60257	6563.1875
392.76012	6574.9875
396.91468	6692.7875
401.06626	6854.3875
405.21485	6881.0875
409.36047	6714.2875
413.50311	6386.8875
417.64277	6118.0875
421.77947	5897.1875
425.9132	5821.7875
430.04396	5820.1875
434.17176	5847.2875
438.2966	5922.1875
442.41849	6023.5875
446.53742	6136.2875
450.6534	6237.9875
454.76644	6311.0875
458.87653	6310.1875
462.98368	6274.7875
467.08789	6193.7875
471.18916	6096.9875
475.2875	5994.0875
479.38291	5876.0875
483.4754	5793.9875
487.56496	5746.5875
491.6516	5708.1875
495.73531	5737.2875
499.81612	5747.8875
503.89401	5835.4875
507.96899	5885.7875
512.04106	5973.1875
516.11023	6085.9875
520.1765	6160.6875
524.23987	6179.2875
528.30034	6168.2875
532.35792	6093.0875
536.41261	6043.4875
540.46441	5942.2875
544.51333	5874.9875
548.55936	5935.3875
552.60252	6065.5875
556.64279	6173.5875
560.6802	6295.2875
564.71473	6429.9875
568.7464	6620.5875
572.7752	6588.5875
576.80114	6298.8875
580.82422	6050.6875
584.84444	5972.7875
588.86181	5951.8875
592.87633	5963.0875
596.888	6090.7875
600.89682	6467.4875
604.9028	7444.1875
608.90594	9569.3875
612.90624	11920.7875
616.90371	11018.0875
620.89834	7950.4875
624.89015	6559.5875
628.87913	6358.7875
632.86528	6500.7875
636.84862	6687.3875
640.82913	6542.8875
644.80683	6195.5875
648.78172	6015.3875
652.75379	6032.8875
656.72306	6264.1875
660.68952	6501.8875
664.65319	6428.6875
668.61405	6170.8875
672.57211	6118.0875
676.52738	6097.9875
680.47986	6005.9875
684.42955	5917.2875
688.37646	5867.2875
692.32058	5859.8875
696.26192	5950.3875
700.20048	6047.6875
704.13626	6074.4875
708.06928	6034.3875
711.99952	5992.7875
715.927	5980.0875
719.85171	6029.1875
723.77365	6082.9875
727.69284	6027.8875
731.60928	6032.0875
735.52295	5980.6875
739.43388	6029.9875
743.34206	6044.0875
747.24749	6071.0875
751.15017	6086.9875
755.05012	6167.5875
758.94733	6565.4875
762.8418	7418.9875
766.73354	8775.2875
770.62254	9822.5875
774.50882	9920.5875
778.39237	9341.9875
782.27321	8377.6875
786.15132	7335.8875
790.02671	6647.9875
793.89938	6246.6875
797.76935	6132.9875
801.6366	6062.0875
805.50115	5992.5875
809.36299	5980.7875
813.22213	5989.9875
817.07857	5972.4875
820.93231	5961.0875
824.78336	5997.0875
828.63172	6029.6875
832.47738	6004.5875
836.32036	5996.9875
840.16066	5980.6875
843.99827	5956.4875
847.8332	5951.8875
851.66546	5965.5875
855.49504	5953.1875
859.32195	5998.9875
863.1462	5985.5875
866.96777	5976.6875
870.78668	5957.4875
874.60293	5980.7875
878.41652	6024.9875
882.22745	6095.1875
886.03573	6128.5875
889.84136	6107.9875
893.64433	6117.3875
897.44466	6101.7875
901.24235	6113.3875
905.0374	6101.3875
908.8298	6035.0875
912.61957	6030.1875
916.40671	5957.4875
920.19121	6029.6875
923.97308	6118.9875
927.75233	6176.6875
931.52895	6223.4875
935.30295	6212.6875
939.07433	6035.6875
942.84309	5920.9875
946.60924	5871.6875
950.37278	5853.5875
954.13371	5835.7875
957.89203	5846.8875
961.64774	5852.3875
965.40086	5848.4875
969.15137	5830.7875
972.89929	5854.0875
976.64461	5834.7875
980.38733	5850.5875
984.12747	5863.7875
987.86502	5876.1875
991.59999	5913.1875
995.33237	5957.7875
999.06217	6016.6875
1002.78939	6106.2875
1006.51404	6250.7875
1010.23611	6351.9875
1013.95561	6406.3875
1017.67255	6386.9875
1021.38692	6359.8875
1025.09872	6299.2875
1028.80796	6239.5875
1032.51465	6242.1875
1036.21877	6224.5875
1039.92035	6264.7875
1043.61937	6303.4875
1047.31584	6338.8875
1051.00976	6396.0875
1054.70114	6395.1875
1058.38998	6389.5875
1062.07627	6383.0875
1065.76003	6432.9875
1069.44126	6502.9875
1073.11995	6570.8875
1076.79611	6727.9875
1080.46974	6867.3875
1084.14085	7035.0875
1087.80943	7172.4875
1091.47549	7197.6875
1095.13903	7102.4875
1098.80005	6982.4875
1102.45857	6896.5875
1106.11456	6854.5875
1109.76805	6797.5875
1113.41903	6931.7875
1117.06751	7098.3875
1120.71348	7392.0875
1124.35696	7776.2875
1127.99793	8036.5875
1131.63641	7872.3875
1135.2724	7470.7875
1138.90589	7156.2875
1142.5369	6962.3875
1146.16542	6853.2875
1149.79145	6737.4875
1153.415	6694.4875
1157.03607	6715.6875
1160.65467	6791.5875
1164.27079	7030.6875
1167.88443	7298.9875
1171.49561	7703.2875
1175.10432	8366.7875
1178.71056	9301.7875
1182.31434	10118.5875
1185.91565	10342.9875
1189.51451	10206.3875
1193.11091	9977.8875
1196.70485	9671.8875
1200.29634	9457.2875
1203.88538	9129.2875
1207.47197	8703.5875
1211.05612	8184.6875
1214.63782	7765.6875
1218.21708	7517.7875
1221.79391	7348.4875
1225.36829	7273.7875
1228.94024	7272.3875
1232.50976	7276.6875
1236.07685	7335.0875
1239.6415	7342.0875
1243.20374	7362.2875
1246.76355	7402.2875
1250.32093	7476.9875
1253.8759	7513.9875
1257.42845	7711.0875
1260.97859	7900.2875
1264.52631	8155.1875
1268.07163	8332.6875
1271.61453	8454.3875
1275.15503	8498.2875
1278.69312	8530.6875
1282.22882	8567.8875
1285.76211	8771.3875
1289.29301	9028.0875
1292.82151	9293.6875
1296.34761	9513.2875
1299.87133	9923.3875
1303.39266	10662.6875
1306.9116	11799.8875
1310.42815	13066.3875
1313.94233	13515.8875
1317.45412	12711.0875
1320.96354	11547.8875
1324.47058	10526.0875
1327.97525	9764.2875
1331.47754	9351.9875
1334.97747	9227.1875
1338.47502	9348.1875
1341.97022	9706.7875
1345.46305	10468.8875
1348.95352	11574.4875
1352.44163	12937.5875
1355.92738	14341.4875
1359.41078	16079.7875
1362.89183	17636.2875
1366.37053	17004.4875
1369.84688	14071.4875
1373.32088	11308.5875
1376.79254	9846.0875
1380.26186	9148.3875
1383.72883	8701.7875
1387.19347	8291.4875
1390.65578	7928.6875
1394.11575	7680.9875
1397.57339	7509.6875
1401.0287	7382.5875
1404.48168	7355.3875
1407.93234	7373.4875
1411.38068	7384.0875
1414.82669	7445.1875
1418.27039	7509.9875
1421.71177	7542.5875
1425.15083	7405.6875
1428.58758	7342.9875
1432.02203	7359.3875
1435.45416	7445.9875
1438.88399	7423.6875
1442.31151	7429.0875
1445.73673	7480.5875
1449.15965	7536.2875
1452.58027	7569.2875
1455.9986	7565.2875
1459.41463	7568.5875
1462.82837	7666.1875
1466.23982	7857.2875
1469.64898	8111.0875
1473.05586	8223.5875
1476.46045	8349.4875
1479.86276	8409.9875
1483.26279	8533.3875
1486.66054	8718.7875
1490.05602	9037.0875
1493.44922	9617.4875
1496.84016	10499.4875
1500.22882	11911.2875
1503.61521	13720.6875
1506.99934	15535.3875
1510.38121	16787.5875
1513.76081	16614.6875
1517.13816	14977.0875
1520.51324	12801.9875
1523.88607	11063.3875
1527.25665	10041.3875
1530.62498	9528.9875
1533.99105	9324.6875
1537.35488	9212.7875
1540.71647	9103.9875
1544.07581	8966.3875
1547.4329	8805.9875
1550.78776	8691.6875
1554.14038	8594.3875
1557.49077	8572.0875
1560.83892	8651.7875
1564.18484	8920.0875
1567.52853	9239.5875
1570.86999	9570.2875
1574.20922	9742.8875
1577.54624	9608.0875
1580.88103	9072.3875
1584.2136	8383.1875
1587.54395	7991.4875
1590.87208	7897.1875
1594.19801	8053.9875
1597.52172	8416.1875
1600.84321	8586.7875
1604.16251	8420.5875
1607.47959	8230.6875
1610.79447	8036.8875
1614.10715	7756.8875
1617.41763	7462.2875
1620.7259	7182.7875
1624.03199	7041.8875
1627.33587	6948.8875
1630.63757	7000.8875
1633.93707	7226.1875
1637.23439	7646.2875
1640.52951	8347.8875
1643.82246	9330.6875
1647.11321	10531.3875
1650.40179	11274.3875
1653.68819	10918.7875
1656.97241	9695.8875
1660.25446	8277.2875
1663.53433	7228.3875
1666.81203	6623.4875
1670.08756	6268.0875
1673.36092	6097.1875
1676.63211	5940.5875
1679.90115	5871.4875
1683.16801	5776.7875
1686.43272	5672.3875
1689.69527	5628.4875
1692.95567	5580.2875
1696.2139	5575.5875
1699.46999	5503.0875
1702.72392	5519.2875
1705.97571	5533.9875
1709.22535	5508.3875
1712.47284	5541.8875
1715.71819	5553.7875
1718.96139	5548.2875
1722.20246	5519.9875
1725.44139	5485.9875
1728.67818	5463.9875
1731.91284	5418.9875
1735.14537	5379.2875
1738.37576	5345.7875
1741.60403	5331.4875
1744.83017	5297.3875
1748.05418	5297.6875
1751.27607	5300.1875
1754.49584	5266.4875
1757.71349	5220.2875
1760.92903	5227.9875
1764.14244	5174.8875
1767.35375	5205.3875
1770.56294	5173.7875
1773.77002	5165.0875
1776.97499	5172.8875
1780.17785	5143.3875
1783.37861	5149.7875
1786.57727	5145.0875
1789.77382	5089.2875
1792.96828	5119.8875
1796.16064	5114.3875
1799.3509	5093.6875
1802.53907	5116.0875
1805.72514	5061.6875
1808.90913	5067.4875
1812.09102	5044.6875
1815.27083	5040.0875
1818.44856	5035.2875
1821.6242	5022.4875
1824.79776	5009.8875
1827.96924	5006.3875
1831.13864	4968.5875
1834.30597	4977.8875
1837.47122	4966.3875
1840.6344	4944.5875
1843.7955	4921.8875
1846.95454	4926.3875
1850.11151	4948.6875
1853.26642	4916.1875
1856.41926	4915.5875
1859.57004	4913.9875
1862.71876	4894.3875
1865.86542	4892.6875
1869.01003	4898.8875
1872.15258	4877.3875
1875.29308	4908.8875
1878.43152	4895.2875
1881.56792	4870.5875
1884.70227	4848.6875
1887.83457	4871.1875
1890.96482	4829.2875
1894.09304	4819.7875
1897.21921	4824.9875
1900.34335	4833.7875
1903.46544	4817.9875
1906.58551	4821.3875
1909.70353	4823.0875
1912.81953	4806.2875
1915.93349	4795.2875
1919.04543	4779.2875
1922.15534	4760.4875
1925.26322	4773.7875
1928.36908	4742.7875
1931.47292	4753.0875
1934.57473	4758.8875
1937.67453	4713.6875
1940.77232	4681.0875
1943.86808	4696.7875
1946.96184	4701.9875
1950.05358	4664.7875
1953.14331	4630.4875
1956.23103	4653.2875
1959.31675	4610.6875
1962.40046	4558.7875
1965.48217	4603.3875
1968.56188	4584.6875
1971.63959	4574.7875
1974.7153	4568.7875
1977.78901	4560.7875
1980.86073	4525.8875
1983.93046	4498.5875
1986.99819	4430.6875
1990.06394	4423.2875
1993.1277	4458.3875
1996.18947	4434.7875
1999.24925	4399.1875
2002.30706	4412.4875
2005.36288	4392.1875
2008.41672	4364.4875
2011.46859	4335.1875
2014.51848	4346.9875
2017.56639	4330.0875
2020.61233	4303.9875
2023.6563	4297.0875
2026.6983	4264.1875
2029.73833	4262.5875
2032.7764	4274.4875
2035.8125	4237.3875
2038.84664	4236.6875
2041.87881	4226.0875
2044.90903	4225.7875
2047.93729	4217.3875
2050.96359	4201.1875
2053.98794	4207.6875
2057.01034	4205.1875
2060.03078	4166.2875
2063.04927	4178.7875
2066.06582	4163.9875
2069.08042	4163.9875
2072.09307	4163.6875
2075.10378	4172.4875
2078.11255	4160.2875
2081.11938	4139.9875
2084.12426	4142.0875
2087.12722	4151.1875
2090.12824	4139.4875
2093.12732	4152.4875
2096.12447	4161.2875
2099.11969	4133.7875
2102.11299	4129.6875
2105.10435	4144.9875
2108.09379	4152.6875
2111.08131	4132.5875
2114.0669	4140.4875
2117.05057	4145.7875
2120.03233	4136.5875
2123.01216	4155.5875
2125.99008	4171.3875
2128.96609	4143.8875
2131.94018	4165.3875
2134.91236	4166.6875
2137.88263	4161.1875
2140.851	4154.2875
2143.81746	4183.1875
2146.78201	4161.9875
2149.74466	4147.7875
2152.7054	4151.6875
2155.66425	4130.3875
2158.6212	4131.9875
2161.57625	4119.0875
2164.52941	4089.5875
2167.48067	4101.9875
2170.43004	4102.1875
2173.37752	4120.4875
2176.32311	4102.8875
2179.26681	4118.1875
2182.20863	4114.3875
2185.14856	4118.4875
2188.08661	4103.4875
2191.02278	4110.1875
2193.95707	4094.0875
2196.88948	4089.7875
2199.82001	4080.2875
2202.74867	4079.5875
2205.67545	4074.5875
2208.60037	4085.5875
2211.52341	4070.4875
2214.44458	4050.9875
2217.36388	4033.7875
2220.28132	4039.3875
2223.1969	4014.7875
2226.11061	4021.2875
2229.02246	4006.4875
2231.93245	3995.6875
2234.84058	3987.8875
2237.74686	3973.8875
2240.65128	3959.9875
2243.55385	3971.5875
2246.45456	3964.9875
2249.35343	3969.4875
2252.25044	3942.6875
2255.14561	3947.5875
2258.03893	3952.3875
2260.93041	3935.0875
2263.82004	3928.9875
2266.70783	3912.1875
2269.59378	3896.7875
2272.4779	3888.2875
2275.36017	3900.3875
2278.24061	3881.4875
2281.11922	3841.5875
2283.996	3860.3875
2286.87094	3835.3875
2289.74405	3845.0875
2292.61534	3831.6875
2295.4848	3830.1875
2298.35243	3827.2875
2301.21824	3810.3875
2304.08223	3807.7875
2306.94439	3806.5875
2309.80474	3806.4875
2312.66327	3802.2875
2315.51999	3788.9875
2318.37489	3783.2875
2321.22797	3757.9875
2324.07925	3764.0875
2326.92871	3760.3875
2329.77637	3733.8875
2332.62222	3743.0875
2335.46626	3699.5875
2338.3085	3707.6875
2341.14893	3731.1875
2343.98756	3730.2875
2346.8244	3707.3875
2349.65943	3701.5875
2352.49267	3709.6875
2355.32411	3715.6875
2358.15376	3704.8875
2360.98161	3710.6875
2363.80768	3698.5875
2366.63195	3705.7875
2369.45444	3699.3875
2372.27514	3702.6875
2375.09405	3718.8875
2377.91118	3673.1875
2380.72652	3684.6875
2383.54009	3669.7875
2386.35187	3681.0875
2389.16188	3646.8875
2391.97011	3645.9875
2394.77657	3614.7875
2397.58125	3626.1875
2400.38416	3618.9875
2403.18529	3587.6875
2405.98466	3586.7875
2408.78226	3591.0875
2411.57809	3565.9875
2414.37216	3559.7875
2417.16446	3572.9875
2419.955	3542.9875
2422.74378	3555.8875
2425.5308	3550.5875
2428.31606	3559.0875
2431.09956	3554.6875
2433.88131	3526.5875
2436.6613	3541.1875
2439.43954	3538.0875
2442.21603	3525.4875
2444.99077	3512.5875
2447.76377	3522.3875
2450.53501	3508.2875
2453.30451	3500.3875
2456.07226	3514.7875
2458.83827	3497.0875
2461.60254	3460.9875
2464.36507	3495.5875
2467.12586	3470.4875
2469.88492	3487.1875
2472.64224	3469.9875
2475.39782	3470.9875
2478.15167	3467.1875
2480.90379	3465.4875
2483.65417	3480.1875
2486.40283	3476.6875
2489.14976	3512.5875
2491.89497	3481.5875
2494.63845	3476.5875
2497.3802	3468.7875
2500.12024	3467.9875
2502.85855	3457.0875
2505.59514	3457.5875
2508.33002	3438.7875
2511.06318	3431.6875
2513.79462	3429.2875
2516.52435	3390.7875
2519.25237	3366.7875
2521.97867	3365.5875
2524.70327	3374.0875
2527.42616	3374.6875
2530.14734	3391.2875
2532.86681	3357.2875
2535.58458	3372.2875
2538.30065	3352.1875
2541.01501	3371.6875
2543.72768	3344.3875
2546.43864	3342.0875
2549.14791	3329.5875
2551.85548	3315.8875
2554.56136	3318.8875
2557.26554	3329.1875
2559.96803	3316.5875
2562.66883	3297.5875
2565.36794	3275.7875
2568.06536	3264.6875
2570.7611	3287.2875
2573.45514	3274.4875
2576.14751	3253.3875
2578.83819	3255.2875
2581.52719	3247.9875
2584.21451	3254.8875
2586.90015	3225.7875
2589.58411	3202.9875
2592.2664	3215.3875
2594.94701	3224.5875
2597.62594	3220.5875
2600.30321	3156.9875
2602.9788	3162.9875
2605.65273	3165.3875
2608.32498	3165.9875
2610.99557	3189.2875
2613.66449	3159.7875
2616.33175	3174.0875
2618.99734	3176.0875
2621.66128	3171.6875
2624.32355	3153.8875
2626.98416	3135.5875
2629.64311	3140.3875
2632.30041	3129.2875
2634.95605	3104.7875
2637.61004	3093.4875
2640.26238	3073.6875
2642.91306	3096.7875
2645.56209	3115.6875
2648.20948	3093.8875
2650.85521	3079.0875
2653.4993	3107.7875
2656.14175	3085.6875
2658.78255	3073.1875
2661.42171	3051.3875
2664.05923	3105.7875
2666.6951	3103.4875
2669.32934	3095.3875
2671.96194	3100.1875
2674.59291	3083.6875
2677.22224	3078.6875
2679.84993	3091.4875
2682.476	3082.3875
2685.10043	3067.6875
2687.72324	3060.3875
2690.34441	3063.8875
2692.96396	3061.1875
2695.58188	3089.2875
2698.19818	3065.7875
2700.81285	3071.6875
2703.4259	3050.4875
2706.03733	3017.5875
2708.64714	3028.1875
2711.25533	3060.5875
2713.86191	3053.4875
2716.46687	3051.5875
2719.07021	3046.4875
2721.67194	3056.0875
2724.27206	3059.4875
2726.87057	3048.1875
2729.46747	3031.1875
2732.06276	3040.9875
2734.65644	3025.1875
2737.24852	3027.1875
2739.83899	3006.8875
2742.42786	3016.2875
2745.01513	3020.6875
2747.60079	2999.0875
2750.18486	2984.2875
2752.76733	2996.5875
2755.3482	2982.9875
2757.92747	2986.2875
2760.50515	2962.5875
2763.08123	2963.7875
2765.65573	2957.4875
2768.22863	2953.6875
2770.79994	2940.0875
2773.36967	2931.3875
2775.9378	2929.5875
2778.50435	2936.1875
2781.06932	2933.1875
2783.6327	2918.4875
2786.1945	2937.3875
2788.75471	2920.1875
2791.31335	2915.2875
2793.87041	2920.2875
2796.42589	2892.6875
2798.97979	2881.7875
2801.53212	2879.9875
2804.08288	2891.1875
2806.63206	2867.3875
2809.17967	2864.6875
2811.72571	2874.7875
2814.27018	2860.2875
2816.81308	2867.2875
2819.35442	2820.8875
2821.89419	2840.5875
2824.43239	2825.5875
2826.96904	2840.2875
2829.50412	2821.5875
2832.03763	2830.0875
2834.56959	2834.4875
2837.1	2814.3875
2839.62884	2838.0875
2842.15613	2818.3875
2844.68186	2819.1875
2847.20604	2793.3875
2849.72867	2785.2875
2852.24974	2794.7875
2854.76927	2768.9875
2857.28724	2730.5875
2859.80367	2797.2875
2862.31855	2792.9875
2864.83189	2779.0875
2867.34368	2784.1875
2869.85393	2800.2875
2872.36264	2764.0875
2874.8698	2759.4875
2877.37543	2755.8875
2879.87952	2757.7875
2882.38207	2741.6875
2884.88308	2754.7875
2887.38256	2763.5875
2889.88051	2744.2875
2892.37692	2753.1875
2894.8718	2730.6875
2897.36515	2744.5875
2899.85698	2747.6875
2902.34727	2736.5875
2904.83604	2742.5875
2907.32328	2756.0875
2909.809	2757.7875
2912.29319	2746.9875
2914.77587	2770.5875
2917.25702	2776.3875
2919.73665	2778.8875
2922.21476	2784.6875
2924.69136	2780.0875
2927.16644	2752.8875
2929.64	2752.8875
2932.11205	2736.1875
2934.58258	2744.3875
2937.05161	2720.9875
2939.51912	2738.7875
2941.98513	2739.3875
2944.44962	2713.6875
2946.91261	2700.0875
2949.37409	2698.1875
2951.83407	2711.0875
2954.29254	2710.5875
2956.74951	2697.5875
2959.20498	2673.2875
2961.65895	2665.9875
2964.11142	2683.4875
2966.56239	2672.0875
2969.01186	2666.0875
2971.45984	2668.0875
2973.90632	2639.3875
2976.35131	2656.3875
2978.7948	2643.4875
2981.23681	2649.9875
2983.67732	2647.5875
2986.11635	2630.7875
2988.55388	2612.2875
2990.98993	2608.1875
2993.4245	2603.7875
2995.85758	2589.7875
2998.28917	2587.3875
3000.71928	2595.9875
3003.14791	2568.0875
3005.57506	2564.9875
3008.00073	2549.9875
3010.42493	2493.8875
3012.84764	2557.7875
3015.26888	2557.7875
3017.68865	2540.1875
3020.10694	2493.9875
3022.52376	2519.6875
3024.9391	2509.7875
3027.35298	2500.2875
3029.76539	2491.6875
3032.17632	2498.3875
3034.5858	2481.9875
3036.9938	2491.5875
3039.40034	2491.9875
3041.80542	2459.7875
3044.20903	2457.7875
3046.61118	2447.7875
3049.01187	2458.2875
3051.4111	2437.6875
3053.80888	2443.3875
3056.20519	2442.5875
3058.60005	2416.6875
3060.99345	2444.4875
3063.3854	2407.0875
3065.7759	2400.0875
3068.16494	2391.9875
3070.55254	2376.6875
3072.93868	2394.4875
3075.32338	2378.4875
3077.70662	2369.7875
3080.08842	2368.7875
3082.46878	2352.1875
3084.84769	2368.5875
3087.22515	2354.8875
3089.60118	2363.9875
3091.97576	2344.5875
3094.3489	2353.4875
3096.72061	2343.9875
3099.09087	2333.3875
3101.4597	2343.6875
3103.82709	2330.4875
3106.19305	2326.9875
3108.55757	2331.4875
3110.92066	2304.3875
3113.28232	2339.4875
3115.64255	2317.8875
3118.00134	2312.1875
3120.35871	2287.4875
3122.71466	2275.9875
3125.06917	2286.3875
3127.42226	2270.6875
3129.77393	2262.3875
3132.12417	2274.0875
3134.47299	2277.7875
3136.82039	2267.5875
3139.16636	2229.7875
3141.51092	2263.6875
3143.85406	2257.2875
3146.19579	2230.3875
3148.53609	2243.0875
3150.87499	2248.5875
3153.21246	2243.5875
3155.54853	2244.2875
3157.88318	2244.0875
3160.21642	2251.8875
3162.54826	2236.8875
3164.87868	2247.4875
3167.2077	2198.3875
3169.5353	2227.1875
3171.86151	2226.8875
3174.18631	2226.6875
3176.5097	2215.1875
3178.83169	2224.8875
3181.15228	2218.2875
3183.47147	2187.1875
3185.78926	2175.3875
3188.10565	2185.0875
3190.42065	2163.2875
3192.73424	2167.9875
3195.04645	2166.1875
3197.35725	2146.6875
3199.66667	2168.4875
3201.97469	2158.3875
3204.28132	2148.3875
3206.58656	2157.6875
3208.8904	2167.9875
3211.19287	2150.7875
3213.49394	2144.1875
3215.79363	2149.0875
3218.09193	2157.6875
3220.38884	2148.5875
3222.68438	2144.4875
3224.97853	2124.9875
3227.2713	2147.7875
3229.56269	2132.9875
3231.8527	2128.5875
3234.14133	2122.6875
3236.42858	2127.6875
3238.71446	2094.9875
3240.99896	2109.4875
3243.28209	2087.9875
3245.56384	2108.6875
3247.84423	2093.7875
3250.12324	2097.7875
3252.40088	2088.0875
3254.67715	2078.0875
3256.95205	2071.4875
3259.22558	2088.0875
3261.49775	2070.4875
3263.76855	2069.4875
3266.03799	2070.3875
3268.30606	2077.9875
3270.57277	2071.4875
3272.83812	2055.8875
3275.10211	2055.0875
3277.36474	2066.4875
3279.62601	2061.4875
3281.88593	2034.3875
3284.14448	2019.9875
3286.40168	2036.4875
3288.65753	2019.4875
3290.91202	2026.0875
3293.16516	2005.3875
3295.41695	2032.9875
3297.66738	2032.3875
3299.91647	1994.5875
3302.16421	2009.0875
3304.4106	1971.4875
3306.65564	1985.3875
3308.89933	1953.7875
3311.14169	1946.3875
3313.38269	1935.5875
3315.62236	1920.9875
3317.86068	1906.7875
3320.09766	1898.2875
3322.3333	1872.0875
3324.5676	1861.8875
3326.80056	1832.1875
3329.03219	1818.6875
3331.26248	-0.2125
3333.49143	0.5875
3335.71905	0.3875
