Data from AgNPs_UA_50uM_CRN_500uM_SU_RamanShift__4__13-56-30-314.txt Node

Date: Thu Aug 04 13:56:30 BST 2022
User: TCL
Spectrometer: QEP01345
Trigger mode: 4
Integration Time (sec): 1.000000E0
Scans to average: 10
Electric dark correction enabled: true
Nonlinearity correction enabled: false
Boxcar width: 0
XAxis mode: Raman Shifts
Number of Pixels in Spectrum: 1044
>>>>>Begin Spectral Data<<<<<
46.04893	0.5875
50.45542	-0.7125
54.85868	0.1875
59.25871	-0.6125
63.6555	15.0875
68.04907	12.9875
72.43941	15.3875
76.82654	15.5875
81.21044	16.1875
85.59113	21.1875
89.96862	17.3875
94.34289	18.9875
98.71396	20.4875
103.08183	19.8875
107.4465	15.9875
111.80798	19.9875
116.16626	20.2875
120.52136	21.4875
124.87327	23.3875
129.222	25.1875
133.56755	28.6875
137.90993	30.4875
142.24913	30.1875
146.58517	36.8875
150.91804	43.9875
155.24774	51.8875
159.57429	66.4875
163.89768	86.9875
168.21792	116.2875
172.53501	158.1875
176.84895	222.5875
181.15975	317.2875
185.46741	448.9875
189.77193	619.6875
194.07331	834.4875
198.37157	1082.4875
202.6667	1340.3875
206.9587	1610.1875
211.24758	1871.9875
215.53334	2137.7875
219.81599	2445.4875
224.09553	2774.4875
228.37195	3131.0875
232.64527	3529.0875
236.91549	3923.5875
241.18261	4249.8875
245.44663	4477.5875
249.70755	4652.8875
253.96539	4803.8875
258.22014	4927.6875
262.4718	5044.1875
266.72039	5130.6875
270.96589	5144.0875
275.20832	5091.8875
279.44768	5001.7875
283.68397	4912.8875
287.91719	4864.3875
292.14735	4874.7875
296.37445	5007.7875
300.59849	5221.4875
304.81948	5494.1875
309.03742	5780.7875
313.25231	5952.7875
317.46415	5883.0875
321.67296	5605.5875
325.87872	5262.5875
330.08145	5101.2875
334.28114	5074.1875
338.47781	5132.4875
342.67145	5250.6875
346.86207	5434.6875
351.04966	5717.0875
355.23424	5964.5875
359.4158	6149.0875
363.59435	6206.6875
367.76989	6180.9875
371.94243	6126.8875
376.11196	6046.0875
380.27849	5993.6875
384.44203	5940.2875
388.60257	5943.6875
392.76012	5977.7875
396.91468	6065.5875
401.06626	6179.9875
405.21485	6208.4875
409.36047	6058.9875
413.50311	5775.9875
417.64277	5551.3875
421.77947	5405.2875
425.9132	5353.2875
430.04396	5351.7875
434.17176	5399.8875
438.2966	5476.2875
442.41849	5556.5875
446.53742	5685.9875
450.6534	5781.6875
454.76644	5818.8875
458.87653	5837.7875
462.98368	5804.5875
467.08789	5755.9875
471.18916	5678.1875
475.2875	5521.6875
479.38291	5424.9875
483.4754	5353.8875
487.56496	5315.9875
491.6516	5284.6875
495.73531	5284.7875
499.81612	5284.8875
503.89401	5357.6875
507.96899	5384.5875
512.04106	5453.5875
516.11023	5526.7875
520.1765	5595.7875
524.23987	5605.6875
528.30034	5620.0875
532.35792	5593.5875
536.41261	5520.0875
540.46441	5415.1875
544.51333	5384.7875
548.55936	5420.2875
552.60252	5531.1875
556.64279	5628.2875
560.6802	5679.7875
564.71473	5786.4875
568.7464	5925.2875
572.7752	5907.1875
576.80114	5702.4875
580.82422	5536.0875
584.84444	5466.6875
588.86181	5453.3875
592.87633	5471.1875
596.888	5576.8875
600.89682	5882.8875
604.9028	6679.9875
608.90594	8474.7875
612.90624	10351.0875
616.90371	9491.2875
620.89834	6926.4875
624.89015	5827.1875
628.87913	5690.9875
632.86528	5838.4875
636.84862	5927.9875
640.82913	5818.3875
644.80683	5575.7875
648.78172	5421.0875
652.75379	5440.9875
656.72306	5640.1875
660.68952	5815.6875
664.65319	5746.0875
668.61405	5513.5875
672.57211	5487.0875
676.52738	5475.1875
680.47986	5429.4875
684.42955	5341.0875
688.37646	5313.2875
692.32058	5317.0875
696.26192	5407.9875
700.20048	5507.2875
704.13626	5535.4875
708.06928	5506.9875
711.99952	5434.4875
715.927	5422.9875
719.85171	5466.1875
723.77365	5487.6875
727.69284	5436.4875
731.60928	5393.4875
735.52295	5391.5875
739.43388	5411.9875
743.34206	5427.9875
747.24749	5451.3875
751.15017	5438.3875
755.05012	5516.1875
758.94733	5810.3875
762.8418	6497.0875
766.73354	7544.5875
770.62254	8338.0875
774.50882	8442.4875
778.39237	7938.5875
782.27321	7104.9875
786.15132	6296.3875
790.02671	5797.3875
793.89938	5530.7875
797.76935	5421.0875
801.6366	5372.3875
805.50115	5337.0875
809.36299	5333.5875
813.22213	5299.8875
817.07857	5287.7875
820.93231	5296.1875
824.78336	5315.2875
828.63172	5324.5875
832.47738	5368.3875
836.32036	5308.0875
840.16066	5303.5875
843.99827	5282.2875
847.8332	5271.7875
851.66546	5301.6875
855.49504	5299.9875
859.32195	5320.9875
863.1462	5291.3875
866.96777	5299.2875
870.78668	5300.5875
874.60293	5310.4875
878.41652	5321.3875
882.22745	5374.3875
886.03573	5415.3875
889.84136	5390.3875
893.64433	5387.5875
897.44466	5369.2875
901.24235	5357.6875
905.0374	5332.7875
908.8298	5316.6875
912.61957	5289.4875
916.40671	5305.5875
920.19121	5327.9875
923.97308	5385.8875
927.75233	5458.3875
931.52895	5509.3875
935.30295	5430.9875
939.07433	5309.5875
942.84309	5215.3875
946.60924	5189.3875
950.37278	5174.3875
954.13371	5161.1875
957.89203	5162.7875
961.64774	5159.7875
965.40086	5141.3875
969.15137	5142.4875
972.89929	5124.5875
976.64461	5133.6875
980.38733	5134.8875
984.12747	5135.4875
987.86502	5172.4875
991.59999	5197.7875
995.33237	5270.8875
999.06217	5344.3875
1002.78939	5455.6875
1006.51404	5600.7875
1010.23611	5710.8875
1013.95561	5740.1875
1017.67255	5743.3875
1021.38692	5686.9875
1025.09872	5608.8875
1028.80796	5516.5875
1032.51465	5496.2875
1036.21877	5507.2875
1039.92035	5548.0875
1043.61937	5577.7875
1047.31584	5594.9875
1051.00976	5589.8875
1054.70114	5577.3875
1058.38998	5547.9875
1062.07627	5586.1875
1065.76003	5624.2875
1069.44126	5719.2875
1073.11995	5851.1875
1076.79611	6002.9875
1080.46974	6115.4875
1084.14085	6216.2875
1087.80943	6316.6875
1091.47549	6365.0875
1095.13903	6347.7875
1098.80005	6232.5875
1102.45857	6111.8875
1106.11456	5988.3875
1109.76805	5936.1875
1113.41903	5962.4875
1117.06751	6095.2875
1120.71348	6284.5875
1124.35696	6579.8875
1127.99793	6753.9875
1131.63641	6638.3875
1135.2724	6358.3875
1138.90589	6127.0875
1142.5369	6048.7875
1146.16542	6017.5875
1149.79145	5988.4875
1153.415	5899.5875
1157.03607	5803.9875
1160.65467	5857.6875
1164.27079	5975.9875
1167.88443	6166.2875
1171.49561	6486.9875
1175.10432	7019.8875
1178.71056	7763.9875
1182.31434	8376.9875
1185.91565	8550.0875
1189.51451	8397.1875
1193.11091	8161.3875
1196.70485	7899.0875
1200.29634	7711.7875
1203.88538	7478.7875
1207.47197	7192.3875
1211.05612	6927.7875
1214.63782	6736.3875
1218.21708	6552.7875
1221.79391	6391.5875
1225.36829	6275.4875
1228.94024	6245.4875
1232.50976	6221.3875
1236.07685	6224.5875
1239.6415	6210.0875
1243.20374	6260.1875
1246.76355	6306.6875
1250.32093	6390.4875
1253.8759	6565.6875
1257.42845	6826.9875
1260.97859	7030.4875
1264.52631	7222.1875
1268.07163	7349.7875
1271.61453	7402.4875
1275.15503	7439.8875
1278.69312	7446.3875
1282.22882	7441.3875
1285.76211	7576.6875
1289.29301	7750.1875
1292.82151	7943.2875
1296.34761	8129.7875
1299.87133	8450.4875
1303.39266	9010.3875
1306.9116	9851.0875
1310.42815	10732.8875
1313.94233	10971.4875
1317.45412	10425.7875
1320.96354	9628.7875
1324.47058	8909.7875
1327.97525	8276.5875
1331.47754	7917.0875
1334.97747	7831.7875
1338.47502	7968.3875
1341.97022	8335.7875
1345.46305	8916.0875
1348.95352	9743.8875
1352.44163	10620.6875
1355.92738	11601.4875
1359.41078	12926.2875
1362.89183	13962.8875
1366.37053	13319.1875
1369.84688	11172.4875
1373.32088	9185.8875
1376.79254	8073.4875
1380.26186	7581.7875
1383.72883	7296.1875
1387.19347	7019.3875
1390.65578	6768.8875
1394.11575	6569.0875
1397.57339	6437.6875
1401.0287	6327.9875
1404.48168	6268.2875
1407.93234	6275.4875
1411.38068	6341.7875
1414.82669	6431.0875
1418.27039	6442.0875
1421.71177	6433.6875
1425.15083	6345.3875
1428.58758	6333.3875
1432.02203	6358.2875
1435.45416	6454.3875
1438.88399	6501.4875
1442.31151	6530.1875
1445.73673	6595.2875
1449.15965	6631.9875
1452.58027	6602.6875
1455.9986	6541.1875
1459.41463	6516.5875
1462.82837	6570.6875
1466.23982	6713.6875
1469.64898	6883.4875
1473.05586	6980.7875
1476.46045	7030.7875
1479.86276	7086.0875
1483.26279	7169.1875
1486.66054	7327.4875
1490.05602	7594.1875
1493.44922	7981.1875
1496.84016	8651.2875
1500.22882	9680.8875
1503.61521	10977.1875
1506.99934	12322.1875
1510.38121	13118.5875
1513.76081	12975.0875
1517.13816	11780.6875
1520.51324	10255.9875
1523.88607	9027.1875
1527.25665	8265.8875
1530.62498	7871.8875
1533.99105	7685.6875
1537.35488	7591.7875
1540.71647	7529.2875
1544.07581	7492.0875
1547.4329	7427.9875
1550.78776	7338.7875
1554.14038	7252.3875
1557.49077	7218.1875
1560.83892	7276.9875
1564.18484	7469.7875
1567.52853	7766.4875
1570.86999	7992.0875
1574.20922	8032.9875
1577.54624	7896.5875
1580.88103	7487.2875
1584.2136	7003.9875
1587.54395	6730.9875
1590.87208	6683.1875
1594.19801	6915.3875
1597.52172	7234.3875
1600.84321	7387.0875
1604.16251	7355.6875
1607.47959	7200.2875
1610.79447	6965.3875
1614.10715	6589.5875
1617.41763	6229.5875
1620.7259	5981.1875
1624.03199	5835.1875
1627.33587	5804.3875
1630.63757	5870.1875
1633.93707	6080.0875
1637.23439	6476.5875
1640.52951	7040.4875
1643.82246	7903.6875
1647.11321	8861.8875
1650.40179	9411.0875
1653.68819	9036.4875
1656.97241	7976.0875
1660.25446	6846.2875
1663.53433	6044.7875
1666.81203	5565.8875
1670.08756	5310.2875
1673.36092	5133.5875
1676.63211	5005.4875
1679.90115	4921.3875
1683.16801	4877.0875
1686.43272	4831.6875
1689.69527	4808.3875
1692.95567	4768.2875
1696.2139	4759.3875
1699.46999	4747.7875
1702.72392	4743.6875
1705.97571	4746.0875
1709.22535	4730.5875
1712.47284	4727.5875
1715.71819	4740.5875
1718.96139	4717.3875
1722.20246	4704.2875
1725.44139	4705.0875
1728.67818	4649.4875
1731.91284	4634.9875
1735.14537	4598.1875
1738.37576	4587.2875
1741.60403	4581.1875
1744.83017	4556.4875
1748.05418	4560.2875
1751.27607	4538.0875
1754.49584	4527.9875
1757.71349	4526.0875
1760.92903	4514.6875
1764.14244	4504.6875
1767.35375	4505.4875
1770.56294	4478.6875
1773.77002	4477.9875
1776.97499	4470.4875
1780.17785	4449.9875
1783.37861	4452.3875
1786.57727	4419.6875
1789.77382	4400.5875
1792.96828	4394.7875
1796.16064	4396.6875
1799.3509	4390.7875
1802.53907	4394.6875
1805.72514	4374.6875
1808.90913	4351.4875
1812.09102	4353.1875
1815.27083	4320.9875
1818.44856	4333.1875
1821.6242	4311.2875
1824.79776	4315.8875
1827.96924	4294.4875
1831.13864	4268.2875
1834.30597	4293.5875
1837.47122	4279.2875
1840.6344	4268.7875
1843.7955	4272.3875
1846.95454	4256.2875
1850.11151	4262.0875
1853.26642	4264.6875
1856.41926	4258.8875
1859.57004	4260.4875
1862.71876	4266.4875
1865.86542	4249.2875
1869.01003	4242.1875
1872.15258	4243.7875
1875.29308	4248.7875
1878.43152	4244.6875
1881.56792	4234.0875
1884.70227	4210.3875
1887.83457	4217.9875
1890.96482	4205.7875
1894.09304	4196.1875
1897.21921	4187.0875
1900.34335	4180.9875
1903.46544	4161.6875
1906.58551	4173.7875
1909.70353	4157.4875
1912.81953	4160.1875
1915.93349	4169.9875
1919.04543	4150.8875
1922.15534	4139.7875
1925.26322	4127.7875
1928.36908	4127.3875
1931.47292	4117.1875
1934.57473	4101.0875
1937.67453	4094.0875
1940.77232	4085.2875
1943.86808	4063.0875
1946.96184	4065.5875
1950.05358	4046.9875
1953.14331	4042.3875
1956.23103	4022.6875
1959.31675	4015.1875
1962.40046	3999.2875
1965.48217	3993.9875
1968.56188	3971.1875
1971.63959	3969.9875
1974.7153	3960.4875
1977.78901	3965.4875
1980.86073	3946.2875
1983.93046	3934.9875
1986.99819	3914.8875
1990.06394	3906.2875
1993.1277	3880.9875
1996.18947	3866.5875
1999.24925	3855.1875
2002.30706	3849.0875
2005.36288	3838.4875
2008.41672	3818.1875
2011.46859	3808.8875
2014.51848	3803.5875
2017.56639	3788.6875
2020.61233	3786.7875
2023.6563	3772.5875
2026.6983	3729.8875
2029.73833	3728.9875
2032.7764	3727.5875
2035.8125	3711.8875
2038.84664	3705.0875
2041.87881	3708.9875
2044.90903	3689.5875
2047.93729	3691.4875
2050.96359	3694.9875
2053.98794	3680.6875
2057.01034	3678.1875
2060.03078	3668.1875
2063.04927	3668.6875
2066.06582	3664.3875
2069.08042	3666.4875
2072.09307	3650.4875
2075.10378	3649.1875
2078.11255	3641.6875
2081.11938	3653.6875
2084.12426	3639.7875
2087.12722	3643.1875
2090.12824	3657.0875
2093.12732	3660.4875
2096.12447	3637.8875
2099.11969	3650.3875
2102.11299	3651.1875
2105.10435	3649.6875
2108.09379	3651.1875
2111.08131	3662.1875
2114.0669	3660.2875
2117.05057	3665.1875
2120.03233	3657.7875
2123.01216	3647.4875
2125.99008	3658.6875
2128.96609	3659.5875
2131.94018	3656.4875
2134.91236	3653.8875
2137.88263	3667.2875
2140.851	3664.3875
2143.81746	3662.3875
2146.78201	3669.6875
2149.74466	3653.1875
2152.7054	3665.0875
2155.66425	3657.1875
2158.6212	3666.6875
2161.57625	3647.7875
2164.52941	3644.0875
2167.48067	3650.4875
2170.43004	3658.5875
2173.37752	3644.0875
2176.32311	3652.1875
2179.26681	3644.6875
2182.20863	3650.2875
2185.14856	3649.5875
2188.08661	3646.9875
2191.02278	3650.9875
2193.95707	3628.2875
2196.88948	3634.9875
2199.82001	3636.0875
2202.74867	3619.6875
2205.67545	3617.5875
2208.60037	3633.4875
2211.52341	3619.1875
2214.44458	3613.8875
2217.36388	3605.6875
2220.28132	3588.0875
2223.1969	3571.7875
2226.11061	3554.6875
2229.02246	3561.2875
2231.93245	3574.0875
2234.84058	3553.0875
2237.74686	3539.5875
2240.65128	3551.5875
2243.55385	3537.6875
2246.45456	3524.1875
2249.35343	3529.8875
2252.25044	3532.8875
2255.14561	3520.1875
2258.03893	3528.5875
2260.93041	3517.1875
2263.82004	3515.6875
2266.70783	3516.2875
2269.59378	3497.8875
2272.4779	3489.9875
2275.36017	3476.0875
2278.24061	3454.8875
2281.11922	3453.6875
2283.996	3451.7875
2286.87094	3456.1875
2289.74405	3452.5875
2292.61534	3447.4875
2295.4848	3435.6875
2298.35243	3439.2875
2301.21824	3443.7875
2304.08223	3415.1875
2306.94439	3433.4875
2309.80474	3427.8875
2312.66327	3422.2875
2315.51999	3414.5875
2318.37489	3418.9875
2321.22797	3411.9875
2324.07925	3399.0875
2326.92871	3392.1875
2329.77637	3395.7875
2332.62222	3377.6875
2335.46626	3385.1875
2338.3085	3371.4875
2341.14893	3367.1875
2343.98756	3371.4875
2346.8244	3370.2875
2349.65943	3368.2875
2352.49267	3364.4875
2355.32411	3370.7875
2358.15376	3377.8875
2360.98161	3373.8875
2363.80768	3367.1875
2366.63195	3380.4875
2369.45444	3363.2875
2372.27514	3363.4875
2375.09405	3354.9875
2377.91118	3357.6875
2380.72652	3350.3875
2383.54009	3320.9875
2386.35187	3335.1875
2389.16188	3324.8875
2391.97011	3308.2875
2394.77657	3287.5875
2397.58125	3281.9875
2400.38416	3292.2875
2403.18529	3283.9875
2405.98466	3280.7875
2408.78226	3265.6875
2411.57809	3270.0875
2414.37216	3262.4875
2417.16446	3253.9875
2419.955	3255.4875
2422.74378	3259.4875
2425.5308	3258.3875
2428.31606	3253.5875
2431.09956	3251.1875
2433.88131	3244.6875
2436.6613	3235.3875
2439.43954	3242.3875
2442.21603	3258.5875
2444.99077	3244.4875
2447.76377	3228.0875
2450.53501	3240.8875
2453.30451	3235.3875
2456.07226	3228.2875
2458.83827	3239.5875
2461.60254	3235.5875
2464.36507	3235.6875
2467.12586	3223.4875
2469.88492	3223.9875
2472.64224	3226.8875
2475.39782	3221.0875
2478.15167	3221.7875
2480.90379	3218.4875
2483.65417	3209.0875
2486.40283	3220.2875
2489.14976	3235.2875
2491.89497	3235.1875
2494.63845	3222.3875
2497.3802	3204.5875
2500.12024	3201.3875
2502.85855	3195.3875
2505.59514	3204.9875
2508.33002	3187.9875
2511.06318	3186.7875
2513.79462	3190.5875
2516.52435	3153.3875
2519.25237	3156.4875
2521.97867	3142.5875
2524.70327	3148.4875
2527.42616	3146.3875
2530.14734	3151.7875
2532.86681	3144.6875
2535.58458	3151.0875
2538.30065	3152.3875
2541.01501	3139.3875
2543.72768	3144.5875
2546.43864	3130.3875
2549.14791	3132.1875
2551.85548	3124.6875
2554.56136	3135.8875
2557.26554	3118.4875
2559.96803	3123.3875
2562.66883	3114.4875
2565.36794	3116.0875
2568.06536	3096.1875
2570.7611	3080.4875
2573.45514	3082.1875
2576.14751	3076.3875
2578.83819	3062.7875
2581.52719	3049.6875
2584.21451	3052.7875
2586.90015	3044.8875
2589.58411	3042.7875
2592.2664	3038.9875
2594.94701	3024.0875
2597.62594	3036.8875
2600.30321	3030.7875
2602.9788	3026.8875
2605.65273	3020.0875
2608.32498	3028.4875
2610.99557	3022.3875
2613.66449	3018.5875
2616.33175	3019.2875
2618.99734	3003.9875
2621.66128	3016.7875
2624.32355	2998.0875
2626.98416	2995.4875
2629.64311	2976.6875
2632.30041	2969.9875
2634.95605	2970.6875
2637.61004	2950.8875
2640.26238	2951.3875
2642.91306	2957.4875
2645.56209	2961.8875
2648.20948	2957.0875
2650.85521	2946.0875
2653.4993	2953.3875
2656.14175	2952.6875
2658.78255	2963.9875
2661.42171	2942.7875
2664.05923	2951.1875
2666.6951	2954.7875
2669.32934	2963.5875
2671.96194	2945.4875
2674.59291	2959.6875
2677.22224	2959.7875
2679.84993	2941.6875
2682.476	2943.0875
2685.10043	2927.7875
2687.72324	2945.3875
2690.34441	2946.6875
2692.96396	2938.2875
2695.58188	2934.1875
2698.19818	2959.8875
2700.81285	2943.6875
2703.4259	2946.1875
2706.03733	2944.5875
2708.64714	2946.9875
2711.25533	2921.0875
2713.86191	2944.5875
2716.46687	2936.0875
2719.07021	2933.2875
2721.67194	2935.7875
2724.27206	2931.0875
2726.87057	2915.9875
2729.46747	2931.7875
2732.06276	2926.1875
2734.65644	2921.5875
2737.24852	2918.7875
2739.83899	2915.4875
2742.42786	2919.1875
2745.01513	2904.7875
2747.60079	2926.2875
2750.18486	2912.0875
2752.76733	2906.8875
2755.3482	2890.1875
2757.92747	2892.9875
2760.50515	2874.6875
2763.08123	2888.4875
2765.65573	2871.7875
2768.22863	2869.4875
2770.79994	2867.3875
2773.36967	2867.5875
2775.9378	2855.4875
2778.50435	2847.7875
2781.06932	2844.6875
2783.6327	2856.9875
2786.1945	2844.6875
2788.75471	2845.2875
2791.31335	2837.0875
2793.87041	2837.1875
2796.42589	2837.3875
2798.97979	2826.7875
2801.53212	2825.4875
2804.08288	2825.8875
2806.63206	2814.1875
2809.17967	2801.2875
2811.72571	2807.0875
2814.27018	2792.5875
2816.81308	2795.1875
2819.35442	2792.2875
2821.89419	2780.2875
2824.43239	2761.2875
2826.96904	2769.8875
2829.50412	2766.1875
2832.03763	2753.9875
2834.56959	2746.4875
2837.1	2754.2875
2839.62884	2750.7875
2842.15613	2737.0875
2844.68186	2735.6875
2847.20604	2738.8875
2849.72867	2723.3875
2852.24974	2719.4875
2854.76927	2711.1875
2857.28724	2721.4875
2859.80367	2718.7875
2862.31855	2708.5875
2864.83189	2721.4875
2867.34368	2728.1875
2869.85393	2721.2875
2872.36264	2710.3875
2874.8698	2715.3875
2877.37543	2713.1875
2879.87952	2705.9875
2882.38207	2692.8875
2884.88308	2694.1875
2887.38256	2696.5875
2889.88051	2680.8875
2892.37692	2674.7875
2894.8718	2674.5875
2897.36515	2672.7875
2899.85698	2675.4875
2902.34727	2669.4875
2904.83604	2680.7875
2907.32328	2684.2875
2909.809	2688.0875
2912.29319	2696.2875
2914.77587	2694.2875
2917.25702	2695.0875
2919.73665	2700.1875
2922.21476	2694.6875
2924.69136	2688.9875
2927.16644	2683.7875
2929.64	2681.6875
2932.11205	2668.9875
2934.58258	2655.9875
2937.05161	2669.6875
2939.51912	2664.5875
2941.98513	2657.4875
2944.44962	2648.9875
2946.91261	2641.9875
2949.37409	2641.9875
2951.83407	2640.8875
2954.29254	2636.4875
2956.74951	2632.3875
2959.20498	2647.0875
2961.65895	2632.1875
2964.11142	2624.5875
2966.56239	2623.4875
2969.01186	2628.9875
2971.45984	2624.1875
2973.90632	2630.0875
2976.35131	2622.7875
2978.7948	2597.4875
2981.23681	2604.4875
2983.67732	2598.5875
2986.11635	2593.3875
2988.55388	2595.5875
2990.98993	2589.8875
2993.4245	2570.1875
2995.85758	2573.4875
2998.28917	2575.6875
3000.71928	2567.8875
3003.14791	2563.3875
3005.57506	2563.8875
3008.00073	2541.2875
3010.42493	2551.7875
3012.84764	2541.6875
3015.26888	2535.4875
3017.68865	2530.5875
3020.10694	2529.7875
3022.52376	2510.3875
3024.9391	2510.7875
3027.35298	2501.9875
3029.76539	2497.7875
3032.17632	2490.7875
3034.5858	2489.6875
3036.9938	2481.9875
3039.40034	2480.0875
3041.80542	2471.7875
3044.20903	2470.4875
3046.61118	2470.5875
3049.01187	2452.5875
3051.4111	2451.0875
3053.80888	2446.3875
3056.20519	2436.1875
3058.60005	2439.3875
3060.99345	2438.5875
3063.3854	2426.1875
3065.7759	2419.3875
3068.16494	2427.5875
3070.55254	2414.5875
3072.93868	2408.6875
3075.32338	2396.5875
3077.70662	2385.4875
3080.08842	2384.4875
3082.46878	2379.7875
3084.84769	2376.0875
3087.22515	2363.9875
3089.60118	2383.4875
3091.97576	2366.4875
3094.3489	2371.3875
3096.72061	2366.5875
3099.09087	2370.1875
3101.4597	2363.1875
3103.82709	2360.4875
3106.19305	2355.7875
3108.55757	2357.4875
3110.92066	2352.3875
3113.28232	2338.8875
3115.64255	2342.8875
3118.00134	2343.2875
3120.35871	2329.9875
3122.71466	2314.5875
3125.06917	2302.7875
3127.42226	2318.7875
3129.77393	2309.8875
3132.12417	2306.0875
3134.47299	2304.0875
3136.82039	2292.8875
3139.16636	2301.2875
3141.51092	2297.3875
3143.85406	2285.8875
3146.19579	2297.1875
3148.53609	2292.3875
3150.87499	2288.5875
3153.21246	2285.6875
3155.54853	2300.5875
3157.88318	2286.5875
3160.21642	2288.4875
3162.54826	2294.5875
3164.87868	2293.7875
3167.2077	2288.0875
3169.5353	2275.4875
3171.86151	2284.8875
3174.18631	2287.9875
3176.5097	2277.1875
3178.83169	2264.6875
3181.15228	2274.0875
3183.47147	2258.7875
3185.78926	2254.7875
3188.10565	2244.8875
3190.42065	2254.7875
3192.73424	2245.1875
3195.04645	2241.1875
3197.35725	2241.0875
3199.66667	2228.6875
3201.97469	2232.3875
3204.28132	2236.3875
3206.58656	2238.8875
3208.8904	2237.6875
3211.19287	2230.0875
3213.49394	2241.7875
3215.79363	2230.5875
3218.09193	2235.4875
3220.38884	2233.0875
3222.68438	2233.0875
3224.97853	2223.5875
3227.2713	2235.2875
3229.56269	2216.0875
3231.8527	2215.1875
3234.14133	2208.1875
3236.42858	2203.4875
3238.71446	2208.1875
3240.99896	2191.3875
3243.28209	2197.5875
3245.56384	2187.0875
3247.84423	2193.6875
3250.12324	2179.5875
3252.40088	2192.1875
3254.67715	2166.7875
3256.95205	2166.1875
3259.22558	2174.4875
3261.49775	2172.5875
3263.76855	2163.2875
3266.03799	2174.7875
3268.30606	2172.6875
3270.57277	2174.0875
3272.83812	2165.4875
3275.10211	2142.5875
3277.36474	2148.1875
3279.62601	2137.7875
3281.88593	2137.1875
3284.14448	2142.0875
3286.40168	2132.3875
3288.65753	2138.8875
3290.91202	2140.9875
3293.16516	2117.8875
3295.41695	2123.3875
3297.66738	2113.3875
3299.91647	2094.8875
3302.16421	2090.2875
3304.4106	2070.7875
3306.65564	2071.8875
3308.89933	2047.5875
3311.14169	2037.9875
3313.38269	2003.1875
3315.62236	2011.2875
3317.86068	1987.3875
3320.09766	1966.1875
3322.3333	1960.0875
3324.5676	1945.0875
3326.80056	1910.6875
3329.03219	1900.4875
3331.26248	0.1875
3333.49143	-0.4125
3335.71905	0.5875
