Data from AgNPs_UA_5uM_CRN_500uM_SU_RamanShift__287__12-17-13-197.txt Node

Date: Thu Aug 04 12:17:13 BST 2022
User: TCL
Spectrometer: QEP01345
Trigger mode: 4
Integration Time (sec): 1.000000E0
Scans to average: 10
Electric dark correction enabled: true
Nonlinearity correction enabled: false
Boxcar width: 0
XAxis mode: Raman Shifts
Number of Pixels in Spectrum: 1044
>>>>>Begin Spectral Data<<<<<
46.04893	0.6875
50.45542	-0.3125
54.85868	0.7875
59.25871	-0.5125
63.6555	-57.6125
68.04907	-39.4125
72.43941	-72.0125
76.82654	-55.6125
81.21044	-57.0125
85.59113	-48.8125
89.96862	-74.7125
94.34289	-55.3125
98.71396	-77.5125
103.08183	-57.7125
107.4465	-50.2125
111.80798	-54.7125
116.16626	-43.0125
120.52136	-74.3125
124.87327	-48.9125
129.222	-63.3125
133.56755	-50.4125
137.90993	-61.5125
142.24913	-50.3125
146.58517	-42.8125
150.91804	-39.3125
155.24774	-30.3125
159.57429	-11.4125
163.89768	-6.3125
168.21792	37.5875
172.53501	61.8875
176.84895	142.4875
181.15975	273.2875
185.46741	418.2875
189.77193	599.8875
194.07331	892.2875
198.37157	1179.5875
202.6667	1466.9875
206.9587	1794.2875
211.24758	2106.5875
215.53334	2423.1875
219.81599	2778.1875
224.09553	3201.8875
228.37195	3637.7875
232.64527	4080.4875
236.91549	4564.9875
241.18261	4906.4875
245.44663	5194.5875
249.70755	5363.8875
253.96539	5480.8875
258.22014	5587.7875
262.4718	5664.8875
266.72039	5710.8875
270.96589	5683.1875
275.20832	5589.3875
279.44768	5472.1875
283.68397	5364.0875
287.91719	5318.1875
292.14735	5375.3875
296.37445	5534.2875
300.59849	5837.9875
304.81948	6185.9875
309.03742	6558.5875
313.25231	6809.7875
317.46415	6771.4875
321.67296	6381.5875
325.87872	5965.0875
330.08145	5760.1875
334.28114	5709.6875
338.47781	5756.5875
342.67145	5889.8875
346.86207	6123.8875
351.04966	6518.3875
355.23424	6882.6875
359.4158	7152.8875
363.59435	7183.0875
367.76989	7105.1875
371.94243	6991.8875
376.11196	6890.3875
380.27849	6790.6875
384.44203	6702.7875
388.60257	6674.0875
392.76012	6693.9875
396.91468	6822.9875
401.06626	6962.3875
405.21485	6983.2875
409.36047	6823.7875
413.50311	6499.2875
417.64277	6181.8875
421.77947	5985.1875
425.9132	5905.2875
430.04396	5896.9875
434.17176	5952.9875
438.2966	6044.5875
442.41849	6103.5875
446.53742	6222.1875
450.6534	6326.0875
454.76644	6419.0875
458.87653	6404.1875
462.98368	6360.9875
467.08789	6282.2875
471.18916	6202.7875
475.2875	6074.5875
479.38291	5953.1875
483.4754	5867.0875
487.56496	5824.9875
491.6516	5782.5875
495.73531	5794.3875
499.81612	5830.1875
503.89401	5913.2875
507.96899	5970.2875
512.04106	6055.2875
516.11023	6150.0875
520.1765	6239.6875
524.23987	6273.6875
528.30034	6261.4875
532.35792	6165.5875
536.41261	6105.5875
540.46441	6010.7875
544.51333	5978.9875
548.55936	6018.4875
552.60252	6145.9875
556.64279	6253.0875
560.6802	6366.6875
564.71473	6505.7875
568.7464	6716.1875
572.7752	6699.5875
576.80114	6371.1875
580.82422	6131.9875
584.84444	6056.4875
588.86181	6017.0875
592.87633	6054.9875
596.888	6175.5875
600.89682	6558.0875
604.9028	7561.1875
608.90594	9700.1875
612.90624	12098.4875
616.90371	11209.6875
620.89834	8030.2875
624.89015	6653.1875
628.87913	6452.4875
632.86528	6601.2875
636.84862	6756.1875
640.82913	6631.1875
644.80683	6259.9875
648.78172	6076.7875
652.75379	6117.9875
656.72306	6335.8875
660.68952	6583.8875
664.65319	6506.1875
668.61405	6253.1875
672.57211	6194.3875
676.52738	6183.1875
680.47986	6073.4875
684.42955	5981.0875
688.37646	5917.3875
692.32058	5942.4875
696.26192	6015.5875
700.20048	6090.1875
704.13626	6172.8875
708.06928	6089.3875
711.99952	6075.8875
715.927	6035.3875
719.85171	6097.5875
723.77365	6138.4875
727.69284	6105.0875
731.60928	6090.3875
735.52295	6068.6875
739.43388	6097.1875
743.34206	6123.5875
747.24749	6138.0875
751.15017	6135.3875
755.05012	6224.4875
758.94733	6644.4875
762.8418	7518.9875
766.73354	8932.0875
770.62254	9974.0875
774.50882	10063.6875
778.39237	9483.4875
782.27321	8504.9875
786.15132	7421.2875
790.02671	6715.4875
793.89938	6323.3875
797.76935	6197.0875
801.6366	6116.5875
805.50115	6066.2875
809.36299	6057.3875
813.22213	6037.6875
817.07857	6023.9875
820.93231	6031.3875
824.78336	6063.9875
828.63172	6067.7875
832.47738	6073.4875
836.32036	6070.2875
840.16066	6023.7875
843.99827	6019.8875
847.8332	6021.5875
851.66546	6025.2875
855.49504	6029.8875
859.32195	6045.4875
863.1462	6026.9875
866.96777	6044.1875
870.78668	6033.3875
874.60293	6068.4875
878.41652	6076.2875
882.22745	6154.0875
886.03573	6182.3875
889.84136	6165.0875
893.64433	6167.8875
897.44466	6165.0875
901.24235	6157.3875
905.0374	6165.2875
908.8298	6086.8875
912.61957	6062.6875
916.40671	6010.9875
920.19121	6055.3875
923.97308	6161.3875
927.75233	6243.5875
931.52895	6292.9875
935.30295	6249.4875
939.07433	6074.0875
942.84309	5969.9875
946.60924	5946.1875
950.37278	5902.7875
954.13371	5892.2875
957.89203	5888.3875
961.64774	5895.7875
965.40086	5888.9875
969.15137	5854.4875
972.89929	5893.3875
976.64461	5888.4875
980.38733	5912.7875
984.12747	5905.9875
987.86502	5915.1875
991.59999	5947.7875
995.33237	6017.2875
999.06217	6075.5875
1002.78939	6159.9875
1006.51404	6301.7875
1010.23611	6392.9875
1013.95561	6457.7875
1017.67255	6442.0875
1021.38692	6433.1875
1025.09872	6355.3875
1028.80796	6282.8875
1032.51465	6285.6875
1036.21877	6268.7875
1039.92035	6312.2875
1043.61937	6350.6875
1047.31584	6403.7875
1051.00976	6439.8875
1054.70114	6451.9875
1058.38998	6451.6875
1062.07627	6463.2875
1065.76003	6491.1875
1069.44126	6550.5875
1073.11995	6641.7875
1076.79611	6777.1875
1080.46974	6932.3875
1084.14085	7120.1875
1087.80943	7219.9875
1091.47549	7271.5875
1095.13903	7178.6875
1098.80005	7053.2875
1102.45857	6943.2875
1106.11456	6928.4875
1109.76805	6870.9875
1113.41903	6981.5875
1117.06751	7161.3875
1120.71348	7428.5875
1124.35696	7822.0875
1127.99793	8116.6875
1131.63641	7952.0875
1135.2724	7535.8875
1138.90589	7237.6875
1142.5369	7030.4875
1146.16542	6904.8875
1149.79145	6785.2875
1153.415	6741.6875
1157.03607	6763.2875
1160.65467	6848.2875
1164.27079	7079.0875
1167.88443	7369.5875
1171.49561	7795.7875
1175.10432	8450.3875
1178.71056	9404.7875
1182.31434	10278.5875
1185.91565	10523.1875
1189.51451	10358.6875
1193.11091	10090.7875
1196.70485	9830.0875
1200.29634	9562.9875
1203.88538	9248.8875
1207.47197	8791.3875
1211.05612	8276.5875
1214.63782	7833.6875
1218.21708	7573.1875
1221.79391	7408.0875
1225.36829	7333.7875
1228.94024	7337.8875
1232.50976	7373.4875
1236.07685	7391.3875
1239.6415	7407.2875
1243.20374	7434.2875
1246.76355	7493.3875
1250.32093	7532.6875
1253.8759	7600.2875
1257.42845	7797.5875
1260.97859	7999.3875
1264.52631	8235.0875
1268.07163	8403.1875
1271.61453	8550.1875
1275.15503	8613.1875
1278.69312	8633.8875
1282.22882	8676.4875
1285.76211	8889.2875
1289.29301	9136.1875
1292.82151	9413.7875
1296.34761	9629.8875
1299.87133	10052.0875
1303.39266	10786.1875
1306.9116	11975.3875
1310.42815	13260.1875
1313.94233	13727.1875
1317.45412	12915.0875
1320.96354	11726.2875
1324.47058	10692.2875
1327.97525	9895.4875
1331.47754	9460.5875
1334.97747	9335.9875
1338.47502	9451.1875
1341.97022	9833.0875
1345.46305	10599.5875
1348.95352	11767.8875
1352.44163	13138.6875
1355.92738	14606.9875
1359.41078	16360.6875
1362.89183	17990.4875
1366.37053	17333.2875
1369.84688	14347.8875
1373.32088	11523.7875
1376.79254	9962.3875
1380.26186	9258.7875
1383.72883	8791.0875
1387.19347	8384.1875
1390.65578	8003.2875
1394.11575	7766.6875
1397.57339	7574.6875
1401.0287	7483.3875
1404.48168	7414.5875
1407.93234	7421.9875
1411.38068	7446.7875
1414.82669	7516.1875
1418.27039	7586.1875
1421.71177	7610.4875
1425.15083	7491.5875
1428.58758	7409.2875
1432.02203	7430.7875
1435.45416	7513.8875
1438.88399	7515.2875
1442.31151	7513.7875
1445.73673	7564.5875
1449.15965	7609.9875
1452.58027	7622.8875
1455.9986	7630.3875
1459.41463	7648.1875
1462.82837	7767.2875
1466.23982	7952.0875
1469.64898	8151.8875
1473.05586	8338.9875
1476.46045	8407.6875
1479.86276	8519.3875
1483.26279	8613.4875
1486.66054	8857.0875
1490.05602	9142.8875
1493.44922	9732.9875
1496.84016	10668.2875
1500.22882	12104.0875
1503.61521	13927.4875
1506.99934	15829.2875
1510.38121	17093.5875
1513.76081	16922.0875
1517.13816	15239.5875
1520.51324	13028.0875
1523.88607	11212.3875
1527.25665	10195.0875
1530.62498	9683.4875
1533.99105	9468.3875
1537.35488	9373.3875
1540.71647	9226.2875
1544.07581	9070.1875
1547.4329	8929.2875
1550.78776	8807.5875
1554.14038	8694.0875
1557.49077	8678.3875
1560.83892	8766.4875
1564.18484	9013.3875
1567.52853	9368.6875
1570.86999	9702.4875
1574.20922	9881.6875
1577.54624	9764.3875
1580.88103	9202.7875
1584.2136	8487.4875
1587.54395	8074.8875
1590.87208	7999.4875
1594.19801	8164.8875
1597.52172	8527.3875
1600.84321	8685.3875
1604.16251	8516.3875
1607.47959	8312.8875
1610.79447	8122.6875
1614.10715	7832.0875
1617.41763	7535.1875
1620.7259	7245.3875
1624.03199	7079.6875
1627.33587	7027.2875
1630.63757	7067.2875
1633.93707	7300.2875
1637.23439	7738.2875
1640.52951	8427.4875
1643.82246	9451.6875
1647.11321	10663.5875
1650.40179	11434.3875
1653.68819	11109.5875
1656.97241	9803.1875
1660.25446	8359.8875
1663.53433	7341.9875
1666.81203	6681.1875
1670.08756	6334.8875
1673.36092	6150.9875
1676.63211	5976.9875
1679.90115	5914.5875
1683.16801	5813.6875
1686.43272	5727.2875
1689.69527	5665.9875
1692.95567	5607.4875
1696.2139	5601.9875
1699.46999	5552.6875
1702.72392	5556.6875
1705.97571	5547.7875
1709.22535	5543.7875
1712.47284	5584.1875
1715.71819	5567.9875
1718.96139	5577.3875
1722.20246	5538.0875
1725.44139	5517.9875
1728.67818	5497.1875
1731.91284	5431.0875
1735.14537	5414.7875
1738.37576	5385.3875
1741.60403	5376.9875
1744.83017	5342.3875
1748.05418	5335.5875
1751.27607	5335.7875
1754.49584	5301.6875
1757.71349	5249.5875
1760.92903	5278.0875
1764.14244	5208.3875
1767.35375	5228.3875
1770.56294	5215.8875
1773.77002	5183.4875
1776.97499	5195.9875
1780.17785	5177.6875
1783.37861	5171.1875
1786.57727	5184.1875
1789.77382	5119.1875
1792.96828	5151.2875
1796.16064	5140.4875
1799.3509	5139.6875
1802.53907	5153.2875
1805.72514	5105.6875
1808.90913	5079.0875
1812.09102	5083.6875
1815.27083	5081.1875
1818.44856	5042.1875
1821.6242	5043.1875
1824.79776	5025.5875
1827.96924	5021.7875
1831.13864	5006.3875
1834.30597	5015.4875
1837.47122	4999.9875
1840.6344	4981.7875
1843.7955	4969.6875
1846.95454	4966.5875
1850.11151	4971.5875
1853.26642	4928.6875
1856.41926	4935.9875
1859.57004	4933.3875
1862.71876	4920.7875
1865.86542	4921.4875
1869.01003	4925.0875
1872.15258	4900.1875
1875.29308	4937.1875
1878.43152	4924.4875
1881.56792	4901.6875
1884.70227	4876.2875
1887.83457	4875.1875
1890.96482	4861.2875
1894.09304	4845.7875
1897.21921	4839.0875
1900.34335	4847.4875
1903.46544	4820.9875
1906.58551	4843.3875
1909.70353	4838.7875
1912.81953	4810.9875
1915.93349	4819.8875
1919.04543	4812.5875
1922.15534	4795.7875
1925.26322	4787.7875
1928.36908	4765.8875
1931.47292	4769.6875
1934.57473	4768.9875
1937.67453	4746.5875
1940.77232	4715.0875
1943.86808	4716.4875
1946.96184	4702.0875
1950.05358	4683.4875
1953.14331	4673.6875
1956.23103	4657.0875
1959.31675	4642.8875
1962.40046	4601.7875
1965.48217	4611.0875
1968.56188	4601.6875
1971.63959	4583.4875
1974.7153	4584.0875
1977.78901	4589.7875
1980.86073	4562.9875
1983.93046	4514.2875
1986.99819	4438.4875
1990.06394	4467.9875
1993.1277	4472.8875
1996.18947	4468.9875
1999.24925	4423.3875
2002.30706	4428.9875
2005.36288	4397.9875
2008.41672	4394.6875
2011.46859	4359.6875
2014.51848	4361.0875
2017.56639	4351.8875
2020.61233	4327.3875
2023.6563	4330.6875
2026.6983	4295.1875
2029.73833	4285.9875
2032.7764	4285.3875
2035.8125	4242.4875
2038.84664	4250.7875
2041.87881	4241.0875
2044.90903	4249.9875
2047.93729	4237.3875
2050.96359	4207.1875
2053.98794	4221.1875
2057.01034	4201.2875
2060.03078	4203.3875
2063.04927	4189.8875
2066.06582	4187.4875
2069.08042	4189.5875
2072.09307	4183.7875
2075.10378	4183.5875
2078.11255	4171.8875
2081.11938	4181.5875
2084.12426	4167.1875
2087.12722	4164.1875
2090.12824	4164.6875
2093.12732	4159.9875
2096.12447	4172.6875
2099.11969	4146.4875
2102.11299	4142.1875
2105.10435	4181.4875
2108.09379	4164.3875
2111.08131	4155.1875
2114.0669	4164.4875
2117.05057	4152.3875
2120.03233	4151.3875
2123.01216	4162.9875
2125.99008	4160.5875
2128.96609	4175.8875
2131.94018	4184.8875
2134.91236	4163.2875
2137.88263	4172.7875
2140.851	4168.1875
2143.81746	4185.9875
2146.78201	4176.4875
2149.74466	4157.6875
2152.7054	4183.3875
2155.66425	4163.5875
2158.6212	4160.7875
2161.57625	4115.5875
2164.52941	4113.9875
2167.48067	4136.3875
2170.43004	4138.2875
2173.37752	4131.9875
2176.32311	4116.5875
2179.26681	4110.5875
2182.20863	4125.9875
2185.14856	4121.3875
2188.08661	4120.6875
2191.02278	4121.7875
2193.95707	4103.1875
2196.88948	4088.5875
2199.82001	4111.2875
2202.74867	4087.4875
2205.67545	4096.4875
2208.60037	4103.4875
2211.52341	4081.7875
2214.44458	4073.7875
2217.36388	4064.1875
2220.28132	4038.1875
2223.1969	4023.8875
2226.11061	4022.2875
2229.02246	4013.4875
2231.93245	4007.4875
2234.84058	3990.9875
2237.74686	3975.9875
2240.65128	3986.1875
2243.55385	3971.4875
2246.45456	3948.3875
2249.35343	3968.0875
2252.25044	3961.1875
2255.14561	3954.5875
2258.03893	3962.7875
2260.93041	3958.3875
2263.82004	3935.9875
2266.70783	3942.7875
2269.59378	3919.1875
2272.4779	3909.7875
2275.36017	3897.1875
2278.24061	3890.4875
2281.11922	3853.3875
2283.996	3867.1875
2286.87094	3854.4875
2289.74405	3855.6875
2292.61534	3856.2875
2295.4848	3834.3875
2298.35243	3846.0875
2301.21824	3824.9875
2304.08223	3818.2875
2306.94439	3825.0875
2309.80474	3819.3875
2312.66327	3798.5875
2315.51999	3807.0875
2318.37489	3789.2875
2321.22797	3780.7875
2324.07925	3779.4875
2326.92871	3769.8875
2329.77637	3754.1875
2332.62222	3761.7875
2335.46626	3721.3875
2338.3085	3722.2875
2341.14893	3745.1875
2343.98756	3748.2875
2346.8244	3727.4875
2349.65943	3704.7875
2352.49267	3721.4875
2355.32411	3730.5875
2358.15376	3713.7875
2360.98161	3728.1875
2363.80768	3705.1875
2366.63195	3717.0875
2369.45444	3719.7875
2372.27514	3724.2875
2375.09405	3722.1875
2377.91118	3686.5875
2380.72652	3681.4875
2383.54009	3672.7875
2386.35187	3665.8875
2389.16188	3654.2875
2391.97011	3657.6875
2394.77657	3643.0875
2397.58125	3646.1875
2400.38416	3624.2875
2403.18529	3596.3875
2405.98466	3579.8875
2408.78226	3596.4875
2411.57809	3589.9875
2414.37216	3572.4875
2417.16446	3586.3875
2419.955	3551.8875
2422.74378	3582.2875
2425.5308	3545.2875
2428.31606	3557.0875
2431.09956	3562.7875
2433.88131	3530.1875
2436.6613	3565.8875
2439.43954	3530.4875
2442.21603	3534.4875
2444.99077	3535.1875
2447.76377	3531.5875
2450.53501	3526.2875
2453.30451	3517.1875
2456.07226	3521.8875
2458.83827	3506.9875
2461.60254	3478.3875
2464.36507	3503.2875
2467.12586	3482.3875
2469.88492	3490.2875
2472.64224	3493.5875
2475.39782	3471.1875
2478.15167	3490.9875
2480.90379	3482.1875
2483.65417	3489.5875
2486.40283	3491.6875
2489.14976	3510.4875
2491.89497	3485.1875
2494.63845	3493.0875
2497.3802	3485.5875
2500.12024	3464.6875
2502.85855	3470.0875
2505.59514	3482.4875
2508.33002	3457.7875
2511.06318	3415.1875
2513.79462	3427.1875
2516.52435	3398.4875
2519.25237	3364.1875
2521.97867	3378.9875
2524.70327	3388.8875
2527.42616	3376.7875
2530.14734	3391.5875
2532.86681	3365.4875
2535.58458	3373.0875
2538.30065	3355.9875
2541.01501	3381.2875
2543.72768	3359.6875
2546.43864	3348.6875
2549.14791	3346.6875
2551.85548	3333.7875
2554.56136	3326.9875
2557.26554	3342.6875
2559.96803	3319.9875
2562.66883	3327.8875
2565.36794	3304.0875
2568.06536	3267.4875
2570.7611	3288.9875
2573.45514	3273.3875
2576.14751	3273.8875
2578.83819	3260.8875
2581.52719	3249.0875
2584.21451	3247.9875
2586.90015	3218.3875
2589.58411	3217.0875
2592.2664	3221.4875
2594.94701	3224.2875
2597.62594	3218.6875
2600.30321	3148.3875
2602.9788	3190.4875
2605.65273	3172.1875
2608.32498	3169.1875
2610.99557	3207.0875
2613.66449	3153.9875
2616.33175	3167.3875
2618.99734	3174.7875
2621.66128	3171.0875
2624.32355	3160.3875
2626.98416	3139.1875
2629.64311	3127.1875
2632.30041	3137.1875
2634.95605	3112.9875
2637.61004	3111.7875
2640.26238	3081.7875
2642.91306	3091.3875
2645.56209	3116.0875
2648.20948	3100.4875
2650.85521	3083.7875
2653.4993	3101.9875
2656.14175	3094.6875
2658.78255	3085.3875
2661.42171	3054.6875
2664.05923	3097.8875
2666.6951	3099.6875
2669.32934	3096.2875
2671.96194	3117.2875
2674.59291	3096.9875
2677.22224	3101.5875
2679.84993	3095.8875
2682.476	3086.2875
2685.10043	3080.5875
2687.72324	3080.4875
2690.34441	3063.1875
2692.96396	3074.3875
2695.58188	3081.7875
2698.19818	3078.0875
2700.81285	3071.3875
2703.4259	3058.3875
2706.03733	3031.3875
2708.64714	3025.3875
2711.25533	3063.2875
2713.86191	3066.6875
2716.46687	3068.7875
2719.07021	3056.4875
2721.67194	3056.4875
2724.27206	3066.1875
2726.87057	3050.8875
2729.46747	3035.6875
2732.06276	3061.4875
2734.65644	3028.3875
2737.24852	3040.2875
2739.83899	3014.2875
2742.42786	3021.6875
2745.01513	3025.5875
2747.60079	3009.1875
2750.18486	2995.4875
2752.76733	3012.4875
2755.3482	2987.7875
2757.92747	2992.9875
2760.50515	2984.1875
2763.08123	2972.4875
2765.65573	2965.0875
2768.22863	2962.6875
2770.79994	2960.4875
2773.36967	2940.7875
2775.9378	2926.6875
2778.50435	2928.4875
2781.06932	2931.4875
2783.6327	2923.5875
2786.1945	2940.8875
2788.75471	2922.0875
2791.31335	2918.9875
2793.87041	2911.6875
2796.42589	2896.6875
2798.97979	2899.6875
2801.53212	2892.4875
2804.08288	2910.3875
2806.63206	2893.3875
2809.17967	2871.5875
2811.72571	2884.2875
2814.27018	2878.8875
2816.81308	2855.0875
2819.35442	2836.6875
2821.89419	2846.1875
2824.43239	2830.8875
2826.96904	2852.6875
2829.50412	2845.3875
2832.03763	2836.4875
2834.56959	2838.4875
2837.1	2829.6875
2839.62884	2833.4875
2842.15613	2825.9875
2844.68186	2837.1875
2847.20604	2786.1875
2849.72867	2799.4875
2852.24974	2804.1875
2854.76927	2771.4875
2857.28724	2734.0875
2859.80367	2787.9875
2862.31855	2798.6875
2864.83189	2787.3875
2867.34368	2795.5875
2869.85393	2796.4875
2872.36264	2786.0875
2874.8698	2781.1875
2877.37543	2788.5875
2879.87952	2768.3875
2882.38207	2749.4875
2884.88308	2755.5875
2887.38256	2768.6875
2889.88051	2763.2875
2892.37692	2759.0875
2894.8718	2737.5875
2897.36515	2762.4875
2899.85698	2741.8875
2902.34727	2747.9875
2904.83604	2760.9875
2907.32328	2772.1875
2909.809	2762.4875
2912.29319	2762.7875
2914.77587	2762.0875
2917.25702	2780.5875
2919.73665	2787.0875
2922.21476	2792.0875
2924.69136	2774.9875
2927.16644	2760.5875
2929.64	2771.3875
2932.11205	2744.4875
2934.58258	2746.4875
2937.05161	2743.0875
2939.51912	2739.4875
2941.98513	2752.6875
2944.44962	2726.7875
2946.91261	2695.7875
2949.37409	2702.6875
2951.83407	2706.8875
2954.29254	2702.7875
2956.74951	2705.6875
2959.20498	2688.2875
2961.65895	2696.9875
2964.11142	2675.1875
2966.56239	2670.5875
2969.01186	2682.1875
2971.45984	2667.2875
2973.90632	2653.1875
2976.35131	2675.5875
2978.7948	2669.3875
2981.23681	2663.4875
2983.67732	2651.8875
2986.11635	2648.6875
2988.55388	2610.5875
2990.98993	2624.6875
2993.4245	2615.1875
2995.85758	2606.8875
2998.28917	2613.5875
3000.71928	2594.4875
3003.14791	2592.9875
3005.57506	2573.9875
3008.00073	2563.3875
3010.42493	2510.3875
3012.84764	2552.8875
3015.26888	2559.2875
3017.68865	2549.6875
3020.10694	2504.1875
3022.52376	2526.7875
3024.9391	2516.0875
3027.35298	2504.6875
3029.76539	2501.4875
3032.17632	2507.3875
3034.5858	2494.9875
3036.9938	2490.0875
3039.40034	2486.5875
3041.80542	2480.9875
3044.20903	2457.6875
3046.61118	2457.7875
3049.01187	2470.4875
3051.4111	2453.9875
3053.80888	2451.4875
3056.20519	2424.1875
3058.60005	2425.2875
3060.99345	2453.7875
3063.3854	2407.7875
3065.7759	2411.7875
3068.16494	2402.0875
3070.55254	2384.2875
3072.93868	2403.8875
3075.32338	2394.5875
3077.70662	2380.5875
3080.08842	2375.2875
3082.46878	2363.7875
3084.84769	2374.1875
3087.22515	2362.5875
3089.60118	2370.7875
3091.97576	2353.6875
3094.3489	2353.5875
3096.72061	2353.1875
3099.09087	2334.7875
3101.4597	2358.5875
3103.82709	2352.1875
3106.19305	2334.4875
3108.55757	2338.9875
3110.92066	2319.6875
3113.28232	2324.4875
3115.64255	2323.8875
3118.00134	2322.7875
3120.35871	2307.7875
3122.71466	2282.4875
3125.06917	2290.4875
3127.42226	2289.3875
3129.77393	2260.1875
3132.12417	2276.6875
3134.47299	2282.0875
3136.82039	2266.9875
3139.16636	2246.8875
3141.51092	2264.1875
3143.85406	2257.5875
3146.19579	2251.3875
3148.53609	2250.1875
3150.87499	2251.4875
3153.21246	2237.8875
3155.54853	2250.9875
3157.88318	2261.3875
3160.21642	2256.2875
3162.54826	2243.0875
3164.87868	2254.3875
3167.2077	2211.4875
3169.5353	2227.5875
3171.86151	2240.7875
3174.18631	2231.8875
3176.5097	2218.5875
3178.83169	2223.7875
3181.15228	2230.8875
3183.47147	2190.2875
3185.78926	2185.6875
3188.10565	2193.1875
3190.42065	2169.2875
3192.73424	2191.6875
3195.04645	2180.4875
3197.35725	2169.1875
3199.66667	2159.0875
3201.97469	2166.9875
3204.28132	2143.5875
3206.58656	2162.7875
3208.8904	2171.2875
3211.19287	2165.5875
3213.49394	2161.4875
3215.79363	2156.7875
3218.09193	2162.8875
3220.38884	2161.1875
3222.68438	2147.2875
3224.97853	2135.1875
3227.2713	2160.7875
3229.56269	2135.4875
3231.8527	2141.2875
3234.14133	2132.5875
3236.42858	2129.4875
3238.71446	2105.9875
3240.99896	2114.7875
3243.28209	2094.8875
3245.56384	2113.5875
3247.84423	2097.0875
3250.12324	2109.5875
3252.40088	2100.1875
3254.67715	2085.4875
3256.95205	2083.6875
3259.22558	2093.5875
3261.49775	2093.1875
3263.76855	2085.8875
3266.03799	2092.8875
3268.30606	2083.8875
3270.57277	2083.0875
3272.83812	2056.0875
3275.10211	2064.3875
3277.36474	2069.8875
3279.62601	2070.7875
3281.88593	2045.1875
3284.14448	2034.6875
3286.40168	2058.0875
3288.65753	2045.2875
3290.91202	2040.3875
3293.16516	2023.2875
3295.41695	2035.9875
3297.66738	2042.0875
3299.91647	2015.5875
3302.16421	2019.2875
3304.4106	1980.4875
3306.65564	1997.7875
3308.89933	1958.0875
3311.14169	1949.2875
3313.38269	1945.2875
3315.62236	1919.2875
3317.86068	1912.8875
3320.09766	1918.6875
3322.3333	1881.7875
3324.5676	1865.4875
3326.80056	1840.3875
3329.03219	1835.3875
3331.26248	-0.5125
3333.49143	-0.1125
3335.71905	1.1875
