Data from AgNPs_UA_20uM_CRN_500uM_SU_RamanShift__48__13-44-30-300.txt Node

Date: Thu Aug 04 13:44:30 BST 2022
User: TCL
Spectrometer: QEP01345
Trigger mode: 4
Integration Time (sec): 1.000000E0
Scans to average: 10
Electric dark correction enabled: true
Nonlinearity correction enabled: false
Boxcar width: 0
XAxis mode: Raman Shifts
Number of Pixels in Spectrum: 1044
>>>>>Begin Spectral Data<<<<<
46.04893	-1.8625
50.45542	-0.3625
54.85868	0.6375
59.25871	-0.0625
63.6555	19.0375
68.04907	16.4375
72.43941	21.7375
76.82654	18.8375
81.21044	19.6375
85.59113	22.4375
89.96862	21.2375
94.34289	22.8375
98.71396	24.5375
103.08183	24.9375
107.4465	22.7375
111.80798	26.5375
116.16626	25.4375
120.52136	30.8375
124.87327	29.7375
129.222	31.8375
133.56755	32.9375
137.90993	37.7375
142.24913	41.3375
146.58517	46.7375
150.91804	54.9375
155.24774	65.1375
159.57429	82.5375
163.89768	110.3375
168.21792	144.6375
172.53501	201.4375
176.84895	273.7375
181.15975	398.0375
185.46741	562.5375
189.77193	776.5375
194.07331	1049.0375
198.37157	1347.6375
202.6667	1675.7375
206.9587	1995.8375
211.24758	2299.0375
215.53334	2629.1375
219.81599	2979.3375
224.09553	3366.0375
228.37195	3788.6375
232.64527	4233.4375
236.91549	4686.9375
241.18261	5105.3375
245.44663	5462.7375
249.70755	5748.4375
253.96539	5991.2375
258.22014	6211.1375
262.4718	6400.4375
266.72039	6536.8375
270.96589	6600.5375
275.20832	6559.1375
279.44768	6481.0375
283.68397	6386.4375
287.91719	6298.4375
292.14735	6286.6375
296.37445	6362.0375
300.59849	6538.4375
304.81948	6743.9375
309.03742	6913.6375
313.25231	7021.4375
317.46415	6953.8375
321.67296	6742.5375
325.87872	6477.3375
330.08145	6362.5375
334.28114	6367.5375
338.47781	6438.9375
342.67145	6581.1375
346.86207	6771.9375
351.04966	6986.2375
355.23424	7213.7375
359.4158	7415.3375
363.59435	7534.1375
367.76989	7591.4375
371.94243	7583.6375
376.11196	7596.5375
380.27849	7597.7375
384.44203	7599.0375
388.60257	7641.4375
392.76012	7690.5375
396.91468	7819.9375
401.06626	7890.0375
405.21485	7967.8375
409.36047	7860.8375
413.50311	7652.6375
417.64277	7453.7375
421.77947	7307.8375
425.9132	7242.0375
430.04396	7252.5375
434.17176	7312.4375
438.2966	7391.3375
442.41849	7535.1375
446.53742	7712.1375
450.6534	7897.3375
454.76644	8008.8375
458.87653	8055.0375
462.98368	8030.3375
467.08789	7984.3375
471.18916	7850.7375
475.2875	7671.1375
479.38291	7510.9375
483.4754	7435.1375
487.56496	7385.8375
491.6516	7333.5375
495.73531	7333.5375
499.81612	7334.7375
503.89401	7403.9375
507.96899	7451.8375
512.04106	7495.3375
516.11023	7530.4375
520.1765	7592.4375
524.23987	7590.9375
528.30034	7585.6375
532.35792	7547.4375
536.41261	7508.2375
540.46441	7406.4375
544.51333	7406.5375
548.55936	7456.8375
552.60252	7544.7375
556.64279	7662.1375
560.6802	7745.5375
564.71473	7840.4375
568.7464	7912.1375
572.7752	7893.7375
576.80114	7717.4375
580.82422	7570.9375
584.84444	7550.6375
588.86181	7608.0375
592.87633	7691.0375
596.888	7839.2375
600.89682	8153.9375
604.9028	9037.0375
608.90594	10818.5375
612.90624	12497.0375
616.90371	11497.1375
620.89834	9103.8375
624.89015	8186.7375
628.87913	8126.2375
632.86528	8196.2375
636.84862	8173.7375
640.82913	7980.7375
644.80683	7700.6375
648.78172	7531.5375
652.75379	7576.3375
656.72306	7801.7375
660.68952	8044.2375
664.65319	7975.1375
668.61405	7877.0375
672.57211	7878.9375
676.52738	7874.3375
680.47986	7746.5375
684.42955	7640.7375
688.37646	7607.2375
692.32058	7667.7375
696.26192	7788.8375
700.20048	7969.9375
704.13626	7975.2375
708.06928	7877.4375
711.99952	7800.8375
715.927	7793.5375
719.85171	7840.4375
723.77365	7827.9375
727.69284	7779.3375
731.60928	7715.6375
735.52295	7707.7375
739.43388	7744.9375
743.34206	7786.2375
747.24749	7808.1375
751.15017	7811.2375
755.05012	7922.7375
758.94733	8166.2375
762.8418	8786.3375
766.73354	9723.5375
770.62254	10491.0375
774.50882	10675.1375
778.39237	10283.1375
782.27321	9576.5375
786.15132	8804.9375
790.02671	8287.3375
793.89938	8017.6375
797.76935	7906.2375
801.6366	7854.7375
805.50115	7800.2375
809.36299	7773.0375
813.22213	7735.6375
817.07857	7732.8375
820.93231	7757.7375
824.78336	7758.0375
828.63172	7799.4375
832.47738	7781.7375
836.32036	7796.5375
840.16066	7781.4375
843.99827	7789.7375
847.8332	7789.2375
851.66546	7786.0375
855.49504	7805.5375
859.32195	7818.2375
863.1462	7799.1375
866.96777	7776.3375
870.78668	7781.6375
874.60293	7774.9375
878.41652	7826.1375
882.22745	7856.2375
886.03573	7901.1375
889.84136	7893.5375
893.64433	7846.4375
897.44466	7842.4375
901.24235	7835.1375
905.0374	7786.9375
908.8298	7792.3375
912.61957	7761.3375
916.40671	7769.2375
920.19121	7816.5375
923.97308	7890.1375
927.75233	7970.0375
931.52895	8044.2375
935.30295	7995.1375
939.07433	7860.3375
942.84309	7756.3375
946.60924	7714.4375
950.37278	7713.5375
954.13371	7685.3375
957.89203	7674.7375
961.64774	7659.9375
965.40086	7621.8375
969.15137	7602.2375
972.89929	7617.5375
976.64461	7610.8375
980.38733	7616.0375
984.12747	7664.3375
987.86502	7708.6375
991.59999	7779.8375
995.33237	7885.5375
999.06217	8047.3375
1002.78939	8202.3375
1006.51404	8334.9375
1010.23611	8401.6375
1013.95561	8493.1375
1017.67255	8534.9375
1021.38692	8507.4375
1025.09872	8505.6375
1028.80796	8518.9375
1032.51465	8630.3375
1036.21877	8715.6375
1039.92035	8726.3375
1043.61937	8655.6375
1047.31584	8564.7375
1051.00976	8443.4375
1054.70114	8404.5375
1058.38998	8418.9375
1062.07627	8448.2375
1065.76003	8489.2375
1069.44126	8557.3375
1073.11995	8694.1375
1076.79611	8812.3375
1080.46974	8924.6375
1084.14085	9019.5375
1087.80943	9108.8375
1091.47549	9134.6375
1095.13903	9077.9375
1098.80005	8985.0375
1102.45857	8972.6375
1106.11456	8933.6375
1109.76805	8878.6375
1113.41903	8913.2375
1117.06751	9008.0375
1120.71348	9157.2375
1124.35696	9346.5375
1127.99793	9464.6375
1131.63641	9306.5375
1135.2724	9073.6375
1138.90589	8861.5375
1142.5369	8715.2375
1146.16542	8653.6375
1149.79145	8556.8375
1153.415	8500.3375
1157.03607	8523.6375
1160.65467	8576.3375
1164.27079	8763.5375
1167.88443	9038.5375
1171.49561	9434.9375
1175.10432	10057.5375
1178.71056	10907.0375
1182.31434	11630.8375
1185.91565	11947.9375
1189.51451	11886.8375
1193.11091	11562.6375
1196.70485	11226.3375
1200.29634	10854.1375
1203.88538	10509.1375
1207.47197	10109.4375
1211.05612	9739.2375
1214.63782	9438.2375
1218.21708	9305.0375
1221.79391	9231.3375
1225.36829	9245.3375
1228.94024	9233.3375
1232.50976	9190.0375
1236.07685	9166.1375
1239.6415	9164.2375
1243.20374	9202.1375
1246.76355	9277.8375
1250.32093	9390.1375
1253.8759	9546.5375
1257.42845	9794.7375
1260.97859	10082.9375
1264.52631	10320.6375
1268.07163	10503.1375
1271.61453	10631.6375
1275.15503	10724.1375
1278.69312	10847.3375
1282.22882	10920.9375
1285.76211	11016.9375
1289.29301	11173.9375
1292.82151	11373.0375
1296.34761	11609.3375
1299.87133	12035.5375
1303.39266	12708.2375
1306.9116	13654.1375
1310.42815	14625.1375
1313.94233	15049.7375
1317.45412	14596.1375
1320.96354	13823.6375
1324.47058	13005.0375
1327.97525	12344.4375
1331.47754	11960.1375
1334.97747	11888.5375
1338.47502	12126.4375
1341.97022	12547.5375
1345.46305	13104.4375
1348.95352	13831.5375
1352.44163	14628.7375
1355.92738	15534.7375
1359.41078	16681.6375
1362.89183	17474.3375
1366.37053	16660.7375
1369.84688	14568.3375
1373.32088	12625.1375
1376.79254	11499.1375
1380.26186	10928.4375
1383.72883	10649.8375
1387.19347	10398.9375
1390.65578	10084.6375
1394.11575	9833.3375
1397.57339	9648.0375
1401.0287	9591.7375
1404.48168	9576.7375
1407.93234	9646.9375
1411.38068	9816.9375
1414.82669	9972.5375
1418.27039	10001.5375
1421.71177	9961.2375
1425.15083	9864.1375
1428.58758	9851.3375
1432.02203	9961.5375
1435.45416	10045.3375
1438.88399	10064.5375
1442.31151	10020.9375
1445.73673	9940.7375
1449.15965	9941.1375
1452.58027	9819.2375
1455.9986	9757.0375
1459.41463	9767.0375
1462.82837	9820.5375
1466.23982	9971.0375
1469.64898	10159.5375
1473.05586	10293.0375
1476.46045	10397.0375
1479.86276	10527.5375
1483.26279	10675.7375
1486.66054	10834.2375
1490.05602	11120.8375
1493.44922	11591.0375
1496.84016	12218.3375
1500.22882	13155.9375
1503.61521	14290.4375
1506.99934	15368.2375
1510.38121	16009.6375
1513.76081	15721.0375
1517.13816	14673.1375
1520.51324	13292.3375
1523.88607	12160.0375
1527.25665	11476.6375
1530.62498	11101.2375
1533.99105	10894.9375
1537.35488	10806.0375
1540.71647	10684.7375
1544.07581	10605.8375
1547.4329	10503.4375
1550.78776	10423.8375
1554.14038	10340.9375
1557.49077	10346.6375
1560.83892	10402.4375
1564.18484	10615.5375
1567.52853	10815.0375
1570.86999	10952.9375
1574.20922	10975.5375
1577.54624	10799.4375
1580.88103	10414.7375
1584.2136	10013.6375
1587.54395	9846.7375
1590.87208	10020.2375
1594.19801	10464.2375
1597.52172	11032.3375
1600.84321	11346.9375
1604.16251	11217.4375
1607.47959	10883.4375
1610.79447	10413.5375
1614.10715	9823.8375
1617.41763	9324.4375
1620.7259	8949.5375
1624.03199	8789.5375
1627.33587	8764.9375
1630.63757	8943.1375
1633.93707	9285.5375
1637.23439	9907.6375
1640.52951	10728.5375
1643.82246	11754.1375
1647.11321	12698.4375
1650.40179	12953.0375
1653.68819	12186.4375
1656.97241	10858.9375
1660.25446	9585.9375
1663.53433	8699.0375
1666.81203	8188.9375
1670.08756	7903.0375
1673.36092	7728.6375
1676.63211	7615.4375
1679.90115	7504.7375
1683.16801	7428.3375
1686.43272	7369.8375
1689.69527	7348.1375
1692.95567	7303.1375
1696.2139	7281.6375
1699.46999	7254.3375
1702.72392	7259.8375
1705.97571	7256.2375
1709.22535	7256.4375
1712.47284	7257.8375
1715.71819	7238.7375
1718.96139	7229.2375
1722.20246	7205.3375
1725.44139	7185.5375
1728.67818	7166.6375
1731.91284	7126.0375
1735.14537	7076.7375
1738.37576	7067.7375
1741.60403	7032.6375
1744.83017	7014.6375
1748.05418	6993.8375
1751.27607	6998.3375
1754.49584	6961.8375
1757.71349	6937.4375
1760.92903	6939.9375
1764.14244	6932.4375
1767.35375	6921.8375
1770.56294	6912.5375
1773.77002	6909.8375
1776.97499	6909.7375
1780.17785	6890.7375
1783.37861	6852.2375
1786.57727	6853.0375
1789.77382	6852.1375
1792.96828	6811.7375
1796.16064	6808.3375
1799.3509	6811.1375
1802.53907	6787.6375
1805.72514	6777.5375
1808.90913	6774.3375
1812.09102	6753.9375
1815.27083	6758.6375
1818.44856	6732.2375
1821.6242	6694.1375
1824.79776	6707.3375
1827.96924	6702.5375
1831.13864	6697.7375
1834.30597	6670.8375
1837.47122	6672.6375
1840.6344	6638.3375
1843.7955	6633.2375
1846.95454	6629.1375
1850.11151	6623.6375
1853.26642	6645.2375
1856.41926	6623.0375
1859.57004	6632.8375
1862.71876	6602.9375
1865.86542	6601.6375
1869.01003	6592.8375
1872.15258	6578.6375
1875.29308	6571.7375
1878.43152	6581.1375
1881.56792	6582.8375
1884.70227	6564.9375
1887.83457	6561.0375
1890.96482	6557.2375
1894.09304	6535.5375
1897.21921	6514.9375
1900.34335	6524.2375
1903.46544	6515.9375
1906.58551	6497.5375
1909.70353	6515.1375
1912.81953	6497.8375
1915.93349	6469.6375
1919.04543	6468.8375
1922.15534	6460.9375
1925.26322	6444.0375
1928.36908	6431.4375
1931.47292	6426.8375
1934.57473	6421.9375
1937.67453	6412.6375
1940.77232	6397.3375
1943.86808	6370.8375
1946.96184	6347.1375
1950.05358	6326.5375
1953.14331	6327.4375
1956.23103	6295.9375
1959.31675	6268.5375
1962.40046	6234.8375
1965.48217	6236.4375
1968.56188	6231.0375
1971.63959	6207.0375
1974.7153	6175.6375
1977.78901	6171.5375
1980.86073	6169.2375
1983.93046	6114.2375
1986.99819	6127.8375
1990.06394	6071.6375
1993.1277	6083.5375
1996.18947	6041.6375
1999.24925	6025.9375
2002.30706	6008.7375
2005.36288	5981.5375
2008.41672	5972.3375
2011.46859	5963.6375
2014.51848	5935.8375
2017.56639	5910.7375
2020.61233	5913.9375
2023.6563	5885.3375
2026.6983	5874.4375
2029.73833	5857.9375
2032.7764	5850.4375
2035.8125	5831.4375
2038.84664	5811.4375
2041.87881	5811.7375
2044.90903	5798.5375
2047.93729	5784.6375
2050.96359	5789.4375
2053.98794	5774.0375
2057.01034	5776.2375
2060.03078	5745.7375
2063.04927	5739.6375
2066.06582	5738.2375
2069.08042	5728.6375
2072.09307	5729.8375
2075.10378	5720.0375
2078.11255	5732.2375
2081.11938	5706.7375
2084.12426	5701.6375
2087.12722	5695.6375
2090.12824	5694.3375
2093.12732	5701.1375
2096.12447	5708.4375
2099.11969	5707.7375
2102.11299	5693.9375
2105.10435	5702.7375
2108.09379	5694.4375
2111.08131	5702.7375
2114.0669	5706.2375
2117.05057	5707.2375
2120.03233	5713.8375
2123.01216	5705.5375
2125.99008	5701.9375
2128.96609	5730.5375
2131.94018	5740.2375
2134.91236	5729.5375
2137.88263	5735.5375
2140.851	5732.7375
2143.81746	5727.3375
2146.78201	5722.9375
2149.74466	5706.5375
2152.7054	5701.9375
2155.66425	5707.3375
2158.6212	5720.0375
2161.57625	5712.0375
2164.52941	5716.1375
2167.48067	5701.2375
2170.43004	5699.3375
2173.37752	5697.7375
2176.32311	5699.1375
2179.26681	5701.0375
2182.20863	5692.5375
2185.14856	5700.2375
2188.08661	5694.7375
2191.02278	5672.3375
2193.95707	5694.3375
2196.88948	5662.8375
2199.82001	5687.8375
2202.74867	5678.5375
2205.67545	5669.8375
2208.60037	5675.2375
2211.52341	5671.8375
2214.44458	5650.3375
2217.36388	5634.9375
2220.28132	5615.3375
2223.1969	5599.1375
2226.11061	5612.7375
2229.02246	5568.3375
2231.93245	5550.6375
2234.84058	5561.0375
2237.74686	5550.8375
2240.65128	5538.6375
2243.55385	5546.2375
2246.45456	5548.2375
2249.35343	5517.0375
2252.25044	5510.4375
2255.14561	5507.5375
2258.03893	5499.6375
2260.93041	5494.4375
2263.82004	5494.6375
2266.70783	5480.2375
2269.59378	5467.9375
2272.4779	5441.0375
2275.36017	5426.6375
2278.24061	5400.1375
2281.11922	5389.9375
2283.996	5387.5375
2286.87094	5386.0375
2289.74405	5360.5375
2292.61534	5365.7375
2295.4848	5365.8375
2298.35243	5367.5375
2301.21824	5352.3375
2304.08223	5351.7375
2306.94439	5348.5375
2309.80474	5356.5375
2312.66327	5342.5375
2315.51999	5342.4375
2318.37489	5327.5375
2321.22797	5327.3375
2324.07925	5338.4375
2326.92871	5298.2375
2329.77637	5294.6375
2332.62222	5301.7375
2335.46626	5293.2375
2338.3085	5295.7375
2341.14893	5270.3375
2343.98756	5283.8375
2346.8244	5290.0375
2349.65943	5285.7375
2352.49267	5286.2375
2355.32411	5274.3375
2358.15376	5274.5375
2360.98161	5257.0375
2363.80768	5251.6375
2366.63195	5246.8375
2369.45444	5240.9375
2372.27514	5249.4375
2375.09405	5220.3375
2377.91118	5204.8375
2380.72652	5215.8375
2383.54009	5188.3375
2386.35187	5189.8375
2389.16188	5189.4375
2391.97011	5161.1375
2394.77657	5162.4375
2397.58125	5132.1375
2400.38416	5121.8375
2403.18529	5119.1375
2405.98466	5123.8375
2408.78226	5087.6375
2411.57809	5101.8375
2414.37216	5069.0375
2417.16446	5092.1375
2419.955	5049.1375
2422.74378	5055.9375
2425.5308	5049.7375
2428.31606	5028.4375
2431.09956	5039.0375
2433.88131	5037.0375
2436.6613	5042.3375
2439.43954	5029.2375
2442.21603	5036.3375
2444.99077	5036.1375
2447.76377	5030.2375
2450.53501	5010.1375
2453.30451	5025.0375
2456.07226	5003.6375
2458.83827	5016.3375
2461.60254	5003.5375
2464.36507	4975.4375
2467.12586	4986.0375
2469.88492	4977.2375
2472.64224	4978.0375
2475.39782	4981.4375
2478.15167	4968.1375
2480.90379	4959.0375
2483.65417	4964.0375
2486.40283	4979.8375
2489.14976	4987.3375
2491.89497	4958.4375
2494.63845	4968.7375
2497.3802	4973.7375
2500.12024	4956.1375
2502.85855	4946.1375
2505.59514	4929.2375
2508.33002	4922.7375
2511.06318	4912.1375
2513.79462	4913.0375
2516.52435	4881.5375
2519.25237	4888.9375
2521.97867	4889.9375
2524.70327	4872.6375
2527.42616	4876.4375
2530.14734	4877.2375
2532.86681	4865.4375
2535.58458	4876.9375
2538.30065	4853.8375
2541.01501	4854.4375
2543.72768	4853.6375
2546.43864	4855.9375
2549.14791	4849.7375
2551.85548	4840.1375
2554.56136	4848.9375
2557.26554	4837.7375
2559.96803	4809.0375
2562.66883	4794.4375
2565.36794	4802.3375
2568.06536	4801.7375
2570.7611	4763.8375
2573.45514	4766.5375
2576.14751	4771.5375
2578.83819	4768.2375
2581.52719	4748.6375
2584.21451	4735.1375
2586.90015	4716.2375
2589.58411	4710.3375
2592.2664	4726.6375
2594.94701	4703.4375
2597.62594	4709.4375
2600.30321	4708.4375
2602.9788	4708.6375
2605.65273	4684.3375
2608.32498	4688.4375
2610.99557	4669.9375
2613.66449	4678.8375
2616.33175	4663.2375
2618.99734	4657.7375
2621.66128	4643.5375
2624.32355	4644.5375
2626.98416	4662.0375
2629.64311	4652.3375
2632.30041	4645.6375
2634.95605	4634.7375
2637.61004	4616.7375
2640.26238	4622.2375
2642.91306	4618.6375
2645.56209	4607.9375
2648.20948	4600.1375
2650.85521	4601.3375
2653.4993	4596.6375
2656.14175	4585.6375
2658.78255	4593.9375
2661.42171	4579.2375
2664.05923	4603.0375
2666.6951	4615.7375
2669.32934	4611.3375
2671.96194	4595.7375
2674.59291	4614.3375
2677.22224	4602.5375
2679.84993	4593.3375
2682.476	4584.7375
2685.10043	4589.9375
2687.72324	4585.2375
2690.34441	4578.0375
2692.96396	4582.8375
2695.58188	4576.2375
2698.19818	4568.7375
2700.81285	4574.7375
2703.4259	4568.4375
2706.03733	4575.3375
2708.64714	4544.2375
2711.25533	4549.3375
2713.86191	4550.9375
2716.46687	4561.8375
2719.07021	4551.9375
2721.67194	4549.9375
2724.27206	4561.1375
2726.87057	4566.3375
2729.46747	4565.5375
2732.06276	4560.1375
2734.65644	4544.5375
2737.24852	4550.1375
2739.83899	4546.8375
2742.42786	4539.7375
2745.01513	4528.6375
2747.60079	4514.7375
2750.18486	4513.2375
2752.76733	4503.6375
2755.3482	4496.0375
2757.92747	4506.4375
2760.50515	4493.7375
2763.08123	4477.3375
2765.65573	4464.2375
2768.22863	4466.2375
2770.79994	4460.5375
2773.36967	4447.0375
2775.9378	4465.1375
2778.50435	4467.5375
2781.06932	4454.4375
2783.6327	4454.7375
2786.1945	4442.7375
2788.75471	4435.6375
2791.31335	4419.4375
2793.87041	4420.2375
2796.42589	4401.7375
2798.97979	4406.8375
2801.53212	4386.1375
2804.08288	4398.2375
2806.63206	4381.7375
2809.17967	4375.2375
2811.72571	4349.0375
2814.27018	4363.7375
2816.81308	4343.7375
2819.35442	4334.4375
2821.89419	4335.9375
2824.43239	4326.5375
2826.96904	4312.4375
2829.50412	4315.1375
2832.03763	4293.7375
2834.56959	4290.2375
2837.1	4284.2375
2839.62884	4279.5375
2842.15613	4278.4375
2844.68186	4283.7375
2847.20604	4272.8375
2849.72867	4268.6375
2852.24974	4261.6375
2854.76927	4232.6375
2857.28724	4236.0375
2859.80367	4213.7375
2862.31855	4223.8375
2864.83189	4211.2375
2867.34368	4217.2375
2869.85393	4213.0375
2872.36264	4215.6375
2874.8698	4202.6375
2877.37543	4185.3375
2879.87952	4178.9375
2882.38207	4184.0375
2884.88308	4176.3375
2887.38256	4170.2375
2889.88051	4173.9375
2892.37692	4176.8375
2894.8718	4167.0375
2897.36515	4178.6375
2899.85698	4177.6375
2902.34727	4178.1375
2904.83604	4175.2375
2907.32328	4172.4375
2909.809	4156.8375
2912.29319	4187.4375
2914.77587	4181.6375
2917.25702	4181.1375
2919.73665	4184.6375
2922.21476	4182.0375
2924.69136	4169.8375
2927.16644	4163.7375
2929.64	4160.3375
2932.11205	4138.6375
2934.58258	4133.3375
2937.05161	4138.0375
2939.51912	4124.3375
2941.98513	4129.9375
2944.44962	4115.6375
2946.91261	4099.2375
2949.37409	4133.0375
2951.83407	4113.6375
2954.29254	4119.0375
2956.74951	4106.7375
2959.20498	4096.9375
2961.65895	4101.4375
2964.11142	4096.0375
2966.56239	4085.4375
2969.01186	4089.1375
2971.45984	4098.0375
2973.90632	4091.7375
2976.35131	4079.3375
2978.7948	4061.8375
2981.23681	4064.0375
2983.67732	4039.9375
2986.11635	4042.2375
2988.55388	4028.8375
2990.98993	4026.1375
2993.4245	4024.8375
2995.85758	4013.8375
2998.28917	4005.5375
3000.71928	3982.5375
3003.14791	3969.6375
3005.57506	3972.5375
3008.00073	3957.1375
3010.42493	3942.1375
3012.84764	3925.2375
3015.26888	3921.5375
3017.68865	3922.2375
3020.10694	3915.7375
3022.52376	3909.6375
3024.9391	3896.6375
3027.35298	3870.6375
3029.76539	3859.8375
3032.17632	3875.9375
3034.5858	3851.6375
3036.9938	3869.3375
3039.40034	3835.0375
3041.80542	3837.2375
3044.20903	3821.6375
3046.61118	3837.9375
3049.01187	3802.5375
3051.4111	3802.0375
3053.80888	3797.9375
3056.20519	3788.5375
3058.60005	3776.3375
3060.99345	3772.5375
3063.3854	3770.5375
3065.7759	3755.5375
3068.16494	3765.9375
3070.55254	3735.6375
3072.93868	3716.3375
3075.32338	3707.1375
3077.70662	3701.5375
3080.08842	3677.5375
3082.46878	3677.8375
3084.84769	3671.6375
3087.22515	3663.6375
3089.60118	3673.3375
3091.97576	3668.3375
3094.3489	3674.9375
3096.72061	3655.2375
3099.09087	3660.7375
3101.4597	3661.7375
3103.82709	3649.9375
3106.19305	3635.6375
3108.55757	3640.0375
3110.92066	3632.8375
3113.28232	3622.1375
3115.64255	3619.0375
3118.00134	3609.8375
3120.35871	3601.2375
3122.71466	3599.0375
3125.06917	3599.9375
3127.42226	3579.1375
3129.77393	3568.5375
3132.12417	3564.1375
3134.47299	3562.8375
3136.82039	3536.5375
3139.16636	3550.7375
3141.51092	3546.7375
3143.85406	3541.5375
3146.19579	3554.8375
3148.53609	3542.6375
3150.87499	3547.1375
3153.21246	3537.6375
3155.54853	3543.3375
3157.88318	3543.9375
3160.21642	3554.2375
3162.54826	3535.5375
3164.87868	3529.4375
3167.2077	3520.1375
3169.5353	3513.0375
3171.86151	3518.2375
3174.18631	3512.0375
3176.5097	3499.7375
3178.83169	3499.1375
3181.15228	3488.6375
3183.47147	3478.3375
3185.78926	3482.2375
3188.10565	3469.1375
3190.42065	3476.0375
3192.73424	3458.8375
3195.04645	3444.5375
3197.35725	3434.5375
3199.66667	3423.4375
3201.97469	3422.7375
3204.28132	3423.7375
3206.58656	3442.4375
3208.8904	3427.4375
3211.19287	3436.6375
3213.49394	3446.5375
3215.79363	3442.6375
3218.09193	3437.0375
3220.38884	3419.8375
3222.68438	3425.1375
3224.97853	3415.2375
3227.2713	3421.4375
3229.56269	3422.5375
3231.8527	3404.1375
3234.14133	3404.7375
3236.42858	3390.9375
3238.71446	3394.4375
3240.99896	3370.5375
3243.28209	3371.7375
3245.56384	3374.8375
3247.84423	3345.7375
3250.12324	3365.3375
3252.40088	3339.0375
3254.67715	3353.0375
3256.95205	3349.0375
3259.22558	3326.5375
3261.49775	3328.7375
3263.76855	3341.8375
3266.03799	3355.0375
3268.30606	3337.2375
3270.57277	3323.3375
3272.83812	3330.7375
3275.10211	3319.4375
3277.36474	3312.0375
3279.62601	3300.7375
3281.88593	3289.3375
3284.14448	3296.8375
3286.40168	3284.8375
3288.65753	3282.8375
3290.91202	3275.7375
3293.16516	3273.6375
3295.41695	3262.1375
3297.66738	3250.3375
3299.91647	3232.1375
3302.16421	3215.7375
3304.4106	3198.5375
3306.65564	3168.6375
3308.89933	3147.7375
3311.14169	3132.4375
3313.38269	3095.6375
3315.62236	3076.0375
3317.86068	3060.3375
3320.09766	3046.0375
3322.3333	3002.1375
3324.5676	2977.8375
3326.80056	2946.6375
3329.03219	2934.6375
3331.26248	2.1375
3333.49143	0.2375
3335.71905	-1.4625
