Data from AgNPs_UA_5uM_CRN_500uM_SU_RamanShift__34__11-35-03-145.txt Node

Date: Thu Aug 04 11:35:03 BST 2022
User: TCL
Spectrometer: QEP01345
Trigger mode: 4
Integration Time (sec): 1.000000E0
Scans to average: 10
Electric dark correction enabled: true
Nonlinearity correction enabled: false
Boxcar width: 0
XAxis mode: Raman Shifts
Number of Pixels in Spectrum: 1044
>>>>>Begin Spectral Data<<<<<
46.04893	0.8375
50.45542	0.7375
54.85868	-0.2625
59.25871	-0.1625
63.6555	-53.0625
68.04907	-34.8625
72.43941	-66.6625
76.82654	-51.4625
81.21044	-50.2625
85.59113	-45.2625
89.96862	-69.3625
94.34289	-48.5625
98.71396	-71.7625
103.08183	-52.0625
107.4465	-42.1625
111.80798	-46.7625
116.16626	-35.1625
120.52136	-65.3625
124.87327	-38.0625
129.222	-48.9625
133.56755	-35.0625
137.90993	-43.5625
142.24913	-31.7625
146.58517	-17.3625
150.91804	-9.4625
155.24774	11.2375
159.57429	43.2375
163.89768	71.6375
168.21792	145.7375
172.53501	208.2375
176.84895	350.8375
181.15975	585.1375
185.46741	866.2375
189.77193	1211.4375
194.07331	1714.6375
198.37157	2253.0375
202.6667	2789.4375
206.9587	3410.4375
211.24758	4061.0375
215.53334	4785.8375
219.81599	5631.0375
224.09553	6595.3375
228.37195	7604.3375
232.64527	8566.3375
236.91549	9322.4375
241.18261	9728.4375
245.44663	9817.0375
249.70755	9786.0375
253.96539	9768.0375
258.22014	9856.5375
262.4718	9950.3375
266.72039	9959.4375
270.96589	9722.8375
275.20832	9283.3375
279.44768	8851.0375
283.68397	8551.8375
287.91719	8437.3375
292.14735	8681.8375
296.37445	9330.1375
300.59849	10510.4375
304.81948	12110.4375
309.03742	13929.4375
313.25231	15256.4375
317.46415	15085.6375
321.67296	13244.2375
325.87872	11070.5375
330.08145	9790.8375
334.28114	9537.7375
338.47781	9892.3375
342.67145	10572.3375
346.86207	11744.6375
351.04966	13432.0375
355.23424	15107.9375
359.4158	15701.3375
363.59435	15115.5375
367.76989	14060.4375
371.94243	13082.2375
376.11196	12233.3375
380.27849	11620.8375
384.44203	11138.8375
388.60257	10863.7375
392.76012	10916.3375
396.91468	11272.9375
401.06626	11767.2375
405.21485	11744.4375
409.36047	10959.0375
413.50311	9663.9375
417.64277	8416.7375
421.77947	7648.6375
425.9132	7304.0375
430.04396	7123.7375
434.17176	7094.1375
438.2966	7245.4375
442.41849	7510.9375
446.53742	7764.9375
450.6534	7921.0375
454.76644	7905.7375
458.87653	7736.6375
462.98368	7591.1375
467.08789	7393.0375
471.18916	7137.3375
475.2875	6775.2375
479.38291	6461.8375
483.4754	6260.3375
487.56496	6190.5375
491.6516	6124.3375
495.73531	6100.3375
499.81612	6163.6375
503.89401	6361.4375
507.96899	6603.0375
512.04106	6915.2375
516.11023	7248.6375
520.1765	7507.5375
524.23987	7604.7375
528.30034	7601.8375
532.35792	7421.6375
536.41261	7272.5375
540.46441	6991.2375
544.51333	6794.3375
548.55936	6810.3375
552.60252	6977.9375
556.64279	7249.2375
560.6802	7788.2375
564.71473	8991.3375
568.7464	10589.6375
572.7752	10522.8375
576.80114	8520.7375
580.82422	6862.5375
584.84444	6195.3375
588.86181	5965.3375
592.87633	5971.8375
596.888	6220.7375
600.89682	7194.1375
604.9028	10384.0375
608.90594	18629.4375
612.90624	28664.8375
616.90371	25831.6375
620.89834	13489.0375
624.89015	8094.4375
628.87913	7545.7375
632.86528	8329.7375
636.84862	8598.3375
640.82913	7578.7375
644.80683	6278.3375
648.78172	5730.0375
652.75379	5935.8375
656.72306	6888.0375
660.68952	7827.3375
664.65319	7283.6375
668.61405	6039.1375
672.57211	5485.7375
676.52738	5489.8375
680.47986	5423.5375
684.42955	5248.1375
688.37646	5162.5375
692.32058	5156.9375
696.26192	5256.5375
700.20048	5416.5375
704.13626	5481.4375
708.06928	5362.2375
711.99952	5325.1375
715.927	5395.0375
719.85171	5676.6375
723.77365	5844.3375
727.69284	5665.3375
731.60928	5466.7375
735.52295	5416.9375
739.43388	5484.8375
743.34206	5538.7375
747.24749	5543.5375
751.15017	5564.5375
755.05012	5991.6375
758.94733	7608.2375
762.8418	11289.2375
766.73354	15965.7375
770.62254	18374.5375
774.50882	17384.3375
778.39237	15428.7375
782.27321	12591.5375
786.15132	9129.4375
790.02671	6863.4375
793.89938	5829.5375
797.76935	5469.5375
801.6366	5296.6375
805.50115	5202.6375
809.36299	5161.8375
813.22213	5137.2375
817.07857	5124.3375
820.93231	5175.8375
824.78336	5303.4375
828.63172	5464.7375
832.47738	5518.8375
836.32036	5375.6375
840.16066	5117.1375
843.99827	4940.0375
847.8332	4903.3375
851.66546	4889.3375
855.49504	4868.6375
859.32195	4857.3375
863.1462	4802.0375
866.96777	4795.5375
870.78668	4793.5375
874.60293	4844.7375
878.41652	4929.4375
882.22745	5101.5375
886.03573	5206.3375
889.84136	5166.5375
893.64433	5144.7375
897.44466	5151.0375
901.24235	5155.7375
905.0374	5064.5375
908.8298	4844.2375
912.61957	4710.5375
916.40671	4599.8375
920.19121	4670.3375
923.97308	4924.9375
927.75233	5433.8375
931.52895	5950.8375
935.30295	5671.8375
939.07433	4918.0375
942.84309	4436.4375
946.60924	4272.1375
950.37278	4184.2375
954.13371	4192.0375
957.89203	4185.8375
961.64774	4188.2375
965.40086	4134.2375
969.15137	4112.5375
972.89929	4128.7375
976.64461	4099.4375
980.38733	4112.6375
984.12747	4083.8375
987.86502	4104.5375
991.59999	4134.2375
995.33237	4227.8375
999.06217	4360.5375
1002.78939	4596.8375
1006.51404	4963.1375
1010.23611	5130.0375
1013.95561	4949.1375
1017.67255	4716.2375
1021.38692	4504.7375
1025.09872	4346.8375
1028.80796	4238.8375
1032.51465	4293.5375
1036.21877	4327.5375
1039.92035	4422.0375
1043.61937	4517.8375
1047.31584	4593.6375
1051.00976	4611.5375
1054.70114	4531.1375
1058.38998	4452.1375
1062.07627	4411.8375
1065.76003	4433.4375
1069.44126	4498.4375
1073.11995	4609.1375
1076.79611	4944.4375
1080.46974	5566.9375
1084.14085	6437.0375
1087.80943	7152.7375
1091.47549	7097.6375
1095.13903	6348.9375
1098.80005	5586.1375
1102.45857	5173.9375
1106.11456	5153.1375
1109.76805	5305.5375
1113.41903	5788.1375
1117.06751	6585.4375
1120.71348	7866.8375
1124.35696	9749.7375
1127.99793	11002.3375
1131.63641	9986.6375
1135.2724	8022.1375
1138.90589	6685.8375
1142.5369	5966.9375
1146.16542	5513.6375
1149.79145	5214.8375
1153.415	5135.3375
1157.03607	5228.1375
1160.65467	5502.2375
1164.27079	6017.1375
1167.88443	6739.9375
1171.49561	7975.0375
1175.10432	10094.3375
1178.71056	12918.2375
1182.31434	14843.2375
1185.91565	14463.2375
1189.51451	12588.6375
1193.11091	10661.9375
1196.70485	9442.2375
1200.29634	8923.7375
1203.88538	8313.2375
1207.47197	7148.0375
1211.05612	6054.9375
1214.63782	5339.5375
1218.21708	5036.7375
1221.79391	4909.0375
1225.36829	4906.7375
1228.94024	4902.5375
1232.50976	4909.2375
1236.07685	4892.6375
1239.6415	4984.9375
1243.20374	5146.2375
1246.76355	5343.2375
1250.32093	5643.3375
1253.8759	5994.2375
1257.42845	6637.5375
1260.97859	7462.6375
1264.52631	8232.9375
1268.07163	8564.0375
1271.61453	8522.9375
1275.15503	8233.2375
1278.69312	7908.6375
1282.22882	8162.2375
1285.76211	9235.5375
1289.29301	10751.8375
1292.82151	11706.1375
1296.34761	12096.6375
1299.87133	13075.6375
1303.39266	15597.7375
1306.9116	20260.4375
1310.42815	26096.2375
1313.94233	28275.4375
1317.45412	24069.1375
1320.96354	17540.3375
1324.47058	12653.8375
1327.97525	9669.6375
1331.47754	8192.7375
1334.97747	7691.6375
1338.47502	7911.4375
1341.97022	9054.3375
1345.46305	11558.7375
1348.95352	15126.0375
1352.44163	18819.3375
1355.92738	23532.0375
1359.41078	31705.8375
1362.89183	40131.8375
1366.37053	37917.2375
1369.84688	25877.0375
1373.32088	16093.1375
1376.79254	11920.1375
1380.26186	9992.3375
1383.72883	8521.1375
1387.19347	7204.0375
1390.65578	6220.8375
1394.11575	5694.6375
1397.57339	5402.2375
1401.0287	5219.5375
1404.48168	5027.5375
1407.93234	4941.8375
1411.38068	5063.7375
1414.82669	5513.6375
1418.27039	5997.5375
1421.71177	6085.0375
1425.15083	5859.3375
1428.58758	5973.6375
1432.02203	6663.4375
1435.45416	7141.6375
1438.88399	6809.3375
1442.31151	6348.8375
1445.73673	6240.0375
1449.15965	6187.9375
1452.58027	6032.8375
1455.9986	5778.8375
1459.41463	5575.0375
1462.82837	5580.4375
1466.23982	5874.3375
1469.64898	6247.2375
1473.05586	6364.2375
1476.46045	6322.2375
1479.86276	6360.9375
1483.26279	6690.5375
1486.66054	7429.1375
1490.05602	8554.5375
1493.44922	10404.0375
1496.84016	13305.9375
1500.22882	17792.5375
1503.61521	24092.0375
1506.99934	32336.4375
1510.38121	40642.4375
1513.76081	44294.2375
1517.13816	39571.2375
1520.51324	29631.4375
1523.88607	20415.3375
1527.25665	14429.2375
1530.62498	11024.6375
1533.99105	9037.1375
1537.35488	7762.0375
1540.71647	7044.1375
1544.07581	6729.5375
1547.4329	6743.5375
1550.78776	6901.3375
1554.14038	7313.3375
1557.49077	7988.6375
1560.83892	9129.8375
1564.18484	10932.8375
1567.52853	12798.4375
1570.86999	13845.7375
1574.20922	13836.1375
1577.54624	13040.4375
1580.88103	10827.8375
1584.2136	8237.3375
1587.54395	6726.6375
1590.87208	6364.0375
1594.19801	6867.3375
1597.52172	7694.9375
1600.84321	7736.0375
1604.16251	6795.2375
1607.47959	5944.6375
1610.79447	5419.2375
1614.10715	4979.4375
1617.41763	4702.1375
1620.7259	4575.3375
1624.03199	4646.2375
1627.33587	4885.8375
1630.63757	5334.0375
1633.93707	6179.9375
1637.23439	7709.2375
1640.52951	10440.6375
1643.82246	15160.5375
1647.11321	21519.1375
1650.40179	26519.9375
1653.68819	26019.5375
1656.97241	20044.2375
1660.25446	13303.1375
1663.53433	8766.8375
1666.81203	6294.4375
1670.08756	5034.5375
1673.36092	4348.9375
1676.63211	3924.0375
1679.90115	3646.5375
1683.16801	3471.0375
1686.43272	3317.0375
1689.69527	3253.0375
1692.95567	3141.4375
1696.2139	3107.5375
1699.46999	3029.0375
1702.72392	3021.8375
1705.97571	3037.3375
1709.22535	3003.8375
1712.47284	3054.6375
1715.71819	3084.7375
1718.96139	3094.2375
1722.20246	3050.8375
1725.44139	2980.2375
1728.67818	2903.6375
1731.91284	2812.5375
1735.14537	2756.4375
1738.37576	2700.7375
1741.60403	2688.6375
1744.83017	2626.0375
1748.05418	2623.4375
1751.27607	2601.9375
1754.49584	2536.2375
1757.71349	2479.0375
1760.92903	2448.6375
1764.14244	2375.4375
1767.35375	2344.6375
1770.56294	2290.2375
1773.77002	2225.0375
1776.97499	2217.3375
1780.17785	2167.4375
1783.37861	2138.4375
1786.57727	2137.4375
1789.77382	2070.2375
1792.96828	2107.0375
1796.16064	2110.1375
1799.3509	2100.4375
1802.53907	2093.6375
1805.72514	2057.7375
1808.90913	2039.2375
1812.09102	2035.6375
1815.27083	2033.8375
1818.44856	2018.2375
1821.6242	2004.4375
1824.79776	1985.9375
1827.96924	1979.8375
1831.13864	1952.1375
1834.30597	1949.5375
1837.47122	1895.9375
1840.6344	1880.7375
1843.7955	1841.3375
1846.95454	1830.0375
1850.11151	1831.4375
1853.26642	1786.1375
1856.41926	1808.0375
1859.57004	1805.6375
1862.71876	1809.2375
1865.86542	1821.1375
1869.01003	1830.1375
1872.15258	1817.7375
1875.29308	1840.1375
1878.43152	1845.6375
1881.56792	1828.4375
1884.70227	1797.7375
1887.83457	1800.2375
1890.96482	1768.7375
1894.09304	1758.1375
1897.21921	1762.9375
1900.34335	1764.8375
1903.46544	1740.1375
1906.58551	1753.2375
1909.70353	1753.5375
1912.81953	1741.9375
1915.93349	1732.7375
1919.04543	1717.9375
1922.15534	1696.5375
1925.26322	1702.7375
1928.36908	1665.7375
1931.47292	1650.8375
1934.57473	1626.7375
1937.67453	1590.0375
1940.77232	1545.2375
1943.86808	1538.1375
1946.96184	1545.2375
1950.05358	1514.5375
1953.14331	1509.6375
1956.23103	1528.3375
1959.31675	1509.1375
1962.40046	1486.6375
1965.48217	1534.3375
1968.56188	1551.7375
1971.63959	1571.5375
1974.7153	1576.1375
1977.78901	1567.7375
1980.86073	1525.0375
1983.93046	1472.6375
1986.99819	1389.4375
1990.06394	1387.7375
1993.1277	1407.1375
1996.18947	1390.2375
1999.24925	1360.5375
2002.30706	1367.4375
2005.36288	1354.1375
2008.41672	1340.5375
2011.46859	1316.3375
2014.51848	1319.9375
2017.56639	1298.9375
2020.61233	1290.0375
2023.6563	1301.3375
2026.6983	1261.1375
2029.73833	1266.1375
2032.7764	1279.7375
2035.8125	1231.3375
2038.84664	1237.9375
2041.87881	1237.8375
2044.90903	1255.0375
2047.93729	1245.8375
2050.96359	1216.8375
2053.98794	1219.4375
2057.01034	1217.3375
2060.03078	1194.2375
2063.04927	1172.6375
2066.06582	1168.7375
2069.08042	1149.9375
2072.09307	1151.0375
2075.10378	1154.7375
2078.11255	1148.5375
2081.11938	1143.5375
2084.12426	1147.9375
2087.12722	1142.4375
2090.12824	1139.3375
2093.12732	1141.6375
2096.12447	1151.7375
2099.11969	1131.9375
2102.11299	1130.9375
2105.10435	1163.9375
2108.09379	1153.4375
2111.08131	1146.7375
2114.0669	1152.4375
2117.05057	1162.7375
2120.03233	1161.4375
2123.01216	1204.4375
2125.99008	1220.4375
2128.96609	1211.9375
2131.94018	1230.7375
2134.91236	1196.1375
2137.88263	1171.0375
2140.851	1157.2375
2143.81746	1160.7375
2146.78201	1128.5375
2149.74466	1103.1375
2152.7054	1094.5375
2155.66425	1071.8375
2158.6212	1057.6375
2161.57625	1037.3375
2164.52941	1021.4375
2167.48067	1033.8375
2170.43004	1037.5375
2173.37752	1073.6375
2176.32311	1058.4375
2179.26681	1075.8375
2182.20863	1085.7375
2185.14856	1077.6375
2188.08661	1063.9375
2191.02278	1067.5375
2193.95707	1029.3375
2196.88948	1008.0375
2199.82001	1023.1375
2202.74867	1003.4375
2205.67545	1007.9375
2208.60037	1022.4375
2211.52341	1003.5375
2214.44458	1004.4375
2217.36388	1001.3375
2220.28132	995.1375
2223.1969	973.3375
2226.11061	972.3375
2229.02246	958.3375
2231.93245	965.0375
2234.84058	944.1375
2237.74686	950.5375
2240.65128	943.8375
2243.55385	959.7375
2246.45456	944.3375
2249.35343	974.2375
2252.25044	991.3375
2255.14561	1019.5375
2258.03893	1040.9375
2260.93041	1076.2375
2263.82004	1083.3375
2266.70783	1093.9375
2269.59378	1062.7375
2272.4779	1057.2375
2275.36017	1073.3375
2278.24061	1054.5375
2281.11922	1026.4375
2283.996	1038.0375
2286.87094	1002.0375
2289.74405	1003.6375
2292.61534	985.3375
2295.4848	964.4375
2298.35243	946.6375
2301.21824	932.4375
2304.08223	924.9375
2306.94439	935.3375
2309.80474	942.1375
2312.66327	939.5375
2315.51999	917.6375
2318.37489	922.7375
2321.22797	906.0375
2324.07925	904.1375
2326.92871	905.1375
2329.77637	894.8375
2332.62222	898.4375
2335.46626	887.3375
2338.3085	890.9375
2341.14893	922.4375
2343.98756	928.1375
2346.8244	914.7375
2349.65943	923.9375
2352.49267	937.2375
2355.32411	959.0375
2358.15376	966.9375
2360.98161	990.4375
2363.80768	994.9375
2366.63195	1017.8375
2369.45444	1032.3375
2372.27514	1042.9375
2375.09405	1054.8375
2377.91118	1006.3375
2380.72652	1009.8375
2383.54009	990.9375
2386.35187	983.0375
2389.16188	954.0375
2391.97011	949.2375
2394.77657	921.7375
2397.58125	922.3375
2400.38416	906.2375
2403.18529	888.1375
2405.98466	868.7375
2408.78226	885.0375
2411.57809	872.5375
2414.37216	864.0375
2417.16446	864.4375
2419.955	855.9375
2422.74378	873.6375
2425.5308	863.9375
2428.31606	875.4375
2431.09956	887.4375
2433.88131	884.4375
2436.6613	905.7375
2439.43954	905.8375
2442.21603	910.0375
2444.99077	912.1375
2447.76377	932.1375
2450.53501	935.0375
2453.30451	932.9375
2456.07226	956.0375
2458.83827	936.1375
2461.60254	900.5375
2464.36507	936.9375
2467.12586	912.5375
2469.88492	928.4375
2472.64224	933.1375
2475.39782	927.8375
2478.15167	957.9375
2480.90379	965.6375
2483.65417	999.8375
2486.40283	1020.9375
2489.14976	1049.8375
2491.89497	1032.9375
2494.63845	1039.6375
2497.3802	1030.3375
2500.12024	1010.0375
2502.85855	988.1375
2505.59514	988.3375
2508.33002	944.1375
2511.06318	914.7375
2513.79462	889.6375
2516.52435	826.1375
2519.25237	798.1375
2521.97867	795.1375
2524.70327	787.4375
2527.42616	772.0375
2530.14734	779.9375
2532.86681	756.2375
2535.58458	764.8375
2538.30065	763.2375
2541.01501	788.4375
2543.72768	781.9375
2546.43864	794.9375
2549.14791	799.4375
2551.85548	797.6375
2554.56136	802.1375
2557.26554	817.3375
2559.96803	821.2375
2562.66883	829.9375
2565.36794	823.4375
2568.06536	799.0375
2570.7611	831.6375
2573.45514	819.9375
2576.14751	816.2375
2578.83819	800.4375
2581.52719	799.0375
2584.21451	788.0375
2586.90015	762.5375
2589.58411	751.2375
2592.2664	765.3375
2594.94701	770.5375
2597.62594	771.3375
2600.30321	721.3375
2602.9788	751.3375
2605.65273	744.8375
2608.32498	753.9375
2610.99557	783.9375
2613.66449	752.7375
2616.33175	776.1375
2618.99734	784.7375
2621.66128	780.3375
2624.32355	772.5375
2626.98416	761.0375
2629.64311	740.1375
2632.30041	730.0375
2634.95605	716.8375
2637.61004	695.8375
2640.26238	682.0375
2642.91306	674.1375
2645.56209	697.8375
2648.20948	690.0375
2650.85521	672.7375
2653.4993	706.1375
2656.14175	698.4375
2658.78255	698.1375
2661.42171	679.0375
2664.05923	720.9375
2666.6951	737.4375
2669.32934	747.7375
2671.96194	766.1375
2674.59291	752.3375
2677.22224	764.2375
2679.84993	751.8375
2682.476	736.1375
2685.10043	733.9375
2687.72324	718.9375
2690.34441	716.0375
2692.96396	711.0375
2695.58188	723.6375
2698.19818	709.0375
2700.81285	700.1375
2703.4259	696.2375
2706.03733	661.4375
2708.64714	671.3375
2711.25533	705.9375
2713.86191	723.9375
2716.46687	713.3375
2719.07021	714.2375
2721.67194	720.3375
2724.27206	737.6375
2726.87057	701.3375
2729.46747	686.9375
2732.06276	691.6375
2734.65644	667.4375
2737.24852	670.9375
2739.83899	642.8375
2742.42786	658.2375
2745.01513	659.4375
2747.60079	633.4375
2750.18486	616.2375
2752.76733	612.1375
2755.3482	606.5375
2757.92747	610.7375
2760.50515	591.7375
2763.08123	578.8375
2765.65573	591.5375
2768.22863	570.7375
2770.79994	574.8375
2773.36967	570.4375
2775.9378	568.8375
2778.50435	577.0375
2781.06932	580.2375
2783.6327	568.7375
2786.1945	593.6375
2788.75471	586.0375
2791.31335	588.9375
2793.87041	599.9375
2796.42589	591.8375
2798.97979	599.0375
2801.53212	611.5375
2804.08288	637.7375
2806.63206	638.5375
2809.17967	638.7375
2811.72571	668.9375
2814.27018	682.5375
2816.81308	703.4375
2819.35442	686.5375
2821.89419	727.5375
2824.43239	728.3375
2826.96904	763.0375
2829.50412	735.8375
2832.03763	734.3375
2834.56959	730.1375
2837.1	709.7375
2839.62884	698.2375
2842.15613	690.4375
2844.68186	699.2375
2847.20604	681.2375
2849.72867	692.5375
2852.24974	716.1375
2854.76927	697.6375
2857.28724	662.9375
2859.80367	750.8375
2862.31855	776.5375
2864.83189	787.2375
2867.34368	812.1375
2869.85393	840.2375
2872.36264	825.4375
2874.8698	833.4375
2877.37543	835.1375
2879.87952	821.8375
2882.38207	786.0375
2884.88308	779.3375
2887.38256	772.0375
2889.88051	747.8375
2892.37692	741.5375
2894.8718	721.1375
2897.36515	731.9375
2899.85698	736.7375
2902.34727	739.9375
2904.83604	757.2375
2907.32328	784.6375
2909.809	802.7375
2912.29319	818.7375
2914.77587	826.9375
2917.25702	836.8375
2919.73665	826.0375
2922.21476	805.5375
2924.69136	779.9375
2927.16644	751.6375
2929.64	725.9375
2932.11205	704.0375
2934.58258	708.5375
2937.05161	693.4375
2939.51912	698.8375
2941.98513	705.1375
2944.44962	698.7375
2946.91261	673.7375
2949.37409	691.2375
2951.83407	689.2375
2954.29254	692.7375
2956.74951	709.2375
2959.20498	694.3375
2961.65895	697.5375
2964.11142	685.2375
2966.56239	684.1375
2969.01186	679.2375
2971.45984	673.7375
2973.90632	666.2375
2976.35131	683.3375
2978.7948	676.8375
2981.23681	671.2375
2983.67732	684.1375
2986.11635	682.2375
2988.55388	666.5375
2990.98993	675.5375
2993.4245	680.4375
2995.85758	671.6375
2998.28917	678.6375
3000.71928	673.8375
3003.14791	687.9375
3005.57506	676.8375
3008.00073	666.7375
3010.42493	612.4375
3012.84764	666.4375
3015.26888	671.0375
3017.68865	658.4375
3020.10694	615.6375
3022.52376	637.3375
3024.9391	633.3375
3027.35298	620.4375
3029.76539	605.9375
3032.17632	595.6375
3034.5858	572.5375
3036.9938	570.4375
3039.40034	555.3375
3041.80542	530.6375
3044.20903	513.7375
3046.61118	499.6375
3049.01187	515.7375
3051.4111	497.3375
3053.80888	491.2375
3056.20519	491.1375
3058.60005	478.8375
3060.99345	507.6375
3063.3854	483.9375
3065.7759	474.8375
3068.16494	471.4375
3070.55254	459.5375
3072.93868	473.4375
3075.32338	463.6375
3077.70662	458.6375
3080.08842	456.7375
3082.46878	439.9375
3084.84769	460.3375
3087.22515	440.5375
3089.60118	452.3375
3091.97576	428.3375
3094.3489	442.9375
3096.72061	435.0375
3099.09087	418.9375
3101.4597	438.2375
3103.82709	415.4375
3106.19305	413.3375
3108.55757	419.6375
3110.92066	417.1375
3113.28232	437.7375
3115.64255	431.9375
3118.00134	435.4375
3120.35871	417.8375
3122.71466	410.8375
3125.06917	420.8375
3127.42226	418.4375
3129.77393	405.7375
3132.12417	423.9375
3134.47299	433.8375
3136.82039	417.3375
3139.16636	392.3375
3141.51092	422.1375
3143.85406	425.8375
3146.19579	412.3375
3148.53609	415.0375
3150.87499	420.2375
3153.21246	425.9375
3155.54853	432.7375
3157.88318	429.9375
3160.21642	437.8375
3162.54826	431.1375
3164.87868	436.0375
3167.2077	395.8375
3169.5353	412.6375
3171.86151	416.3375
3174.18631	392.6375
3176.5097	384.7375
3178.83169	386.7375
3181.15228	384.6375
3183.47147	358.9375
3185.78926	341.8375
3188.10565	353.2375
3190.42065	331.9375
3192.73424	346.4375
3195.04645	340.4375
3197.35725	327.1375
3199.66667	345.3375
3201.97469	346.6375
3204.28132	339.2375
3206.58656	358.1375
3208.8904	365.2375
3211.19287	354.0375
3213.49394	355.0375
3215.79363	358.4375
3218.09193	374.3375
3220.38884	365.8375
3222.68438	368.1375
3224.97853	345.7375
3227.2713	362.3375
3229.56269	346.8375
3231.8527	351.8375
3234.14133	344.5375
3236.42858	342.8375
3238.71446	319.2375
3240.99896	340.2375
3243.28209	321.1375
3245.56384	342.6375
3247.84423	324.9375
3250.12324	336.5375
3252.40088	334.1375
3254.67715	321.6375
3256.95205	311.7375
3259.22558	331.9375
3261.49775	333.1375
3263.76855	324.2375
3266.03799	331.8375
3268.30606	330.9375
3270.57277	340.3375
3272.83812	330.9375
3275.10211	338.8375
3277.36474	365.7375
3279.62601	366.4375
3281.88593	358.0375
3284.14448	350.7375
3286.40168	382.1375
3288.65753	384.2375
3290.91202	397.9375
3293.16516	396.5375
3295.41695	432.1375
3297.66738	445.3375
3299.91647	438.3375
3302.16421	455.4375
3304.4106	425.3375
3306.65564	460.5375
3308.89933	442.5375
3311.14169	454.8375
3313.38269	460.1375
3315.62236	456.9375
3317.86068	462.3375
3320.09766	470.5375
3322.3333	461.7375
3324.5676	470.9375
3326.80056	472.3375
3329.03219	483.7375
3331.26248	-0.1625
3333.49143	-0.9625
3335.71905	0.0375
