Data from AgNPs_UA_50uM_CRN_500uM_SU_RamanShift__88__14-10-30-330.txt Node

Date: Thu Aug 04 14:10:30 BST 2022
User: TCL
Spectrometer: QEP01345
Trigger mode: 4
Integration Time (sec): 1.000000E0
Scans to average: 10
Electric dark correction enabled: true
Nonlinearity correction enabled: false
Boxcar width: 0
XAxis mode: Raman Shifts
Number of Pixels in Spectrum: 1044
>>>>>Begin Spectral Data<<<<<
46.04893	0.075
50.45542	-1.125
54.85868	0.575
59.25871	-0.925
63.6555	13.975
68.04907	11.975
72.43941	13.175
76.82654	13.575
81.21044	14.575
85.59113	16.275
89.96862	18.275
94.34289	17.175
98.71396	18.275
103.08183	15.975
107.4465	16.075
111.80798	16.775
116.16626	17.875
120.52136	18.675
124.87327	22.675
129.222	22.375
133.56755	24.475
137.90993	25.575
142.24913	24.775
146.58517	31.175
150.91804	36.975
155.24774	42.275
159.57429	53.775
163.89768	67.875
168.21792	90.975
172.53501	125.275
176.84895	175.575
181.15975	251.875
185.46741	348.475
189.77193	489.475
194.07331	644.475
198.37157	832.475
202.6667	1028.975
206.9587	1216.275
211.24758	1414.675
215.53334	1611.275
219.81599	1807.275
224.09553	2039.275
228.37195	2297.075
232.64527	2561.475
236.91549	2832.875
241.18261	3098.075
245.44663	3318.575
249.70755	3491.875
253.96539	3672.475
258.22014	3806.775
262.4718	3942.575
266.72039	4063.875
270.96589	4094.075
275.20832	4073.975
279.44768	4022.275
283.68397	3967.375
287.91719	3926.275
292.14735	3923.475
296.37445	3958.775
300.59849	4070.675
304.81948	4195.475
309.03742	4305.875
313.25231	4335.075
317.46415	4280.275
321.67296	4148.775
325.87872	4009.475
330.08145	3956.075
334.28114	3988.775
338.47781	4013.175
342.67145	4108.175
346.86207	4234.375
351.04966	4386.675
355.23424	4537.575
359.4158	4631.375
363.59435	4715.875
367.76989	4761.475
371.94243	4793.675
376.11196	4802.475
380.27849	4841.575
384.44203	4840.775
388.60257	4854.775
392.76012	4883.875
396.91468	4954.175
401.06626	5046.275
405.21485	5116.175
409.36047	5070.375
413.50311	4925.675
417.64277	4791.575
421.77947	4726.375
425.9132	4712.575
430.04396	4775.275
434.17176	4879.975
438.2966	5054.075
442.41849	5291.175
446.53742	5547.675
450.6534	5824.675
454.76644	5980.675
458.87653	5959.175
462.98368	5792.675
467.08789	5578.575
471.18916	5351.675
475.2875	5095.175
479.38291	4889.675
483.4754	4773.575
487.56496	4692.875
491.6516	4634.075
495.73531	4595.375
499.81612	4589.375
503.89401	4609.475
507.96899	4642.575
512.04106	4675.175
516.11023	4732.575
520.1765	4796.575
524.23987	4851.975
528.30034	4877.675
532.35792	4873.475
536.41261	4793.475
540.46441	4694.175
544.51333	4671.775
548.55936	4726.075
552.60252	4792.375
556.64279	4881.575
560.6802	4875.775
564.71473	4868.375
568.7464	4901.275
572.7752	4907.675
576.80114	4880.975
580.82422	4897.775
584.84444	5002.475
588.86181	5240.875
592.87633	5509.075
596.888	5659.075
600.89682	5783.575
604.9028	6276.675
608.90594	7329.675
612.90624	8256.275
616.90371	7474.875
620.89834	5913.775
624.89015	5313.975
628.87913	5221.275
632.86528	5157.675
636.84862	5066.375
640.82913	4902.275
644.80683	4722.575
648.78172	4652.575
652.75379	4687.775
656.72306	4845.975
660.68952	4988.875
664.65319	4935.975
668.61405	4865.775
672.57211	4817.475
676.52738	4810.675
680.47986	4745.075
684.42955	4693.075
688.37646	4695.175
692.32058	4752.975
696.26192	4831.475
700.20048	4934.475
704.13626	4923.675
708.06928	4836.775
711.99952	4794.275
715.927	4824.775
719.85171	4855.075
723.77365	4834.475
727.69284	4775.075
731.60928	4771.975
735.52295	4785.175
739.43388	4831.075
743.34206	4857.875
747.24749	4893.675
751.15017	4924.875
755.05012	5006.175
758.94733	5175.275
762.8418	5565.575
766.73354	6134.375
770.62254	6650.175
774.50882	6873.375
778.39237	6574.475
782.27321	5953.475
786.15132	5399.775
790.02671	5052.675
793.89938	4916.875
797.76935	4858.875
801.6366	4840.075
805.50115	4820.975
809.36299	4796.375
813.22213	4781.375
817.07857	4760.875
820.93231	4754.575
824.78336	4760.075
828.63172	4779.275
832.47738	4788.175
836.32036	4817.075
840.16066	4822.375
843.99827	4839.875
847.8332	4806.975
851.66546	4788.375
855.49504	4778.575
859.32195	4781.575
863.1462	4771.975
866.96777	4756.575
870.78668	4761.475
874.60293	4769.675
878.41652	4791.875
882.22745	4816.575
886.03573	4826.575
889.84136	4830.875
893.64433	4785.975
897.44466	4769.375
901.24235	4786.775
905.0374	4761.775
908.8298	4741.075
912.61957	4744.875
916.40671	4771.275
920.19121	4826.875
923.97308	4890.375
927.75233	4954.775
931.52895	4965.275
935.30295	4888.475
939.07433	4787.075
942.84309	4725.675
946.60924	4708.775
950.37278	4688.875
954.13371	4658.675
957.89203	4638.875
961.64774	4621.675
965.40086	4604.075
969.15137	4581.675
972.89929	4582.275
976.64461	4575.375
980.38733	4604.575
984.12747	4636.175
987.86502	4668.175
991.59999	4766.475
995.33237	4873.775
999.06217	5111.575
1002.78939	5318.075
1006.51404	5414.675
1010.23611	5453.075
1013.95561	5560.775
1017.67255	5611.375
1021.38692	5542.275
1025.09872	5451.375
1028.80796	5496.575
1032.51465	5604.375
1036.21877	5694.975
1039.92035	5680.975
1043.61937	5574.375
1047.31584	5430.975
1051.00976	5289.575
1054.70114	5215.875
1058.38998	5201.275
1062.07627	5209.075
1065.76003	5230.375
1069.44126	5266.175
1073.11995	5309.375
1076.79611	5358.175
1080.46974	5420.475
1084.14085	5503.375
1087.80943	5574.475
1091.47549	5549.875
1095.13903	5450.675
1098.80005	5332.675
1102.45857	5258.375
1106.11456	5246.975
1109.76805	5308.275
1113.41903	5405.375
1117.06751	5510.875
1120.71348	5639.075
1124.35696	5798.375
1127.99793	5876.275
1131.63641	5819.875
1135.2724	5658.675
1138.90589	5522.875
1142.5369	5420.075
1146.16542	5360.475
1149.79145	5336.075
1153.415	5328.175
1157.03607	5383.175
1160.65467	5452.975
1164.27079	5643.075
1167.88443	5892.275
1171.49561	6290.675
1175.10432	6875.175
1178.71056	7661.375
1182.31434	8412.275
1185.91565	8828.975
1189.51451	8889.075
1193.11091	8552.775
1196.70485	7950.775
1200.29634	7373.975
1203.88538	6936.475
1207.47197	6521.975
1211.05612	6281.375
1214.63782	6161.875
1218.21708	6153.275
1221.79391	6209.775
1225.36829	6268.075
1228.94024	6258.475
1232.50976	6225.775
1236.07685	6234.275
1239.6415	6300.975
1243.20374	6348.175
1246.76355	6339.375
1250.32093	6411.575
1253.8759	6577.275
1257.42845	6810.775
1260.97859	7060.775
1264.52631	7272.675
1268.07163	7420.175
1271.61453	7519.475
1275.15503	7591.175
1278.69312	7715.375
1282.22882	7894.075
1285.76211	8119.775
1289.29301	8374.075
1292.82151	8616.775
1296.34761	8842.975
1299.87133	9179.475
1303.39266	9631.575
1306.9116	10356.275
1310.42815	11058.075
1313.94233	11408.775
1317.45412	11195.375
1320.96354	10731.575
1324.47058	10281.175
1327.97525	10011.675
1331.47754	10021.375
1334.97747	10246.875
1338.47502	10445.475
1341.97022	10582.075
1345.46305	10677.375
1348.95352	10937.175
1352.44163	11442.075
1355.92738	12089.675
1359.41078	12887.775
1362.89183	13259.975
1366.37053	12551.975
1369.84688	11105.575
1373.32088	9731.275
1376.79254	8896.875
1380.26186	8534.375
1383.72883	8317.975
1387.19347	8017.875
1390.65578	7628.975
1394.11575	7364.975
1397.57339	7225.175
1401.0287	7278.875
1404.48168	7491.275
1407.93234	7752.575
1411.38068	7996.875
1414.82669	8035.175
1418.27039	7893.975
1421.71177	7679.675
1425.15083	7633.075
1428.58758	7750.975
1432.02203	7973.675
1435.45416	8132.375
1438.88399	8143.075
1442.31151	8112.875
1445.73673	8021.675
1449.15965	7967.075
1452.58027	7812.175
1455.9986	7593.075
1459.41463	7522.375
1462.82837	7614.375
1466.23982	7819.175
1469.64898	8030.775
1473.05586	8238.175
1476.46045	8393.975
1479.86276	8519.875
1483.26279	8568.375
1486.66054	8641.775
1490.05602	8687.275
1493.44922	8865.775
1496.84016	9088.175
1500.22882	9492.975
1503.61521	10037.875
1506.99934	10577.675
1510.38121	10847.475
1513.76081	10621.275
1517.13816	9979.875
1520.51324	9220.675
1523.88607	8703.875
1527.25665	8428.275
1530.62498	8388.875
1533.99105	8423.575
1537.35488	8455.675
1540.71647	8432.175
1544.07581	8364.475
1547.4329	8179.875
1550.78776	7937.975
1554.14038	7671.075
1557.49077	7519.275
1560.83892	7439.575
1564.18484	7426.475
1567.52853	7514.375
1570.86999	7616.475
1574.20922	7622.275
1577.54624	7514.975
1580.88103	7305.875
1584.2136	7109.575
1587.54395	7156.975
1590.87208	7508.175
1594.19801	8297.075
1597.52172	9195.475
1600.84321	9854.275
1604.16251	9822.375
1607.47959	9129.675
1610.79447	8216.675
1614.10715	7352.575
1617.41763	6748.875
1620.7259	6379.075
1624.03199	6216.775
1627.33587	6195.275
1630.63757	6376.275
1633.93707	6803.475
1637.23439	7461.075
1640.52951	8320.875
1643.82246	9280.375
1647.11321	9925.875
1650.40179	9751.275
1653.68819	8828.175
1656.97241	7576.175
1660.25446	6552.475
1663.53433	5871.375
1666.81203	5469.675
1670.08756	5201.575
1673.36092	5019.075
1676.63211	4916.375
1679.90115	4858.475
1683.16801	4784.675
1686.43272	4726.575
1689.69527	4694.175
1692.95567	4679.275
1696.2139	4646.775
1699.46999	4643.775
1702.72392	4632.375
1705.97571	4635.175
1709.22535	4651.175
1712.47284	4639.175
1715.71819	4632.075
1718.96139	4635.275
1722.20246	4606.775
1725.44139	4597.475
1728.67818	4576.275
1731.91284	4539.675
1735.14537	4516.675
1738.37576	4506.175
1741.60403	4497.475
1744.83017	4485.875
1748.05418	4464.075
1751.27607	4454.975
1754.49584	4436.775
1757.71349	4432.775
1760.92903	4429.975
1764.14244	4432.175
1767.35375	4423.375
1770.56294	4416.375
1773.77002	4412.275
1776.97499	4394.375
1780.17785	4389.375
1783.37861	4390.775
1786.57727	4384.075
1789.77382	4368.075
1792.96828	4378.775
1796.16064	4372.775
1799.3509	4363.375
1802.53907	4368.775
1805.72514	4356.075
1808.90913	4359.375
1812.09102	4327.075
1815.27083	4328.275
1818.44856	4307.975
1821.6242	4306.275
1824.79776	4298.075
1827.96924	4269.875
1831.13864	4266.075
1834.30597	4266.075
1837.47122	4260.475
1840.6344	4254.275
1843.7955	4251.275
1846.95454	4271.375
1850.11151	4276.975
1853.26642	4256.675
1856.41926	4284.675
1859.57004	4285.275
1862.71876	4260.775
1865.86542	4262.275
1869.01003	4273.975
1872.15258	4269.475
1875.29308	4262.875
1878.43152	4270.875
1881.56792	4272.875
1884.70227	4248.975
1887.83457	4249.475
1890.96482	4246.075
1894.09304	4236.175
1897.21921	4241.675
1900.34335	4227.075
1903.46544	4246.875
1906.58551	4219.175
1909.70353	4211.275
1912.81953	4206.275
1915.93349	4212.175
1919.04543	4203.675
1922.15534	4199.275
1925.26322	4184.775
1928.36908	4209.075
1931.47292	4197.375
1934.57473	4183.775
1937.67453	4182.675
1940.77232	4159.175
1943.86808	4144.075
1946.96184	4148.975
1950.05358	4136.075
1953.14331	4126.275
1956.23103	4101.175
1959.31675	4080.575
1962.40046	4075.175
1965.48217	4069.575
1968.56188	4058.175
1971.63959	4051.975
1974.7153	4042.975
1977.78901	4033.075
1980.86073	4023.875
1983.93046	4006.575
1986.99819	3990.875
1990.06394	3980.775
1993.1277	3988.275
1996.18947	3951.775
1999.24925	3931.975
2002.30706	3925.275
2005.36288	3926.075
2008.41672	3909.275
2011.46859	3913.075
2014.51848	3897.675
2017.56639	3870.775
2020.61233	3877.275
2023.6563	3849.475
2026.6983	3840.075
2029.73833	3829.575
2032.7764	3821.475
2035.8125	3811.275
2038.84664	3822.775
2041.87881	3805.075
2044.90903	3804.275
2047.93729	3798.775
2050.96359	3804.475
2053.98794	3790.275
2057.01034	3796.575
2060.03078	3790.275
2063.04927	3799.475
2066.06582	3785.375
2069.08042	3782.975
2072.09307	3765.375
2075.10378	3761.775
2078.11255	3752.475
2081.11938	3766.875
2084.12426	3771.675
2087.12722	3755.375
2090.12824	3738.875
2093.12732	3755.875
2096.12447	3749.975
2099.11969	3765.175
2102.11299	3751.975
2105.10435	3746.675
2108.09379	3755.875
2111.08131	3754.075
2114.0669	3750.675
2117.05057	3745.475
2120.03233	3764.675
2123.01216	3745.475
2125.99008	3761.175
2128.96609	3768.875
2131.94018	3756.375
2134.91236	3759.875
2137.88263	3755.975
2140.851	3758.575
2143.81746	3762.875
2146.78201	3757.475
2149.74466	3762.175
2152.7054	3754.275
2155.66425	3758.375
2158.6212	3757.975
2161.57625	3752.075
2164.52941	3744.175
2167.48067	3755.675
2170.43004	3751.275
2173.37752	3756.975
2176.32311	3744.675
2179.26681	3735.675
2182.20863	3744.475
2185.14856	3756.975
2188.08661	3745.275
2191.02278	3744.675
2193.95707	3734.875
2196.88948	3756.475
2199.82001	3743.775
2202.74867	3740.175
2205.67545	3730.275
2208.60037	3736.675
2211.52341	3737.075
2214.44458	3735.875
2217.36388	3726.675
2220.28132	3721.175
2223.1969	3688.975
2226.11061	3692.975
2229.02246	3682.975
2231.93245	3682.175
2234.84058	3672.475
2237.74686	3668.575
2240.65128	3663.175
2243.55385	3660.675
2246.45456	3652.575
2249.35343	3635.475
2252.25044	3656.175
2255.14561	3651.075
2258.03893	3646.275
2260.93041	3628.475
2263.82004	3622.175
2266.70783	3625.775
2269.59378	3608.675
2272.4779	3610.675
2275.36017	3585.875
2278.24061	3568.375
2281.11922	3566.575
2283.996	3559.275
2286.87094	3557.075
2289.74405	3550.075
2292.61534	3548.275
2295.4848	3542.575
2298.35243	3555.975
2301.21824	3554.375
2304.08223	3547.775
2306.94439	3561.375
2309.80474	3544.575
2312.66327	3553.475
2315.51999	3557.375
2318.37489	3547.875
2321.22797	3547.875
2324.07925	3548.975
2326.92871	3518.475
2329.77637	3530.775
2332.62222	3517.175
2335.46626	3521.675
2338.3085	3525.675
2341.14893	3518.675
2343.98756	3537.875
2346.8244	3531.975
2349.65943	3531.775
2352.49267	3525.775
2355.32411	3521.775
2358.15376	3515.175
2360.98161	3520.475
2363.80768	3507.775
2366.63195	3511.575
2369.45444	3502.875
2372.27514	3506.175
2375.09405	3506.675
2377.91118	3495.775
2380.72652	3461.375
2383.54009	3467.175
2386.35187	3458.375
2389.16188	3451.075
2391.97011	3453.675
2394.77657	3437.375
2397.58125	3424.475
2400.38416	3412.975
2403.18529	3423.275
2405.98466	3420.475
2408.78226	3403.875
2411.57809	3389.475
2414.37216	3383.875
2417.16446	3394.575
2419.955	3368.375
2422.74378	3378.575
2425.5308	3376.275
2428.31606	3372.875
2431.09956	3357.575
2433.88131	3357.875
2436.6613	3365.675
2439.43954	3367.875
2442.21603	3360.075
2444.99077	3358.875
2447.76377	3357.575
2450.53501	3352.975
2453.30451	3364.475
2456.07226	3358.075
2458.83827	3343.175
2461.60254	3346.475
2464.36507	3343.975
2467.12586	3336.475
2469.88492	3346.175
2472.64224	3338.775
2475.39782	3337.075
2478.15167	3330.575
2480.90379	3347.675
2483.65417	3327.775
2486.40283	3341.675
2489.14976	3360.375
2491.89497	3358.475
2494.63845	3360.675
2497.3802	3353.775
2500.12024	3346.775
2502.85855	3345.375
2505.59514	3359.475
2508.33002	3340.175
2511.06318	3340.375
2513.79462	3330.275
2516.52435	3318.875
2519.25237	3328.175
2521.97867	3305.575
2524.70327	3297.675
2527.42616	3309.275
2530.14734	3298.475
2532.86681	3307.675
2535.58458	3320.375
2538.30065	3316.575
2541.01501	3306.775
2543.72768	3303.475
2546.43864	3302.575
2549.14791	3285.375
2551.85548	3296.675
2554.56136	3287.375
2557.26554	3287.475
2559.96803	3295.975
2562.66883	3259.075
2565.36794	3269.475
2568.06536	3270.675
2570.7611	3256.975
2573.45514	3258.375
2576.14751	3255.775
2578.83819	3246.075
2581.52719	3245.675
2584.21451	3240.075
2586.90015	3241.775
2589.58411	3247.575
2592.2664	3244.775
2594.94701	3238.875
2597.62594	3245.875
2600.30321	3249.975
2602.9788	3240.475
2605.65273	3239.875
2608.32498	3237.875
2610.99557	3245.675
2613.66449	3246.275
2616.33175	3244.175
2618.99734	3233.475
2621.66128	3227.475
2624.32355	3239.175
2626.98416	3230.975
2629.64311	3234.575
2632.30041	3236.275
2634.95605	3228.975
2637.61004	3217.075
2640.26238	3212.175
2642.91306	3229.275
2645.56209	3226.175
2648.20948	3214.775
2650.85521	3210.975
2653.4993	3218.675
2656.14175	3215.775
2658.78255	3223.575
2661.42171	3208.175
2664.05923	3207.175
2666.6951	3217.675
2669.32934	3206.675
2671.96194	3212.875
2674.59291	3223.675
2677.22224	3225.975
2679.84993	3223.975
2682.476	3199.175
2685.10043	3200.275
2687.72324	3211.075
2690.34441	3202.375
2692.96396	3195.275
2695.58188	3200.675
2698.19818	3192.975
2700.81285	3212.575
2703.4259	3202.075
2706.03733	3209.575
2708.64714	3204.675
2711.25533	3209.975
2713.86191	3189.275
2716.46687	3214.475
2719.07021	3188.175
2721.67194	3196.875
2724.27206	3219.775
2726.87057	3203.975
2729.46747	3213.475
2732.06276	3202.175
2734.65644	3212.375
2737.24852	3200.075
2739.83899	3197.475
2742.42786	3188.775
2745.01513	3185.575
2747.60079	3203.375
2750.18486	3194.675
2752.76733	3189.275
2755.3482	3196.575
2757.92747	3180.475
2760.50515	3165.775
2763.08123	3192.375
2765.65573	3172.775
2768.22863	3171.175
2770.79994	3168.975
2773.36967	3166.975
2775.9378	3183.175
2778.50435	3190.275
2781.06932	3176.375
2783.6327	3179.775
2786.1945	3176.375
2788.75471	3178.675
2791.31335	3173.975
2793.87041	3189.875
2796.42589	3165.475
2798.97979	3159.375
2801.53212	3142.575
2804.08288	3159.875
2806.63206	3137.275
2809.17967	3125.675
2811.72571	3123.075
2814.27018	3114.175
2816.81308	3117.675
2819.35442	3110.975
2821.89419	3106.075
2824.43239	3098.775
2826.96904	3098.975
2829.50412	3100.375
2832.03763	3094.875
2834.56959	3092.175
2837.1	3083.275
2839.62884	3093.075
2842.15613	3071.775
2844.68186	3072.775
2847.20604	3072.775
2849.72867	3062.075
2852.24974	3064.275
2854.76927	3048.475
2857.28724	3038.875
2859.80367	3041.775
2862.31855	3045.975
2864.83189	3054.075
2867.34368	3046.375
2869.85393	3038.675
2872.36264	3034.775
2874.8698	3037.975
2877.37543	3031.875
2879.87952	3024.275
2882.38207	3016.475
2884.88308	3019.675
2887.38256	3012.875
2889.88051	3004.975
2892.37692	3015.875
2894.8718	2998.675
2897.36515	3007.775
2899.85698	2991.275
2902.34727	3021.775
2904.83604	3018.175
2907.32328	3014.575
2909.809	3008.275
2912.29319	3018.875
2914.77587	3017.775
2917.25702	3026.375
2919.73665	3028.475
2922.21476	3011.875
2924.69136	3010.275
2927.16644	3015.275
2929.64	3004.975
2932.11205	3005.575
2934.58258	3002.675
2937.05161	2999.375
2939.51912	3005.375
2941.98513	2995.175
2944.44962	2987.775
2946.91261	2981.375
2949.37409	2975.175
2951.83407	2980.275
2954.29254	2989.575
2956.74951	2976.075
2959.20498	2968.575
2961.65895	2953.575
2964.11142	2950.575
2966.56239	2952.175
2969.01186	2965.475
2971.45984	2950.975
2973.90632	2946.875
2976.35131	2930.775
2978.7948	2933.375
2981.23681	2937.475
2983.67732	2935.475
2986.11635	2906.375
2988.55388	2903.175
2990.98993	2892.775
2993.4245	2881.275
2995.85758	2881.075
2998.28917	2876.775
3000.71928	2864.375
3003.14791	2869.275
3005.57506	2862.275
3008.00073	2852.475
3010.42493	2851.475
3012.84764	2835.675
3015.26888	2819.875
3017.68865	2824.275
3020.10694	2819.275
3022.52376	2815.575
3024.9391	2789.975
3027.35298	2790.075
3029.76539	2773.075
3032.17632	2772.875
3034.5858	2779.575
3036.9938	2761.475
3039.40034	2768.475
3041.80542	2766.375
3044.20903	2775.675
3046.61118	2761.975
3049.01187	2752.475
3051.4111	2736.675
3053.80888	2743.675
3056.20519	2724.075
3058.60005	2732.775
3060.99345	2721.575
3063.3854	2706.575
3065.7759	2694.475
3068.16494	2679.575
3070.55254	2669.875
3072.93868	2669.275
3075.32338	2663.175
3077.70662	2663.275
3080.08842	2651.875
3082.46878	2632.375
3084.84769	2630.875
3087.22515	2638.575
3089.60118	2630.475
3091.97576	2634.475
3094.3489	2624.175
3096.72061	2620.875
3099.09087	2619.575
3101.4597	2622.575
3103.82709	2607.275
3106.19305	2607.575
3108.55757	2607.275
3110.92066	2597.175
3113.28232	2595.375
3115.64255	2592.375
3118.00134	2579.075
3120.35871	2584.075
3122.71466	2574.175
3125.06917	2558.175
3127.42226	2555.475
3129.77393	2567.575
3132.12417	2556.975
3134.47299	2556.575
3136.82039	2543.075
3139.16636	2543.175
3141.51092	2531.875
3143.85406	2543.475
3146.19579	2526.075
3148.53609	2533.875
3150.87499	2519.875
3153.21246	2524.075
3155.54853	2528.775
3157.88318	2524.975
3160.21642	2529.875
3162.54826	2528.475
3164.87868	2530.275
3167.2077	2516.075
3169.5353	2514.275
3171.86151	2515.275
3174.18631	2517.775
3176.5097	2518.175
3178.83169	2507.875
3181.15228	2485.175
3183.47147	2494.075
3185.78926	2489.075
3188.10565	2477.375
3190.42065	2481.475
3192.73424	2482.475
3195.04645	2469.875
3197.35725	2483.575
3199.66667	2463.375
3201.97469	2475.375
3204.28132	2464.675
3206.58656	2466.575
3208.8904	2473.875
3211.19287	2457.575
3213.49394	2457.075
3215.79363	2466.075
3218.09193	2459.775
3220.38884	2459.375
3222.68438	2458.675
3224.97853	2453.875
3227.2713	2448.775
3229.56269	2441.875
3231.8527	2445.375
3234.14133	2426.275
3236.42858	2436.375
3238.71446	2429.075
3240.99896	2425.175
3243.28209	2417.375
3245.56384	2417.575
3247.84423	2418.875
3250.12324	2418.175
3252.40088	2408.975
3254.67715	2417.775
3256.95205	2400.775
3259.22558	2396.175
3261.49775	2392.275
3263.76855	2402.875
3266.03799	2394.675
3268.30606	2393.175
3270.57277	2388.075
3272.83812	2382.375
3275.10211	2373.375
3277.36474	2371.975
3279.62601	2366.875
3281.88593	2359.675
3284.14448	2367.675
3286.40168	2365.575
3288.65753	2362.175
3290.91202	2367.675
3293.16516	2353.675
3295.41695	2342.675
3297.66738	2337.475
3299.91647	2315.575
3302.16421	2299.475
3304.4106	2298.275
3306.65564	2271.775
3308.89933	2255.875
3311.14169	2240.575
3313.38269	2218.775
3315.62236	2204.075
3317.86068	2193.575
3320.09766	2166.675
3322.3333	2159.175
3324.5676	2144.475
3326.80056	2109.675
3329.03219	2097.575
3331.26248	0.475
3333.49143	0.575
3335.71905	0.475
