Data from AgNPs_UA_10uM_CRN_500uM_SU_RamanShift__85__13-19-30-270.txt Node

Date: Thu Aug 04 13:19:30 BST 2022
User: TCL
Spectrometer: QEP01345
Trigger mode: 4
Integration Time (sec): 1.000000E0
Scans to average: 10
Electric dark correction enabled: true
Nonlinearity correction enabled: false
Boxcar width: 0
XAxis mode: Raman Shifts
Number of Pixels in Spectrum: 1044
>>>>>Begin Spectral Data<<<<<
46.04893	0.0625
50.45542	-0.4375
54.85868	1.3625
59.25871	0.2625
63.6555	20.3625
68.04907	20.4625
72.43941	22.4625
76.82654	22.5625
81.21044	24.1625
85.59113	27.7625
89.96862	26.0625
94.34289	27.6625
98.71396	26.8625
103.08183	30.3625
107.4465	29.1625
111.80798	30.0625
116.16626	33.1625
120.52136	33.9625
124.87327	35.6625
129.222	37.0625
133.56755	38.0625
137.90993	41.3625
142.24913	47.7625
146.58517	51.7625
150.91804	63.1625
155.24774	78.9625
159.57429	95.9625
163.89768	130.0625
168.21792	168.6625
172.53501	234.0625
176.84895	328.7625
181.15975	465.3625
185.46741	664.8625
189.77193	913.1625
194.07331	1228.7625
198.37157	1588.6625
202.6667	1958.9625
206.9587	2335.4625
211.24758	2715.8625
215.53334	3090.7625
219.81599	3496.8625
224.09553	3946.2625
228.37195	4438.6625
232.64527	4956.3625
236.91549	5504.3625
241.18261	5985.3625
245.44663	6397.1625
249.70755	6720.8625
253.96539	7056.9625
258.22014	7322.6625
262.4718	7539.8625
266.72039	7658.4625
270.96589	7728.0625
275.20832	7687.8625
279.44768	7614.7625
283.68397	7478.0625
287.91719	7388.1625
292.14735	7401.7625
296.37445	7485.3625
300.59849	7658.1625
304.81948	7890.5625
309.03742	8074.0625
313.25231	8188.3625
317.46415	8128.6625
321.67296	7859.9625
325.87872	7651.7625
330.08145	7524.1625
334.28114	7521.9625
338.47781	7586.1625
342.67145	7723.2625
346.86207	7903.9625
351.04966	8196.7625
355.23424	8433.5625
359.4158	8654.2625
363.59435	8796.8625
367.76989	8824.2625
371.94243	8839.3625
376.11196	8855.1625
380.27849	8877.4625
384.44203	8917.6625
388.60257	8972.5625
392.76012	9049.1625
396.91468	9179.2625
401.06626	9312.8625
405.21485	9389.0625
409.36047	9288.4625
413.50311	9060.6625
417.64277	8845.8625
421.77947	8711.4625
425.9132	8634.2625
430.04396	8636.1625
434.17176	8695.2625
438.2966	8810.3625
442.41849	8931.9625
446.53742	9185.0625
450.6534	9365.2625
454.76644	9503.2625
458.87653	9553.8625
462.98368	9559.1625
467.08789	9494.4625
471.18916	9345.5625
475.2875	9181.8625
479.38291	8991.3625
483.4754	8889.3625
487.56496	8821.3625
491.6516	8791.5625
495.73531	8780.6625
499.81612	8799.0625
503.89401	8869.8625
507.96899	8931.9625
512.04106	8956.4625
516.11023	8999.8625
520.1765	9031.1625
524.23987	9071.3625
528.30034	9055.7625
532.35792	9050.4625
536.41261	8965.6625
540.46441	8885.8625
544.51333	8855.0625
548.55936	8903.9625
552.60252	9056.0625
556.64279	9183.3625
560.6802	9298.0625
564.71473	9379.9625
568.7464	9452.7625
572.7752	9400.3625
576.80114	9238.6625
580.82422	9109.9625
584.84444	9066.8625
588.86181	9120.8625
592.87633	9215.6625
596.888	9390.8625
600.89682	9787.5625
604.9028	10740.1625
608.90594	12678.1625
612.90624	14448.8625
616.90371	13372.5625
620.89834	10808.8625
624.89015	9806.3625
628.87913	9758.8625
632.86528	9879.8625
636.84862	9839.8625
640.82913	9604.8625
644.80683	9294.7625
648.78172	9103.0625
652.75379	9129.6625
656.72306	9369.4625
660.68952	9637.5625
664.65319	9611.2625
668.61405	9529.6625
672.57211	9592.3625
676.52738	9593.5625
680.47986	9375.7625
684.42955	9200.7625
688.37646	9211.4625
692.32058	9270.7625
696.26192	9455.7625
700.20048	9627.7625
704.13626	9640.1625
708.06928	9517.4625
711.99952	9400.0625
715.927	9384.3625
719.85171	9450.2625
723.77365	9436.3625
727.69284	9378.9625
731.60928	9329.4625
735.52295	9307.8625
739.43388	9353.6625
743.34206	9377.9625
747.24749	9417.2625
751.15017	9417.9625
755.05012	9513.1625
758.94733	9795.1625
762.8418	10484.6625
766.73354	11496.8625
770.62254	12337.6625
774.50882	12526.5625
778.39237	12186.9625
782.27321	11491.4625
786.15132	10675.6625
790.02671	10058.7625
793.89938	9752.6625
797.76935	9595.4625
801.6366	9493.8625
805.50115	9445.5625
809.36299	9430.2625
813.22213	9399.3625
817.07857	9403.1625
820.93231	9370.1625
824.78336	9390.9625
828.63172	9415.1625
832.47738	9420.4625
836.32036	9414.7625
840.16066	9417.8625
843.99827	9429.9625
847.8332	9445.2625
851.66546	9424.5625
855.49504	9431.4625
859.32195	9471.5625
863.1462	9450.4625
866.96777	9424.6625
870.78668	9429.4625
874.60293	9456.6625
878.41652	9490.3625
882.22745	9599.7625
886.03573	9615.6625
889.84136	9623.4625
893.64433	9575.3625
897.44466	9547.4625
901.24235	9538.2625
905.0374	9498.8625
908.8298	9479.2625
912.61957	9470.8625
916.40671	9493.6625
920.19121	9567.7625
923.97308	9607.5625
927.75233	9713.4625
931.52895	9790.6625
935.30295	9734.8625
939.07433	9578.4625
942.84309	9482.8625
946.60924	9481.7625
950.37278	9438.5625
954.13371	9393.2625
957.89203	9374.7625
961.64774	9377.4625
965.40086	9376.6625
969.15137	9341.1625
972.89929	9339.2625
976.64461	9354.8625
980.38733	9359.2625
984.12747	9397.2625
987.86502	9464.3625
991.59999	9546.9625
995.33237	9635.5625
999.06217	9834.7625
1002.78939	10036.6625
1006.51404	10169.7625
1010.23611	10309.3625
1013.95561	10390.4625
1017.67255	10420.8625
1021.38692	10462.3625
1025.09872	10430.0625
1028.80796	10450.3625
1032.51465	10581.1625
1036.21877	10679.3625
1039.92035	10676.1625
1043.61937	10608.8625
1047.31584	10469.6625
1051.00976	10385.8625
1054.70114	10356.6625
1058.38998	10361.7625
1062.07627	10413.2625
1065.76003	10464.0625
1069.44126	10544.1625
1073.11995	10710.4625
1076.79611	10908.2625
1080.46974	11011.6625
1084.14085	11110.0625
1087.80943	11185.1625
1091.47549	11216.6625
1095.13903	11238.1625
1098.80005	11207.6625
1102.45857	11262.8625
1106.11456	11251.9625
1109.76805	11107.9625
1113.41903	11087.4625
1117.06751	11186.7625
1120.71348	11327.2625
1124.35696	11493.5625
1127.99793	11579.4625
1131.63641	11427.9625
1135.2724	11186.4625
1138.90589	10963.3625
1142.5369	10804.9625
1146.16542	10718.5625
1149.79145	10639.9625
1153.415	10579.0625
1157.03607	10528.7625
1160.65467	10600.7625
1164.27079	10857.7625
1167.88443	11183.1625
1171.49561	11688.2625
1175.10432	12388.6625
1178.71056	13323.3625
1182.31434	14138.4625
1185.91565	14567.2625
1189.51451	14598.6625
1193.11091	14356.4625
1196.70485	13990.6625
1200.29634	13607.4625
1203.88538	13207.3625
1207.47197	12722.6625
1211.05612	12263.0625
1214.63782	11925.4625
1218.21708	11689.2625
1221.79391	11598.5625
1225.36829	11602.4625
1228.94024	11574.7625
1232.50976	11499.4625
1236.07685	11479.8625
1239.6415	11461.6625
1243.20374	11513.4625
1246.76355	11600.7625
1250.32093	11730.0625
1253.8759	11912.7625
1257.42845	12223.4625
1260.97859	12534.7625
1264.52631	12831.6625
1268.07163	13084.1625
1271.61453	13259.4625
1275.15503	13374.7625
1278.69312	13474.8625
1282.22882	13569.2625
1285.76211	13677.0625
1289.29301	13800.0625
1292.82151	13999.7625
1296.34761	14271.8625
1299.87133	14718.0625
1303.39266	15476.5625
1306.9116	16577.0625
1310.42815	17757.4625
1313.94233	18308.1625
1317.45412	17976.1625
1320.96354	17104.1625
1324.47058	16197.3625
1327.97525	15427.3625
1331.47754	14926.9625
1334.97747	14820.4625
1338.47502	14953.7625
1341.97022	15432.5625
1345.46305	16114.4625
1348.95352	17095.8625
1352.44163	18128.4625
1355.92738	19205.0625
1359.41078	20391.3625
1362.89183	21073.3625
1366.37053	20045.4625
1369.84688	17664.8625
1373.32088	15481.2625
1376.79254	14220.3625
1380.26186	13639.6625
1383.72883	13280.2625
1387.19347	12954.0625
1390.65578	12576.4625
1394.11575	12264.2625
1397.57339	12046.3625
1401.0287	11979.9625
1404.48168	12013.6625
1407.93234	12098.8625
1411.38068	12322.0625
1414.82669	12454.2625
1418.27039	12473.5625
1421.71177	12440.7625
1425.15083	12331.1625
1428.58758	12313.9625
1432.02203	12370.3625
1435.45416	12480.2625
1438.88399	12461.1625
1442.31151	12419.4625
1445.73673	12384.8625
1449.15965	12398.2625
1452.58027	12303.2625
1455.9986	12253.8625
1459.41463	12241.7625
1462.82837	12354.6625
1466.23982	12527.2625
1469.64898	12736.4625
1473.05586	12907.3625
1476.46045	13047.4625
1479.86276	13182.3625
1483.26279	13321.4625
1486.66054	13541.7625
1490.05602	13835.8625
1493.44922	14331.3625
1496.84016	15049.3625
1500.22882	16083.7625
1503.61521	17308.7625
1506.99934	18430.5625
1510.38121	19055.1625
1513.76081	18769.5625
1517.13816	17597.8625
1520.51324	16087.3625
1523.88607	14871.0625
1527.25665	14167.9625
1530.62498	13793.6625
1533.99105	13616.1625
1537.35488	13527.7625
1540.71647	13428.1625
1544.07581	13356.1625
1547.4329	13228.8625
1550.78776	13074.3625
1554.14038	12929.6625
1557.49077	12905.3625
1560.83892	12977.6625
1564.18484	13219.6625
1567.52853	13399.2625
1570.86999	13560.0625
1574.20922	13578.5625
1577.54624	13417.4625
1580.88103	12985.0625
1584.2136	12518.0625
1587.54395	12323.3625
1590.87208	12539.6625
1594.19801	13027.3625
1597.52172	13678.6625
1600.84321	14008.4625
1604.16251	13881.5625
1607.47959	13556.6625
1610.79447	13044.9625
1614.10715	12412.0625
1617.41763	11770.9625
1620.7259	11336.6625
1624.03199	11089.6625
1627.33587	11040.7625
1630.63757	11194.3625
1633.93707	11622.2625
1637.23439	12344.1625
1640.52951	13362.7625
1643.82246	14588.3625
1647.11321	15616.6625
1650.40179	15905.0625
1653.68819	15015.3625
1656.97241	13403.3625
1660.25446	11908.2625
1663.53433	10907.2625
1666.81203	10313.7625
1670.08756	9975.3625
1673.36092	9733.9625
1676.63211	9618.1625
1679.90115	9471.2625
1683.16801	9392.0625
1686.43272	9304.0625
1689.69527	9253.0625
1692.95567	9216.6625
1696.2139	9185.3625
1699.46999	9166.9625
1702.72392	9131.7625
1705.97571	9132.7625
1709.22535	9148.0625
1712.47284	9137.7625
1715.71819	9133.3625
1718.96139	9107.4625
1722.20246	9112.4625
1725.44139	9069.6625
1728.67818	9017.0625
1731.91284	8966.5625
1735.14537	8931.3625
1738.37576	8901.8625
1741.60403	8904.9625
1744.83017	8829.9625
1748.05418	8830.2625
1751.27607	8837.1625
1754.49584	8793.0625
1757.71349	8793.8625
1760.92903	8812.3625
1764.14244	8757.3625
1767.35375	8730.1625
1770.56294	8753.1625
1773.77002	8732.4625
1776.97499	8694.1625
1780.17785	8661.6625
1783.37861	8645.4625
1786.57727	8668.7625
1789.77382	8633.8625
1792.96828	8624.2625
1796.16064	8620.2625
1799.3509	8581.6625
1802.53907	8606.8625
1805.72514	8559.4625
1808.90913	8547.6625
1812.09102	8534.2625
1815.27083	8493.0625
1818.44856	8487.5625
1821.6242	8455.4625
1824.79776	8447.1625
1827.96924	8429.3625
1831.13864	8429.9625
1834.30597	8415.5625
1837.47122	8403.2625
1840.6344	8360.0625
1843.7955	8385.1625
1846.95454	8393.8625
1850.11151	8387.5625
1853.26642	8383.1625
1856.41926	8360.4625
1859.57004	8377.6625
1862.71876	8365.8625
1865.86542	8361.8625
1869.01003	8360.7625
1872.15258	8312.0625
1875.29308	8328.9625
1878.43152	8320.3625
1881.56792	8312.7625
1884.70227	8302.7625
1887.83457	8263.7625
1890.96482	8268.7625
1894.09304	8243.0625
1897.21921	8222.0625
1900.34335	8235.6625
1903.46544	8227.5625
1906.58551	8218.8625
1909.70353	8203.3625
1912.81953	8210.3625
1915.93349	8180.1625
1919.04543	8153.9625
1922.15534	8153.2625
1925.26322	8168.6625
1928.36908	8111.2625
1931.47292	8110.3625
1934.57473	8107.5625
1937.67453	8072.2625
1940.77232	8059.1625
1943.86808	8046.6625
1946.96184	7999.6625
1950.05358	7994.5625
1953.14331	7987.0625
1956.23103	7940.7625
1959.31675	7919.7625
1962.40046	7903.1625
1965.48217	7882.3625
1968.56188	7847.5625
1971.63959	7824.2625
1974.7153	7817.3625
1977.78901	7803.1625
1980.86073	7769.6625
1983.93046	7749.8625
1986.99819	7715.1625
1990.06394	7695.2625
1993.1277	7673.8625
1996.18947	7627.9625
1999.24925	7609.9625
2002.30706	7591.8625
2005.36288	7550.5625
2008.41672	7545.7625
2011.46859	7510.3625
2014.51848	7503.3625
2017.56639	7477.5625
2020.61233	7454.9625
2023.6563	7421.0625
2026.6983	7413.2625
2029.73833	7381.9625
2032.7764	7383.8625
2035.8125	7358.3625
2038.84664	7347.6625
2041.87881	7329.6625
2044.90903	7305.3625
2047.93729	7308.1625
2050.96359	7282.8625
2053.98794	7289.7625
2057.01034	7279.7625
2060.03078	7272.2625
2063.04927	7266.3625
2066.06582	7239.8625
2069.08042	7242.6625
2072.09307	7246.2625
2075.10378	7226.8625
2078.11255	7225.2625
2081.11938	7206.4625
2084.12426	7196.2625
2087.12722	7186.8625
2090.12824	7189.8625
2093.12732	7198.5625
2096.12447	7199.1625
2099.11969	7208.0625
2102.11299	7219.7625
2105.10435	7217.2625
2108.09379	7203.3625
2111.08131	7200.5625
2114.0669	7211.1625
2117.05057	7230.0625
2120.03233	7230.2625
2123.01216	7240.6625
2125.99008	7230.2625
2128.96609	7226.4625
2131.94018	7242.9625
2134.91236	7229.3625
2137.88263	7231.2625
2140.851	7232.6625
2143.81746	7240.7625
2146.78201	7218.4625
2149.74466	7224.2625
2152.7054	7216.1625
2155.66425	7216.7625
2158.6212	7208.9625
2161.57625	7213.4625
2164.52941	7205.4625
2167.48067	7211.1625
2170.43004	7193.9625
2173.37752	7200.8625
2176.32311	7199.7625
2179.26681	7211.6625
2182.20863	7202.0625
2185.14856	7220.4625
2188.08661	7202.2625
2191.02278	7210.0625
2193.95707	7215.8625
2196.88948	7205.8625
2199.82001	7205.8625
2202.74867	7169.2625
2205.67545	7186.6625
2208.60037	7184.0625
2211.52341	7174.4625
2214.44458	7132.0625
2217.36388	7118.5625
2220.28132	7103.8625
2223.1969	7063.7625
2226.11061	7066.6625
2229.02246	7062.9625
2231.93245	7048.6625
2234.84058	7028.3625
2237.74686	7016.8625
2240.65128	7003.3625
2243.55385	6993.3625
2246.45456	6993.4625
2249.35343	6969.9625
2252.25044	6967.5625
2255.14561	6963.7625
2258.03893	6976.3625
2260.93041	6952.6625
2263.82004	6919.6625
2266.70783	6919.5625
2269.59378	6880.9625
2272.4779	6867.7625
2275.36017	6861.8625
2278.24061	6826.2625
2281.11922	6814.5625
2283.996	6803.3625
2286.87094	6807.1625
2289.74405	6794.9625
2292.61534	6783.3625
2295.4848	6763.7625
2298.35243	6770.8625
2301.21824	6764.8625
2304.08223	6755.2625
2306.94439	6749.7625
2309.80474	6737.5625
2312.66327	6759.6625
2315.51999	6729.7625
2318.37489	6726.6625
2321.22797	6741.3625
2324.07925	6719.0625
2326.92871	6705.5625
2329.77637	6703.2625
2332.62222	6694.5625
2335.46626	6686.3625
2338.3085	6679.8625
2341.14893	6672.0625
2343.98756	6679.3625
2346.8244	6667.3625
2349.65943	6672.8625
2352.49267	6664.6625
2355.32411	6649.0625
2358.15376	6655.5625
2360.98161	6652.1625
2363.80768	6636.2625
2366.63195	6627.3625
2369.45444	6624.4625
2372.27514	6616.1625
2375.09405	6596.9625
2377.91118	6584.5625
2380.72652	6569.0625
2383.54009	6562.6625
2386.35187	6535.7625
2389.16188	6538.0625
2391.97011	6505.2625
2394.77657	6491.4625
2397.58125	6485.7625
2400.38416	6475.5625
2403.18529	6456.0625
2405.98466	6452.8625
2408.78226	6446.7625
2411.57809	6422.4625
2414.37216	6426.8625
2417.16446	6410.0625
2419.955	6383.2625
2422.74378	6385.1625
2425.5308	6382.0625
2428.31606	6374.2625
2431.09956	6376.6625
2433.88131	6366.6625
2436.6613	6358.6625
2439.43954	6344.4625
2442.21603	6354.9625
2444.99077	6347.1625
2447.76377	6354.7625
2450.53501	6343.5625
2453.30451	6331.5625
2456.07226	6320.3625
2458.83827	6325.4625
2461.60254	6307.3625
2464.36507	6292.9625
2467.12586	6269.8625
2469.88492	6282.2625
2472.64224	6275.2625
2475.39782	6281.5625
2478.15167	6282.3625
2480.90379	6266.8625
2483.65417	6261.3625
2486.40283	6261.4625
2489.14976	6295.4625
2491.89497	6268.7625
2494.63845	6270.7625
2497.3802	6257.3625
2500.12024	6239.3625
2502.85855	6241.9625
2505.59514	6255.7625
2508.33002	6232.4625
2511.06318	6213.7625
2513.79462	6196.5625
2516.52435	6196.7625
2519.25237	6188.2625
2521.97867	6154.4625
2524.70327	6155.9625
2527.42616	6138.6625
2530.14734	6136.3625
2532.86681	6126.0625
2535.58458	6152.0625
2538.30065	6145.2625
2541.01501	6132.1625
2543.72768	6123.1625
2546.43864	6116.8625
2549.14791	6100.0625
2551.85548	6106.4625
2554.56136	6091.9625
2557.26554	6086.9625
2559.96803	6063.5625
2562.66883	6043.1625
2565.36794	6035.2625
2568.06536	6031.3625
2570.7611	6024.3625
2573.45514	6007.3625
2576.14751	5997.3625
2578.83819	5994.7625
2581.52719	5987.9625
2584.21451	5971.5625
2586.90015	5980.5625
2589.58411	5958.5625
2592.2664	5954.1625
2594.94701	5937.3625
2597.62594	5926.3625
2600.30321	5926.9625
2602.9788	5944.4625
2605.65273	5919.0625
2608.32498	5917.2625
2610.99557	5887.4625
2613.66449	5909.5625
2616.33175	5890.6625
2618.99734	5893.7625
2621.66128	5886.2625
2624.32355	5877.1625
2626.98416	5872.8625
2629.64311	5841.6625
2632.30041	5844.5625
2634.95605	5841.4625
2637.61004	5837.1625
2640.26238	5822.0625
2642.91306	5807.4625
2645.56209	5827.0625
2648.20948	5812.3625
2650.85521	5797.1625
2653.4993	5790.9625
2656.14175	5787.5625
2658.78255	5795.6625
2661.42171	5770.5625
2664.05923	5781.7625
2666.6951	5792.2625
2669.32934	5787.6625
2671.96194	5804.1625
2674.59291	5802.4625
2677.22224	5802.1625
2679.84993	5806.7625
2682.476	5789.0625
2685.10043	5799.4625
2687.72324	5793.7625
2690.34441	5773.9625
2692.96396	5782.4625
2695.58188	5767.6625
2698.19818	5753.7625
2700.81285	5741.0625
2703.4259	5735.9625
2706.03733	5751.8625
2708.64714	5729.8625
2711.25533	5729.4625
2713.86191	5738.1625
2716.46687	5740.8625
2719.07021	5750.6625
2721.67194	5753.2625
2724.27206	5745.8625
2726.87057	5732.1625
2729.46747	5727.8625
2732.06276	5737.6625
2734.65644	5734.8625
2737.24852	5724.7625
2739.83899	5694.3625
2742.42786	5713.0625
2745.01513	5708.4625
2747.60079	5678.3625
2750.18486	5663.3625
2752.76733	5671.3625
2755.3482	5657.2625
2757.92747	5634.9625
2760.50515	5636.0625
2763.08123	5634.3625
2765.65573	5611.6625
2768.22863	5599.9625
2770.79994	5611.8625
2773.36967	5593.5625
2775.9378	5604.7625
2778.50435	5581.1625
2781.06932	5588.5625
2783.6327	5593.8625
2786.1945	5584.4625
2788.75471	5570.8625
2791.31335	5556.5625
2793.87041	5549.8625
2796.42589	5530.3625
2798.97979	5517.5625
2801.53212	5497.4625
2804.08288	5484.0625
2806.63206	5484.4625
2809.17967	5479.6625
2811.72571	5467.3625
2814.27018	5468.9625
2816.81308	5440.2625
2819.35442	5425.5625
2821.89419	5420.1625
2824.43239	5419.3625
2826.96904	5415.2625
2829.50412	5406.3625
2832.03763	5386.9625
2834.56959	5384.7625
2837.1	5366.4625
2839.62884	5360.6625
2842.15613	5362.9625
2844.68186	5355.1625
2847.20604	5352.8625
2849.72867	5336.2625
2852.24974	5324.1625
2854.76927	5304.8625
2857.28724	5293.8625
2859.80367	5302.9625
2862.31855	5292.5625
2864.83189	5301.9625
2867.34368	5282.4625
2869.85393	5300.9625
2872.36264	5275.1625
2874.8698	5274.9625
2877.37543	5254.5625
2879.87952	5240.5625
2882.38207	5244.4625
2884.88308	5247.4625
2887.38256	5255.0625
2889.88051	5237.1625
2892.37692	5218.8625
2894.8718	5228.9625
2897.36515	5247.4625
2899.85698	5207.8625
2902.34727	5229.4625
2904.83604	5245.8625
2907.32328	5244.5625
2909.809	5235.3625
2912.29319	5266.6625
2914.77587	5249.6625
2917.25702	5244.4625
2919.73665	5249.6625
2922.21476	5248.2625
2924.69136	5233.7625
2927.16644	5234.5625
2929.64	5216.8625
2932.11205	5197.2625
2934.58258	5179.9625
2937.05161	5193.4625
2939.51912	5196.2625
2941.98513	5185.1625
2944.44962	5174.3625
2946.91261	5160.4625
2949.37409	5173.8625
2951.83407	5161.4625
2954.29254	5166.4625
2956.74951	5149.3625
2959.20498	5157.8625
2961.65895	5148.2625
2964.11142	5147.3625
2966.56239	5129.5625
2969.01186	5132.3625
2971.45984	5126.0625
2973.90632	5117.4625
2976.35131	5103.0625
2978.7948	5102.0625
2981.23681	5087.8625
2983.67732	5076.9625
2986.11635	5062.4625
2988.55388	5044.0625
2990.98993	5045.3625
2993.4245	5032.0625
2995.85758	5016.9625
2998.28917	5011.5625
3000.71928	4977.4625
3003.14791	4977.0625
3005.57506	4978.3625
3008.00073	4942.7625
3010.42493	4945.1625
3012.84764	4934.3625
3015.26888	4931.8625
3017.68865	4925.0625
3020.10694	4914.0625
3022.52376	4889.9625
3024.9391	4871.3625
3027.35298	4855.7625
3029.76539	4844.5625
3032.17632	4849.6625
3034.5858	4837.6625
3036.9938	4836.4625
3039.40034	4815.6625
3041.80542	4807.3625
3044.20903	4791.2625
3046.61118	4794.1625
3049.01187	4771.8625
3051.4111	4767.8625
3053.80888	4755.0625
3056.20519	4750.6625
3058.60005	4713.3625
3060.99345	4741.6625
3063.3854	4717.0625
3065.7759	4696.9625
3068.16494	4681.1625
3070.55254	4672.7625
3072.93868	4664.2625
3075.32338	4638.5625
3077.70662	4638.0625
3080.08842	4618.1625
3082.46878	4620.1625
3084.84769	4608.8625
3087.22515	4599.0625
3089.60118	4607.6625
3091.97576	4598.4625
3094.3489	4595.3625
3096.72061	4579.7625
3099.09087	4579.0625
3101.4597	4582.3625
3103.82709	4571.4625
3106.19305	4573.7625
3108.55757	4575.7625
3110.92066	4549.9625
3113.28232	4552.2625
3115.64255	4537.4625
3118.00134	4516.6625
3120.35871	4529.6625
3122.71466	4506.2625
3125.06917	4498.5625
3127.42226	4487.4625
3129.77393	4476.0625
3132.12417	4467.3625
3134.47299	4463.2625
3136.82039	4463.8625
3139.16636	4466.7625
3141.51092	4454.4625
3143.85406	4461.2625
3146.19579	4454.8625
3148.53609	4451.1625
3150.87499	4443.1625
3153.21246	4435.0625
3155.54853	4435.2625
3157.88318	4431.9625
3160.21642	4435.5625
3162.54826	4417.8625
3164.87868	4431.0625
3167.2077	4404.8625
3169.5353	4409.7625
3171.86151	4400.5625
3174.18631	4394.0625
3176.5097	4385.9625
3178.83169	4371.5625
3181.15228	4369.1625
3183.47147	4344.9625
3185.78926	4352.2625
3188.10565	4331.6625
3190.42065	4320.1625
3192.73424	4313.9625
3195.04645	4322.9625
3197.35725	4317.7625
3199.66667	4298.8625
3201.97469	4301.5625
3204.28132	4309.8625
3206.58656	4313.0625
3208.8904	4289.8625
3211.19287	4304.5625
3213.49394	4282.0625
3215.79363	4283.4625
3218.09193	4306.0625
3220.38884	4301.0625
3222.68438	4311.0625
3224.97853	4276.0625
3227.2713	4277.0625
3229.56269	4276.1625
3231.8527	4273.7625
3234.14133	4252.1625
3236.42858	4247.2625
3238.71446	4227.7625
3240.99896	4234.6625
3243.28209	4229.9625
3245.56384	4200.3625
3247.84423	4197.4625
3250.12324	4199.7625
3252.40088	4193.4625
3254.67715	4171.2625
3256.95205	4166.5625
3259.22558	4189.8625
3261.49775	4182.4625
3263.76855	4186.0625
3266.03799	4174.0625
3268.30606	4179.8625
3270.57277	4166.1625
3272.83812	4151.3625
3275.10211	4139.2625
3277.36474	4123.1625
3279.62601	4125.5625
3281.88593	4127.6625
3284.14448	4115.1625
3286.40168	4103.6625
3288.65753	4122.5625
3290.91202	4092.8625
3293.16516	4074.7625
3295.41695	4087.0625
3297.66738	4057.0625
3299.91647	4061.9625
3302.16421	4023.2625
3304.4106	4008.3625
3306.65564	3970.4625
3308.89933	3948.3625
3311.14169	3918.0625
3313.38269	3884.6625
3315.62236	3861.8625
3317.86068	3827.8625
3320.09766	3807.1625
3322.3333	3769.9625
3324.5676	3750.1625
3326.80056	3679.9625
3329.03219	3661.8625
3331.26248	0.3625
3333.49143	-1.1375
3335.71905	-0.1375
