Data from AgNPs_UA_5uM_CRN_500uM_SU_RamanShift__248__12-10-43-189.txt Node

Date: Thu Aug 04 12:10:43 BST 2022
User: TCL
Spectrometer: QEP01345
Trigger mode: 4
Integration Time (sec): 1.000000E0
Scans to average: 10
Electric dark correction enabled: true
Nonlinearity correction enabled: false
Boxcar width: 0
XAxis mode: Raman Shifts
Number of Pixels in Spectrum: 1044
>>>>>Begin Spectral Data<<<<<
46.04893	-0.6125
50.45542	1.4875
54.85868	0.8875
59.25871	-0.5125
63.6555	-57.4125
68.04907	-40.1125
72.43941	-73.0125
76.82654	-57.9125
81.21044	-57.9125
85.59113	-49.3125
89.96862	-75.4125
94.34289	-56.6125
98.71396	-78.0125
103.08183	-57.5125
107.4465	-49.7125
111.80798	-55.9125
116.16626	-43.9125
120.52136	-73.8125
124.87327	-50.2125
129.222	-62.0125
133.56755	-50.0125
137.90993	-65.4125
142.24913	-52.1125
146.58517	-43.4125
150.91804	-40.4125
155.24774	-31.1125
159.57429	-9.1125
163.89768	-6.2125
168.21792	36.2875
172.53501	57.7875
176.84895	134.5875
181.15975	268.6875
185.46741	417.4875
189.77193	596.7875
194.07331	886.0875
198.37157	1170.0875
202.6667	1455.9875
206.9587	1771.7875
211.24758	2085.4875
215.53334	2413.9875
219.81599	2755.3875
224.09553	3174.5875
228.37195	3587.7875
232.64527	4049.7875
236.91549	4523.8875
241.18261	4868.4875
245.44663	5135.7875
249.70755	5325.0875
253.96539	5449.2875
258.22014	5527.9875
262.4718	5605.6875
266.72039	5653.2875
270.96589	5626.6875
275.20832	5536.1875
279.44768	5417.8875
283.68397	5330.1875
287.91719	5263.3875
292.14735	5295.9875
296.37445	5480.1875
300.59849	5770.5875
304.81948	6094.6875
309.03742	6485.5875
313.25231	6740.1875
317.46415	6680.7875
321.67296	6307.5875
325.87872	5905.0875
330.08145	5684.5875
334.28114	5660.3875
338.47781	5708.8875
342.67145	5847.0875
346.86207	6061.5875
351.04966	6440.6875
355.23424	6808.3875
359.4158	7078.3875
363.59435	7131.6875
367.76989	7063.4875
371.94243	6934.2875
376.11196	6819.3875
380.27849	6745.8875
384.44203	6666.3875
388.60257	6626.9875
392.76012	6633.9875
396.91468	6741.6875
401.06626	6917.4875
405.21485	6936.4875
409.36047	6780.0875
413.50311	6432.2875
417.64277	6141.8875
421.77947	5937.8875
425.9132	5871.0875
430.04396	5865.9875
434.17176	5904.0875
438.2966	5980.1875
442.41849	6070.4875
446.53742	6197.0875
450.6534	6291.7875
454.76644	6371.0875
458.87653	6365.5875
462.98368	6328.3875
467.08789	6249.6875
471.18916	6167.0875
475.2875	6045.0875
479.38291	5961.6875
483.4754	5846.8875
487.56496	5805.3875
491.6516	5773.7875
495.73531	5772.7875
499.81612	5820.1875
503.89401	5914.4875
507.96899	5951.3875
512.04106	6024.4875
516.11023	6145.8875
520.1765	6213.4875
524.23987	6254.3875
528.30034	6248.1875
532.35792	6176.4875
536.41261	6115.8875
540.46441	5999.7875
544.51333	5953.7875
548.55936	5990.0875
552.60252	6127.3875
556.64279	6238.2875
560.6802	6342.9875
564.71473	6480.2875
568.7464	6670.9875
572.7752	6662.2875
576.80114	6375.8875
580.82422	6144.9875
584.84444	6022.4875
588.86181	6003.5875
592.87633	6022.3875
596.888	6156.1875
600.89682	6533.8875
604.9028	7535.9875
608.90594	9628.0875
612.90624	11968.3875
616.90371	11129.2875
620.89834	7994.5875
624.89015	6639.7875
628.87913	6445.7875
632.86528	6582.7875
636.84862	6744.1875
640.82913	6614.2875
644.80683	6273.6875
648.78172	6073.8875
652.75379	6116.4875
656.72306	6330.0875
660.68952	6576.6875
664.65319	6493.5875
668.61405	6251.5875
672.57211	6202.3875
676.52738	6181.5875
680.47986	6099.4875
684.42955	5974.3875
688.37646	5934.8875
692.32058	5929.8875
696.26192	6015.7875
700.20048	6114.1875
704.13626	6156.1875
708.06928	6122.6875
711.99952	6069.0875
715.927	6066.9875
719.85171	6100.5875
723.77365	6159.8875
727.69284	6116.3875
731.60928	6100.8875
735.52295	6069.8875
739.43388	6109.2875
743.34206	6143.6875
747.24749	6148.5875
751.15017	6175.1875
755.05012	6227.6875
758.94733	6636.5875
762.8418	7483.0875
766.73354	8846.9875
770.62254	9904.9875
774.50882	9966.2875
778.39237	9424.9875
782.27321	8484.3875
786.15132	7405.4875
790.02671	6718.7875
793.89938	6337.0875
797.76935	6223.2875
801.6366	6126.4875
805.50115	6072.5875
809.36299	6080.5875
813.22213	6056.1875
817.07857	6061.9875
820.93231	6062.7875
824.78336	6087.9875
828.63172	6097.0875
832.47738	6104.9875
836.32036	6081.2875
840.16066	6062.7875
843.99827	6053.1875
847.8332	6036.2875
851.66546	6038.4875
855.49504	6047.8875
859.32195	6107.2875
863.1462	6064.2875
866.96777	6079.2875
870.78668	6045.7875
874.60293	6081.6875
878.41652	6099.9875
882.22745	6187.1875
886.03573	6213.4875
889.84136	6206.8875
893.64433	6195.4875
897.44466	6185.0875
901.24235	6186.6875
905.0374	6185.2875
908.8298	6124.6875
912.61957	6080.7875
916.40671	6039.4875
920.19121	6095.2875
923.97308	6183.2875
927.75233	6255.3875
931.52895	6305.4875
935.30295	6288.7875
939.07433	6122.4875
942.84309	5992.8875
946.60924	5977.6875
950.37278	5944.3875
954.13371	5920.9875
957.89203	5923.0875
961.64774	5946.7875
965.40086	5912.4875
969.15137	5898.4875
972.89929	5947.1875
976.64461	5927.8875
980.38733	5948.1875
984.12747	5931.4875
987.86502	5966.7875
991.59999	5974.7875
995.33237	6039.8875
999.06217	6109.7875
1002.78939	6180.0875
1006.51404	6301.0875
1010.23611	6446.2875
1013.95561	6483.4875
1017.67255	6479.3875
1021.38692	6482.7875
1025.09872	6400.7875
1028.80796	6302.0875
1032.51465	6312.7875
1036.21877	6314.7875
1039.92035	6338.4875
1043.61937	6382.8875
1047.31584	6427.0875
1051.00976	6472.5875
1054.70114	6476.4875
1058.38998	6487.4875
1062.07627	6492.4875
1065.76003	6518.9875
1069.44126	6597.7875
1073.11995	6665.1875
1076.79611	6802.5875
1080.46974	6955.3875
1084.14085	7128.7875
1087.80943	7251.8875
1091.47549	7287.8875
1095.13903	7203.3875
1098.80005	7072.6875
1102.45857	6981.5875
1106.11456	6937.2875
1109.76805	6892.0875
1113.41903	7003.3875
1117.06751	7182.5875
1120.71348	7455.7875
1124.35696	7845.8875
1127.99793	8130.0875
1131.63641	7959.5875
1135.2724	7552.6875
1138.90589	7251.6875
1142.5369	7049.4875
1146.16542	6936.7875
1149.79145	6805.5875
1153.415	6793.0875
1157.03607	6785.1875
1160.65467	6872.3875
1164.27079	7113.0875
1167.88443	7370.4875
1171.49561	7785.9875
1175.10432	8426.7875
1178.71056	9362.8875
1182.31434	10173.7875
1185.91565	10428.9875
1189.51451	10283.0875
1193.11091	10032.2875
1196.70485	9760.4875
1200.29634	9505.4875
1203.88538	9207.2875
1207.47197	8762.1875
1211.05612	8277.0875
1214.63782	7852.0875
1218.21708	7582.0875
1221.79391	7437.9875
1225.36829	7356.6875
1228.94024	7356.3875
1232.50976	7395.0875
1236.07685	7397.7875
1239.6415	7422.4875
1243.20374	7439.8875
1246.76355	7488.5875
1250.32093	7549.5875
1253.8759	7617.0875
1257.42845	7795.8875
1260.97859	8013.7875
1264.52631	8246.5875
1268.07163	8404.4875
1271.61453	8546.6875
1275.15503	8605.7875
1278.69312	8592.4875
1282.22882	8671.7875
1285.76211	8868.8875
1289.29301	9117.0875
1292.82151	9390.2875
1296.34761	9627.3875
1299.87133	10030.7875
1303.39266	10730.7875
1306.9116	11928.3875
1310.42815	13187.6875
1313.94233	13595.9875
1317.45412	12807.7875
1320.96354	11635.2875
1324.47058	10617.6875
1327.97525	9859.8875
1331.47754	9421.6875
1334.97747	9309.2875
1338.47502	9424.1875
1341.97022	9799.2875
1345.46305	10549.3875
1348.95352	11699.8875
1352.44163	13015.3875
1355.92738	14440.2875
1359.41078	16165.7875
1362.89183	17693.3875
1366.37053	17080.7875
1369.84688	14137.0875
1373.32088	11410.8875
1376.79254	9901.1875
1380.26186	9199.3875
1383.72883	8789.8875
1387.19347	8371.4875
1390.65578	8002.9875
1394.11575	7761.7875
1397.57339	7581.6875
1401.0287	7474.6875
1404.48168	7441.7875
1407.93234	7442.3875
1411.38068	7454.1875
1414.82669	7552.1875
1418.27039	7622.9875
1421.71177	7616.4875
1425.15083	7524.1875
1428.58758	7442.3875
1432.02203	7453.6875
1435.45416	7539.0875
1438.88399	7536.6875
1442.31151	7541.1875
1445.73673	7597.9875
1449.15965	7645.0875
1452.58027	7652.3875
1455.9986	7669.0875
1459.41463	7665.5875
1462.82837	7754.4875
1466.23982	7941.3875
1469.64898	8187.5875
1473.05586	8325.5875
1476.46045	8433.1875
1479.86276	8526.4875
1483.26279	8640.0875
1486.66054	8816.6875
1490.05602	9111.5875
1493.44922	9692.0875
1496.84016	10582.8875
1500.22882	11992.5875
1503.61521	13780.0875
1506.99934	15603.5875
1510.38121	16850.5875
1513.76081	16684.8875
1517.13816	15086.4875
1520.51324	12895.0875
1523.88607	11149.3875
1527.25665	10127.2875
1530.62498	9615.6875
1533.99105	9424.9875
1537.35488	9301.7875
1540.71647	9169.2875
1544.07581	9030.8875
1547.4329	8901.8875
1550.78776	8769.4875
1554.14038	8676.0875
1557.49077	8659.6875
1560.83892	8752.5875
1564.18484	8969.1875
1567.52853	9338.8875
1570.86999	9656.3875
1574.20922	9825.8875
1577.54624	9697.8875
1580.88103	9148.9875
1584.2136	8469.4875
1587.54395	8068.9875
1590.87208	7975.4875
1594.19801	8161.4875
1597.52172	8511.2875
1600.84321	8672.8875
1604.16251	8506.3875
1607.47959	8321.8875
1610.79447	8122.7875
1614.10715	7823.2875
1617.41763	7558.0875
1620.7259	7262.1875
1624.03199	7122.9875
1627.33587	7048.3875
1630.63757	7094.8875
1633.93707	7338.1875
1637.23439	7761.8875
1640.52951	8445.9875
1643.82246	9437.7875
1647.11321	10634.8875
1650.40179	11383.3875
1653.68819	11065.4875
1656.97241	9771.0875
1660.25446	8361.8875
1663.53433	7347.2875
1666.81203	6703.8875
1670.08756	6384.4875
1673.36092	6188.8875
1676.63211	6039.4875
1679.90115	5956.4875
1683.16801	5854.6875
1686.43272	5776.0875
1689.69527	5735.4875
1692.95567	5653.7875
1696.2139	5651.0875
1699.46999	5588.2875
1702.72392	5596.2875
1705.97571	5614.1875
1709.22535	5588.2875
1712.47284	5624.0875
1715.71819	5639.9875
1718.96139	5634.2875
1722.20246	5618.5875
1725.44139	5576.7875
1728.67818	5565.9875
1731.91284	5499.9875
1735.14537	5464.0875
1738.37576	5446.8875
1741.60403	5410.6875
1744.83017	5394.9875
1748.05418	5396.3875
1751.27607	5397.4875
1754.49584	5348.8875
1757.71349	5305.2875
1760.92903	5324.9875
1764.14244	5267.4875
1767.35375	5275.0875
1770.56294	5267.9875
1773.77002	5252.4875
1776.97499	5251.3875
1780.17785	5239.9875
1783.37861	5228.2875
1786.57727	5231.6875
1789.77382	5171.9875
1792.96828	5202.5875
1796.16064	5224.7875
1799.3509	5187.4875
1802.53907	5194.2875
1805.72514	5145.6875
1808.90913	5131.4875
1812.09102	5146.4875
1815.27083	5132.8875
1818.44856	5111.9875
1821.6242	5095.6875
1824.79776	5085.4875
1827.96924	5090.4875
1831.13864	5068.5875
1834.30597	5066.4875
1837.47122	5052.6875
1840.6344	5043.9875
1843.7955	5035.4875
1846.95454	5011.8875
1850.11151	5054.4875
1853.26642	4987.7875
1856.41926	5004.0875
1859.57004	5010.0875
1862.71876	4977.1875
1865.86542	4993.0875
1869.01003	4968.2875
1872.15258	4963.0875
1875.29308	5001.7875
1878.43152	4973.3875
1881.56792	4960.9875
1884.70227	4937.4875
1887.83457	4938.8875
1890.96482	4912.6875
1894.09304	4909.4875
1897.21921	4898.8875
1900.34335	4914.9875
1903.46544	4887.1875
1906.58551	4905.8875
1909.70353	4906.1875
1912.81953	4902.7875
1915.93349	4872.3875
1919.04543	4883.6875
1922.15534	4854.4875
1925.26322	4851.3875
1928.36908	4824.6875
1931.47292	4827.0875
1934.57473	4841.2875
1937.67453	4810.4875
1940.77232	4773.4875
1943.86808	4768.4875
1946.96184	4761.6875
1950.05358	4746.8875
1953.14331	4711.7875
1956.23103	4728.5875
1959.31675	4690.9875
1962.40046	4653.6875
1965.48217	4672.8875
1968.56188	4660.9875
1971.63959	4647.2875
1974.7153	4660.8875
1977.78901	4654.4875
1980.86073	4616.1875
1983.93046	4565.1875
1986.99819	4509.3875
1990.06394	4523.2875
1993.1277	4538.4875
1996.18947	4533.1875
1999.24925	4483.9875
2002.30706	4491.9875
2005.36288	4476.9875
2008.41672	4456.6875
2011.46859	4421.7875
2014.51848	4422.9875
2017.56639	4399.6875
2020.61233	4388.0875
2023.6563	4392.4875
2026.6983	4347.2875
2029.73833	4350.4875
2032.7764	4359.4875
2035.8125	4312.1875
2038.84664	4307.9875
2041.87881	4305.4875
2044.90903	4297.4875
2047.93729	4282.6875
2050.96359	4255.2875
2053.98794	4287.0875
2057.01034	4287.1875
2060.03078	4256.1875
2063.04927	4249.8875
2066.06582	4254.5875
2069.08042	4233.3875
2072.09307	4248.2875
2075.10378	4236.0875
2078.11255	4231.7875
2081.11938	4230.8875
2084.12426	4223.0875
2087.12722	4217.8875
2090.12824	4211.6875
2093.12732	4228.4875
2096.12447	4220.4875
2099.11969	4212.1875
2102.11299	4215.7875
2105.10435	4223.0875
2108.09379	4213.6875
2111.08131	4222.5875
2114.0669	4206.9875
2117.05057	4217.0875
2120.03233	4204.4875
2123.01216	4234.2875
2125.99008	4233.0875
2128.96609	4216.9875
2131.94018	4244.2875
2134.91236	4226.8875
2137.88263	4234.5875
2140.851	4232.3875
2143.81746	4247.1875
2146.78201	4241.1875
2149.74466	4216.5875
2152.7054	4219.5875
2155.66425	4230.3875
2158.6212	4206.2875
2161.57625	4191.4875
2164.52941	4173.9875
2167.48067	4181.8875
2170.43004	4178.6875
2173.37752	4190.2875
2176.32311	4195.1875
2179.26681	4179.0875
2182.20863	4185.6875
2185.14856	4201.8875
2188.08661	4206.0875
2191.02278	4181.3875
2193.95707	4187.7875
2196.88948	4159.0875
2199.82001	4173.6875
2202.74867	4155.6875
2205.67545	4146.6875
2208.60037	4156.2875
2211.52341	4144.7875
2214.44458	4119.4875
2217.36388	4109.0875
2220.28132	4114.1875
2223.1969	4061.1875
2226.11061	4080.4875
2229.02246	4075.3875
2231.93245	4076.3875
2234.84058	4064.8875
2237.74686	4036.6875
2240.65128	4054.5875
2243.55385	4039.6875
2246.45456	4015.8875
2249.35343	4025.5875
2252.25044	4012.3875
2255.14561	4011.1875
2258.03893	4015.9875
2260.93041	4013.1875
2263.82004	4003.4875
2266.70783	3997.2875
2269.59378	3989.3875
2272.4779	3958.8875
2275.36017	3979.5875
2278.24061	3941.6875
2281.11922	3918.3875
2283.996	3931.2875
2286.87094	3914.3875
2289.74405	3923.1875
2292.61534	3907.6875
2295.4848	3896.7875
2298.35243	3906.2875
2301.21824	3883.2875
2304.08223	3879.5875
2306.94439	3880.8875
2309.80474	3893.5875
2312.66327	3862.4875
2315.51999	3870.0875
2318.37489	3858.0875
2321.22797	3840.2875
2324.07925	3839.5875
2326.92871	3820.5875
2329.77637	3802.1875
2332.62222	3802.2875
2335.46626	3781.4875
2338.3085	3769.2875
2341.14893	3798.3875
2343.98756	3806.5875
2346.8244	3762.5875
2349.65943	3773.9875
2352.49267	3773.3875
2355.32411	3764.8875
2358.15376	3789.0875
2360.98161	3783.2875
2363.80768	3759.0875
2366.63195	3778.0875
2369.45444	3774.3875
2372.27514	3785.0875
2375.09405	3781.0875
2377.91118	3746.6875
2380.72652	3748.4875
2383.54009	3724.8875
2386.35187	3749.1875
2389.16188	3712.8875
2391.97011	3714.9875
2394.77657	3695.6875
2397.58125	3707.0875
2400.38416	3695.3875
2403.18529	3672.9875
2405.98466	3658.4875
2408.78226	3660.1875
2411.57809	3647.6875
2414.37216	3636.2875
2417.16446	3641.5875
2419.955	3603.5875
2422.74378	3639.0875
2425.5308	3605.7875
2428.31606	3614.2875
2431.09956	3608.7875
2433.88131	3579.5875
2436.6613	3609.6875
2439.43954	3594.0875
2442.21603	3599.1875
2444.99077	3579.3875
2447.76377	3589.7875
2450.53501	3589.7875
2453.30451	3583.3875
2456.07226	3583.5875
2458.83827	3575.2875
2461.60254	3527.5875
2464.36507	3564.5875
2467.12586	3539.9875
2469.88492	3547.0875
2472.64224	3563.3875
2475.39782	3517.0875
2478.15167	3541.1875
2480.90379	3547.0875
2483.65417	3539.5875
2486.40283	3550.1875
2489.14976	3561.4875
2491.89497	3544.3875
2494.63845	3540.5875
2497.3802	3543.7875
2500.12024	3526.8875
2502.85855	3530.8875
2505.59514	3519.0875
2508.33002	3520.6875
2511.06318	3475.4875
2513.79462	3482.9875
2516.52435	3447.7875
2519.25237	3436.1875
2521.97867	3438.6875
2524.70327	3437.6875
2527.42616	3442.3875
2530.14734	3443.1875
2532.86681	3416.5875
2535.58458	3421.7875
2538.30065	3408.8875
2541.01501	3438.4875
2543.72768	3400.9875
2546.43864	3401.4875
2549.14791	3398.1875
2551.85548	3379.6875
2554.56136	3368.9875
2557.26554	3376.1875
2559.96803	3374.3875
2562.66883	3382.0875
2565.36794	3346.5875
2568.06536	3318.5875
2570.7611	3344.7875
2573.45514	3325.5875
2576.14751	3314.0875
2578.83819	3311.6875
2581.52719	3295.8875
2584.21451	3301.5875
2586.90015	3286.9875
2589.58411	3265.8875
2592.2664	3274.6875
2594.94701	3276.1875
2597.62594	3284.4875
2600.30321	3209.0875
2602.9788	3233.0875
2605.65273	3228.9875
2608.32498	3234.3875
2610.99557	3237.8875
2613.66449	3207.3875
2616.33175	3227.1875
2618.99734	3224.3875
2621.66128	3221.2875
2624.32355	3214.5875
2626.98416	3182.2875
2629.64311	3176.3875
2632.30041	3189.8875
2634.95605	3159.6875
2637.61004	3150.2875
2640.26238	3149.6875
2642.91306	3142.9875
2645.56209	3150.3875
2648.20948	3155.9875
2650.85521	3136.2875
2653.4993	3146.2875
2656.14175	3151.3875
2658.78255	3135.3875
2661.42171	3111.9875
2664.05923	3145.0875
2666.6951	3143.3875
2669.32934	3149.6875
2671.96194	3167.4875
2674.59291	3137.9875
2677.22224	3150.6875
2679.84993	3134.8875
2682.476	3135.9875
2685.10043	3130.6875
2687.72324	3116.3875
2690.34441	3117.4875
2692.96396	3118.6875
2695.58188	3127.5875
2698.19818	3110.8875
2700.81285	3110.6875
2703.4259	3096.4875
2706.03733	3066.2875
2708.64714	3079.3875
2711.25533	3107.0875
2713.86191	3103.5875
2716.46687	3097.9875
2719.07021	3098.4875
2721.67194	3102.2875
2724.27206	3116.1875
2726.87057	3098.3875
2729.46747	3094.3875
2732.06276	3094.8875
2734.65644	3071.0875
2737.24852	3070.3875
2739.83899	3052.8875
2742.42786	3070.9875
2745.01513	3074.3875
2747.60079	3061.1875
2750.18486	3030.7875
2752.76733	3055.0875
2755.3482	3026.0875
2757.92747	3029.6875
2760.50515	3022.1875
2763.08123	3037.3875
2765.65573	3018.3875
2768.22863	3005.3875
2770.79994	2998.8875
2773.36967	2992.3875
2775.9378	2980.7875
2778.50435	2980.7875
2781.06932	2987.0875
2783.6327	2973.5875
2786.1945	3005.0875
2788.75471	2972.0875
2791.31335	2961.8875
2793.87041	2959.2875
2796.42589	2949.5875
2798.97979	2939.4875
2801.53212	2927.9875
2804.08288	2960.6875
2806.63206	2925.4875
2809.17967	2911.0875
2811.72571	2919.3875
2814.27018	2906.8875
2816.81308	2913.5875
2819.35442	2880.0875
2821.89419	2883.0875
2824.43239	2867.3875
2826.96904	2911.8875
2829.50412	2878.4875
2832.03763	2888.1875
2834.56959	2884.1875
2837.1	2869.8875
2839.62884	2878.1875
2842.15613	2868.4875
2844.68186	2877.9875
2847.20604	2855.0875
2849.72867	2835.5875
2852.24974	2848.9875
2854.76927	2829.5875
2857.28724	2770.3875
2859.80367	2839.5875
2862.31855	2842.5875
2864.83189	2835.6875
2867.34368	2854.2875
2869.85393	2841.7875
2872.36264	2815.4875
2874.8698	2823.7875
2877.37543	2825.0875
2879.87952	2815.8875
2882.38207	2791.4875
2884.88308	2801.4875
2887.38256	2800.8875
2889.88051	2796.9875
2892.37692	2792.1875
2894.8718	2777.3875
2897.36515	2800.0875
2899.85698	2788.9875
2902.34727	2780.4875
2904.83604	2795.3875
2907.32328	2801.7875
2909.809	2811.7875
2912.29319	2804.2875
2914.77587	2802.1875
2917.25702	2821.9875
2919.73665	2829.8875
2922.21476	2823.8875
2924.69136	2818.1875
2927.16644	2791.4875
2929.64	2811.2875
2932.11205	2787.8875
2934.58258	2796.5875
2937.05161	2774.5875
2939.51912	2779.9875
2941.98513	2792.0875
2944.44962	2765.5875
2946.91261	2746.1875
2949.37409	2763.3875
2951.83407	2735.5875
2954.29254	2743.0875
2956.74951	2746.9875
2959.20498	2721.4875
2961.65895	2722.7875
2964.11142	2722.4875
2966.56239	2733.9875
2969.01186	2705.5875
2971.45984	2723.4875
2973.90632	2710.7875
2976.35131	2715.4875
2978.7948	2707.0875
2981.23681	2687.5875
2983.67732	2690.4875
2986.11635	2692.5875
2988.55388	2665.6875
2990.98993	2671.4875
2993.4245	2647.6875
2995.85758	2642.6875
2998.28917	2653.7875
3000.71928	2628.9875
3003.14791	2626.3875
3005.57506	2620.0875
3008.00073	2594.7875
3010.42493	2542.1875
3012.84764	2591.0875
3015.26888	2606.3875
3017.68865	2589.6875
3020.10694	2538.8875
3022.52376	2566.4875
3024.9391	2549.5875
3027.35298	2554.1875
3029.76539	2540.1875
3032.17632	2539.4875
3034.5858	2521.1875
3036.9938	2532.9875
3039.40034	2524.9875
3041.80542	2509.3875
3044.20903	2517.6875
3046.61118	2496.0875
3049.01187	2514.3875
3051.4111	2501.1875
3053.80888	2476.7875
3056.20519	2474.3875
3058.60005	2462.4875
3060.99345	2478.4875
3063.3854	2464.5875
3065.7759	2438.7875
3068.16494	2441.2875
3070.55254	2418.3875
3072.93868	2439.0875
3075.32338	2439.3875
3077.70662	2422.6875
3080.08842	2406.1875
3082.46878	2399.7875
3084.84769	2427.0875
3087.22515	2389.1875
3089.60118	2394.5875
3091.97576	2388.8875
3094.3489	2404.5875
3096.72061	2385.7875
3099.09087	2390.1875
3101.4597	2389.2875
3103.82709	2377.7875
3106.19305	2366.9875
3108.55757	2362.0875
3110.92066	2357.8875
3113.28232	2374.7875
3115.64255	2359.5875
3118.00134	2360.4875
3120.35871	2329.3875
3122.71466	2324.5875
3125.06917	2333.4875
3127.42226	2319.8875
3129.77393	2301.7875
3132.12417	2318.7875
3134.47299	2318.6875
3136.82039	2306.9875
3139.16636	2278.2875
3141.51092	2300.5875
3143.85406	2301.8875
3146.19579	2280.6875
3148.53609	2275.4875
3150.87499	2297.3875
3153.21246	2278.6875
3155.54853	2286.1875
3157.88318	2285.1875
3160.21642	2295.3875
3162.54826	2289.2875
3164.87868	2281.5875
3167.2077	2247.0875
3169.5353	2274.0875
3171.86151	2276.5875
3174.18631	2257.8875
3176.5097	2245.0875
3178.83169	2260.8875
3181.15228	2247.2875
3183.47147	2232.8875
3185.78926	2212.6875
3188.10565	2225.3875
3190.42065	2210.9875
3192.73424	2221.9875
3195.04645	2213.1875
3197.35725	2191.2875
3199.66667	2211.0875
3201.97469	2198.7875
3204.28132	2188.2875
3206.58656	2203.2875
3208.8904	2204.5875
3211.19287	2196.6875
3213.49394	2185.4875
3215.79363	2184.2875
3218.09193	2202.1875
3220.38884	2186.9875
3222.68438	2188.2875
3224.97853	2172.9875
3227.2713	2188.4875
3229.56269	2165.8875
3231.8527	2180.8875
3234.14133	2162.4875
3236.42858	2151.3875
3238.71446	2140.3875
3240.99896	2149.0875
3243.28209	2136.2875
3245.56384	2136.2875
3247.84423	2138.7875
3250.12324	2123.3875
3252.40088	2126.4875
3254.67715	2117.9875
3256.95205	2102.0875
3259.22558	2126.9875
3261.49775	2133.8875
3263.76855	2110.7875
3266.03799	2119.8875
3268.30606	2112.8875
3270.57277	2112.1875
3272.83812	2087.8875
3275.10211	2091.7875
3277.36474	2107.1875
3279.62601	2097.8875
3281.88593	2074.3875
3284.14448	2056.2875
3286.40168	2083.9875
3288.65753	2063.6875
3290.91202	2068.3875
3293.16516	2044.4875
3295.41695	2076.2875
3297.66738	2070.3875
3299.91647	2036.8875
3302.16421	2041.5875
3304.4106	1992.0875
3306.65564	2028.6875
3308.89933	1983.1875
3311.14169	1987.6875
3313.38269	1976.7875
3315.62236	1951.9875
3317.86068	1939.7875
3320.09766	1927.6875
3322.3333	1892.1875
3324.5676	1900.5875
3326.80056	1859.3875
3329.03219	1861.8875
3331.26248	-0.9125
3333.49143	-0.8125
3335.71905	-0.2125
