Data from AgNPs_UA_20uM_CRN_500uM_SU_RamanShift__18__13-39-30-294.txt Node

Date: Thu Aug 04 13:39:30 BST 2022
User: TCL
Spectrometer: QEP01345
Trigger mode: 4
Integration Time (sec): 1.000000E0
Scans to average: 10
Electric dark correction enabled: true
Nonlinearity correction enabled: false
Boxcar width: 0
XAxis mode: Raman Shifts
Number of Pixels in Spectrum: 1044
>>>>>Begin Spectral Data<<<<<
46.04893	-1.2875
50.45542	-0.4875
54.85868	0.6125
59.25871	0.3125
63.6555	17.3125
68.04907	16.3125
72.43941	20.3125
76.82654	18.2125
81.21044	18.2125
85.59113	20.1125
89.96862	19.4125
94.34289	19.9125
98.71396	21.2125
103.08183	23.0125
107.4465	21.0125
111.80798	25.5125
116.16626	26.3125
120.52136	29.4125
124.87327	28.4125
129.222	33.6125
133.56755	31.7125
137.90993	34.5125
142.24913	38.6125
146.58517	43.8125
150.91804	52.2125
155.24774	63.8125
159.57429	81.9125
163.89768	105.9125
168.21792	142.4125
172.53501	194.1125
176.84895	270.7125
181.15975	384.6125
185.46741	543.6125
189.77193	757.3125
194.07331	1024.9125
198.37157	1317.2125
202.6667	1645.5125
206.9587	1967.5125
211.24758	2284.8125
215.53334	2608.0125
219.81599	2976.5125
224.09553	3386.9125
228.37195	3845.2125
232.64527	4311.8125
236.91549	4784.0125
241.18261	5208.7125
245.44663	5504.9125
249.70755	5735.7125
253.96539	5882.8125
258.22014	6056.7125
262.4718	6184.5125
266.72039	6279.6125
270.96589	6283.8125
275.20832	6232.3125
279.44768	6128.7125
283.68397	6014.7125
287.91719	5944.4125
292.14735	5985.7125
296.37445	6120.7125
300.59849	6401.8125
304.81948	6735.2125
309.03742	7084.0125
313.25231	7264.0125
317.46415	7187.9125
321.67296	6838.8125
325.87872	6475.3125
330.08145	6246.1125
334.28114	6218.6125
338.47781	6297.3125
342.67145	6454.6125
346.86207	6678.7125
351.04966	6985.0125
355.23424	7326.5125
359.4158	7512.7125
363.59435	7599.9125
367.76989	7570.0125
371.94243	7513.0125
376.11196	7421.6125
380.27849	7389.3125
384.44203	7332.0125
388.60257	7332.5125
392.76012	7353.5125
396.91468	7490.9125
401.06626	7631.1125
405.21485	7639.5125
409.36047	7476.3125
413.50311	7165.0125
417.64277	6876.1125
421.77947	6698.3125
425.9132	6631.7125
430.04396	6640.8125
434.17176	6690.5125
438.2966	6739.0125
442.41849	6873.2125
446.53742	7037.8125
450.6534	7181.4125
454.76644	7241.5125
458.87653	7225.8125
462.98368	7197.3125
467.08789	7141.5125
471.18916	7035.8125
475.2875	6884.9125
479.38291	6752.2125
483.4754	6652.6125
487.56496	6590.2125
491.6516	6575.3125
495.73531	6573.8125
499.81612	6585.0125
503.89401	6639.9125
507.96899	6725.0125
512.04106	6806.5125
516.11023	6907.1125
520.1765	6936.9125
524.23987	6965.7125
528.30034	6944.7125
532.35792	6917.6125
536.41261	6852.5125
540.46441	6745.2125
544.51333	6693.9125
548.55936	6754.2125
552.60252	6876.8125
556.64279	6991.4125
560.6802	7070.5125
564.71473	7179.7125
568.7464	7329.2125
572.7752	7328.2125
576.80114	7095.8125
580.82422	6889.1125
584.84444	6781.4125
588.86181	6767.3125
592.87633	6774.1125
596.888	6951.5125
600.89682	7314.9125
604.9028	8334.9125
608.90594	10489.5125
612.90624	12776.5125
616.90371	11731.4125
620.89834	8611.1125
624.89015	7250.4125
628.87913	7075.3125
632.86528	7296.6125
636.84862	7438.4125
640.82913	7285.4125
644.80683	7003.7125
648.78172	6793.9125
652.75379	6822.4125
656.72306	7046.8125
660.68952	7286.2125
664.65319	7178.8125
668.61405	6948.0125
672.57211	6886.6125
676.52738	6907.7125
680.47986	6822.2125
684.42955	6702.6125
688.37646	6627.8125
692.32058	6694.0125
696.26192	6771.0125
700.20048	6918.1125
704.13626	6940.9125
708.06928	6895.3125
711.99952	6836.2125
715.927	6837.8125
719.85171	6875.8125
723.77365	6917.8125
727.69284	6865.8125
731.60928	6780.6125
735.52295	6779.3125
739.43388	6806.3125
743.34206	6833.4125
747.24749	6852.8125
751.15017	6854.4125
755.05012	6941.8125
758.94733	7293.2125
762.8418	8151.7125
766.73354	9458.7125
770.62254	10464.0125
774.50882	10613.8125
778.39237	10030.9125
782.27321	8993.9125
786.15132	7984.1125
790.02671	7335.4125
793.89938	7015.9125
797.76935	6873.6125
801.6366	6804.9125
805.50115	6746.3125
809.36299	6720.9125
813.22213	6702.9125
817.07857	6704.1125
820.93231	6713.4125
824.78336	6734.6125
828.63172	6771.8125
832.47738	6758.7125
836.32036	6727.3125
840.16066	6690.5125
843.99827	6690.7125
847.8332	6709.8125
851.66546	6713.6125
855.49504	6735.7125
859.32195	6755.6125
863.1462	6734.6125
866.96777	6730.8125
870.78668	6721.8125
874.60293	6752.3125
878.41652	6797.3125
882.22745	6843.0125
886.03573	6885.5125
889.84136	6877.7125
893.64433	6867.4125
897.44466	6843.5125
901.24235	6823.1125
905.0374	6809.5125
908.8298	6760.3125
912.61957	6738.1125
916.40671	6740.9125
920.19121	6780.0125
923.97308	6834.8125
927.75233	6946.7125
931.52895	6953.9125
935.30295	6923.7125
939.07433	6756.5125
942.84309	6644.1125
946.60924	6593.6125
950.37278	6586.5125
954.13371	6573.2125
957.89203	6591.3125
961.64774	6576.9125
965.40086	6570.8125
969.15137	6564.4125
972.89929	6549.5125
976.64461	6574.8125
980.38733	6561.3125
984.12747	6585.1125
987.86502	6613.4125
991.59999	6664.5125
995.33237	6717.6125
999.06217	6807.2125
1002.78939	6938.6125
1006.51404	7132.0125
1010.23611	7249.3125
1013.95561	7329.8125
1017.67255	7331.5125
1021.38692	7269.3125
1025.09872	7143.8125
1028.80796	7028.5125
1032.51465	6986.6125
1036.21877	7010.2125
1039.92035	7036.1125
1043.61937	7093.8125
1047.31584	7131.8125
1051.00976	7151.3125
1054.70114	7131.9125
1058.38998	7127.5125
1062.07627	7160.3125
1065.76003	7237.8125
1069.44126	7341.9125
1073.11995	7523.7125
1076.79611	7719.2125
1080.46974	7870.1125
1084.14085	7984.0125
1087.80943	8109.1125
1091.47549	8216.7125
1095.13903	8202.1125
1098.80005	8099.6125
1102.45857	7917.9125
1106.11456	7764.0125
1109.76805	7693.7125
1113.41903	7723.0125
1117.06751	7850.8125
1120.71348	8088.9125
1124.35696	8428.3125
1127.99793	8663.0125
1131.63641	8521.4125
1135.2724	8146.6125
1138.90589	7873.8125
1142.5369	7767.3125
1146.16542	7748.2125
1149.79145	7680.5125
1153.415	7567.1125
1157.03607	7502.9125
1160.65467	7526.2125
1164.27079	7701.5125
1167.88443	7940.9125
1171.49561	8367.4125
1175.10432	9074.4125
1178.71056	9983.9125
1182.31434	10793.4125
1185.91565	11031.2125
1189.51451	10862.6125
1193.11091	10534.1125
1196.70485	10275.3125
1200.29634	10034.2125
1203.88538	9746.1125
1207.47197	9344.2125
1211.05612	9003.5125
1214.63782	8711.2125
1218.21708	8473.3125
1221.79391	8236.6125
1225.36829	8102.4125
1228.94024	8071.6125
1232.50976	8032.9125
1236.07685	8023.7125
1239.6415	8057.7125
1243.20374	8089.1125
1246.76355	8170.5125
1250.32093	8309.3125
1253.8759	8482.7125
1257.42845	8782.2125
1260.97859	9079.9125
1264.52631	9316.3125
1268.07163	9459.5125
1271.61453	9576.9125
1275.15503	9596.3125
1278.69312	9585.8125
1282.22882	9612.5125
1285.76211	9711.8125
1289.29301	9930.5125
1292.82151	10210.8125
1296.34761	10480.0125
1299.87133	10864.0125
1303.39266	11566.3125
1306.9116	12645.9125
1310.42815	13704.9125
1313.94233	14051.1125
1317.45412	13347.9125
1320.96354	12347.6125
1324.47058	11432.1125
1327.97525	10657.5125
1331.47754	10222.8125
1334.97747	10146.1125
1338.47502	10330.0125
1341.97022	10765.5125
1345.46305	11524.2125
1348.95352	12623.1125
1352.44163	13843.2125
1355.92738	15147.4125
1359.41078	16721.0125
1362.89183	18060.0125
1366.37053	17295.6125
1369.84688	14550.9125
1373.32088	11971.6125
1376.79254	10548.6125
1380.26186	9878.9125
1383.72883	9486.5125
1387.19347	9145.5125
1390.65578	8836.0125
1394.11575	8571.8125
1397.57339	8341.4125
1401.0287	8238.6125
1404.48168	8154.5125
1407.93234	8116.9125
1411.38068	8239.8125
1414.82669	8311.1125
1418.27039	8331.9125
1421.71177	8302.8125
1425.15083	8212.2125
1428.58758	8141.4125
1432.02203	8203.9125
1435.45416	8295.7125
1438.88399	8393.1125
1442.31151	8459.8125
1445.73673	8510.7125
1449.15965	8562.9125
1452.58027	8552.1125
1455.9986	8466.0125
1459.41463	8438.5125
1462.82837	8551.3125
1466.23982	8727.7125
1469.64898	8944.7125
1473.05586	9110.1125
1476.46045	9183.7125
1479.86276	9235.6125
1483.26279	9356.9125
1486.66054	9576.9125
1490.05602	9920.8125
1493.44922	10430.2125
1496.84016	11296.3125
1500.22882	12650.5125
1503.61521	14347.8125
1506.99934	15983.9125
1510.38121	16972.5125
1513.76081	16661.1125
1517.13816	15142.2125
1520.51324	13195.0125
1523.88607	11635.9125
1527.25665	10759.0125
1530.62498	10286.4125
1533.99105	10068.1125
1537.35488	9977.9125
1540.71647	9883.8125
1544.07581	9801.2125
1547.4329	9696.8125
1550.78776	9602.1125
1554.14038	9458.1125
1557.49077	9371.4125
1560.83892	9429.9125
1564.18484	9657.3125
1567.52853	10050.8125
1570.86999	10353.9125
1574.20922	10495.0125
1577.54624	10288.7125
1580.88103	9744.0125
1584.2136	9102.4125
1587.54395	8725.1125
1590.87208	8691.0125
1594.19801	8954.1125
1597.52172	9384.5125
1600.84321	9596.4125
1604.16251	9531.4125
1607.47959	9363.7125
1610.79447	9063.0125
1614.10715	8598.9125
1617.41763	8129.0125
1620.7259	7780.2125
1624.03199	7614.9125
1627.33587	7535.8125
1630.63757	7620.0125
1633.93707	7861.2125
1637.23439	8327.6125
1640.52951	9072.5125
1643.82246	10152.8125
1647.11321	11404.8125
1650.40179	12091.8125
1653.68819	11676.5125
1656.97241	10329.5125
1660.25446	8861.9125
1663.53433	7863.2125
1666.81203	7243.2125
1670.08756	6903.4125
1673.36092	6707.9125
1676.63211	6574.1125
1679.90115	6443.0125
1683.16801	6377.0125
1686.43272	6326.9125
1689.69527	6281.4125
1692.95567	6234.5125
1696.2139	6216.3125
1699.46999	6196.3125
1702.72392	6182.1125
1705.97571	6207.8125
1709.22535	6189.2125
1712.47284	6188.9125
1715.71819	6180.4125
1718.96139	6159.4125
1722.20246	6142.6125
1725.44139	6128.2125
1728.67818	6101.3125
1731.91284	6061.4125
1735.14537	6005.5125
1738.37576	5992.8125
1741.60403	5969.0125
1744.83017	5974.0125
1748.05418	5958.5125
1751.27607	5939.3125
1754.49584	5913.9125
1757.71349	5893.5125
1760.92903	5890.9125
1764.14244	5868.2125
1767.35375	5865.0125
1770.56294	5856.8125
1773.77002	5837.1125
1776.97499	5824.4125
1780.17785	5797.6125
1783.37861	5780.0125
1786.57727	5756.2125
1789.77382	5754.2125
1792.96828	5743.4125
1796.16064	5720.1125
1799.3509	5733.4125
1802.53907	5699.7125
1805.72514	5703.0125
1808.90913	5687.7125
1812.09102	5677.4125
1815.27083	5668.2125
1818.44856	5644.5125
1821.6242	5615.1125
1824.79776	5622.7125
1827.96924	5619.8125
1831.13864	5597.8125
1834.30597	5594.1125
1837.47122	5579.8125
1840.6344	5568.0125
1843.7955	5561.6125
1846.95454	5552.8125
1850.11151	5556.9125
1853.26642	5545.8125
1856.41926	5553.9125
1859.57004	5550.6125
1862.71876	5533.8125
1865.86542	5533.5125
1869.01003	5506.7125
1872.15258	5510.5125
1875.29308	5491.2125
1878.43152	5493.4125
1881.56792	5491.7125
1884.70227	5473.1125
1887.83457	5481.4125
1890.96482	5472.6125
1894.09304	5446.3125
1897.21921	5446.0125
1900.34335	5443.6125
1903.46544	5430.1125
1906.58551	5445.2125
1909.70353	5454.5125
1912.81953	5421.5125
1915.93349	5414.9125
1919.04543	5385.8125
1922.15534	5395.4125
1925.26322	5371.8125
1928.36908	5378.3125
1931.47292	5341.4125
1934.57473	5350.6125
1937.67453	5317.6125
1940.77232	5343.8125
1943.86808	5297.8125
1946.96184	5285.0125
1950.05358	5272.5125
1953.14331	5257.6125
1956.23103	5244.3125
1959.31675	5206.0125
1962.40046	5204.0125
1965.48217	5185.8125
1968.56188	5163.2125
1971.63959	5159.1125
1974.7153	5136.9125
1977.78901	5142.0125
1980.86073	5119.5125
1983.93046	5090.4125
1986.99819	5084.3125
1990.06394	5076.4125
1993.1277	5061.0125
1996.18947	5062.7125
1999.24925	5032.7125
2002.30706	5004.2125
2005.36288	4990.4125
2008.41672	4964.1125
2011.46859	4952.9125
2014.51848	4936.7125
2017.56639	4912.8125
2020.61233	4926.9125
2023.6563	4904.7125
2026.6983	4881.3125
2029.73833	4856.5125
2032.7764	4863.5125
2035.8125	4837.7125
2038.84664	4831.9125
2041.87881	4836.2125
2044.90903	4818.7125
2047.93729	4803.9125
2050.96359	4813.5125
2053.98794	4791.3125
2057.01034	4784.2125
2060.03078	4779.2125
2063.04927	4758.1125
2066.06582	4774.9125
2069.08042	4764.8125
2072.09307	4755.0125
2075.10378	4750.2125
2078.11255	4737.9125
2081.11938	4748.8125
2084.12426	4737.0125
2087.12722	4712.9125
2090.12824	4747.2125
2093.12732	4749.3125
2096.12447	4747.3125
2099.11969	4761.3125
2102.11299	4742.8125
2105.10435	4755.2125
2108.09379	4734.0125
2111.08131	4731.9125
2114.0669	4743.3125
2117.05057	4740.2125
2120.03233	4738.4125
2123.01216	4745.5125
2125.99008	4752.4125
2128.96609	4755.1125
2131.94018	4766.3125
2134.91236	4773.9125
2137.88263	4758.1125
2140.851	4744.5125
2143.81746	4755.8125
2146.78201	4758.7125
2149.74466	4749.5125
2152.7054	4755.3125
2155.66425	4755.8125
2158.6212	4743.4125
2161.57625	4752.1125
2164.52941	4752.0125
2167.48067	4745.7125
2170.43004	4733.9125
2173.37752	4726.6125
2176.32311	4741.8125
2179.26681	4732.3125
2182.20863	4737.2125
2185.14856	4719.4125
2188.08661	4726.0125
2191.02278	4733.4125
2193.95707	4735.9125
2196.88948	4732.6125
2199.82001	4709.7125
2202.74867	4703.8125
2205.67545	4717.3125
2208.60037	4691.5125
2211.52341	4670.7125
2214.44458	4681.6125
2217.36388	4665.4125
2220.28132	4648.8125
2223.1969	4610.1125
2226.11061	4634.5125
2229.02246	4610.9125
2231.93245	4620.9125
2234.84058	4589.5125
2237.74686	4581.1125
2240.65128	4593.8125
2243.55385	4581.8125
2246.45456	4585.2125
2249.35343	4585.7125
2252.25044	4568.8125
2255.14561	4571.6125
2258.03893	4572.5125
2260.93041	4567.5125
2263.82004	4558.1125
2266.70783	4543.9125
2269.59378	4536.7125
2272.4779	4520.3125
2275.36017	4514.7125
2278.24061	4478.0125
2281.11922	4473.8125
2283.996	4469.6125
2286.87094	4466.7125
2289.74405	4462.6125
2292.61534	4451.8125
2295.4848	4448.5125
2298.35243	4448.9125
2301.21824	4438.1125
2304.08223	4434.9125
2306.94439	4445.9125
2309.80474	4432.6125
2312.66327	4430.4125
2315.51999	4408.7125
2318.37489	4404.1125
2321.22797	4414.4125
2324.07925	4382.5125
2326.92871	4374.4125
2329.77637	4377.1125
2332.62222	4368.7125
2335.46626	4367.0125
2338.3085	4354.9125
2341.14893	4364.9125
2343.98756	4347.9125
2346.8244	4357.9125
2349.65943	4355.2125
2352.49267	4359.0125
2355.32411	4363.5125
2358.15376	4353.0125
2360.98161	4364.5125
2363.80768	4358.5125
2366.63195	4350.0125
2369.45444	4334.7125
2372.27514	4348.4125
2375.09405	4337.3125
2377.91118	4339.8125
2380.72652	4327.5125
2383.54009	4309.5125
2386.35187	4292.4125
2389.16188	4296.5125
2391.97011	4266.7125
2394.77657	4262.7125
2397.58125	4251.2125
2400.38416	4236.4125
2403.18529	4240.6125
2405.98466	4229.8125
2408.78226	4217.2125
2411.57809	4230.5125
2414.37216	4212.5125
2417.16446	4236.4125
2419.955	4206.1125
2422.74378	4191.9125
2425.5308	4205.4125
2428.31606	4186.0125
2431.09956	4192.9125
2433.88131	4184.4125
2436.6613	4178.4125
2439.43954	4191.8125
2442.21603	4178.0125
2444.99077	4187.6125
2447.76377	4186.1125
2450.53501	4164.9125
2453.30451	4177.6125
2456.07226	4172.2125
2458.83827	4156.4125
2461.60254	4162.1125
2464.36507	4141.4125
2467.12586	4139.7125
2469.88492	4149.1125
2472.64224	4169.8125
2475.39782	4151.9125
2478.15167	4144.6125
2480.90379	4139.0125
2483.65417	4145.2125
2486.40283	4148.0125
2489.14976	4155.4125
2491.89497	4149.5125
2494.63845	4148.5125
2497.3802	4153.3125
2500.12024	4140.3125
2502.85855	4118.1125
2505.59514	4110.3125
2508.33002	4109.2125
2511.06318	4095.5125
2513.79462	4078.2125
2516.52435	4077.1125
2519.25237	4071.8125
2521.97867	4059.4125
2524.70327	4046.3125
2527.42616	4059.5125
2530.14734	4031.1125
2532.86681	4029.7125
2535.58458	4026.0125
2538.30065	4018.5125
2541.01501	4022.7125
2543.72768	4038.2125
2546.43864	4021.4125
2549.14791	4027.0125
2551.85548	4026.0125
2554.56136	4024.5125
2557.26554	4017.3125
2559.96803	3997.6125
2562.66883	4000.8125
2565.36794	4002.0125
2568.06536	3981.5125
2570.7611	3956.5125
2573.45514	3947.6125
2576.14751	3961.3125
2578.83819	3941.9125
2581.52719	3923.9125
2584.21451	3906.3125
2586.90015	3894.6125
2589.58411	3879.6125
2592.2664	3883.5125
2594.94701	3881.6125
2597.62594	3893.3125
2600.30321	3875.6125
2602.9788	3868.5125
2605.65273	3872.1125
2608.32498	3866.2125
2610.99557	3867.4125
2613.66449	3861.4125
2616.33175	3855.8125
2618.99734	3842.5125
2621.66128	3833.0125
2624.32355	3831.3125
2626.98416	3826.4125
2629.64311	3821.6125
2632.30041	3814.1125
2634.95605	3798.2125
2637.61004	3793.9125
2640.26238	3781.8125
2642.91306	3784.2125
2645.56209	3774.9125
2648.20948	3765.3125
2650.85521	3763.0125
2653.4993	3777.9125
2656.14175	3776.9125
2658.78255	3771.4125
2661.42171	3779.3125
2664.05923	3792.8125
2666.6951	3779.9125
2669.32934	3783.8125
2671.96194	3796.8125
2674.59291	3790.7125
2677.22224	3778.7125
2679.84993	3775.4125
2682.476	3771.2125
2685.10043	3763.5125
2687.72324	3755.5125
2690.34441	3774.8125
2692.96396	3758.6125
2695.58188	3754.2125
2698.19818	3749.7125
2700.81285	3765.6125
2703.4259	3764.6125
2706.03733	3765.0125
2708.64714	3751.1125
2711.25533	3731.5125
2713.86191	3737.2125
2716.46687	3745.2125
2719.07021	3763.0125
2721.67194	3751.9125
2724.27206	3750.4125
2726.87057	3738.8125
2729.46747	3755.2125
2732.06276	3743.3125
2734.65644	3743.4125
2737.24852	3739.3125
2739.83899	3727.7125
2742.42786	3730.0125
2745.01513	3713.3125
2747.60079	3719.6125
2750.18486	3703.8125
2752.76733	3705.2125
2755.3482	3711.2125
2757.92747	3675.3125
2760.50515	3677.6125
2763.08123	3648.6125
2765.65573	3657.7125
2768.22863	3652.8125
2770.79994	3652.2125
2773.36967	3657.4125
2775.9378	3631.3125
2778.50435	3641.6125
2781.06932	3618.9125
2783.6327	3622.6125
2786.1945	3606.9125
2788.75471	3613.1125
2791.31335	3604.7125
2793.87041	3600.9125
2796.42589	3590.9125
2798.97979	3595.7125
2801.53212	3582.8125
2804.08288	3586.3125
2806.63206	3577.5125
2809.17967	3575.4125
2811.72571	3573.9125
2814.27018	3591.5125
2816.81308	3564.6125
2819.35442	3556.2125
2821.89419	3537.6125
2824.43239	3532.0125
2826.96904	3519.4125
2829.50412	3522.0125
2832.03763	3507.4125
2834.56959	3499.5125
2837.1	3495.9125
2839.62884	3488.1125
2842.15613	3489.1125
2844.68186	3477.8125
2847.20604	3465.7125
2849.72867	3472.0125
2852.24974	3458.0125
2854.76927	3457.7125
2857.28724	3449.3125
2859.80367	3437.3125
2862.31855	3424.3125
2864.83189	3452.1125
2867.34368	3444.1125
2869.85393	3451.0125
2872.36264	3438.3125
2874.8698	3438.0125
2877.37543	3427.7125
2879.87952	3423.9125
2882.38207	3425.5125
2884.88308	3414.8125
2887.38256	3415.9125
2889.88051	3395.5125
2892.37692	3398.0125
2894.8718	3387.3125
2897.36515	3401.3125
2899.85698	3390.2125
2902.34727	3399.0125
2904.83604	3395.9125
2907.32328	3396.8125
2909.809	3415.0125
2912.29319	3413.8125
2914.77587	3413.1125
2917.25702	3399.9125
2919.73665	3407.1125
2922.21476	3409.0125
2924.69136	3404.2125
2927.16644	3412.5125
2929.64	3396.5125
2932.11205	3370.7125
2934.58258	3368.9125
2937.05161	3380.2125
2939.51912	3349.3125
2941.98513	3370.2125
2944.44962	3344.3125
2946.91261	3333.1125
2949.37409	3352.9125
2951.83407	3354.1125
2954.29254	3345.5125
2956.74951	3327.1125
2959.20498	3325.7125
2961.65895	3322.6125
2964.11142	3316.9125
2966.56239	3316.5125
2969.01186	3314.4125
2971.45984	3316.7125
2973.90632	3306.6125
2976.35131	3316.4125
2978.7948	3287.6125
2981.23681	3292.4125
2983.67732	3291.3125
2986.11635	3278.5125
2988.55388	3264.4125
2990.98993	3267.1125
2993.4245	3271.5125
2995.85758	3264.6125
2998.28917	3257.2125
3000.71928	3236.0125
3003.14791	3236.4125
3005.57506	3235.6125
3008.00073	3211.4125
3010.42493	3207.4125
3012.84764	3189.5125
3015.26888	3180.2125
3017.68865	3177.2125
3020.10694	3174.9125
3022.52376	3168.1125
3024.9391	3166.6125
3027.35298	3149.4125
3029.76539	3137.1125
3032.17632	3125.7125
3034.5858	3129.1125
3036.9938	3114.8125
3039.40034	3108.7125
3041.80542	3105.1125
3044.20903	3105.7125
3046.61118	3099.2125
3049.01187	3081.8125
3051.4111	3069.4125
3053.80888	3079.7125
3056.20519	3079.1125
3058.60005	3048.8125
3060.99345	3053.4125
3063.3854	3057.7125
3065.7759	3046.5125
3068.16494	3052.7125
3070.55254	3028.6125
3072.93868	3020.5125
3075.32338	3016.6125
3077.70662	2996.7125
3080.08842	2992.4125
3082.46878	2979.4125
3084.84769	2974.0125
3087.22515	2962.8125
3089.60118	2971.1125
3091.97576	2970.7125
3094.3489	2960.2125
3096.72061	2961.4125
3099.09087	2970.0125
3101.4597	2960.0125
3103.82709	2960.9125
3106.19305	2943.6125
3108.55757	2940.1125
3110.92066	2939.0125
3113.28232	2929.5125
3115.64255	2917.2125
3118.00134	2920.7125
3120.35871	2906.1125
3122.71466	2913.7125
3125.06917	2911.4125
3127.42226	2897.4125
3129.77393	2883.1125
3132.12417	2884.5125
3134.47299	2870.1125
3136.82039	2858.3125
3139.16636	2869.1125
3141.51092	2867.0125
3143.85406	2872.7125
3146.19579	2861.0125
3148.53609	2875.0125
3150.87499	2868.8125
3153.21246	2865.8125
3155.54853	2856.4125
3157.88318	2849.2125
3160.21642	2859.7125
3162.54826	2853.3125
3164.87868	2851.0125
3167.2077	2839.6125
3169.5353	2829.7125
3171.86151	2836.7125
3174.18631	2822.2125
3176.5097	2831.5125
3178.83169	2805.0125
3181.15228	2812.6125
3183.47147	2798.1125
3185.78926	2807.3125
3188.10565	2796.6125
3190.42065	2779.4125
3192.73424	2778.7125
3195.04645	2770.5125
3197.35725	2755.0125
3199.66667	2756.3125
3201.97469	2760.0125
3204.28132	2749.0125
3206.58656	2764.6125
3208.8904	2769.6125
3211.19287	2766.9125
3213.49394	2776.7125
3215.79363	2759.6125
3218.09193	2761.7125
3220.38884	2756.1125
3222.68438	2754.0125
3224.97853	2755.6125
3227.2713	2759.7125
3229.56269	2755.7125
3231.8527	2740.3125
3234.14133	2725.8125
3236.42858	2721.1125
3238.71446	2725.2125
3240.99896	2710.4125
3243.28209	2704.3125
3245.56384	2708.7125
3247.84423	2703.0125
3250.12324	2698.8125
3252.40088	2685.7125
3254.67715	2691.7125
3256.95205	2685.2125
3259.22558	2665.4125
3261.49775	2679.5125
3263.76855	2673.2125
3266.03799	2676.9125
3268.30606	2678.1125
3270.57277	2669.7125
3272.83812	2671.8125
3275.10211	2654.7125
3277.36474	2656.9125
3279.62601	2643.0125
3281.88593	2646.9125
3284.14448	2631.2125
3286.40168	2631.4125
3288.65753	2646.8125
3290.91202	2628.9125
3293.16516	2628.3125
3295.41695	2618.4125
3297.66738	2600.0125
3299.91647	2595.4125
3302.16421	2581.0125
3304.4106	2572.1125
3306.65564	2540.8125
3308.89933	2519.4125
3311.14169	2497.0125
3313.38269	2480.4125
3315.62236	2468.5125
3317.86068	2450.9125
3320.09766	2426.5125
3322.3333	2410.8125
3324.5676	2395.6125
3326.80056	2364.7125
3329.03219	2344.9125
3331.26248	1.1125
3333.49143	-0.4875
3335.71905	-0.8875
