Data from AgNPs_UA_5uM_CRN_500uM_SU_RamanShift__66__11-40-23-152.txt Node

Date: Thu Aug 04 11:40:23 BST 2022
User: TCL
Spectrometer: QEP01345
Trigger mode: 4
Integration Time (sec): 1.000000E0
Scans to average: 10
Electric dark correction enabled: true
Nonlinearity correction enabled: false
Boxcar width: 0
XAxis mode: Raman Shifts
Number of Pixels in Spectrum: 1044
>>>>>Begin Spectral Data<<<<<
46.04893	0.2
50.45542	0.2
54.85868	-0.2
59.25871	-1.3
63.6555	-57.3
68.04907	-37.9
72.43941	-70.5
76.82654	-56.7
81.21044	-57.5
85.59113	-46.8
89.96862	-71.9
94.34289	-53.7
98.71396	-75.5
103.08183	-55.1
107.4465	-48.6
111.80798	-54
116.16626	-41.7
120.52136	-72.3
124.87327	-45.9
129.222	-58.6
133.56755	-44.2
137.90993	-58.8
142.24913	-44
146.58517	-33.4
150.91804	-27.8
155.24774	-14.5
159.57429	9.1
163.89768	22.4
168.21792	77.2
172.53501	116.3
176.84895	224.6
181.15975	387.5
185.46741	585.8
189.77193	830.2
194.07331	1199.3
198.37157	1571
202.6667	1960.3
206.9587	2402.3
211.24758	2842.5
215.53334	3345.5
219.81599	3903.2
224.09553	4528.8
228.37195	5198.7
232.64527	5848.2
236.91549	6399.7
241.18261	6728.9
245.44663	6908.7
249.70755	6971.1
253.96539	7056.4
258.22014	7169.9
262.4718	7285.4
266.72039	7313.3
270.96589	7221.3
275.20832	6980.2
279.44768	6750.7
283.68397	6577.9
287.91719	6481.8
292.14735	6592.8
296.37445	6952.4
300.59849	7580.1
304.81948	8477.1
309.03742	9474.5
313.25231	10205.5
317.46415	10077.7
321.67296	9057.4
325.87872	7873.4
330.08145	7193.9
334.28114	7033.7
338.47781	7234.1
342.67145	7623.9
346.86207	8257.2
351.04966	9222.3
355.23424	10227.6
359.4158	10653.1
363.59435	10366.6
367.76989	9831.5
371.94243	9294.6
376.11196	8862.1
380.27849	8554
384.44203	8310.4
388.60257	8208.8
392.76012	8217.2
396.91468	8459.2
401.06626	8743.8
405.21485	8773.4
409.36047	8355
413.50311	7645.2
417.64277	6985
421.77947	6514.7
425.9132	6323.3
430.04396	6235.6
434.17176	6208.9
438.2966	6318.7
442.41849	6449.3
446.53742	6638.5
450.6534	6758.4
454.76644	6801.1
458.87653	6768.1
462.98368	6688.6
467.08789	6603.8
471.18916	6423.9
475.2875	6224
479.38291	6055.5
483.4754	5945
487.56496	5874.9
491.6516	5834.7
495.73531	5842.3
499.81612	5872.9
503.89401	6005.6
507.96899	6166.1
512.04106	6335.8
516.11023	6500.1
520.1765	6637.1
524.23987	6726.5
528.30034	6706.1
532.35792	6577
536.41261	6466.9
540.46441	6311.5
544.51333	6203.5
548.55936	6212
552.60252	6332.4
556.64279	6506.5
560.6802	6810
564.71473	7459.4
568.7464	8228.8
572.7752	8156.2
576.80114	7113.5
580.82422	6265
584.84444	5889.5
588.86181	5804.1
592.87633	5806
596.888	5986.7
600.89682	6578.7
604.9028	8450.3
608.90594	13108.4
612.90624	18708.6
616.90371	17065.6
620.89834	10107.1
624.89015	7093.1
628.87913	6758.1
632.86528	7187.4
636.84862	7417.3
640.82913	6899.1
644.80683	6157.8
648.78172	5809.5
652.75379	5909.9
656.72306	6455
660.68952	7009.4
664.65319	6762.7
668.61405	6121.3
672.57211	5888.8
676.52738	5896.5
680.47986	5788.9
684.42955	5631.5
688.37646	5582
692.32058	5588.6
696.26192	5703.5
700.20048	5841.5
704.13626	5859.2
708.06928	5778.8
711.99952	5722
715.927	5757.1
719.85171	5890.5
723.77365	6001.2
727.69284	5884.9
731.60928	5786.2
735.52295	5747.4
739.43388	5779.5
743.34206	5812.5
747.24749	5838.3
751.15017	5862
755.05012	6064
758.94733	6960.5
762.8418	8957.2
766.73354	11623.7
770.62254	13045.7
774.50882	12523.4
778.39237	11591.2
782.27321	10147.5
786.15132	8142.5
790.02671	6780.5
793.89938	6101.4
797.76935	5894.6
801.6366	5765
805.50115	5697.3
809.36299	5664.7
813.22213	5654.5
817.07857	5658.5
820.93231	5691.8
824.78336	5746.4
828.63172	5844.4
832.47738	5849.4
836.32036	5797.2
840.16066	5654
843.99827	5592.6
847.8332	5574.1
851.66546	5566.6
855.49504	5555
859.32195	5550.3
863.1462	5516.8
866.96777	5514.1
870.78668	5493.9
874.60293	5541.9
878.41652	5583.6
882.22745	5714.1
886.03573	5779.8
889.84136	5753.3
893.64433	5734.1
897.44466	5735.1
901.24235	5733.6
905.0374	5699.6
908.8298	5546.1
912.61957	5468.4
916.40671	5375.5
920.19121	5443.1
923.97308	5590.5
927.75233	5841.6
931.52895	6117.6
935.30295	5981.9
939.07433	5582
942.84309	5313
946.60924	5222.4
950.37278	5164.9
954.13371	5152.3
957.89203	5164.1
961.64774	5169.2
965.40086	5147.1
969.15137	5125.8
972.89929	5145.9
976.64461	5140.9
980.38733	5145.7
984.12747	5128.7
987.86502	5132.4
991.59999	5166.2
995.33237	5234
999.06217	5303.6
1002.78939	5445.6
1006.51404	5656.2
1010.23611	5764.8
1013.95561	5697.8
1017.67255	5592.5
1021.38692	5504.4
1025.09872	5405.5
1028.80796	5314.4
1032.51465	5334.2
1036.21877	5365.1
1039.92035	5415.1
1043.61937	5461.9
1047.31584	5516.5
1051.00976	5557.5
1054.70114	5549.7
1058.38998	5487.3
1062.07627	5499.7
1065.76003	5507.8
1069.44126	5570.3
1073.11995	5687
1076.79611	5924.1
1080.46974	6275.7
1084.14085	6750
1087.80943	7152.5
1091.47549	7145.8
1095.13903	6776.5
1098.80005	6433.3
1102.45857	6288.1
1106.11456	6264.1
1109.76805	6248.9
1113.41903	6478.7
1117.06751	6898.4
1120.71348	7567.3
1124.35696	8560.2
1127.99793	9259.1
1131.63641	8722.2
1135.2724	7612.4
1138.90589	6858.5
1142.5369	6413.9
1146.16542	6165.3
1149.79145	5963.5
1153.415	5905.6
1157.03607	5918.4
1160.65467	6065.2
1164.27079	6360.1
1167.88443	6759.9
1171.49561	7484.6
1175.10432	8682.3
1178.71056	10370.2
1182.31434	11636.9
1185.91565	11508.4
1189.51451	10485.1
1193.11091	9398.6
1196.70485	8678.9
1200.29634	8379.1
1203.88538	7995.2
1207.47197	7315.1
1211.05612	6633.9
1214.63782	6184.4
1218.21708	5966.6
1221.79391	5861.1
1225.36829	5833.1
1228.94024	5845.7
1232.50976	5833.2
1236.07685	5860.8
1239.6415	5903.9
1243.20374	5974.8
1246.76355	6113.5
1250.32093	6243.3
1253.8759	6411.9
1257.42845	6789.8
1260.97859	7245.2
1264.52631	7754.2
1268.07163	7984.3
1271.61453	8050.1
1275.15503	7908
1278.69312	7747.1
1282.22882	7855.5
1285.76211	8413.4
1289.29301	9221.6
1292.82151	9775.3
1296.34761	10017.2
1299.87133	10588.8
1303.39266	11986.6
1306.9116	14666.9
1310.42815	17844.1
1313.94233	18951.9
1317.45412	16569.9
1320.96354	13111.3
1324.47058	10484.2
1327.97525	8873
1331.47754	7979.5
1334.97747	7692.6
1338.47502	7789.8
1341.97022	8507.8
1345.46305	9995.7
1348.95352	12086.8
1352.44163	14233.6
1355.92738	16755
1359.41078	21064.5
1362.89183	25724.4
1366.37053	24679
1369.84688	17960.7
1373.32088	12394.2
1376.79254	9904.3
1380.26186	8800.7
1383.72883	7942
1387.19347	7151.4
1390.65578	6540
1394.11575	6199.8
1397.57339	5993.6
1401.0287	5877.3
1404.48168	5787.5
1407.93234	5771.8
1411.38068	5854
1414.82669	6138.7
1418.27039	6449.7
1421.71177	6513.5
1425.15083	6367.1
1428.58758	6346.3
1432.02203	6594.1
1435.45416	6824.2
1438.88399	6637.4
1442.31151	6376.8
1445.73673	6351
1449.15965	6309.9
1452.58027	6222.8
1455.9986	6128.1
1459.41463	6023.1
1462.82837	6059.7
1466.23982	6236.8
1469.64898	6458.3
1473.05586	6560.3
1476.46045	6595.7
1479.86276	6647.8
1483.26279	6834.4
1486.66054	7289.9
1490.05602	7977.3
1493.44922	9087.8
1496.84016	10802.8
1500.22882	13483.4
1503.61521	17147.2
1506.99934	21742.3
1510.38121	26126.1
1513.76081	27643.1
1517.13816	24584.5
1520.51324	18939.7
1523.88607	13987.3
1527.25665	10827.1
1530.62498	9055.9
1533.99105	8060.3
1537.35488	7408.4
1540.71647	6991
1544.07581	6874.1
1547.4329	6852.2
1550.78776	6956.1
1554.14038	7146.9
1557.49077	7528.3
1560.83892	8116.8
1564.18484	9052.1
1567.52853	10089.3
1570.86999	10759.2
1574.20922	10867.5
1577.54624	10484.6
1580.88103	9249.9
1584.2136	7727.2
1587.54395	6828.4
1590.87208	6615.4
1594.19801	6884.4
1597.52172	7373.3
1600.84321	7408.4
1604.16251	6915.6
1607.47959	6404.4
1610.79447	6096.2
1614.10715	5790.5
1617.41763	5588.2
1620.7259	5472
1624.03199	5479.6
1627.33587	5549.6
1630.63757	5772
1633.93707	6236.9
1637.23439	7067.1
1640.52951	8590.5
1643.82246	11089.8
1647.11321	14497.4
1650.40179	17142.2
1653.68819	16853.6
1656.97241	13681.6
1660.25446	10044.8
1663.53433	7576.1
1666.81203	6229
1670.08756	5530.9
1673.36092	5170.8
1676.63211	4910.6
1679.90115	4761
1683.16801	4655.4
1686.43272	4533.4
1689.69527	4480.1
1692.95567	4430.7
1696.2139	4390
1699.46999	4352.9
1702.72392	4342
1705.97571	4342
1709.22535	4319.9
1712.47284	4385.7
1715.71819	4401.2
1718.96139	4420.8
1722.20246	4393.1
1725.44139	4359.3
1728.67818	4307.7
1731.91284	4259.7
1735.14537	4206.8
1738.37576	4172.3
1741.60403	4159.5
1744.83017	4130.5
1748.05418	4124.1
1751.27607	4103.8
1754.49584	4057.1
1757.71349	4007.7
1760.92903	3989.3
1764.14244	3954
1767.35375	3931.7
1770.56294	3891.2
1773.77002	3878.7
1776.97499	3868.3
1780.17785	3832.8
1783.37861	3823.5
1786.57727	3824
1789.77382	3764.1
1792.96828	3815
1796.16064	3826.3
1799.3509	3801.7
1802.53907	3794.7
1805.72514	3776.5
1808.90913	3744
1812.09102	3739.1
1815.27083	3741.9
1818.44856	3725.6
1821.6242	3704.5
1824.79776	3697.9
1827.96924	3672.6
1831.13864	3658.4
1834.30597	3650.2
1837.47122	3640.8
1840.6344	3624.5
1843.7955	3574.8
1846.95454	3562.7
1850.11151	3592.9
1853.26642	3546.5
1856.41926	3553.4
1859.57004	3562.7
1862.71876	3557.3
1865.86542	3558.2
1869.01003	3567.6
1872.15258	3552.6
1875.29308	3568.2
1878.43152	3568
1881.56792	3541.5
1884.70227	3530.1
1887.83457	3521.9
1890.96482	3502
1894.09304	3489.8
1897.21921	3486.6
1900.34335	3488.5
1903.46544	3470.9
1906.58551	3482.9
1909.70353	3478.9
1912.81953	3480.7
1915.93349	3447.8
1919.04543	3447.5
1922.15534	3432.5
1925.26322	3416.3
1928.36908	3404.7
1931.47292	3406.5
1934.57473	3377.8
1937.67453	3350.9
1940.77232	3325.7
1943.86808	3310.2
1946.96184	3308.1
1950.05358	3277.6
1953.14331	3263.1
1956.23103	3285.1
1959.31675	3250.5
1962.40046	3222
1965.48217	3260.3
1968.56188	3253.9
1971.63959	3269.8
1974.7153	3243.7
1977.78901	3245.8
1980.86073	3213.1
1983.93046	3170.4
1986.99819	3089
1990.06394	3102.5
1993.1277	3132.1
1996.18947	3113.8
1999.24925	3087.8
2002.30706	3078.6
2005.36288	3069.3
2008.41672	3053.6
2011.46859	3029.8
2014.51848	3021.7
2017.56639	2987.5
2020.61233	2985.4
2023.6563	2986.9
2026.6983	2946.9
2029.73833	2955.8
2032.7764	2972.8
2035.8125	2908.8
2038.84664	2926.4
2041.87881	2930
2044.90903	2939.5
2047.93729	2920.6
2050.96359	2891.5
2053.98794	2894.5
2057.01034	2908.6
2060.03078	2872.7
2063.04927	2857.7
2066.06582	2860.9
2069.08042	2844.2
2072.09307	2844.5
2075.10378	2848.1
2078.11255	2845.1
2081.11938	2846.3
2084.12426	2833
2087.12722	2840.4
2090.12824	2830.4
2093.12732	2836.3
2096.12447	2832.3
2099.11969	2819.4
2102.11299	2818.6
2105.10435	2847.5
2108.09379	2841.8
2111.08131	2831
2114.0669	2830.6
2117.05057	2836.6
2120.03233	2834.8
2123.01216	2874.9
2125.99008	2869.6
2128.96609	2868.3
2131.94018	2880.9
2134.91236	2854.9
2137.88263	2851
2140.851	2849.3
2143.81746	2858.6
2146.78201	2836.9
2149.74466	2823.7
2152.7054	2830.9
2155.66425	2818.5
2158.6212	2789.3
2161.57625	2765.2
2164.52941	2751.5
2167.48067	2759
2170.43004	2769.1
2173.37752	2782.1
2176.32311	2782.3
2179.26681	2788.3
2182.20863	2790.6
2185.14856	2779.3
2188.08661	2779.3
2191.02278	2787.4
2193.95707	2747.8
2196.88948	2742.7
2199.82001	2747.4
2202.74867	2725.1
2205.67545	2751.4
2208.60037	2747
2211.52341	2734.3
2214.44458	2708.2
2217.36388	2714.9
2220.28132	2701.6
2223.1969	2686.4
2226.11061	2699.4
2229.02246	2667
2231.93245	2669.4
2234.84058	2664.2
2237.74686	2643.9
2240.65128	2655.7
2243.55385	2652.9
2246.45456	2629.9
2249.35343	2654.4
2252.25044	2662.2
2255.14561	2661.4
2258.03893	2684.9
2260.93041	2680.2
2263.82004	2690.3
2266.70783	2694.6
2269.59378	2647.2
2272.4779	2657.5
2275.36017	2655
2278.24061	2643.7
2281.11922	2605.5
2283.996	2631.5
2286.87094	2603.4
2289.74405	2608.8
2292.61534	2591.1
2295.4848	2586.4
2298.35243	2573.9
2301.21824	2558.1
2304.08223	2563.7
2306.94439	2551.4
2309.80474	2560.3
2312.66327	2560.2
2315.51999	2530.3
2318.37489	2539.5
2321.22797	2530.9
2324.07925	2513
2326.92871	2506
2329.77637	2488.9
2332.62222	2490.9
2335.46626	2476.2
2338.3085	2477.3
2341.14893	2505.6
2343.98756	2509.8
2346.8244	2486.3
2349.65943	2483.8
2352.49267	2495.5
2355.32411	2501.2
2358.15376	2506
2360.98161	2524.6
2363.80768	2504.7
2366.63195	2528.4
2369.45444	2541.3
2372.27514	2543.5
2375.09405	2542
2377.91118	2511.9
2380.72652	2499.9
2383.54009	2494.9
2386.35187	2490
2389.16188	2469.2
2391.97011	2468.4
2394.77657	2452.2
2397.58125	2449.4
2400.38416	2429.3
2403.18529	2408.3
2405.98466	2399.6
2408.78226	2404.6
2411.57809	2376.2
2414.37216	2376.6
2417.16446	2397.9
2419.955	2371.9
2422.74378	2394.2
2425.5308	2363.1
2428.31606	2388.3
2431.09956	2391
2433.88131	2363.1
2436.6613	2380.3
2439.43954	2373.2
2442.21603	2377.1
2444.99077	2370.3
2447.76377	2388.5
2450.53501	2383
2453.30451	2386.8
2456.07226	2383.1
2458.83827	2387.3
2461.60254	2335.4
2464.36507	2373.1
2467.12586	2337.7
2469.88492	2369.4
2472.64224	2361.6
2475.39782	2354.1
2478.15167	2372.3
2480.90379	2371.5
2483.65417	2395.9
2486.40283	2397.1
2489.14976	2410.3
2491.89497	2406.4
2494.63845	2410.5
2497.3802	2383.2
2500.12024	2372.3
2502.85855	2367.6
2505.59514	2361
2508.33002	2345.5
2511.06318	2301.6
2513.79462	2303.6
2516.52435	2260
2519.25237	2232.8
2521.97867	2229.2
2524.70327	2218.2
2527.42616	2219.3
2530.14734	2228.9
2532.86681	2200.3
2535.58458	2213.7
2538.30065	2198.8
2541.01501	2229.2
2543.72768	2197.1
2546.43864	2205.6
2549.14791	2199.4
2551.85548	2197.5
2554.56136	2197.2
2557.26554	2217.1
2559.96803	2201.7
2562.66883	2207.4
2565.36794	2203.1
2568.06536	2168.4
2570.7611	2200.5
2573.45514	2180.1
2576.14751	2175.1
2578.83819	2154.8
2581.52719	2151.7
2584.21451	2151.6
2586.90015	2124.7
2589.58411	2123.5
2592.2664	2121.1
2594.94701	2122.3
2597.62594	2128.6
2600.30321	2064.7
2602.9788	2084.8
2605.65273	2091.5
2608.32498	2097.2
2610.99557	2110.4
2613.66449	2081.4
2616.33175	2092
2618.99734	2109
2621.66128	2095
2624.32355	2078.6
2626.98416	2072
2629.64311	2051.7
2632.30041	2052.1
2634.95605	2025.7
2637.61004	2024.4
2640.26238	1998.9
2642.91306	1998.9
2645.56209	2017.3
2648.20948	2008.1
2650.85521	2004
2653.4993	2027.2
2656.14175	2015
2658.78255	2001
2661.42171	1973.9
2664.05923	2017.7
2666.6951	2031.8
2669.32934	2039.1
2671.96194	2044.4
2674.59291	2032.8
2677.22224	2038.3
2679.84993	2034.6
2682.476	2018.1
2685.10043	2017
2687.72324	2006.1
2690.34441	2002.8
2692.96396	2003
2695.58188	2016.6
2698.19818	2009.8
2700.81285	2003.3
2703.4259	1971.4
2706.03733	1953.2
2708.64714	1954.1
2711.25533	1987.1
2713.86191	1996.5
2716.46687	1984
2719.07021	1982.2
2721.67194	1987.3
2724.27206	1999
2726.87057	1975
2729.46747	1966.7
2732.06276	1969.8
2734.65644	1948.2
2737.24852	1959.7
2739.83899	1938.1
2742.42786	1939.7
2745.01513	1937.6
2747.60079	1921.1
2750.18486	1912.4
2752.76733	1902.7
2755.3482	1909.6
2757.92747	1895.1
2760.50515	1884.6
2763.08123	1881.6
2765.65573	1876.6
2768.22863	1877
2770.79994	1861.1
2773.36967	1875.8
2775.9378	1860.3
2778.50435	1858.4
2781.06932	1859.9
2783.6327	1842
2786.1945	1864.6
2788.75471	1844.5
2791.31335	1850.1
2793.87041	1843.7
2796.42589	1828.8
2798.97979	1831.7
2801.53212	1838.4
2804.08288	1857.9
2806.63206	1843.2
2809.17967	1838.6
2811.72571	1862.9
2814.27018	1864.9
2816.81308	1858.4
2819.35442	1824.8
2821.89419	1860.6
2824.43239	1858.7
2826.96904	1887.6
2829.50412	1859.7
2832.03763	1859.6
2834.56959	1861.9
2837.1	1839.2
2839.62884	1833.3
2842.15613	1832.1
2844.68186	1842.5
2847.20604	1817
2849.72867	1820.3
2852.24974	1826.4
2854.76927	1805.9
2857.28724	1765.6
2859.80367	1832.2
2862.31855	1851.4
2864.83189	1846.2
2867.34368	1856.9
2869.85393	1871.9
2872.36264	1848.9
2874.8698	1871.5
2877.37543	1868.8
2879.87952	1845.6
2882.38207	1818.8
2884.88308	1822.4
2887.38256	1817.7
2889.88051	1804.7
2892.37692	1808.8
2894.8718	1768.8
2897.36515	1802.2
2899.85698	1789.4
2902.34727	1785.8
2904.83604	1801.5
2907.32328	1818.3
2909.809	1821.2
2912.29319	1823.9
2914.77587	1840.7
2917.25702	1846.7
2919.73665	1855.8
2922.21476	1839.8
2924.69136	1834.9
2927.16644	1806.4
2929.64	1795.8
2932.11205	1760.7
2934.58258	1771.3
2937.05161	1755.3
2939.51912	1763.2
2941.98513	1765.2
2944.44962	1755.1
2946.91261	1732.3
2949.37409	1745
2951.83407	1735.4
2954.29254	1745.7
2956.74951	1744.2
2959.20498	1740.7
2961.65895	1740.5
2964.11142	1739.5
2966.56239	1736.7
2969.01186	1731.7
2971.45984	1728.2
2973.90632	1720.7
2976.35131	1737.7
2978.7948	1729.8
2981.23681	1717.5
2983.67732	1726.4
2986.11635	1729.7
2988.55388	1707.3
2990.98993	1729.7
2993.4245	1707.7
2995.85758	1708.8
2998.28917	1704.2
3000.71928	1703.6
3003.14791	1698.5
3005.57506	1687.3
3008.00073	1676.4
3010.42493	1621.5
3012.84764	1682
3015.26888	1669.6
3017.68865	1663
3020.10694	1624.1
3022.52376	1641.6
3024.9391	1632.3
3027.35298	1628.2
3029.76539	1607.8
3032.17632	1615.7
3034.5858	1595.1
3036.9938	1597.7
3039.40034	1580.5
3041.80542	1567.4
3044.20903	1553.7
3046.61118	1545.3
3049.01187	1558.5
3051.4111	1543.8
3053.80888	1522.9
3056.20519	1526.7
3058.60005	1505.1
3060.99345	1535.9
3063.3854	1511.4
3065.7759	1502.1
3068.16494	1498.3
3070.55254	1492.6
3072.93868	1508.2
3075.32338	1493.5
3077.70662	1488.1
3080.08842	1474.7
3082.46878	1470.2
3084.84769	1488.7
3087.22515	1458.3
3089.60118	1485.9
3091.97576	1454.2
3094.3489	1461.9
3096.72061	1470.7
3099.09087	1445.8
3101.4597	1458.2
3103.82709	1449.8
3106.19305	1443.2
3108.55757	1452.7
3110.92066	1443.7
3113.28232	1459.4
3115.64255	1454.3
3118.00134	1456.4
3120.35871	1432.5
3122.71466	1417.2
3125.06917	1426.5
3127.42226	1422.5
3129.77393	1412.3
3132.12417	1423.9
3134.47299	1428.2
3136.82039	1412.9
3139.16636	1384.9
3141.51092	1421.1
3143.85406	1407.8
3146.19579	1402.3
3148.53609	1397.7
3150.87499	1408.3
3153.21246	1405.4
3155.54853	1413.3
3157.88318	1410.8
3160.21642	1416.4
3162.54826	1408.9
3164.87868	1419.3
3167.2077	1373.1
3169.5353	1393.9
3171.86151	1400.9
3174.18631	1375.3
3176.5097	1376.1
3178.83169	1376.5
3181.15228	1373.7
3183.47147	1355.9
3185.78926	1332.2
3188.10565	1345.3
3190.42065	1329
3192.73424	1342.6
3195.04645	1330.7
3197.35725	1315.5
3199.66667	1337.8
3201.97469	1333.2
3204.28132	1323.5
3206.58656	1334.5
3208.8904	1341.5
3211.19287	1333.9
3213.49394	1327.9
3215.79363	1336
3218.09193	1342.1
3220.38884	1335.5
3222.68438	1325.4
3224.97853	1317.7
3227.2713	1322.9
3229.56269	1311.2
3231.8527	1319.2
3234.14133	1309.3
3236.42858	1303.9
3238.71446	1287.1
3240.99896	1307.2
3243.28209	1283
3245.56384	1297.2
3247.84423	1285.4
3250.12324	1297.5
3252.40088	1287.6
3254.67715	1278.8
3256.95205	1271.5
3259.22558	1294.3
3261.49775	1284.8
3263.76855	1276
3266.03799	1286.4
3268.30606	1286.6
3270.57277	1284.5
3272.83812	1272.7
3275.10211	1273.7
3277.36474	1289.1
3279.62601	1294.5
3281.88593	1263.5
3284.14448	1249.9
3286.40168	1271
3288.65753	1269.2
3290.91202	1277.6
3293.16516	1260.5
3295.41695	1294.8
3297.66738	1293.1
3299.91647	1285.7
3302.16421	1288.2
3304.4106	1248.3
3306.65564	1268.6
3308.89933	1247.9
3311.14169	1246.3
3313.38269	1236.4
3315.62236	1230.6
3317.86068	1221.2
3320.09766	1222.2
3322.3333	1193.3
3324.5676	1207.9
3326.80056	1184.3
3329.03219	1185.3
3331.26248	-0.1
3333.49143	-0
3335.71905	1
