Data from AgNPs_UA_5uM_CRN_500uM_SU_RamanShift__267__12-13-53-193.txt Node

Date: Thu Aug 04 12:13:53 BST 2022
User: TCL
Spectrometer: QEP01345
Trigger mode: 4
Integration Time (sec): 1.000000E0
Scans to average: 10
Electric dark correction enabled: true
Nonlinearity correction enabled: false
Boxcar width: 0
XAxis mode: Raman Shifts
Number of Pixels in Spectrum: 1044
>>>>>Begin Spectral Data<<<<<
46.04893	-0.2875
50.45542	-0.2875
54.85868	0.0125
59.25871	-0.3875
63.6555	-57.6875
68.04907	-39.1875
72.43941	-70.4875
76.82654	-55.2875
81.21044	-55.7875
85.59113	-50.0875
89.96862	-77.1875
94.34289	-55.6875
98.71396	-76.6875
103.08183	-58.1875
107.4465	-48.5875
111.80798	-56.8875
116.16626	-43.3875
120.52136	-73.9875
124.87327	-49.1875
129.222	-62.0875
133.56755	-48.5875
137.90993	-63.6875
142.24913	-50.6875
146.58517	-41.8875
150.91804	-42.2875
155.24774	-29.1875
159.57429	-9.3875
163.89768	-6.0875
168.21792	38.1125
172.53501	57.2125
176.84895	138.6125
181.15975	272.0125
185.46741	418.7125
189.77193	602.7125
194.07331	888.8125
198.37157	1183.3125
202.6667	1464.6125
206.9587	1779.0125
211.24758	2110.8125
215.53334	2416.6125
219.81599	2758.8125
224.09553	3181.0125
228.37195	3638.6125
232.64527	4083.6125
236.91549	4542.3125
241.18261	4892.5125
245.44663	5184.0125
249.70755	5356.0125
253.96539	5475.6125
258.22014	5575.9125
262.4718	5663.0125
266.72039	5679.8125
270.96589	5662.7125
275.20832	5571.3125
279.44768	5457.4125
283.68397	5344.5125
287.91719	5295.4125
292.14735	5341.7125
296.37445	5505.8125
300.59849	5811.0125
304.81948	6168.7125
309.03742	6518.4125
313.25231	6773.9125
317.46415	6729.5125
321.67296	6348.5125
325.87872	5932.3125
330.08145	5739.8125
334.28114	5679.1125
338.47781	5766.7125
342.67145	5872.5125
346.86207	6123.2125
351.04966	6486.7125
355.23424	6834.4125
359.4158	7127.7125
363.59435	7168.3125
367.76989	7116.0125
371.94243	6959.3125
376.11196	6845.8125
380.27849	6752.3125
384.44203	6699.6125
388.60257	6665.6125
392.76012	6658.3125
396.91468	6785.0125
401.06626	6938.6125
405.21485	6976.2125
409.36047	6815.5125
413.50311	6479.0125
417.64277	6185.3125
421.77947	5971.8125
425.9132	5900.6125
430.04396	5900.2125
434.17176	5934.1125
438.2966	6017.5125
442.41849	6089.4125
446.53742	6213.5125
450.6534	6314.6125
454.76644	6388.9125
458.87653	6404.2125
462.98368	6353.4125
467.08789	6289.8125
471.18916	6182.9125
475.2875	6076.3125
479.38291	5976.8125
483.4754	5866.3125
487.56496	5824.4125
491.6516	5791.2125
495.73531	5808.1125
499.81612	5826.2125
503.89401	5901.2125
507.96899	5962.3125
512.04106	6068.4125
516.11023	6160.5125
520.1765	6248.6125
524.23987	6251.8125
528.30034	6262.0125
532.35792	6174.4125
536.41261	6120.6125
540.46441	6010.6125
544.51333	5961.8125
548.55936	6021.4125
552.60252	6135.7125
556.64279	6251.9125
560.6802	6378.7125
564.71473	6506.5125
568.7464	6698.8125
572.7752	6680.3125
576.80114	6372.8125
580.82422	6138.4125
584.84444	6055.0125
588.86181	6032.7125
592.87633	6062.0125
596.888	6179.4125
600.89682	6553.2125
604.9028	7546.8125
608.90594	9666.9125
612.90624	12045.8125
616.90371	11176.1125
620.89834	8019.3125
624.89015	6673.5125
628.87913	6456.0125
632.86528	6585.4125
636.84862	6782.0125
640.82913	6630.8125
644.80683	6273.8125
648.78172	6089.4125
652.75379	6116.0125
656.72306	6361.0125
660.68952	6606.5125
664.65319	6498.7125
668.61405	6265.9125
672.57211	6190.4125
676.52738	6184.8125
680.47986	6075.7125
684.42955	5985.9125
688.37646	5950.4125
692.32058	5945.0125
696.26192	6027.5125
700.20048	6131.3125
704.13626	6164.9125
708.06928	6119.8125
711.99952	6075.7125
715.927	6061.1125
719.85171	6101.8125
723.77365	6155.2125
727.69284	6127.9125
731.60928	6104.9125
735.52295	6075.1125
739.43388	6109.5125
743.34206	6141.3125
747.24749	6172.4125
751.15017	6176.5125
755.05012	6247.2125
758.94733	6647.4125
762.8418	7523.6125
766.73354	8918.3125
770.62254	9965.9125
774.50882	10031.8125
778.39237	9488.2125
782.27321	8478.3125
786.15132	7428.9125
790.02671	6732.6125
793.89938	6337.4125
797.76935	6203.5125
801.6366	6128.4125
805.50115	6060.9125
809.36299	6063.7125
813.22213	6047.0125
817.07857	6051.8125
820.93231	6058.8125
824.78336	6058.9125
828.63172	6084.4125
832.47738	6105.7125
836.32036	6099.2125
840.16066	6063.5125
843.99827	6038.5125
847.8332	6023.9125
851.66546	6040.4125
855.49504	6053.7125
859.32195	6096.1125
863.1462	6075.1125
866.96777	6072.1125
870.78668	6046.7125
874.60293	6076.8125
878.41652	6103.7125
882.22745	6171.8125
886.03573	6200.4125
889.84136	6195.5125
893.64433	6205.7125
897.44466	6166.3125
901.24235	6161.8125
905.0374	6179.1125
908.8298	6122.6125
912.61957	6069.9125
916.40671	6054.6125
920.19121	6100.0125
923.97308	6195.6125
927.75233	6250.7125
931.52895	6292.1125
935.30295	6265.1125
939.07433	6128.6125
942.84309	5988.0125
946.60924	5967.6125
950.37278	5919.9125
954.13371	5927.5125
957.89203	5905.9125
961.64774	5939.5125
965.40086	5906.1125
969.15137	5895.4125
972.89929	5938.9125
976.64461	5914.0125
980.38733	5928.1125
984.12747	5918.8125
987.86502	5960.2125
991.59999	5980.0125
995.33237	6028.3125
999.06217	6093.1125
1002.78939	6194.5125
1006.51404	6325.3125
1010.23611	6430.2125
1013.95561	6471.2125
1017.67255	6489.2125
1021.38692	6452.4125
1025.09872	6391.1125
1028.80796	6324.5125
1032.51465	6319.1125
1036.21877	6276.6125
1039.92035	6338.4125
1043.61937	6383.7125
1047.31584	6428.2125
1051.00976	6477.6125
1054.70114	6466.6125
1058.38998	6464.8125
1062.07627	6465.0125
1065.76003	6501.4125
1069.44126	6576.3125
1073.11995	6673.3125
1076.79611	6810.2125
1080.46974	6963.4125
1084.14085	7116.7125
1087.80943	7253.0125
1091.47549	7303.3125
1095.13903	7204.7125
1098.80005	7084.9125
1102.45857	6984.9125
1106.11456	6918.2125
1109.76805	6884.7125
1113.41903	7008.1125
1117.06751	7194.8125
1120.71348	7453.4125
1124.35696	7847.5125
1127.99793	8134.8125
1131.63641	7971.0125
1135.2724	7561.7125
1138.90589	7242.7125
1142.5369	7046.4125
1146.16542	6933.1125
1149.79145	6811.8125
1153.415	6778.9125
1157.03607	6784.5125
1160.65467	6893.4125
1164.27079	7089.9125
1167.88443	7358.3125
1171.49561	7820.2125
1175.10432	8446.4125
1178.71056	9399.5125
1182.31434	10228.9125
1185.91565	10503.7125
1189.51451	10334.9125
1193.11091	10096.8125
1196.70485	9777.5125
1200.29634	9563.8125
1203.88538	9234.2125
1207.47197	8793.0125
1211.05612	8277.2125
1214.63782	7866.1125
1218.21708	7589.5125
1221.79391	7429.3125
1225.36829	7361.9125
1228.94024	7359.3125
1232.50976	7381.8125
1236.07685	7405.0125
1239.6415	7424.9125
1243.20374	7435.6125
1246.76355	7496.4125
1250.32093	7560.0125
1253.8759	7627.8125
1257.42845	7806.1125
1260.97859	8014.9125
1264.52631	8254.3125
1268.07163	8419.5125
1271.61453	8557.1125
1275.15503	8614.2125
1278.69312	8623.7125
1282.22882	8682.3125
1285.76211	8873.1125
1289.29301	9143.3125
1292.82151	9401.6125
1296.34761	9644.6125
1299.87133	10065.1125
1303.39266	10773.6125
1306.9116	11948.6125
1310.42815	13217.9125
1313.94233	13648.0125
1317.45412	12850.8125
1320.96354	11700.7125
1324.47058	10634.4125
1327.97525	9858.4125
1331.47754	9441.5125
1334.97747	9308.9125
1338.47502	9436.5125
1341.97022	9840.7125
1345.46305	10570.7125
1348.95352	11746.5125
1352.44163	13063.5125
1355.92738	14520.4125
1359.41078	16269.0125
1362.89183	17861.3125
1366.37053	17213.2125
1369.84688	14278.5125
1373.32088	11463.7125
1376.79254	9940.5125
1380.26186	9236.7125
1383.72883	8823.5125
1387.19347	8402.4125
1390.65578	8014.0125
1394.11575	7782.0125
1397.57339	7609.4125
1401.0287	7491.3125
1404.48168	7436.5125
1407.93234	7424.4125
1411.38068	7467.4125
1414.82669	7510.9125
1418.27039	7612.1125
1421.71177	7608.9125
1425.15083	7517.0125
1428.58758	7428.4125
1432.02203	7449.1125
1435.45416	7542.0125
1438.88399	7532.8125
1442.31151	7523.1125
1445.73673	7575.7125
1449.15965	7637.7125
1452.58027	7652.2125
1455.9986	7663.0125
1459.41463	7658.8125
1462.82837	7760.5125
1466.23982	7957.8125
1469.64898	8158.9125
1473.05586	8326.1125
1476.46045	8410.1125
1479.86276	8510.1125
1483.26279	8610.9125
1486.66054	8820.2125
1490.05602	9144.4125
1493.44922	9743.0125
1496.84016	10642.9125
1500.22882	12065.5125
1503.61521	13886.5125
1506.99934	15772.7125
1510.38121	16999.0125
1513.76081	16838.4125
1517.13816	15152.8125
1520.51324	12970.4125
1523.88607	11193.6125
1527.25665	10155.1125
1530.62498	9660.8125
1533.99105	9445.0125
1537.35488	9322.6125
1540.71647	9193.8125
1544.07581	9064.4125
1547.4329	8936.4125
1550.78776	8799.1125
1554.14038	8692.3125
1557.49077	8688.6125
1560.83892	8759.6125
1564.18484	8991.9125
1567.52853	9363.2125
1570.86999	9711.0125
1574.20922	9831.8125
1577.54624	9739.5125
1580.88103	9191.1125
1584.2136	8455.2125
1587.54395	8078.1125
1590.87208	7995.6125
1594.19801	8162.4125
1597.52172	8538.6125
1600.84321	8684.7125
1604.16251	8516.2125
1607.47959	8322.6125
1610.79447	8136.6125
1614.10715	7835.1125
1617.41763	7533.0125
1620.7259	7265.1125
1624.03199	7100.1125
1627.33587	7037.5125
1630.63757	7072.5125
1633.93707	7302.7125
1637.23439	7731.4125
1640.52951	8427.3125
1643.82246	9440.2125
1647.11321	10659.8125
1650.40179	11437.7125
1653.68819	11082.1125
1656.97241	9796.2125
1660.25446	8349.5125
1663.53433	7329.7125
1666.81203	6691.1125
1670.08756	6346.8125
1673.36092	6162.3125
1676.63211	6015.1125
1679.90115	5909.3125
1683.16801	5831.4125
1686.43272	5751.6125
1689.69527	5721.5125
1692.95567	5643.1125
1696.2139	5632.4125
1699.46999	5583.5125
1702.72392	5580.1125
1705.97571	5587.0125
1709.22535	5583.9125
1712.47284	5616.6125
1715.71819	5604.9125
1718.96139	5620.9125
1722.20246	5591.1125
1725.44139	5557.5125
1728.67818	5525.9125
1731.91284	5473.6125
1735.14537	5443.6125
1738.37576	5411.0125
1741.60403	5392.6125
1744.83017	5373.9125
1748.05418	5363.4125
1751.27607	5367.2125
1754.49584	5333.5125
1757.71349	5297.7125
1760.92903	5296.4125
1764.14244	5239.7125
1767.35375	5244.1125
1770.56294	5241.5125
1773.77002	5221.6125
1776.97499	5238.0125
1780.17785	5200.1125
1783.37861	5185.0125
1786.57727	5200.8125
1789.77382	5125.0125
1792.96828	5175.7125
1796.16064	5187.4125
1799.3509	5152.1125
1802.53907	5150.3125
1805.72514	5127.8125
1808.90913	5109.4125
1812.09102	5114.2125
1815.27083	5099.2125
1818.44856	5084.0125
1821.6242	5087.6125
1824.79776	5061.6125
1827.96924	5055.8125
1831.13864	5025.0125
1834.30597	5042.8125
1837.47122	5020.9125
1840.6344	5010.3125
1843.7955	4993.8125
1846.95454	4978.2125
1850.11151	5003.3125
1853.26642	4958.1125
1856.41926	4961.3125
1859.57004	4971.9125
1862.71876	4966.9125
1865.86542	4962.0125
1869.01003	4963.9125
1872.15258	4933.6125
1875.29308	4949.8125
1878.43152	4949.6125
1881.56792	4925.6125
1884.70227	4919.8125
1887.83457	4902.2125
1890.96482	4869.1125
1894.09304	4889.7125
1897.21921	4868.9125
1900.34335	4871.1125
1903.46544	4860.1125
1906.58551	4882.1125
1909.70353	4862.1125
1912.81953	4864.2125
1915.93349	4849.0125
1919.04543	4844.4125
1922.15534	4816.8125
1925.26322	4824.3125
1928.36908	4800.7125
1931.47292	4806.8125
1934.57473	4790.6125
1937.67453	4767.0125
1940.77232	4738.3125
1943.86808	4743.2125
1946.96184	4725.2125
1950.05358	4712.8125
1953.14331	4692.9125
1956.23103	4682.8125
1959.31675	4681.7125
1962.40046	4611.6125
1965.48217	4644.1125
1968.56188	4635.4125
1971.63959	4616.8125
1974.7153	4616.4125
1977.78901	4597.3125
1980.86073	4589.7125
1983.93046	4531.1125
1986.99819	4469.6125
1990.06394	4486.9125
1993.1277	4501.5125
1996.18947	4491.6125
1999.24925	4444.9125
2002.30706	4462.3125
2005.36288	4441.3125
2008.41672	4423.9125
2011.46859	4389.0125
2014.51848	4391.1125
2017.56639	4377.8125
2020.61233	4356.0125
2023.6563	4355.0125
2026.6983	4300.4125
2029.73833	4320.2125
2032.7764	4319.3125
2035.8125	4272.2125
2038.84664	4284.5125
2041.87881	4265.1125
2044.90903	4275.8125
2047.93729	4261.1125
2050.96359	4246.7125
2053.98794	4244.8125
2057.01034	4243.4125
2060.03078	4222.6125
2063.04927	4213.4125
2066.06582	4223.5125
2069.08042	4214.8125
2072.09307	4215.7125
2075.10378	4215.2125
2078.11255	4194.2125
2081.11938	4193.6125
2084.12426	4182.7125
2087.12722	4189.4125
2090.12824	4185.6125
2093.12732	4193.6125
2096.12447	4206.0125
2099.11969	4182.8125
2102.11299	4186.1125
2105.10435	4199.5125
2108.09379	4193.4125
2111.08131	4184.0125
2114.0669	4184.7125
2117.05057	4184.2125
2120.03233	4172.2125
2123.01216	4212.5125
2125.99008	4185.4125
2128.96609	4207.1125
2131.94018	4215.3125
2134.91236	4205.1125
2137.88263	4193.8125
2140.851	4203.1125
2143.81746	4215.1125
2146.78201	4194.5125
2149.74466	4194.1125
2152.7054	4208.9125
2155.66425	4187.1125
2158.6212	4172.6125
2161.57625	4155.3125
2164.52941	4137.1125
2167.48067	4143.3125
2170.43004	4140.3125
2173.37752	4152.7125
2176.32311	4148.9125
2179.26681	4164.5125
2182.20863	4144.8125
2185.14856	4160.7125
2188.08661	4156.0125
2191.02278	4161.5125
2193.95707	4130.8125
2196.88948	4103.3125
2199.82001	4132.0125
2202.74867	4124.6125
2205.67545	4120.5125
2208.60037	4120.3125
2211.52341	4104.6125
2214.44458	4092.7125
2217.36388	4095.2125
2220.28132	4073.0125
2223.1969	4046.7125
2226.11061	4048.7125
2229.02246	4035.0125
2231.93245	4049.3125
2234.84058	4022.7125
2237.74686	4008.5125
2240.65128	4011.1125
2243.55385	4013.4125
2246.45456	3978.2125
2249.35343	3999.5125
2252.25044	3983.5125
2255.14561	3985.0125
2258.03893	3980.9125
2260.93041	3965.2125
2263.82004	3972.5125
2266.70783	3968.5125
2269.59378	3938.5125
2272.4779	3922.8125
2275.36017	3940.7125
2278.24061	3921.9125
2281.11922	3890.6125
2283.996	3903.7125
2286.87094	3889.0125
2289.74405	3895.6125
2292.61534	3878.8125
2295.4848	3864.7125
2298.35243	3857.1125
2301.21824	3853.7125
2304.08223	3847.9125
2306.94439	3857.3125
2309.80474	3861.2125
2312.66327	3847.9125
2315.51999	3826.2125
2318.37489	3820.0125
2321.22797	3803.0125
2324.07925	3799.9125
2326.92871	3804.5125
2329.77637	3777.4125
2332.62222	3775.3125
2335.46626	3756.9125
2338.3085	3759.9125
2341.14893	3763.8125
2343.98756	3785.6125
2346.8244	3746.3125
2349.65943	3732.7125
2352.49267	3738.0125
2355.32411	3753.5125
2358.15376	3741.8125
2360.98161	3768.8125
2363.80768	3737.2125
2366.63195	3739.2125
2369.45444	3759.7125
2372.27514	3729.8125
2375.09405	3749.9125
2377.91118	3707.7125
2380.72652	3722.4125
2383.54009	3702.8125
2386.35187	3710.4125
2389.16188	3683.9125
2391.97011	3675.8125
2394.77657	3666.8125
2397.58125	3664.8125
2400.38416	3645.4125
2403.18529	3630.9125
2405.98466	3614.8125
2408.78226	3644.4125
2411.57809	3625.1125
2414.37216	3609.0125
2417.16446	3608.7125
2419.955	3581.9125
2422.74378	3585.7125
2425.5308	3589.8125
2428.31606	3586.0125
2431.09956	3587.1125
2433.88131	3564.4125
2436.6613	3580.6125
2439.43954	3565.4125
2442.21603	3564.7125
2444.99077	3558.6125
2447.76377	3562.7125
2450.53501	3534.7125
2453.30451	3551.9125
2456.07226	3556.6125
2458.83827	3541.1125
2461.60254	3508.6125
2464.36507	3556.0125
2467.12586	3513.6125
2469.88492	3512.6125
2472.64224	3524.7125
2475.39782	3495.4125
2478.15167	3508.0125
2480.90379	3516.2125
2483.65417	3518.2125
2486.40283	3515.1125
2489.14976	3537.4125
2491.89497	3509.8125
2494.63845	3517.7125
2497.3802	3500.1125
2500.12024	3497.9125
2502.85855	3497.4125
2505.59514	3503.6125
2508.33002	3493.0125
2511.06318	3465.5125
2513.79462	3458.8125
2516.52435	3422.6125
2519.25237	3414.9125
2521.97867	3404.2125
2524.70327	3412.9125
2527.42616	3407.1125
2530.14734	3416.6125
2532.86681	3391.1125
2535.58458	3387.9125
2538.30065	3381.0125
2541.01501	3398.8125
2543.72768	3382.4125
2546.43864	3374.9125
2549.14791	3367.6125
2551.85548	3350.0125
2554.56136	3345.5125
2557.26554	3359.3125
2559.96803	3352.8125
2562.66883	3341.8125
2565.36794	3313.9125
2568.06536	3296.3125
2570.7611	3322.5125
2573.45514	3301.3125
2576.14751	3294.0125
2578.83819	3290.4125
2581.52719	3274.9125
2584.21451	3291.5125
2586.90015	3260.3125
2589.58411	3243.8125
2592.2664	3252.4125
2594.94701	3244.0125
2597.62594	3254.5125
2600.30321	3186.2125
2602.9788	3201.1125
2605.65273	3201.7125
2608.32498	3199.8125
2610.99557	3222.7125
2613.66449	3191.2125
2616.33175	3195.3125
2618.99734	3193.3125
2621.66128	3184.9125
2624.32355	3191.7125
2626.98416	3170.4125
2629.64311	3156.1125
2632.30041	3149.8125
2634.95605	3145.6125
2637.61004	3124.2125
2640.26238	3115.7125
2642.91306	3121.0125
2645.56209	3126.2125
2648.20948	3140.2125
2650.85521	3119.9125
2653.4993	3138.9125
2656.14175	3115.2125
2658.78255	3091.6125
2661.42171	3077.7125
2664.05923	3127.9125
2666.6951	3125.1125
2669.32934	3128.9125
2671.96194	3148.4125
2674.59291	3125.7125
2677.22224	3112.4125
2679.84993	3123.1125
2682.476	3106.7125
2685.10043	3104.5125
2687.72324	3102.5125
2690.34441	3088.1125
2692.96396	3100.0125
2695.58188	3103.3125
2698.19818	3095.3125
2700.81285	3093.5125
2703.4259	3073.5125
2706.03733	3050.9125
2708.64714	3062.7125
2711.25533	3072.4125
2713.86191	3084.6125
2716.46687	3086.4125
2719.07021	3068.2125
2721.67194	3080.1125
2724.27206	3090.6125
2726.87057	3075.7125
2729.46747	3066.8125
2732.06276	3068.9125
2734.65644	3056.0125
2737.24852	3052.8125
2739.83899	3040.4125
2742.42786	3053.9125
2745.01513	3052.4125
2747.60079	3029.9125
2750.18486	3021.6125
2752.76733	3013.1125
2755.3482	3018.1125
2757.92747	3017.1125
2760.50515	3010.3125
2763.08123	2989.3125
2765.65573	2995.7125
2768.22863	2983.0125
2770.79994	2968.3125
2773.36967	2973.4125
2775.9378	2970.1125
2778.50435	2966.0125
2781.06932	2948.4125
2783.6327	2948.2125
2786.1945	2962.2125
2788.75471	2941.3125
2791.31335	2936.2125
2793.87041	2952.9125
2796.42589	2915.1125
2798.97979	2918.5125
2801.53212	2925.4125
2804.08288	2925.4125
2806.63206	2907.5125
2809.17967	2894.9125
2811.72571	2905.5125
2814.27018	2898.4125
2816.81308	2897.3125
2819.35442	2842.0125
2821.89419	2871.9125
2824.43239	2864.8125
2826.96904	2879.8125
2829.50412	2854.0125
2832.03763	2859.5125
2834.56959	2855.9125
2837.1	2840.1125
2839.62884	2850.4125
2842.15613	2851.1125
2844.68186	2850.0125
2847.20604	2824.2125
2849.72867	2820.9125
2852.24974	2823.9125
2854.76927	2796.5125
2857.28724	2762.2125
2859.80367	2817.2125
2862.31855	2812.9125
2864.83189	2811.7125
2867.34368	2817.7125
2869.85393	2822.2125
2872.36264	2797.3125
2874.8698	2800.6125
2877.37543	2803.6125
2879.87952	2802.7125
2882.38207	2777.7125
2884.88308	2782.4125
2887.38256	2791.8125
2889.88051	2776.4125
2892.37692	2778.7125
2894.8718	2760.8125
2897.36515	2764.1125
2899.85698	2755.9125
2902.34727	2776.7125
2904.83604	2763.8125
2907.32328	2782.6125
2909.809	2786.9125
2912.29319	2781.3125
2914.77587	2786.0125
2917.25702	2799.6125
2919.73665	2806.2125
2922.21476	2801.6125
2924.69136	2795.3125
2927.16644	2773.1125
2929.64	2780.7125
2932.11205	2767.5125
2934.58258	2770.5125
2937.05161	2758.5125
2939.51912	2750.5125
2941.98513	2762.5125
2944.44962	2758.1125
2946.91261	2721.3125
2949.37409	2726.3125
2951.83407	2720.3125
2954.29254	2718.5125
2956.74951	2722.3125
2959.20498	2704.6125
2961.65895	2702.5125
2964.11142	2699.2125
2966.56239	2689.9125
2969.01186	2704.3125
2971.45984	2697.5125
2973.90632	2678.4125
2976.35131	2694.6125
2978.7948	2683.4125
2981.23681	2669.3125
2983.67732	2655.3125
2986.11635	2664.4125
2988.55388	2633.1125
2990.98993	2638.9125
2993.4245	2628.2125
2995.85758	2617.8125
2998.28917	2621.5125
3000.71928	2593.5125
3003.14791	2595.8125
3005.57506	2599.8125
3008.00073	2577.4125
3010.42493	2520.7125
3012.84764	2582.8125
3015.26888	2575.9125
3017.68865	2562.3125
3020.10694	2522.7125
3022.52376	2540.6125
3024.9391	2524.8125
3027.35298	2531.4125
3029.76539	2515.7125
3032.17632	2507.6125
3034.5858	2511.6125
3036.9938	2513.4125
3039.40034	2505.9125
3041.80542	2489.7125
3044.20903	2481.1125
3046.61118	2476.4125
3049.01187	2480.7125
3051.4111	2465.0125
3053.80888	2455.4125
3056.20519	2454.7125
3058.60005	2428.7125
3060.99345	2462.1125
3063.3854	2425.3125
3065.7759	2428.7125
3068.16494	2412.9125
3070.55254	2392.1125
3072.93868	2422.3125
3075.32338	2418.1125
3077.70662	2389.9125
3080.08842	2377.4125
3082.46878	2379.7125
3084.84769	2388.5125
3087.22515	2370.0125
3089.60118	2381.2125
3091.97576	2366.5125
3094.3489	2376.7125
3096.72061	2364.8125
3099.09087	2358.7125
3101.4597	2373.7125
3103.82709	2363.3125
3106.19305	2349.4125
3108.55757	2350.7125
3110.92066	2327.2125
3113.28232	2355.3125
3115.64255	2339.3125
3118.00134	2337.8125
3120.35871	2313.7125
3122.71466	2306.5125
3125.06917	2312.3125
3127.42226	2296.6125
3129.77393	2276.7125
3132.12417	2306.6125
3134.47299	2291.4125
3136.82039	2280.4125
3139.16636	2262.0125
3141.51092	2283.9125
3143.85406	2273.9125
3146.19579	2261.0125
3148.53609	2261.3125
3150.87499	2268.9125
3153.21246	2269.8125
3155.54853	2277.5125
3157.88318	2266.4125
3160.21642	2277.7125
3162.54826	2268.7125
3164.87868	2268.4125
3167.2077	2214.9125
3169.5353	2251.2125
3171.86151	2260.7125
3174.18631	2248.8125
3176.5097	2232.6125
3178.83169	2235.9125
3181.15228	2225.8125
3183.47147	2211.7125
3185.78926	2194.5125
3188.10565	2217.0125
3190.42065	2195.6125
3192.73424	2210.2125
3195.04645	2191.4125
3197.35725	2177.0125
3199.66667	2195.0125
3201.97469	2184.8125
3204.28132	2177.6125
3206.58656	2187.5125
3208.8904	2193.6125
3211.19287	2175.1125
3213.49394	2173.2125
3215.79363	2169.8125
3218.09193	2178.5125
3220.38884	2172.6125
3222.68438	2176.0125
3224.97853	2151.7125
3227.2713	2172.9125
3229.56269	2144.2125
3231.8527	2158.0125
3234.14133	2145.3125
3236.42858	2143.7125
3238.71446	2117.2125
3240.99896	2144.6125
3243.28209	2104.1125
3245.56384	2125.9125
3247.84423	2111.3125
3250.12324	2119.7125
3252.40088	2107.9125
3254.67715	2094.8125
3256.95205	2094.5125
3259.22558	2120.5125
3261.49775	2105.0125
3263.76855	2090.5125
3266.03799	2103.7125
3268.30606	2096.3125
3270.57277	2095.3125
3272.83812	2074.2125
3275.10211	2084.0125
3277.36474	2085.6125
3279.62601	2078.5125
3281.88593	2051.8125
3284.14448	2036.2125
3286.40168	2061.5125
3288.65753	2051.4125
3290.91202	2050.3125
3293.16516	2028.3125
3295.41695	2052.2125
3297.66738	2043.6125
3299.91647	2023.4125
3302.16421	2021.9125
3304.4106	1997.2125
3306.65564	2002.3125
3308.89933	1979.9125
3311.14169	1972.1125
3313.38269	1958.8125
3315.62236	1934.1125
3317.86068	1928.9125
3320.09766	1916.9125
3322.3333	1879.6125
3324.5676	1876.4125
3326.80056	1849.8125
3329.03219	1839.4125
3331.26248	0.8125
3333.49143	-0.5875
3335.71905	0.4125
