Data from AgNPs_UA_5uM_CRN_500uM_SU_RamanShift__273__12-14-53-194.txt Node

Date: Thu Aug 04 12:14:53 BST 2022
User: TCL
Spectrometer: QEP01345
Trigger mode: 4
Integration Time (sec): 1.000000E0
Scans to average: 10
Electric dark correction enabled: true
Nonlinearity correction enabled: false
Boxcar width: 0
XAxis mode: Raman Shifts
Number of Pixels in Spectrum: 1044
>>>>>Begin Spectral Data<<<<<
46.04893	0.5125
50.45542	-0.6875
54.85868	0.4125
59.25871	-1.0875
63.6555	-57.6875
68.04907	-39.1875
72.43941	-70.6875
76.82654	-58.1875
81.21044	-56.1875
85.59113	-47.9875
89.96862	-75.4875
94.34289	-55.6875
98.71396	-79.1875
103.08183	-58.9875
107.4465	-50.9875
111.80798	-56.2875
116.16626	-44.3875
120.52136	-74.5875
124.87327	-50.4875
129.222	-60.8875
133.56755	-50.7875
137.90993	-62.8875
142.24913	-51.1875
146.58517	-44.8875
150.91804	-39.2875
155.24774	-30.6875
159.57429	-10.3875
163.89768	-8.6875
168.21792	39.8125
172.53501	57.6125
176.84895	143.0125
181.15975	273.1125
185.46741	425.4125
189.77193	602.6125
194.07331	900.4125
198.37157	1179.2125
202.6667	1463.2125
206.9587	1793.2125
211.24758	2100.0125
215.53334	2425.9125
219.81599	2781.7125
224.09553	3194.1125
228.37195	3629.7125
232.64527	4080.9125
236.91549	4569.6125
241.18261	4915.1125
245.44663	5194.8125
249.70755	5343.7125
253.96539	5475.1125
258.22014	5604.6125
262.4718	5656.2125
266.72039	5710.2125
270.96589	5663.6125
275.20832	5575.9125
279.44768	5469.8125
283.68397	5357.1125
287.91719	5307.5125
292.14735	5345.9125
296.37445	5529.8125
300.59849	5842.4125
304.81948	6180.3125
309.03742	6531.7125
313.25231	6804.3125
317.46415	6744.9125
321.67296	6361.3125
325.87872	5949.2125
330.08145	5757.4125
334.28114	5705.6125
338.47781	5767.5125
342.67145	5895.3125
346.86207	6128.4125
351.04966	6494.9125
355.23424	6875.9125
359.4158	7141.4125
363.59435	7166.0125
367.76989	7121.0125
371.94243	6991.0125
376.11196	6866.2125
380.27849	6787.7125
384.44203	6717.1125
388.60257	6672.5125
392.76012	6692.9125
396.91468	6817.2125
401.06626	6956.6125
405.21485	7009.6125
409.36047	6824.0125
413.50311	6485.0125
417.64277	6184.1125
421.77947	5991.8125
425.9132	5915.6125
430.04396	5918.4125
434.17176	5943.0125
438.2966	6021.7125
442.41849	6114.4125
446.53742	6242.6125
450.6534	6339.9125
454.76644	6415.1125
458.87653	6420.9125
462.98368	6360.8125
467.08789	6295.3125
471.18916	6213.6125
475.2875	6084.6125
479.38291	5981.8125
483.4754	5863.7125
487.56496	5831.3125
491.6516	5798.1125
495.73531	5813.7125
499.81612	5843.7125
503.89401	5933.9125
507.96899	5967.3125
512.04106	6065.8125
516.11023	6178.8125
520.1765	6246.3125
524.23987	6277.1125
528.30034	6275.9125
532.35792	6199.6125
536.41261	6129.9125
540.46441	6033.1125
544.51333	5975.6125
548.55936	6026.3125
552.60252	6166.6125
556.64279	6278.1125
560.6802	6376.1125
564.71473	6507.7125
568.7464	6725.2125
572.7752	6689.1125
576.80114	6378.5125
580.82422	6164.6125
584.84444	6075.0125
588.86181	6030.3125
592.87633	6071.5125
596.888	6168.5125
600.89682	6559.1125
604.9028	7573.0125
608.90594	9716.4125
612.90624	12088.1125
616.90371	11203.7125
620.89834	8045.9125
624.89015	6669.6125
628.87913	6452.4125
632.86528	6592.8125
636.84862	6797.6125
640.82913	6643.1125
644.80683	6310.0125
648.78172	6090.7125
652.75379	6122.6125
656.72306	6357.5125
660.68952	6605.8125
664.65319	6517.7125
668.61405	6274.2125
672.57211	6192.9125
676.52738	6195.9125
680.47986	6082.1125
684.42955	5998.1125
688.37646	5942.9125
692.32058	5946.1125
696.26192	6033.5125
700.20048	6125.7125
704.13626	6175.5125
708.06928	6127.1125
711.99952	6095.7125
715.927	6064.5125
719.85171	6115.0125
723.77365	6172.6125
727.69284	6130.5125
731.60928	6099.8125
735.52295	6069.0125
739.43388	6136.3125
743.34206	6134.5125
747.24749	6167.3125
751.15017	6172.2125
755.05012	6272.4125
758.94733	6645.2125
762.8418	7558.4125
766.73354	8927.2125
770.62254	9978.3125
774.50882	10054.7125
778.39237	9507.0125
782.27321	8531.9125
786.15132	7447.7125
790.02671	6742.0125
793.89938	6364.8125
797.76935	6232.6125
801.6366	6156.6125
805.50115	6070.7125
809.36299	6063.1125
813.22213	6065.0125
817.07857	6050.5125
820.93231	6073.8125
824.78336	6086.9125
828.63172	6093.8125
832.47738	6092.0125
836.32036	6103.9125
840.16066	6073.0125
843.99827	6053.8125
847.8332	6030.4125
851.66546	6047.9125
855.49504	6057.3125
859.32195	6103.1125
863.1462	6067.4125
866.96777	6059.7125
870.78668	6060.8125
874.60293	6088.3125
878.41652	6132.9125
882.22745	6190.6125
886.03573	6205.3125
889.84136	6199.8125
893.64433	6212.4125
897.44466	6200.5125
901.24235	6180.7125
905.0374	6180.4125
908.8298	6128.0125
912.61957	6099.3125
916.40671	6046.0125
920.19121	6101.0125
923.97308	6201.8125
927.75233	6252.7125
931.52895	6321.3125
935.30295	6284.2125
939.07433	6119.8125
942.84309	5999.3125
946.60924	5976.6125
950.37278	5935.6125
954.13371	5941.1125
957.89203	5921.5125
961.64774	5946.7125
965.40086	5927.0125
969.15137	5898.1125
972.89929	5940.7125
976.64461	5934.5125
980.38733	5937.3125
984.12747	5947.0125
987.86502	5966.4125
991.59999	5978.8125
995.33237	6055.4125
999.06217	6120.6125
1002.78939	6195.0125
1006.51404	6328.7125
1010.23611	6431.2125
1013.95561	6497.5125
1017.67255	6480.4125
1021.38692	6462.7125
1025.09872	6390.4125
1028.80796	6299.9125
1032.51465	6320.6125
1036.21877	6303.8125
1039.92035	6350.3125
1043.61937	6385.0125
1047.31584	6449.0125
1051.00976	6480.7125
1054.70114	6476.2125
1058.38998	6497.1125
1062.07627	6498.1125
1065.76003	6528.1125
1069.44126	6595.4125
1073.11995	6668.0125
1076.79611	6818.9125
1080.46974	6975.2125
1084.14085	7141.4125
1087.80943	7284.4125
1091.47549	7319.4125
1095.13903	7211.3125
1098.80005	7069.1125
1102.45857	6966.3125
1106.11456	6971.3125
1109.76805	6890.3125
1113.41903	7038.9125
1117.06751	7201.6125
1120.71348	7470.8125
1124.35696	7857.5125
1127.99793	8166.9125
1131.63641	7980.7125
1135.2724	7572.5125
1138.90589	7266.4125
1142.5369	7063.2125
1146.16542	6960.3125
1149.79145	6839.4125
1153.415	6791.0125
1157.03607	6799.9125
1160.65467	6906.3125
1164.27079	7111.1125
1167.88443	7378.5125
1171.49561	7849.3125
1175.10432	8483.3125
1178.71056	9443.7125
1182.31434	10270.5125
1185.91565	10523.3125
1189.51451	10360.2125
1193.11091	10112.8125
1196.70485	9831.8125
1200.29634	9591.9125
1203.88538	9275.4125
1207.47197	8797.5125
1211.05612	8301.8125
1214.63782	7902.3125
1218.21708	7619.3125
1221.79391	7452.0125
1225.36829	7365.5125
1228.94024	7388.8125
1232.50976	7397.3125
1236.07685	7431.8125
1239.6415	7447.8125
1243.20374	7487.0125
1246.76355	7502.8125
1250.32093	7576.1125
1253.8759	7644.5125
1257.42845	7825.4125
1260.97859	8028.0125
1264.52631	8296.1125
1268.07163	8429.1125
1271.61453	8577.1125
1275.15503	8644.9125
1278.69312	8636.9125
1282.22882	8693.9125
1285.76211	8901.8125
1289.29301	9166.2125
1292.82151	9455.3125
1296.34761	9664.9125
1299.87133	10088.8125
1303.39266	10823.5125
1306.9116	11983.3125
1310.42815	13283.5125
1313.94233	13730.4125
1317.45412	12912.4125
1320.96354	11728.5125
1324.47058	10692.5125
1327.97525	9905.5125
1331.47754	9474.6125
1334.97747	9366.1125
1338.47502	9490.0125
1341.97022	9863.3125
1345.46305	10626.0125
1348.95352	11790.5125
1352.44163	13159.1125
1355.92738	14601.9125
1359.41078	16351.8125
1362.89183	17917.4125
1366.37053	17278.8125
1369.84688	14317.8125
1373.32088	11492.7125
1376.79254	10001.7125
1380.26186	9258.0125
1383.72883	8850.9125
1387.19347	8406.2125
1390.65578	8026.5125
1394.11575	7789.2125
1397.57339	7615.7125
1401.0287	7501.0125
1404.48168	7461.7125
1407.93234	7445.7125
1411.38068	7454.1125
1414.82669	7554.3125
1418.27039	7611.6125
1421.71177	7623.8125
1425.15083	7520.2125
1428.58758	7462.5125
1432.02203	7471.8125
1435.45416	7549.2125
1438.88399	7545.1125
1442.31151	7545.7125
1445.73673	7602.4125
1449.15965	7661.9125
1452.58027	7660.7125
1455.9986	7653.5125
1459.41463	7651.6125
1462.82837	7786.9125
1466.23982	7978.8125
1469.64898	8189.0125
1473.05586	8360.6125
1476.46045	8461.2125
1479.86276	8529.8125
1483.26279	8654.5125
1486.66054	8842.4125
1490.05602	9174.3125
1493.44922	9741.4125
1496.84016	10666.2125
1500.22882	12101.0125
1503.61521	13929.1125
1506.99934	15803.4125
1510.38121	17051.3125
1513.76081	16891.1125
1517.13816	15197.5125
1520.51324	13010.6125
1523.88607	11219.2125
1527.25665	10209.6125
1530.62498	9690.6125
1533.99105	9468.4125
1537.35488	9362.0125
1540.71647	9236.5125
1544.07581	9098.9125
1547.4329	8937.4125
1550.78776	8794.5125
1554.14038	8704.4125
1557.49077	8681.3125
1560.83892	8796.3125
1564.18484	9019.7125
1567.52853	9387.2125
1570.86999	9722.8125
1574.20922	9900.6125
1577.54624	9793.7125
1580.88103	9214.8125
1584.2136	8498.7125
1587.54395	8112.1125
1590.87208	7998.1125
1594.19801	8171.6125
1597.52172	8542.9125
1600.84321	8696.0125
1604.16251	8549.4125
1607.47959	8334.7125
1610.79447	8131.5125
1614.10715	7863.8125
1617.41763	7559.9125
1620.7259	7279.9125
1624.03199	7108.9125
1627.33587	7031.6125
1630.63757	7090.5125
1633.93707	7330.0125
1637.23439	7759.3125
1640.52951	8468.0125
1643.82246	9482.6125
1647.11321	10681.0125
1650.40179	11438.5125
1653.68819	11124.6125
1656.97241	9823.1125
1660.25446	8405.9125
1663.53433	7333.1125
1666.81203	6703.9125
1670.08756	6357.6125
1673.36092	6180.2125
1676.63211	6041.2125
1679.90115	5929.1125
1683.16801	5844.9125
1686.43272	5750.7125
1689.69527	5707.3125
1692.95567	5644.3125
1696.2139	5638.6125
1699.46999	5594.1125
1702.72392	5573.0125
1705.97571	5599.0125
1709.22535	5581.5125
1712.47284	5606.5125
1715.71819	5604.2125
1718.96139	5606.9125
1722.20246	5587.7125
1725.44139	5559.1125
1728.67818	5532.0125
1731.91284	5478.5125
1735.14537	5438.2125
1738.37576	5406.8125
1741.60403	5390.7125
1744.83017	5362.8125
1748.05418	5378.1125
1751.27607	5372.6125
1754.49584	5335.3125
1757.71349	5279.3125
1760.92903	5289.0125
1764.14244	5258.2125
1767.35375	5256.8125
1770.56294	5242.8125
1773.77002	5220.8125
1776.97499	5230.8125
1780.17785	5222.5125
1783.37861	5195.1125
1786.57727	5213.9125
1789.77382	5152.8125
1792.96828	5189.4125
1796.16064	5184.4125
1799.3509	5163.8125
1802.53907	5168.0125
1805.72514	5137.4125
1808.90913	5094.9125
1812.09102	5113.8125
1815.27083	5091.8125
1818.44856	5076.7125
1821.6242	5083.1125
1824.79776	5073.7125
1827.96924	5058.3125
1831.13864	5036.1125
1834.30597	5048.4125
1837.47122	5023.4125
1840.6344	5013.5125
1843.7955	4992.3125
1846.95454	4996.6125
1850.11151	5005.7125
1853.26642	4965.9125
1856.41926	4983.0125
1859.57004	4980.5125
1862.71876	4951.9125
1865.86542	4953.0125
1869.01003	4939.6125
1872.15258	4944.8125
1875.29308	4961.1125
1878.43152	4954.4125
1881.56792	4915.5125
1884.70227	4924.3125
1887.83457	4899.4125
1890.96482	4876.9125
1894.09304	4866.4125
1897.21921	4877.7125
1900.34335	4877.6125
1903.46544	4869.8125
1906.58551	4875.0125
1909.70353	4879.6125
1912.81953	4858.0125
1915.93349	4840.0125
1919.04543	4832.9125
1922.15534	4819.8125
1925.26322	4818.1125
1928.36908	4800.8125
1931.47292	4795.8125
1934.57473	4809.1125
1937.67453	4777.3125
1940.77232	4750.6125
1943.86808	4755.7125
1946.96184	4740.3125
1950.05358	4716.0125
1953.14331	4686.9125
1956.23103	4694.1125
1959.31675	4666.4125
1962.40046	4628.1125
1965.48217	4641.5125
1968.56188	4629.3125
1971.63959	4611.5125
1974.7153	4612.5125
1977.78901	4599.0125
1980.86073	4578.4125
1983.93046	4537.2125
1986.99819	4483.5125
1990.06394	4477.3125
1993.1277	4517.0125
1996.18947	4491.1125
1999.24925	4454.4125
2002.30706	4461.0125
2005.36288	4443.6125
2008.41672	4435.7125
2011.46859	4383.2125
2014.51848	4395.7125
2017.56639	4370.2125
2020.61233	4348.2125
2023.6563	4367.8125
2026.6983	4306.8125
2029.73833	4319.0125
2032.7764	4321.7125
2035.8125	4289.2125
2038.84664	4287.3125
2041.87881	4264.1125
2044.90903	4270.5125
2047.93729	4254.0125
2050.96359	4236.7125
2053.98794	4252.6125
2057.01034	4247.1125
2060.03078	4225.9125
2063.04927	4222.4125
2066.06582	4231.4125
2069.08042	4213.0125
2072.09307	4215.5125
2075.10378	4201.8125
2078.11255	4207.4125
2081.11938	4199.2125
2084.12426	4196.4125
2087.12722	4189.4125
2090.12824	4176.0125
2093.12732	4179.8125
2096.12447	4192.8125
2099.11969	4175.5125
2102.11299	4170.4125
2105.10435	4193.4125
2108.09379	4182.0125
2111.08131	4190.7125
2114.0669	4179.5125
2117.05057	4188.1125
2120.03233	4172.5125
2123.01216	4189.6125
2125.99008	4183.5125
2128.96609	4197.4125
2131.94018	4204.1125
2134.91236	4198.1125
2137.88263	4190.3125
2140.851	4204.3125
2143.81746	4215.3125
2146.78201	4201.7125
2149.74466	4175.4125
2152.7054	4199.2125
2155.66425	4184.9125
2158.6212	4186.4125
2161.57625	4156.0125
2164.52941	4126.3125
2167.48067	4132.3125
2170.43004	4131.1125
2173.37752	4166.0125
2176.32311	4153.6125
2179.26681	4149.2125
2182.20863	4153.2125
2185.14856	4144.6125
2188.08661	4144.7125
2191.02278	4161.0125
2193.95707	4136.2125
2196.88948	4116.1125
2199.82001	4141.4125
2202.74867	4128.4125
2205.67545	4106.5125
2208.60037	4118.7125
2211.52341	4117.5125
2214.44458	4094.3125
2217.36388	4082.4125
2220.28132	4072.8125
2223.1969	4048.9125
2226.11061	4056.8125
2229.02246	4034.2125
2231.93245	4040.8125
2234.84058	4023.8125
2237.74686	3997.9125
2240.65128	4000.4125
2243.55385	4009.2125
2246.45456	3981.3125
2249.35343	3998.1125
2252.25044	3988.1125
2255.14561	3990.2125
2258.03893	3982.8125
2260.93041	3972.1125
2263.82004	3972.7125
2266.70783	3966.7125
2269.59378	3955.5125
2272.4779	3929.5125
2275.36017	3933.8125
2278.24061	3917.0125
2281.11922	3875.6125
2283.996	3917.7125
2286.87094	3879.6125
2289.74405	3896.5125
2292.61534	3870.4125
2295.4848	3876.1125
2298.35243	3859.0125
2301.21824	3851.3125
2304.08223	3837.6125
2306.94439	3847.4125
2309.80474	3853.8125
2312.66327	3850.6125
2315.51999	3824.4125
2318.37489	3824.3125
2321.22797	3807.9125
2324.07925	3797.5125
2326.92871	3799.0125
2329.77637	3775.4125
2332.62222	3781.2125
2335.46626	3750.4125
2338.3085	3748.8125
2341.14893	3751.6125
2343.98756	3766.5125
2346.8244	3750.8125
2349.65943	3744.9125
2352.49267	3744.9125
2355.32411	3747.4125
2358.15376	3748.0125
2360.98161	3749.2125
2363.80768	3728.9125
2366.63195	3740.0125
2369.45444	3732.3125
2372.27514	3738.1125
2375.09405	3751.5125
2377.91118	3721.0125
2380.72652	3701.9125
2383.54009	3715.0125
2386.35187	3705.5125
2389.16188	3693.1125
2391.97011	3677.2125
2394.77657	3654.9125
2397.58125	3668.5125
2400.38416	3658.2125
2403.18529	3631.8125
2405.98466	3623.1125
2408.78226	3628.7125
2411.57809	3615.2125
2414.37216	3603.7125
2417.16446	3622.0125
2419.955	3590.9125
2422.74378	3604.9125
2425.5308	3583.2125
2428.31606	3589.2125
2431.09956	3590.4125
2433.88131	3549.3125
2436.6613	3570.0125
2439.43954	3560.1125
2442.21603	3563.6125
2444.99077	3548.2125
2447.76377	3557.6125
2450.53501	3541.9125
2453.30451	3540.1125
2456.07226	3550.4125
2458.83827	3538.8125
2461.60254	3499.1125
2464.36507	3526.0125
2467.12586	3515.6125
2469.88492	3520.6125
2472.64224	3506.6125
2475.39782	3498.9125
2478.15167	3511.9125
2480.90379	3497.0125
2483.65417	3518.9125
2486.40283	3519.4125
2489.14976	3511.9125
2491.89497	3505.1125
2494.63845	3514.9125
2497.3802	3494.4125
2500.12024	3501.6125
2502.85855	3499.5125
2505.59514	3489.5125
2508.33002	3477.4125
2511.06318	3458.6125
2513.79462	3448.2125
2516.52435	3422.7125
2519.25237	3398.8125
2521.97867	3401.2125
2524.70327	3413.3125
2527.42616	3404.5125
2530.14734	3428.8125
2532.86681	3391.2125
2535.58458	3394.4125
2538.30065	3377.5125
2541.01501	3395.7125
2543.72768	3359.3125
2546.43864	3382.4125
2549.14791	3348.3125
2551.85548	3344.8125
2554.56136	3345.1125
2557.26554	3357.2125
2559.96803	3355.5125
2562.66883	3343.1125
2565.36794	3331.1125
2568.06536	3292.1125
2570.7611	3321.0125
2573.45514	3297.7125
2576.14751	3307.3125
2578.83819	3283.0125
2581.52719	3262.0125
2584.21451	3271.5125
2586.90015	3246.6125
2589.58411	3243.5125
2592.2664	3245.3125
2594.94701	3244.2125
2597.62594	3243.8125
2600.30321	3174.7125
2602.9788	3203.1125
2605.65273	3193.6125
2608.32498	3195.6125
2610.99557	3217.9125
2613.66449	3193.0125
2616.33175	3194.7125
2618.99734	3199.1125
2621.66128	3199.0125
2624.32355	3178.2125
2626.98416	3154.5125
2629.64311	3156.7125
2632.30041	3148.5125
2634.95605	3131.5125
2637.61004	3131.6125
2640.26238	3126.8125
2642.91306	3113.8125
2645.56209	3129.3125
2648.20948	3120.9125
2650.85521	3105.2125
2653.4993	3131.3125
2656.14175	3119.7125
2658.78255	3098.5125
2661.42171	3077.4125
2664.05923	3113.5125
2666.6951	3119.3125
2669.32934	3131.2125
2671.96194	3120.1125
2674.59291	3112.8125
2677.22224	3126.2125
2679.84993	3117.4125
2682.476	3093.6125
2685.10043	3101.8125
2687.72324	3093.5125
2690.34441	3093.4125
2692.96396	3087.8125
2695.58188	3098.4125
2698.19818	3092.9125
2700.81285	3086.8125
2703.4259	3075.0125
2706.03733	3044.4125
2708.64714	3060.3125
2711.25533	3079.5125
2713.86191	3078.6125
2716.46687	3082.9125
2719.07021	3084.9125
2721.67194	3069.8125
2724.27206	3097.2125
2726.87057	3072.2125
2729.46747	3069.1125
2732.06276	3073.9125
2734.65644	3057.2125
2737.24852	3054.9125
2739.83899	3038.7125
2742.42786	3028.3125
2745.01513	3050.8125
2747.60079	3029.1125
2750.18486	3011.5125
2752.76733	3030.2125
2755.3482	3017.8125
2757.92747	3024.0125
2760.50515	2990.8125
2763.08123	2987.5125
2765.65573	2997.6125
2768.22863	2982.9125
2770.79994	2973.7125
2773.36967	2963.3125
2775.9378	2954.0125
2778.50435	2971.6125
2781.06932	2953.5125
2783.6327	2938.0125
2786.1945	2951.0125
2788.75471	2952.8125
2791.31335	2936.2125
2793.87041	2945.1125
2796.42589	2909.9125
2798.97979	2914.7125
2801.53212	2910.7125
2804.08288	2929.0125
2806.63206	2913.2125
2809.17967	2886.8125
2811.72571	2899.3125
2814.27018	2899.2125
2816.81308	2884.3125
2819.35442	2854.3125
2821.89419	2869.8125
2824.43239	2850.8125
2826.96904	2872.3125
2829.50412	2865.2125
2832.03763	2860.7125
2834.56959	2859.3125
2837.1	2853.4125
2839.62884	2860.5125
2842.15613	2837.5125
2844.68186	2848.4125
2847.20604	2829.7125
2849.72867	2824.7125
2852.24974	2829.2125
2854.76927	2796.7125
2857.28724	2750.8125
2859.80367	2811.5125
2862.31855	2825.0125
2864.83189	2798.1125
2867.34368	2813.5125
2869.85393	2820.7125
2872.36264	2806.2125
2874.8698	2790.0125
2877.37543	2793.2125
2879.87952	2787.1125
2882.38207	2778.1125
2884.88308	2777.8125
2887.38256	2787.7125
2889.88051	2770.1125
2892.37692	2784.4125
2894.8718	2766.5125
2897.36515	2777.4125
2899.85698	2762.1125
2902.34727	2752.0125
2904.83604	2772.1125
2907.32328	2785.2125
2909.809	2783.8125
2912.29319	2779.9125
2914.77587	2786.7125
2917.25702	2799.0125
2919.73665	2805.9125
2922.21476	2791.0125
2924.69136	2800.7125
2927.16644	2774.5125
2929.64	2782.9125
2932.11205	2772.4125
2934.58258	2759.3125
2937.05161	2755.1125
2939.51912	2746.5125
2941.98513	2759.1125
2944.44962	2757.6125
2946.91261	2725.7125
2949.37409	2729.4125
2951.83407	2714.1125
2954.29254	2719.7125
2956.74951	2720.8125
2959.20498	2711.5125
2961.65895	2708.9125
2964.11142	2695.5125
2966.56239	2705.4125
2969.01186	2687.6125
2971.45984	2691.2125
2973.90632	2691.7125
2976.35131	2690.1125
2978.7948	2692.4125
2981.23681	2669.6125
2983.67732	2664.0125
2986.11635	2667.8125
2988.55388	2628.1125
2990.98993	2638.5125
2993.4245	2633.6125
2995.85758	2617.0125
2998.28917	2619.6125
3000.71928	2599.3125
3003.14791	2607.6125
3005.57506	2600.6125
3008.00073	2575.7125
3010.42493	2524.2125
3012.84764	2577.5125
3015.26888	2576.8125
3017.68865	2572.4125
3020.10694	2529.3125
3022.52376	2531.9125
3024.9391	2538.3125
3027.35298	2535.6125
3029.76539	2512.7125
3032.17632	2513.9125
3034.5858	2497.0125
3036.9938	2518.0125
3039.40034	2501.0125
3041.80542	2497.8125
3044.20903	2483.4125
3046.61118	2480.4125
3049.01187	2482.1125
3051.4111	2467.1125
3053.80888	2449.1125
3056.20519	2460.3125
3058.60005	2427.2125
3060.99345	2462.1125
3063.3854	2430.3125
3065.7759	2413.2125
3068.16494	2423.4125
3070.55254	2408.9125
3072.93868	2428.8125
3075.32338	2400.7125
3077.70662	2399.0125
3080.08842	2390.2125
3082.46878	2378.2125
3084.84769	2387.4125
3087.22515	2381.1125
3089.60118	2389.2125
3091.97576	2366.1125
3094.3489	2370.1125
3096.72061	2374.7125
3099.09087	2348.7125
3101.4597	2362.1125
3103.82709	2358.8125
3106.19305	2336.9125
3108.55757	2362.4125
3110.92066	2341.1125
3113.28232	2352.4125
3115.64255	2332.4125
3118.00134	2337.9125
3120.35871	2321.5125
3122.71466	2298.2125
3125.06917	2300.4125
3127.42226	2298.5125
3129.77393	2284.3125
3132.12417	2294.9125
3134.47299	2299.6125
3136.82039	2282.9125
3139.16636	2261.2125
3141.51092	2277.5125
3143.85406	2280.4125
3146.19579	2263.2125
3148.53609	2263.0125
3150.87499	2265.7125
3153.21246	2270.9125
3155.54853	2269.3125
3157.88318	2271.7125
3160.21642	2275.5125
3162.54826	2268.3125
3164.87868	2269.8125
3167.2077	2231.2125
3169.5353	2265.5125
3171.86151	2261.5125
3174.18631	2236.7125
3176.5097	2239.7125
3178.83169	2234.2125
3181.15228	2246.2125
3183.47147	2210.1125
3185.78926	2199.3125
3188.10565	2220.2125
3190.42065	2197.5125
3192.73424	2202.9125
3195.04645	2200.2125
3197.35725	2170.5125
3199.66667	2189.8125
3201.97469	2168.1125
3204.28132	2167.5125
3206.58656	2184.6125
3208.8904	2185.6125
3211.19287	2188.5125
3213.49394	2164.8125
3215.79363	2178.4125
3218.09193	2181.0125
3220.38884	2174.1125
3222.68438	2178.9125
3224.97853	2147.7125
3227.2713	2170.9125
3229.56269	2157.2125
3231.8527	2161.8125
3234.14133	2141.8125
3236.42858	2131.2125
3238.71446	2122.7125
3240.99896	2135.2125
3243.28209	2110.3125
3245.56384	2122.2125
3247.84423	2111.2125
3250.12324	2128.7125
3252.40088	2111.9125
3254.67715	2101.6125
3256.95205	2103.4125
3259.22558	2101.6125
3261.49775	2104.1125
3263.76855	2101.1125
3266.03799	2110.1125
3268.30606	2091.5125
3270.57277	2097.4125
3272.83812	2083.0125
3275.10211	2072.7125
3277.36474	2099.0125
3279.62601	2078.2125
3281.88593	2069.7125
3284.14448	2038.9125
3286.40168	2054.5125
3288.65753	2045.8125
3290.91202	2040.9125
3293.16516	2037.2125
3295.41695	2055.1125
3297.66738	2050.3125
3299.91647	2028.9125
3302.16421	2022.3125
3304.4106	1983.1125
3306.65564	2002.7125
3308.89933	1966.3125
3311.14169	1966.6125
3313.38269	1955.6125
3315.62236	1937.6125
3317.86068	1922.3125
3320.09766	1925.0125
3322.3333	1884.4125
3324.5676	1888.9125
3326.80056	1842.1125
3329.03219	1842.3125
3331.26248	-0.6875
3333.49143	1.3125
3335.71905	0.3125
