Data from AgNPs_UA_5uM_CRN_500uM_SU_RamanShift__103__11-46-33-160.txt Node

Date: Thu Aug 04 11:46:33 BST 2022
User: TCL
Spectrometer: QEP01345
Trigger mode: 4
Integration Time (sec): 1.000000E0
Scans to average: 10
Electric dark correction enabled: true
Nonlinearity correction enabled: false
Boxcar width: 0
XAxis mode: Raman Shifts
Number of Pixels in Spectrum: 1044
>>>>>Begin Spectral Data<<<<<
46.04893	-0.8875
50.45542	0.2125
54.85868	1.1125
59.25871	0.0125
63.6555	-64.1875
68.04907	-47.7875
72.43941	-79.7875
76.82654	-65.1875
81.21044	-65.0875
85.59113	-57.4875
89.96862	-83.8875
94.34289	-66.5875
98.71396	-87.3875
103.08183	-68.0875
107.4465	-60.5875
111.80798	-68.3875
116.16626	-56.4875
120.52136	-86.1875
124.87327	-65.3875
129.222	-78.1875
133.56755	-66.3875
137.90993	-82.2875
142.24913	-71.5875
146.58517	-67.2875
150.91804	-67.9875
155.24774	-64.6875
159.57429	-57.5875
163.89768	-68.0875
168.21792	-45.2875
172.53501	-57.5875
176.84895	-28.4875
181.15975	31.3125
185.46741	75.8125
189.77193	116.3125
194.07331	238.0125
198.37157	327.4125
202.6667	409.3125
206.9587	518.8125
211.24758	622.0125
215.53334	720.9125
219.81599	822.2125
224.09553	952.3125
228.37195	1086.1125
232.64527	1222.6125
236.91549	1390.5125
241.18261	1533.4125
245.44663	1677.2125
249.70755	1777.7125
253.96539	1870.6125
258.22014	1954.5125
262.4718	1984.4125
266.72039	2016.7125
270.96589	2020.4125
275.20832	1990.3125
279.44768	1979.1125
283.68397	1935.6125
287.91719	1893.7125
292.14735	1884.2125
296.37445	1878.7125
300.59849	1907.3125
304.81948	1900.3125
309.03742	1928.2125
313.25231	1938.0125
317.46415	1965.0125
321.67296	1913.7125
325.87872	1892.8125
330.08145	1872.3125
334.28114	1893.5125
338.47781	1922.5125
342.67145	1941.5125
346.86207	1983.9125
351.04966	2036.1125
355.23424	2096.9125
359.4158	2145.8125
363.59435	2148.0125
367.76989	2159.2125
371.94243	2181.0125
376.11196	2179.4125
380.27849	2200.4125
384.44203	2217.0125
388.60257	2235.3125
392.76012	2236.2125
396.91468	2290.0125
401.06626	2330.8125
405.21485	2321.1125
409.36047	2340.2125
413.50311	2323.1125
417.64277	2339.7125
421.77947	2305.0125
425.9132	2320.3125
430.04396	2327.0125
434.17176	2347.5125
438.2966	2385.7125
442.41849	2411.5125
446.53742	2422.3125
450.6534	2444.6125
454.76644	2486.8125
458.87653	2517.2125
462.98368	2513.8125
467.08789	2513.6125
471.18916	2511.0125
475.2875	2545.4125
479.38291	2552.7125
483.4754	2546.7125
487.56496	2568.0125
491.6516	2550.9125
495.73531	2562.4125
499.81612	2560.8125
503.89401	2588.4125
507.96899	2596.4125
512.04106	2624.3125
516.11023	2643.5125
520.1765	2655.5125
524.23987	2665.3125
528.30034	2692.7125
532.35792	2656.9125
536.41261	2685.4125
540.46441	2680.3125
544.51333	2684.6125
548.55936	2697.3125
552.60252	2742.2125
556.64279	2746.6125
560.6802	2784.2125
564.71473	2790.4125
568.7464	2828.1125
572.7752	2835.2125
576.80114	2807.4125
580.82422	2796.6125
584.84444	2787.3125
588.86181	2790.4125
592.87633	2822.5125
596.888	2844.6125
600.89682	2873.3125
604.9028	2981.4125
608.90594	3166.6125
612.90624	3390.2125
616.90371	3306.7125
620.89834	3046.4125
624.89015	2977.1125
628.87913	2955.8125
632.86528	2998.6125
636.84862	3026.4125
640.82913	3024.8125
644.80683	2990.7125
648.78172	2995.1125
652.75379	3016.6125
656.72306	3046.4125
660.68952	3058.9125
664.65319	3080.9125
668.61405	3072.2125
672.57211	3075.0125
676.52738	3121.1125
680.47986	3120.6125
684.42955	3106.9125
688.37646	3136.5125
692.32058	3119.4125
696.26192	3121.6125
700.20048	3151.0125
704.13626	3162.3125
708.06928	3153.0125
711.99952	3200.8125
715.927	3162.6125
719.85171	3192.0125
723.77365	3215.2125
727.69284	3211.4125
731.60928	3227.8125
735.52295	3218.8125
739.43388	3252.6125
743.34206	3253.9125
747.24749	3287.8125
751.15017	3299.4125
755.05012	3283.6125
758.94733	3331.3125
762.8418	3394.3125
766.73354	3516.0125
770.62254	3598.5125
774.50882	3583.3125
778.39237	3549.3125
782.27321	3520.4125
786.15132	3429.9125
790.02671	3408.8125
793.89938	3346.1125
797.76935	3356.7125
801.6366	3357.5125
805.50115	3348.8125
809.36299	3380.2125
813.22213	3386.3125
817.07857	3403.1125
820.93231	3396.4125
824.78336	3413.4125
828.63172	3423.6125
832.47738	3413.6125
836.32036	3459.6125
840.16066	3456.8125
843.99827	3459.7125
847.8332	3463.1125
851.66546	3467.1125
855.49504	3448.9125
859.32195	3502.9125
863.1462	3497.1125
866.96777	3508.8125
870.78668	3505.1125
874.60293	3512.2125
878.41652	3509.8125
882.22745	3552.4125
886.03573	3554.0125
889.84136	3547.5125
893.64433	3586.4125
897.44466	3557.0125
901.24235	3571.4125
905.0374	3589.8125
908.8298	3589.4125
912.61957	3587.7125
916.40671	3535.5125
920.19121	3577.2125
923.97308	3606.6125
927.75233	3577.5125
931.52895	3594.2125
935.30295	3624.4125
939.07433	3603.5125
942.84309	3582.3125
946.60924	3599.4125
950.37278	3585.9125
954.13371	3605.7125
957.89203	3596.4125
961.64774	3612.3125
965.40086	3605.5125
969.15137	3588.3125
972.89929	3616.4125
976.64461	3605.6125
980.38733	3618.6125
984.12747	3622.7125
987.86502	3619.5125
991.59999	3622.5125
995.33237	3659.1125
999.06217	3670.7125
1002.78939	3676.9125
1006.51404	3688.0125
1010.23611	3709.7125
1013.95561	3719.6125
1017.67255	3746.2125
1021.38692	3734.2125
1025.09872	3738.8125
1028.80796	3713.4125
1032.51465	3731.4125
1036.21877	3742.2125
1039.92035	3753.9125
1043.61937	3753.9125
1047.31584	3776.1125
1051.00976	3806.5125
1054.70114	3822.5125
1058.38998	3820.1125
1062.07627	3806.8125
1065.76003	3824.8125
1069.44126	3857.8125
1073.11995	3847.7125
1076.79611	3887.0125
1080.46974	3885.0125
1084.14085	3923.3125
1087.80943	3920.2125
1091.47549	3933.8125
1095.13903	3936.3125
1098.80005	3949.3125
1102.45857	3923.0125
1106.11456	3926.1125
1109.76805	3891.1125
1113.41903	3925.4125
1117.06751	3919.7125
1120.71348	3936.0125
1124.35696	3987.5125
1127.99793	4011.5125
1131.63641	4012.8125
1135.2724	3980.6125
1138.90589	3972.1125
1142.5369	3907.2125
1146.16542	3932.6125
1149.79145	3893.3125
1153.415	3893.1125
1157.03607	3886.9125
1160.65467	3894.2125
1164.27079	3943.2125
1167.88443	3938.8125
1171.49561	4006.0125
1175.10432	4042.3125
1178.71056	4126.9125
1182.31434	4215.0125
1185.91565	4222.0125
1189.51451	4211.9125
1193.11091	4202.2125
1196.70485	4186.6125
1200.29634	4184.5125
1203.88538	4159.9125
1207.47197	4107.1125
1211.05612	4080.5125
1214.63782	4040.5125
1218.21708	4063.5125
1221.79391	4055.0125
1225.36829	4016.4125
1228.94024	4025.5125
1232.50976	4044.7125
1236.07685	4068.5125
1239.6415	4073.6125
1243.20374	4065.8125
1246.76355	4091.9125
1250.32093	4127.9125
1253.8759	4107.5125
1257.42845	4148.5125
1260.97859	4162.9125
1264.52631	4202.4125
1268.07163	4198.3125
1271.61453	4206.0125
1275.15503	4220.0125
1278.69312	4210.0125
1282.22882	4216.2125
1285.76211	4254.0125
1289.29301	4244.4125
1292.82151	4268.2125
1296.34761	4273.7125
1299.87133	4326.9125
1303.39266	4380.1125
1306.9116	4476.6125
1310.42815	4597.0125
1313.94233	4654.7125
1317.45412	4580.6125
1320.96354	4468.0125
1324.47058	4399.6125
1327.97525	4302.0125
1331.47754	4270.8125
1334.97747	4260.8125
1338.47502	4256.6125
1341.97022	4290.3125
1345.46305	4368.9125
1348.95352	4456.7125
1352.44163	4552.5125
1355.92738	4624.8125
1359.41078	4738.9125
1362.89183	4896.4125
1366.37053	4815.4125
1369.84688	4570.1125
1373.32088	4360.8125
1376.79254	4265.3125
1380.26186	4182.5125
1383.72883	4130.8125
1387.19347	4078.9125
1390.65578	4014.5125
1394.11575	4012.4125
1397.57339	3990.5125
1401.0287	3982.7125
1404.48168	3983.9125
1407.93234	3990.1125
1411.38068	3982.5125
1414.82669	3986.1125
1418.27039	4021.4125
1421.71177	4027.3125
1425.15083	3991.0125
1428.58758	3978.5125
1432.02203	3993.6125
1435.45416	4009.1125
1438.88399	3981.1125
1442.31151	3931.7125
1445.73673	3957.5125
1449.15965	3952.4125
1452.58027	3947.7125
1455.9986	3960.4125
1459.41463	3960.2125
1462.82837	3964.5125
1466.23982	3997.5125
1469.64898	4004.2125
1473.05586	4016.6125
1476.46045	4027.5125
1479.86276	4046.5125
1483.26279	4058.0125
1486.66054	4085.8125
1490.05602	4106.6125
1493.44922	4163.7125
1496.84016	4245.4125
1500.22882	4364.1125
1503.61521	4488.7125
1506.99934	4635.7125
1510.38121	4763.0125
1513.76081	4815.0125
1517.13816	4731.3125
1520.51324	4534.7125
1523.88607	4365.6125
1527.25665	4298.3125
1530.62498	4218.4125
1533.99105	4218.9125
1537.35488	4214.8125
1540.71647	4217.7125
1544.07581	4240.0125
1547.4329	4224.7125
1550.78776	4227.8125
1554.14038	4220.2125
1557.49077	4206.3125
1560.83892	4235.7125
1564.18484	4252.8125
1567.52853	4282.7125
1570.86999	4311.5125
1574.20922	4333.9125
1577.54624	4304.5125
1580.88103	4277.1125
1584.2136	4193.5125
1587.54395	4213.0125
1590.87208	4205.2125
1594.19801	4181.5125
1597.52172	4247.4125
1600.84321	4262.2125
1604.16251	4236.6125
1607.47959	4218.4125
1610.79447	4205.1125
1614.10715	4180.4125
1617.41763	4162.3125
1620.7259	4123.3125
1624.03199	4110.7125
1627.33587	4086.6125
1630.63757	4070.7125
1633.93707	4096.7125
1637.23439	4134.5125
1640.52951	4209.4125
1643.82246	4279.1125
1647.11321	4406.3125
1650.40179	4451.3125
1653.68819	4402.1125
1656.97241	4317.2125
1660.25446	4194.2125
1663.53433	4101.0125
1666.81203	4036.2125
1670.08756	4004.8125
1673.36092	4022.9125
1676.63211	3988.8125
1679.90115	3979.3125
1683.16801	3977.6125
1686.43272	3937.0125
1689.69527	3944.5125
1692.95567	3928.7125
1696.2139	3934.7125
1699.46999	3893.1125
1702.72392	3899.0125
1705.97571	3939.3125
1709.22535	3922.5125
1712.47284	3971.1125
1715.71819	3968.7125
1718.96139	3971.0125
1722.20246	3979.2125
1725.44139	3967.1125
1728.67818	3981.2125
1731.91284	3961.7125
1735.14537	3951.6125
1738.37576	3947.8125
1741.60403	3945.2125
1744.83017	3922.6125
1748.05418	3950.0125
1751.27607	3956.2125
1754.49584	3931.2125
1757.71349	3899.0125
1760.92903	3916.5125
1764.14244	3899.7125
1767.35375	3916.4125
1770.56294	3913.6125
1773.77002	3898.6125
1776.97499	3940.0125
1780.17785	3930.4125
1783.37861	3926.7125
1786.57727	3952.0125
1789.77382	3905.3125
1792.96828	3932.1125
1796.16064	3936.2125
1799.3509	3940.0125
1802.53907	3946.2125
1805.72514	3916.5125
1808.90913	3905.2125
1812.09102	3915.9125
1815.27083	3926.4125
1818.44856	3907.4125
1821.6242	3919.5125
1824.79776	3902.7125
1827.96924	3878.1125
1831.13864	3861.3125
1834.30597	3883.0125
1837.47122	3869.4125
1840.6344	3854.6125
1843.7955	3856.3125
1846.95454	3845.1125
1850.11151	3874.5125
1853.26642	3833.5125
1856.41926	3854.5125
1859.57004	3856.0125
1862.71876	3843.6125
1865.86542	3850.8125
1869.01003	3845.0125
1872.15258	3826.6125
1875.29308	3842.6125
1878.43152	3849.8125
1881.56792	3828.9125
1884.70227	3806.2125
1887.83457	3829.6125
1890.96482	3792.0125
1894.09304	3790.7125
1897.21921	3814.0125
1900.34335	3835.9125
1903.46544	3795.5125
1906.58551	3819.4125
1909.70353	3799.2125
1912.81953	3803.1125
1915.93349	3781.8125
1919.04543	3777.4125
1922.15534	3776.1125
1925.26322	3782.8125
1928.36908	3775.4125
1931.47292	3766.0125
1934.57473	3793.0125
1937.67453	3761.4125
1940.77232	3748.7125
1943.86808	3747.6125
1946.96184	3740.6125
1950.05358	3711.8125
1953.14331	3702.8125
1956.23103	3731.4125
1959.31675	3694.4125
1962.40046	3637.8125
1965.48217	3653.6125
1968.56188	3663.7125
1971.63959	3650.1125
1974.7153	3646.9125
1977.78901	3644.7125
1980.86073	3633.0125
1983.93046	3594.7125
1986.99819	3536.8125
1990.06394	3570.5125
1993.1277	3598.5125
1996.18947	3574.0125
1999.24925	3543.5125
2002.30706	3553.8125
2005.36288	3559.2125
2008.41672	3549.5125
2011.46859	3520.5125
2014.51848	3508.0125
2017.56639	3498.0125
2020.61233	3486.3125
2023.6563	3501.4125
2026.6983	3457.5125
2029.73833	3474.3125
2032.7764	3488.5125
2035.8125	3445.0125
2038.84664	3441.3125
2041.87881	3430.3125
2044.90903	3430.7125
2047.93729	3439.5125
2050.96359	3422.1125
2053.98794	3423.8125
2057.01034	3424.5125
2060.03078	3423.2125
2063.04927	3408.3125
2066.06582	3419.2125
2069.08042	3393.5125
2072.09307	3413.6125
2075.10378	3417.0125
2078.11255	3396.8125
2081.11938	3406.7125
2084.12426	3407.0125
2087.12722	3405.4125
2090.12824	3402.6125
2093.12732	3407.4125
2096.12447	3402.9125
2099.11969	3402.3125
2102.11299	3398.8125
2105.10435	3428.5125
2108.09379	3417.9125
2111.08131	3403.4125
2114.0669	3400.4125
2117.05057	3413.6125
2120.03233	3393.7125
2123.01216	3415.1125
2125.99008	3425.2125
2128.96609	3423.0125
2131.94018	3442.1125
2134.91236	3437.3125
2137.88263	3419.7125
2140.851	3431.2125
2143.81746	3454.9125
2146.78201	3438.9125
2149.74466	3436.6125
2152.7054	3456.4125
2155.66425	3442.3125
2158.6212	3444.3125
2161.57625	3429.2125
2164.52941	3404.8125
2167.48067	3418.6125
2170.43004	3413.6125
2173.37752	3440.8125
2176.32311	3409.5125
2179.26681	3434.0125
2182.20863	3442.5125
2185.14856	3439.6125
2188.08661	3423.2125
2191.02278	3442.2125
2193.95707	3408.1125
2196.88948	3404.4125
2199.82001	3419.3125
2202.74867	3414.1125
2205.67545	3424.9125
2208.60037	3421.0125
2211.52341	3403.9125
2214.44458	3398.5125
2217.36388	3394.3125
2220.28132	3376.9125
2223.1969	3352.0125
2226.11061	3376.1125
2229.02246	3349.0125
2231.93245	3365.8125
2234.84058	3341.9125
2237.74686	3341.2125
2240.65128	3338.1125
2243.55385	3339.9125
2246.45456	3317.1125
2249.35343	3335.3125
2252.25044	3317.2125
2255.14561	3316.9125
2258.03893	3319.1125
2260.93041	3309.0125
2263.82004	3304.0125
2266.70783	3303.9125
2269.59378	3283.6125
2272.4779	3262.7125
2275.36017	3269.8125
2278.24061	3253.4125
2281.11922	3231.1125
2283.996	3248.8125
2286.87094	3224.5125
2289.74405	3237.8125
2292.61534	3238.2125
2295.4848	3232.6125
2298.35243	3219.3125
2301.21824	3216.4125
2304.08223	3232.6125
2306.94439	3224.6125
2309.80474	3229.7125
2312.66327	3224.6125
2315.51999	3198.3125
2318.37489	3203.5125
2321.22797	3195.7125
2324.07925	3191.1125
2326.92871	3182.8125
2329.77637	3171.4125
2332.62222	3168.5125
2335.46626	3155.5125
2338.3085	3137.5125
2341.14893	3156.4125
2343.98756	3158.2125
2346.8244	3129.1125
2349.65943	3129.3125
2352.49267	3132.5125
2355.32411	3128.0125
2358.15376	3106.3125
2360.98161	3134.3125
2363.80768	3109.8125
2366.63195	3106.5125
2369.45444	3119.9125
2372.27514	3117.2125
2375.09405	3108.1125
2377.91118	3083.9125
2380.72652	3078.9125
2383.54009	3080.5125
2386.35187	3083.7125
2389.16188	3065.6125
2391.97011	3072.6125
2394.77657	3057.5125
2397.58125	3073.9125
2400.38416	3063.7125
2403.18529	3053.2125
2405.98466	3042.3125
2408.78226	3034.4125
2411.57809	3030.3125
2414.37216	3025.3125
2417.16446	3038.9125
2419.955	3009.0125
2422.74378	3026.7125
2425.5308	3003.6125
2428.31606	3012.6125
2431.09956	3010.0125
2433.88131	2979.6125
2436.6613	2998.4125
2439.43954	2980.2125
2442.21603	2971.1125
2444.99077	2961.3125
2447.76377	2981.0125
2450.53501	2973.6125
2453.30451	2960.8125
2456.07226	2983.7125
2458.83827	2949.1125
2461.60254	2915.6125
2464.36507	2949.1125
2467.12586	2927.0125
2469.88492	2941.9125
2472.64224	2929.1125
2475.39782	2903.9125
2478.15167	2923.3125
2480.90379	2915.4125
2483.65417	2929.4125
2486.40283	2921.8125
2489.14976	2916.2125
2491.89497	2905.6125
2494.63845	2906.9125
2497.3802	2891.5125
2500.12024	2891.2125
2502.85855	2886.9125
2505.59514	2899.2125
2508.33002	2895.8125
2511.06318	2871.3125
2513.79462	2877.3125
2516.52435	2843.8125
2519.25237	2832.2125
2521.97867	2844.7125
2524.70327	2846.3125
2527.42616	2844.8125
2530.14734	2868.6125
2532.86681	2844.4125
2535.58458	2845.7125
2538.30065	2829.4125
2541.01501	2844.4125
2543.72768	2831.6125
2546.43864	2814.3125
2549.14791	2813.4125
2551.85548	2797.7125
2554.56136	2806.3125
2557.26554	2806.4125
2559.96803	2782.2125
2562.66883	2788.2125
2565.36794	2756.8125
2568.06536	2733.2125
2570.7611	2770.5125
2573.45514	2750.7125
2576.14751	2749.8125
2578.83819	2729.0125
2581.52719	2737.8125
2584.21451	2742.5125
2586.90015	2704.3125
2589.58411	2700.2125
2592.2664	2713.1125
2594.94701	2707.9125
2597.62594	2713.2125
2600.30321	2635.2125
2602.9788	2664.7125
2605.65273	2666.4125
2608.32498	2674.9125
2610.99557	2675.1125
2613.66449	2649.2125
2616.33175	2668.3125
2618.99734	2664.2125
2621.66128	2651.7125
2624.32355	2635.2125
2626.98416	2617.6125
2629.64311	2614.6125
2632.30041	2614.2125
2634.95605	2607.2125
2637.61004	2599.5125
2640.26238	2577.5125
2642.91306	2578.5125
2645.56209	2617.2125
2648.20948	2606.2125
2650.85521	2591.2125
2653.4993	2601.4125
2656.14175	2575.2125
2658.78255	2567.5125
2661.42171	2546.2125
2664.05923	2570.0125
2666.6951	2583.9125
2669.32934	2582.8125
2671.96194	2590.8125
2674.59291	2575.4125
2677.22224	2580.1125
2679.84993	2570.3125
2682.476	2577.3125
2685.10043	2566.1125
2687.72324	2553.3125
2690.34441	2547.3125
2692.96396	2552.0125
2695.58188	2566.4125
2698.19818	2554.2125
2700.81285	2533.8125
2703.4259	2536.4125
2706.03733	2510.5125
2708.64714	2513.2125
2711.25533	2543.4125
2713.86191	2546.1125
2716.46687	2540.6125
2719.07021	2533.0125
2721.67194	2537.7125
2724.27206	2539.6125
2726.87057	2533.4125
2729.46747	2534.1125
2732.06276	2546.1125
2734.65644	2513.3125
2737.24852	2512.3125
2739.83899	2505.6125
2742.42786	2516.2125
2745.01513	2522.0125
2747.60079	2499.0125
2750.18486	2491.1125
2752.76733	2499.0125
2755.3482	2487.6125
2757.92747	2497.8125
2760.50515	2479.0125
2763.08123	2473.6125
2765.65573	2471.5125
2768.22863	2459.6125
2770.79994	2451.5125
2773.36967	2455.9125
2775.9378	2436.1125
2778.50435	2449.7125
2781.06932	2442.1125
2783.6327	2433.3125
2786.1945	2451.2125
2788.75471	2439.2125
2791.31335	2415.8125
2793.87041	2434.4125
2796.42589	2398.3125
2798.97979	2393.1125
2801.53212	2395.7125
2804.08288	2407.1125
2806.63206	2387.3125
2809.17967	2368.8125
2811.72571	2379.9125
2814.27018	2366.8125
2816.81308	2354.1125
2819.35442	2316.1125
2821.89419	2342.9125
2824.43239	2326.5125
2826.96904	2355.9125
2829.50412	2324.6125
2832.03763	2332.1125
2834.56959	2326.0125
2837.1	2323.1125
2839.62884	2323.3125
2842.15613	2312.2125
2844.68186	2328.9125
2847.20604	2307.7125
2849.72867	2289.2125
2852.24974	2299.4125
2854.76927	2268.4125
2857.28724	2222.1125
2859.80367	2275.3125
2862.31855	2282.6125
2864.83189	2255.3125
2867.34368	2256.0125
2869.85393	2279.2125
2872.36264	2246.6125
2874.8698	2251.3125
2877.37543	2252.6125
2879.87952	2250.9125
2882.38207	2230.2125
2884.88308	2242.8125
2887.38256	2248.9125
2889.88051	2242.6125
2892.37692	2251.7125
2894.8718	2227.6125
2897.36515	2250.6125
2899.85698	2235.5125
2902.34727	2226.1125
2904.83604	2236.2125
2907.32328	2236.4125
2909.809	2238.4125
2912.29319	2217.9125
2914.77587	2221.0125
2917.25702	2226.7125
2919.73665	2227.2125
2922.21476	2244.0125
2924.69136	2246.4125
2927.16644	2217.5125
2929.64	2222.7125
2932.11205	2212.4125
2934.58258	2214.5125
2937.05161	2203.3125
2939.51912	2218.8125
2941.98513	2235.3125
2944.44962	2214.1125
2946.91261	2192.4125
2949.37409	2201.4125
2951.83407	2199.8125
2954.29254	2188.7125
2956.74951	2208.1125
2959.20498	2189.8125
2961.65895	2194.1125
2964.11142	2180.6125
2966.56239	2197.1125
2969.01186	2195.1125
2971.45984	2178.4125
2973.90632	2171.6125
2976.35131	2179.4125
2978.7948	2173.5125
2981.23681	2171.4125
2983.67732	2177.4125
2986.11635	2179.3125
2988.55388	2148.2125
2990.98993	2154.8125
2993.4245	2138.2125
2995.85758	2128.0125
2998.28917	2120.7125
3000.71928	2120.5125
3003.14791	2128.0125
3005.57506	2116.0125
3008.00073	2108.1125
3010.42493	2040.6125
3012.84764	2109.0125
3015.26888	2114.1125
3017.68865	2102.7125
3020.10694	2055.9125
3022.52376	2078.9125
3024.9391	2077.8125
3027.35298	2073.4125
3029.76539	2064.4125
3032.17632	2068.3125
3034.5858	2067.5125
3036.9938	2084.9125
3039.40034	2069.2125
3041.80542	2053.0125
3044.20903	2041.4125
3046.61118	2039.8125
3049.01187	2052.9125
3051.4111	2035.9125
3053.80888	2036.2125
3056.20519	2019.7125
3058.60005	2015.1125
3060.99345	2029.0125
3063.3854	2008.7125
3065.7759	1989.4125
3068.16494	1992.2125
3070.55254	1989.8125
3072.93868	1999.1125
3075.32338	1991.6125
3077.70662	1980.7125
3080.08842	1978.4125
3082.46878	1976.6125
3084.84769	1994.9125
3087.22515	1965.6125
3089.60118	1991.8125
3091.97576	1969.4125
3094.3489	1980.6125
3096.72061	1977.0125
3099.09087	1959.3125
3101.4597	1974.3125
3103.82709	1965.4125
3106.19305	1952.1125
3108.55757	1961.8125
3110.92066	1945.1125
3113.28232	1965.3125
3115.64255	1959.7125
3118.00134	1953.6125
3120.35871	1938.5125
3122.71466	1921.3125
3125.06917	1931.8125
3127.42226	1929.7125
3129.77393	1915.8125
3132.12417	1933.7125
3134.47299	1933.5125
3136.82039	1905.1125
3139.16636	1884.0125
3141.51092	1915.5125
3143.85406	1914.9125
3146.19579	1886.8125
3148.53609	1888.0125
3150.87499	1896.5125
3153.21246	1896.4125
3155.54853	1915.4125
3157.88318	1903.0125
3160.21642	1923.0125
3162.54826	1910.7125
3164.87868	1899.1125
3167.2077	1869.6125
3169.5353	1899.2125
3171.86151	1916.0125
3174.18631	1892.5125
3176.5097	1906.0125
3178.83169	1898.5125
3181.15228	1895.1125
3183.47147	1871.8125
3185.78926	1850.4125
3188.10565	1876.3125
3190.42065	1855.7125
3192.73424	1873.8125
3195.04645	1856.3125
3197.35725	1854.1125
3199.66667	1863.5125
3201.97469	1859.5125
3204.28132	1849.9125
3206.58656	1849.0125
3208.8904	1856.2125
3211.19287	1866.1125
3213.49394	1841.3125
3215.79363	1839.3125
3218.09193	1848.5125
3220.38884	1838.9125
3222.68438	1848.6125
3224.97853	1830.5125
3227.2713	1842.5125
3229.56269	1828.2125
3231.8527	1840.9125
3234.14133	1827.1125
3236.42858	1828.8125
3238.71446	1798.7125
3240.99896	1830.1125
3243.28209	1798.9125
3245.56384	1821.3125
3247.84423	1804.5125
3250.12324	1811.8125
3252.40088	1805.0125
3254.67715	1797.9125
3256.95205	1792.2125
3259.22558	1813.2125
3261.49775	1789.9125
3263.76855	1787.7125
3266.03799	1790.9125
3268.30606	1793.4125
3270.57277	1793.3125
3272.83812	1776.7125
3275.10211	1773.9125
3277.36474	1790.7125
3279.62601	1781.0125
3281.88593	1751.3125
3284.14448	1740.7125
3286.40168	1748.7125
3288.65753	1743.7125
3290.91202	1749.2125
3293.16516	1721.2125
3295.41695	1749.8125
3297.66738	1749.3125
3299.91647	1726.8125
3302.16421	1726.7125
3304.4106	1679.1125
3306.65564	1707.4125
3308.89933	1678.8125
3311.14169	1673.0125
3313.38269	1659.6125
3315.62236	1645.9125
3317.86068	1633.1125
3320.09766	1638.7125
3322.3333	1599.5125
3324.5676	1592.1125
3326.80056	1569.9125
3329.03219	1552.0125
3331.26248	-1.1875
3333.49143	-0.0875
3335.71905	1.1125
