Data from AgNPs_UA_20uM_CRN_500uM_SU_RamanShift__72__13-48-30-305.txt Node

Date: Thu Aug 04 13:48:30 BST 2022
User: TCL
Spectrometer: QEP01345
Trigger mode: 4
Integration Time (sec): 1.000000E0
Scans to average: 10
Electric dark correction enabled: true
Nonlinearity correction enabled: false
Boxcar width: 0
XAxis mode: Raman Shifts
Number of Pixels in Spectrum: 1044
>>>>>Begin Spectral Data<<<<<
46.04893	-1.175
50.45542	0.125
54.85868	1.425
59.25871	-0.475
63.6555	11.525
68.04907	8.025
72.43941	13.225
76.82654	13.925
81.21044	11.825
85.59113	15.325
89.96862	13.825
94.34289	13.525
98.71396	13.925
103.08183	15.925
107.4465	15.825
111.80798	15.725
116.16626	18.025
120.52136	18.825
124.87327	17.125
129.222	20.925
133.56755	20.225
137.90993	20.325
142.24913	24.325
146.58517	25.725
150.91804	29.725
155.24774	36.325
159.57429	46.325
163.89768	56.825
168.21792	77.225
172.53501	107.425
176.84895	143.725
181.15975	210.425
185.46741	291.725
189.77193	402.125
194.07331	543.625
198.37157	702.925
202.6667	874.825
206.9587	1045.625
211.24758	1199.125
215.53334	1382.925
219.81599	1560.025
224.09553	1758.225
228.37195	1977.925
232.64527	2209.325
236.91549	2444.125
241.18261	2657.025
245.44663	2841.625
249.70755	2979.725
253.96539	3104.725
258.22014	3205.925
262.4718	3314.125
266.72039	3394.725
270.96589	3422.525
275.20832	3422.525
279.44768	3371.625
283.68397	3304.825
287.91719	3277.525
292.14735	3276.925
296.37445	3326.525
300.59849	3413.525
304.81948	3542.425
309.03742	3651.125
313.25231	3689.725
317.46415	3638.125
321.67296	3499.725
325.87872	3371.725
330.08145	3308.425
334.28114	3309.625
338.47781	3365.725
342.67145	3439.425
346.86207	3535.525
351.04966	3662.925
355.23424	3796.825
359.4158	3911.025
363.59435	3978.525
367.76989	4012.625
371.94243	4008.125
376.11196	4013.325
380.27849	4014.025
384.44203	4029.825
388.60257	4048.225
392.76012	4076.925
396.91468	4130.625
401.06626	4205.225
405.21485	4252.725
409.36047	4189.925
413.50311	4060.325
417.64277	3930.125
421.77947	3869.125
425.9132	3832.825
430.04396	3845.225
434.17176	3902.225
438.2966	4004.325
442.41849	4119.125
446.53742	4265.425
450.6534	4415.625
454.76644	4507.125
458.87653	4506.125
462.98368	4428.625
467.08789	4352.925
471.18916	4242.125
475.2875	4109.625
479.38291	4013.625
483.4754	3940.225
487.56496	3900.525
491.6516	3849.925
495.73531	3844.925
499.81612	3827.325
503.89401	3868.525
507.96899	3893.125
512.04106	3932.425
516.11023	3976.225
520.1765	4011.725
524.23987	4031.025
528.30034	4018.625
532.35792	3996.525
536.41261	3968.825
540.46441	3907.725
544.51333	3880.125
548.55936	3918.425
552.60252	3982.825
556.64279	4035.325
560.6802	4061.925
564.71473	4098.225
568.7464	4157.325
572.7752	4158.525
576.80114	4099.525
580.82422	4049.825
584.84444	4072.125
588.86181	4167.025
592.87633	4287.025
596.888	4415.625
600.89682	4574.025
604.9028	5052.025
608.90594	6043.725
612.90624	6987.325
616.90371	6383.825
620.89834	4946.825
624.89015	4372.525
628.87913	4300.425
632.86528	4302.925
636.84862	4278.525
640.82913	4181.925
644.80683	4037.225
648.78172	3967.425
652.75379	4004.325
656.72306	4138.825
660.68952	4273.925
664.65319	4225.725
668.61405	4110.025
672.57211	4105.125
676.52738	4092.125
680.47986	4042.725
684.42955	3997.625
688.37646	3995.425
692.32058	4029.025
696.26192	4072.625
700.20048	4159.525
704.13626	4164.725
708.06928	4130.225
711.99952	4073.825
715.927	4096.425
719.85171	4129.925
723.77365	4101.725
727.69284	4063.725
731.60928	4055.825
735.52295	4058.225
739.43388	4073.825
743.34206	4121.025
747.24749	4138.125
751.15017	4145.025
755.05012	4215.725
758.94733	4358.125
762.8418	4729.525
766.73354	5283.425
770.62254	5783.825
774.50882	5955.025
778.39237	5653.625
782.27321	5110.425
786.15132	4624.325
790.02671	4324.125
793.89938	4203.625
797.76935	4133.425
801.6366	4126.525
805.50115	4102.125
809.36299	4082.225
813.22213	4099.825
817.07857	4085.125
820.93231	4082.225
824.78336	4092.425
828.63172	4109.725
832.47738	4108.825
836.32036	4111.625
840.16066	4118.025
843.99827	4119.625
847.8332	4120.925
851.66546	4125.225
855.49504	4120.325
859.32195	4131.625
863.1462	4130.125
866.96777	4118.125
870.78668	4098.625
874.60293	4106.225
878.41652	4127.225
882.22745	4155.725
886.03573	4172.125
889.84136	4163.525
893.64433	4123.125
897.44466	4125.425
901.24235	4130.825
905.0374	4133.025
908.8298	4099.525
912.61957	4098.725
916.40671	4124.225
920.19121	4157.325
923.97308	4190.925
927.75233	4230.825
931.52895	4255.525
935.30295	4207.525
939.07433	4130.525
942.84309	4077.425
946.60924	4065.925
950.37278	4051.625
954.13371	4024.025
957.89203	4012.625
961.64774	4017.025
965.40086	4003.925
969.15137	3990.025
972.89929	3978.425
976.64461	3992.525
980.38733	3996.225
984.12747	4027.025
987.86502	4058.125
991.59999	4092.125
995.33237	4174.125
999.06217	4279.025
1002.78939	4395.625
1006.51404	4450.525
1010.23611	4499.325
1013.95561	4544.325
1017.67255	4598.725
1021.38692	4559.225
1025.09872	4502.325
1028.80796	4498.225
1032.51465	4536.425
1036.21877	4585.825
1039.92035	4598.425
1043.61937	4570.525
1047.31584	4511.925
1051.00976	4463.725
1054.70114	4464.225
1058.38998	4463.825
1062.07627	4476.025
1065.76003	4526.625
1069.44126	4568.925
1073.11995	4631.725
1076.79611	4670.925
1080.46974	4694.425
1084.14085	4740.725
1087.80943	4828.825
1091.47549	4821.625
1095.13903	4759.825
1098.80005	4640.425
1102.45857	4581.925
1106.11456	4539.025
1109.76805	4575.425
1113.41903	4666.125
1117.06751	4742.625
1120.71348	4860.825
1124.35696	4996.025
1127.99793	5086.925
1131.63641	5001.825
1135.2724	4868.725
1138.90589	4733.725
1142.5369	4645.425
1146.16542	4576.925
1149.79145	4549.125
1153.415	4525.025
1157.03607	4551.525
1160.65467	4622.425
1164.27079	4753.925
1167.88443	4932.925
1171.49561	5179.725
1175.10432	5594.525
1178.71056	6132.025
1182.31434	6636.625
1185.91565	6886.625
1189.51451	6899.225
1193.11091	6679.425
1196.70485	6348.525
1200.29634	6001.825
1203.88538	5722.325
1207.47197	5440.825
1211.05612	5213.825
1214.63782	5064.025
1218.21708	5026.125
1221.79391	5031.425
1225.36829	5058.625
1228.94024	5108.825
1232.50976	5088.625
1236.07685	5128.125
1239.6415	5167.525
1243.20374	5173.425
1246.76355	5179.925
1250.32093	5221.825
1253.8759	5310.325
1257.42845	5466.825
1260.97859	5635.125
1264.52631	5775.225
1268.07163	5889.525
1271.61453	5971.225
1275.15503	6022.025
1278.69312	6094.525
1282.22882	6178.725
1285.76211	6299.225
1289.29301	6488.425
1292.82151	6691.025
1296.34761	6867.325
1299.87133	7136.325
1303.39266	7520.525
1306.9116	8048.825
1310.42815	8573.825
1313.94233	8756.225
1317.45412	8524.825
1320.96354	8143.625
1324.47058	7746.825
1327.97525	7485.425
1331.47754	7405.425
1334.97747	7431.425
1338.47502	7541.625
1341.97022	7698.925
1345.46305	7908.125
1348.95352	8222.625
1352.44163	8654.925
1355.92738	9228.525
1359.41078	10006.225
1362.89183	10532.225
1366.37053	10031.825
1369.84688	8696.725
1373.32088	7412.925
1376.79254	6715.125
1380.26186	6447.225
1383.72883	6302.325
1387.19347	6168.725
1390.65578	5954.425
1394.11575	5752.225
1397.57339	5608.325
1401.0287	5563.125
1404.48168	5673.025
1407.93234	5753.525
1411.38068	5936.025
1414.82669	6015.425
1418.27039	5962.925
1421.71177	5910.925
1425.15083	5894.125
1428.58758	5938.225
1432.02203	6062.425
1435.45416	6120.725
1438.88399	6098.825
1442.31151	6045.825
1445.73673	5987.825
1449.15965	5948.325
1452.58027	5861.225
1455.9986	5780.325
1459.41463	5744.325
1462.82837	5794.425
1466.23982	5857.725
1469.64898	5985.325
1473.05586	6067.825
1476.46045	6123.825
1479.86276	6180.925
1483.26279	6279.525
1486.66054	6393.425
1490.05602	6583.825
1493.44922	6857.625
1496.84016	7272.225
1500.22882	7819.725
1503.61521	8507.025
1506.99934	9150.625
1510.38121	9495.525
1513.76081	9326.725
1517.13816	8659.025
1520.51324	7848.325
1523.88607	7228.425
1527.25665	6862.625
1530.62498	6713.325
1533.99105	6621.125
1537.35488	6545.225
1540.71647	6458.225
1544.07581	6363.025
1547.4329	6295.825
1550.78776	6190.825
1554.14038	6115.125
1557.49077	6089.925
1560.83892	6106.825
1564.18484	6153.825
1567.52853	6281.425
1570.86999	6385.425
1574.20922	6397.525
1577.54624	6303.925
1580.88103	6065.725
1584.2136	5823.025
1587.54395	5740.725
1590.87208	5890.325
1594.19801	6271.625
1597.52172	6743.125
1600.84321	7050.925
1604.16251	7036.825
1607.47959	6722.425
1610.79447	6314.025
1614.10715	5851.525
1617.41763	5482.125
1620.7259	5225.525
1624.03199	5099.525
1627.33587	5107.325
1630.63757	5199.825
1633.93707	5458.225
1637.23439	5927.425
1640.52951	6541.525
1643.82246	7269.225
1647.11321	7831.925
1650.40179	7892.425
1653.68819	7262.525
1656.97241	6294.925
1660.25446	5440.625
1663.53433	4905.125
1666.81203	4579.625
1670.08756	4377.325
1673.36092	4255.525
1676.63211	4182.825
1679.90115	4129.925
1683.16801	4071.625
1686.43272	4040.725
1689.69527	4016.625
1692.95567	4010.425
1696.2139	3989.825
1699.46999	3975.325
1702.72392	3968.925
1705.97571	3984.225
1709.22535	3980.825
1712.47284	3984.425
1715.71819	3954.725
1718.96139	3960.825
1722.20246	3951.825
1725.44139	3938.225
1728.67818	3916.125
1731.91284	3896.925
1735.14537	3883.425
1738.37576	3863.325
1741.60403	3861.725
1744.83017	3840.325
1748.05418	3843.125
1751.27607	3828.025
1754.49584	3824.325
1757.71349	3808.125
1760.92903	3807.525
1764.14244	3791.225
1767.35375	3793.125
1770.56294	3783.425
1773.77002	3797.825
1776.97499	3798.125
1780.17785	3774.225
1783.37861	3763.025
1786.57727	3759.225
1789.77382	3759.925
1792.96828	3753.925
1796.16064	3754.125
1799.3509	3729.725
1802.53907	3735.125
1805.72514	3733.525
1808.90913	3728.225
1812.09102	3731.125
1815.27083	3703.825
1818.44856	3705.125
1821.6242	3694.425
1824.79776	3699.025
1827.96924	3685.925
1831.13864	3679.525
1834.30597	3671.525
1837.47122	3674.425
1840.6344	3673.625
1843.7955	3656.925
1846.95454	3638.925
1850.11151	3659.025
1853.26642	3638.725
1856.41926	3663.725
1859.57004	3667.525
1862.71876	3641.425
1865.86542	3643.225
1869.01003	3639.025
1872.15258	3653.525
1875.29308	3654.425
1878.43152	3649.425
1881.56792	3645.425
1884.70227	3633.925
1887.83457	3638.725
1890.96482	3643.525
1894.09304	3619.625
1897.21921	3615.425
1900.34335	3622.125
1903.46544	3623.825
1906.58551	3614.925
1909.70353	3608.225
1912.81953	3604.225
1915.93349	3617.125
1919.04543	3594.525
1922.15534	3594.225
1925.26322	3588.925
1928.36908	3585.725
1931.47292	3594.425
1934.57473	3575.425
1937.67453	3570.525
1940.77232	3554.225
1943.86808	3564.925
1946.96184	3556.425
1950.05358	3545.325
1953.14331	3535.025
1956.23103	3511.525
1959.31675	3487.725
1962.40046	3492.225
1965.48217	3474.125
1968.56188	3468.325
1971.63959	3467.825
1974.7153	3455.725
1977.78901	3438.725
1980.86073	3434.625
1983.93046	3426.825
1986.99819	3399.425
1990.06394	3401.825
1993.1277	3391.925
1996.18947	3384.725
1999.24925	3370.025
2002.30706	3359.225
2005.36288	3347.625
2008.41672	3336.325
2011.46859	3339.225
2014.51848	3320.525
2017.56639	3318.825
2020.61233	3313.925
2023.6563	3302.225
2026.6983	3288.725
2029.73833	3287.825
2032.7764	3272.625
2035.8125	3275.925
2038.84664	3263.525
2041.87881	3265.025
2044.90903	3255.025
2047.93729	3245.625
2050.96359	3241.425
2053.98794	3234.825
2057.01034	3246.425
2060.03078	3238.925
2063.04927	3230.525
2066.06582	3229.625
2069.08042	3233.625
2072.09307	3233.725
2075.10378	3217.325
2078.11255	3225.625
2081.11938	3203.625
2084.12426	3208.825
2087.12722	3208.025
2090.12824	3197.725
2093.12732	3218.925
2096.12447	3222.825
2099.11969	3215.825
2102.11299	3228.325
2105.10435	3214.425
2108.09379	3218.825
2111.08131	3208.425
2114.0669	3218.625
2117.05057	3212.425
2120.03233	3207.325
2123.01216	3213.525
2125.99008	3222.025
2128.96609	3210.525
2131.94018	3225.825
2134.91236	3226.425
2137.88263	3214.525
2140.851	3221.325
2143.81746	3224.925
2146.78201	3235.025
2149.74466	3220.325
2152.7054	3220.425
2155.66425	3226.125
2158.6212	3231.225
2161.57625	3224.725
2164.52941	3207.525
2167.48067	3225.825
2170.43004	3204.025
2173.37752	3202.025
2176.32311	3215.625
2179.26681	3217.525
2182.20863	3216.425
2185.14856	3203.725
2188.08661	3213.725
2191.02278	3211.025
2193.95707	3205.125
2196.88948	3208.825
2199.82001	3211.525
2202.74867	3219.025
2205.67545	3207.625
2208.60037	3213.025
2211.52341	3196.825
2214.44458	3188.125
2217.36388	3189.625
2220.28132	3165.625
2223.1969	3157.725
2226.11061	3160.425
2229.02246	3151.425
2231.93245	3144.325
2234.84058	3138.325
2237.74686	3143.225
2240.65128	3135.725
2243.55385	3151.725
2246.45456	3139.425
2249.35343	3131.425
2252.25044	3115.525
2255.14561	3121.825
2258.03893	3128.225
2260.93041	3120.925
2263.82004	3119.125
2266.70783	3114.925
2269.59378	3085.325
2272.4779	3089.725
2275.36017	3082.325
2278.24061	3070.425
2281.11922	3060.825
2283.996	3050.925
2286.87094	3042.425
2289.74405	3043.625
2292.61534	3038.525
2295.4848	3044.525
2298.35243	3037.225
2301.21824	3026.225
2304.08223	3030.925
2306.94439	3031.925
2309.80474	3044.825
2312.66327	3024.225
2315.51999	3026.525
2318.37489	3018.625
2321.22797	3032.925
2324.07925	3024.625
2326.92871	3004.925
2329.77637	3005.925
2332.62222	3012.825
2335.46626	2995.025
2338.3085	3013.825
2341.14893	3006.325
2343.98756	3006.625
2346.8244	3004.325
2349.65943	3005.025
2352.49267	3004.325
2355.32411	2996.825
2358.15376	2995.025
2360.98161	2999.325
2363.80768	2993.225
2366.63195	2999.325
2369.45444	2980.025
2372.27514	2978.725
2375.09405	2972.225
2377.91118	2966.025
2380.72652	2973.525
2383.54009	2955.325
2386.35187	2948.825
2389.16188	2944.925
2391.97011	2943.825
2394.77657	2935.125
2397.58125	2927.925
2400.38416	2915.725
2403.18529	2917.725
2405.98466	2923.825
2408.78226	2911.525
2411.57809	2894.425
2414.37216	2906.325
2417.16446	2897.625
2419.955	2895.225
2422.74378	2888.325
2425.5308	2883.425
2428.31606	2876.125
2431.09956	2881.225
2433.88131	2870.025
2436.6613	2878.825
2439.43954	2883.225
2442.21603	2873.225
2444.99077	2876.625
2447.76377	2871.525
2450.53501	2866.525
2453.30451	2859.925
2456.07226	2858.325
2458.83827	2854.425
2461.60254	2856.325
2464.36507	2853.125
2467.12586	2849.725
2469.88492	2840.725
2472.64224	2854.525
2475.39782	2852.425
2478.15167	2856.425
2480.90379	2837.325
2483.65417	2862.825
2486.40283	2857.225
2489.14976	2860.925
2491.89497	2867.125
2494.63845	2855.125
2497.3802	2854.325
2500.12024	2853.225
2502.85855	2836.225
2505.59514	2827.425
2508.33002	2826.425
2511.06318	2825.725
2513.79462	2817.325
2516.52435	2816.125
2519.25237	2828.325
2521.97867	2818.525
2524.70327	2800.725
2527.42616	2797.025
2530.14734	2801.425
2532.86681	2801.325
2535.58458	2795.525
2538.30065	2796.525
2541.01501	2803.425
2543.72768	2790.025
2546.43864	2789.825
2549.14791	2795.525
2551.85548	2792.625
2554.56136	2779.225
2557.26554	2783.025
2559.96803	2773.825
2562.66883	2774.225
2565.36794	2768.725
2568.06536	2760.025
2570.7611	2762.425
2573.45514	2740.925
2576.14751	2747.825
2578.83819	2740.225
2581.52719	2727.025
2584.21451	2727.425
2586.90015	2721.025
2589.58411	2723.425
2592.2664	2723.225
2594.94701	2727.225
2597.62594	2729.925
2600.30321	2708.325
2602.9788	2710.825
2605.65273	2711.525
2608.32498	2722.525
2610.99557	2707.225
2613.66449	2717.225
2616.33175	2705.325
2618.99734	2707.025
2621.66128	2705.125
2624.32355	2703.625
2626.98416	2703.125
2629.64311	2700.725
2632.30041	2706.425
2634.95605	2700.125
2637.61004	2695.625
2640.26238	2693.325
2642.91306	2692.325
2645.56209	2691.525
2648.20948	2679.725
2650.85521	2688.025
2653.4993	2684.725
2656.14175	2686.825
2658.78255	2683.725
2661.42171	2676.625
2664.05923	2687.525
2666.6951	2696.025
2669.32934	2701.425
2671.96194	2681.825
2674.59291	2687.425
2677.22224	2680.525
2679.84993	2698.625
2682.476	2687.825
2685.10043	2687.425
2687.72324	2685.325
2690.34441	2683.825
2692.96396	2687.325
2695.58188	2697.125
2698.19818	2690.025
2700.81285	2679.525
2703.4259	2680.425
2706.03733	2675.525
2708.64714	2675.225
2711.25533	2668.925
2713.86191	2673.725
2716.46687	2672.425
2719.07021	2683.525
2721.67194	2702.325
2724.27206	2698.725
2726.87057	2683.025
2729.46747	2691.725
2732.06276	2691.125
2734.65644	2672.725
2737.24852	2680.225
2739.83899	2666.725
2742.42786	2669.525
2745.01513	2674.825
2747.60079	2668.825
2750.18486	2668.825
2752.76733	2661.625
2755.3482	2662.425
2757.92747	2663.925
2760.50515	2662.325
2763.08123	2657.525
2765.65573	2640.925
2768.22863	2649.425
2770.79994	2634.725
2773.36967	2657.625
2775.9378	2648.925
2778.50435	2652.725
2781.06932	2643.825
2783.6327	2643.525
2786.1945	2636.925
2788.75471	2631.825
2791.31335	2622.425
2793.87041	2629.725
2796.42589	2628.125
2798.97979	2619.725
2801.53212	2618.125
2804.08288	2613.525
2806.63206	2608.925
2809.17967	2596.125
2811.72571	2600.925
2814.27018	2608.125
2816.81308	2588.025
2819.35442	2581.925
2821.89419	2572.725
2824.43239	2573.125
2826.96904	2566.625
2829.50412	2575.025
2832.03763	2570.525
2834.56959	2564.625
2837.1	2539.325
2839.62884	2559.025
2842.15613	2564.425
2844.68186	2559.225
2847.20604	2560.525
2849.72867	2559.225
2852.24974	2548.125
2854.76927	2544.025
2857.28724	2534.325
2859.80367	2536.025
2862.31855	2527.825
2864.83189	2513.225
2867.34368	2525.425
2869.85393	2520.525
2872.36264	2516.225
2874.8698	2517.525
2877.37543	2509.425
2879.87952	2506.125
2882.38207	2504.425
2884.88308	2516.025
2887.38256	2496.225
2889.88051	2495.625
2892.37692	2498.525
2894.8718	2495.125
2897.36515	2505.825
2899.85698	2492.625
2902.34727	2512.425
2904.83604	2497.525
2907.32328	2507.525
2909.809	2514.525
2912.29319	2508.825
2914.77587	2508.625
2917.25702	2502.625
2919.73665	2511.725
2922.21476	2510.325
2924.69136	2508.725
2927.16644	2511.125
2929.64	2497.925
2932.11205	2495.225
2934.58258	2483.525
2937.05161	2501.125
2939.51912	2494.825
2941.98513	2484.025
2944.44962	2471.625
2946.91261	2468.925
2949.37409	2475.825
2951.83407	2476.225
2954.29254	2472.925
2956.74951	2478.125
2959.20498	2471.125
2961.65895	2471.025
2964.11142	2454.925
2966.56239	2464.325
2969.01186	2468.225
2971.45984	2462.625
2973.90632	2474.925
2976.35131	2443.325
2978.7948	2445.625
2981.23681	2442.225
2983.67732	2429.125
2986.11635	2433.225
2988.55388	2426.525
2990.98993	2419.225
2993.4245	2413.125
2995.85758	2416.525
2998.28917	2401.925
3000.71928	2401.025
3003.14791	2394.325
3005.57506	2389.725
3008.00073	2369.525
3010.42493	2368.925
3012.84764	2361.825
3015.26888	2361.425
3017.68865	2351.725
3020.10694	2347.225
3022.52376	2342.625
3024.9391	2351.425
3027.35298	2329.125
3029.76539	2325.325
3032.17632	2325.325
3034.5858	2330.525
3036.9938	2322.125
3039.40034	2323.225
3041.80542	2313.725
3044.20903	2309.425
3046.61118	2310.425
3049.01187	2289.725
3051.4111	2303.925
3053.80888	2286.425
3056.20519	2276.225
3058.60005	2273.125
3060.99345	2272.025
3063.3854	2276.525
3065.7759	2271.225
3068.16494	2260.925
3070.55254	2260.225
3072.93868	2245.325
3075.32338	2244.925
3077.70662	2235.025
3080.08842	2213.225
3082.46878	2222.625
3084.84769	2210.325
3087.22515	2207.325
3089.60118	2202.925
3091.97576	2198.925
3094.3489	2202.125
3096.72061	2200.725
3099.09087	2201.525
3101.4597	2207.825
3103.82709	2198.825
3106.19305	2184.025
3108.55757	2188.425
3110.92066	2187.325
3113.28232	2186.725
3115.64255	2168.625
3118.00134	2168.925
3120.35871	2162.725
3122.71466	2163.125
3125.06917	2168.325
3127.42226	2156.125
3129.77393	2138.325
3132.12417	2142.425
3134.47299	2145.125
3136.82039	2133.525
3139.16636	2140.125
3141.51092	2134.725
3143.85406	2136.925
3146.19579	2139.725
3148.53609	2149.425
3150.87499	2134.625
3153.21246	2137.325
3155.54853	2142.025
3157.88318	2126.325
3160.21642	2138.925
3162.54826	2123.725
3164.87868	2127.225
3167.2077	2132.425
3169.5353	2122.525
3171.86151	2117.225
3174.18631	2114.625
3176.5097	2118.425
3178.83169	2106.325
3181.15228	2096.925
3183.47147	2091.825
3185.78926	2096.525
3188.10565	2087.725
3190.42065	2080.825
3192.73424	2082.325
3195.04645	2076.725
3197.35725	2077.125
3199.66667	2069.525
3201.97469	2067.525
3204.28132	2062.025
3206.58656	2069.525
3208.8904	2070.525
3211.19287	2084.325
3213.49394	2084.225
3215.79363	2083.625
3218.09193	2071.025
3220.38884	2063.525
3222.68438	2071.525
3224.97853	2072.425
3227.2713	2069.525
3229.56269	2073.325
3231.8527	2065.225
3234.14133	2063.225
3236.42858	2061.325
3238.71446	2048.425
3240.99896	2047.225
3243.28209	2046.325
3245.56384	2045.125
3247.84423	2030.125
3250.12324	2029.025
3252.40088	2027.025
3254.67715	2033.125
3256.95205	2017.925
3259.22558	2020.525
3261.49775	2029.425
3263.76855	2023.825
3266.03799	2027.525
3268.30606	2027.525
3270.57277	2027.125
3272.83812	2020.925
3275.10211	2011.625
3277.36474	2004.825
3279.62601	2000.625
3281.88593	2001.525
3284.14448	1989.825
3286.40168	1989.825
3288.65753	1982.625
3290.91202	1990.625
3293.16516	1983.725
3295.41695	1972.525
3297.66738	1964.225
3299.91647	1956.225
3302.16421	1953.725
3304.4106	1945.325
3306.65564	1929.825
3308.89933	1905.425
3311.14169	1892.325
3313.38269	1879.225
3315.62236	1872.825
3317.86068	1858.225
3320.09766	1834.225
3322.3333	1817.125
3324.5676	1813.225
3326.80056	1785.225
3329.03219	1775.425
3331.26248	2.125
3333.49143	-1.575
3335.71905	-1.275
