Data from AgNPs_UA_50uM_CRN_500uM_SU_RamanShift__13__13-58-00-316.txt Node

Date: Thu Aug 04 13:58:00 BST 2022
User: TCL
Spectrometer: QEP01345
Trigger mode: 4
Integration Time (sec): 1.000000E0
Scans to average: 10
Electric dark correction enabled: true
Nonlinearity correction enabled: false
Boxcar width: 0
XAxis mode: Raman Shifts
Number of Pixels in Spectrum: 1044
>>>>>Begin Spectral Data<<<<<
46.04893	1.4875
50.45542	-1.5125
54.85868	0.2875
59.25871	-1.0125
63.6555	15.9875
68.04907	14.4875
72.43941	13.5875
76.82654	15.0875
81.21044	16.3875
85.59113	19.4875
89.96862	18.6875
94.34289	20.3875
98.71396	20.1875
103.08183	20.5875
107.4465	18.4875
111.80798	20.3875
116.16626	20.3875
120.52136	23.2875
124.87327	23.7875
129.222	25.4875
133.56755	27.5875
137.90993	29.6875
142.24913	30.9875
146.58517	38.3875
150.91804	46.5875
155.24774	54.1875
159.57429	70.4875
163.89768	89.7875
168.21792	119.1875
172.53501	167.4875
176.84895	233.2875
181.15975	332.1875
185.46741	473.1875
189.77193	649.9875
194.07331	871.3875
198.37157	1131.8875
202.6667	1400.8875
206.9587	1671.9875
211.24758	1967.1875
215.53334	2248.8875
219.81599	2558.2875
224.09553	2917.8875
228.37195	3303.7875
232.64527	3732.8875
236.91549	4132.4875
241.18261	4449.8875
245.44663	4691.9875
249.70755	4860.2875
253.96539	5004.5875
258.22014	5131.0875
262.4718	5244.3875
266.72039	5302.7875
270.96589	5318.8875
275.20832	5267.0875
279.44768	5167.5875
283.68397	5081.3875
287.91719	5032.9875
292.14735	5053.1875
296.37445	5200.9875
300.59849	5454.5875
304.81948	5761.7875
309.03742	6102.4875
313.25231	6309.7875
317.46415	6235.3875
321.67296	5909.9875
325.87872	5523.9875
330.08145	5319.6875
334.28114	5279.9875
338.47781	5351.0875
342.67145	5500.4875
346.86207	5700.2875
351.04966	5989.0875
355.23424	6285.3875
359.4158	6482.4875
363.59435	6528.0875
367.76989	6506.2875
371.94243	6421.0875
376.11196	6320.9875
380.27849	6254.4875
384.44203	6196.0875
388.60257	6179.7875
392.76012	6224.0875
396.91468	6299.7875
401.06626	6419.1875
405.21485	6440.9875
409.36047	6293.8875
413.50311	5970.8875
417.64277	5683.8875
421.77947	5514.1875
425.9132	5466.8875
430.04396	5480.1875
434.17176	5524.5875
438.2966	5571.1875
442.41849	5702.3875
446.53742	5816.7875
450.6534	5923.1875
454.76644	5984.4875
458.87653	5970.5875
462.98368	5929.0875
467.08789	5882.6875
471.18916	5763.9875
475.2875	5632.2875
479.38291	5486.5875
483.4754	5442.9875
487.56496	5374.9875
491.6516	5360.2875
495.73531	5342.0875
499.81612	5352.5875
503.89401	5401.4875
507.96899	5466.0875
512.04106	5526.3875
516.11023	5609.3875
520.1765	5676.5875
524.23987	5699.9875
528.30034	5684.8875
532.35792	5668.9875
536.41261	5610.7875
540.46441	5489.7875
544.51333	5445.6875
548.55936	5484.4875
552.60252	5597.5875
556.64279	5710.5875
560.6802	5782.0875
564.71473	5892.9875
568.7464	6075.5875
572.7752	6056.6875
576.80114	5823.4875
580.82422	5618.3875
584.84444	5520.7875
588.86181	5515.9875
592.87633	5532.9875
596.888	5652.0875
600.89682	5993.9875
604.9028	6900.2875
608.90594	8885.0875
612.90624	11037.5875
616.90371	10067.6875
620.89834	7173.9875
624.89015	5939.5875
628.87913	5775.8875
632.86528	5941.0875
636.84862	6048.4875
640.82913	5877.9875
644.80683	5597.1875
648.78172	5430.0875
652.75379	5451.2875
656.72306	5662.5875
660.68952	5891.2875
664.65319	5804.2875
668.61405	5570.1875
672.57211	5505.0875
676.52738	5491.0875
680.47986	5423.9875
684.42955	5335.6875
688.37646	5293.6875
692.32058	5323.1875
696.26192	5407.8875
700.20048	5507.8875
704.13626	5514.6875
708.06928	5494.1875
711.99952	5431.5875
715.927	5426.8875
719.85171	5463.4875
723.77365	5499.5875
727.69284	5449.0875
731.60928	5413.9875
735.52295	5380.5875
739.43388	5398.7875
743.34206	5427.8875
747.24749	5425.8875
751.15017	5431.8875
755.05012	5535.6875
758.94733	5876.2875
762.8418	6664.3875
766.73354	7830.8875
770.62254	8733.2875
774.50882	8804.0875
778.39237	8225.3875
782.27321	7312.3875
786.15132	6406.6875
790.02671	5819.5875
793.89938	5547.5875
797.76935	5417.1875
801.6366	5356.1875
805.50115	5326.3875
809.36299	5289.2875
813.22213	5273.0875
817.07857	5279.6875
820.93231	5266.6875
824.78336	5283.9875
828.63172	5325.4875
832.47738	5322.6875
836.32036	5312.4875
840.16066	5274.5875
843.99827	5251.1875
847.8332	5249.6875
851.66546	5258.0875
855.49504	5282.1875
859.32195	5281.6875
863.1462	5276.5875
866.96777	5254.5875
870.78668	5261.4875
874.60293	5285.6875
878.41652	5314.7875
882.22745	5347.0875
886.03573	5382.8875
889.84136	5380.0875
893.64433	5350.0875
897.44466	5340.2875
901.24235	5338.3875
905.0374	5316.1875
908.8298	5278.7875
912.61957	5259.3875
916.40671	5260.6875
920.19121	5289.6875
923.97308	5359.0875
927.75233	5427.6875
931.52895	5479.4875
935.30295	5395.7875
939.07433	5272.9875
942.84309	5166.3875
946.60924	5134.4875
950.37278	5101.6875
954.13371	5097.9875
957.89203	5112.4875
961.64774	5094.9875
965.40086	5070.9875
969.15137	5099.5875
972.89929	5055.2875
976.64461	5054.3875
980.38733	5072.8875
984.12747	5079.1875
987.86502	5097.0875
991.59999	5132.3875
995.33237	5194.2875
999.06217	5255.7875
1002.78939	5382.9875
1006.51404	5529.1875
1010.23611	5630.8875
1013.95561	5684.5875
1017.67255	5669.5875
1021.38692	5616.2875
1025.09872	5507.4875
1028.80796	5432.8875
1032.51465	5424.5875
1036.21877	5441.5875
1039.92035	5485.8875
1043.61937	5516.7875
1047.31584	5533.3875
1051.00976	5548.7875
1054.70114	5525.3875
1058.38998	5508.5875
1062.07627	5519.8875
1065.76003	5581.8875
1069.44126	5653.9875
1073.11995	5780.5875
1076.79611	5913.5875
1080.46974	6067.5875
1084.14085	6186.5875
1087.80943	6294.2875
1091.47549	6315.5875
1095.13903	6255.6875
1098.80005	6114.3875
1102.45857	6018.6875
1106.11456	5929.6875
1109.76805	5883.6875
1113.41903	5953.0875
1117.06751	6098.3875
1120.71348	6317.2875
1124.35696	6636.3875
1127.99793	6857.2875
1131.63641	6686.6875
1135.2724	6360.1875
1138.90589	6125.9875
1142.5369	6000.7875
1146.16542	5938.9875
1149.79145	5894.6875
1153.415	5809.1875
1157.03607	5752.4875
1160.65467	5807.8875
1164.27079	5976.9875
1167.88443	6188.1875
1171.49561	6570.8875
1175.10432	7148.6875
1178.71056	7958.4875
1182.31434	8642.2875
1185.91565	8825.2875
1189.51451	8624.8875
1193.11091	8328.8875
1196.70485	7995.4875
1200.29634	7794.2875
1203.88538	7520.4875
1207.47197	7187.8875
1211.05612	6856.2875
1214.63782	6603.9875
1218.21708	6409.0875
1221.79391	6262.4875
1225.36829	6212.4875
1228.94024	6162.9875
1232.50976	6148.1875
1236.07685	6162.6875
1239.6415	6161.1875
1243.20374	6190.6875
1246.76355	6245.4875
1250.32093	6347.3875
1253.8759	6493.7875
1257.42845	6725.5875
1260.97859	6956.9875
1264.52631	7165.5875
1268.07163	7310.3875
1271.61453	7381.5875
1275.15503	7413.6875
1278.69312	7429.3875
1282.22882	7457.8875
1285.76211	7624.1875
1289.29301	7824.4875
1292.82151	8044.1875
1296.34761	8236.0875
1299.87133	8601.6875
1303.39266	9231.0875
1306.9116	10192.3875
1310.42815	11218.8875
1313.94233	11498.8875
1317.45412	10876.5875
1320.96354	9970.2875
1324.47058	9083.9875
1327.97525	8390.9875
1331.47754	8004.6875
1334.97747	7904.9875
1338.47502	8045.3875
1341.97022	8382.0875
1345.46305	9026.8875
1348.95352	9890.0875
1352.44163	10902.7875
1355.92738	12065.3875
1359.41078	13605.4875
1362.89183	14833.3875
1366.37053	14159.0875
1369.84688	11721.5875
1373.32088	9491.3875
1376.79254	8279.8875
1380.26186	7694.6875
1383.72883	7375.2875
1387.19347	7059.7875
1390.65578	6797.2875
1394.11575	6566.4875
1397.57339	6417.5875
1401.0287	6298.3875
1404.48168	6252.8875
1407.93234	6269.0875
1411.38068	6338.9875
1414.82669	6427.2875
1418.27039	6478.5875
1421.71177	6452.1875
1425.15083	6380.8875
1428.58758	6340.5875
1432.02203	6400.4875
1435.45416	6468.3875
1438.88399	6516.6875
1442.31151	6511.5875
1445.73673	6560.8875
1449.15965	6616.0875
1452.58027	6566.9875
1455.9986	6505.6875
1459.41463	6474.0875
1462.82837	6507.8875
1466.23982	6678.0875
1469.64898	6851.2875
1473.05586	6948.8875
1476.46045	7004.1875
1479.86276	7075.0875
1483.26279	7200.4875
1486.66054	7402.9875
1490.05602	7692.5875
1493.44922	8142.9875
1496.84016	8888.2875
1500.22882	10026.3875
1503.61521	11513.8875
1506.99934	13062.9875
1510.38121	14017.1875
1513.76081	13831.0875
1517.13816	12507.6875
1520.51324	10764.0875
1523.88607	9319.9875
1527.25665	8443.4875
1530.62498	8013.0875
1533.99105	7810.8875
1537.35488	7678.9875
1540.71647	7564.7875
1544.07581	7498.6875
1547.4329	7417.8875
1550.78776	7331.0875
1554.14038	7257.4875
1557.49077	7256.5875
1560.83892	7375.7875
1564.18484	7622.8875
1567.52853	7950.1875
1570.86999	8201.5875
1574.20922	8260.6875
1577.54624	8099.3875
1580.88103	7614.3875
1584.2136	7085.5875
1587.54395	6742.0875
1590.87208	6715.4875
1594.19801	6941.7875
1597.52172	7270.9875
1600.84321	7425.1875
1604.16251	7349.4875
1607.47959	7171.9875
1610.79447	6915.0875
1614.10715	6568.3875
1617.41763	6210.3875
1620.7259	5962.7875
1624.03199	5815.1875
1627.33587	5775.2875
1630.63757	5861.2875
1633.93707	6108.8875
1637.23439	6517.0875
1640.52951	7196.4875
1643.82246	8194.3875
1647.11321	9310.4875
1650.40179	9945.1875
1653.68819	9569.9875
1656.97241	8301.5875
1660.25446	6999.3875
1663.53433	6094.7875
1666.81203	5576.9875
1670.08756	5247.8875
1673.36092	5070.7875
1676.63211	4956.3875
1679.90115	4868.1875
1683.16801	4810.8875
1686.43272	4739.4875
1689.69527	4713.6875
1692.95567	4677.7875
1696.2139	4682.7875
1699.46999	4633.5875
1702.72392	4647.7875
1705.97571	4654.5875
1709.22535	4645.3875
1712.47284	4647.2875
1715.71819	4659.9875
1718.96139	4629.3875
1722.20246	4605.5875
1725.44139	4595.6875
1728.67818	4579.8875
1731.91284	4525.5875
1735.14537	4521.2875
1738.37576	4497.5875
1741.60403	4475.0875
1744.83017	4454.1875
1748.05418	4443.8875
1751.27607	4432.6875
1754.49584	4425.6875
1757.71349	4422.8875
1760.92903	4413.6875
1764.14244	4395.7875
1767.35375	4390.1875
1770.56294	4390.3875
1773.77002	4375.5875
1776.97499	4368.9875
1780.17785	4320.1875
1783.37861	4311.4875
1786.57727	4306.3875
1789.77382	4299.0875
1792.96828	4309.8875
1796.16064	4286.6875
1799.3509	4277.9875
1802.53907	4273.8875
1805.72514	4265.6875
1808.90913	4252.8875
1812.09102	4231.6875
1815.27083	4228.5875
1818.44856	4213.4875
1821.6242	4211.4875
1824.79776	4196.2875
1827.96924	4179.7875
1831.13864	4158.3875
1834.30597	4153.1875
1837.47122	4141.3875
1840.6344	4145.4875
1843.7955	4150.0875
1846.95454	4148.4875
1850.11151	4155.5875
1853.26642	4164.5875
1856.41926	4136.7875
1859.57004	4143.4875
1862.71876	4141.9875
1865.86542	4123.3875
1869.01003	4126.3875
1872.15258	4119.4875
1875.29308	4128.2875
1878.43152	4122.1875
1881.56792	4098.7875
1884.70227	4106.2875
1887.83457	4099.7875
1890.96482	4094.4875
1894.09304	4071.0875
1897.21921	4074.5875
1900.34335	4067.7875
1903.46544	4048.7875
1906.58551	4055.8875
1909.70353	4031.3875
1912.81953	4031.9875
1915.93349	4029.5875
1919.04543	4037.9875
1922.15534	4013.8875
1925.26322	4021.9875
1928.36908	4029.3875
1931.47292	3990.3875
1934.57473	3980.6875
1937.67453	3974.5875
1940.77232	3949.6875
1943.86808	3941.0875
1946.96184	3924.7875
1950.05358	3928.7875
1953.14331	3922.9875
1956.23103	3900.6875
1959.31675	3885.4875
1962.40046	3883.2875
1965.48217	3869.2875
1968.56188	3872.9875
1971.63959	3851.5875
1974.7153	3851.3875
1977.78901	3841.4875
1980.86073	3832.0875
1983.93046	3814.9875
1986.99819	3798.0875
1990.06394	3782.2875
1993.1277	3774.9875
1996.18947	3759.7875
1999.24925	3761.5875
2002.30706	3723.0875
2005.36288	3703.4875
2008.41672	3698.1875
2011.46859	3699.4875
2014.51848	3685.7875
2017.56639	3661.3875
2020.61233	3671.2875
2023.6563	3642.2875
2026.6983	3638.3875
2029.73833	3610.0875
2032.7764	3612.6875
2035.8125	3600.6875
2038.84664	3579.3875
2041.87881	3597.3875
2044.90903	3582.9875
2047.93729	3565.1875
2050.96359	3576.1875
2053.98794	3558.2875
2057.01034	3569.2875
2060.03078	3562.5875
2063.04927	3561.8875
2066.06582	3546.8875
2069.08042	3544.3875
2072.09307	3527.5875
2075.10378	3538.5875
2078.11255	3528.7875
2081.11938	3534.1875
2084.12426	3517.3875
2087.12722	3549.3875
2090.12824	3533.7875
2093.12732	3535.1875
2096.12447	3527.3875
2099.11969	3542.8875
2102.11299	3545.3875
2105.10435	3539.2875
2108.09379	3540.7875
2111.08131	3535.6875
2114.0669	3543.7875
2117.05057	3540.5875
2120.03233	3549.2875
2123.01216	3530.8875
2125.99008	3542.4875
2128.96609	3561.6875
2131.94018	3534.7875
2134.91236	3540.2875
2137.88263	3547.2875
2140.851	3561.5875
2143.81746	3541.5875
2146.78201	3551.0875
2149.74466	3545.8875
2152.7054	3541.6875
2155.66425	3546.5875
2158.6212	3543.9875
2161.57625	3527.9875
2164.52941	3512.8875
2167.48067	3539.2875
2170.43004	3528.9875
2173.37752	3522.0875
2176.32311	3525.0875
2179.26681	3534.8875
2182.20863	3533.9875
2185.14856	3541.3875
2188.08661	3531.2875
2191.02278	3522.3875
2193.95707	3515.3875
2196.88948	3515.3875
2199.82001	3509.0875
2202.74867	3495.5875
2205.67545	3503.3875
2208.60037	3498.5875
2211.52341	3506.6875
2214.44458	3501.2875
2217.36388	3493.0875
2220.28132	3480.4875
2223.1969	3468.2875
2226.11061	3458.7875
2229.02246	3452.4875
2231.93245	3435.8875
2234.84058	3439.7875
2237.74686	3434.7875
2240.65128	3429.8875
2243.55385	3426.6875
2246.45456	3421.2875
2249.35343	3418.9875
2252.25044	3411.4875
2255.14561	3423.1875
2258.03893	3401.8875
2260.93041	3398.4875
2263.82004	3402.8875
2266.70783	3396.9875
2269.59378	3393.6875
2272.4779	3374.8875
2275.36017	3370.0875
2278.24061	3351.4875
2281.11922	3350.3875
2283.996	3350.8875
2286.87094	3340.4875
2289.74405	3321.3875
2292.61534	3337.5875
2295.4848	3329.7875
2298.35243	3335.5875
2301.21824	3306.1875
2304.08223	3314.4875
2306.94439	3305.1875
2309.80474	3322.2875
2312.66327	3312.7875
2315.51999	3306.6875
2318.37489	3307.0875
2321.22797	3297.8875
2324.07925	3289.1875
2326.92871	3287.8875
2329.77637	3275.1875
2332.62222	3274.5875
2335.46626	3262.2875
2338.3085	3267.9875
2341.14893	3260.2875
2343.98756	3265.3875
2346.8244	3254.2875
2349.65943	3264.8875
2352.49267	3255.2875
2355.32411	3256.9875
2358.15376	3254.7875
2360.98161	3260.9875
2363.80768	3276.0875
2366.63195	3263.7875
2369.45444	3261.5875
2372.27514	3271.3875
2375.09405	3248.1875
2377.91118	3247.4875
2380.72652	3247.0875
2383.54009	3225.4875
2386.35187	3231.6875
2389.16188	3199.2875
2391.97011	3205.9875
2394.77657	3187.8875
2397.58125	3177.2875
2400.38416	3172.4875
2403.18529	3185.3875
2405.98466	3161.5875
2408.78226	3139.7875
2411.57809	3165.2875
2414.37216	3149.6875
2417.16446	3158.4875
2419.955	3144.4875
2422.74378	3154.5875
2425.5308	3156.5875
2428.31606	3150.2875
2431.09956	3149.8875
2433.88131	3129.3875
2436.6613	3139.0875
2439.43954	3127.9875
2442.21603	3131.0875
2444.99077	3138.7875
2447.76377	3131.2875
2450.53501	3124.9875
2453.30451	3126.9875
2456.07226	3128.0875
2458.83827	3120.9875
2461.60254	3126.7875
2464.36507	3133.8875
2467.12586	3123.8875
2469.88492	3110.0875
2472.64224	3112.8875
2475.39782	3104.7875
2478.15167	3107.0875
2480.90379	3117.6875
2483.65417	3126.4875
2486.40283	3132.6875
2489.14976	3135.9875
2491.89497	3126.4875
2494.63845	3122.4875
2497.3802	3116.5875
2500.12024	3102.8875
2502.85855	3105.2875
2505.59514	3104.2875
2508.33002	3094.4875
2511.06318	3087.1875
2513.79462	3079.6875
2516.52435	3057.5875
2519.25237	3050.6875
2521.97867	3046.2875
2524.70327	3050.2875
2527.42616	3031.0875
2530.14734	3041.3875
2532.86681	3038.3875
2535.58458	3037.6875
2538.30065	3046.9875
2541.01501	3032.4875
2543.72768	3022.7875
2546.43864	3031.2875
2549.14791	3008.6875
2551.85548	3024.2875
2554.56136	3036.0875
2557.26554	3019.4875
2559.96803	3011.8875
2562.66883	3002.1875
2565.36794	3010.2875
2568.06536	3001.6875
2570.7611	2977.8875
2573.45514	2982.2875
2576.14751	2966.7875
2578.83819	2956.8875
2581.52719	2952.0875
2584.21451	2959.0875
2586.90015	2955.6875
2589.58411	2960.4875
2592.2664	2945.3875
2594.94701	2934.6875
2597.62594	2933.8875
2600.30321	2938.9875
2602.9788	2919.9875
2605.65273	2918.8875
2608.32498	2925.7875
2610.99557	2920.3875
2613.66449	2928.4875
2616.33175	2909.4875
2618.99734	2913.6875
2621.66128	2907.1875
2624.32355	2907.8875
2626.98416	2906.2875
2629.64311	2887.8875
2632.30041	2879.3875
2634.95605	2878.9875
2637.61004	2868.3875
2640.26238	2855.3875
2642.91306	2867.8875
2645.56209	2860.2875
2648.20948	2861.8875
2650.85521	2853.1875
2653.4993	2855.5875
2656.14175	2856.0875
2658.78255	2858.1875
2661.42171	2857.8875
2664.05923	2867.9875
2666.6951	2877.3875
2669.32934	2861.0875
2671.96194	2853.9875
2674.59291	2858.3875
2677.22224	2843.4875
2679.84993	2874.8875
2682.476	2846.4875
2685.10043	2861.1875
2687.72324	2860.3875
2690.34441	2858.0875
2692.96396	2850.2875
2695.58188	2847.1875
2698.19818	2851.5875
2700.81285	2855.0875
2703.4259	2859.7875
2706.03733	2856.5875
2708.64714	2847.8875
2711.25533	2844.2875
2713.86191	2836.9875
2716.46687	2846.2875
2719.07021	2845.1875
2721.67194	2838.0875
2724.27206	2842.7875
2726.87057	2840.3875
2729.46747	2846.3875
2732.06276	2825.8875
2734.65644	2838.7875
2737.24852	2834.8875
2739.83899	2844.0875
2742.42786	2837.8875
2745.01513	2813.2875
2747.60079	2834.4875
2750.18486	2829.5875
2752.76733	2823.4875
2755.3482	2809.3875
2757.92747	2808.2875
2760.50515	2789.2875
2763.08123	2802.6875
2765.65573	2787.0875
2768.22863	2772.1875
2770.79994	2763.2875
2773.36967	2765.3875
2775.9378	2764.8875
2778.50435	2773.1875
2781.06932	2759.1875
2783.6327	2759.4875
2786.1945	2758.3875
2788.75471	2757.4875
2791.31335	2747.6875
2793.87041	2759.9875
2796.42589	2742.1875
2798.97979	2748.6875
2801.53212	2734.7875
2804.08288	2743.6875
2806.63206	2733.7875
2809.17967	2726.7875
2811.72571	2711.7875
2814.27018	2723.9875
2816.81308	2716.8875
2819.35442	2711.4875
2821.89419	2700.0875
2824.43239	2694.2875
2826.96904	2692.8875
2829.50412	2685.2875
2832.03763	2684.3875
2834.56959	2678.0875
2837.1	2679.0875
2839.62884	2668.7875
2842.15613	2653.1875
2844.68186	2659.6875
2847.20604	2647.6875
2849.72867	2659.6875
2852.24974	2652.4875
2854.76927	2650.6875
2857.28724	2641.9875
2859.80367	2655.1875
2862.31855	2645.6875
2864.83189	2651.7875
2867.34368	2648.2875
2869.85393	2641.7875
2872.36264	2645.6875
2874.8698	2638.3875
2877.37543	2645.2875
2879.87952	2637.6875
2882.38207	2622.9875
2884.88308	2617.0875
2887.38256	2623.4875
2889.88051	2610.6875
2892.37692	2609.1875
2894.8718	2605.5875
2897.36515	2609.0875
2899.85698	2596.9875
2902.34727	2595.8875
2904.83604	2604.2875
2907.32328	2619.8875
2909.809	2628.4875
2912.29319	2620.2875
2914.77587	2618.8875
2917.25702	2634.6875
2919.73665	2625.4875
2922.21476	2623.7875
2924.69136	2608.7875
2927.16644	2611.7875
2929.64	2607.3875
2932.11205	2607.0875
2934.58258	2592.2875
2937.05161	2604.1875
2939.51912	2581.8875
2941.98513	2584.9875
2944.44962	2566.1875
2946.91261	2570.0875
2949.37409	2588.4875
2951.83407	2588.4875
2954.29254	2586.2875
2956.74951	2573.9875
2959.20498	2568.7875
2961.65895	2564.1875
2964.11142	2559.0875
2966.56239	2549.6875
2969.01186	2553.3875
2971.45984	2551.2875
2973.90632	2558.0875
2976.35131	2543.4875
2978.7948	2540.7875
2981.23681	2542.7875
2983.67732	2531.2875
2986.11635	2538.3875
2988.55388	2524.9875
2990.98993	2527.7875
2993.4245	2513.5875
2995.85758	2505.3875
2998.28917	2515.8875
3000.71928	2495.0875
3003.14791	2498.3875
3005.57506	2486.0875
3008.00073	2493.9875
3010.42493	2473.7875
3012.84764	2480.3875
3015.26888	2474.2875
3017.68865	2464.5875
3020.10694	2456.9875
3022.52376	2448.3875
3024.9391	2441.4875
3027.35298	2442.2875
3029.76539	2435.2875
3032.17632	2429.6875
3034.5858	2418.1875
3036.9938	2404.1875
3039.40034	2412.7875
3041.80542	2404.2875
3044.20903	2393.5875
3046.61118	2403.2875
3049.01187	2395.0875
3051.4111	2394.6875
3053.80888	2383.3875
3056.20519	2380.8875
3058.60005	2374.7875
3060.99345	2374.2875
3063.3854	2362.3875
3065.7759	2365.0875
3068.16494	2366.1875
3070.55254	2351.6875
3072.93868	2334.9875
3075.32338	2329.1875
3077.70662	2321.9875
3080.08842	2325.3875
3082.46878	2331.7875
3084.84769	2313.5875
3087.22515	2306.3875
3089.60118	2312.8875
3091.97576	2295.2875
3094.3489	2310.5875
3096.72061	2305.6875
3099.09087	2298.3875
3101.4597	2302.1875
3103.82709	2310.4875
3106.19305	2298.3875
3108.55757	2291.6875
3110.92066	2289.5875
3113.28232	2291.5875
3115.64255	2276.6875
3118.00134	2276.4875
3120.35871	2263.6875
3122.71466	2265.6875
3125.06917	2253.5875
3127.42226	2258.0875
3129.77393	2249.7875
3132.12417	2248.2875
3134.47299	2256.2875
3136.82039	2239.9875
3139.16636	2250.6875
3141.51092	2240.5875
3143.85406	2233.8875
3146.19579	2230.3875
3148.53609	2230.9875
3150.87499	2237.0875
3153.21246	2244.4875
3155.54853	2240.0875
3157.88318	2241.1875
3160.21642	2251.1875
3162.54826	2228.7875
3164.87868	2237.1875
3167.2077	2224.2875
3169.5353	2218.9875
3171.86151	2220.0875
3174.18631	2216.9875
3176.5097	2220.6875
3178.83169	2215.6875
3181.15228	2195.4875
3183.47147	2210.7875
3185.78926	2206.5875
3188.10565	2186.4875
3190.42065	2193.0875
3192.73424	2192.4875
3195.04645	2188.1875
3197.35725	2178.7875
3199.66667	2183.8875
3201.97469	2186.2875
3204.28132	2180.9875
3206.58656	2187.5875
3208.8904	2178.8875
3211.19287	2189.0875
3213.49394	2185.5875
3215.79363	2172.6875
3218.09193	2185.7875
3220.38884	2182.4875
3222.68438	2178.4875
3224.97853	2170.9875
3227.2713	2174.9875
3229.56269	2172.6875
3231.8527	2162.1875
3234.14133	2157.5875
3236.42858	2151.3875
3238.71446	2145.5875
3240.99896	2135.5875
3243.28209	2137.4875
3245.56384	2141.1875
3247.84423	2125.3875
3250.12324	2135.2875
3252.40088	2128.5875
3254.67715	2121.1875
3256.95205	2128.6875
3259.22558	2125.5875
3261.49775	2119.3875
3263.76855	2123.6875
3266.03799	2120.3875
3268.30606	2112.2875
3270.57277	2115.4875
3272.83812	2101.2875
3275.10211	2093.9875
3277.36474	2098.9875
3279.62601	2095.4875
3281.88593	2089.0875
3284.14448	2085.7875
3286.40168	2089.2875
3288.65753	2102.7875
3290.91202	2090.5875
3293.16516	2077.2875
3295.41695	2077.3875
3297.66738	2072.4875
3299.91647	2056.1875
3302.16421	2041.7875
3304.4106	2038.3875
3306.65564	2009.6875
3308.89933	2004.1875
3311.14169	1990.6875
3313.38269	1970.3875
3315.62236	1956.0875
3317.86068	1946.6875
3320.09766	1924.3875
3322.3333	1921.6875
3324.5676	1910.5875
3326.80056	1877.9875
3329.03219	1867.2875
3331.26248	0.1875
3333.49143	0.0875
3335.71905	0.2875
