Data from AgNPs_UA_20uM_CRN_500uM_SU_RamanShift__47__13-44-20-300.txt Node

Date: Thu Aug 04 13:44:20 BST 2022
User: TCL
Spectrometer: QEP01345
Trigger mode: 4
Integration Time (sec): 1.000000E0
Scans to average: 10
Electric dark correction enabled: true
Nonlinearity correction enabled: false
Boxcar width: 0
XAxis mode: Raman Shifts
Number of Pixels in Spectrum: 1044
>>>>>Begin Spectral Data<<<<<
46.04893	-1.4125
50.45542	-0.8125
54.85868	0.8875
59.25871	-0.3125
63.6555	19.5875
68.04907	16.5875
72.43941	20.7875
76.82654	18.8875
81.21044	19.0875
85.59113	21.6875
89.96862	22.4875
94.34289	24.5875
98.71396	23.1875
103.08183	26.1875
107.4465	23.5875
111.80798	25.9875
116.16626	28.8875
120.52136	29.3875
124.87327	27.3875
129.222	32.1875
133.56755	34.2875
137.90993	34.8875
142.24913	42.4875
146.58517	45.0875
150.91804	56.6875
155.24774	64.1875
159.57429	83.8875
163.89768	109.3875
168.21792	146.7875
172.53501	203.0875
176.84895	279.9875
181.15975	402.0875
185.46741	567.0875
189.77193	779.4875
194.07331	1052.0875
198.37157	1363.9875
202.6667	1690.0875
206.9587	2015.6875
211.24758	2331.3875
215.53334	2643.3875
219.81599	2996.4875
224.09553	3380.0875
228.37195	3816.4875
232.64527	4282.9875
236.91549	4734.9875
241.18261	5158.2875
245.44663	5508.4875
249.70755	5809.8875
253.96539	6067.0875
258.22014	6275.4875
262.4718	6460.7875
266.72039	6581.8875
270.96589	6651.2875
275.20832	6628.1875
279.44768	6541.6875
283.68397	6417.7875
287.91719	6339.2875
292.14735	6346.8875
296.37445	6433.3875
300.59849	6581.3875
304.81948	6815.7875
309.03742	6987.7875
313.25231	7089.5875
317.46415	7010.9875
321.67296	6777.1875
325.87872	6538.9875
330.08145	6434.1875
334.28114	6411.7875
338.47781	6511.4875
342.67145	6648.3875
346.86207	6814.6875
351.04966	7042.4875
355.23424	7305.9875
359.4158	7495.5875
363.59435	7601.9875
367.76989	7657.8875
371.94243	7674.7875
376.11196	7655.8875
380.27849	7669.8875
384.44203	7648.1875
388.60257	7707.6875
392.76012	7759.2875
396.91468	7878.2875
401.06626	7983.6875
405.21485	8031.7875
409.36047	7950.9875
413.50311	7712.2875
417.64277	7518.9875
421.77947	7389.1875
425.9132	7331.5875
430.04396	7334.8875
434.17176	7357.3875
438.2966	7469.2875
442.41849	7597.4875
446.53742	7800.9875
450.6534	7980.9875
454.76644	8074.9875
458.87653	8103.4875
462.98368	8078.7875
467.08789	8032.5875
471.18916	7908.1875
475.2875	7736.9875
479.38291	7581.4875
483.4754	7515.6875
487.56496	7463.6875
491.6516	7426.2875
495.73531	7386.6875
499.81612	7409.2875
503.89401	7460.3875
507.96899	7515.7875
512.04106	7571.5875
516.11023	7609.0875
520.1765	7667.3875
524.23987	7682.0875
528.30034	7648.7875
532.35792	7619.7875
536.41261	7577.8875
540.46441	7489.8875
544.51333	7478.6875
548.55936	7523.5875
552.60252	7610.0875
556.64279	7738.1875
560.6802	7821.1875
564.71473	7908.6875
568.7464	7998.0875
572.7752	7958.6875
576.80114	7788.6875
580.82422	7661.6875
584.84444	7618.1875
588.86181	7662.7875
592.87633	7747.9875
596.888	7891.7875
600.89682	8227.1875
604.9028	9095.8875
608.90594	10883.2875
612.90624	12576.0875
616.90371	11611.4875
620.89834	9170.1875
624.89015	8271.0875
628.87913	8203.0875
632.86528	8277.9875
636.84862	8268.0875
640.82913	8063.1875
644.80683	7786.1875
648.78172	7611.3875
652.75379	7646.4875
656.72306	7884.1875
660.68952	8124.7875
664.65319	8071.8875
668.61405	7961.4875
672.57211	8004.2875
676.52738	7981.1875
680.47986	7834.3875
684.42955	7697.0875
688.37646	7684.0875
692.32058	7752.2875
696.26192	7879.8875
700.20048	8036.6875
704.13626	8063.4875
708.06928	7966.8875
711.99952	7879.4875
715.927	7892.7875
719.85171	7936.4875
723.77365	7919.5875
727.69284	7858.6875
731.60928	7798.3875
735.52295	7797.1875
739.43388	7817.3875
743.34206	7873.1875
747.24749	7873.3875
751.15017	7913.6875
755.05012	7997.7875
758.94733	8247.4875
762.8418	8869.4875
766.73354	9817.4875
770.62254	10583.3875
774.50882	10745.6875
778.39237	10387.9875
782.27321	9678.3875
786.15132	8887.5875
790.02671	8376.8875
793.89938	8077.6875
797.76935	7988.0875
801.6366	7911.9875
805.50115	7871.5875
809.36299	7846.9875
813.22213	7814.2875
817.07857	7834.3875
820.93231	7824.4875
824.78336	7851.7875
828.63172	7865.6875
832.47738	7871.9875
836.32036	7879.3875
840.16066	7866.4875
843.99827	7862.3875
847.8332	7861.4875
851.66546	7871.8875
855.49504	7869.3875
859.32195	7910.7875
863.1462	7879.1875
866.96777	7867.3875
870.78668	7866.6875
874.60293	7870.9875
878.41652	7911.2875
882.22745	7958.6875
886.03573	8001.3875
889.84136	7987.8875
893.64433	7966.6875
897.44466	7932.7875
901.24235	7917.7875
905.0374	7899.9875
908.8298	7872.0875
912.61957	7844.1875
916.40671	7869.6875
920.19121	7903.5875
923.97308	7982.1875
927.75233	8076.3875
931.52895	8121.0875
935.30295	8091.2875
939.07433	7953.7875
942.84309	7849.4875
946.60924	7799.5875
950.37278	7789.5875
954.13371	7761.8875
957.89203	7735.9875
961.64774	7765.5875
965.40086	7712.3875
969.15137	7731.4875
972.89929	7697.4875
976.64461	7714.5875
980.38733	7725.4875
984.12747	7736.5875
987.86502	7796.3875
991.59999	7873.6875
995.33237	7959.4875
999.06217	8109.2875
1002.78939	8267.2875
1006.51404	8388.6875
1010.23611	8503.7875
1013.95561	8569.4875
1017.67255	8622.3875
1021.38692	8612.1875
1025.09872	8568.3875
1028.80796	8589.4875
1032.51465	8679.6875
1036.21877	8757.4875
1039.92035	8776.1875
1043.61937	8706.2875
1047.31584	8611.2875
1051.00976	8531.5875
1054.70114	8490.0875
1058.38998	8512.7875
1062.07627	8521.5875
1065.76003	8579.7875
1069.44126	8655.3875
1073.11995	8797.0875
1076.79611	8902.6875
1080.46974	9016.6875
1084.14085	9126.7875
1087.80943	9191.0875
1091.47549	9220.3875
1095.13903	9191.7875
1098.80005	9119.3875
1102.45857	9081.3875
1106.11456	9041.4875
1109.76805	8994.2875
1113.41903	9017.8875
1117.06751	9119.4875
1120.71348	9278.9875
1124.35696	9456.5875
1127.99793	9546.8875
1131.63641	9435.2875
1135.2724	9177.5875
1138.90589	8996.9875
1142.5369	8830.3875
1146.16542	8743.4875
1149.79145	8683.0875
1153.415	8609.2875
1157.03607	8608.5875
1160.65467	8698.8875
1164.27079	8845.0875
1167.88443	9134.2875
1171.49561	9517.2875
1175.10432	10136.1875
1178.71056	10970.0875
1182.31434	11693.9875
1185.91565	12030.1875
1189.51451	11926.5875
1193.11091	11685.7875
1196.70485	11306.7875
1200.29634	10963.6875
1203.88538	10610.7875
1207.47197	10209.0875
1211.05612	9840.2875
1214.63782	9554.1875
1218.21708	9397.0875
1221.79391	9337.5875
1225.36829	9338.3875
1228.94024	9312.0875
1232.50976	9255.8875
1236.07685	9250.5875
1239.6415	9267.4875
1243.20374	9312.0875
1246.76355	9365.3875
1250.32093	9501.1875
1253.8759	9665.4875
1257.42845	9891.7875
1260.97859	10172.2875
1264.52631	10424.9875
1268.07163	10584.1875
1271.61453	10742.4875
1275.15503	10815.0875
1278.69312	10892.7875
1282.22882	10995.0875
1285.76211	11071.7875
1289.29301	11267.1875
1292.82151	11444.3875
1296.34761	11687.8875
1299.87133	12098.3875
1303.39266	12758.3875
1306.9116	13705.2875
1310.42815	14665.9875
1313.94233	15049.1875
1317.45412	14637.9875
1320.96354	13845.2875
1324.47058	13064.5875
1327.97525	12394.8875
1331.47754	12003.1875
1334.97747	11960.6875
1338.47502	12176.7875
1341.97022	12569.6875
1345.46305	13166.0875
1348.95352	13925.4875
1352.44163	14713.5875
1355.92738	15661.2875
1359.41078	16766.6875
1362.89183	17562.2875
1366.37053	16752.0875
1369.84688	14632.8875
1373.32088	12698.5875
1376.79254	11565.8875
1380.26186	11045.6875
1383.72883	10737.9875
1387.19347	10463.4875
1390.65578	10168.7875
1394.11575	9879.2875
1397.57339	9709.6875
1401.0287	9655.7875
1404.48168	9642.8875
1407.93234	9733.8875
1411.38068	9862.3875
1414.82669	10023.2875
1418.27039	10044.7875
1421.71177	10003.4875
1425.15083	9955.8875
1428.58758	9911.8875
1432.02203	10007.8875
1435.45416	10093.1875
1438.88399	10115.0875
1442.31151	10048.2875
1445.73673	10020.9875
1449.15965	9993.3875
1452.58027	9917.3875
1455.9986	9833.0875
1459.41463	9814.9875
1462.82837	9924.1875
1466.23982	10038.0875
1469.64898	10177.5875
1473.05586	10363.8875
1476.46045	10490.6875
1479.86276	10586.6875
1483.26279	10714.6875
1486.66054	10897.3875
1490.05602	11170.4875
1493.44922	11623.9875
1496.84016	12294.4875
1500.22882	13252.3875
1503.61521	14403.1875
1506.99934	15514.3875
1510.38121	16087.9875
1513.76081	15830.2875
1517.13816	14756.4875
1520.51324	13380.4875
1523.88607	12252.7875
1527.25665	11552.6875
1530.62498	11172.7875
1533.99105	10956.3875
1537.35488	10873.3875
1540.71647	10768.3875
1544.07581	10691.5875
1547.4329	10569.3875
1550.78776	10488.1875
1554.14038	10406.1875
1557.49077	10407.6875
1560.83892	10469.4875
1564.18484	10666.5875
1567.52853	10883.5875
1570.86999	11038.5875
1574.20922	11055.8875
1577.54624	10890.9875
1580.88103	10509.9875
1584.2136	10089.3875
1587.54395	9936.1875
1590.87208	10072.8875
1594.19801	10543.2875
1597.52172	11072.7875
1600.84321	11370.3875
1604.16251	11267.0875
1607.47959	10929.9875
1610.79447	10469.1875
1614.10715	9906.6875
1617.41763	9397.0875
1620.7259	9026.9875
1624.03199	8843.2875
1627.33587	8837.7875
1630.63757	8980.9875
1633.93707	9317.2875
1637.23439	9924.3875
1640.52951	10739.3875
1643.82246	11799.1875
1647.11321	12737.8875
1650.40179	13001.6875
1653.68819	12286.2875
1656.97241	10931.4875
1660.25446	9614.6875
1663.53433	8777.6875
1666.81203	8287.6875
1670.08756	7977.7875
1673.36092	7809.8875
1676.63211	7682.2875
1679.90115	7600.2875
1683.16801	7507.9875
1686.43272	7441.6875
1689.69527	7419.5875
1692.95567	7400.8875
1696.2139	7374.9875
1699.46999	7342.5875
1702.72392	7335.1875
1705.97571	7345.8875
1709.22535	7342.9875
1712.47284	7319.8875
1715.71819	7315.4875
1718.96139	7312.5875
1722.20246	7298.2875
1725.44139	7278.3875
1728.67818	7230.9875
1731.91284	7200.7875
1735.14537	7154.9875
1738.37576	7126.4875
1741.60403	7103.8875
1744.83017	7094.6875
1748.05418	7104.9875
1751.27607	7092.8875
1754.49584	7042.9875
1757.71349	7027.9875
1760.92903	7013.6875
1764.14244	7024.9875
1767.35375	7010.0875
1770.56294	6994.7875
1773.77002	6998.8875
1776.97499	6988.7875
1780.17785	6946.1875
1783.37861	6927.3875
1786.57727	6938.2875
1789.77382	6920.8875
1792.96828	6894.0875
1796.16064	6883.9875
1799.3509	6862.0875
1802.53907	6860.4875
1805.72514	6877.3875
1808.90913	6846.5875
1812.09102	6845.4875
1815.27083	6825.2875
1818.44856	6788.0875
1821.6242	6776.7875
1824.79776	6772.2875
1827.96924	6765.4875
1831.13864	6766.1875
1834.30597	6737.7875
1837.47122	6742.2875
1840.6344	6710.6875
1843.7955	6721.0875
1846.95454	6700.3875
1850.11151	6722.9875
1853.26642	6700.9875
1856.41926	6697.0875
1859.57004	6698.9875
1862.71876	6679.5875
1865.86542	6682.8875
1869.01003	6663.9875
1872.15258	6641.2875
1875.29308	6647.3875
1878.43152	6647.6875
1881.56792	6655.2875
1884.70227	6621.4875
1887.83457	6628.9875
1890.96482	6639.0875
1894.09304	6616.6875
1897.21921	6566.6875
1900.34335	6561.7875
1903.46544	6565.9875
1906.58551	6576.1875
1909.70353	6583.8875
1912.81953	6551.1875
1915.93349	6551.3875
1919.04543	6523.0875
1922.15534	6528.2875
1925.26322	6523.1875
1928.36908	6496.3875
1931.47292	6480.4875
1934.57473	6483.3875
1937.67453	6468.9875
1940.77232	6466.8875
1943.86808	6443.1875
1946.96184	6404.7875
1950.05358	6396.1875
1953.14331	6377.2875
1956.23103	6360.2875
1959.31675	6307.7875
1962.40046	6320.0875
1965.48217	6284.1875
1968.56188	6269.8875
1971.63959	6260.9875
1974.7153	6243.7875
1977.78901	6219.0875
1980.86073	6207.4875
1983.93046	6195.6875
1986.99819	6170.2875
1990.06394	6150.6875
1993.1277	6112.8875
1996.18947	6128.9875
1999.24925	6104.9875
2002.30706	6065.1875
2005.36288	6043.7875
2008.41672	6007.0875
2011.46859	6029.8875
2014.51848	5993.1875
2017.56639	5985.2875
2020.61233	5948.2875
2023.6563	5935.6875
2026.6983	5926.9875
2029.73833	5921.4875
2032.7764	5907.1875
2035.8125	5881.5875
2038.84664	5870.6875
2041.87881	5874.2875
2044.90903	5841.5875
2047.93729	5840.4875
2050.96359	5865.4875
2053.98794	5850.2875
2057.01034	5814.3875
2060.03078	5818.8875
2063.04927	5783.2875
2066.06582	5796.5875
2069.08042	5790.2875
2072.09307	5797.6875
2075.10378	5783.5875
2078.11255	5785.6875
2081.11938	5773.0875
2084.12426	5751.1875
2087.12722	5744.9875
2090.12824	5750.9875
2093.12732	5753.7875
2096.12447	5768.7875
2099.11969	5750.1875
2102.11299	5768.8875
2105.10435	5776.0875
2108.09379	5764.7875
2111.08131	5756.5875
2114.0669	5762.6875
2117.05057	5751.5875
2120.03233	5752.6875
2123.01216	5760.5875
2125.99008	5762.3875
2128.96609	5789.7875
2131.94018	5792.8875
2134.91236	5782.8875
2137.88263	5780.7875
2140.851	5781.9875
2143.81746	5773.9875
2146.78201	5784.1875
2149.74466	5762.4875
2152.7054	5777.7875
2155.66425	5766.3875
2158.6212	5772.4875
2161.57625	5772.3875
2164.52941	5762.4875
2167.48067	5765.1875
2170.43004	5749.9875
2173.37752	5750.3875
2176.32311	5748.4875
2179.26681	5753.1875
2182.20863	5748.4875
2185.14856	5747.6875
2188.08661	5741.4875
2191.02278	5752.2875
2193.95707	5744.4875
2196.88948	5740.2875
2199.82001	5733.9875
2202.74867	5725.6875
2205.67545	5754.2875
2208.60037	5712.0875
2211.52341	5717.5875
2214.44458	5685.2875
2217.36388	5682.1875
2220.28132	5674.3875
2223.1969	5658.5875
2226.11061	5628.3875
2229.02246	5619.4875
2231.93245	5607.7875
2234.84058	5598.3875
2237.74686	5603.4875
2240.65128	5611.3875
2243.55385	5587.2875
2246.45456	5580.5875
2249.35343	5569.9875
2252.25044	5548.9875
2255.14561	5557.2875
2258.03893	5548.1875
2260.93041	5545.1875
2263.82004	5555.9875
2266.70783	5533.2875
2269.59378	5508.1875
2272.4779	5500.5875
2275.36017	5481.7875
2278.24061	5448.4875
2281.11922	5439.9875
2283.996	5438.5875
2286.87094	5428.0875
2289.74405	5413.6875
2292.61534	5414.8875
2295.4848	5416.9875
2298.35243	5412.6875
2301.21824	5385.2875
2304.08223	5393.9875
2306.94439	5420.8875
2309.80474	5401.5875
2312.66327	5392.0875
2315.51999	5380.2875
2318.37489	5382.1875
2321.22797	5372.3875
2324.07925	5368.5875
2326.92871	5342.9875
2329.77637	5348.0875
2332.62222	5321.6875
2335.46626	5329.4875
2338.3085	5319.1875
2341.14893	5325.0875
2343.98756	5324.9875
2346.8244	5329.4875
2349.65943	5322.0875
2352.49267	5308.2875
2355.32411	5331.3875
2358.15376	5292.8875
2360.98161	5297.9875
2363.80768	5292.2875
2366.63195	5298.6875
2369.45444	5282.3875
2372.27514	5264.4875
2375.09405	5258.2875
2377.91118	5288.4875
2380.72652	5257.0875
2383.54009	5242.8875
2386.35187	5226.3875
2389.16188	5215.0875
2391.97011	5215.1875
2394.77657	5212.4875
2397.58125	5177.1875
2400.38416	5166.7875
2403.18529	5166.2875
2405.98466	5167.9875
2408.78226	5142.8875
2411.57809	5123.9875
2414.37216	5117.1875
2417.16446	5119.7875
2419.955	5101.8875
2422.74378	5101.0875
2425.5308	5096.3875
2428.31606	5098.7875
2431.09956	5082.2875
2433.88131	5087.8875
2436.6613	5078.7875
2439.43954	5076.6875
2442.21603	5071.1875
2444.99077	5090.8875
2447.76377	5077.9875
2450.53501	5067.9875
2453.30451	5057.4875
2456.07226	5047.7875
2458.83827	5054.6875
2461.60254	5037.8875
2464.36507	5034.4875
2467.12586	5024.5875
2469.88492	5013.1875
2472.64224	5020.8875
2475.39782	5025.8875
2478.15167	5003.6875
2480.90379	5011.0875
2483.65417	5016.1875
2486.40283	5035.6875
2489.14976	5026.3875
2491.89497	5012.6875
2494.63845	5019.1875
2497.3802	5015.5875
2500.12024	4994.4875
2502.85855	4976.4875
2505.59514	4964.9875
2508.33002	4962.4875
2511.06318	4949.3875
2513.79462	4937.3875
2516.52435	4941.8875
2519.25237	4926.8875
2521.97867	4921.7875
2524.70327	4913.6875
2527.42616	4904.7875
2530.14734	4912.4875
2532.86681	4904.3875
2535.58458	4902.7875
2538.30065	4894.4875
2541.01501	4898.4875
2543.72768	4884.2875
2546.43864	4888.2875
2549.14791	4888.3875
2551.85548	4880.2875
2554.56136	4868.6875
2557.26554	4873.2875
2559.96803	4846.5875
2562.66883	4842.5875
2565.36794	4824.5875
2568.06536	4800.5875
2570.7611	4801.9875
2573.45514	4808.9875
2576.14751	4798.4875
2578.83819	4776.8875
2581.52719	4772.6875
2584.21451	4758.4875
2586.90015	4767.1875
2589.58411	4741.6875
2592.2664	4763.4875
2594.94701	4759.7875
2597.62594	4753.3875
2600.30321	4738.0875
2602.9788	4729.7875
2605.65273	4709.8875
2608.32498	4707.3875
2610.99557	4679.1875
2613.66449	4708.5875
2616.33175	4696.3875
2618.99734	4689.9875
2621.66128	4681.9875
2624.32355	4689.4875
2626.98416	4689.9875
2629.64311	4678.6875
2632.30041	4680.9875
2634.95605	4676.6875
2637.61004	4657.1875
2640.26238	4653.3875
2642.91306	4650.0875
2645.56209	4632.7875
2648.20948	4635.4875
2650.85521	4628.3875
2653.4993	4620.4875
2656.14175	4623.4875
2658.78255	4622.4875
2661.42171	4628.1875
2664.05923	4635.7875
2666.6951	4654.6875
2669.32934	4633.7875
2671.96194	4626.5875
2674.59291	4628.6875
2677.22224	4627.4875
2679.84993	4620.0875
2682.476	4624.4875
2685.10043	4622.6875
2687.72324	4597.6875
2690.34441	4601.9875
2692.96396	4615.4875
2695.58188	4605.6875
2698.19818	4598.7875
2700.81285	4619.0875
2703.4259	4600.5875
2706.03733	4596.5875
2708.64714	4587.3875
2711.25533	4570.7875
2713.86191	4573.8875
2716.46687	4584.9875
2719.07021	4581.2875
2721.67194	4597.1875
2724.27206	4591.1875
2726.87057	4596.8875
2729.46747	4586.2875
2732.06276	4568.3875
2734.65644	4564.7875
2737.24852	4567.1875
2739.83899	4564.0875
2742.42786	4566.3875
2745.01513	4550.1875
2747.60079	4542.3875
2750.18486	4558.7875
2752.76733	4542.6875
2755.3482	4539.5875
2757.92747	4512.1875
2760.50515	4510.3875
2763.08123	4528.7875
2765.65573	4502.9875
2768.22863	4493.9875
2770.79994	4488.6875
2773.36967	4496.7875
2775.9378	4494.5875
2778.50435	4498.3875
2781.06932	4464.2875
2783.6327	4462.0875
2786.1945	4451.0875
2788.75471	4469.4875
2791.31335	4443.4875
2793.87041	4427.7875
2796.42589	4433.3875
2798.97979	4411.4875
2801.53212	4412.2875
2804.08288	4413.5875
2806.63206	4414.6875
2809.17967	4395.7875
2811.72571	4378.8875
2814.27018	4388.3875
2816.81308	4370.7875
2819.35442	4363.9875
2821.89419	4353.8875
2824.43239	4336.6875
2826.96904	4330.8875
2829.50412	4339.0875
2832.03763	4325.1875
2834.56959	4313.2875
2837.1	4294.0875
2839.62884	4299.5875
2842.15613	4308.1875
2844.68186	4317.7875
2847.20604	4302.6875
2849.72867	4286.4875
2852.24974	4262.6875
2854.76927	4248.9875
2857.28724	4252.5875
2859.80367	4242.4875
2862.31855	4241.4875
2864.83189	4242.3875
2867.34368	4227.0875
2869.85393	4233.5875
2872.36264	4230.7875
2874.8698	4228.8875
2877.37543	4222.8875
2879.87952	4208.1875
2882.38207	4227.5875
2884.88308	4198.4875
2887.38256	4193.1875
2889.88051	4195.8875
2892.37692	4181.3875
2894.8718	4185.6875
2897.36515	4193.3875
2899.85698	4197.8875
2902.34727	4192.0875
2904.83604	4193.1875
2907.32328	4194.3875
2909.809	4204.2875
2912.29319	4207.3875
2914.77587	4203.0875
2917.25702	4201.5875
2919.73665	4200.0875
2922.21476	4206.4875
2924.69136	4202.4875
2927.16644	4200.5875
2929.64	4171.5875
2932.11205	4160.0875
2934.58258	4153.9875
2937.05161	4148.0875
2939.51912	4141.8875
2941.98513	4134.8875
2944.44962	4125.0875
2946.91261	4134.4875
2949.37409	4143.9875
2951.83407	4127.0875
2954.29254	4127.1875
2956.74951	4113.8875
2959.20498	4126.6875
2961.65895	4124.1875
2964.11142	4123.9875
2966.56239	4099.6875
2969.01186	4101.6875
2971.45984	4100.4875
2973.90632	4102.6875
2976.35131	4098.8875
2978.7948	4079.0875
2981.23681	4055.2875
2983.67732	4056.6875
2986.11635	4070.5875
2988.55388	4035.6875
2990.98993	4038.5875
2993.4245	4030.3875
2995.85758	4027.8875
2998.28917	4008.4875
3000.71928	4011.5875
3003.14791	4001.7875
3005.57506	3982.5875
3008.00073	3962.9875
3010.42493	3967.6875
3012.84764	3962.4875
3015.26888	3936.7875
3017.68865	3935.1875
3020.10694	3943.4875
3022.52376	3918.1875
3024.9391	3911.7875
3027.35298	3890.4875
3029.76539	3888.1875
3032.17632	3879.1875
3034.5858	3891.8875
3036.9938	3874.8875
3039.40034	3877.2875
3041.80542	3836.4875
3044.20903	3851.3875
3046.61118	3850.7875
3049.01187	3828.3875
3051.4111	3814.7875
3053.80888	3820.1875
3056.20519	3809.5875
3058.60005	3797.1875
3060.99345	3787.9875
3063.3854	3773.0875
3065.7759	3778.7875
3068.16494	3783.3875
3070.55254	3759.7875
3072.93868	3739.3875
3075.32338	3740.7875
3077.70662	3727.6875
3080.08842	3703.3875
3082.46878	3701.5875
3084.84769	3687.3875
3087.22515	3683.1875
3089.60118	3687.5875
3091.97576	3685.0875
3094.3489	3677.5875
3096.72061	3689.2875
3099.09087	3673.9875
3101.4597	3672.1875
3103.82709	3674.6875
3106.19305	3645.6875
3108.55757	3651.7875
3110.92066	3647.6875
3113.28232	3643.7875
3115.64255	3624.9875
3118.00134	3620.3875
3120.35871	3613.8875
3122.71466	3604.4875
3125.06917	3618.8875
3127.42226	3588.7875
3129.77393	3585.7875
3132.12417	3578.5875
3134.47299	3569.2875
3136.82039	3575.4875
3139.16636	3561.5875
3141.51092	3552.6875
3143.85406	3556.0875
3146.19579	3562.3875
3148.53609	3561.8875
3150.87499	3554.5875
3153.21246	3543.4875
3155.54853	3543.9875
3157.88318	3566.7875
3160.21642	3555.8875
3162.54826	3564.7875
3164.87868	3547.8875
3167.2077	3533.2875
3169.5353	3524.5875
3171.86151	3534.3875
3174.18631	3533.7875
3176.5097	3523.6875
3178.83169	3510.8875
3181.15228	3500.3875
3183.47147	3485.2875
3185.78926	3479.3875
3188.10565	3468.5875
3190.42065	3483.0875
3192.73424	3465.2875
3195.04645	3456.6875
3197.35725	3445.3875
3199.66667	3446.8875
3201.97469	3448.1875
3204.28132	3447.7875
3206.58656	3452.0875
3208.8904	3441.1875
3211.19287	3461.4875
3213.49394	3456.5875
3215.79363	3459.4875
3218.09193	3455.3875
3220.38884	3444.9875
3222.68438	3441.5875
3224.97853	3438.5875
3227.2713	3431.9875
3229.56269	3435.5875
3231.8527	3427.7875
3234.14133	3423.2875
3236.42858	3405.9875
3238.71446	3406.1875
3240.99896	3398.0875
3243.28209	3387.2875
3245.56384	3385.4875
3247.84423	3385.1875
3250.12324	3370.7875
3252.40088	3367.6875
3254.67715	3373.0875
3256.95205	3347.5875
3259.22558	3354.0875
3261.49775	3359.6875
3263.76855	3349.0875
3266.03799	3341.6875
3268.30606	3343.6875
3270.57277	3365.7875
3272.83812	3341.5875
3275.10211	3336.4875
3277.36474	3325.3875
3279.62601	3308.1875
3281.88593	3307.6875
3284.14448	3300.0875
3286.40168	3301.7875
3288.65753	3303.3875
3290.91202	3294.6875
3293.16516	3269.6875
3295.41695	3276.8875
3297.66738	3249.9875
3299.91647	3249.7875
3302.16421	3222.0875
3304.4106	3214.5875
3306.65564	3181.0875
3308.89933	3156.1875
3311.14169	3140.3875
3313.38269	3097.8875
3315.62236	3083.8875
3317.86068	3070.3875
3320.09766	3034.3875
3322.3333	3015.5875
3324.5676	3009.8875
3326.80056	2947.0875
3329.03219	2931.0875
3331.26248	2.5875
3333.49143	-0.7125
3335.71905	-1.7125
