Data from AgNPs_UA_50uM_CRN_500uM_SU_RamanShift__14__13-58-10-316.txt Node

Date: Thu Aug 04 13:58:10 BST 2022
User: TCL
Spectrometer: QEP01345
Trigger mode: 4
Integration Time (sec): 1.000000E0
Scans to average: 10
Electric dark correction enabled: true
Nonlinearity correction enabled: false
Boxcar width: 0
XAxis mode: Raman Shifts
Number of Pixels in Spectrum: 1044
>>>>>Begin Spectral Data<<<<<
46.04893	2.125
50.45542	-0.675
54.85868	-0.875
59.25871	-1.775
63.6555	15.325
68.04907	14.425
72.43941	14.925
76.82654	15.325
81.21044	17.125
85.59113	18.625
89.96862	19.225
94.34289	19.825
98.71396	18.425
103.08183	20.025
107.4465	18.925
111.80798	20.425
116.16626	19.825
120.52136	24.525
124.87327	24.625
129.222	25.125
133.56755	27.525
137.90993	31.725
142.24913	34.125
146.58517	37.325
150.91804	43.925
155.24774	53.825
159.57429	68.025
163.89768	89.625
168.21792	119.425
172.53501	166.825
176.84895	232.325
181.15975	333.425
185.46741	467.425
189.77193	653.225
194.07331	876.225
198.37157	1140.625
202.6667	1406.125
206.9587	1688.425
211.24758	1966.925
215.53334	2263.025
219.81599	2574.725
224.09553	2937.425
228.37195	3332.625
232.64527	3754.325
236.91549	4154.925
241.18261	4483.425
245.44663	4722.825
249.70755	4903.125
253.96539	5025.825
258.22014	5173.925
262.4718	5263.725
266.72039	5356.125
270.96589	5350.325
275.20832	5295.525
279.44768	5190.025
283.68397	5112.625
287.91719	5056.825
292.14735	5084.425
296.37445	5228.125
300.59849	5463.225
304.81948	5808.525
309.03742	6141.425
313.25231	6346.925
317.46415	6294.725
321.67296	5949.725
325.87872	5555.925
330.08145	5357.425
334.28114	5300.525
338.47781	5383.025
342.67145	5532.125
346.86207	5733.825
351.04966	6025.825
355.23424	6338.325
359.4158	6511.825
363.59435	6580.925
367.76989	6529.325
371.94243	6442.025
376.11196	6353.125
380.27849	6288.925
384.44203	6230.625
388.60257	6215.325
392.76012	6234.925
396.91468	6342.225
401.06626	6461.225
405.21485	6482.525
409.36047	6325.125
413.50311	5995.425
417.64277	5711.125
421.77947	5557.725
425.9132	5495.125
430.04396	5480.325
434.17176	5543.225
438.2966	5609.025
442.41849	5716.725
446.53742	5848.225
450.6534	5957.125
454.76644	6009.925
458.87653	5996.325
462.98368	5956.925
467.08789	5900.025
471.18916	5767.325
475.2875	5647.625
479.38291	5522.425
483.4754	5430.425
487.56496	5393.425
491.6516	5368.525
495.73531	5361.625
499.81612	5379.425
503.89401	5422.725
507.96899	5477.525
512.04106	5534.625
516.11023	5625.525
520.1765	5695.625
524.23987	5721.725
528.30034	5699.525
532.35792	5684.225
536.41261	5609.725
540.46441	5507.725
544.51333	5470.325
548.55936	5492.225
552.60252	5602.525
556.64279	5717.025
560.6802	5803.525
564.71473	5924.825
568.7464	6087.225
572.7752	6092.425
576.80114	5852.225
580.82422	5626.825
584.84444	5531.625
588.86181	5515.825
592.87633	5546.725
596.888	5661.925
600.89682	6006.725
604.9028	6940.125
608.90594	8930.425
612.90624	11099.825
616.90371	10140.425
620.89834	7186.525
624.89015	5963.925
628.87913	5802.625
632.86528	5954.725
636.84862	6063.325
640.82913	5889.025
644.80683	5606.825
648.78172	5447.625
652.75379	5478.925
656.72306	5689.025
660.68952	5926.425
664.65319	5824.125
668.61405	5563.725
672.57211	5521.725
676.52738	5516.725
680.47986	5427.925
684.42955	5356.725
688.37646	5302.325
692.32058	5341.225
696.26192	5420.225
700.20048	5520.125
704.13626	5535.625
708.06928	5492.925
711.99952	5446.525
715.927	5440.925
719.85171	5480.525
723.77365	5494.725
727.69284	5453.825
731.60928	5408.325
735.52295	5386.625
739.43388	5412.125
743.34206	5430.825
747.24749	5461.025
751.15017	5448.425
755.05012	5532.525
758.94733	5875.725
762.8418	6680.025
766.73354	7881.425
770.62254	8756.525
774.50882	8867.525
778.39237	8274.425
782.27321	7345.425
786.15132	6421.925
790.02671	5846.925
793.89938	5563.025
797.76935	5415.825
801.6366	5381.825
805.50115	5341.825
809.36299	5315.025
813.22213	5288.125
817.07857	5287.225
820.93231	5281.925
824.78336	5298.125
828.63172	5333.425
832.47738	5350.925
836.32036	5308.725
840.16066	5268.925
843.99827	5268.425
847.8332	5249.425
851.66546	5277.225
855.49504	5285.825
859.32195	5284.325
863.1462	5273.225
866.96777	5258.025
870.78668	5272.225
874.60293	5274.325
878.41652	5313.125
882.22745	5371.525
886.03573	5387.525
889.84136	5395.325
893.64433	5358.725
897.44466	5343.625
901.24235	5334.225
905.0374	5312.925
908.8298	5281.425
912.61957	5235.625
916.40671	5262.925
920.19121	5301.325
923.97308	5379.825
927.75233	5444.425
931.52895	5483.525
935.30295	5415.825
939.07433	5261.025
942.84309	5176.025
946.60924	5134.025
950.37278	5134.725
954.13371	5108.625
957.89203	5099.525
961.64774	5094.225
965.40086	5062.425
969.15137	5085.725
972.89929	5066.025
976.64461	5059.925
980.38733	5070.325
984.12747	5072.125
987.86502	5090.025
991.59999	5148.425
995.33237	5201.925
999.06217	5275.325
1002.78939	5378.525
1006.51404	5541.625
1010.23611	5653.025
1013.95561	5699.525
1017.67255	5667.025
1021.38692	5628.625
1025.09872	5525.525
1028.80796	5445.025
1032.51465	5438.925
1036.21877	5464.625
1039.92035	5494.625
1043.61937	5507.725
1047.31584	5544.525
1051.00976	5548.525
1054.70114	5537.125
1058.38998	5527.025
1062.07627	5541.025
1065.76003	5579.825
1069.44126	5669.125
1073.11995	5803.325
1076.79611	5937.925
1080.46974	6073.425
1084.14085	6188.225
1087.80943	6301.625
1091.47549	6314.125
1095.13903	6282.525
1098.80005	6124.425
1102.45857	6005.525
1106.11456	5924.425
1109.76805	5886.225
1113.41903	5959.325
1117.06751	6106.825
1120.71348	6345.925
1124.35696	6654.225
1127.99793	6868.825
1131.63641	6729.725
1135.2724	6385.225
1138.90589	6135.125
1142.5369	6005.225
1146.16542	5941.725
1149.79145	5910.525
1153.415	5827.225
1157.03607	5785.425
1160.65467	5820.725
1164.27079	5981.425
1167.88443	6215.625
1171.49561	6589.925
1175.10432	7184.825
1178.71056	7995.125
1182.31434	8679.525
1185.91565	8827.325
1189.51451	8663.425
1193.11091	8353.825
1196.70485	8019.625
1200.29634	7804.625
1203.88538	7551.525
1207.47197	7175.225
1211.05612	6860.425
1214.63782	6627.325
1218.21708	6438.525
1221.79391	6269.825
1225.36829	6196.025
1228.94024	6181.925
1232.50976	6150.025
1236.07685	6163.525
1239.6415	6173.225
1243.20374	6223.525
1246.76355	6267.025
1250.32093	6342.025
1253.8759	6493.925
1257.42845	6747.325
1260.97859	6991.325
1264.52631	7182.025
1268.07163	7337.625
1271.61453	7413.725
1275.15503	7432.625
1278.69312	7413.925
1282.22882	7447.825
1285.76211	7630.725
1289.29301	7848.525
1292.82151	8064.825
1296.34761	8273.725
1299.87133	8645.225
1303.39266	9276.525
1306.9116	10231.525
1310.42815	11257.625
1313.94233	11574.025
1317.45412	10910.525
1320.96354	9994.425
1324.47058	9125.125
1327.97525	8410.425
1331.47754	8003.525
1334.97747	7936.625
1338.47502	8070.925
1341.97022	8422.725
1345.46305	9050.225
1348.95352	9911.325
1352.44163	10954.125
1355.92738	12161.025
1359.41078	13694.825
1362.89183	14953.025
1366.37053	14232.325
1369.84688	11784.225
1373.32088	9543.625
1376.79254	8286.325
1380.26186	7721.025
1383.72883	7385.925
1387.19347	7080.625
1390.65578	6806.425
1394.11575	6582.125
1397.57339	6397.925
1401.0287	6317.625
1404.48168	6229.225
1407.93234	6272.925
1411.38068	6326.925
1414.82669	6442.925
1418.27039	6472.025
1421.71177	6457.525
1425.15083	6382.325
1428.58758	6353.225
1432.02203	6412.725
1435.45416	6493.825
1438.88399	6514.425
1442.31151	6544.625
1445.73673	6565.625
1449.15965	6632.325
1452.58027	6592.225
1455.9986	6527.825
1459.41463	6471.525
1462.82837	6529.925
1466.23982	6679.825
1469.64898	6833.825
1473.05586	6945.825
1476.46045	7040.725
1479.86276	7100.125
1483.26279	7201.525
1486.66054	7418.625
1490.05602	7706.525
1493.44922	8163.425
1496.84016	8930.625
1500.22882	10107.425
1503.61521	11589.125
1506.99934	13137.725
1510.38121	14103.225
1513.76081	13922.625
1517.13816	12589.825
1520.51324	10811.425
1523.88607	9369.325
1527.25665	8481.525
1530.62498	8055.225
1533.99105	7798.325
1537.35488	7688.625
1540.71647	7603.525
1544.07581	7504.125
1547.4329	7428.825
1550.78776	7352.825
1554.14038	7276.325
1557.49077	7264.825
1560.83892	7400.625
1564.18484	7659.425
1567.52853	8009.625
1570.86999	8194.325
1574.20922	8276.325
1577.54624	8130.625
1580.88103	7651.325
1584.2136	7082.725
1587.54395	6762.825
1590.87208	6726.225
1594.19801	6974.625
1597.52172	7300.325
1600.84321	7451.925
1604.16251	7351.225
1607.47959	7184.825
1610.79447	6917.225
1614.10715	6571.025
1617.41763	6200.525
1620.7259	5942.725
1624.03199	5810.125
1627.33587	5783.225
1630.63757	5879.025
1633.93707	6105.725
1637.23439	6526.025
1640.52951	7235.225
1643.82246	8231.225
1647.11321	9359.625
1650.40179	9983.325
1653.68819	9576.325
1656.97241	8355.725
1660.25446	7032.825
1663.53433	6119.825
1666.81203	5552.925
1670.08756	5271.225
1673.36092	5073.625
1676.63211	4947.525
1679.90115	4878.725
1683.16801	4789.425
1686.43272	4739.325
1689.69527	4702.725
1692.95567	4691.225
1696.2139	4669.425
1699.46999	4648.025
1702.72392	4654.425
1705.97571	4653.925
1709.22535	4639.725
1712.47284	4625.725
1715.71819	4649.825
1718.96139	4634.825
1722.20246	4616.625
1725.44139	4609.225
1728.67818	4567.125
1731.91284	4523.325
1735.14537	4521.325
1738.37576	4480.725
1741.60403	4478.925
1744.83017	4442.325
1748.05418	4447.425
1751.27607	4446.425
1754.49584	4417.125
1757.71349	4410.725
1760.92903	4415.125
1764.14244	4402.525
1767.35375	4402.425
1770.56294	4376.925
1773.77002	4366.725
1776.97499	4348.625
1780.17785	4323.125
1783.37861	4305.925
1786.57727	4314.725
1789.77382	4287.825
1792.96828	4283.725
1796.16064	4282.225
1799.3509	4276.825
1802.53907	4260.425
1805.72514	4264.125
1808.90913	4237.725
1812.09102	4225.125
1815.27083	4212.125
1818.44856	4198.525
1821.6242	4212.225
1824.79776	4193.925
1827.96924	4185.025
1831.13864	4159.625
1834.30597	4165.725
1837.47122	4135.325
1840.6344	4143.925
1843.7955	4157.025
1846.95454	4138.125
1850.11151	4132.925
1853.26642	4151.725
1856.41926	4144.425
1859.57004	4139.325
1862.71876	4149.225
1865.86542	4124.025
1869.01003	4126.425
1872.15258	4126.625
1875.29308	4135.825
1878.43152	4109.025
1881.56792	4099.425
1884.70227	4093.925
1887.83457	4099.225
1890.96482	4079.025
1894.09304	4089.225
1897.21921	4064.925
1900.34335	4053.025
1903.46544	4033.925
1906.58551	4057.325
1909.70353	4033.825
1912.81953	4036.225
1915.93349	4023.925
1919.04543	4015.025
1922.15534	4022.025
1925.26322	3996.525
1928.36908	4006.825
1931.47292	4008.225
1934.57473	3983.825
1937.67453	3969.925
1940.77232	3957.025
1943.86808	3953.725
1946.96184	3926.725
1950.05358	3922.625
1953.14331	3913.025
1956.23103	3900.125
1959.31675	3885.325
1962.40046	3874.525
1965.48217	3878.625
1968.56188	3869.725
1971.63959	3861.925
1974.7153	3848.225
1977.78901	3845.425
1980.86073	3814.325
1983.93046	3804.525
1986.99819	3787.125
1990.06394	3776.625
1993.1277	3764.525
1996.18947	3755.225
1999.24925	3741.525
2002.30706	3736.825
2005.36288	3712.725
2008.41672	3698.325
2011.46859	3680.325
2014.51848	3679.425
2017.56639	3682.625
2020.61233	3658.825
2023.6563	3645.825
2026.6983	3632.325
2029.73833	3612.425
2032.7764	3615.025
2035.8125	3605.025
2038.84664	3598.625
2041.87881	3597.025
2044.90903	3569.125
2047.93729	3566.925
2050.96359	3564.125
2053.98794	3559.625
2057.01034	3547.725
2060.03078	3559.625
2063.04927	3547.625
2066.06582	3562.825
2069.08042	3546.725
2072.09307	3536.025
2075.10378	3531.725
2078.11255	3512.325
2081.11938	3542.225
2084.12426	3541.625
2087.12722	3535.225
2090.12824	3527.825
2093.12732	3529.525
2096.12447	3522.425
2099.11969	3535.725
2102.11299	3529.025
2105.10435	3519.225
2108.09379	3544.725
2111.08131	3529.625
2114.0669	3535.725
2117.05057	3537.025
2120.03233	3540.025
2123.01216	3539.825
2125.99008	3548.425
2128.96609	3538.825
2131.94018	3551.725
2134.91236	3536.825
2137.88263	3536.225
2140.851	3556.225
2143.81746	3551.825
2146.78201	3541.725
2149.74466	3540.325
2152.7054	3531.825
2155.66425	3530.725
2158.6212	3535.325
2161.57625	3521.125
2164.52941	3525.825
2167.48067	3532.925
2170.43004	3526.225
2173.37752	3521.025
2176.32311	3525.925
2179.26681	3515.325
2182.20863	3534.625
2185.14856	3530.425
2188.08661	3519.025
2191.02278	3518.025
2193.95707	3513.925
2196.88948	3507.625
2199.82001	3509.925
2202.74867	3500.325
2205.67545	3498.625
2208.60037	3497.225
2211.52341	3492.225
2214.44458	3482.725
2217.36388	3484.825
2220.28132	3468.125
2223.1969	3448.825
2226.11061	3437.925
2229.02246	3431.825
2231.93245	3440.325
2234.84058	3441.725
2237.74686	3422.325
2240.65128	3425.025
2243.55385	3418.925
2246.45456	3410.825
2249.35343	3404.925
2252.25044	3412.225
2255.14561	3407.425
2258.03893	3409.325
2260.93041	3410.825
2263.82004	3407.425
2266.70783	3408.125
2269.59378	3386.525
2272.4779	3368.325
2275.36017	3357.125
2278.24061	3349.225
2281.11922	3339.125
2283.996	3337.525
2286.87094	3329.525
2289.74405	3325.425
2292.61534	3331.625
2295.4848	3323.325
2298.35243	3326.125
2301.21824	3308.225
2304.08223	3311.725
2306.94439	3309.425
2309.80474	3302.625
2312.66327	3306.225
2315.51999	3300.225
2318.37489	3292.025
2321.22797	3296.225
2324.07925	3283.125
2326.92871	3279.225
2329.77637	3262.825
2332.62222	3261.725
2335.46626	3263.825
2338.3085	3251.125
2341.14893	3255.325
2343.98756	3264.425
2346.8244	3261.225
2349.65943	3258.125
2352.49267	3258.425
2355.32411	3267.825
2358.15376	3238.225
2360.98161	3254.125
2363.80768	3257.325
2366.63195	3267.125
2369.45444	3260.625
2372.27514	3255.825
2375.09405	3254.125
2377.91118	3242.125
2380.72652	3247.325
2383.54009	3226.025
2386.35187	3225.925
2389.16188	3197.925
2391.97011	3192.925
2394.77657	3184.025
2397.58125	3174.025
2400.38416	3171.525
2403.18529	3170.325
2405.98466	3166.225
2408.78226	3171.225
2411.57809	3138.925
2414.37216	3159.725
2417.16446	3146.725
2419.955	3126.025
2422.74378	3149.325
2425.5308	3145.925
2428.31606	3143.925
2431.09956	3142.725
2433.88131	3137.825
2436.6613	3135.125
2439.43954	3138.725
2442.21603	3141.325
2444.99077	3144.725
2447.76377	3131.625
2450.53501	3118.825
2453.30451	3131.825
2456.07226	3126.825
2458.83827	3115.325
2461.60254	3113.325
2464.36507	3110.525
2467.12586	3107.725
2469.88492	3105.825
2472.64224	3111.025
2475.39782	3118.025
2478.15167	3106.125
2480.90379	3115.525
2483.65417	3108.025
2486.40283	3127.025
2489.14976	3121.125
2491.89497	3127.325
2494.63845	3125.025
2497.3802	3116.925
2500.12024	3104.625
2502.85855	3098.925
2505.59514	3101.325
2508.33002	3094.625
2511.06318	3079.925
2513.79462	3076.225
2516.52435	3051.525
2519.25237	3056.825
2521.97867	3040.025
2524.70327	3033.725
2527.42616	3039.425
2530.14734	3027.125
2532.86681	3042.725
2535.58458	3035.525
2538.30065	3026.625
2541.01501	3044.625
2543.72768	3030.425
2546.43864	3032.425
2549.14791	3023.125
2551.85548	3030.525
2554.56136	3023.825
2557.26554	3015.325
2559.96803	3005.525
2562.66883	2995.725
2565.36794	2993.825
2568.06536	2998.625
2570.7611	2979.925
2573.45514	2973.725
2576.14751	2979.325
2578.83819	2951.725
2581.52719	2953.725
2584.21451	2957.725
2586.90015	2958.125
2589.58411	2951.925
2592.2664	2946.725
2594.94701	2935.725
2597.62594	2936.425
2600.30321	2930.125
2602.9788	2921.125
2605.65273	2919.325
2608.32498	2917.525
2610.99557	2913.025
2613.66449	2932.325
2616.33175	2908.525
2618.99734	2915.525
2621.66128	2906.125
2624.32355	2917.725
2626.98416	2892.425
2629.64311	2871.425
2632.30041	2872.225
2634.95605	2866.025
2637.61004	2868.725
2640.26238	2863.825
2642.91306	2854.225
2645.56209	2862.125
2648.20948	2858.925
2650.85521	2865.125
2653.4993	2855.825
2656.14175	2853.425
2658.78255	2858.625
2661.42171	2862.625
2664.05923	2867.125
2666.6951	2861.825
2669.32934	2861.525
2671.96194	2860.525
2674.59291	2850.225
2677.22224	2854.225
2679.84993	2857.125
2682.476	2836.425
2685.10043	2845.825
2687.72324	2849.925
2690.34441	2850.525
2692.96396	2850.325
2695.58188	2847.425
2698.19818	2853.825
2700.81285	2845.425
2703.4259	2842.125
2706.03733	2841.625
2708.64714	2836.125
2711.25533	2837.325
2713.86191	2834.425
2716.46687	2838.025
2719.07021	2844.625
2721.67194	2843.325
2724.27206	2836.025
2726.87057	2826.625
2729.46747	2836.625
2732.06276	2830.725
2734.65644	2851.625
2737.24852	2827.925
2739.83899	2820.225
2742.42786	2824.225
2745.01513	2821.825
2747.60079	2817.825
2750.18486	2814.625
2752.76733	2822.925
2755.3482	2801.725
2757.92747	2796.825
2760.50515	2779.125
2763.08123	2786.325
2765.65573	2775.825
2768.22863	2769.825
2770.79994	2764.325
2773.36967	2766.525
2775.9378	2765.725
2778.50435	2761.425
2781.06932	2767.425
2783.6327	2757.625
2786.1945	2754.225
2788.75471	2746.225
2791.31335	2739.725
2793.87041	2743.725
2796.42589	2744.725
2798.97979	2742.125
2801.53212	2732.325
2804.08288	2746.125
2806.63206	2727.925
2809.17967	2724.525
2811.72571	2714.925
2814.27018	2710.925
2816.81308	2704.825
2819.35442	2702.725
2821.89419	2701.825
2824.43239	2683.225
2826.96904	2694.125
2829.50412	2694.725
2832.03763	2674.625
2834.56959	2675.725
2837.1	2672.125
2839.62884	2667.425
2842.15613	2654.425
2844.68186	2650.225
2847.20604	2656.725
2849.72867	2655.625
2852.24974	2652.225
2854.76927	2650.025
2857.28724	2657.525
2859.80367	2650.625
2862.31855	2639.125
2864.83189	2645.325
2867.34368	2653.325
2869.85393	2630.825
2872.36264	2628.925
2874.8698	2643.225
2877.37543	2626.425
2879.87952	2626.425
2882.38207	2622.625
2884.88308	2624.725
2887.38256	2618.225
2889.88051	2614.225
2892.37692	2617.825
2894.8718	2609.025
2897.36515	2595.325
2899.85698	2602.825
2902.34727	2613.425
2904.83604	2604.225
2907.32328	2611.625
2909.809	2624.625
2912.29319	2628.225
2914.77587	2626.825
2917.25702	2626.125
2919.73665	2629.725
2922.21476	2622.125
2924.69136	2622.225
2927.16644	2611.125
2929.64	2611.525
2932.11205	2611.125
2934.58258	2587.325
2937.05161	2603.725
2939.51912	2604.125
2941.98513	2584.425
2944.44962	2582.325
2946.91261	2586.025
2949.37409	2576.325
2951.83407	2573.225
2954.29254	2566.325
2956.74951	2575.225
2959.20498	2577.025
2961.65895	2555.925
2964.11142	2560.325
2966.56239	2545.425
2969.01186	2554.125
2971.45984	2550.425
2973.90632	2553.925
2976.35131	2546.125
2978.7948	2526.725
2981.23681	2535.925
2983.67732	2530.025
2986.11635	2529.225
2988.55388	2510.525
2990.98993	2519.925
2993.4245	2512.225
2995.85758	2504.925
2998.28917	2509.425
3000.71928	2500.525
3003.14791	2496.425
3005.57506	2493.125
3008.00073	2487.825
3010.42493	2482.825
3012.84764	2482.425
3015.26888	2467.325
3017.68865	2455.825
3020.10694	2452.225
3022.52376	2440.525
3024.9391	2426.025
3027.35298	2426.525
3029.76539	2427.725
3032.17632	2427.125
3034.5858	2407.625
3036.9938	2411.025
3039.40034	2399.525
3041.80542	2414.325
3044.20903	2403.025
3046.61118	2402.025
3049.01187	2405.725
3051.4111	2384.525
3053.80888	2370.325
3056.20519	2371.325
3058.60005	2371.925
3060.99345	2372.525
3063.3854	2368.525
3065.7759	2354.225
3068.16494	2351.125
3070.55254	2350.425
3072.93868	2350.425
3075.32338	2328.225
3077.70662	2330.625
3080.08842	2333.525
3082.46878	2316.225
3084.84769	2298.725
3087.22515	2315.625
3089.60118	2303.025
3091.97576	2307.225
3094.3489	2297.725
3096.72061	2308.325
3099.09087	2303.225
3101.4597	2304.625
3103.82709	2295.125
3106.19305	2289.225
3108.55757	2302.525
3110.92066	2282.425
3113.28232	2290.525
3115.64255	2270.625
3118.00134	2271.225
3120.35871	2257.425
3122.71466	2250.825
3125.06917	2251.525
3127.42226	2250.425
3129.77393	2245.525
3132.12417	2241.325
3134.47299	2252.025
3136.82039	2236.525
3139.16636	2239.225
3141.51092	2240.725
3143.85406	2237.925
3146.19579	2231.025
3148.53609	2228.625
3150.87499	2241.425
3153.21246	2227.725
3155.54853	2241.625
3157.88318	2240.125
3160.21642	2230.825
3162.54826	2239.025
3164.87868	2234.925
3167.2077	2227.625
3169.5353	2218.925
3171.86151	2220.425
3174.18631	2223.825
3176.5097	2216.025
3178.83169	2207.825
3181.15228	2209.425
3183.47147	2196.925
3185.78926	2186.525
3188.10565	2183.625
3190.42065	2180.725
3192.73424	2194.825
3195.04645	2175.325
3197.35725	2174.925
3199.66667	2176.625
3201.97469	2173.025
3204.28132	2174.325
3206.58656	2171.725
3208.8904	2170.025
3211.19287	2176.225
3213.49394	2178.825
3215.79363	2169.725
3218.09193	2179.725
3220.38884	2181.925
3222.68438	2175.925
3224.97853	2172.125
3227.2713	2176.525
3229.56269	2163.725
3231.8527	2163.425
3234.14133	2157.825
3236.42858	2152.525
3238.71446	2143.925
3240.99896	2135.325
3243.28209	2137.225
3245.56384	2138.125
3247.84423	2130.025
3250.12324	2131.725
3252.40088	2125.125
3254.67715	2132.025
3256.95205	2122.425
3259.22558	2113.925
3261.49775	2113.925
3263.76855	2116.925
3266.03799	2111.725
3268.30606	2112.325
3270.57277	2105.325
3272.83812	2101.225
3275.10211	2097.525
3277.36474	2093.725
3279.62601	2086.725
3281.88593	2084.225
3284.14448	2075.025
3286.40168	2078.625
3288.65753	2083.625
3290.91202	2088.425
3293.16516	2074.225
3295.41695	2067.425
3297.66738	2073.125
3299.91647	2061.625
3302.16421	2037.225
3304.4106	2029.625
3306.65564	2018.425
3308.89933	2000.425
3311.14169	1984.325
3313.38269	1958.425
3315.62236	1959.525
3317.86068	1948.725
3320.09766	1924.325
3322.3333	1912.225
3324.5676	1904.725
3326.80056	1871.625
3329.03219	1852.525
3331.26248	0.725
3333.49143	0.625
3335.71905	-0.575
