Data from AgNPs_UA_5uM_CRN_500uM_SU_RamanShift__56__11-38-43-150.txt Node

Date: Thu Aug 04 11:38:43 BST 2022
User: TCL
Spectrometer: QEP01345
Trigger mode: 4
Integration Time (sec): 1.000000E0
Scans to average: 10
Electric dark correction enabled: true
Nonlinearity correction enabled: false
Boxcar width: 0
XAxis mode: Raman Shifts
Number of Pixels in Spectrum: 1044
>>>>>Begin Spectral Data<<<<<
46.04893	0.2625
50.45542	0.5625
54.85868	-0.1375
59.25871	-1.2375
63.6555	-56.1375
68.04907	-38.3375
72.43941	-69.9375
76.82654	-55.4375
81.21044	-55.6375
85.59113	-48.4375
89.96862	-72.8375
94.34289	-52.4375
98.71396	-76.1375
103.08183	-55.9375
107.4465	-48.0375
111.80798	-53.2375
116.16626	-42.0375
120.52136	-70.1375
124.87327	-44.5375
129.222	-58.0375
133.56755	-43.8375
137.90993	-55.4375
142.24913	-43.8375
146.58517	-34.0375
150.91804	-27.0375
155.24774	-12.0375
159.57429	13.5625
163.89768	26.1625
168.21792	84.7625
172.53501	126.8625
176.84895	234.1625
181.15975	406.1625
185.46741	613.8625
189.77193	873.5625
194.07331	1247.2625
198.37157	1643.2625
202.6667	2065.4625
206.9587	2513.3625
211.24758	2992.7625
215.53334	3506.7625
219.81599	4097.8625
224.09553	4789.6625
228.37195	5487.1625
232.64527	6197.8625
236.91549	6771.6625
241.18261	7091.1625
245.44663	7253.7625
249.70755	7283.2625
253.96539	7344.9625
258.22014	7417.3625
262.4718	7533.1625
266.72039	7540.8625
270.96589	7397.7625
275.20832	7163.0625
279.44768	6897.7625
283.68397	6701.8625
287.91719	6631.3625
292.14735	6739.6625
296.37445	7165.1625
300.59849	7885.4625
304.81948	8891.7625
309.03742	10032.8625
313.25231	10856.2625
317.46415	10700.3625
321.67296	9545.7625
325.87872	8182.6625
330.08145	7414.1625
334.28114	7229.0625
338.47781	7460.6625
342.67145	7905.6625
346.86207	8604.2625
351.04966	9750.4625
355.23424	10848.2625
359.4158	11329.1625
363.59435	10974.4625
367.76989	10384.4625
371.94243	9722.8625
376.11196	9220.6625
380.27849	8886.5625
384.44203	8574.1625
388.60257	8423.7625
392.76012	8478.7625
396.91468	8707.2625
401.06626	9016.1625
405.21485	9064.9625
409.36047	8584.6625
413.50311	7763.9625
417.64277	7000.2625
421.77947	6493.3625
425.9132	6279.0625
430.04396	6145.0625
434.17176	6146.2625
438.2966	6246.4625
442.41849	6415.6625
446.53742	6600.0625
450.6534	6727.0625
454.76644	6750.9625
458.87653	6698.1625
462.98368	6598.7625
467.08789	6468.5625
471.18916	6315.0625
475.2875	6081.5625
479.38291	5903.2625
483.4754	5784.4625
487.56496	5720.0625
491.6516	5661.4625
495.73531	5653.5625
499.81612	5706.6625
503.89401	5858.9625
507.96899	6002.0625
512.04106	6197.0625
516.11023	6427.9625
520.1765	6617.7625
524.23987	6671.4625
528.30034	6648.2625
532.35792	6500.3625
536.41261	6383.8625
540.46441	6198.0625
544.51333	6082.0625
548.55936	6059.6625
552.60252	6223.5625
556.64279	6379.5625
560.6802	6743.9625
564.71473	7452.9625
568.7464	8382.7625
572.7752	8295.8625
576.80114	7100.5625
580.82422	6124.2625
584.84444	5697.6625
588.86181	5585.5625
592.87633	5597.7625
596.888	5770.5625
600.89682	6449.0625
604.9028	8505.6625
608.90594	13748.5625
612.90624	20083.7625
616.90371	18317.2625
620.89834	10459.2625
624.89015	7014.0625
628.87913	6637.6625
632.86528	7109.7625
636.84862	7336.6625
640.82913	6790.3625
644.80683	5937.5625
648.78172	5555.3625
652.75379	5686.9625
656.72306	6299.1625
660.68952	6908.6625
664.65319	6626.3625
668.61405	5856.6625
672.57211	5572.1625
676.52738	5579.9625
680.47986	5479.7625
684.42955	5330.4625
688.37646	5266.7625
692.32058	5279.7625
696.26192	5385.7625
700.20048	5520.5625
704.13626	5544.7625
708.06928	5450.8625
711.99952	5420.5625
715.927	5435.8625
719.85171	5606.6625
723.77365	5732.5625
727.69284	5615.8625
731.60928	5492.5625
735.52295	5439.9625
739.43388	5492.8625
743.34206	5537.6625
747.24749	5562.4625
751.15017	5582.8625
755.05012	5812.0625
758.94733	6806.8625
762.8418	9101.4625
766.73354	12097.0625
770.62254	13650.0625
774.50882	13137.8625
778.39237	12025.7625
782.27321	10337.0625
786.15132	8094.0625
790.02671	6544.3625
793.89938	5825.8625
797.76935	5577.6625
801.6366	5441.5625
805.50115	5395.6625
809.36299	5335.4625
813.22213	5343.0625
817.07857	5327.2625
820.93231	5347.0625
824.78336	5425.6625
828.63172	5532.5625
832.47738	5565.7625
836.32036	5493.5625
840.16066	5324.0625
843.99827	5232.8625
847.8332	5218.2625
851.66546	5212.5625
855.49504	5179.5625
859.32195	5196.1625
863.1462	5162.4625
866.96777	5153.4625
870.78668	5144.9625
874.60293	5187.9625
878.41652	5242.7625
882.22745	5337.1625
886.03573	5418.4625
889.84136	5397.2625
893.64433	5386.5625
897.44466	5376.5625
901.24235	5388.2625
905.0374	5333.7625
908.8298	5173.3625
912.61957	5084.3625
916.40671	5014.1625
920.19121	5058.0625
923.97308	5222.4625
927.75233	5517.1625
931.52895	5850.2625
935.30295	5668.1625
939.07433	5224.9625
942.84309	4922.8625
946.60924	4814.4625
950.37278	4763.7625
954.13371	4750.7625
957.89203	4744.5625
961.64774	4759.9625
965.40086	4715.8625
969.15137	4696.4625
972.89929	4741.6625
976.64461	4699.9625
980.38733	4703.1625
984.12747	4687.1625
987.86502	4708.0625
991.59999	4748.8625
995.33237	4811.3625
999.06217	4886.5625
1002.78939	5028.6625
1006.51404	5285.3625
1010.23611	5414.0625
1013.95561	5310.7625
1017.67255	5176.6625
1021.38692	5054.8625
1025.09872	4945.0625
1028.80796	4863.6625
1032.51465	4904.9625
1036.21877	4925.7625
1039.92035	4995.2625
1043.61937	5032.2625
1047.31584	5104.3625
1051.00976	5132.6625
1054.70114	5078.9625
1058.38998	5040.3625
1062.07627	5035.2625
1065.76003	5056.4625
1069.44126	5119.3625
1073.11995	5224.8625
1076.79611	5457.8625
1080.46974	5845.1625
1084.14085	6389.0625
1087.80943	6868.3625
1091.47549	6855.4625
1095.13903	6433.5625
1098.80005	6001.2625
1102.45857	5800.7625
1106.11456	5774.4625
1109.76805	5783.8625
1113.41903	6066.8625
1117.06751	6539.5625
1120.71348	7324.3625
1124.35696	8479.2625
1127.99793	9299.7625
1131.63641	8659.2625
1135.2724	7420.6625
1138.90589	6574.6625
1142.5369	6051.9625
1146.16542	5767.6625
1149.79145	5551.0625
1153.415	5488.9625
1157.03607	5523.1625
1160.65467	5680.5625
1164.27079	5985.9625
1167.88443	6461.4625
1171.49561	7288.7625
1175.10432	8628.5625
1178.71056	10561.0625
1182.31434	11904.8625
1185.91565	11747.3625
1189.51451	10575.5625
1193.11091	9328.2625
1196.70485	8491.1625
1200.29634	8174.1625
1203.88538	7754.9625
1207.47197	6956.9625
1211.05612	6216.9625
1214.63782	5726.1625
1218.21708	5499.5625
1221.79391	5388.0625
1225.36829	5380.5625
1228.94024	5356.6625
1232.50976	5351.6625
1236.07685	5399.4625
1239.6415	5437.1625
1243.20374	5513.7625
1246.76355	5645.9625
1250.32093	5810.9625
1253.8759	6007.3625
1257.42845	6430.2625
1260.97859	6921.8625
1264.52631	7447.5625
1268.07163	7724.8625
1271.61453	7777.8625
1275.15503	7629.4625
1278.69312	7432.7625
1282.22882	7571.2625
1285.76211	8227.5625
1289.29301	9125.9625
1292.82151	9801.8625
1296.34761	10068.6625
1299.87133	10699.3625
1303.39266	12330.5625
1306.9116	15348.7625
1310.42815	18974.3625
1313.94233	20244.9625
1317.45412	17469.0625
1320.96354	13477.8625
1324.47058	10474.4625
1327.97525	8608.5625
1331.47754	7647.4625
1334.97747	7317.6625
1338.47502	7481.9625
1341.97022	8211.8625
1345.46305	9876.8625
1348.95352	12259.6625
1352.44163	14639.7625
1355.92738	17491.8625
1359.41078	22449.2625
1362.89183	27878.7625
1366.37053	26700.5625
1369.84688	19100.5625
1373.32088	12700.4625
1376.79254	9941.6625
1380.26186	8672.4625
1383.72883	7745.8625
1387.19347	6853.8625
1390.65578	6168.8625
1394.11575	5781.7625
1397.57339	5585.2625
1401.0287	5439.1625
1404.48168	5339.9625
1407.93234	5309.0625
1411.38068	5382.8625
1414.82669	5676.6625
1418.27039	6008.6625
1421.71177	6124.0625
1425.15083	5928.8625
1428.58758	5936.5625
1432.02203	6227.6625
1435.45416	6488.5625
1438.88399	6285.8625
1442.31151	5999.5625
1445.73673	5975.1625
1449.15965	5945.0625
1452.58027	5867.7625
1455.9986	5733.0625
1459.41463	5627.6625
1462.82837	5644.9625
1466.23982	5834.0625
1469.64898	6105.7625
1473.05586	6222.8625
1476.46045	6223.9625
1479.86276	6273.3625
1483.26279	6480.9625
1486.66054	6986.7625
1490.05602	7741.2625
1493.44922	8980.2625
1496.84016	10902.7625
1500.22882	13971.2625
1503.61521	18136.4625
1506.99934	23434.6625
1510.38121	28446.5625
1513.76081	30223.8625
1517.13816	26735.8625
1520.51324	20311.1625
1523.88607	14623.5625
1527.25665	11036.2625
1530.62498	9037.0625
1533.99105	7878.5625
1537.35488	7128.1625
1540.71647	6673.2625
1544.07581	6518.4625
1547.4329	6528.9625
1550.78776	6661.9625
1554.14038	6886.4625
1557.49077	7282.3625
1560.83892	7971.5625
1564.18484	9016.1625
1567.52853	10225.4625
1570.86999	10966.6625
1574.20922	11118.4625
1577.54624	10644.3625
1580.88103	9254.7625
1584.2136	7528.1625
1587.54395	6527.2625
1590.87208	6261.3625
1594.19801	6535.6625
1597.52172	7107.1625
1600.84321	7151.9625
1604.16251	6542.1625
1607.47959	5990.7625
1610.79447	5637.8625
1614.10715	5335.8625
1617.41763	5113.3625
1620.7259	5003.6625
1624.03199	5014.6625
1627.33587	5126.4625
1630.63757	5389.6625
1633.93707	5890.6625
1637.23439	6791.1625
1640.52951	8489.6625
1643.82246	11333.5625
1647.11321	15191.5625
1650.40179	18195.9625
1653.68819	17905.0625
1656.97241	14344.4625
1660.25446	10252.7625
1663.53433	7472.1625
1666.81203	5921.4625
1670.08756	5128.4625
1673.36092	4710.6625
1676.63211	4448.4625
1679.90115	4274.1625
1683.16801	4164.4625
1686.43272	4058.2625
1689.69527	3998.0625
1692.95567	3920.9625
1696.2139	3892.2625
1699.46999	3832.2625
1702.72392	3833.5625
1705.97571	3842.7625
1709.22535	3839.5625
1712.47284	3868.8625
1715.71819	3893.4625
1718.96139	3903.0625
1722.20246	3871.0625
1725.44139	3829.6625
1728.67818	3776.9625
1731.91284	3716.3625
1735.14537	3670.6625
1738.37576	3651.5625
1741.60403	3629.9625
1744.83017	3592.7625
1748.05418	3580.9625
1751.27607	3572.9625
1754.49584	3533.6625
1757.71349	3468.8625
1760.92903	3469.9625
1764.14244	3389.2625
1767.35375	3396.0625
1770.56294	3340.3625
1773.77002	3326.2625
1776.97499	3310.3625
1780.17785	3278.2625
1783.37861	3262.4625
1786.57727	3267.6625
1789.77382	3202.5625
1792.96828	3233.3625
1796.16064	3244.0625
1799.3509	3214.3625
1802.53907	3238.7625
1805.72514	3190.7625
1808.90913	3180.1625
1812.09102	3182.1625
1815.27083	3179.0625
1818.44856	3150.8625
1821.6242	3152.0625
1824.79776	3134.9625
1827.96924	3121.3625
1831.13864	3108.7625
1834.30597	3100.7625
1837.47122	3065.2625
1840.6344	3044.1625
1843.7955	3020.9625
1846.95454	3004.2625
1850.11151	3023.3625
1853.26642	2982.1625
1856.41926	2994.4625
1859.57004	2998.4625
1862.71876	2984.5625
1865.86542	3006.9625
1869.01003	2994.8625
1872.15258	2963.7625
1875.29308	3002.7625
1878.43152	3006.5625
1881.56792	2994.2625
1884.70227	2965.9625
1887.83457	2964.7625
1890.96482	2946.3625
1894.09304	2931.8625
1897.21921	2933.9625
1900.34335	2943.6625
1903.46544	2925.7625
1906.58551	2921.2625
1909.70353	2930.7625
1912.81953	2919.5625
1915.93349	2910.5625
1919.04543	2887.4625
1922.15534	2873.4625
1925.26322	2863.8625
1928.36908	2844.6625
1931.47292	2834.9625
1934.57473	2829.4625
1937.67453	2792.0625
1940.77232	2761.9625
1943.86808	2763.2625
1946.96184	2752.3625
1950.05358	2729.6625
1953.14331	2711.6625
1956.23103	2742.1625
1959.31675	2701.6625
1962.40046	2671.5625
1965.48217	2710.1625
1968.56188	2716.4625
1971.63959	2711.6625
1974.7153	2720.7625
1977.78901	2715.5625
1980.86073	2695.5625
1983.93046	2639.9625
1986.99819	2559.7625
1990.06394	2584.9625
1993.1277	2593.5625
1996.18947	2575.9625
1999.24925	2531.9625
2002.30706	2540.3625
2005.36288	2537.9625
2008.41672	2520.7625
2011.46859	2494.8625
2014.51848	2481.8625
2017.56639	2479.0625
2020.61233	2467.1625
2023.6563	2467.7625
2026.6983	2427.8625
2029.73833	2440.1625
2032.7764	2442.9625
2035.8125	2394.9625
2038.84664	2404.6625
2041.87881	2410.1625
2044.90903	2420.1625
2047.93729	2406.4625
2050.96359	2376.3625
2053.98794	2379.7625
2057.01034	2390.8625
2060.03078	2362.9625
2063.04927	2339.4625
2066.06582	2345.0625
2069.08042	2331.6625
2072.09307	2329.7625
2075.10378	2331.7625
2078.11255	2328.6625
2081.11938	2331.2625
2084.12426	2323.3625
2087.12722	2317.7625
2090.12824	2312.2625
2093.12732	2316.3625
2096.12447	2326.9625
2099.11969	2311.0625
2102.11299	2307.0625
2105.10435	2318.2625
2108.09379	2325.1625
2111.08131	2308.5625
2114.0669	2322.8625
2117.05057	2326.8625
2120.03233	2317.6625
2123.01216	2352.2625
2125.99008	2363.0625
2128.96609	2365.2625
2131.94018	2371.6625
2134.91236	2348.1625
2137.88263	2333.6625
2140.851	2326.3625
2143.81746	2339.9625
2146.78201	2305.2625
2149.74466	2300.2625
2152.7054	2299.1625
2155.66425	2281.8625
2158.6212	2271.2625
2161.57625	2242.8625
2164.52941	2225.9625
2167.48067	2246.3625
2170.43004	2239.2625
2173.37752	2270.4625
2176.32311	2261.5625
2179.26681	2264.8625
2182.20863	2281.7625
2185.14856	2259.1625
2188.08661	2254.5625
2191.02278	2264.0625
2193.95707	2239.5625
2196.88948	2206.9625
2199.82001	2226.1625
2202.74867	2216.2625
2205.67545	2217.6625
2208.60037	2233.8625
2211.52341	2215.7625
2214.44458	2206.7625
2217.36388	2201.5625
2220.28132	2194.1625
2223.1969	2171.4625
2226.11061	2171.9625
2229.02246	2161.6625
2231.93245	2163.2625
2234.84058	2147.8625
2237.74686	2143.0625
2240.65128	2133.1625
2243.55385	2149.3625
2246.45456	2118.8625
2249.35343	2151.9625
2252.25044	2156.6625
2255.14561	2175.5625
2258.03893	2180.6625
2260.93041	2198.8625
2263.82004	2194.5625
2266.70783	2198.9625
2269.59378	2183.0625
2272.4779	2163.4625
2275.36017	2184.8625
2278.24061	2155.8625
2281.11922	2124.3625
2283.996	2144.6625
2286.87094	2115.2625
2289.74405	2119.1625
2292.61534	2102.4625
2295.4848	2090.0625
2298.35243	2079.4625
2301.21824	2062.9625
2304.08223	2063.1625
2306.94439	2077.2625
2309.80474	2065.3625
2312.66327	2067.3625
2315.51999	2052.5625
2318.37489	2055.6625
2321.22797	2026.6625
2324.07925	2025.5625
2326.92871	2039.8625
2329.77637	2017.1625
2332.62222	2026.8625
2335.46626	2004.7625
2338.3085	2010.5625
2341.14893	2012.5625
2343.98756	2040.4625
2346.8244	2016.8625
2349.65943	2011.8625
2352.49267	2025.0625
2355.32411	2026.8625
2358.15376	2042.2625
2360.98161	2062.4625
2363.80768	2044.5625
2366.63195	2074.0625
2369.45444	2098.4625
2372.27514	2087.3625
2375.09405	2096.5625
2377.91118	2054.4625
2380.72652	2057.9625
2383.54009	2044.0625
2386.35187	2045.1625
2389.16188	2004.1625
2391.97011	2008.7625
2394.77657	1982.2625
2397.58125	1987.6625
2400.38416	1966.4625
2403.18529	1954.9625
2405.98466	1929.3625
2408.78226	1940.2625
2411.57809	1930.6625
2414.37216	1923.0625
2417.16446	1926.8625
2419.955	1911.7625
2422.74378	1931.5625
2425.5308	1924.8625
2428.31606	1923.5625
2431.09956	1931.9625
2433.88131	1918.9625
2436.6613	1947.9625
2439.43954	1935.8625
2442.21603	1923.2625
2444.99077	1925.0625
2447.76377	1941.2625
2450.53501	1939.9625
2453.30451	1941.7625
2456.07226	1951.7625
2458.83827	1945.0625
2461.60254	1894.7625
2464.36507	1933.2625
2467.12586	1906.2625
2469.88492	1929.3625
2472.64224	1933.0625
2475.39782	1908.8625
2478.15167	1933.6625
2480.90379	1936.5625
2483.65417	1965.8625
2486.40283	1981.2625
2489.14976	1998.7625
2491.89497	1982.9625
2494.63845	1984.6625
2497.3802	1961.3625
2500.12024	1957.7625
2502.85855	1944.3625
2505.59514	1944.4625
2508.33002	1910.1625
2511.06318	1879.4625
2513.79462	1868.6625
2516.52435	1830.1625
2519.25237	1788.1625
2521.97867	1801.8625
2524.70327	1793.6625
2527.42616	1792.8625
2530.14734	1790.7625
2532.86681	1765.9625
2535.58458	1771.9625
2538.30065	1770.2625
2541.01501	1790.4625
2543.72768	1766.8625
2546.43864	1785.5625
2549.14791	1780.6625
2551.85548	1765.6625
2554.56136	1776.5625
2557.26554	1788.0625
2559.96803	1788.1625
2562.66883	1788.1625
2565.36794	1782.5625
2568.06536	1736.2625
2570.7611	1785.2625
2573.45514	1770.6625
2576.14751	1770.9625
2578.83819	1740.6625
2581.52719	1733.7625
2584.21451	1736.3625
2586.90015	1713.0625
2589.58411	1700.1625
2592.2664	1719.9625
2594.94701	1723.2625
2597.62594	1722.3625
2600.30321	1660.4625
2602.9788	1686.1625
2605.65273	1681.2625
2608.32498	1681.2625
2610.99557	1706.2625
2613.66449	1679.7625
2616.33175	1698.0625
2618.99734	1694.7625
2621.66128	1700.9625
2624.32355	1680.7625
2626.98416	1661.5625
2629.64311	1649.4625
2632.30041	1660.7625
2634.95605	1627.5625
2637.61004	1622.7625
2640.26238	1610.0625
2642.91306	1606.1625
2645.56209	1620.4625
2648.20948	1613.2625
2650.85521	1594.1625
2653.4993	1623.0625
2656.14175	1621.3625
2658.78255	1607.2625
2661.42171	1591.0625
2664.05923	1621.5625
2666.6951	1635.6625
2669.32934	1636.1625
2671.96194	1650.6625
2674.59291	1639.7625
2677.22224	1645.3625
2679.84993	1638.2625
2682.476	1633.1625
2685.10043	1620.0625
2687.72324	1614.1625
2690.34441	1618.4625
2692.96396	1604.3625
2695.58188	1621.3625
2698.19818	1606.0625
2700.81285	1596.7625
2703.4259	1585.2625
2706.03733	1564.2625
2708.64714	1570.7625
2711.25533	1597.8625
2713.86191	1605.0625
2716.46687	1599.9625
2719.07021	1600.4625
2721.67194	1598.8625
2724.27206	1608.0625
2726.87057	1592.2625
2729.46747	1574.9625
2732.06276	1576.6625
2734.65644	1560.5625
2737.24852	1563.8625
2739.83899	1544.0625
2742.42786	1558.2625
2745.01513	1559.3625
2747.60079	1532.0625
2750.18486	1515.8625
2752.76733	1526.5625
2755.3482	1516.6625
2757.92747	1508.0625
2760.50515	1489.4625
2763.08123	1486.1625
2765.65573	1490.5625
2768.22863	1484.0625
2770.79994	1473.2625
2773.36967	1474.7625
2775.9378	1470.9625
2778.50435	1468.1625
2781.06932	1474.0625
2783.6327	1457.0625
2786.1945	1474.4625
2788.75471	1464.2625
2791.31335	1468.2625
2793.87041	1464.7625
2796.42589	1455.6625
2798.97979	1461.9625
2801.53212	1464.5625
2804.08288	1483.0625
2806.63206	1478.8625
2809.17967	1461.1625
2811.72571	1489.2625
2814.27018	1499.8625
2816.81308	1501.3625
2819.35442	1470.5625
2821.89419	1507.8625
2824.43239	1501.0625
2826.96904	1524.9625
2829.50412	1500.6625
2832.03763	1517.1625
2834.56959	1503.2625
2837.1	1483.9625
2839.62884	1476.7625
2842.15613	1484.7625
2844.68186	1477.2625
2847.20604	1467.0625
2849.72867	1457.0625
2852.24974	1477.7625
2854.76927	1457.8625
2857.28724	1419.0625
2859.80367	1496.4625
2862.31855	1520.5625
2864.83189	1513.6625
2867.34368	1519.3625
2869.85393	1548.8625
2872.36264	1518.7625
2874.8698	1528.2625
2877.37543	1530.6625
2879.87952	1514.4625
2882.38207	1493.4625
2884.88308	1490.5625
2887.38256	1493.4625
2889.88051	1466.0625
2892.37692	1469.0625
2894.8718	1448.0625
2897.36515	1466.9625
2899.85698	1464.8625
2902.34727	1456.8625
2904.83604	1467.8625
2907.32328	1488.8625
2909.809	1504.6625
2912.29319	1512.7625
2914.77587	1517.6625
2917.25702	1525.6625
2919.73665	1527.2625
2922.21476	1505.0625
2924.69136	1496.6625
2927.16644	1466.5625
2929.64	1454.2625
2932.11205	1430.3625
2934.58258	1436.4625
2937.05161	1431.5625
2939.51912	1429.8625
2941.98513	1440.1625
2944.44962	1424.4625
2946.91261	1401.7625
2949.37409	1418.2625
2951.83407	1416.1625
2954.29254	1416.4625
2956.74951	1420.9625
2959.20498	1402.6625
2961.65895	1410.0625
2964.11142	1407.7625
2966.56239	1402.1625
2969.01186	1405.2625
2971.45984	1400.3625
2973.90632	1391.5625
2976.35131	1405.2625
2978.7948	1401.7625
2981.23681	1403.1625
2983.67732	1397.8625
2986.11635	1404.7625
2988.55388	1375.2625
2990.98993	1390.5625
2993.4245	1385.5625
2995.85758	1375.9625
2998.28917	1386.9625
3000.71928	1375.9625
3003.14791	1377.4625
3005.57506	1367.5625
3008.00073	1355.4625
3010.42493	1306.8625
3012.84764	1364.6625
3015.26888	1354.3625
3017.68865	1349.3625
3020.10694	1313.2625
3022.52376	1336.7625
3024.9391	1321.7625
3027.35298	1315.3625
3029.76539	1290.6625
3032.17632	1282.1625
3034.5858	1276.6625
3036.9938	1273.8625
3039.40034	1264.9625
3041.80542	1253.3625
3044.20903	1226.5625
3046.61118	1222.8625
3049.01187	1233.6625
3051.4111	1217.3625
3053.80888	1219.3625
3056.20519	1210.4625
3058.60005	1194.4625
3060.99345	1225.4625
3063.3854	1197.4625
3065.7759	1188.7625
3068.16494	1181.4625
3070.55254	1174.1625
3072.93868	1187.6625
3075.32338	1178.0625
3077.70662	1171.0625
3080.08842	1165.5625
3082.46878	1153.5625
3084.84769	1174.9625
3087.22515	1147.7625
3089.60118	1168.6625
3091.97576	1150.5625
3094.3489	1155.4625
3096.72061	1147.4625
3099.09087	1145.4625
3101.4597	1148.0625
3103.82709	1140.6625
3106.19305	1131.7625
3108.55757	1142.7625
3110.92066	1126.5625
3113.28232	1146.4625
3115.64255	1142.6625
3118.00134	1145.0625
3120.35871	1119.9625
3122.71466	1109.9625
3125.06917	1124.6625
3127.42226	1119.7625
3129.77393	1102.3625
3132.12417	1116.1625
3134.47299	1120.8625
3136.82039	1110.1625
3139.16636	1083.5625
3141.51092	1105.2625
3143.85406	1122.1625
3146.19579	1096.0625
3148.53609	1101.0625
3150.87499	1120.0625
3153.21246	1100.4625
3155.54853	1109.6625
3157.88318	1122.0625
3160.21642	1116.2625
3162.54826	1109.4625
3164.87868	1113.6625
3167.2077	1070.2625
3169.5353	1093.2625
3171.86151	1096.1625
3174.18631	1075.6625
3176.5097	1082.6625
3178.83169	1075.1625
3181.15228	1076.9625
3183.47147	1050.6625
3185.78926	1041.5625
3188.10565	1042.1625
3190.42065	1023.5625
3192.73424	1033.5625
3195.04645	1036.1625
3197.35725	1029.0625
3199.66667	1036.9625
3201.97469	1036.2625
3204.28132	1029.3625
3206.58656	1041.5625
3208.8904	1045.5625
3211.19287	1042.4625
3213.49394	1037.5625
3215.79363	1038.4625
3218.09193	1051.8625
3220.38884	1036.6625
3222.68438	1035.3625
3224.97853	1012.1625
3227.2713	1038.7625
3229.56269	1023.8625
3231.8527	1027.3625
3234.14133	1014.4625
3236.42858	1009.9625
3238.71446	997.0625
3240.99896	1020.6625
3243.28209	993.0625
3245.56384	1004.8625
3247.84423	990.1625
3250.12324	1000.2625
3252.40088	999.4625
3254.67715	982.4625
3256.95205	979.2625
3259.22558	1000.4625
3261.49775	992.5625
3263.76855	983.1625
3266.03799	990.3625
3268.30606	1001.7625
3270.57277	1000.5625
3272.83812	983.7625
3275.10211	987.2625
3277.36474	1004.8625
3279.62601	1000.0625
3281.88593	987.0625
3284.14448	974.9625
3286.40168	995.0625
3288.65753	994.6625
3290.91202	1000.7625
3293.16516	989.2625
3295.41695	1021.3625
3297.66738	1028.3625
3299.91647	1004.3625
3302.16421	1015.3625
3304.4106	980.1625
3306.65564	1010.0625
3308.89933	988.1625
3311.14169	985.8625
3313.38269	983.0625
3315.62236	972.4625
3317.86068	970.8625
3320.09766	978.2625
3322.3333	960.4625
3324.5676	959.1625
3326.80056	948.8625
3329.03219	951.5625
3331.26248	-0.5375
3333.49143	-0.1375
3335.71905	0.8625
