Data from AgNPs_UA_5uM_CRN_500uM_SU_RamanShift__172__11-58-03-174.txt Node

Date: Thu Aug 04 11:58:03 BST 2022
User: TCL
Spectrometer: QEP01345
Trigger mode: 4
Integration Time (sec): 1.000000E0
Scans to average: 10
Electric dark correction enabled: true
Nonlinearity correction enabled: false
Boxcar width: 0
XAxis mode: Raman Shifts
Number of Pixels in Spectrum: 1044
>>>>>Begin Spectral Data<<<<<
46.04893	0.8875
50.45542	0.4875
54.85868	-0.0125
59.25871	-1.2125
63.6555	-57.3125
68.04907	-39.5125
72.43941	-71.4125
76.82654	-58.3125
81.21044	-55.2125
85.59113	-49.1125
89.96862	-74.1125
94.34289	-56.3125
98.71396	-77.4125
103.08183	-58.8125
107.4465	-49.9125
111.80798	-55.6125
116.16626	-43.5125
120.52136	-74.2125
124.87327	-50.4125
129.222	-61.7125
133.56755	-47.5125
137.90993	-62.0125
142.24913	-48.2125
146.58517	-43.2125
150.91804	-41.6125
155.24774	-29.9125
159.57429	-8.9125
163.89768	-5.5125
168.21792	36.5875
172.53501	57.2875
176.84895	141.8875
181.15975	270.9875
185.46741	424.5875
189.77193	604.0875
194.07331	896.8875
198.37157	1179.3875
202.6667	1456.9875
206.9587	1786.7875
211.24758	2088.5875
215.53334	2425.8875
219.81599	2773.4875
224.09553	3184.4875
228.37195	3629.2875
232.64527	4081.4875
236.91549	4540.9875
241.18261	4895.2875
245.44663	5194.1875
249.70755	5371.2875
253.96539	5503.1875
258.22014	5610.4875
262.4718	5660.2875
266.72039	5709.2875
270.96589	5671.7875
275.20832	5570.5875
279.44768	5459.2875
283.68397	5365.4875
287.91719	5294.1875
292.14735	5328.2875
296.37445	5482.3875
300.59849	5764.1875
304.81948	6110.4875
309.03742	6466.3875
313.25231	6699.8875
317.46415	6650.1875
321.67296	6254.7875
325.87872	5870.9875
330.08145	5680.7875
334.28114	5640.5875
338.47781	5710.1875
342.67145	5826.6875
346.86207	6064.0875
351.04966	6453.9875
355.23424	6834.9875
359.4158	7119.2875
363.59435	7145.9875
367.76989	7086.8875
371.94243	6959.1875
376.11196	6830.9875
380.27849	6772.5875
384.44203	6699.4875
388.60257	6663.8875
392.76012	6651.7875
396.91468	6783.2875
401.06626	6941.2875
405.21485	6961.9875
409.36047	6807.6875
413.50311	6496.5875
417.64277	6210.7875
421.77947	6005.9875
425.9132	5945.0875
430.04396	5931.8875
434.17176	5950.2875
438.2966	6062.9875
442.41849	6158.0875
446.53742	6272.6875
450.6534	6385.1875
454.76644	6446.5875
458.87653	6458.5875
462.98368	6404.3875
467.08789	6364.5875
471.18916	6269.2875
475.2875	6164.9875
479.38291	6063.5875
483.4754	5964.8875
487.56496	5942.0875
491.6516	5886.4875
495.73531	5886.2875
499.81612	5937.2875
503.89401	6006.5875
507.96899	6052.5875
512.04106	6149.0875
516.11023	6264.1875
520.1765	6341.0875
524.23987	6358.5875
528.30034	6374.0875
532.35792	6259.5875
536.41261	6240.2875
540.46441	6146.4875
544.51333	6104.8875
548.55936	6128.1875
552.60252	6267.4875
556.64279	6337.6875
560.6802	6475.7875
564.71473	6634.2875
568.7464	6810.3875
572.7752	6789.4875
576.80114	6472.5875
580.82422	6224.9875
584.84444	6118.7875
588.86181	6105.2875
592.87633	6134.8875
596.888	6264.9875
600.89682	6639.2875
604.9028	7581.9875
608.90594	9674.2875
612.90624	11958.0875
616.90371	11104.2875
620.89834	8072.2875
624.89015	6767.7875
628.87913	6604.7875
632.86528	6721.4875
636.84862	6881.4875
640.82913	6781.3875
644.80683	6415.2875
648.78172	6257.5875
652.75379	6270.3875
656.72306	6502.7875
660.68952	6737.9875
664.65319	6651.4875
668.61405	6430.9875
672.57211	6349.8875
676.52738	6376.1875
680.47986	6267.6875
684.42955	6170.6875
688.37646	6133.5875
692.32058	6128.6875
696.26192	6208.0875
700.20048	6320.1875
704.13626	6351.6875
708.06928	6300.4875
711.99952	6286.0875
715.927	6251.0875
719.85171	6273.7875
723.77365	6335.4875
727.69284	6307.8875
731.60928	6297.2875
735.52295	6276.1875
739.43388	6317.5875
743.34206	6342.0875
747.24749	6348.8875
751.15017	6371.3875
755.05012	6435.2875
758.94733	6805.5875
762.8418	7618.0875
766.73354	8934.2875
770.62254	9908.2875
774.50882	9979.6875
778.39237	9472.3875
782.27321	8585.4875
786.15132	7547.0875
790.02671	6890.7875
793.89938	6508.7875
797.76935	6409.0875
801.6366	6324.3875
805.50115	6280.4875
809.36299	6256.5875
813.22213	6257.8875
817.07857	6266.9875
820.93231	6259.9875
824.78336	6292.2875
828.63172	6293.9875
832.47738	6299.7875
836.32036	6327.2875
840.16066	6267.6875
843.99827	6275.7875
847.8332	6269.0875
851.66546	6279.8875
855.49504	6282.7875
859.32195	6306.6875
863.1462	6297.1875
866.96777	6302.0875
870.78668	6289.7875
874.60293	6309.2875
878.41652	6337.0875
882.22745	6419.1875
886.03573	6441.3875
889.84136	6444.8875
893.64433	6435.4875
897.44466	6438.1875
901.24235	6429.5875
905.0374	6403.5875
908.8298	6350.9875
912.61957	6307.9875
916.40671	6274.8875
920.19121	6341.5875
923.97308	6414.8875
927.75233	6463.1875
931.52895	6539.7875
935.30295	6517.5875
939.07433	6371.4875
942.84309	6238.2875
946.60924	6236.2875
950.37278	6204.4875
954.13371	6196.5875
957.89203	6187.1875
961.64774	6210.7875
965.40086	6195.2875
969.15137	6144.9875
972.89929	6186.7875
976.64461	6183.0875
980.38733	6194.6875
984.12747	6187.4875
987.86502	6215.1875
991.59999	6253.5875
995.33237	6323.2875
999.06217	6381.7875
1002.78939	6480.5875
1006.51404	6596.5875
1010.23611	6730.7875
1013.95561	6751.4875
1017.67255	6755.1875
1021.38692	6727.4875
1025.09872	6672.8875
1028.80796	6595.5875
1032.51465	6569.8875
1036.21877	6589.9875
1039.92035	6621.8875
1043.61937	6669.4875
1047.31584	6698.6875
1051.00976	6737.9875
1054.70114	6754.7875
1058.38998	6726.4875
1062.07627	6746.5875
1065.76003	6772.0875
1069.44126	6857.6875
1073.11995	6931.5875
1076.79611	7062.6875
1080.46974	7212.9875
1084.14085	7363.6875
1087.80943	7510.7875
1091.47549	7549.5875
1095.13903	7455.3875
1098.80005	7350.6875
1102.45857	7236.4875
1106.11456	7193.0875
1109.76805	7159.5875
1113.41903	7268.7875
1117.06751	7423.1875
1120.71348	7666.2875
1124.35696	8056.1875
1127.99793	8314.7875
1131.63641	8171.1875
1135.2724	7754.6875
1138.90589	7478.0875
1142.5369	7284.2875
1146.16542	7196.7875
1149.79145	7074.6875
1153.415	7045.7875
1157.03607	7039.6875
1160.65467	7116.5875
1164.27079	7291.9875
1167.88443	7538.6875
1171.49561	7935.3875
1175.10432	8541.8875
1178.71056	9428.3875
1182.31434	10179.6875
1185.91565	10420.7875
1189.51451	10284.2875
1193.11091	10018.5875
1196.70485	9794.0875
1200.29634	9606.0875
1203.88538	9323.3875
1207.47197	8909.9875
1211.05612	8460.6875
1214.63782	8061.1875
1218.21708	7825.2875
1221.79391	7677.0875
1225.36829	7574.8875
1228.94024	7589.3875
1232.50976	7573.5875
1236.07685	7609.5875
1239.6415	7645.0875
1243.20374	7695.4875
1246.76355	7704.9875
1250.32093	7798.2875
1253.8759	7843.6875
1257.42845	8031.8875
1260.97859	8233.8875
1264.52631	8478.6875
1268.07163	8605.2875
1271.61453	8745.7875
1275.15503	8783.4875
1278.69312	8776.1875
1282.22882	8844.3875
1285.76211	9059.8875
1289.29301	9291.0875
1292.82151	9552.8875
1296.34761	9769.9875
1299.87133	10159.4875
1303.39266	10856.4875
1306.9116	11968.0875
1310.42815	13179.5875
1313.94233	13574.8875
1317.45412	12796.4875
1320.96354	11684.9875
1324.47058	10703.1875
1327.97525	9968.3875
1331.47754	9576.7875
1334.97747	9465.2875
1338.47502	9600.7875
1341.97022	9951.6875
1345.46305	10641.8875
1348.95352	11731.9875
1352.44163	12954.2875
1355.92738	14232.8875
1359.41078	15833.2875
1362.89183	17310.7875
1366.37053	16648.6875
1369.84688	13876.7875
1373.32088	11291.7875
1376.79254	9949.8875
1380.26186	9337.1875
1383.72883	8918.3875
1387.19347	8543.7875
1390.65578	8208.1875
1394.11575	7957.7875
1397.57339	7809.1875
1401.0287	7719.5875
1404.48168	7670.4875
1407.93234	7690.5875
1411.38068	7721.0875
1414.82669	7794.1875
1418.27039	7897.8875
1421.71177	7848.6875
1425.15083	7763.0875
1428.58758	7705.3875
1432.02203	7720.1875
1435.45416	7837.2875
1438.88399	7811.6875
1442.31151	7795.4875
1445.73673	7877.8875
1449.15965	7907.6875
1452.58027	7937.6875
1455.9986	7941.9875
1459.41463	7944.9875
1462.82837	8032.5875
1466.23982	8205.7875
1469.64898	8430.4875
1473.05586	8576.8875
1476.46045	8656.4875
1479.86276	8708.3875
1483.26279	8808.2875
1486.66054	9000.0875
1490.05602	9243.1875
1493.44922	9785.5875
1496.84016	10632.5875
1500.22882	11968.0875
1503.61521	13633.0875
1506.99934	15349.8875
1510.38121	16551.2875
1513.76081	16409.6875
1517.13816	14909.0875
1520.51324	12797.6875
1523.88607	11157.5875
1527.25665	10182.8875
1530.62498	9686.0875
1533.99105	9483.7875
1537.35488	9338.0875
1540.71647	9261.8875
1544.07581	9154.3875
1547.4329	9022.8875
1550.78776	8923.4875
1554.14038	8864.1875
1557.49077	8824.8875
1560.83892	8929.1875
1564.18484	9124.8875
1567.52853	9462.8875
1570.86999	9741.8875
1574.20922	9882.6875
1577.54624	9772.2875
1580.88103	9289.6875
1584.2136	8633.4875
1587.54395	8298.1875
1590.87208	8211.8875
1594.19801	8392.8875
1597.52172	8738.5875
1600.84321	8889.4875
1604.16251	8756.9875
1607.47959	8564.8875
1610.79447	8408.4875
1614.10715	8092.9875
1617.41763	7788.6875
1620.7259	7524.5875
1624.03199	7382.3875
1627.33587	7299.9875
1630.63757	7377.9875
1633.93707	7592.3875
1637.23439	8003.6875
1640.52951	8678.5875
1643.82246	9628.0875
1647.11321	10760.2875
1650.40179	11467.6875
1653.68819	11118.3875
1656.97241	9906.4875
1660.25446	8533.8875
1663.53433	7573.9875
1666.81203	6958.8875
1670.08756	6640.9875
1673.36092	6490.9875
1676.63211	6347.5875
1679.90115	6254.4875
1683.16801	6174.3875
1686.43272	6092.2875
1689.69527	6048.6875
1692.95567	5972.4875
1696.2139	5962.9875
1699.46999	5899.7875
1702.72392	5898.8875
1705.97571	5907.6875
1709.22535	5896.6875
1712.47284	5937.8875
1715.71819	5945.1875
1718.96139	5928.9875
1722.20246	5919.7875
1725.44139	5888.7875
1728.67818	5859.3875
1731.91284	5815.5875
1735.14537	5782.4875
1738.37576	5746.3875
1741.60403	5751.9875
1744.83017	5704.6875
1748.05418	5710.9875
1751.27607	5718.9875
1754.49584	5674.1875
1757.71349	5654.7875
1760.92903	5633.2875
1764.14244	5588.0875
1767.35375	5607.5875
1770.56294	5576.1875
1773.77002	5569.3875
1776.97499	5579.7875
1780.17785	5561.0875
1783.37861	5564.2875
1786.57727	5568.3875
1789.77382	5511.4875
1792.96828	5538.7875
1796.16064	5541.2875
1799.3509	5519.1875
1802.53907	5527.1875
1805.72514	5484.6875
1808.90913	5481.4875
1812.09102	5466.3875
1815.27083	5457.9875
1818.44856	5430.6875
1821.6242	5427.7875
1824.79776	5410.0875
1827.96924	5412.7875
1831.13864	5393.6875
1834.30597	5396.3875
1837.47122	5370.4875
1840.6344	5365.0875
1843.7955	5356.4875
1846.95454	5336.9875
1850.11151	5359.7875
1853.26642	5324.1875
1856.41926	5314.1875
1859.57004	5335.8875
1862.71876	5317.5875
1865.86542	5321.8875
1869.01003	5317.4875
1872.15258	5298.0875
1875.29308	5310.7875
1878.43152	5313.0875
1881.56792	5294.9875
1884.70227	5267.6875
1887.83457	5269.9875
1890.96482	5235.3875
1894.09304	5251.2875
1897.21921	5247.6875
1900.34335	5238.0875
1903.46544	5207.9875
1906.58551	5233.6875
1909.70353	5227.0875
1912.81953	5219.7875
1915.93349	5208.1875
1919.04543	5205.6875
1922.15534	5179.6875
1925.26322	5192.4875
1928.36908	5158.1875
1931.47292	5170.7875
1934.57473	5168.0875
1937.67453	5127.1875
1940.77232	5100.8875
1943.86808	5108.2875
1946.96184	5089.4875
1950.05358	5056.1875
1953.14331	5061.1875
1956.23103	5054.2875
1959.31675	5035.7875
1962.40046	4963.2875
1965.48217	4986.9875
1968.56188	4999.9875
1971.63959	4957.3875
1974.7153	4973.8875
1977.78901	4952.6875
1980.86073	4924.0875
1983.93046	4902.7875
1986.99819	4815.2875
1990.06394	4844.3875
1993.1277	4860.5875
1996.18947	4832.6875
1999.24925	4791.7875
2002.30706	4822.4875
2005.36288	4790.7875
2008.41672	4752.5875
2011.46859	4739.2875
2014.51848	4743.0875
2017.56639	4725.8875
2020.61233	4692.8875
2023.6563	4699.1875
2026.6983	4643.4875
2029.73833	4673.0875
2032.7764	4666.5875
2035.8125	4620.8875
2038.84664	4627.8875
2041.87881	4612.0875
2044.90903	4622.1875
2047.93729	4594.2875
2050.96359	4571.3875
2053.98794	4579.5875
2057.01034	4582.2875
2060.03078	4552.0875
2063.04927	4556.6875
2066.06582	4560.4875
2069.08042	4538.8875
2072.09307	4545.9875
2075.10378	4549.0875
2078.11255	4531.0875
2081.11938	4551.3875
2084.12426	4539.4875
2087.12722	4522.1875
2090.12824	4517.6875
2093.12732	4515.5875
2096.12447	4548.3875
2099.11969	4521.5875
2102.11299	4503.4875
2105.10435	4534.9875
2108.09379	4526.1875
2111.08131	4527.3875
2114.0669	4524.7875
2117.05057	4512.2875
2120.03233	4510.5875
2123.01216	4522.2875
2125.99008	4532.0875
2128.96609	4532.7875
2131.94018	4557.3875
2134.91236	4541.4875
2137.88263	4536.7875
2140.851	4546.2875
2143.81746	4563.9875
2146.78201	4530.9875
2149.74466	4529.4875
2152.7054	4535.2875
2155.66425	4536.5875
2158.6212	4520.8875
2161.57625	4493.8875
2164.52941	4479.8875
2167.48067	4503.9875
2170.43004	4491.8875
2173.37752	4495.7875
2176.32311	4497.2875
2179.26681	4483.6875
2182.20863	4496.4875
2185.14856	4495.1875
2188.08661	4486.5875
2191.02278	4497.8875
2193.95707	4472.2875
2196.88948	4471.3875
2199.82001	4481.3875
2202.74867	4469.1875
2205.67545	4469.8875
2208.60037	4470.3875
2211.52341	4447.4875
2214.44458	4455.1875
2217.36388	4433.4875
2220.28132	4413.3875
2223.1969	4387.1875
2226.11061	4396.9875
2229.02246	4380.8875
2231.93245	4390.3875
2234.84058	4370.0875
2237.74686	4368.8875
2240.65128	4327.9875
2243.55385	4344.0875
2246.45456	4301.1875
2249.35343	4335.0875
2252.25044	4321.6875
2255.14561	4332.8875
2258.03893	4318.0875
2260.93041	4314.4875
2263.82004	4305.5875
2266.70783	4311.0875
2269.59378	4274.5875
2272.4779	4247.3875
2275.36017	4266.9875
2278.24061	4239.6875
2281.11922	4218.3875
2283.996	4210.4875
2286.87094	4202.0875
2289.74405	4214.5875
2292.61534	4200.5875
2295.4848	4191.8875
2298.35243	4189.1875
2301.21824	4176.0875
2304.08223	4173.3875
2306.94439	4179.6875
2309.80474	4197.4875
2312.66327	4166.8875
2315.51999	4148.1875
2318.37489	4149.1875
2321.22797	4134.9875
2324.07925	4126.7875
2326.92871	4114.1875
2329.77637	4097.5875
2332.62222	4093.3875
2335.46626	4077.1875
2338.3085	4071.6875
2341.14893	4087.6875
2343.98756	4088.5875
2346.8244	4073.2875
2349.65943	4046.6875
2352.49267	4072.2875
2355.32411	4063.9875
2358.15376	4066.8875
2360.98161	4061.5875
2363.80768	4049.5875
2366.63195	4050.4875
2369.45444	4059.1875
2372.27514	4043.9875
2375.09405	4075.9875
2377.91118	4034.5875
2380.72652	4033.6875
2383.54009	4025.0875
2386.35187	4019.5875
2389.16188	3997.1875
2391.97011	3981.1875
2394.77657	3989.2875
2397.58125	3973.2875
2400.38416	3953.5875
2403.18529	3946.3875
2405.98466	3944.0875
2408.78226	3941.6875
2411.57809	3931.2875
2414.37216	3917.7875
2417.16446	3916.5875
2419.955	3905.2875
2422.74378	3903.2875
2425.5308	3890.7875
2428.31606	3890.9875
2431.09956	3896.6875
2433.88131	3888.0875
2436.6613	3867.8875
2439.43954	3869.9875
2442.21603	3869.1875
2444.99077	3839.2875
2447.76377	3867.4875
2450.53501	3845.2875
2453.30451	3842.2875
2456.07226	3845.2875
2458.83827	3836.0875
2461.60254	3798.7875
2464.36507	3828.8875
2467.12586	3797.9875
2469.88492	3817.1875
2472.64224	3821.5875
2475.39782	3798.0875
2478.15167	3807.0875
2480.90379	3820.2875
2483.65417	3815.2875
2486.40283	3827.6875
2489.14976	3827.2875
2491.89497	3801.3875
2494.63845	3801.4875
2497.3802	3799.2875
2500.12024	3796.2875
2502.85855	3792.7875
2505.59514	3780.7875
2508.33002	3782.0875
2511.06318	3756.5875
2513.79462	3749.6875
2516.52435	3717.0875
2519.25237	3697.2875
2521.97867	3696.9875
2524.70327	3706.1875
2527.42616	3705.3875
2530.14734	3709.6875
2532.86681	3693.9875
2535.58458	3679.1875
2538.30065	3676.6875
2541.01501	3690.4875
2543.72768	3667.2875
2546.43864	3688.6875
2549.14791	3661.8875
2551.85548	3641.9875
2554.56136	3651.6875
2557.26554	3663.5875
2559.96803	3644.5875
2562.66883	3643.4875
2565.36794	3624.3875
2568.06536	3583.1875
2570.7611	3604.5875
2573.45514	3594.9875
2576.14751	3593.3875
2578.83819	3570.9875
2581.52719	3560.0875
2584.21451	3568.0875
2586.90015	3548.2875
2589.58411	3521.5875
2592.2664	3535.3875
2594.94701	3533.7875
2597.62594	3523.8875
2600.30321	3471.7875
2602.9788	3489.7875
2605.65273	3479.4875
2608.32498	3469.8875
2610.99557	3497.2875
2613.66449	3462.4875
2616.33175	3484.2875
2618.99734	3475.3875
2621.66128	3475.0875
2624.32355	3464.9875
2626.98416	3439.5875
2629.64311	3440.6875
2632.30041	3429.8875
2634.95605	3421.9875
2637.61004	3401.7875
2640.26238	3387.2875
2642.91306	3397.3875
2645.56209	3415.7875
2648.20948	3393.6875
2650.85521	3372.3875
2653.4993	3414.7875
2656.14175	3385.6875
2658.78255	3391.4875
2661.42171	3348.0875
2664.05923	3394.7875
2666.6951	3396.6875
2669.32934	3402.3875
2671.96194	3414.4875
2674.59291	3390.6875
2677.22224	3401.8875
2679.84993	3385.3875
2682.476	3370.3875
2685.10043	3385.7875
2687.72324	3361.2875
2690.34441	3364.5875
2692.96396	3367.6875
2695.58188	3375.0875
2698.19818	3379.2875
2700.81285	3365.9875
2703.4259	3346.0875
2706.03733	3319.2875
2708.64714	3329.1875
2711.25533	3354.8875
2713.86191	3355.2875
2716.46687	3354.4875
2719.07021	3357.8875
2721.67194	3353.7875
2724.27206	3359.3875
2726.87057	3348.2875
2729.46747	3344.4875
2732.06276	3342.6875
2734.65644	3338.8875
2737.24852	3330.3875
2739.83899	3305.5875
2742.42786	3308.2875
2745.01513	3314.6875
2747.60079	3302.5875
2750.18486	3288.3875
2752.76733	3287.2875
2755.3482	3290.5875
2757.92747	3288.5875
2760.50515	3268.1875
2763.08123	3266.5875
2765.65573	3267.2875
2768.22863	3258.5875
2770.79994	3242.0875
2773.36967	3241.7875
2775.9378	3237.2875
2778.50435	3227.3875
2781.06932	3215.0875
2783.6327	3205.1875
2786.1945	3223.9875
2788.75471	3230.2875
2791.31335	3203.5875
2793.87041	3203.3875
2796.42589	3189.8875
2798.97979	3183.8875
2801.53212	3182.4875
2804.08288	3188.7875
2806.63206	3179.9875
2809.17967	3149.1875
2811.72571	3158.3875
2814.27018	3161.1875
2816.81308	3135.2875
2819.35442	3102.5875
2821.89419	3129.7875
2824.43239	3103.5875
2826.96904	3124.8875
2829.50412	3123.0875
2832.03763	3105.9875
2834.56959	3102.4875
2837.1	3102.9875
2839.62884	3104.0875
2842.15613	3088.6875
2844.68186	3105.6875
2847.20604	3079.3875
2849.72867	3062.9875
2852.24974	3085.1875
2854.76927	3038.0875
2857.28724	3007.0875
2859.80367	3063.6875
2862.31855	3066.0875
2864.83189	3040.5875
2867.34368	3052.9875
2869.85393	3066.6875
2872.36264	3034.3875
2874.8698	3033.6875
2877.37543	3044.7875
2879.87952	3039.0875
2882.38207	3018.9875
2884.88308	3017.4875
2887.38256	3016.2875
2889.88051	3027.3875
2892.37692	3013.6875
2894.8718	2987.3875
2897.36515	3016.7875
2899.85698	3003.7875
2902.34727	3011.3875
2904.83604	3008.0875
2907.32328	3024.2875
2909.809	3022.7875
2912.29319	3022.5875
2914.77587	3028.8875
2917.25702	3025.6875
2919.73665	3046.9875
2922.21476	3031.7875
2924.69136	3033.6875
2927.16644	3003.2875
2929.64	3009.0875
2932.11205	2999.8875
2934.58258	3001.3875
2937.05161	2986.3875
2939.51912	2978.3875
2941.98513	3000.5875
2944.44962	2979.4875
2946.91261	2950.1875
2949.37409	2970.3875
2951.83407	2951.2875
2954.29254	2956.8875
2956.74951	2956.2875
2959.20498	2936.9875
2961.65895	2947.7875
2964.11142	2936.7875
2966.56239	2933.4875
2969.01186	2933.9875
2971.45984	2931.9875
2973.90632	2915.0875
2976.35131	2922.8875
2978.7948	2900.9875
2981.23681	2904.8875
2983.67732	2896.7875
2986.11635	2901.3875
2988.55388	2867.8875
2990.98993	2875.3875
2993.4245	2865.9875
2995.85758	2847.6875
2998.28917	2855.1875
3000.71928	2826.0875
3003.14791	2828.0875
3005.57506	2819.7875
3008.00073	2793.0875
3010.42493	2743.7875
3012.84764	2798.2875
3015.26888	2811.0875
3017.68865	2801.7875
3020.10694	2741.5875
3022.52376	2762.7875
3024.9391	2755.6875
3027.35298	2743.4875
3029.76539	2742.9875
3032.17632	2737.5875
3034.5858	2718.4875
3036.9938	2733.6875
3039.40034	2726.8875
3041.80542	2717.5875
3044.20903	2692.1875
3046.61118	2692.2875
3049.01187	2707.3875
3051.4111	2684.0875
3053.80888	2674.5875
3056.20519	2670.2875
3058.60005	2648.9875
3060.99345	2682.9875
3063.3854	2637.9875
3065.7759	2634.1875
3068.16494	2629.1875
3070.55254	2609.9875
3072.93868	2636.3875
3075.32338	2621.6875
3077.70662	2607.1875
3080.08842	2598.3875
3082.46878	2593.4875
3084.84769	2599.9875
3087.22515	2579.0875
3089.60118	2597.1875
3091.97576	2581.8875
3094.3489	2581.3875
3096.72061	2582.7875
3099.09087	2575.2875
3101.4597	2574.5875
3103.82709	2570.0875
3106.19305	2551.9875
3108.55757	2562.3875
3110.92066	2552.7875
3113.28232	2560.9875
3115.64255	2547.0875
3118.00134	2550.1875
3120.35871	2530.3875
3122.71466	2510.7875
3125.06917	2516.5875
3127.42226	2500.2875
3129.77393	2493.2875
3132.12417	2493.1875
3134.47299	2502.7875
3136.82039	2479.5875
3139.16636	2463.5875
3141.51092	2477.1875
3143.85406	2485.3875
3146.19579	2472.9875
3148.53609	2465.7875
3150.87499	2464.9875
3153.21246	2462.8875
3155.54853	2473.0875
3157.88318	2473.0875
3160.21642	2463.1875
3162.54826	2462.1875
3164.87868	2479.0875
3167.2077	2423.3875
3169.5353	2439.2875
3171.86151	2455.1875
3174.18631	2434.4875
3176.5097	2435.2875
3178.83169	2437.5875
3181.15228	2431.6875
3183.47147	2407.1875
3185.78926	2403.0875
3188.10565	2409.8875
3190.42065	2381.9875
3192.73424	2396.0875
3195.04645	2383.7875
3197.35725	2364.0875
3199.66667	2381.6875
3201.97469	2369.7875
3204.28132	2361.7875
3206.58656	2376.2875
3208.8904	2393.2875
3211.19287	2376.2875
3213.49394	2363.3875
3215.79363	2354.1875
3218.09193	2364.3875
3220.38884	2358.5875
3222.68438	2354.8875
3224.97853	2341.0875
3227.2713	2363.7875
3229.56269	2350.6875
3231.8527	2349.1875
3234.14133	2337.1875
3236.42858	2330.4875
3238.71446	2304.8875
3240.99896	2318.5875
3243.28209	2306.6875
3245.56384	2308.7875
3247.84423	2284.1875
3250.12324	2306.6875
3252.40088	2307.3875
3254.67715	2281.1875
3256.95205	2275.1875
3259.22558	2300.4875
3261.49775	2288.6875
3263.76855	2282.1875
3266.03799	2290.1875
3268.30606	2285.1875
3270.57277	2293.4875
3272.83812	2257.3875
3275.10211	2259.1875
3277.36474	2265.9875
3279.62601	2271.3875
3281.88593	2247.2875
3284.14448	2224.9875
3286.40168	2243.7875
3288.65753	2227.8875
3290.91202	2234.8875
3293.16516	2199.7875
3295.41695	2235.2875
3297.66738	2236.8875
3299.91647	2200.6875
3302.16421	2198.6875
3304.4106	2154.5875
3306.65564	2169.6875
3308.89933	2144.0875
3311.14169	2136.9875
3313.38269	2118.7875
3315.62236	2102.9875
3317.86068	2093.3875
3320.09766	2081.8875
3322.3333	2054.4875
3324.5676	2047.0875
3326.80056	2006.6875
3329.03219	2011.1875
3331.26248	-0.5125
3333.49143	-0.9125
3335.71905	1.2875
