Data from AgNPs_UA_5uM_CRN_500uM_SU_RamanShift__20__11-32-43-142.txt Node

Date: Thu Aug 04 11:32:43 BST 2022
User: TCL
Spectrometer: QEP01345
Trigger mode: 4
Integration Time (sec): 1.000000E0
Scans to average: 10
Electric dark correction enabled: true
Nonlinearity correction enabled: false
Boxcar width: 0
XAxis mode: Raman Shifts
Number of Pixels in Spectrum: 1044
>>>>>Begin Spectral Data<<<<<
46.04893	-0.3625
50.45542	-0.1625
54.85868	-0.0625
59.25871	-1.1625
63.6555	-53.3625
68.04907	-35.6625
72.43941	-66.0625
76.82654	-51.7625
81.21044	-51.1625
85.59113	-45.1625
89.96862	-70.2625
94.34289	-49.1625
98.71396	-71.2625
103.08183	-50.9625
107.4465	-41.6625
111.80798	-48.0625
116.16626	-39.2625
120.52136	-65.1625
124.87327	-39.4625
129.222	-50.3625
133.56755	-36.0625
137.90993	-46.9625
142.24913	-32.5625
146.58517	-18.9625
150.91804	-14.5625
155.24774	8.6375
159.57429	42.1375
163.89768	63.6375
168.21792	135.0375
172.53501	196.9375
176.84895	341.7375
181.15975	556.5375
185.46741	825.0375
189.77193	1171.4375
194.07331	1655.7375
198.37157	2163.6375
202.6667	2693.9375
206.9587	3305.1375
211.24758	3924.0375
215.53334	4623.9375
219.81599	5425.5375
224.09553	6379.1375
228.37195	7335.6375
232.64527	8247.4375
236.91549	8975.5375
241.18261	9345.3375
245.44663	9463.4375
249.70755	9442.2375
253.96539	9442.2375
258.22014	9528.8375
262.4718	9616.8375
266.72039	9604.2375
270.96589	9379.8375
275.20832	8960.3375
279.44768	8551.3375
283.68397	8265.2375
287.91719	8152.7375
292.14735	8367.8375
296.37445	9001.0375
300.59849	10131.2375
304.81948	11678.0375
309.03742	13440.5375
313.25231	14730.2375
317.46415	14551.4375
321.67296	12717.2375
325.87872	10641.0375
330.08145	9439.6375
334.28114	9181.0375
338.47781	9512.1375
342.67145	10200.4375
346.86207	11291.6375
351.04966	12962.7375
355.23424	14578.0375
359.4158	15185.2375
363.59435	14595.6375
367.76989	13603.7375
371.94243	12642.4375
376.11196	11836.3375
380.27849	11243.2375
384.44203	10777.6375
388.60257	10521.6375
392.76012	10545.5375
396.91468	10879.6375
401.06626	11328.2375
405.21485	11341.5375
409.36047	10605.6375
413.50311	9312.7375
417.64277	8128.1375
421.77947	7357.8375
425.9132	7027.8375
430.04396	6859.1375
434.17176	6835.0375
438.2966	6991.4375
442.41849	7231.8375
446.53742	7497.3375
450.6534	7630.0375
454.76644	7622.5375
458.87653	7473.4375
462.98368	7312.4375
467.08789	7140.4375
471.18916	6857.3375
475.2875	6535.9375
479.38291	6244.9375
483.4754	6069.8375
487.56496	5973.1375
491.6516	5888.4375
495.73531	5882.4375
499.81612	5953.9375
503.89401	6152.3375
507.96899	6357.3375
512.04106	6692.3375
516.11023	6987.4375
520.1765	7232.3375
524.23987	7348.9375
528.30034	7321.1375
532.35792	7174.6375
536.41261	7012.1375
540.46441	6758.1375
544.51333	6582.0375
548.55936	6569.9375
552.60252	6741.6375
556.64279	7021.7375
560.6802	7504.0375
564.71473	8686.8375
568.7464	10203.4375
572.7752	10167.0375
576.80114	8225.7375
580.82422	6629.0375
584.84444	5956.6375
588.86181	5744.1375
592.87633	5745.2375
596.888	5982.7375
600.89682	6920.6375
604.9028	10043.8375
608.90594	18059.2375
612.90624	27758.9375
616.90371	25015.9375
620.89834	13018.1375
624.89015	7818.4375
628.87913	7271.9375
632.86528	8030.2375
636.84862	8298.1375
640.82913	7320.4375
644.80683	6064.7375
648.78172	5530.6375
652.75379	5726.7375
656.72306	6655.6375
660.68952	7554.1375
664.65319	7029.7375
668.61405	5813.0375
672.57211	5311.7375
676.52738	5311.1375
680.47986	5249.6375
684.42955	5072.0375
688.37646	4988.0375
692.32058	4962.2375
696.26192	5084.2375
700.20048	5240.7375
704.13626	5289.4375
708.06928	5175.3375
711.99952	5120.6375
715.927	5204.7375
719.85171	5459.6375
723.77365	5650.2375
727.69284	5470.5375
731.60928	5273.5375
735.52295	5207.5375
739.43388	5287.5375
743.34206	5356.8375
747.24749	5338.3375
751.15017	5387.1375
755.05012	5779.9375
758.94733	7350.3375
762.8418	10904.2375
766.73354	15440.8375
770.62254	17763.4375
774.50882	16820.5375
778.39237	14976.9375
782.27321	12199.5375
786.15132	8819.1375
790.02671	6610.6375
793.89938	5626.9375
797.76935	5302.0375
801.6366	5126.5375
805.50115	5028.4375
809.36299	4972.3375
813.22213	4940.4375
817.07857	4952.7375
820.93231	4994.6375
824.78336	5118.8375
828.63172	5254.4375
832.47738	5323.7375
836.32036	5209.2375
840.16066	4945.8375
843.99827	4765.2375
847.8332	4735.8375
851.66546	4723.0375
855.49504	4693.4375
859.32195	4690.5375
863.1462	4645.0375
866.96777	4626.3375
870.78668	4623.6375
874.60293	4682.2375
878.41652	4756.3375
882.22745	4912.1375
886.03573	5020.5375
889.84136	4993.0375
893.64433	4956.4375
897.44466	4973.3375
901.24235	4984.5375
905.0374	4879.4375
908.8298	4690.5375
912.61957	4537.8375
916.40671	4440.5375
920.19121	4486.5375
923.97308	4744.6375
927.75233	5230.1375
931.52895	5735.8375
935.30295	5463.8375
939.07433	4728.6375
942.84309	4288.9375
946.60924	4125.8375
950.37278	4027.1375
954.13371	4022.4375
957.89203	4018.4375
961.64774	4036.4375
965.40086	4002.0375
969.15137	3946.8375
972.89929	3981.4375
976.64461	3964.7375
980.38733	3943.0375
984.12747	3953.4375
987.86502	3950.3375
991.59999	3995.1375
995.33237	4071.9375
999.06217	4196.1375
1002.78939	4430.8375
1006.51404	4788.4375
1010.23611	4952.4375
1013.95561	4769.8375
1017.67255	4531.2375
1021.38692	4342.3375
1025.09872	4170.3375
1028.80796	4062.8375
1032.51465	4131.9375
1036.21877	4175.8375
1039.92035	4267.5375
1043.61937	4340.0375
1047.31584	4412.5375
1051.00976	4452.5375
1054.70114	4357.1375
1058.38998	4308.6375
1062.07627	4255.2375
1065.76003	4259.6375
1069.44126	4331.9375
1073.11995	4451.8375
1076.79611	4769.7375
1080.46974	5354.8375
1084.14085	6210.7375
1087.80943	6921.8375
1091.47549	6851.3375
1095.13903	6117.1375
1098.80005	5398.3375
1102.45857	4988.6375
1106.11456	4952.9375
1109.76805	5097.3375
1113.41903	5582.9375
1117.06751	6365.0375
1120.71348	7580.9375
1124.35696	9419.8375
1127.99793	10652.8375
1131.63641	9660.6375
1135.2724	7749.5375
1138.90589	6456.5375
1142.5369	5765.3375
1146.16542	5322.5375
1149.79145	5042.3375
1153.415	4949.3375
1157.03607	5059.7375
1160.65467	5321.9375
1164.27079	5798.8375
1167.88443	6504.5375
1171.49561	7684.2375
1175.10432	9736.8375
1178.71056	12473.8375
1182.31434	14326.2375
1185.91565	13930.5375
1189.51451	12158.6375
1193.11091	10269.8375
1196.70485	9073.4375
1200.29634	8626.1375
1203.88538	8017.8375
1207.47197	6860.8375
1211.05612	5827.4375
1214.63782	5147.8375
1218.21708	4848.1375
1221.79391	4731.6375
1225.36829	4711.4375
1228.94024	4717.9375
1232.50976	4710.6375
1236.07685	4715.1375
1239.6415	4802.0375
1243.20374	4947.9375
1246.76355	5133.9375
1250.32093	5419.9375
1253.8759	5767.9375
1257.42845	6387.2375
1260.97859	7183.1375
1264.52631	7930.1375
1268.07163	8251.0375
1271.61453	8236.2375
1275.15503	7919.4375
1278.69312	7614.9375
1282.22882	7850.4375
1285.76211	8914.4375
1289.29301	10324.6375
1292.82151	11253.8375
1296.34761	11696.1375
1299.87133	12629.6375
1303.39266	15055.9375
1306.9116	19596.6375
1310.42815	25200.9375
1313.94233	27348.0375
1317.45412	23216.2375
1320.96354	16928.7375
1324.47058	12195.1375
1327.97525	9319.1375
1331.47754	7888.4375
1334.97747	7394.9375
1338.47502	7599.3375
1341.97022	8710.1375
1345.46305	11136.4375
1348.95352	14591.6375
1352.44163	18168.3375
1355.92738	22753.5375
1359.41078	30665.4375
1362.89183	38819.6375
1366.37053	36579.3375
1369.84688	24977.3375
1373.32088	15507.0375
1376.79254	11501.8375
1380.26186	9635.6375
1383.72883	8207.8375
1387.19347	6930.8375
1390.65578	5979.8375
1394.11575	5461.0375
1397.57339	5208.0375
1401.0287	5010.3375
1404.48168	4841.6375
1407.93234	4747.2375
1411.38068	4855.0375
1414.82669	5273.4375
1418.27039	5781.2375
1421.71177	5876.0375
1425.15083	5650.1375
1428.58758	5747.3375
1432.02203	6370.9375
1435.45416	6873.9375
1438.88399	6547.9375
1442.31151	6097.0375
1445.73673	6011.3375
1449.15965	5967.1375
1452.58027	5809.0375
1455.9986	5572.4375
1459.41463	5370.5375
1462.82837	5388.0375
1466.23982	5660.1375
1469.64898	6022.3375
1473.05586	6132.8375
1476.46045	6094.3375
1479.86276	6114.7375
1483.26279	6443.0375
1486.66054	7131.5375
1490.05602	8248.4375
1493.44922	9989.4375
1496.84016	12808.7375
1500.22882	17150.6375
1503.61521	23289.2375
1506.99934	31265.6375
1510.38121	39352.8375
1513.76081	42874.8375
1517.13816	38267.9375
1520.51324	28696.8375
1523.88607	19715.6375
1527.25665	13940.1375
1530.62498	10601.7375
1533.99105	8694.1375
1537.35488	7466.2375
1540.71647	6779.1375
1544.07581	6481.5375
1547.4329	6475.7375
1550.78776	6701.2375
1554.14038	7051.1375
1557.49077	7663.2375
1560.83892	8822.4375
1564.18484	10526.1375
1567.52853	12372.7375
1570.86999	13394.3375
1574.20922	13398.8375
1577.54624	12625.2375
1580.88103	10511.8375
1584.2136	7953.2375
1587.54395	6496.3375
1590.87208	6126.0375
1594.19801	6600.8375
1597.52172	7413.4375
1600.84321	7460.9375
1604.16251	6577.3375
1607.47959	5715.7375
1610.79447	5214.7375
1614.10715	4811.2375
1617.41763	4538.4375
1620.7259	4398.5375
1624.03199	4486.9375
1627.33587	4702.7375
1630.63757	5136.8375
1633.93707	5943.2375
1637.23439	7411.9375
1640.52951	10068.0375
1643.82246	14591.3375
1647.11321	20762.6375
1650.40179	25571.9375
1653.68819	25056.3375
1656.97241	19325.6375
1660.25446	12843.1375
1663.53433	8434.5375
1666.81203	6069.0375
1670.08756	4852.6375
1673.36092	4186.7375
1676.63211	3763.8375
1679.90115	3525.3375
1683.16801	3340.0375
1686.43272	3195.6375
1689.69527	3120.5375
1692.95567	3034.7375
1696.2139	2991.3375
1699.46999	2916.2375
1702.72392	2901.1375
1705.97571	2915.0375
1709.22535	2888.9375
1712.47284	2950.2375
1715.71819	2973.9375
1718.96139	2967.4375
1722.20246	2940.8375
1725.44139	2866.1375
1728.67818	2790.2375
1731.91284	2715.3375
1735.14537	2640.7375
1738.37576	2591.4375
1741.60403	2584.3375
1744.83017	2530.0375
1748.05418	2521.1375
1751.27607	2497.0375
1754.49584	2442.9375
1757.71349	2380.6375
1760.92903	2355.5375
1764.14244	2279.9375
1767.35375	2256.0375
1770.56294	2204.1375
1773.77002	2153.0375
1776.97499	2131.5375
1780.17785	2085.7375
1783.37861	2054.6375
1786.57727	2057.6375
1789.77382	1988.7375
1792.96828	2034.3375
1796.16064	2030.4375
1799.3509	2014.0375
1802.53907	2015.3375
1805.72514	1982.5375
1808.90913	1966.1375
1812.09102	1965.9375
1815.27083	1952.7375
1818.44856	1939.0375
1821.6242	1935.6375
1824.79776	1917.4375
1827.96924	1901.8375
1831.13864	1873.2375
1834.30597	1877.3375
1837.47122	1828.5375
1840.6344	1815.1375
1843.7955	1779.3375
1846.95454	1757.4375
1850.11151	1770.6375
1853.26642	1725.4375
1856.41926	1739.4375
1859.57004	1744.1375
1862.71876	1742.3375
1865.86542	1753.7375
1869.01003	1755.9375
1872.15258	1741.9375
1875.29308	1778.0375
1878.43152	1779.3375
1881.56792	1753.9375
1884.70227	1741.7375
1887.83457	1735.5375
1890.96482	1698.3375
1894.09304	1702.6375
1897.21921	1689.8375
1900.34335	1694.8375
1903.46544	1674.6375
1906.58551	1708.0375
1909.70353	1697.9375
1912.81953	1689.3375
1915.93349	1661.8375
1919.04543	1658.7375
1922.15534	1633.8375
1925.26322	1632.2375
1928.36908	1590.3375
1931.47292	1581.6375
1934.57473	1566.8375
1937.67453	1524.3375
1940.77232	1489.8375
1943.86808	1481.5375
1946.96184	1477.0375
1950.05358	1457.4375
1953.14331	1452.9375
1956.23103	1467.8375
1959.31675	1450.6375
1962.40046	1425.7375
1965.48217	1482.1375
1968.56188	1496.8375
1971.63959	1499.7375
1974.7153	1516.0375
1977.78901	1512.1375
1980.86073	1472.2375
1983.93046	1416.0375
1986.99819	1328.5375
1990.06394	1343.5375
1993.1277	1362.1375
1996.18947	1343.6375
1999.24925	1307.8375
2002.30706	1318.8375
2005.36288	1311.3375
2008.41672	1294.2375
2011.46859	1271.8375
2014.51848	1259.7375
2017.56639	1249.3375
2020.61233	1246.2375
2023.6563	1250.4375
2026.6983	1208.5375
2029.73833	1221.9375
2032.7764	1238.9375
2035.8125	1189.0375
2038.84664	1192.4375
2041.87881	1197.5375
2044.90903	1205.5375
2047.93729	1197.1375
2050.96359	1168.6375
2053.98794	1172.0375
2057.01034	1171.0375
2060.03078	1151.6375
2063.04927	1133.1375
2066.06582	1131.8375
2069.08042	1110.7375
2072.09307	1128.6375
2075.10378	1105.2375
2078.11255	1102.4375
2081.11938	1103.2375
2084.12426	1100.5375
2087.12722	1099.4375
2090.12824	1097.8375
2093.12732	1099.0375
2096.12447	1105.0375
2099.11969	1106.2375
2102.11299	1094.0375
2105.10435	1114.3375
2108.09379	1097.3375
2111.08131	1094.9375
2114.0669	1112.2375
2117.05057	1121.4375
2120.03233	1127.4375
2123.01216	1154.8375
2125.99008	1177.4375
2128.96609	1178.6375
2131.94018	1191.7375
2134.91236	1149.9375
2137.88263	1134.5375
2140.851	1120.7375
2143.81746	1118.5375
2146.78201	1086.6375
2149.74466	1059.7375
2152.7054	1053.3375
2155.66425	1036.1375
2158.6212	1020.4375
2161.57625	1000.8375
2164.52941	977.3375
2167.48067	1000.7375
2170.43004	1003.6375
2173.37752	1032.8375
2176.32311	1018.7375
2179.26681	1027.6375
2182.20863	1037.2375
2185.14856	1033.4375
2188.08661	1031.1375
2191.02278	1014.4375
2193.95707	992.0375
2196.88948	968.7375
2199.82001	985.1375
2202.74867	965.5375
2205.67545	973.9375
2208.60037	988.1375
2211.52341	967.4375
2214.44458	968.4375
2217.36388	961.9375
2220.28132	958.7375
2223.1969	931.6375
2226.11061	941.7375
2229.02246	924.8375
2231.93245	937.5375
2234.84058	908.7375
2237.74686	912.1375
2240.65128	908.8375
2243.55385	928.6375
2246.45456	914.2375
2249.35343	939.9375
2252.25044	958.0375
2255.14561	984.1375
2258.03893	1012.2375
2260.93041	1028.1375
2263.82004	1041.3375
2266.70783	1049.6375
2269.59378	1037.6375
2272.4779	1028.2375
2275.36017	1034.1375
2278.24061	1012.2375
2281.11922	983.7375
2283.996	993.6375
2286.87094	967.4375
2289.74405	962.4375
2292.61534	944.2375
2295.4848	930.8375
2298.35243	910.5375
2301.21824	891.1375
2304.08223	894.8375
2306.94439	898.4375
2309.80474	896.8375
2312.66327	900.7375
2315.51999	886.5375
2318.37489	885.6375
2321.22797	874.0375
2324.07925	874.5375
2326.92871	876.0375
2329.77637	861.4375
2332.62222	857.1375
2335.46626	854.4375
2338.3085	853.8375
2341.14893	883.5375
2343.98756	896.4375
2346.8244	882.8375
2349.65943	894.6375
2352.49267	903.3375
2355.32411	920.3375
2358.15376	937.4375
2360.98161	960.1375
2363.80768	955.1375
2366.63195	982.7375
2369.45444	1002.3375
2372.27514	1008.5375
2375.09405	1012.7375
2377.91118	981.3375
2380.72652	966.8375
2383.54009	955.1375
2386.35187	952.3375
2389.16188	918.3375
2391.97011	914.3375
2394.77657	894.0375
2397.58125	888.6375
2400.38416	870.8375
2403.18529	859.3375
2405.98466	836.7375
2408.78226	847.8375
2411.57809	838.8375
2414.37216	833.7375
2417.16446	839.9375
2419.955	812.0375
2422.74378	850.0375
2425.5308	834.6375
2428.31606	849.5375
2431.09956	864.9375
2433.88131	852.5375
2436.6613	879.9375
2439.43954	873.2375
2442.21603	879.6375
2444.99077	880.8375
2447.76377	902.9375
2450.53501	899.1375
2453.30451	901.8375
2456.07226	922.5375
2458.83827	905.7375
2461.60254	871.6375
2464.36507	903.4375
2467.12586	882.1375
2469.88492	896.4375
2472.64224	896.3375
2475.39782	890.7375
2478.15167	919.3375
2480.90379	928.5375
2483.65417	968.1375
2486.40283	989.9375
2489.14976	1005.8375
2491.89497	1006.0375
2494.63845	1003.2375
2497.3802	991.3375
2500.12024	982.9375
2502.85855	965.8375
2505.59514	950.3375
2508.33002	929.9375
2511.06318	867.9375
2513.79462	859.9375
2516.52435	804.0375
2519.25237	762.9375
2521.97867	766.3375
2524.70327	755.2375
2527.42616	740.2375
2530.14734	752.6375
2532.86681	737.6375
2535.58458	732.3375
2538.30065	734.9375
2541.01501	756.7375
2543.72768	753.4375
2546.43864	762.8375
2549.14791	763.5375
2551.85548	767.1375
2554.56136	773.8375
2557.26554	792.5375
2559.96803	789.3375
2562.66883	797.0375
2565.36794	786.8375
2568.06536	773.5375
2570.7611	800.8375
2573.45514	787.5375
2576.14751	787.6375
2578.83819	772.1375
2581.52719	757.2375
2584.21451	765.4375
2586.90015	735.1375
2589.58411	723.4375
2592.2664	745.1375
2594.94701	744.2375
2597.62594	744.7375
2600.30321	698.1375
2602.9788	719.1375
2605.65273	720.5375
2608.32498	729.6375
2610.99557	751.6375
2613.66449	725.5375
2616.33175	755.6375
2618.99734	754.1375
2621.66128	753.6375
2624.32355	739.4375
2626.98416	728.0375
2629.64311	721.3375
2632.30041	708.0375
2634.95605	684.9375
2637.61004	666.3375
2640.26238	661.1375
2642.91306	649.0375
2645.56209	675.0375
2648.20948	664.8375
2650.85521	645.2375
2653.4993	678.4375
2656.14175	673.7375
2658.78255	673.7375
2661.42171	654.1375
2664.05923	698.0375
2666.6951	715.6375
2669.32934	718.9375
2671.96194	739.0375
2674.59291	722.9375
2677.22224	731.8375
2679.84993	719.0375
2682.476	706.8375
2685.10043	704.4375
2687.72324	694.3375
2690.34441	689.2375
2692.96396	690.6375
2695.58188	694.5375
2698.19818	692.3375
2700.81285	670.7375
2703.4259	665.9375
2706.03733	641.6375
2708.64714	657.3375
2711.25533	686.7375
2713.86191	688.5375
2716.46687	690.6375
2719.07021	688.3375
2721.67194	692.2375
2724.27206	703.2375
2726.87057	673.5375
2729.46747	666.5375
2732.06276	659.2375
2734.65644	647.0375
2737.24852	648.2375
2739.83899	620.2375
2742.42786	627.4375
2745.01513	629.3375
2747.60079	607.4375
2750.18486	590.6375
2752.76733	598.6375
2755.3482	582.0375
2757.92747	582.3375
2760.50515	563.8375
2763.08123	557.4375
2765.65573	558.0375
2768.22863	554.7375
2770.79994	545.1375
2773.36967	551.7375
2775.9378	551.7375
2778.50435	551.1375
2781.06932	556.9375
2783.6327	540.2375
2786.1945	572.1375
2788.75471	562.5375
2791.31335	570.6375
2793.87041	574.1375
2796.42589	569.7375
2798.97979	575.2375
2801.53212	586.4375
2804.08288	618.4375
2806.63206	615.4375
2809.17967	614.3375
2811.72571	647.1375
2814.27018	651.8375
2816.81308	670.5375
2819.35442	656.7375
2821.89419	700.1375
2824.43239	694.2375
2826.96904	730.8375
2829.50412	712.4375
2832.03763	706.3375
2834.56959	699.3375
2837.1	682.0375
2839.62884	672.7375
2842.15613	664.7375
2844.68186	675.8375
2847.20604	654.4375
2849.72867	666.6375
2852.24974	683.0375
2854.76927	666.2375
2857.28724	640.9375
2859.80367	721.2375
2862.31855	740.2375
2864.83189	757.1375
2867.34368	782.1375
2869.85393	802.8375
2872.36264	783.7375
2874.8698	794.6375
2877.37543	804.1375
2879.87952	784.1375
2882.38207	746.4375
2884.88308	747.7375
2887.38256	734.9375
2889.88051	715.6375
2892.37692	711.5375
2894.8718	686.1375
2897.36515	706.5375
2899.85698	706.5375
2902.34727	709.8375
2904.83604	723.8375
2907.32328	752.1375
2909.809	775.5375
2912.29319	785.5375
2914.77587	800.1375
2917.25702	806.6375
2919.73665	785.8375
2922.21476	772.5375
2924.69136	760.5375
2927.16644	716.4375
2929.64	700.1375
2932.11205	682.5375
2934.58258	683.0375
2937.05161	677.6375
2939.51912	672.3375
2941.98513	689.5375
2944.44962	669.5375
2946.91261	651.2375
2949.37409	663.1375
2951.83407	656.7375
2954.29254	668.9375
2956.74951	676.1375
2959.20498	668.2375
2961.65895	668.2375
2964.11142	667.2375
2966.56239	663.3375
2969.01186	657.5375
2971.45984	647.1375
2973.90632	635.8375
2976.35131	659.5375
2978.7948	652.7375
2981.23681	637.5375
2983.67732	652.6375
2986.11635	663.2375
2988.55388	633.5375
2990.98993	652.5375
2993.4245	651.2375
2995.85758	645.4375
2998.28917	651.1375
3000.71928	655.8375
3003.14791	661.4375
3005.57506	647.1375
3008.00073	641.1375
3010.42493	585.3375
3012.84764	639.3375
3015.26888	643.1375
3017.68865	634.5375
3020.10694	599.9375
3022.52376	617.4375
3024.9391	607.3375
3027.35298	597.8375
3029.76539	576.0375
3032.17632	568.1375
3034.5858	553.2375
3036.9938	553.6375
3039.40034	535.4375
3041.80542	506.0375
3044.20903	494.2375
3046.61118	479.7375
3049.01187	492.5375
3051.4111	487.5375
3053.80888	468.5375
3056.20519	472.1375
3058.60005	457.8375
3060.99345	482.3375
3063.3854	462.0375
3065.7759	452.9375
3068.16494	446.3375
3070.55254	438.0375
3072.93868	455.2375
3075.32338	449.6375
3077.70662	442.6375
3080.08842	435.3375
3082.46878	418.9375
3084.84769	442.6375
3087.22515	421.1375
3089.60118	432.0375
3091.97576	416.7375
3094.3489	420.2375
3096.72061	416.1375
3099.09087	404.0375
3101.4597	416.6375
3103.82709	403.0375
3106.19305	396.0375
3108.55757	404.8375
3110.92066	403.1375
3113.28232	419.7375
3115.64255	414.4375
3118.00134	421.0375
3120.35871	398.7375
3122.71466	390.7375
3125.06917	415.1375
3127.42226	405.2375
3129.77393	395.6375
3132.12417	407.4375
3134.47299	418.0375
3136.82039	398.3375
3139.16636	379.2375
3141.51092	407.2375
3143.85406	412.0375
3146.19579	394.3375
3148.53609	396.9375
3150.87499	410.2375
3153.21246	405.7375
3155.54853	412.2375
3157.88318	420.1375
3160.21642	419.6375
3162.54826	412.7375
3164.87868	415.0375
3167.2077	376.1375
3169.5353	394.9375
3171.86151	400.0375
3174.18631	376.4375
3176.5097	372.7375
3178.83169	376.0375
3181.15228	362.1375
3183.47147	343.8375
3185.78926	329.0375
3188.10565	343.7375
3190.42065	318.8375
3192.73424	334.4375
3195.04645	323.0375
3197.35725	320.2375
3199.66667	338.9375
3201.97469	332.6375
3204.28132	325.5375
3206.58656	344.2375
3208.8904	352.7375
3211.19287	349.4375
3213.49394	338.6375
3215.79363	339.7375
3218.09193	365.5375
3220.38884	347.2375
3222.68438	351.6375
3224.97853	329.9375
3227.2713	353.9375
3229.56269	339.8375
3231.8527	334.9375
3234.14133	324.6375
3236.42858	326.0375
3238.71446	307.0375
3240.99896	329.5375
3243.28209	311.9375
3245.56384	322.7375
3247.84423	314.5375
3250.12324	328.8375
3252.40088	321.4375
3254.67715	314.5375
3256.95205	306.4375
3259.22558	322.6375
3261.49775	320.9375
3263.76855	313.6375
3266.03799	317.1375
3268.30606	323.4375
3270.57277	331.1375
3272.83812	315.7375
3275.10211	333.1375
3277.36474	356.2375
3279.62601	354.2375
3281.88593	341.5375
3284.14448	333.9375
3286.40168	365.5375
3288.65753	364.9375
3290.91202	381.0375
3293.16516	378.7375
3295.41695	414.6375
3297.66738	425.6375
3299.91647	422.2375
3302.16421	435.2375
3304.4106	412.1375
3306.65564	446.9375
3308.89933	423.9375
3311.14169	439.1375
3313.38269	443.6375
3315.62236	435.4375
3317.86068	437.7375
3320.09766	453.3375
3322.3333	439.3375
3324.5676	450.7375
3326.80056	454.4375
3329.03219	460.6375
3331.26248	-1.3625
3333.49143	1.2375
3335.71905	1.1375
