Data from AgNPs_UA_20uM_CRN_500uM_SU_RamanShift__14__13-38-50-293.txt Node

Date: Thu Aug 04 13:38:50 BST 2022
User: TCL
Spectrometer: QEP01345
Trigger mode: 4
Integration Time (sec): 1.000000E0
Scans to average: 10
Electric dark correction enabled: true
Nonlinearity correction enabled: false
Boxcar width: 0
XAxis mode: Raman Shifts
Number of Pixels in Spectrum: 1044
>>>>>Begin Spectral Data<<<<<
46.04893	-0.875
50.45542	-0.875
54.85868	0.525
59.25871	-0.275
63.6555	16.225
68.04907	14.925
72.43941	20.625
76.82654	18.025
81.21044	19.025
85.59113	19.725
89.96862	20.725
94.34289	22.025
98.71396	22.825
103.08183	23.425
107.4465	21.825
111.80798	26.025
116.16626	25.725
120.52136	26.925
124.87327	27.425
129.222	33.425
133.56755	31.425
137.90993	31.625
142.24913	40.225
146.58517	42.525
150.91804	51.425
155.24774	63.225
159.57429	81.325
163.89768	105.625
168.21792	141.425
172.53501	194.825
176.84895	276.325
181.15975	388.025
185.46741	548.125
189.77193	764.225
194.07331	1029.525
198.37157	1325.325
202.6667	1651.125
206.9587	1970.325
211.24758	2291.325
215.53334	2628.625
219.81599	2989.025
224.09553	3406.125
228.37195	3856.725
232.64527	4351.225
236.91549	4806.425
241.18261	5210.125
245.44663	5505.825
249.70755	5724.225
253.96539	5878.825
258.22014	6023.825
262.4718	6157.925
266.72039	6274.825
270.96589	6274.825
275.20832	6211.625
279.44768	6139.525
283.68397	6004.825
287.91719	5945.725
292.14735	5997.325
296.37445	6159.425
300.59849	6430.325
304.81948	6795.225
309.03742	7149.225
313.25231	7357.925
317.46415	7265.225
321.67296	6910.725
325.87872	6485.425
330.08145	6266.625
334.28114	6233.625
338.47781	6310.225
342.67145	6471.325
346.86207	6697.025
351.04966	7012.625
355.23424	7360.625
359.4158	7596.325
363.59435	7662.725
367.76989	7619.025
371.94243	7572.925
376.11196	7493.325
380.27849	7433.425
384.44203	7359.725
388.60257	7339.325
392.76012	7415.525
396.91468	7513.025
401.06626	7638.125
405.21485	7686.525
409.36047	7484.425
413.50311	7152.525
417.64277	6830.125
421.77947	6659.625
425.9132	6568.725
430.04396	6571.325
434.17176	6618.425
438.2966	6710.325
442.41849	6832.625
446.53742	7010.125
450.6534	7154.925
454.76644	7214.725
458.87653	7187.825
462.98368	7148.825
467.08789	7077.925
471.18916	6974.925
475.2875	6816.025
479.38291	6666.025
483.4754	6561.125
487.56496	6510.125
491.6516	6473.025
495.73531	6468.425
499.81612	6514.425
503.89401	6554.025
507.96899	6621.425
512.04106	6698.925
516.11023	6807.325
520.1765	6889.125
524.23987	6895.225
528.30034	6881.425
532.35792	6856.025
536.41261	6758.125
540.46441	6660.725
544.51333	6598.325
548.55936	6658.025
552.60252	6778.325
556.64279	6893.825
560.6802	7005.425
564.71473	7103.025
568.7464	7268.125
572.7752	7271.225
576.80114	7017.725
580.82422	6803.125
584.84444	6683.425
588.86181	6686.425
592.87633	6743.525
596.888	6875.825
600.89682	7259.925
604.9028	8307.725
608.90594	10648.325
612.90624	13080.125
616.90371	11943.625
620.89834	8608.125
624.89015	7184.325
628.87913	6996.325
632.86528	7201.325
636.84862	7355.325
640.82913	7171.125
644.80683	6855.625
648.78172	6664.225
652.75379	6676.925
656.72306	6939.825
660.68952	7185.625
664.65319	7071.925
668.61405	6788.325
672.57211	6748.325
676.52738	6749.925
680.47986	6665.925
684.42955	6552.825
688.37646	6500.925
692.32058	6525.725
696.26192	6646.425
700.20048	6764.925
704.13626	6795.525
708.06928	6746.125
711.99952	6690.125
715.927	6681.525
719.85171	6718.425
723.77365	6756.125
727.69284	6681.625
731.60928	6627.125
735.52295	6627.125
739.43388	6653.625
743.34206	6692.225
747.24749	6696.425
751.15017	6694.725
755.05012	6812.325
758.94733	7189.225
762.8418	8098.625
766.73354	9473.225
770.62254	10579.325
774.50882	10693.725
778.39237	10048.925
782.27321	8967.725
786.15132	7874.725
790.02671	7185.925
793.89938	6825.725
797.76935	6706.425
801.6366	6631.625
805.50115	6591.725
809.36299	6560.525
813.22213	6536.725
817.07857	6555.125
820.93231	6554.425
824.78336	6570.625
828.63172	6603.725
832.47738	6606.825
836.32036	6572.925
840.16066	6543.125
843.99827	6518.725
847.8332	6529.925
851.66546	6554.425
855.49504	6558.425
859.32195	6546.625
863.1462	6556.425
866.96777	6544.025
870.78668	6547.025
874.60293	6599.925
878.41652	6619.325
882.22745	6649.925
886.03573	6722.625
889.84136	6715.925
893.64433	6671.325
897.44466	6670.725
901.24235	6666.025
905.0374	6623.225
908.8298	6573.525
912.61957	6538.625
916.40671	6545.225
920.19121	6602.525
923.97308	6654.525
927.75233	6762.525
931.52895	6816.925
935.30295	6755.525
939.07433	6583.025
942.84309	6462.125
946.60924	6399.225
950.37278	6404.625
954.13371	6396.825
957.89203	6392.225
961.64774	6379.325
965.40086	6369.525
969.15137	6342.825
972.89929	6360.525
976.64461	6355.725
980.38733	6360.225
984.12747	6386.325
987.86502	6415.425
991.59999	6464.925
995.33237	6520.625
999.06217	6621.825
1002.78939	6777.825
1006.51404	6949.125
1010.23611	7102.925
1013.95561	7135.425
1017.67255	7144.225
1021.38692	7095.325
1025.09872	6967.225
1028.80796	6861.225
1032.51465	6833.225
1036.21877	6875.825
1039.92035	6895.025
1043.61937	6947.725
1047.31584	6980.925
1051.00976	6979.825
1054.70114	6953.625
1058.38998	6959.525
1062.07627	6983.025
1065.76003	7071.925
1069.44126	7174.625
1073.11995	7340.625
1076.79611	7510.625
1080.46974	7704.125
1084.14085	7801.125
1087.80943	7954.025
1091.47549	8058.825
1095.13903	7995.525
1098.80005	7872.325
1102.45857	7729.325
1106.11456	7562.725
1109.76805	7481.025
1113.41903	7552.125
1117.06751	7714.325
1120.71348	7996.525
1124.35696	8356.625
1127.99793	8588.725
1131.63641	8414.825
1135.2724	8023.125
1138.90589	7759.125
1142.5369	7613.125
1146.16542	7567.025
1149.79145	7518.725
1153.415	7373.725
1157.03607	7344.825
1160.65467	7368.625
1164.27079	7562.525
1167.88443	7856.225
1171.49561	8291.825
1175.10432	9016.725
1178.71056	10011.425
1182.31434	10865.125
1185.91565	11071.225
1189.51451	10917.425
1193.11091	10585.625
1196.70485	10254.525
1200.29634	9958.425
1203.88538	9646.925
1207.47197	9232.625
1211.05612	8836.625
1214.63782	8535.225
1218.21708	8285.025
1221.79391	8064.725
1225.36829	7984.625
1228.94024	7905.425
1232.50976	7870.925
1236.07685	7900.325
1239.6415	7905.225
1243.20374	7956.825
1246.76355	8023.525
1250.32093	8154.625
1253.8759	8347.525
1257.42845	8630.925
1260.97859	8958.725
1264.52631	9197.725
1268.07163	9377.925
1271.61453	9497.025
1275.15503	9550.925
1278.69312	9525.125
1282.22882	9559.925
1285.76211	9727.225
1289.29301	9949.425
1292.82151	10247.725
1296.34761	10528.225
1299.87133	10942.425
1303.39266	11721.625
1306.9116	12862.025
1310.42815	14024.925
1313.94233	14412.625
1317.45412	13717.625
1320.96354	12629.425
1324.47058	11631.625
1327.97525	10780.025
1331.47754	10307.025
1334.97747	10191.425
1338.47502	10376.125
1341.97022	10807.025
1345.46305	11640.025
1348.95352	12757.525
1352.44163	14011.925
1355.92738	15411.325
1359.41078	17151.725
1362.89183	18615.525
1366.37053	17731.225
1369.84688	14759.625
1373.32088	12060.425
1376.79254	10565.725
1380.26186	9858.325
1383.72883	9437.125
1387.19347	9099.125
1390.65578	8759.125
1394.11575	8499.525
1397.57339	8287.025
1401.0287	8151.325
1404.48168	8087.125
1407.93234	8079.525
1411.38068	8186.125
1414.82669	8276.925
1418.27039	8314.025
1421.71177	8298.425
1425.15083	8204.425
1428.58758	8159.925
1432.02203	8231.625
1435.45416	8354.625
1438.88399	8378.225
1442.31151	8455.225
1445.73673	8502.125
1449.15965	8535.225
1452.58027	8491.925
1455.9986	8413.225
1459.41463	8411.425
1462.82837	8499.325
1466.23982	8683.225
1469.64898	8898.825
1473.05586	9029.925
1476.46045	9125.525
1479.86276	9212.225
1483.26279	9335.725
1486.66054	9561.025
1490.05602	9887.025
1493.44922	10498.625
1496.84016	11414.325
1500.22882	12826.725
1503.61521	14651.125
1506.99934	16462.725
1510.38121	17500.425
1513.76081	17250.025
1517.13816	15622.925
1520.51324	13545.525
1523.88607	11826.025
1527.25665	10850.825
1530.62498	10363.725
1533.99105	10109.525
1537.35488	9963.525
1540.71647	9868.425
1544.07581	9768.225
1547.4329	9646.125
1550.78776	9544.825
1554.14038	9417.425
1557.49077	9364.025
1560.83892	9469.425
1564.18484	9735.325
1567.52853	10132.025
1570.86999	10436.525
1574.20922	10549.825
1577.54624	10343.125
1580.88103	9750.325
1584.2136	9075.125
1587.54395	8704.125
1590.87208	8649.425
1594.19801	8952.325
1597.52172	9421.925
1600.84321	9638.925
1604.16251	9598.525
1607.47959	9406.525
1610.79447	9053.525
1614.10715	8581.025
1617.41763	8090.925
1620.7259	7729.625
1624.03199	7543.025
1627.33587	7506.325
1630.63757	7611.725
1633.93707	7873.125
1637.23439	8408.725
1640.52951	9252.225
1643.82246	10476.825
1647.11321	11800.025
1650.40179	12544.325
1653.68819	12026.125
1656.97241	10516.225
1660.25446	8908.325
1663.53433	7810.625
1666.81203	7144.225
1670.08756	6777.125
1673.36092	6568.025
1676.63211	6435.025
1679.90115	6302.425
1683.16801	6215.025
1686.43272	6148.225
1689.69527	6112.425
1692.95567	6081.525
1696.2139	6070.825
1699.46999	6025.725
1702.72392	6026.225
1705.97571	6031.025
1709.22535	6043.025
1712.47284	6020.825
1715.71819	6009.825
1718.96139	6000.725
1722.20246	5984.325
1725.44139	5980.125
1728.67818	5909.525
1731.91284	5887.825
1735.14537	5857.625
1738.37576	5819.925
1741.60403	5804.425
1744.83017	5814.125
1748.05418	5785.025
1751.27607	5762.725
1754.49584	5732.325
1757.71349	5711.025
1760.92903	5706.325
1764.14244	5707.625
1767.35375	5710.525
1770.56294	5685.725
1773.77002	5671.125
1776.97499	5667.225
1780.17785	5646.925
1783.37861	5627.625
1786.57727	5592.425
1789.77382	5571.125
1792.96828	5568.425
1796.16064	5554.325
1799.3509	5546.225
1802.53907	5549.625
1805.72514	5538.025
1808.90913	5518.125
1812.09102	5512.725
1815.27083	5481.425
1818.44856	5468.525
1821.6242	5453.425
1824.79776	5456.225
1827.96924	5454.425
1831.13864	5421.025
1834.30597	5423.025
1837.47122	5426.525
1840.6344	5408.925
1843.7955	5386.425
1846.95454	5393.025
1850.11151	5385.125
1853.26642	5396.225
1856.41926	5388.825
1859.57004	5385.525
1862.71876	5386.825
1865.86542	5376.925
1869.01003	5367.125
1872.15258	5343.725
1875.29308	5341.725
1878.43152	5329.125
1881.56792	5328.125
1884.70227	5334.625
1887.83457	5320.125
1890.96482	5310.925
1894.09304	5300.725
1897.21921	5290.525
1900.34335	5277.725
1903.46544	5267.725
1906.58551	5293.725
1909.70353	5295.925
1912.81953	5262.625
1915.93349	5277.225
1919.04543	5249.925
1922.15534	5240.425
1925.26322	5230.125
1928.36908	5208.825
1931.47292	5208.825
1934.57473	5183.425
1937.67453	5184.025
1940.77232	5162.025
1943.86808	5153.625
1946.96184	5111.425
1950.05358	5121.225
1953.14331	5122.225
1956.23103	5064.725
1959.31675	5062.325
1962.40046	5043.325
1965.48217	5036.125
1968.56188	5033.525
1971.63959	5018.725
1974.7153	5010.825
1977.78901	4998.125
1980.86073	4993.625
1983.93046	4951.725
1986.99819	4952.925
1990.06394	4925.825
1993.1277	4887.325
1996.18947	4907.125
1999.24925	4880.325
2002.30706	4868.725
2005.36288	4840.925
2008.41672	4811.825
2011.46859	4797.425
2014.51848	4809.425
2017.56639	4782.425
2020.61233	4757.825
2023.6563	4756.725
2026.6983	4736.825
2029.73833	4732.525
2032.7764	4729.625
2035.8125	4699.725
2038.84664	4695.425
2041.87881	4698.425
2044.90903	4689.425
2047.93729	4673.025
2050.96359	4666.825
2053.98794	4660.225
2057.01034	4648.025
2060.03078	4638.025
2063.04927	4629.825
2066.06582	4634.525
2069.08042	4628.725
2072.09307	4608.825
2075.10378	4624.925
2078.11255	4627.725
2081.11938	4602.625
2084.12426	4609.425
2087.12722	4609.925
2090.12824	4591.725
2093.12732	4607.325
2096.12447	4629.025
2099.11969	4620.725
2102.11299	4626.525
2105.10435	4614.325
2108.09379	4609.025
2111.08131	4611.825
2114.0669	4606.125
2117.05057	4618.925
2120.03233	4617.525
2123.01216	4603.225
2125.99008	4613.125
2128.96609	4641.925
2131.94018	4634.225
2134.91236	4640.925
2137.88263	4633.425
2140.851	4634.525
2143.81746	4625.425
2146.78201	4638.125
2149.74466	4618.725
2152.7054	4618.025
2155.66425	4612.525
2158.6212	4630.525
2161.57625	4627.725
2164.52941	4632.525
2167.48067	4612.425
2170.43004	4608.825
2173.37752	4608.325
2176.32311	4614.825
2179.26681	4602.325
2182.20863	4600.325
2185.14856	4594.625
2188.08661	4610.625
2191.02278	4618.825
2193.95707	4589.025
2196.88948	4581.925
2199.82001	4584.025
2202.74867	4579.225
2205.67545	4582.525
2208.60037	4572.925
2211.52341	4578.825
2214.44458	4554.125
2217.36388	4536.025
2220.28132	4519.925
2223.1969	4517.325
2226.11061	4511.225
2229.02246	4502.625
2231.93245	4481.225
2234.84058	4478.525
2237.74686	4466.225
2240.65128	4481.425
2243.55385	4479.525
2246.45456	4470.325
2249.35343	4456.025
2252.25044	4461.125
2255.14561	4469.225
2258.03893	4462.125
2260.93041	4447.625
2263.82004	4439.225
2266.70783	4426.325
2269.59378	4418.325
2272.4779	4399.925
2275.36017	4400.225
2278.24061	4377.825
2281.11922	4360.425
2283.996	4356.725
2286.87094	4356.525
2289.74405	4351.725
2292.61534	4343.225
2295.4848	4328.225
2298.35243	4334.425
2301.21824	4318.925
2304.08223	4324.925
2306.94439	4334.425
2309.80474	4329.525
2312.66327	4312.925
2315.51999	4308.025
2318.37489	4311.025
2321.22797	4289.825
2324.07925	4278.925
2326.92871	4269.825
2329.77637	4261.925
2332.62222	4258.325
2335.46626	4270.425
2338.3085	4250.225
2341.14893	4256.025
2343.98756	4241.225
2346.8244	4270.125
2349.65943	4274.925
2352.49267	4249.625
2355.32411	4254.525
2358.15376	4252.925
2360.98161	4249.325
2363.80768	4259.025
2366.63195	4272.925
2369.45444	4247.025
2372.27514	4245.425
2375.09405	4245.725
2377.91118	4238.025
2380.72652	4241.025
2383.54009	4215.825
2386.35187	4211.425
2389.16188	4202.525
2391.97011	4182.925
2394.77657	4185.025
2397.58125	4179.325
2400.38416	4163.225
2403.18529	4138.825
2405.98466	4150.925
2408.78226	4131.525
2411.57809	4120.225
2414.37216	4115.725
2417.16446	4117.825
2419.955	4115.325
2422.74378	4108.325
2425.5308	4108.825
2428.31606	4097.525
2431.09956	4103.725
2433.88131	4098.725
2436.6613	4094.725
2439.43954	4096.825
2442.21603	4088.325
2444.99077	4095.225
2447.76377	4101.625
2450.53501	4085.225
2453.30451	4076.725
2456.07226	4071.725
2458.83827	4078.225
2461.60254	4064.425
2464.36507	4073.325
2467.12586	4045.125
2469.88492	4072.025
2472.64224	4060.325
2475.39782	4064.725
2478.15167	4079.925
2480.90379	4072.225
2483.65417	4056.725
2486.40283	4069.925
2489.14976	4077.225
2491.89497	4081.525
2494.63845	4062.225
2497.3802	4076.125
2500.12024	4067.825
2502.85855	4033.825
2505.59514	4029.225
2508.33002	4020.925
2511.06318	4010.125
2513.79462	3993.325
2516.52435	3990.925
2519.25237	3985.925
2521.97867	3981.525
2524.70327	3964.125
2527.42616	3966.825
2530.14734	3958.525
2532.86681	3947.925
2535.58458	3971.925
2538.30065	3962.525
2541.01501	3952.825
2543.72768	3946.125
2546.43864	3948.625
2549.14791	3953.825
2551.85548	3963.725
2554.56136	3953.725
2557.26554	3940.625
2559.96803	3941.725
2562.66883	3915.725
2565.36794	3910.725
2568.06536	3904.225
2570.7611	3883.425
2573.45514	3870.425
2576.14751	3895.225
2578.83819	3881.325
2581.52719	3853.725
2584.21451	3859.425
2586.90015	3838.725
2589.58411	3837.025
2592.2664	3823.325
2594.94701	3820.225
2597.62594	3826.025
2600.30321	3802.025
2602.9788	3816.825
2605.65273	3795.725
2608.32498	3809.125
2610.99557	3792.425
2613.66449	3794.625
2616.33175	3804.625
2618.99734	3781.225
2621.66128	3772.125
2624.32355	3778.625
2626.98416	3777.525
2629.64311	3765.525
2632.30041	3752.725
2634.95605	3745.425
2637.61004	3724.925
2640.26238	3733.625
2642.91306	3731.725
2645.56209	3724.625
2648.20948	3714.025
2650.85521	3728.425
2653.4993	3728.625
2656.14175	3714.625
2658.78255	3731.225
2661.42171	3727.825
2664.05923	3725.725
2666.6951	3735.125
2669.32934	3727.825
2671.96194	3746.925
2674.59291	3731.625
2677.22224	3729.925
2679.84993	3735.125
2682.476	3717.825
2685.10043	3715.625
2687.72324	3719.025
2690.34441	3716.825
2692.96396	3722.125
2695.58188	3713.025
2698.19818	3721.125
2700.81285	3716.825
2703.4259	3715.425
2706.03733	3708.725
2708.64714	3708.925
2711.25533	3696.025
2713.86191	3692.925
2716.46687	3709.225
2719.07021	3696.125
2721.67194	3700.325
2724.27206	3703.725
2726.87057	3708.925
2729.46747	3716.225
2732.06276	3700.725
2734.65644	3704.925
2737.24852	3683.025
2739.83899	3675.425
2742.42786	3683.725
2745.01513	3675.525
2747.60079	3679.725
2750.18486	3671.025
2752.76733	3676.325
2755.3482	3659.825
2757.92747	3650.225
2760.50515	3649.425
2763.08123	3624.925
2765.65573	3627.425
2768.22863	3630.025
2770.79994	3609.325
2773.36967	3621.825
2775.9378	3615.525
2778.50435	3608.125
2781.06932	3594.425
2783.6327	3595.725
2786.1945	3587.525
2788.75471	3567.425
2791.31335	3570.925
2793.87041	3579.225
2796.42589	3571.325
2798.97979	3571.325
2801.53212	3551.925
2804.08288	3553.525
2806.63206	3546.325
2809.17967	3554.225
2811.72571	3532.125
2814.27018	3543.125
2816.81308	3529.925
2819.35442	3539.225
2821.89419	3514.325
2824.43239	3513.625
2826.96904	3507.125
2829.50412	3513.425
2832.03763	3492.225
2834.56959	3484.225
2837.1	3475.625
2839.62884	3467.725
2842.15613	3468.425
2844.68186	3460.725
2847.20604	3467.525
2849.72867	3451.025
2852.24974	3445.025
2854.76927	3431.625
2857.28724	3433.225
2859.80367	3434.625
2862.31855	3423.325
2864.83189	3426.225
2867.34368	3424.825
2869.85393	3432.925
2872.36264	3425.225
2874.8698	3424.625
2877.37543	3410.325
2879.87952	3404.525
2882.38207	3402.925
2884.88308	3401.525
2887.38256	3405.525
2889.88051	3390.825
2892.37692	3398.225
2894.8718	3383.725
2897.36515	3388.725
2899.85698	3376.225
2902.34727	3398.625
2904.83604	3363.225
2907.32328	3391.025
2909.809	3397.725
2912.29319	3396.325
2914.77587	3400.725
2917.25702	3401.625
2919.73665	3391.625
2922.21476	3406.625
2924.69136	3403.825
2927.16644	3386.225
2929.64	3388.925
2932.11205	3383.025
2934.58258	3376.025
2937.05161	3360.625
2939.51912	3344.925
2941.98513	3351.125
2944.44962	3343.925
2946.91261	3327.125
2949.37409	3345.925
2951.83407	3337.425
2954.29254	3332.925
2956.74951	3323.725
2959.20498	3319.725
2961.65895	3324.325
2964.11142	3313.825
2966.56239	3305.425
2969.01186	3315.425
2971.45984	3314.625
2973.90632	3318.525
2976.35131	3302.225
2978.7948	3297.625
2981.23681	3280.625
2983.67732	3283.925
2986.11635	3278.225
2988.55388	3256.225
2990.98993	3271.225
2993.4245	3255.825
2995.85758	3264.625
2998.28917	3243.625
3000.71928	3237.525
3003.14791	3221.225
3005.57506	3223.525
3008.00073	3199.325
3010.42493	3202.225
3012.84764	3187.725
3015.26888	3191.725
3017.68865	3174.525
3020.10694	3180.425
3022.52376	3170.225
3024.9391	3161.425
3027.35298	3146.825
3029.76539	3135.025
3032.17632	3137.225
3034.5858	3130.525
3036.9938	3128.325
3039.40034	3104.925
3041.80542	3094.425
3044.20903	3099.725
3046.61118	3104.825
3049.01187	3079.125
3051.4111	3076.725
3053.80888	3086.425
3056.20519	3074.325
3058.60005	3056.725
3060.99345	3055.025
3063.3854	3049.025
3065.7759	3052.425
3068.16494	3057.625
3070.55254	3043.325
3072.93868	3028.725
3075.32338	3011.025
3077.70662	3004.525
3080.08842	2988.525
3082.46878	2981.125
3084.84769	2973.325
3087.22515	2960.925
3089.60118	2970.725
3091.97576	2974.025
3094.3489	2957.925
3096.72061	2951.425
3099.09087	2973.125
3101.4597	2967.325
3103.82709	2950.425
3106.19305	2947.525
3108.55757	2940.125
3110.92066	2939.025
3113.28232	2949.625
3115.64255	2918.925
3118.00134	2919.325
3120.35871	2898.525
3122.71466	2909.725
3125.06917	2902.525
3127.42226	2896.625
3129.77393	2888.625
3132.12417	2894.225
3134.47299	2886.325
3136.82039	2859.725
3139.16636	2877.025
3141.51092	2872.225
3143.85406	2864.025
3146.19579	2874.625
3148.53609	2870.525
3150.87499	2874.525
3153.21246	2860.825
3155.54853	2869.625
3157.88318	2862.725
3160.21642	2859.725
3162.54826	2850.225
3164.87868	2852.325
3167.2077	2847.025
3169.5353	2853.725
3171.86151	2833.225
3174.18631	2830.525
3176.5097	2831.125
3178.83169	2829.225
3181.15228	2818.625
3183.47147	2812.525
3185.78926	2808.925
3188.10565	2794.225
3190.42065	2788.525
3192.73424	2793.425
3195.04645	2779.125
3197.35725	2775.325
3199.66667	2760.425
3201.97469	2766.325
3204.28132	2770.525
3206.58656	2771.725
3208.8904	2783.225
3211.19287	2776.125
3213.49394	2782.525
3215.79363	2789.525
3218.09193	2774.625
3220.38884	2770.925
3222.68438	2777.625
3224.97853	2761.725
3227.2713	2767.025
3229.56269	2764.425
3231.8527	2749.625
3234.14133	2759.125
3236.42858	2733.325
3238.71446	2730.425
3240.99896	2719.425
3243.28209	2728.225
3245.56384	2706.925
3247.84423	2720.625
3250.12324	2701.925
3252.40088	2698.225
3254.67715	2696.625
3256.95205	2691.125
3259.22558	2692.825
3261.49775	2672.725
3263.76855	2689.925
3266.03799	2699.525
3268.30606	2693.425
3270.57277	2698.025
3272.83812	2676.725
3275.10211	2684.525
3277.36474	2670.125
3279.62601	2665.525
3281.88593	2655.525
3284.14448	2653.525
3286.40168	2662.725
3288.65753	2650.925
3290.91202	2645.725
3293.16516	2627.225
3295.41695	2634.125
3297.66738	2623.225
3299.91647	2594.425
3302.16421	2599.725
3304.4106	2584.425
3306.65564	2563.925
3308.89933	2552.925
3311.14169	2516.125
3313.38269	2500.225
3315.62236	2495.825
3317.86068	2468.225
3320.09766	2446.525
3322.3333	2423.325
3324.5676	2407.425
3326.80056	2382.825
3329.03219	2360.925
3331.26248	1.225
3333.49143	-0.175
3335.71905	0.125
