Data from AgNPs_UA_5uM_CRN_500uM_SU_RamanShift__241__12-09-33-188.txt Node

Date: Thu Aug 04 12:09:33 BST 2022
User: TCL
Spectrometer: QEP01345
Trigger mode: 4
Integration Time (sec): 1.000000E0
Scans to average: 10
Electric dark correction enabled: true
Nonlinearity correction enabled: false
Boxcar width: 0
XAxis mode: Raman Shifts
Number of Pixels in Spectrum: 1044
>>>>>Begin Spectral Data<<<<<
46.04893	-0.1125
50.45542	-0.0125
54.85868	-0.4125
59.25871	0.4875
63.6555	-57.4125
68.04907	-39.3125
72.43941	-71.4125
76.82654	-55.3125
81.21044	-56.4125
85.59113	-49.8125
89.96862	-75.1125
94.34289	-56.6125
98.71396	-76.1125
103.08183	-58.1125
107.4465	-50.0125
111.80798	-55.4125
116.16626	-43.3125
120.52136	-73.4125
124.87327	-51.1125
129.222	-62.5125
133.56755	-50.9125
137.90993	-62.0125
142.24913	-52.8125
146.58517	-42.0125
150.91804	-39.5125
155.24774	-31.5125
159.57429	-8.8125
163.89768	-4.3125
168.21792	36.3875
172.53501	56.7875
176.84895	138.7875
181.15975	271.8875
185.46741	416.4875
189.77193	594.4875
194.07331	880.2875
198.37157	1167.6875
202.6667	1452.3875
206.9587	1766.6875
211.24758	2070.6875
215.53334	2397.0875
219.81599	2755.3875
224.09553	3161.1875
228.37195	3591.7875
232.64527	4042.1875
236.91549	4515.2875
241.18261	4840.6875
245.44663	5139.5875
249.70755	5299.5875
253.96539	5430.5875
258.22014	5524.5875
262.4718	5590.4875
266.72039	5641.3875
270.96589	5608.9875
275.20832	5514.2875
279.44768	5413.3875
283.68397	5298.1875
287.91719	5237.6875
292.14735	5294.1875
296.37445	5464.4875
300.59849	5763.6875
304.81948	6091.1875
309.03742	6469.0875
313.25231	6702.3875
317.46415	6644.8875
321.67296	6283.2875
325.87872	5862.8875
330.08145	5663.6875
334.28114	5623.5875
338.47781	5672.7875
342.67145	5808.7875
346.86207	6045.3875
351.04966	6422.1875
355.23424	6805.0875
359.4158	7058.2875
363.59435	7114.6875
367.76989	7049.5875
371.94243	6924.3875
376.11196	6793.9875
380.27849	6701.9875
384.44203	6656.1875
388.60257	6604.6875
392.76012	6628.1875
396.91468	6741.8875
401.06626	6884.8875
405.21485	6922.7875
409.36047	6764.0875
413.50311	6419.8875
417.64277	6111.4875
421.77947	5926.7875
425.9132	5857.3875
430.04396	5853.8875
434.17176	5883.4875
438.2966	5977.0875
442.41849	6050.1875
446.53742	6174.5875
450.6534	6284.8875
454.76644	6347.4875
458.87653	6352.1875
462.98368	6295.7875
467.08789	6223.7875
471.18916	6172.3875
475.2875	6047.4875
479.38291	5930.9875
483.4754	5826.0875
487.56496	5797.0875
491.6516	5738.6875
495.73531	5782.0875
499.81612	5792.4875
503.89401	5884.4875
507.96899	5940.7875
512.04106	6025.5875
516.11023	6131.3875
520.1765	6206.1875
524.23987	6217.0875
528.30034	6225.6875
532.35792	6141.8875
536.41261	6089.9875
540.46441	5977.8875
544.51333	5942.2875
548.55936	5994.3875
552.60252	6113.4875
556.64279	6224.6875
560.6802	6329.1875
564.71473	6461.8875
568.7464	6651.8875
572.7752	6632.3875
576.80114	6345.9875
580.82422	6106.3875
584.84444	6029.6875
588.86181	5982.5875
592.87633	6019.4875
596.888	6136.7875
600.89682	6487.3875
604.9028	7480.8875
608.90594	9583.6875
612.90624	11948.2875
616.90371	11062.1875
620.89834	7970.5875
624.89015	6615.8875
628.87913	6436.2875
632.86528	6578.6875
636.84862	6731.1875
640.82913	6601.4875
644.80683	6271.3875
648.78172	6054.8875
652.75379	6091.3875
656.72306	6327.3875
660.68952	6556.8875
664.65319	6479.1875
668.61405	6252.4875
672.57211	6178.0875
676.52738	6172.9875
680.47986	6081.0875
684.42955	5973.8875
688.37646	5929.7875
692.32058	5937.7875
696.26192	6003.4875
700.20048	6091.9875
704.13626	6139.0875
708.06928	6085.7875
711.99952	6078.7875
715.927	6034.8875
719.85171	6101.3875
723.77365	6126.9875
727.69284	6102.4875
731.60928	6096.6875
735.52295	6072.5875
739.43388	6113.1875
743.34206	6132.3875
747.24749	6141.7875
751.15017	6153.4875
755.05012	6229.5875
758.94733	6620.6875
762.8418	7473.3875
766.73354	8858.8875
770.62254	9868.0875
774.50882	9930.3875
778.39237	9419.0875
782.27321	8463.7875
786.15132	7389.3875
790.02671	6713.3875
793.89938	6314.5875
797.76935	6209.0875
801.6366	6103.4875
805.50115	6080.3875
809.36299	6055.1875
813.22213	6038.4875
817.07857	6050.6875
820.93231	6041.9875
824.78336	6067.1875
828.63172	6088.0875
832.47738	6083.6875
836.32036	6094.1875
840.16066	6063.4875
843.99827	6033.7875
847.8332	6035.7875
851.66546	6050.3875
855.49504	6039.6875
859.32195	6069.6875
863.1462	6068.7875
866.96777	6060.9875
870.78668	6037.9875
874.60293	6073.1875
878.41652	6087.8875
882.22745	6180.8875
886.03573	6199.9875
889.84136	6187.1875
893.64433	6215.4875
897.44466	6189.8875
901.24235	6171.4875
905.0374	6163.9875
908.8298	6112.0875
912.61957	6078.1875
916.40671	6037.1875
920.19121	6085.6875
923.97308	6168.4875
927.75233	6245.0875
931.52895	6292.9875
935.30295	6261.5875
939.07433	6106.9875
942.84309	5990.6875
946.60924	5975.0875
950.37278	5925.9875
954.13371	5934.9875
957.89203	5902.6875
961.64774	5946.3875
965.40086	5938.2875
969.15137	5907.9875
972.89929	5927.0875
976.64461	5907.5875
980.38733	5950.4875
984.12747	5923.3875
987.86502	5934.3875
991.59999	5973.5875
995.33237	6035.2875
999.06217	6104.6875
1002.78939	6202.8875
1006.51404	6300.1875
1010.23611	6426.2875
1013.95561	6473.3875
1017.67255	6490.4875
1021.38692	6459.6875
1025.09872	6383.1875
1028.80796	6313.5875
1032.51465	6288.0875
1036.21877	6307.7875
1039.92035	6353.9875
1043.61937	6384.4875
1047.31584	6432.6875
1051.00976	6481.9875
1054.70114	6458.7875
1058.38998	6463.8875
1062.07627	6461.9875
1065.76003	6498.1875
1069.44126	6588.6875
1073.11995	6654.0875
1076.79611	6792.1875
1080.46974	6949.5875
1084.14085	7114.0875
1087.80943	7259.4875
1091.47549	7281.7875
1095.13903	7176.5875
1098.80005	7073.1875
1102.45857	6956.8875
1106.11456	6946.0875
1109.76805	6860.5875
1113.41903	7004.2875
1117.06751	7184.7875
1120.71348	7436.8875
1124.35696	7820.4875
1127.99793	8116.8875
1131.63641	7953.1875
1135.2724	7538.4875
1138.90589	7263.0875
1142.5369	7040.2875
1146.16542	6907.8875
1149.79145	6821.1875
1153.415	6776.9875
1157.03607	6787.5875
1160.65467	6874.6875
1164.27079	7098.5875
1167.88443	7354.9875
1171.49561	7779.4875
1175.10432	8398.5875
1178.71056	9313.0875
1182.31434	10149.3875
1185.91565	10391.5875
1189.51451	10222.8875
1193.11091	9979.9875
1196.70485	9729.4875
1200.29634	9465.7875
1203.88538	9203.4875
1207.47197	8734.6875
1211.05612	8252.4875
1214.63782	7819.9875
1218.21708	7570.5875
1221.79391	7425.8875
1225.36829	7344.2875
1228.94024	7339.1875
1232.50976	7360.3875
1236.07685	7393.4875
1239.6415	7414.0875
1243.20374	7439.5875
1246.76355	7459.3875
1250.32093	7534.8875
1253.8759	7594.5875
1257.42845	7776.8875
1260.97859	7988.0875
1264.52631	8232.9875
1268.07163	8375.8875
1271.61453	8519.3875
1275.15503	8564.0875
1278.69312	8556.0875
1282.22882	8623.7875
1285.76211	8824.8875
1289.29301	9082.1875
1292.82151	9369.4875
1296.34761	9579.4875
1299.87133	9995.0875
1303.39266	10718.3875
1306.9116	11856.3875
1310.42815	13120.9875
1313.94233	13542.8875
1317.45412	12758.1875
1320.96354	11612.5875
1324.47058	10572.7875
1327.97525	9817.8875
1331.47754	9387.2875
1334.97747	9299.7875
1338.47502	9395.2875
1341.97022	9784.7875
1345.46305	10533.8875
1348.95352	11598.3875
1352.44163	12962.7875
1355.92738	14369.2875
1359.41078	16057.1875
1362.89183	17594.6875
1366.37053	16979.0875
1369.84688	14074.6875
1373.32088	11332.8875
1376.79254	9868.5875
1380.26186	9176.3875
1383.72883	8759.8875
1387.19347	8356.4875
1390.65578	7991.9875
1394.11575	7745.5875
1397.57339	7593.0875
1401.0287	7473.6875
1404.48168	7412.7875
1407.93234	7425.0875
1411.38068	7442.6875
1414.82669	7528.8875
1418.27039	7608.0875
1421.71177	7608.7875
1425.15083	7486.3875
1428.58758	7407.7875
1432.02203	7459.3875
1435.45416	7531.0875
1438.88399	7520.6875
1442.31151	7526.3875
1445.73673	7597.4875
1449.15965	7623.3875
1452.58027	7647.8875
1455.9986	7631.6875
1459.41463	7654.0875
1462.82837	7762.1875
1466.23982	7933.8875
1469.64898	8152.4875
1473.05586	8298.0875
1476.46045	8409.6875
1479.86276	8488.7875
1483.26279	8567.9875
1486.66054	8793.8875
1490.05602	9092.2875
1493.44922	9645.3875
1496.84016	10540.5875
1500.22882	11945.6875
1503.61521	13730.0875
1506.99934	15544.5875
1510.38121	16773.6875
1513.76081	16597.2875
1517.13816	14972.1875
1520.51324	12821.7875
1523.88607	11094.2875
1527.25665	10081.7875
1530.62498	9579.3875
1533.99105	9345.2875
1537.35488	9268.0875
1540.71647	9129.1875
1544.07581	9016.0875
1547.4329	8872.4875
1550.78776	8747.4875
1554.14038	8642.4875
1557.49077	8640.2875
1560.83892	8713.2875
1564.18484	8948.4875
1567.52853	9286.1875
1570.86999	9625.8875
1574.20922	9753.7875
1577.54624	9670.0875
1580.88103	9137.7875
1584.2136	8435.4875
1587.54395	8056.7875
1590.87208	7963.7875
1594.19801	8132.4875
1597.52172	8513.7875
1600.84321	8647.7875
1604.16251	8507.5875
1607.47959	8289.8875
1610.79447	8096.5875
1614.10715	7834.1875
1617.41763	7536.2875
1620.7259	7262.3875
1624.03199	7099.2875
1627.33587	7035.5875
1630.63757	7092.8875
1633.93707	7304.3875
1637.23439	7738.6875
1640.52951	8422.3875
1643.82246	9422.1875
1647.11321	10602.6875
1650.40179	11332.0875
1653.68819	11004.9875
1656.97241	9734.2875
1660.25446	8334.1875
1663.53433	7325.7875
1666.81203	6708.8875
1670.08756	6362.2875
1673.36092	6172.0875
1676.63211	6062.0875
1679.90115	5943.9875
1683.16801	5853.2875
1686.43272	5764.9875
1689.69527	5730.3875
1692.95567	5657.2875
1696.2139	5649.1875
1699.46999	5594.5875
1702.72392	5595.5875
1705.97571	5599.6875
1709.22535	5594.6875
1712.47284	5628.7875
1715.71819	5635.3875
1718.96139	5618.6875
1722.20246	5622.7875
1725.44139	5571.0875
1728.67818	5544.1875
1731.91284	5512.2875
1735.14537	5468.4875
1738.37576	5422.6875
1741.60403	5419.7875
1744.83017	5397.0875
1748.05418	5410.7875
1751.27607	5392.2875
1754.49584	5357.4875
1757.71349	5321.3875
1760.92903	5311.0875
1764.14244	5285.6875
1767.35375	5272.6875
1770.56294	5262.3875
1773.77002	5232.4875
1776.97499	5262.1875
1780.17785	5232.8875
1783.37861	5225.3875
1786.57727	5244.5875
1789.77382	5181.2875
1792.96828	5227.7875
1796.16064	5220.0875
1799.3509	5192.6875
1802.53907	5195.1875
1805.72514	5162.3875
1808.90913	5146.2875
1812.09102	5135.0875
1815.27083	5132.5875
1818.44856	5109.5875
1821.6242	5099.6875
1824.79776	5089.9875
1827.96924	5082.4875
1831.13864	5041.9875
1834.30597	5080.2875
1837.47122	5062.7875
1840.6344	5038.0875
1843.7955	5015.1875
1846.95454	5008.8875
1850.11151	5044.7875
1853.26642	5007.2875
1856.41926	4994.2875
1859.57004	5016.8875
1862.71876	4982.9875
1865.86542	4995.4875
1869.01003	4992.6875
1872.15258	4980.5875
1875.29308	4987.3875
1878.43152	4986.9875
1881.56792	4967.3875
1884.70227	4949.7875
1887.83457	4937.0875
1890.96482	4926.5875
1894.09304	4939.4875
1897.21921	4922.1875
1900.34335	4916.1875
1903.46544	4899.2875
1906.58551	4898.6875
1909.70353	4910.8875
1912.81953	4892.5875
1915.93349	4876.9875
1919.04543	4860.5875
1922.15534	4862.6875
1925.26322	4854.8875
1928.36908	4818.8875
1931.47292	4823.7875
1934.57473	4831.4875
1937.67453	4818.1875
1940.77232	4787.8875
1943.86808	4763.4875
1946.96184	4777.3875
1950.05358	4740.1875
1953.14331	4744.1875
1956.23103	4739.9875
1959.31675	4702.2875
1962.40046	4654.8875
1965.48217	4671.7875
1968.56188	4654.3875
1971.63959	4654.3875
1974.7153	4651.0875
1977.78901	4636.9875
1980.86073	4628.4875
1983.93046	4587.6875
1986.99819	4508.9875
1990.06394	4524.2875
1993.1277	4545.8875
1996.18947	4524.8875
1999.24925	4473.7875
2002.30706	4506.7875
2005.36288	4474.0875
2008.41672	4464.4875
2011.46859	4429.0875
2014.51848	4426.5875
2017.56639	4420.0875
2020.61233	4379.1875
2023.6563	4382.3875
2026.6983	4358.1875
2029.73833	4358.0875
2032.7764	4364.3875
2035.8125	4306.0875
2038.84664	4333.8875
2041.87881	4301.2875
2044.90903	4310.8875
2047.93729	4299.6875
2050.96359	4286.1875
2053.98794	4276.7875
2057.01034	4288.3875
2060.03078	4256.9875
2063.04927	4263.5875
2066.06582	4272.2875
2069.08042	4234.4875
2072.09307	4245.8875
2075.10378	4231.3875
2078.11255	4234.4875
2081.11938	4238.2875
2084.12426	4228.5875
2087.12722	4220.9875
2090.12824	4217.8875
2093.12732	4211.3875
2096.12447	4220.0875
2099.11969	4211.4875
2102.11299	4211.6875
2105.10435	4242.1875
2108.09379	4220.2875
2111.08131	4215.1875
2114.0669	4220.8875
2117.05057	4198.8875
2120.03233	4205.6875
2123.01216	4224.3875
2125.99008	4225.5875
2128.96609	4215.2875
2131.94018	4252.3875
2134.91236	4225.2875
2137.88263	4238.4875
2140.851	4232.1875
2143.81746	4255.7875
2146.78201	4242.8875
2149.74466	4229.0875
2152.7054	4237.6875
2155.66425	4224.2875
2158.6212	4210.1875
2161.57625	4182.6875
2164.52941	4166.9875
2167.48067	4185.4875
2170.43004	4184.7875
2173.37752	4198.3875
2176.32311	4168.0875
2179.26681	4190.1875
2182.20863	4186.4875
2185.14856	4183.1875
2188.08661	4184.6875
2191.02278	4189.0875
2193.95707	4160.9875
2196.88948	4164.3875
2199.82001	4182.8875
2202.74867	4149.9875
2205.67545	4153.6875
2208.60037	4171.4875
2211.52341	4140.8875
2214.44458	4143.9875
2217.36388	4121.2875
2220.28132	4105.9875
2223.1969	4087.5875
2226.11061	4081.3875
2229.02246	4072.0875
2231.93245	4087.3875
2234.84058	4062.7875
2237.74686	4042.3875
2240.65128	4040.1875
2243.55385	4041.1875
2246.45456	4013.5875
2249.35343	4027.5875
2252.25044	4013.7875
2255.14561	4018.4875
2258.03893	4038.9875
2260.93041	4005.4875
2263.82004	3985.3875
2266.70783	4007.6875
2269.59378	3983.0875
2272.4779	3976.8875
2275.36017	3954.2875
2278.24061	3943.8875
2281.11922	3924.3875
2283.996	3932.9875
2286.87094	3904.5875
2289.74405	3904.8875
2292.61534	3901.8875
2295.4848	3903.4875
2298.35243	3893.2875
2301.21824	3884.8875
2304.08223	3886.6875
2306.94439	3885.0875
2309.80474	3876.4875
2312.66327	3889.0875
2315.51999	3845.2875
2318.37489	3860.0875
2321.22797	3838.4875
2324.07925	3832.6875
2326.92871	3845.5875
2329.77637	3810.3875
2332.62222	3817.0875
2335.46626	3788.6875
2338.3085	3786.7875
2341.14893	3806.7875
2343.98756	3793.8875
2346.8244	3777.9875
2349.65943	3773.4875
2352.49267	3775.0875
2355.32411	3773.7875
2358.15376	3777.5875
2360.98161	3772.1875
2363.80768	3758.5875
2366.63195	3778.0875
2369.45444	3781.9875
2372.27514	3768.5875
2375.09405	3780.4875
2377.91118	3744.9875
2380.72652	3741.1875
2383.54009	3734.9875
2386.35187	3735.4875
2389.16188	3709.1875
2391.97011	3712.9875
2394.77657	3695.1875
2397.58125	3695.5875
2400.38416	3686.4875
2403.18529	3674.1875
2405.98466	3657.9875
2408.78226	3652.5875
2411.57809	3655.1875
2414.37216	3642.7875
2417.16446	3634.2875
2419.955	3604.5875
2422.74378	3634.8875
2425.5308	3606.1875
2428.31606	3605.0875
2431.09956	3616.6875
2433.88131	3585.1875
2436.6613	3598.7875
2439.43954	3591.0875
2442.21603	3583.0875
2444.99077	3578.3875
2447.76377	3598.9875
2450.53501	3587.9875
2453.30451	3568.0875
2456.07226	3575.0875
2458.83827	3571.1875
2461.60254	3528.1875
2464.36507	3560.9875
2467.12586	3544.9875
2469.88492	3551.3875
2472.64224	3555.5875
2475.39782	3519.3875
2478.15167	3556.1875
2480.90379	3525.6875
2483.65417	3543.7875
2486.40283	3546.0875
2489.14976	3550.3875
2491.89497	3556.0875
2494.63845	3541.0875
2497.3802	3532.8875
2500.12024	3530.4875
2502.85855	3520.3875
2505.59514	3530.6875
2508.33002	3504.7875
2511.06318	3468.0875
2513.79462	3489.6875
2516.52435	3448.1875
2519.25237	3422.6875
2521.97867	3439.8875
2524.70327	3432.6875
2527.42616	3441.2875
2530.14734	3431.4875
2532.86681	3408.6875
2535.58458	3423.9875
2538.30065	3409.1875
2541.01501	3413.5875
2543.72768	3403.6875
2546.43864	3406.6875
2549.14791	3421.4875
2551.85548	3377.4875
2554.56136	3369.3875
2557.26554	3374.3875
2559.96803	3377.5875
2562.66883	3370.6875
2565.36794	3359.4875
2568.06536	3310.6875
2570.7611	3342.0875
2573.45514	3323.8875
2576.14751	3327.3875
2578.83819	3314.4875
2581.52719	3293.1875
2584.21451	3303.7875
2586.90015	3284.9875
2589.58411	3268.3875
2592.2664	3278.3875
2594.94701	3280.6875
2597.62594	3279.5875
2600.30321	3200.8875
2602.9788	3227.6875
2605.65273	3230.9875
2608.32498	3228.9875
2610.99557	3240.2875
2613.66449	3216.0875
2616.33175	3221.9875
2618.99734	3231.3875
2621.66128	3220.9875
2624.32355	3198.1875
2626.98416	3195.7875
2629.64311	3174.8875
2632.30041	3180.7875
2634.95605	3156.4875
2637.61004	3147.7875
2640.26238	3128.7875
2642.91306	3136.4875
2645.56209	3167.4875
2648.20948	3144.7875
2650.85521	3146.5875
2653.4993	3142.0875
2656.14175	3135.1875
2658.78255	3137.5875
2661.42171	3105.9875
2664.05923	3145.5875
2666.6951	3158.9875
2669.32934	3152.1875
2671.96194	3166.6875
2674.59291	3147.3875
2677.22224	3136.6875
2679.84993	3144.1875
2682.476	3126.1875
2685.10043	3133.7875
2687.72324	3108.6875
2690.34441	3126.6875
2692.96396	3113.8875
2695.58188	3125.8875
2698.19818	3119.6875
2700.81285	3106.1875
2703.4259	3115.5875
2706.03733	3076.9875
2708.64714	3077.6875
2711.25533	3108.1875
2713.86191	3109.0875
2716.46687	3109.3875
2719.07021	3098.0875
2721.67194	3108.0875
2724.27206	3112.9875
2726.87057	3096.1875
2729.46747	3098.0875
2732.06276	3100.4875
2734.65644	3085.4875
2737.24852	3080.6875
2739.83899	3065.1875
2742.42786	3080.4875
2745.01513	3079.1875
2747.60079	3061.3875
2750.18486	3043.3875
2752.76733	3047.6875
2755.3482	3039.8875
2757.92747	3048.9875
2760.50515	3020.7875
2763.08123	3009.9875
2765.65573	3023.6875
2768.22863	3004.3875
2770.79994	2995.4875
2773.36967	2996.4875
2775.9378	2997.8875
2778.50435	2990.1875
2781.06932	2978.4875
2783.6327	2969.8875
2786.1945	2976.7875
2788.75471	2971.7875
2791.31335	2968.3875
2793.87041	2969.3875
2796.42589	2943.8875
2798.97979	2940.1875
2801.53212	2944.1875
2804.08288	2947.7875
2806.63206	2926.4875
2809.17967	2917.7875
2811.72571	2921.6875
2814.27018	2932.9875
2816.81308	2909.9875
2819.35442	2872.4875
2821.89419	2890.6875
2824.43239	2875.1875
2826.96904	2903.0875
2829.50412	2881.2875
2832.03763	2878.4875
2834.56959	2871.7875
2837.1	2867.2875
2839.62884	2864.7875
2842.15613	2862.7875
2844.68186	2886.8875
2847.20604	2848.8875
2849.72867	2852.9875
2852.24974	2858.6875
2854.76927	2828.0875
2857.28724	2791.8875
2859.80367	2836.5875
2862.31855	2833.6875
2864.83189	2820.1875
2867.34368	2830.4875
2869.85393	2845.3875
2872.36264	2819.7875
2874.8698	2821.2875
2877.37543	2821.3875
2879.87952	2818.8875
2882.38207	2796.0875
2884.88308	2804.2875
2887.38256	2815.9875
2889.88051	2802.6875
2892.37692	2796.0875
2894.8718	2768.0875
2897.36515	2803.5875
2899.85698	2782.9875
2902.34727	2788.4875
2904.83604	2800.8875
2907.32328	2802.6875
2909.809	2805.1875
2912.29319	2793.6875
2914.77587	2807.6875
2917.25702	2820.1875
2919.73665	2817.9875
2922.21476	2827.5875
2924.69136	2820.2875
2927.16644	2813.0875
2929.64	2810.2875
2932.11205	2791.3875
2934.58258	2794.5875
2937.05161	2785.2875
2939.51912	2776.6875
2941.98513	2805.6875
2944.44962	2785.7875
2946.91261	2741.3875
2949.37409	2752.0875
2951.83407	2737.8875
2954.29254	2743.3875
2956.74951	2745.6875
2959.20498	2728.7875
2961.65895	2728.2875
2964.11142	2721.4875
2966.56239	2715.5875
2969.01186	2732.5875
2971.45984	2714.8875
2973.90632	2696.3875
2976.35131	2729.6875
2978.7948	2704.1875
2981.23681	2694.6875
2983.67732	2695.6875
2986.11635	2678.0875
2988.55388	2657.6875
2990.98993	2667.8875
2993.4245	2645.3875
2995.85758	2645.4875
2998.28917	2642.1875
3000.71928	2631.3875
3003.14791	2630.4875
3005.57506	2610.3875
3008.00073	2604.0875
3010.42493	2549.1875
3012.84764	2607.5875
3015.26888	2592.2875
3017.68865	2588.3875
3020.10694	2557.3875
3022.52376	2547.6875
3024.9391	2556.1875
3027.35298	2552.8875
3029.76539	2539.2875
3032.17632	2531.5875
3034.5858	2526.4875
3036.9938	2529.5875
3039.40034	2521.5875
3041.80542	2525.1875
3044.20903	2495.6875
3046.61118	2507.0875
3049.01187	2499.8875
3051.4111	2492.4875
3053.80888	2476.1875
3056.20519	2476.8875
3058.60005	2463.5875
3060.99345	2490.7875
3063.3854	2448.3875
3065.7759	2442.0875
3068.16494	2447.2875
3070.55254	2433.9875
3072.93868	2440.1875
3075.32338	2437.7875
3077.70662	2419.8875
3080.08842	2408.7875
3082.46878	2396.7875
3084.84769	2417.3875
3087.22515	2387.6875
3089.60118	2400.8875
3091.97576	2378.2875
3094.3489	2390.9875
3096.72061	2381.0875
3099.09087	2371.6875
3101.4597	2380.6875
3103.82709	2379.7875
3106.19305	2363.1875
3108.55757	2375.4875
3110.92066	2352.5875
3113.28232	2370.9875
3115.64255	2354.2875
3118.00134	2350.1875
3120.35871	2330.9875
3122.71466	2320.3875
3125.06917	2325.7875
3127.42226	2317.9875
3129.77393	2304.2875
3132.12417	2311.5875
3134.47299	2327.3875
3136.82039	2292.8875
3139.16636	2279.5875
3141.51092	2304.8875
3143.85406	2296.8875
3146.19579	2284.7875
3148.53609	2281.5875
3150.87499	2277.7875
3153.21246	2279.3875
3155.54853	2304.7875
3157.88318	2282.4875
3160.21642	2293.0875
3162.54826	2277.3875
3164.87868	2299.2875
3167.2077	2251.0875
3169.5353	2269.3875
3171.86151	2274.1875
3174.18631	2254.9875
3176.5097	2260.5875
3178.83169	2259.5875
3181.15228	2260.1875
3183.47147	2234.8875
3185.78926	2213.8875
3188.10565	2224.9875
3190.42065	2200.8875
3192.73424	2214.0875
3195.04645	2210.9875
3197.35725	2207.0875
3199.66667	2214.2875
3201.97469	2209.0875
3204.28132	2181.6875
3206.58656	2207.8875
3208.8904	2207.6875
3211.19287	2196.7875
3213.49394	2194.0875
3215.79363	2187.0875
3218.09193	2199.0875
3220.38884	2192.1875
3222.68438	2190.7875
3224.97853	2166.3875
3227.2713	2189.6875
3229.56269	2170.7875
3231.8527	2172.3875
3234.14133	2159.3875
3236.42858	2157.9875
3238.71446	2140.0875
3240.99896	2160.1875
3243.28209	2134.1875
3245.56384	2140.2875
3247.84423	2123.8875
3250.12324	2127.5875
3252.40088	2128.3875
3254.67715	2118.8875
3256.95205	2106.6875
3259.22558	2123.2875
3261.49775	2124.2875
3263.76855	2107.8875
3266.03799	2123.2875
3268.30606	2113.5875
3270.57277	2116.1875
3272.83812	2097.6875
3275.10211	2100.0875
3277.36474	2112.0875
3279.62601	2098.5875
3281.88593	2076.2875
3284.14448	2061.3875
3286.40168	2079.2875
3288.65753	2059.4875
3290.91202	2064.0875
3293.16516	2045.3875
3295.41695	2077.9875
3297.66738	2059.6875
3299.91647	2045.9875
3302.16421	2051.2875
3304.4106	1984.2875
3306.65564	2030.0875
3308.89933	1988.4875
3311.14169	1981.8875
3313.38269	1969.6875
3315.62236	1955.1875
3317.86068	1949.1875
3320.09766	1935.0875
3322.3333	1904.8875
3324.5676	1902.9875
3326.80056	1870.7875
3329.03219	1870.8875
3331.26248	1.0875
3333.49143	-0.1125
3335.71905	-0.8125
