Data from AgNPs_UA_5uM_CRN_500uM_SU_RamanShift__96__11-45-23-158.txt Node

Date: Thu Aug 04 11:45:23 BST 2022
User: TCL
Spectrometer: QEP01345
Trigger mode: 4
Integration Time (sec): 1.000000E0
Scans to average: 10
Electric dark correction enabled: true
Nonlinearity correction enabled: false
Boxcar width: 0
XAxis mode: Raman Shifts
Number of Pixels in Spectrum: 1044
>>>>>Begin Spectral Data<<<<<
46.04893	0.7875
50.45542	-0.1125
54.85868	1.1875
59.25871	-1.1125
63.6555	-65.3125
68.04907	-47.8125
72.43941	-80.1125
76.82654	-63.9125
81.21044	-63.1125
85.59113	-58.2125
89.96862	-85.1125
94.34289	-65.3125
98.71396	-86.9125
103.08183	-68.8125
107.4465	-60.6125
111.80798	-67.8125
116.16626	-56.3125
120.52136	-86.1125
124.87327	-64.7125
129.222	-78.5125
133.56755	-65.4125
137.90993	-81.2125
142.24913	-71.8125
146.58517	-68.6125
150.91804	-70.5125
155.24774	-66.9125
159.57429	-55.3125
163.89768	-67.3125
168.21792	-41.4125
172.53501	-57.5125
176.84895	-22.4125
181.15975	35.3875
185.46741	84.3875
189.77193	129.3875
194.07331	255.2875
198.37157	350.3875
202.6667	432.4875
206.9587	550.6875
211.24758	651.3875
215.53334	756.8875
219.81599	850.8875
224.09553	975.5875
228.37195	1113.7875
232.64527	1242.2875
236.91549	1406.1875
241.18261	1528.0875
245.44663	1684.0875
249.70755	1805.4875
253.96539	1919.6875
258.22014	2018.3875
262.4718	2080.3875
266.72039	2134.8875
270.96589	2151.2875
275.20832	2134.2875
279.44768	2125.9875
283.68397	2084.1875
287.91719	2056.8875
292.14735	2030.0875
296.37445	2034.5875
300.59849	2058.8875
304.81948	2071.1875
309.03742	2104.4875
313.25231	2138.2875
317.46415	2159.1875
321.67296	2095.7875
325.87872	2052.9875
330.08145	2066.0875
334.28114	2068.1875
338.47781	2086.5875
342.67145	2119.1875
346.86207	2174.8875
351.04966	2240.3875
355.23424	2292.8875
359.4158	2366.5875
363.59435	2357.2875
367.76989	2378.1875
371.94243	2391.4875
376.11196	2372.7875
380.27849	2406.5875
384.44203	2414.5875
388.60257	2431.5875
392.76012	2440.9875
396.91468	2504.3875
401.06626	2546.8875
405.21485	2535.8875
409.36047	2540.8875
413.50311	2533.0875
417.64277	2524.5875
421.77947	2501.1875
425.9132	2520.6875
430.04396	2522.4875
434.17176	2555.3875
438.2966	2596.5875
442.41849	2605.2875
446.53742	2627.5875
450.6534	2641.2875
454.76644	2682.9875
458.87653	2708.4875
462.98368	2728.7875
467.08789	2698.2875
471.18916	2713.0875
475.2875	2738.2875
479.38291	2759.2875
483.4754	2742.3875
487.56496	2767.4875
491.6516	2755.1875
495.73531	2760.7875
499.81612	2773.7875
503.89401	2809.6875
507.96899	2806.7875
512.04106	2828.2875
516.11023	2845.8875
520.1765	2870.1875
524.23987	2877.5875
528.30034	2921.8875
532.35792	2886.7875
536.41261	2917.5875
540.46441	2911.6875
544.51333	2913.7875
548.55936	2937.1875
552.60252	2966.5875
556.64279	2979.3875
560.6802	3015.8875
564.71473	3036.3875
568.7464	3066.0875
572.7752	3066.0875
576.80114	3047.0875
580.82422	3034.0875
584.84444	3017.3875
588.86181	3033.7875
592.87633	3052.9875
596.888	3070.6875
600.89682	3116.6875
604.9028	3254.2875
608.90594	3459.0875
612.90624	3724.3875
616.90371	3633.4875
620.89834	3314.5875
624.89015	3222.7875
628.87913	3192.0875
632.86528	3225.0875
636.84862	3272.6875
640.82913	3267.4875
644.80683	3222.9875
648.78172	3220.8875
652.75379	3247.4875
656.72306	3287.2875
660.68952	3322.4875
664.65319	3319.2875
668.61405	3313.6875
672.57211	3304.5875
676.52738	3348.9875
680.47986	3337.6875
684.42955	3346.7875
688.37646	3341.7875
692.32058	3357.5875
696.26192	3380.1875
700.20048	3401.2875
704.13626	3408.5875
708.06928	3401.2875
711.99952	3438.7875
715.927	3419.2875
719.85171	3438.2875
723.77365	3453.1875
727.69284	3454.5875
731.60928	3486.8875
735.52295	3467.9875
739.43388	3505.8875
743.34206	3514.1875
747.24749	3543.4875
751.15017	3551.5875
755.05012	3550.0875
758.94733	3610.5875
762.8418	3699.4875
766.73354	3836.1875
770.62254	3919.6875
774.50882	3904.8875
778.39237	3875.3875
782.27321	3793.7875
786.15132	3714.8875
790.02671	3677.8875
793.89938	3614.6875
797.76935	3643.6875
801.6366	3637.6875
805.50115	3615.2875
809.36299	3648.0875
813.22213	3651.4875
817.07857	3665.4875
820.93231	3668.1875
824.78336	3680.2875
828.63172	3685.7875
832.47738	3677.7875
836.32036	3718.8875
840.16066	3720.6875
843.99827	3731.0875
847.8332	3726.5875
851.66546	3742.6875
855.49504	3726.4875
859.32195	3759.3875
863.1462	3758.5875
866.96777	3779.6875
870.78668	3760.7875
874.60293	3789.0875
878.41652	3790.9875
882.22745	3838.7875
886.03573	3844.6875
889.84136	3838.1875
893.64433	3857.3875
897.44466	3836.3875
901.24235	3845.6875
905.0374	3885.0875
908.8298	3867.7875
912.61957	3874.8875
916.40671	3822.6875
920.19121	3852.2875
923.97308	3896.6875
927.75233	3859.0875
931.52895	3870.0875
935.30295	3919.0875
939.07433	3889.7875
942.84309	3855.8875
946.60924	3878.0875
950.37278	3841.6875
954.13371	3867.6875
957.89203	3871.4875
961.64774	3901.8875
965.40086	3879.3875
969.15137	3849.6875
972.89929	3903.7875
976.64461	3881.3875
980.38733	3900.3875
984.12747	3890.4875
987.86502	3900.7875
991.59999	3880.2875
995.33237	3934.9875
999.06217	3954.8875
1002.78939	3961.0875
1006.51404	3969.0875
1010.23611	3998.7875
1013.95561	4016.6875
1017.67255	4021.9875
1021.38692	4038.3875
1025.09872	4037.7875
1028.80796	3984.3875
1032.51465	4030.7875
1036.21877	4002.0875
1039.92035	4026.2875
1043.61937	4034.1875
1047.31584	4056.5875
1051.00976	4090.2875
1054.70114	4108.4875
1058.38998	4101.6875
1062.07627	4109.9875
1065.76003	4099.4875
1069.44126	4145.1875
1073.11995	4141.7875
1076.79611	4160.6875
1080.46974	4187.4875
1084.14085	4208.2875
1087.80943	4224.4875
1091.47549	4231.1875
1095.13903	4233.7875
1098.80005	4228.3875
1102.45857	4203.3875
1106.11456	4208.6875
1109.76805	4157.7875
1113.41903	4192.4875
1117.06751	4211.0875
1120.71348	4243.6875
1124.35696	4294.9875
1127.99793	4324.9875
1131.63641	4309.6875
1135.2724	4277.4875
1138.90589	4261.1875
1142.5369	4196.4875
1146.16542	4202.7875
1149.79145	4199.1875
1153.415	4185.3875
1157.03607	4177.8875
1160.65467	4204.6875
1164.27079	4218.9875
1167.88443	4212.7875
1171.49561	4292.7875
1175.10432	4358.0875
1178.71056	4454.3875
1182.31434	4559.0875
1185.91565	4579.6875
1189.51451	4568.8875
1193.11091	4535.1875
1196.70485	4517.0875
1200.29634	4481.0875
1203.88538	4476.2875
1207.47197	4415.7875
1211.05612	4370.9875
1214.63782	4321.5875
1218.21708	4320.0875
1221.79391	4312.3875
1225.36829	4305.2875
1228.94024	4302.2875
1232.50976	4320.0875
1236.07685	4345.0875
1239.6415	4353.6875
1243.20374	4351.2875
1246.76355	4371.5875
1250.32093	4401.5875
1253.8759	4379.5875
1257.42845	4436.4875
1260.97859	4461.5875
1264.52631	4505.6875
1268.07163	4512.3875
1271.61453	4530.1875
1275.15503	4512.4875
1278.69312	4513.1875
1282.22882	4525.5875
1285.76211	4574.7875
1289.29301	4551.1875
1292.82151	4592.1875
1296.34761	4604.1875
1299.87133	4652.0875
1303.39266	4718.7875
1306.9116	4852.5875
1310.42815	4992.7875
1313.94233	5052.6875
1317.45412	4964.3875
1320.96354	4856.6875
1324.47058	4743.6875
1327.97525	4661.0875
1331.47754	4586.1875
1334.97747	4588.7875
1338.47502	4561.8875
1341.97022	4608.0875
1345.46305	4684.0875
1348.95352	4774.1875
1352.44163	4906.3875
1355.92738	4996.1875
1359.41078	5154.1875
1362.89183	5322.5875
1366.37053	5262.6875
1369.84688	4983.1875
1373.32088	4713.4875
1376.79254	4592.1875
1380.26186	4504.0875
1383.72883	4446.5875
1387.19347	4378.7875
1390.65578	4301.3875
1394.11575	4295.5875
1397.57339	4287.9875
1401.0287	4268.0875
1404.48168	4272.5875
1407.93234	4291.4875
1411.38068	4254.7875
1414.82669	4265.5875
1418.27039	4290.3875
1421.71177	4311.5875
1425.15083	4270.5875
1428.58758	4271.6875
1432.02203	4274.6875
1435.45416	4294.9875
1438.88399	4267.0875
1442.31151	4226.4875
1445.73673	4243.9875
1449.15965	4230.7875
1452.58027	4239.5875
1455.9986	4230.7875
1459.41463	4248.7875
1462.82837	4267.2875
1466.23982	4288.2875
1469.64898	4298.6875
1473.05586	4299.3875
1476.46045	4312.7875
1479.86276	4322.9875
1483.26279	4350.8875
1486.66054	4394.4875
1490.05602	4409.2875
1493.44922	4486.8875
1496.84016	4566.6875
1500.22882	4715.6875
1503.61521	4872.8875
1506.99934	5071.0875
1510.38121	5227.0875
1513.76081	5281.8875
1517.13816	5150.6875
1520.51324	4936.3875
1523.88607	4737.1875
1527.25665	4620.9875
1530.62498	4536.7875
1533.99105	4521.2875
1537.35488	4524.4875
1540.71647	4521.9875
1544.07581	4514.1875
1547.4329	4511.5875
1550.78776	4522.8875
1554.14038	4507.4875
1557.49077	4521.7875
1560.83892	4560.5875
1564.18484	4591.1875
1567.52853	4640.5875
1570.86999	4661.6875
1574.20922	4659.8875
1577.54624	4661.1875
1580.88103	4603.6875
1584.2136	4523.7875
1587.54395	4508.4875
1590.87208	4511.5875
1594.19801	4500.8875
1597.52172	4548.1875
1600.84321	4580.8875
1604.16251	4556.4875
1607.47959	4514.0875
1610.79447	4509.9875
1614.10715	4467.6875
1617.41763	4461.2875
1620.7259	4431.0875
1624.03199	4423.7875
1627.33587	4394.9875
1630.63757	4382.1875
1633.93707	4419.3875
1637.23439	4457.3875
1640.52951	4545.3875
1643.82246	4644.7875
1647.11321	4781.7875
1650.40179	4844.6875
1653.68819	4804.1875
1656.97241	4671.8875
1660.25446	4542.1875
1663.53433	4417.9875
1666.81203	4354.2875
1670.08756	4321.7875
1673.36092	4323.3875
1676.63211	4302.3875
1679.90115	4300.0875
1683.16801	4270.4875
1686.43272	4244.0875
1689.69527	4253.6875
1692.95567	4214.0875
1696.2139	4217.3875
1699.46999	4179.9875
1702.72392	4216.8875
1705.97571	4234.1875
1709.22535	4225.7875
1712.47284	4259.1875
1715.71819	4267.1875
1718.96139	4275.8875
1722.20246	4289.2875
1725.44139	4281.3875
1728.67818	4278.1875
1731.91284	4276.2875
1735.14537	4262.0875
1738.37576	4258.5875
1741.60403	4247.7875
1744.83017	4224.6875
1748.05418	4230.1875
1751.27607	4254.7875
1754.49584	4230.6875
1757.71349	4197.9875
1760.92903	4221.8875
1764.14244	4186.7875
1767.35375	4195.7875
1770.56294	4202.6875
1773.77002	4192.4875
1776.97499	4220.4875
1780.17785	4211.2875
1783.37861	4221.7875
1786.57727	4246.1875
1789.77382	4179.2875
1792.96828	4210.7875
1796.16064	4235.0875
1799.3509	4216.2875
1802.53907	4230.5875
1805.72514	4216.9875
1808.90913	4185.1875
1812.09102	4205.5875
1815.27083	4198.1875
1818.44856	4198.2875
1821.6242	4185.5875
1824.79776	4175.3875
1827.96924	4180.4875
1831.13864	4152.3875
1834.30597	4164.8875
1837.47122	4176.5875
1840.6344	4144.7875
1843.7955	4135.2875
1846.95454	4147.8875
1850.11151	4168.6875
1853.26642	4142.0875
1856.41926	4161.9875
1859.57004	4149.3875
1862.71876	4150.5875
1865.86542	4146.8875
1869.01003	4158.6875
1872.15258	4129.5875
1875.29308	4163.7875
1878.43152	4157.8875
1881.56792	4142.4875
1884.70227	4124.5875
1887.83457	4136.2875
1890.96482	4097.2875
1894.09304	4118.5875
1897.21921	4109.5875
1900.34335	4121.6875
1903.46544	4087.9875
1906.58551	4121.9875
1909.70353	4112.7875
1912.81953	4096.1875
1915.93349	4112.8875
1919.04543	4092.9875
1922.15534	4071.3875
1925.26322	4082.3875
1928.36908	4071.2875
1931.47292	4077.6875
1934.57473	4090.2875
1937.67453	4058.4875
1940.77232	4041.8875
1943.86808	4023.4875
1946.96184	4045.1875
1950.05358	4015.8875
1953.14331	4021.3875
1956.23103	4014.9875
1959.31675	3987.3875
1962.40046	3948.5875
1965.48217	3965.3875
1968.56188	3957.9875
1971.63959	3948.6875
1974.7153	3937.1875
1977.78901	3932.6875
1980.86073	3918.0875
1983.93046	3905.8875
1986.99819	3833.4875
1990.06394	3851.2875
1993.1277	3875.7875
1996.18947	3865.0875
1999.24925	3835.9875
2002.30706	3832.5875
2005.36288	3853.3875
2008.41672	3828.5875
2011.46859	3817.0875
2014.51848	3799.1875
2017.56639	3793.0875
2020.61233	3778.1875
2023.6563	3780.1875
2026.6983	3729.6875
2029.73833	3761.2875
2032.7764	3752.9875
2035.8125	3716.2875
2038.84664	3726.3875
2041.87881	3699.2875
2044.90903	3729.5875
2047.93729	3718.4875
2050.96359	3684.3875
2053.98794	3720.3875
2057.01034	3699.8875
2060.03078	3686.9875
2063.04927	3697.9875
2066.06582	3697.2875
2069.08042	3675.6875
2072.09307	3680.7875
2075.10378	3706.0875
2078.11255	3682.3875
2081.11938	3688.4875
2084.12426	3680.1875
2087.12722	3679.7875
2090.12824	3685.7875
2093.12732	3682.3875
2096.12447	3694.6875
2099.11969	3695.0875
2102.11299	3673.5875
2105.10435	3706.8875
2108.09379	3698.9875
2111.08131	3680.3875
2114.0669	3691.3875
2117.05057	3684.1875
2120.03233	3680.6875
2123.01216	3692.0875
2125.99008	3716.2875
2128.96609	3713.2875
2131.94018	3729.3875
2134.91236	3718.4875
2137.88263	3713.6875
2140.851	3720.0875
2143.81746	3745.1875
2146.78201	3739.6875
2149.74466	3722.2875
2152.7054	3737.3875
2155.66425	3735.4875
2158.6212	3723.4875
2161.57625	3725.5875
2164.52941	3690.6875
2167.48067	3712.4875
2170.43004	3703.7875
2173.37752	3727.7875
2176.32311	3725.0875
2179.26681	3709.4875
2182.20863	3721.3875
2185.14856	3728.7875
2188.08661	3704.9875
2191.02278	3717.7875
2193.95707	3713.2875
2196.88948	3704.4875
2199.82001	3705.2875
2202.74867	3698.4875
2205.67545	3702.3875
2208.60037	3712.9875
2211.52341	3693.7875
2214.44458	3691.1875
2217.36388	3678.5875
2220.28132	3674.4875
2223.1969	3658.2875
2226.11061	3656.9875
2229.02246	3635.2875
2231.93245	3657.9875
2234.84058	3630.6875
2237.74686	3623.6875
2240.65128	3627.8875
2243.55385	3625.7875
2246.45456	3583.6875
2249.35343	3631.8875
2252.25044	3603.7875
2255.14561	3593.6875
2258.03893	3597.0875
2260.93041	3583.5875
2263.82004	3576.6875
2266.70783	3571.6875
2269.59378	3558.3875
2272.4779	3546.7875
2275.36017	3560.8875
2278.24061	3534.6875
2281.11922	3509.0875
2283.996	3529.2875
2286.87094	3520.5875
2289.74405	3512.3875
2292.61534	3521.2875
2295.4848	3508.8875
2298.35243	3510.8875
2301.21824	3502.7875
2304.08223	3495.7875
2306.94439	3515.3875
2309.80474	3510.6875
2312.66327	3504.5875
2315.51999	3485.5875
2318.37489	3482.8875
2321.22797	3469.6875
2324.07925	3461.9875
2326.92871	3458.7875
2329.77637	3449.4875
2332.62222	3440.1875
2335.46626	3412.7875
2338.3085	3424.9875
2341.14893	3443.1875
2343.98756	3432.4875
2346.8244	3407.3875
2349.65943	3403.5875
2352.49267	3416.9875
2355.32411	3417.9875
2358.15376	3394.3875
2360.98161	3390.9875
2363.80768	3383.4875
2366.63195	3390.4875
2369.45444	3393.3875
2372.27514	3376.9875
2375.09405	3394.2875
2377.91118	3368.8875
2380.72652	3358.5875
2383.54009	3368.1875
2386.35187	3360.5875
2389.16188	3338.9875
2391.97011	3349.8875
2394.77657	3343.2875
2397.58125	3341.6875
2400.38416	3341.4875
2403.18529	3309.6875
2405.98466	3315.8875
2408.78226	3323.6875
2411.57809	3305.9875
2414.37216	3297.4875
2417.16446	3298.2875
2419.955	3272.6875
2422.74378	3291.2875
2425.5308	3280.3875
2428.31606	3285.1875
2431.09956	3271.1875
2433.88131	3258.8875
2436.6613	3268.8875
2439.43954	3269.0875
2442.21603	3253.7875
2444.99077	3238.6875
2447.76377	3250.7875
2450.53501	3242.1875
2453.30451	3224.4875
2456.07226	3243.3875
2458.83827	3214.3875
2461.60254	3194.4875
2464.36507	3217.0875
2467.12586	3203.7875
2469.88492	3207.7875
2472.64224	3194.8875
2475.39782	3179.2875
2478.15167	3202.9875
2480.90379	3172.0875
2483.65417	3190.8875
2486.40283	3184.4875
2489.14976	3185.6875
2491.89497	3164.3875
2494.63845	3170.0875
2497.3802	3168.4875
2500.12024	3154.2875
2502.85855	3163.9875
2505.59514	3163.8875
2508.33002	3150.2875
2511.06318	3126.5875
2513.79462	3144.0875
2516.52435	3123.7875
2519.25237	3090.6875
2521.97867	3119.4875
2524.70327	3128.1875
2527.42616	3112.2875
2530.14734	3121.8875
2532.86681	3104.4875
2535.58458	3103.5875
2538.30065	3103.8875
2541.01501	3116.3875
2543.72768	3077.7875
2546.43864	3071.8875
2549.14791	3068.7875
2551.85548	3053.6875
2554.56136	3055.6875
2557.26554	3053.1875
2559.96803	3047.8875
2562.66883	3057.4875
2565.36794	3018.9875
2568.06536	3001.5875
2570.7611	3022.3875
2573.45514	3022.2875
2576.14751	3003.4875
2578.83819	2997.7875
2581.52719	2974.8875
2584.21451	2988.8875
2586.90015	2967.8875
2589.58411	2960.6875
2592.2664	2964.0875
2594.94701	2956.1875
2597.62594	2970.6875
2600.30321	2887.3875
2602.9788	2925.9875
2605.65273	2898.8875
2608.32498	2912.2875
2610.99557	2932.8875
2613.66449	2896.1875
2616.33175	2910.5875
2618.99734	2910.0875
2621.66128	2912.5875
2624.32355	2894.9875
2626.98416	2885.5875
2629.64311	2871.5875
2632.30041	2877.2875
2634.95605	2857.2875
2637.61004	2847.2875
2640.26238	2831.1875
2642.91306	2839.2875
2645.56209	2853.4875
2648.20948	2852.8875
2650.85521	2832.4875
2653.4993	2844.9875
2656.14175	2839.3875
2658.78255	2821.0875
2661.42171	2790.5875
2664.05923	2833.8875
2666.6951	2841.0875
2669.32934	2832.0875
2671.96194	2857.0875
2674.59291	2819.4875
2677.22224	2821.3875
2679.84993	2818.4875
2682.476	2826.3875
2685.10043	2823.8875
2687.72324	2799.8875
2690.34441	2798.4875
2692.96396	2790.5875
2695.58188	2823.7875
2698.19818	2812.0875
2700.81285	2800.8875
2703.4259	2801.3875
2706.03733	2769.3875
2708.64714	2767.5875
2711.25533	2792.3875
2713.86191	2791.4875
2716.46687	2786.7875
2719.07021	2786.6875
2721.67194	2789.5875
2724.27206	2796.4875
2726.87057	2780.1875
2729.46747	2782.8875
2732.06276	2782.6875
2734.65644	2765.4875
2737.24852	2770.0875
2739.83899	2749.5875
2742.42786	2776.1875
2745.01513	2777.9875
2747.60079	2747.2875
2750.18486	2742.8875
2752.76733	2747.4875
2755.3482	2728.9875
2757.92747	2749.0875
2760.50515	2719.7875
2763.08123	2719.3875
2765.65573	2731.7875
2768.22863	2721.7875
2770.79994	2713.2875
2773.36967	2701.5875
2775.9378	2691.3875
2778.50435	2686.1875
2781.06932	2681.0875
2783.6327	2671.1875
2786.1945	2693.6875
2788.75471	2682.8875
2791.31335	2664.6875
2793.87041	2663.1875
2796.42589	2645.8875
2798.97979	2625.7875
2801.53212	2630.7875
2804.08288	2641.7875
2806.63206	2619.8875
2809.17967	2607.1875
2811.72571	2626.6875
2814.27018	2617.2875
2816.81308	2592.9875
2819.35442	2553.0875
2821.89419	2575.6875
2824.43239	2563.5875
2826.96904	2595.7875
2829.50412	2566.9875
2832.03763	2585.2875
2834.56959	2571.2875
2837.1	2547.5875
2839.62884	2565.7875
2842.15613	2563.8875
2844.68186	2562.3875
2847.20604	2523.2875
2849.72867	2533.9875
2852.24974	2540.9875
2854.76927	2500.1875
2857.28724	2463.3875
2859.80367	2519.3875
2862.31855	2520.6875
2864.83189	2507.0875
2867.34368	2507.6875
2869.85393	2514.6875
2872.36264	2476.9875
2874.8698	2491.1875
2877.37543	2492.2875
2879.87952	2485.9875
2882.38207	2462.8875
2884.88308	2468.8875
2887.38256	2478.2875
2889.88051	2475.5875
2892.37692	2469.0875
2894.8718	2448.9875
2897.36515	2482.8875
2899.85698	2469.4875
2902.34727	2457.0875
2904.83604	2460.2875
2907.32328	2469.2875
2909.809	2456.2875
2912.29319	2454.4875
2914.77587	2449.4875
2917.25702	2470.9875
2919.73665	2461.1875
2922.21476	2474.1875
2924.69136	2463.7875
2927.16644	2449.6875
2929.64	2448.8875
2932.11205	2436.9875
2934.58258	2440.9875
2937.05161	2431.4875
2939.51912	2443.9875
2941.98513	2456.2875
2944.44962	2445.0875
2946.91261	2412.8875
2949.37409	2433.5875
2951.83407	2432.9875
2954.29254	2436.3875
2956.74951	2435.3875
2959.20498	2424.8875
2961.65895	2411.5875
2964.11142	2422.4875
2966.56239	2420.7875
2969.01186	2425.2875
2971.45984	2422.0875
2973.90632	2415.3875
2976.35131	2424.5875
2978.7948	2416.0875
2981.23681	2414.0875
2983.67732	2396.9875
2986.11635	2393.7875
2988.55388	2364.7875
2990.98993	2383.8875
2993.4245	2374.6875
2995.85758	2368.8875
2998.28917	2358.1875
3000.71928	2346.6875
3003.14791	2357.6875
3005.57506	2337.2875
3008.00073	2331.1875
3010.42493	2284.3875
3012.84764	2335.5875
3015.26888	2336.9875
3017.68865	2322.6875
3020.10694	2295.7875
3022.52376	2302.1875
3024.9391	2304.5875
3027.35298	2294.1875
3029.76539	2290.9875
3032.17632	2285.7875
3034.5858	2287.3875
3036.9938	2294.6875
3039.40034	2294.3875
3041.80542	2286.3875
3044.20903	2274.7875
3046.61118	2266.0875
3049.01187	2281.7875
3051.4111	2265.8875
3053.80888	2254.4875
3056.20519	2249.6875
3058.60005	2230.4875
3060.99345	2266.5875
3063.3854	2241.6875
3065.7759	2237.5875
3068.16494	2218.7875
3070.55254	2203.9875
3072.93868	2225.2875
3075.32338	2210.7875
3077.70662	2203.3875
3080.08842	2197.9875
3082.46878	2187.0875
3084.84769	2211.3875
3087.22515	2187.5875
3089.60118	2200.0875
3091.97576	2195.9875
3094.3489	2206.6875
3096.72061	2195.2875
3099.09087	2191.2875
3101.4597	2208.1875
3103.82709	2188.3875
3106.19305	2184.2875
3108.55757	2180.2875
3110.92066	2172.6875
3113.28232	2185.1875
3115.64255	2179.7875
3118.00134	2183.4875
3120.35871	2153.8875
3122.71466	2142.4875
3125.06917	2155.2875
3127.42226	2143.0875
3129.77393	2130.8875
3132.12417	2138.2875
3134.47299	2143.0875
3136.82039	2129.3875
3139.16636	2118.1875
3141.51092	2136.6875
3143.85406	2135.2875
3146.19579	2120.2875
3148.53609	2108.4875
3150.87499	2119.4875
3153.21246	2110.4875
3155.54853	2123.8875
3157.88318	2129.6875
3160.21642	2124.0875
3162.54826	2128.9875
3164.87868	2133.2875
3167.2077	2087.6875
3169.5353	2112.5875
3171.86151	2127.1875
3174.18631	2112.7875
3176.5097	2105.7875
3178.83169	2109.3875
3181.15228	2109.2875
3183.47147	2087.5875
3185.78926	2071.5875
3188.10565	2087.8875
3190.42065	2061.2875
3192.73424	2087.1875
3195.04645	2074.0875
3197.35725	2053.5875
3199.66667	2075.4875
3201.97469	2067.1875
3204.28132	2058.4875
3206.58656	2070.6875
3208.8904	2072.9875
3211.19287	2071.3875
3213.49394	2065.9875
3215.79363	2060.3875
3218.09193	2068.1875
3220.38884	2051.9875
3222.68438	2048.9875
3224.97853	2042.2875
3227.2713	2056.6875
3229.56269	2046.0875
3231.8527	2044.3875
3234.14133	2044.9875
3236.42858	2044.8875
3238.71446	2014.2875
3240.99896	2034.8875
3243.28209	2015.6875
3245.56384	2022.7875
3247.84423	2008.2875
3250.12324	2020.2875
3252.40088	2007.9875
3254.67715	2001.2875
3256.95205	1997.1875
3259.22558	2001.5875
3261.49775	2004.8875
3263.76855	2009.3875
3266.03799	1999.7875
3268.30606	2007.0875
3270.57277	2000.5875
3272.83812	1975.4875
3275.10211	1990.9875
3277.36474	1989.3875
3279.62601	1988.0875
3281.88593	1953.5875
3284.14448	1943.3875
3286.40168	1970.7875
3288.65753	1955.2875
3290.91202	1950.7875
3293.16516	1933.0875
3295.41695	1954.0875
3297.66738	1963.1875
3299.91647	1923.0875
3302.16421	1928.8875
3304.4106	1885.8875
3306.65564	1902.7875
3308.89933	1876.1875
3311.14169	1868.2875
3313.38269	1857.3875
3315.62236	1839.4875
3317.86068	1832.7875
3320.09766	1832.2875
3322.3333	1789.2875
3324.5676	1779.7875
3326.80056	1752.5875
3329.03219	1745.9875
3331.26248	-0.8125
3333.49143	-0.8125
3335.71905	0.1875
