Data from AgNPs_UA_5uM_CRN_500uM_SU_RamanShift__292__12-18-03-198.txt Node

Date: Thu Aug 04 12:18:03 BST 2022
User: TCL
Spectrometer: QEP01345
Trigger mode: 4
Integration Time (sec): 1.000000E0
Scans to average: 10
Electric dark correction enabled: true
Nonlinearity correction enabled: false
Boxcar width: 0
XAxis mode: Raman Shifts
Number of Pixels in Spectrum: 1044
>>>>>Begin Spectral Data<<<<<
46.04893	0.9875
50.45542	-0.8125
54.85868	0.8875
59.25871	-1.6125
63.6555	-56.3125
68.04907	-39.2125
72.43941	-70.2125
76.82654	-56.6125
81.21044	-55.3125
85.59113	-47.1125
89.96862	-75.5125
94.34289	-53.9125
98.71396	-78.1125
103.08183	-56.6125
107.4465	-47.8125
111.80798	-53.0125
116.16626	-43.2125
120.52136	-72.9125
124.87327	-51.2125
129.222	-62.3125
133.56755	-49.1125
137.90993	-64.0125
142.24913	-50.7125
146.58517	-41.0125
150.91804	-39.9125
155.24774	-31.9125
159.57429	-7.2125
163.89768	-3.1125
168.21792	38.8875
172.53501	59.9875
176.84895	143.0875
181.15975	275.0875
185.46741	422.7875
189.77193	605.7875
194.07331	893.2875
198.37157	1189.9875
202.6667	1469.1875
206.9587	1789.7875
211.24758	2109.1875
215.53334	2428.3875
219.81599	2784.0875
224.09553	3185.3875
228.37195	3634.5875
232.64527	4107.0875
236.91549	4565.5875
241.18261	4917.9875
245.44663	5195.1875
249.70755	5359.0875
253.96539	5492.8875
258.22014	5596.0875
262.4718	5660.6875
266.72039	5715.6875
270.96589	5685.7875
275.20832	5594.7875
279.44768	5497.6875
283.68397	5364.9875
287.91719	5327.4875
292.14735	5370.9875
296.37445	5546.1875
300.59849	5853.8875
304.81948	6201.8875
309.03742	6575.1875
313.25231	6803.2875
317.46415	6787.9875
321.67296	6393.1875
325.87872	5985.6875
330.08145	5768.7875
334.28114	5720.4875
338.47781	5766.6875
342.67145	5918.2875
346.86207	6154.3875
351.04966	6503.4875
355.23424	6896.6875
359.4158	7148.6875
363.59435	7210.9875
367.76989	7119.3875
371.94243	7016.1875
376.11196	6891.6875
380.27849	6801.1875
384.44203	6717.5875
388.60257	6677.3875
392.76012	6718.9875
396.91468	6823.3875
401.06626	6978.6875
405.21485	7008.0875
409.36047	6852.6875
413.50311	6499.1875
417.64277	6206.2875
421.77947	5984.2875
425.9132	5926.0875
430.04396	5907.7875
434.17176	5952.6875
438.2966	6034.3875
442.41849	6106.1875
446.53742	6249.5875
450.6534	6360.4875
454.76644	6408.9875
458.87653	6416.0875
462.98368	6354.0875
467.08789	6299.3875
471.18916	6213.8875
475.2875	6071.7875
479.38291	5967.1875
483.4754	5875.1875
487.56496	5826.7875
491.6516	5789.8875
495.73531	5801.4875
499.81612	5840.1875
503.89401	5919.8875
507.96899	5984.6875
512.04106	6066.9875
516.11023	6175.8875
520.1765	6242.7875
524.23987	6266.0875
528.30034	6260.2875
532.35792	6163.9875
536.41261	6118.1875
540.46441	6017.9875
544.51333	5965.3875
548.55936	6013.2875
552.60252	6156.7875
556.64279	6260.7875
560.6802	6374.0875
564.71473	6492.7875
568.7464	6711.6875
572.7752	6691.1875
576.80114	6364.2875
580.82422	6167.2875
584.84444	6055.4875
588.86181	6031.2875
592.87633	6050.3875
596.888	6190.5875
600.89682	6557.4875
604.9028	7553.3875
608.90594	9709.2875
612.90624	12134.5875
616.90371	11227.5875
620.89834	8037.2875
624.89015	6684.8875
628.87913	6450.2875
632.86528	6598.6875
636.84862	6755.4875
640.82913	6634.2875
644.80683	6300.1875
648.78172	6069.6875
652.75379	6099.9875
656.72306	6341.1875
660.68952	6594.9875
664.65319	6504.1875
668.61405	6249.6875
672.57211	6196.8875
676.52738	6186.2875
680.47986	6081.3875
684.42955	5979.1875
688.37646	5926.7875
692.32058	5932.8875
696.26192	6008.2875
700.20048	6115.0875
704.13626	6160.4875
708.06928	6096.5875
711.99952	6088.0875
715.927	6061.1875
719.85171	6092.0875
723.77365	6142.0875
727.69284	6116.8875
731.60928	6083.7875
735.52295	6065.6875
739.43388	6102.8875
743.34206	6111.2875
747.24749	6146.7875
751.15017	6166.9875
755.05012	6250.1875
758.94733	6652.8875
762.8418	7530.2875
766.73354	8942.0875
770.62254	9979.5875
774.50882	10079.3875
778.39237	9496.6875
782.27321	8513.1875
786.15132	7435.5875
790.02671	6737.5875
793.89938	6337.6875
797.76935	6213.3875
801.6366	6110.9875
805.50115	6066.7875
809.36299	6039.6875
813.22213	6039.9875
817.07857	6035.5875
820.93231	6038.0875
824.78336	6066.6875
828.63172	6050.8875
832.47738	6061.4875
836.32036	6076.7875
840.16066	6040.2875
843.99827	6039.8875
847.8332	6023.0875
851.66546	6020.6875
855.49504	6043.3875
859.32195	6076.6875
863.1462	6042.5875
866.96777	6048.0875
870.78668	6024.7875
874.60293	6060.7875
878.41652	6086.9875
882.22745	6148.6875
886.03573	6177.3875
889.84136	6198.3875
893.64433	6190.7875
897.44466	6168.2875
901.24235	6172.8875
905.0374	6149.3875
908.8298	6106.2875
912.61957	6073.7875
916.40671	6023.5875
920.19121	6070.0875
923.97308	6177.4875
927.75233	6222.8875
931.52895	6302.4875
935.30295	6246.6875
939.07433	6084.4875
942.84309	5978.3875
946.60924	5942.9875
950.37278	5889.1875
954.13371	5909.5875
957.89203	5898.1875
961.64774	5907.5875
965.40086	5901.6875
969.15137	5867.3875
972.89929	5904.6875
976.64461	5901.7875
980.38733	5910.0875
984.12747	5910.0875
987.86502	5925.5875
991.59999	5947.4875
995.33237	6004.9875
999.06217	6110.3875
1002.78939	6158.1875
1006.51404	6287.5875
1010.23611	6417.3875
1013.95561	6456.1875
1017.67255	6460.7875
1021.38692	6437.8875
1025.09872	6354.5875
1028.80796	6289.0875
1032.51465	6276.6875
1036.21877	6274.3875
1039.92035	6320.5875
1043.61937	6345.8875
1047.31584	6432.9875
1051.00976	6460.5875
1054.70114	6474.6875
1058.38998	6442.2875
1062.07627	6466.3875
1065.76003	6500.5875
1069.44126	6569.6875
1073.11995	6644.5875
1076.79611	6785.4875
1080.46974	6966.1875
1084.14085	7118.1875
1087.80943	7254.3875
1091.47549	7290.6875
1095.13903	7196.1875
1098.80005	7061.2875
1102.45857	6949.0875
1106.11456	6921.4875
1109.76805	6869.0875
1113.41903	6999.1875
1117.06751	7165.7875
1120.71348	7461.0875
1124.35696	7842.0875
1127.99793	8141.8875
1131.63641	7970.4875
1135.2724	7549.1875
1138.90589	7247.4875
1142.5369	7026.9875
1146.16542	6911.3875
1149.79145	6819.5875
1153.415	6757.0875
1157.03607	6753.9875
1160.65467	6875.9875
1164.27079	7092.8875
1167.88443	7370.6875
1171.49561	7836.7875
1175.10432	8464.3875
1178.71056	9431.2875
1182.31434	10284.8875
1185.91565	10539.8875
1189.51451	10384.3875
1193.11091	10115.3875
1196.70485	9849.7875
1200.29634	9566.3875
1203.88538	9275.5875
1207.47197	8794.7875
1211.05612	8311.5875
1214.63782	7829.2875
1218.21708	7581.5875
1221.79391	7415.4875
1225.36829	7339.5875
1228.94024	7339.6875
1232.50976	7369.5875
1236.07685	7374.9875
1239.6415	7417.5875
1243.20374	7409.2875
1246.76355	7472.0875
1250.32093	7539.1875
1253.8759	7610.7875
1257.42845	7791.1875
1260.97859	8011.2875
1264.52631	8252.5875
1268.07163	8441.5875
1271.61453	8562.3875
1275.15503	8601.6875
1278.69312	8611.9875
1282.22882	8679.7875
1285.76211	8911.5875
1289.29301	9156.7875
1292.82151	9418.2875
1296.34761	9658.5875
1299.87133	10104.9875
1303.39266	10803.0875
1306.9116	11988.5875
1310.42815	13297.0875
1313.94233	13726.8875
1317.45412	12918.8875
1320.96354	11762.2875
1324.47058	10688.6875
1327.97525	9913.6875
1331.47754	9452.7875
1334.97747	9356.5875
1338.47502	9461.3875
1341.97022	9848.3875
1345.46305	10634.0875
1348.95352	11783.7875
1352.44163	13162.0875
1355.92738	14654.9875
1359.41078	16424.4875
1362.89183	18008.9875
1366.37053	17382.3875
1369.84688	14387.0875
1373.32088	11556.1875
1376.79254	9991.2875
1380.26186	9256.1875
1383.72883	8835.2875
1387.19347	8390.6875
1390.65578	8007.3875
1394.11575	7772.5875
1397.57339	7580.8875
1401.0287	7467.8875
1404.48168	7436.4875
1407.93234	7431.8875
1411.38068	7446.1875
1414.82669	7547.8875
1418.27039	7600.5875
1421.71177	7597.9875
1425.15083	7490.0875
1428.58758	7415.6875
1432.02203	7418.0875
1435.45416	7528.1875
1438.88399	7514.2875
1442.31151	7491.6875
1445.73673	7590.0875
1449.15965	7618.0875
1452.58027	7641.4875
1455.9986	7640.1875
1459.41463	7647.5875
1462.82837	7759.5875
1466.23982	7941.2875
1469.64898	8171.4875
1473.05586	8315.6875
1476.46045	8445.7875
1479.86276	8517.2875
1483.26279	8640.6875
1486.66054	8833.1875
1490.05602	9167.2875
1493.44922	9737.7875
1496.84016	10658.9875
1500.22882	12119.7875
1503.61521	13965.6875
1506.99934	15874.7875
1510.38121	17106.5875
1513.76081	16954.5875
1517.13816	15276.9875
1520.51324	13025.7875
1523.88607	11238.1875
1527.25665	10206.0875
1530.62498	9706.2875
1533.99105	9483.5875
1537.35488	9357.8875
1540.71647	9259.7875
1544.07581	9115.8875
1547.4329	8950.7875
1550.78776	8800.2875
1554.14038	8706.9875
1557.49077	8695.2875
1560.83892	8769.9875
1564.18484	9019.6875
1567.52853	9375.5875
1570.86999	9738.8875
1574.20922	9902.1875
1577.54624	9783.6875
1580.88103	9220.2875
1584.2136	8481.5875
1587.54395	8070.8875
1590.87208	7981.3875
1594.19801	8165.7875
1597.52172	8534.4875
1600.84321	8675.4875
1604.16251	8533.9875
1607.47959	8311.1875
1610.79447	8129.4875
1614.10715	7820.1875
1617.41763	7515.1875
1620.7259	7248.6875
1624.03199	7082.3875
1627.33587	7007.0875
1630.63757	7058.9875
1633.93707	7294.9875
1637.23439	7707.4875
1640.52951	8439.7875
1643.82246	9462.3875
1647.11321	10685.9875
1650.40179	11454.1875
1653.68819	11136.1875
1656.97241	9841.5875
1660.25446	8369.0875
1663.53433	7326.9875
1666.81203	6676.5875
1670.08756	6326.8875
1673.36092	6139.8875
1676.63211	5991.8875
1679.90115	5884.1875
1683.16801	5802.8875
1686.43272	5725.4875
1689.69527	5665.3875
1692.95567	5618.6875
1696.2139	5589.7875
1699.46999	5543.8875
1702.72392	5543.4875
1705.97571	5545.0875
1709.22535	5541.9875
1712.47284	5568.8875
1715.71819	5572.1875
1718.96139	5571.0875
1722.20246	5560.8875
1725.44139	5522.8875
1728.67818	5493.0875
1731.91284	5442.9875
1735.14537	5421.2875
1738.37576	5366.6875
1741.60403	5344.7875
1744.83017	5330.6875
1748.05418	5330.7875
1751.27607	5337.6875
1754.49584	5290.2875
1757.71349	5268.7875
1760.92903	5272.5875
1764.14244	5204.9875
1767.35375	5206.4875
1770.56294	5208.4875
1773.77002	5189.6875
1776.97499	5194.1875
1780.17785	5170.8875
1783.37861	5169.3875
1786.57727	5175.6875
1789.77382	5101.5875
1792.96828	5139.1875
1796.16064	5135.0875
1799.3509	5125.7875
1802.53907	5134.1875
1805.72514	5086.2875
1808.90913	5055.4875
1812.09102	5066.8875
1815.27083	5055.5875
1818.44856	5057.7875
1821.6242	5034.2875
1824.79776	5021.1875
1827.96924	5006.7875
1831.13864	4990.8875
1834.30597	4999.0875
1837.47122	4989.8875
1840.6344	4983.1875
1843.7955	4942.7875
1846.95454	4932.5875
1850.11151	4969.3875
1853.26642	4911.0875
1856.41926	4921.0875
1859.57004	4927.7875
1862.71876	4912.6875
1865.86542	4915.1875
1869.01003	4910.2875
1872.15258	4888.0875
1875.29308	4904.2875
1878.43152	4924.4875
1881.56792	4893.0875
1884.70227	4871.8875
1887.83457	4863.2875
1890.96482	4817.9875
1894.09304	4841.4875
1897.21921	4833.9875
1900.34335	4841.6875
1903.46544	4817.2875
1906.58551	4832.6875
1909.70353	4831.1875
1912.81953	4818.8875
1915.93349	4797.6875
1919.04543	4804.4875
1922.15534	4796.9875
1925.26322	4779.3875
1928.36908	4760.8875
1931.47292	4752.7875
1934.57473	4754.1875
1937.67453	4739.8875
1940.77232	4716.9875
1943.86808	4692.3875
1946.96184	4683.8875
1950.05358	4669.5875
1953.14331	4658.6875
1956.23103	4659.2875
1959.31675	4637.3875
1962.40046	4591.2875
1965.48217	4606.7875
1968.56188	4596.8875
1971.63959	4582.7875
1974.7153	4579.1875
1977.78901	4578.7875
1980.86073	4543.9875
1983.93046	4503.8875
1986.99819	4434.1875
1990.06394	4442.3875
1993.1277	4463.4875
1996.18947	4452.7875
1999.24925	4424.7875
2002.30706	4415.1875
2005.36288	4403.2875
2008.41672	4401.8875
2011.46859	4357.3875
2014.51848	4348.5875
2017.56639	4324.5875
2020.61233	4322.2875
2023.6563	4312.0875
2026.6983	4273.1875
2029.73833	4291.7875
2032.7764	4293.9875
2035.8125	4236.3875
2038.84664	4233.7875
2041.87881	4230.1875
2044.90903	4250.4875
2047.93729	4227.7875
2050.96359	4206.3875
2053.98794	4219.5875
2057.01034	4200.9875
2060.03078	4186.4875
2063.04927	4176.9875
2066.06582	4179.8875
2069.08042	4195.5875
2072.09307	4172.8875
2075.10378	4186.2875
2078.11255	4166.4875
2081.11938	4159.2875
2084.12426	4152.5875
2087.12722	4150.5875
2090.12824	4142.7875
2093.12732	4140.1875
2096.12447	4158.5875
2099.11969	4142.7875
2102.11299	4136.4875
2105.10435	4159.6875
2108.09379	4145.3875
2111.08131	4144.9875
2114.0669	4151.8875
2117.05057	4150.8875
2120.03233	4133.5875
2123.01216	4152.1875
2125.99008	4161.0875
2128.96609	4151.9875
2131.94018	4170.4875
2134.91236	4168.7875
2137.88263	4153.1875
2140.851	4159.5875
2143.81746	4181.8875
2146.78201	4167.7875
2149.74466	4139.3875
2152.7054	4179.0875
2155.66425	4164.5875
2158.6212	4136.8875
2161.57625	4115.3875
2164.52941	4109.1875
2167.48067	4106.3875
2170.43004	4104.7875
2173.37752	4117.4875
2176.32311	4102.4875
2179.26681	4116.5875
2182.20863	4126.8875
2185.14856	4115.3875
2188.08661	4115.8875
2191.02278	4124.5875
2193.95707	4093.8875
2196.88948	4079.7875
2199.82001	4094.7875
2202.74867	4082.3875
2205.67545	4085.2875
2208.60037	4086.4875
2211.52341	4060.8875
2214.44458	4072.4875
2217.36388	4051.3875
2220.28132	4037.2875
2223.1969	4008.3875
2226.11061	4019.6875
2229.02246	4010.0875
2231.93245	3999.4875
2234.84058	3983.2875
2237.74686	3974.5875
2240.65128	3971.0875
2243.55385	3973.8875
2246.45456	3947.9875
2249.35343	3970.5875
2252.25044	3949.8875
2255.14561	3963.1875
2258.03893	3953.2875
2260.93041	3928.2875
2263.82004	3927.2875
2266.70783	3925.1875
2269.59378	3914.7875
2272.4779	3885.4875
2275.36017	3897.9875
2278.24061	3881.7875
2281.11922	3860.7875
2283.996	3875.9875
2286.87094	3842.2875
2289.74405	3847.4875
2292.61534	3844.6875
2295.4848	3835.9875
2298.35243	3818.0875
2301.21824	3823.4875
2304.08223	3816.0875
2306.94439	3827.4875
2309.80474	3818.3875
2312.66327	3811.6875
2315.51999	3793.5875
2318.37489	3794.1875
2321.22797	3777.8875
2324.07925	3787.6875
2326.92871	3768.3875
2329.77637	3764.4875
2332.62222	3731.3875
2335.46626	3723.3875
2338.3085	3715.8875
2341.14893	3745.6875
2343.98756	3721.7875
2346.8244	3702.6875
2349.65943	3698.9875
2352.49267	3700.3875
2355.32411	3710.5875
2358.15376	3718.6875
2360.98161	3721.0875
2363.80768	3686.7875
2366.63195	3712.5875
2369.45444	3706.4875
2372.27514	3700.3875
2375.09405	3730.6875
2377.91118	3674.6875
2380.72652	3681.2875
2383.54009	3652.3875
2386.35187	3683.0875
2389.16188	3655.6875
2391.97011	3640.3875
2394.77657	3629.6875
2397.58125	3638.2875
2400.38416	3624.0875
2403.18529	3601.2875
2405.98466	3595.5875
2408.78226	3587.1875
2411.57809	3595.8875
2414.37216	3578.1875
2417.16446	3582.2875
2419.955	3549.5875
2422.74378	3573.9875
2425.5308	3545.6875
2428.31606	3541.8875
2431.09956	3560.0875
2433.88131	3534.3875
2436.6613	3545.5875
2439.43954	3532.7875
2442.21603	3523.6875
2444.99077	3527.4875
2447.76377	3533.3875
2450.53501	3497.9875
2453.30451	3499.8875
2456.07226	3525.0875
2458.83827	3504.9875
2461.60254	3471.3875
2464.36507	3501.3875
2467.12586	3488.0875
2469.88492	3487.6875
2472.64224	3488.6875
2475.39782	3475.0875
2478.15167	3479.2875
2480.90379	3479.9875
2483.65417	3481.5875
2486.40283	3493.7875
2489.14976	3500.8875
2491.89497	3481.0875
2494.63845	3482.0875
2497.3802	3470.4875
2500.12024	3469.6875
2502.85855	3465.7875
2505.59514	3472.1875
2508.33002	3457.8875
2511.06318	3430.9875
2513.79462	3426.4875
2516.52435	3401.1875
2519.25237	3377.7875
2521.97867	3377.0875
2524.70327	3375.6875
2527.42616	3385.0875
2530.14734	3390.2875
2532.86681	3356.2875
2535.58458	3361.0875
2538.30065	3354.7875
2541.01501	3362.0875
2543.72768	3339.0875
2546.43864	3350.0875
2549.14791	3328.7875
2551.85548	3323.0875
2554.56136	3318.0875
2557.26554	3318.8875
2559.96803	3315.6875
2562.66883	3315.1875
2565.36794	3300.5875
2568.06536	3274.5875
2570.7611	3294.2875
2573.45514	3274.9875
2576.14751	3268.1875
2578.83819	3269.1875
2581.52719	3245.9875
2584.21451	3246.4875
2586.90015	3215.8875
2589.58411	3208.2875
2592.2664	3222.2875
2594.94701	3213.4875
2597.62594	3230.3875
2600.30321	3153.5875
2602.9788	3180.8875
2605.65273	3169.5875
2608.32498	3181.3875
2610.99557	3193.7875
2613.66449	3148.9875
2616.33175	3168.7875
2618.99734	3169.9875
2621.66128	3164.4875
2624.32355	3164.7875
2626.98416	3138.8875
2629.64311	3134.7875
2632.30041	3129.2875
2634.95605	3113.0875
2637.61004	3100.6875
2640.26238	3079.1875
2642.91306	3090.9875
2645.56209	3115.3875
2648.20948	3084.8875
2650.85521	3073.4875
2653.4993	3098.6875
2656.14175	3099.1875
2658.78255	3085.0875
2661.42171	3049.0875
2664.05923	3091.7875
2666.6951	3103.5875
2669.32934	3091.7875
2671.96194	3099.6875
2674.59291	3097.5875
2677.22224	3095.9875
2679.84993	3095.0875
2682.476	3083.7875
2685.10043	3066.1875
2687.72324	3068.9875
2690.34441	3063.2875
2692.96396	3047.4875
2695.58188	3076.3875
2698.19818	3080.4875
2700.81285	3057.6875
2703.4259	3055.2875
2706.03733	3025.3875
2708.64714	3037.8875
2711.25533	3065.8875
2713.86191	3065.8875
2716.46687	3048.2875
2719.07021	3046.6875
2721.67194	3058.5875
2724.27206	3066.3875
2726.87057	3049.9875
2729.46747	3043.4875
2732.06276	3036.0875
2734.65644	3024.3875
2737.24852	3017.9875
2739.83899	3003.5875
2742.42786	3016.0875
2745.01513	3033.3875
2747.60079	3004.2875
2750.18486	2989.7875
2752.76733	2996.8875
2755.3482	3005.6875
2757.92747	2992.7875
2760.50515	2963.7875
2763.08123	2966.5875
2765.65573	2965.5875
2768.22863	2968.0875
2770.79994	2952.3875
2773.36967	2946.1875
2775.9378	2939.0875
2778.50435	2933.2875
2781.06932	2918.2875
2783.6327	2918.9875
2786.1945	2936.8875
2788.75471	2932.8875
2791.31335	2919.1875
2793.87041	2917.7875
2796.42589	2901.1875
2798.97979	2886.6875
2801.53212	2880.0875
2804.08288	2914.1875
2806.63206	2883.4875
2809.17967	2869.1875
2811.72571	2882.5875
2814.27018	2884.1875
2816.81308	2874.3875
2819.35442	2836.3875
2821.89419	2846.0875
2824.43239	2842.5875
2826.96904	2870.0875
2829.50412	2848.3875
2832.03763	2833.1875
2834.56959	2839.3875
2837.1	2828.5875
2839.62884	2823.7875
2842.15613	2814.7875
2844.68186	2829.7875
2847.20604	2802.0875
2849.72867	2792.6875
2852.24974	2806.5875
2854.76927	2775.8875
2857.28724	2733.7875
2859.80367	2797.1875
2862.31855	2803.2875
2864.83189	2777.3875
2867.34368	2794.1875
2869.85393	2798.5875
2872.36264	2771.5875
2874.8698	2785.1875
2877.37543	2781.1875
2879.87952	2764.3875
2882.38207	2749.6875
2884.88308	2761.2875
2887.38256	2763.1875
2889.88051	2761.8875
2892.37692	2746.8875
2894.8718	2729.0875
2897.36515	2763.9875
2899.85698	2755.1875
2902.34727	2746.9875
2904.83604	2754.3875
2907.32328	2768.9875
2909.809	2760.9875
2912.29319	2751.3875
2914.77587	2770.2875
2917.25702	2770.9875
2919.73665	2788.5875
2922.21476	2788.1875
2924.69136	2789.0875
2927.16644	2767.6875
2929.64	2758.5875
2932.11205	2742.0875
2934.58258	2748.6875
2937.05161	2735.8875
2939.51912	2743.1875
2941.98513	2758.9875
2944.44962	2727.8875
2946.91261	2704.7875
2949.37409	2718.1875
2951.83407	2707.1875
2954.29254	2699.5875
2956.74951	2707.0875
2959.20498	2685.8875
2961.65895	2683.5875
2964.11142	2667.9875
2966.56239	2670.4875
2969.01186	2682.9875
2971.45984	2666.4875
2973.90632	2667.9875
2976.35131	2669.9875
2978.7948	2666.9875
2981.23681	2638.4875
2983.67732	2658.6875
2986.11635	2662.3875
2988.55388	2622.4875
2990.98993	2622.5875
2993.4245	2612.3875
2995.85758	2594.3875
2998.28917	2599.9875
3000.71928	2603.6875
3003.14791	2581.8875
3005.57506	2577.5875
3008.00073	2559.2875
3010.42493	2503.1875
3012.84764	2562.4875
3015.26888	2563.2875
3017.68865	2545.8875
3020.10694	2505.5875
3022.52376	2522.4875
3024.9391	2518.6875
3027.35298	2506.6875
3029.76539	2503.6875
3032.17632	2488.4875
3034.5858	2495.4875
3036.9938	2502.3875
3039.40034	2486.0875
3041.80542	2481.9875
3044.20903	2459.6875
3046.61118	2455.5875
3049.01187	2462.0875
3051.4111	2440.6875
3053.80888	2445.3875
3056.20519	2441.6875
3058.60005	2420.2875
3060.99345	2451.5875
3063.3854	2416.7875
3065.7759	2405.8875
3068.16494	2401.0875
3070.55254	2389.1875
3072.93868	2397.1875
3075.32338	2397.9875
3077.70662	2379.3875
3080.08842	2366.3875
3082.46878	2365.0875
3084.84769	2382.7875
3087.22515	2359.4875
3089.60118	2369.9875
3091.97576	2344.3875
3094.3489	2360.6875
3096.72061	2348.7875
3099.09087	2330.6875
3101.4597	2350.3875
3103.82709	2343.9875
3106.19305	2326.5875
3108.55757	2339.2875
3110.92066	2327.6875
3113.28232	2331.1875
3115.64255	2325.9875
3118.00134	2325.6875
3120.35871	2302.9875
3122.71466	2285.5875
3125.06917	2297.3875
3127.42226	2290.6875
3129.77393	2262.0875
3132.12417	2277.2875
3134.47299	2283.6875
3136.82039	2257.3875
3139.16636	2236.3875
3141.51092	2261.2875
3143.85406	2271.2875
3146.19579	2244.5875
3148.53609	2247.2875
3150.87499	2258.8875
3153.21246	2241.0875
3155.54853	2262.4875
3157.88318	2251.0875
3160.21642	2259.5875
3162.54826	2259.3875
3164.87868	2256.1875
3167.2077	2214.0875
3169.5353	2230.3875
3171.86151	2243.3875
3174.18631	2217.4875
3176.5097	2218.6875
3178.83169	2220.9875
3181.15228	2226.4875
3183.47147	2195.6875
3185.78926	2175.5875
3188.10565	2183.7875
3190.42065	2176.5875
3192.73424	2175.3875
3195.04645	2174.3875
3197.35725	2165.1875
3199.66667	2175.1875
3201.97469	2165.3875
3204.28132	2156.1875
3206.58656	2169.5875
3208.8904	2169.5875
3211.19287	2173.8875
3213.49394	2153.8875
3215.79363	2149.6875
3218.09193	2166.8875
3220.38884	2157.0875
3222.68438	2153.9875
3224.97853	2128.2875
3227.2713	2148.0875
3229.56269	2144.9875
3231.8527	2135.9875
3234.14133	2123.7875
3236.42858	2117.5875
3238.71446	2103.2875
3240.99896	2123.9875
3243.28209	2098.9875
3245.56384	2117.2875
3247.84423	2097.3875
3250.12324	2097.2875
3252.40088	2092.7875
3254.67715	2083.5875
3256.95205	2084.7875
3259.22558	2094.1875
3261.49775	2087.9875
3263.76855	2078.1875
3266.03799	2095.2875
3268.30606	2081.1875
3270.57277	2084.9875
3272.83812	2047.8875
3275.10211	2060.7875
3277.36474	2064.8875
3279.62601	2061.8875
3281.88593	2042.4875
3284.14448	2023.1875
3286.40168	2048.5875
3288.65753	2036.7875
3290.91202	2033.7875
3293.16516	2013.5875
3295.41695	2054.5875
3297.66738	2042.8875
3299.91647	2005.7875
3302.16421	2019.4875
3304.4106	1977.0875
3306.65564	1990.0875
3308.89933	1954.8875
3311.14169	1950.0875
3313.38269	1942.8875
3315.62236	1917.7875
3317.86068	1920.1875
3320.09766	1908.2875
3322.3333	1881.9875
3324.5676	1870.8875
3326.80056	1847.8875
3329.03219	1833.4875
3331.26248	0.3875
3333.49143	0.1875
3335.71905	0.4875
