Data from AgNPs_UA_20uM_CRN_500uM_SU_RamanShift__69__13-48-00-304.txt Node

Date: Thu Aug 04 13:48:00 BST 2022
User: TCL
Spectrometer: QEP01345
Trigger mode: 4
Integration Time (sec): 1.000000E0
Scans to average: 10
Electric dark correction enabled: true
Nonlinearity correction enabled: false
Boxcar width: 0
XAxis mode: Raman Shifts
Number of Pixels in Spectrum: 1044
>>>>>Begin Spectral Data<<<<<
46.04893	-0.5125
50.45542	0.1875
54.85868	1.7875
59.25871	-0.5125
63.6555	9.9875
68.04907	9.6875
72.43941	11.5875
76.82654	11.7875
81.21044	9.2875
85.59113	11.3875
89.96862	12.8875
94.34289	11.7875
98.71396	11.6875
103.08183	13.4875
107.4465	12.5875
111.80798	14.0875
116.16626	16.0875
120.52136	18.1875
124.87327	14.3875
129.222	19.9875
133.56755	20.0875
137.90993	19.1875
142.24913	22.6875
146.58517	22.4875
150.91804	24.4875
155.24774	32.7875
159.57429	41.4875
163.89768	50.5875
168.21792	69.6875
172.53501	92.7875
176.84895	125.3875
181.15975	182.2875
185.46741	249.3875
189.77193	345.8875
194.07331	458.5875
198.37157	591.2875
202.6667	727.9875
206.9587	858.6875
211.24758	1006.4875
215.53334	1131.4875
219.81599	1267.5875
224.09553	1450.7875
228.37195	1617.0875
232.64527	1818.2875
236.91549	2005.7875
241.18261	2189.8875
245.44663	2357.1875
249.70755	2506.4875
253.96539	2632.7875
258.22014	2757.3875
262.4718	2853.4875
266.72039	2927.4875
270.96589	2967.2875
275.20832	2951.5875
279.44768	2926.4875
283.68397	2876.9875
287.91719	2851.8875
292.14735	2838.5875
296.37445	2855.5875
300.59849	2901.3875
304.81948	2961.5875
309.03742	3014.1875
313.25231	3040.7875
317.46415	3000.1875
321.67296	2938.6875
325.87872	2881.3875
330.08145	2856.8875
334.28114	2847.6875
338.47781	2900.2875
342.67145	2959.2875
346.86207	3032.2875
351.04966	3119.9875
355.23424	3197.8875
359.4158	3295.7875
363.59435	3329.9875
367.76989	3371.6875
371.94243	3396.5875
376.11196	3432.1875
380.27849	3449.0875
384.44203	3477.0875
388.60257	3496.6875
392.76012	3528.0875
396.91468	3574.2875
401.06626	3643.2875
405.21485	3705.8875
409.36047	3682.1875
413.50311	3614.1875
417.64277	3551.4875
421.77947	3506.6875
425.9132	3516.4875
430.04396	3560.0875
434.17176	3639.6875
438.2966	3785.4875
442.41849	3959.5875
446.53742	4186.4875
450.6534	4395.7875
454.76644	4507.9875
458.87653	4493.5875
462.98368	4350.3875
467.08789	4174.1875
471.18916	3994.1875
475.2875	3841.4875
479.38291	3694.2875
483.4754	3606.0875
487.56496	3536.8875
491.6516	3469.0875
495.73531	3441.9875
499.81612	3445.2875
503.89401	3451.5875
507.96899	3477.5875
512.04106	3488.2875
516.11023	3528.9875
520.1765	3558.4875
524.23987	3581.8875
528.30034	3618.4875
532.35792	3602.4875
536.41261	3567.2875
540.46441	3497.2875
544.51333	3492.2875
548.55936	3532.4875
552.60252	3583.6875
556.64279	3619.8875
560.6802	3636.6875
564.71473	3606.0875
568.7464	3613.6875
572.7752	3615.8875
576.80114	3612.7875
580.82422	3642.7875
584.84444	3735.3875
588.86181	3921.9875
592.87633	4126.6875
596.888	4223.4875
600.89682	4317.3875
604.9028	4645.0875
608.90594	5261.9875
612.90624	5731.1875
616.90371	5227.5875
620.89834	4301.2875
624.89015	3946.1875
628.87913	3874.3875
632.86528	3825.6875
636.84862	3743.7875
640.82913	3649.9875
644.80683	3554.3875
648.78172	3500.8875
652.75379	3534.0875
656.72306	3640.4875
660.68952	3730.9875
664.65319	3706.7875
668.61405	3653.7875
672.57211	3674.3875
676.52738	3670.0875
680.47986	3629.6875
684.42955	3571.6875
688.37646	3566.8875
692.32058	3606.7875
696.26192	3678.2875
700.20048	3737.8875
704.13626	3731.1875
708.06928	3684.4875
711.99952	3646.2875
715.927	3653.5875
719.85171	3691.3875
723.77365	3660.4875
727.69284	3617.2875
731.60928	3585.5875
735.52295	3607.5875
739.43388	3655.5875
743.34206	3678.0875
747.24749	3716.0875
751.15017	3726.6875
755.05012	3773.4875
758.94733	3894.5875
762.8418	4126.2875
766.73354	4442.3875
770.62254	4773.0875
774.50882	4888.7875
778.39237	4722.7875
782.27321	4350.2875
786.15132	4008.7875
790.02671	3809.9875
793.89938	3710.8875
797.76935	3672.0875
801.6366	3655.6875
805.50115	3649.0875
809.36299	3625.3875
813.22213	3616.7875
817.07857	3607.5875
820.93231	3601.5875
824.78336	3611.1875
828.63172	3621.4875
832.47738	3625.9875
836.32036	3628.9875
840.16066	3642.8875
843.99827	3650.1875
847.8332	3643.7875
851.66546	3625.7875
855.49504	3621.9875
859.32195	3635.7875
863.1462	3638.0875
866.96777	3613.7875
870.78668	3595.9875
874.60293	3621.0875
878.41652	3628.6875
882.22745	3662.4875
886.03573	3680.8875
889.84136	3663.3875
893.64433	3618.3875
897.44466	3622.4875
901.24235	3604.6875
905.0374	3611.8875
908.8298	3585.7875
912.61957	3584.4875
916.40671	3622.8875
920.19121	3663.6875
923.97308	3677.1875
927.75233	3718.2875
931.52895	3724.4875
935.30295	3687.8875
939.07433	3635.5875
942.84309	3579.3875
946.60924	3580.4875
950.37278	3566.3875
954.13371	3530.5875
957.89203	3521.7875
961.64774	3525.8875
965.40086	3504.6875
969.15137	3513.8875
972.89929	3502.2875
976.64461	3512.1875
980.38733	3512.2875
984.12747	3548.5875
987.86502	3580.8875
991.59999	3620.0875
995.33237	3714.6875
999.06217	3860.3875
1002.78939	4011.0875
1006.51404	4075.4875
1010.23611	4119.9875
1013.95561	4211.2875
1017.67255	4271.8875
1021.38692	4195.1875
1025.09872	4114.4875
1028.80796	4098.3875
1032.51465	4148.2875
1036.21877	4206.1875
1039.92035	4205.9875
1043.61937	4162.3875
1047.31584	4082.6875
1051.00976	3987.3875
1054.70114	3952.3875
1058.38998	3955.2875
1062.07627	3984.0875
1065.76003	4006.9875
1069.44126	4041.2875
1073.11995	4081.0875
1076.79611	4098.8875
1080.46974	4123.6875
1084.14085	4166.0875
1087.80943	4208.3875
1091.47549	4221.5875
1095.13903	4156.7875
1098.80005	4066.1875
1102.45857	4029.7875
1106.11456	4013.2875
1109.76805	4047.2875
1113.41903	4088.9875
1117.06751	4147.4875
1120.71348	4236.3875
1124.35696	4324.5875
1127.99793	4364.8875
1131.63641	4333.7875
1135.2724	4239.4875
1138.90589	4160.0875
1142.5369	4079.3875
1146.16542	4058.1875
1149.79145	4039.4875
1153.415	4059.5875
1157.03607	4092.6875
1160.65467	4143.0875
1164.27079	4266.4875
1167.88443	4425.2875
1171.49561	4680.4875
1175.10432	5053.0875
1178.71056	5561.6875
1182.31434	6062.7875
1185.91565	6447.5875
1189.51451	6596.9875
1193.11091	6448.0875
1196.70485	6029.4875
1200.29634	5606.3875
1203.88538	5230.8875
1207.47197	4965.1875
1211.05612	4761.9875
1214.63782	4673.3875
1218.21708	4656.2875
1221.79391	4682.6875
1225.36829	4739.9875
1228.94024	4745.2875
1232.50976	4754.8875
1236.07685	4806.6875
1239.6415	4885.5875
1243.20374	4909.1875
1246.76355	4892.3875
1250.32093	4929.6875
1253.8759	5052.4875
1257.42845	5219.7875
1260.97859	5391.7875
1264.52631	5544.4875
1268.07163	5657.6875
1271.61453	5707.3875
1275.15503	5750.4875
1278.69312	5824.2875
1282.22882	5931.3875
1285.76211	6104.8875
1289.29301	6316.8875
1292.82151	6523.7875
1296.34761	6677.5875
1299.87133	6840.5875
1303.39266	7089.2875
1306.9116	7444.6875
1310.42815	7832.7875
1313.94233	8020.1875
1317.45412	7943.9875
1320.96354	7759.6875
1324.47058	7623.1875
1327.97525	7619.6875
1331.47754	7812.6875
1334.97747	8039.9875
1338.47502	8216.3875
1341.97022	8248.8875
1345.46305	8225.8875
1348.95352	8362.6875
1352.44163	8623.4875
1355.92738	8952.3875
1359.41078	9317.7875
1362.89183	9432.5875
1366.37053	8938.7875
1369.84688	8101.0875
1373.32088	7260.1875
1376.79254	6753.2875
1380.26186	6517.8875
1383.72883	6378.9875
1387.19347	6201.0875
1390.65578	5911.1875
1394.11575	5654.9875
1397.57339	5523.4875
1401.0287	5584.8875
1404.48168	5737.3875
1407.93234	5993.3875
1411.38068	6209.9875
1414.82669	6218.0875
1418.27039	6095.3875
1421.71177	5960.2875
1425.15083	5948.7875
1428.58758	6078.0875
1432.02203	6261.3875
1435.45416	6340.4875
1438.88399	6347.0875
1442.31151	6278.9875
1445.73673	6207.8875
1449.15965	6121.7875
1452.58027	5977.4875
1455.9986	5855.4875
1459.41463	5781.9875
1462.82837	5882.3875
1466.23982	6016.9875
1469.64898	6195.3875
1473.05586	6340.9875
1476.46045	6445.7875
1479.86276	6505.7875
1483.26279	6526.6875
1486.66054	6534.5875
1490.05602	6608.0875
1493.44922	6698.6875
1496.84016	6858.9875
1500.22882	7070.0875
1503.61521	7372.1875
1506.99934	7642.5875
1510.38121	7698.4875
1513.76081	7513.5875
1517.13816	7141.1875
1520.51324	6742.7875
1523.88607	6475.0875
1527.25665	6414.4875
1530.62498	6438.4875
1533.99105	6489.4875
1537.35488	6541.4875
1540.71647	6539.6875
1544.07581	6439.2875
1547.4329	6298.8875
1550.78776	6078.9875
1554.14038	5853.5875
1557.49077	5717.4875
1560.83892	5636.4875
1564.18484	5610.6875
1567.52853	5626.1875
1570.86999	5661.5875
1574.20922	5666.3875
1577.54624	5613.8875
1580.88103	5495.3875
1584.2136	5375.5875
1587.54395	5441.8875
1590.87208	5756.4875
1594.19801	6287.2875
1597.52172	6981.0875
1600.84321	7525.1875
1604.16251	7557.1875
1607.47959	7086.3875
1610.79447	6380.8875
1614.10715	5704.3875
1617.41763	5214.3875
1620.7259	4912.4875
1624.03199	4764.4875
1627.33587	4772.5875
1630.63757	4910.4875
1633.93707	5189.5875
1637.23439	5664.3875
1640.52951	6308.5875
1643.82246	6967.6875
1647.11321	7376.7875
1650.40179	7164.7875
1653.68819	6453.5875
1656.97241	5583.9875
1660.25446	4856.1875
1663.53433	4381.8875
1666.81203	4104.4875
1670.08756	3931.7875
1673.36092	3816.7875
1676.63211	3760.3875
1679.90115	3692.6875
1683.16801	3644.7875
1686.43272	3611.9875
1689.69527	3578.0875
1692.95567	3575.6875
1696.2139	3568.0875
1699.46999	3555.5875
1702.72392	3556.4875
1705.97571	3539.1875
1709.22535	3549.2875
1712.47284	3528.4875
1715.71819	3527.5875
1718.96139	3499.9875
1722.20246	3513.6875
1725.44139	3491.7875
1728.67818	3477.6875
1731.91284	3455.3875
1735.14537	3442.0875
1738.37576	3424.2875
1741.60403	3422.7875
1744.83017	3415.1875
1748.05418	3395.6875
1751.27607	3412.5875
1754.49584	3393.2875
1757.71349	3378.1875
1760.92903	3368.9875
1764.14244	3375.4875
1767.35375	3369.0875
1770.56294	3361.6875
1773.77002	3353.4875
1776.97499	3371.3875
1780.17785	3347.8875
1783.37861	3339.2875
1786.57727	3349.3875
1789.77382	3336.9875
1792.96828	3329.5875
1796.16064	3326.9875
1799.3509	3327.7875
1802.53907	3324.9875
1805.72514	3315.5875
1808.90913	3311.9875
1812.09102	3317.6875
1815.27083	3302.7875
1818.44856	3283.6875
1821.6242	3265.5875
1824.79776	3275.1875
1827.96924	3273.8875
1831.13864	3270.3875
1834.30597	3269.0875
1837.47122	3256.9875
1840.6344	3247.1875
1843.7955	3252.1875
1846.95454	3233.9875
1850.11151	3254.5875
1853.26642	3251.9875
1856.41926	3256.1875
1859.57004	3251.7875
1862.71876	3246.6875
1865.86542	3239.6875
1869.01003	3248.8875
1872.15258	3237.3875
1875.29308	3249.1875
1878.43152	3231.0875
1881.56792	3233.6875
1884.70227	3236.9875
1887.83457	3241.9875
1890.96482	3231.6875
1894.09304	3230.5875
1897.21921	3218.1875
1900.34335	3214.6875
1903.46544	3216.4875
1906.58551	3226.5875
1909.70353	3227.4875
1912.81953	3213.3875
1915.93349	3219.2875
1919.04543	3201.3875
1922.15534	3201.9875
1925.26322	3186.5875
1928.36908	3194.3875
1931.47292	3187.8875
1934.57473	3188.7875
1937.67453	3190.0875
1940.77232	3185.5875
1943.86808	3166.0875
1946.96184	3164.8875
1950.05358	3146.7875
1953.14331	3142.7875
1956.23103	3134.7875
1959.31675	3109.3875
1962.40046	3106.8875
1965.48217	3097.4875
1968.56188	3082.4875
1971.63959	3084.6875
1974.7153	3064.6875
1977.78901	3068.0875
1980.86073	3055.2875
1983.93046	3036.8875
1986.99819	3026.5875
1990.06394	3020.0875
1993.1277	3026.1875
1996.18947	3004.5875
1999.24925	3009.1875
2002.30706	3000.5875
2005.36288	2980.9875
2008.41672	2964.7875
2011.46859	2966.9875
2014.51848	2953.8875
2017.56639	2946.5875
2020.61233	2928.8875
2023.6563	2933.9875
2026.6983	2933.8875
2029.73833	2930.1875
2032.7764	2912.3875
2035.8125	2913.7875
2038.84664	2905.5875
2041.87881	2900.4875
2044.90903	2890.2875
2047.93729	2878.3875
2050.96359	2889.6875
2053.98794	2873.9875
2057.01034	2888.4875
2060.03078	2869.8875
2063.04927	2866.3875
2066.06582	2868.4875
2069.08042	2878.7875
2072.09307	2862.5875
2075.10378	2853.4875
2078.11255	2865.2875
2081.11938	2847.6875
2084.12426	2850.0875
2087.12722	2850.2875
2090.12824	2848.5875
2093.12732	2857.1875
2096.12447	2858.4875
2099.11969	2849.4875
2102.11299	2853.3875
2105.10435	2851.4875
2108.09379	2827.4875
2111.08131	2835.8875
2114.0669	2831.3875
2117.05057	2841.7875
2120.03233	2842.3875
2123.01216	2841.2875
2125.99008	2847.6875
2128.96609	2838.3875
2131.94018	2856.9875
2134.91236	2850.4875
2137.88263	2851.8875
2140.851	2849.9875
2143.81746	2845.3875
2146.78201	2838.0875
2149.74466	2836.5875
2152.7054	2825.4875
2155.66425	2842.5875
2158.6212	2850.6875
2161.57625	2847.9875
2164.52941	2839.3875
2167.48067	2834.0875
2170.43004	2840.4875
2173.37752	2820.8875
2176.32311	2830.3875
2179.26681	2826.1875
2182.20863	2836.2875
2185.14856	2817.4875
2188.08661	2821.8875
2191.02278	2834.2875
2193.95707	2821.5875
2196.88948	2833.1875
2199.82001	2819.6875
2202.74867	2822.9875
2205.67545	2831.6875
2208.60037	2836.4875
2211.52341	2825.4875
2214.44458	2815.3875
2217.36388	2799.0875
2220.28132	2777.9875
2223.1969	2778.6875
2226.11061	2783.2875
2229.02246	2773.0875
2231.93245	2777.6875
2234.84058	2761.6875
2237.74686	2760.1875
2240.65128	2763.5875
2243.55385	2771.1875
2246.45456	2754.7875
2249.35343	2749.5875
2252.25044	2750.9875
2255.14561	2756.6875
2258.03893	2738.0875
2260.93041	2738.7875
2263.82004	2726.6875
2266.70783	2725.2875
2269.59378	2709.8875
2272.4779	2721.8875
2275.36017	2692.7875
2278.24061	2685.1875
2281.11922	2682.7875
2283.996	2678.9875
2286.87094	2668.4875
2289.74405	2662.5875
2292.61534	2670.5875
2295.4848	2662.9875
2298.35243	2658.0875
2301.21824	2669.6875
2304.08223	2667.7875
2306.94439	2667.8875
2309.80474	2662.0875
2312.66327	2658.4875
2315.51999	2654.9875
2318.37489	2655.6875
2321.22797	2648.3875
2324.07925	2655.7875
2326.92871	2639.9875
2329.77637	2645.9875
2332.62222	2648.7875
2335.46626	2641.4875
2338.3085	2638.7875
2341.14893	2646.2875
2343.98756	2652.6875
2346.8244	2659.2875
2349.65943	2638.7875
2352.49267	2648.0875
2355.32411	2637.8875
2358.15376	2632.5875
2360.98161	2635.8875
2363.80768	2630.3875
2366.63195	2629.1875
2369.45444	2623.2875
2372.27514	2614.0875
2375.09405	2622.0875
2377.91118	2598.0875
2380.72652	2608.4875
2383.54009	2595.4875
2386.35187	2598.6875
2389.16188	2587.6875
2391.97011	2582.9875
2394.77657	2575.1875
2397.58125	2562.7875
2400.38416	2570.7875
2403.18529	2566.0875
2405.98466	2556.5875
2408.78226	2553.6875
2411.57809	2551.2875
2414.37216	2544.1875
2417.16446	2532.6875
2419.955	2537.6875
2422.74378	2527.3875
2425.5308	2521.6875
2428.31606	2525.1875
2431.09956	2524.7875
2433.88131	2514.5875
2436.6613	2514.0875
2439.43954	2520.5875
2442.21603	2514.6875
2444.99077	2514.4875
2447.76377	2515.2875
2450.53501	2509.8875
2453.30451	2495.6875
2456.07226	2501.2875
2458.83827	2499.6875
2461.60254	2498.4875
2464.36507	2502.8875
2467.12586	2490.0875
2469.88492	2503.0875
2472.64224	2488.0875
2475.39782	2503.3875
2478.15167	2488.7875
2480.90379	2490.9875
2483.65417	2494.9875
2486.40283	2500.9875
2489.14976	2497.8875
2491.89497	2504.8875
2494.63845	2494.3875
2497.3802	2499.0875
2500.12024	2498.1875
2502.85855	2492.9875
2505.59514	2485.5875
2508.33002	2484.7875
2511.06318	2478.3875
2513.79462	2481.2875
2516.52435	2468.9875
2519.25237	2475.5875
2521.97867	2477.6875
2524.70327	2470.5875
2527.42616	2456.6875
2530.14734	2460.6875
2532.86681	2465.3875
2535.58458	2460.0875
2538.30065	2454.7875
2541.01501	2460.0875
2543.72768	2473.3875
2546.43864	2465.3875
2549.14791	2463.8875
2551.85548	2457.6875
2554.56136	2453.8875
2557.26554	2449.0875
2559.96803	2436.9875
2562.66883	2437.1875
2565.36794	2438.1875
2568.06536	2430.2875
2570.7611	2417.6875
2573.45514	2418.7875
2576.14751	2428.7875
2578.83819	2423.3875
2581.52719	2424.3875
2584.21451	2411.7875
2586.90015	2417.6875
2589.58411	2399.3875
2592.2664	2409.6875
2594.94701	2409.7875
2597.62594	2412.5875
2600.30321	2404.1875
2602.9788	2400.4875
2605.65273	2407.9875
2608.32498	2409.6875
2610.99557	2398.0875
2613.66449	2400.7875
2616.33175	2401.5875
2618.99734	2403.3875
2621.66128	2397.8875
2624.32355	2405.7875
2626.98416	2409.6875
2629.64311	2409.6875
2632.30041	2391.8875
2634.95605	2400.5875
2637.61004	2402.7875
2640.26238	2394.4875
2642.91306	2382.4875
2645.56209	2379.4875
2648.20948	2384.2875
2650.85521	2385.4875
2653.4993	2386.3875
2656.14175	2385.5875
2658.78255	2382.9875
2661.42171	2384.0875
2664.05923	2391.2875
2666.6951	2392.7875
2669.32934	2391.2875
2671.96194	2398.7875
2674.59291	2400.7875
2677.22224	2397.2875
2679.84993	2404.5875
2682.476	2405.9875
2685.10043	2394.7875
2687.72324	2398.5875
2690.34441	2393.8875
2692.96396	2393.6875
2695.58188	2391.5875
2698.19818	2383.8875
2700.81285	2391.7875
2703.4259	2395.3875
2706.03733	2387.7875
2708.64714	2388.2875
2711.25533	2387.9875
2713.86191	2375.8875
2716.46687	2388.3875
2719.07021	2383.7875
2721.67194	2397.7875
2724.27206	2397.8875
2726.87057	2395.8875
2729.46747	2395.6875
2732.06276	2394.2875
2734.65644	2397.8875
2737.24852	2384.4875
2739.83899	2393.7875
2742.42786	2387.2875
2745.01513	2397.4875
2747.60079	2383.3875
2750.18486	2394.4875
2752.76733	2386.3875
2755.3482	2389.3875
2757.92747	2376.2875
2760.50515	2366.8875
2763.08123	2380.9875
2765.65573	2366.3875
2768.22863	2379.7875
2770.79994	2370.3875
2773.36967	2382.8875
2775.9378	2374.6875
2778.50435	2378.1875
2781.06932	2371.8875
2783.6327	2369.5875
2786.1945	2365.1875
2788.75471	2359.7875
2791.31335	2356.0875
2793.87041	2358.3875
2796.42589	2354.5875
2798.97979	2358.2875
2801.53212	2348.6875
2804.08288	2353.5875
2806.63206	2352.4875
2809.17967	2334.3875
2811.72571	2339.6875
2814.27018	2342.8875
2816.81308	2331.6875
2819.35442	2324.2875
2821.89419	2307.4875
2824.43239	2316.5875
2826.96904	2308.5875
2829.50412	2309.8875
2832.03763	2314.1875
2834.56959	2306.5875
2837.1	2311.1875
2839.62884	2298.3875
2842.15613	2300.9875
2844.68186	2309.0875
2847.20604	2302.1875
2849.72867	2297.2875
2852.24974	2297.1875
2854.76927	2276.6875
2857.28724	2282.4875
2859.80367	2269.0875
2862.31855	2291.4875
2864.83189	2276.1875
2867.34368	2268.5875
2869.85393	2264.5875
2872.36264	2265.3875
2874.8698	2263.1875
2877.37543	2257.3875
2879.87952	2251.9875
2882.38207	2251.0875
2884.88308	2242.1875
2887.38256	2235.2875
2889.88051	2248.2875
2892.37692	2233.2875
2894.8718	2241.2875
2897.36515	2243.2875
2899.85698	2242.8875
2902.34727	2252.3875
2904.83604	2239.7875
2907.32328	2246.2875
2909.809	2247.3875
2912.29319	2254.8875
2914.77587	2242.7875
2917.25702	2243.9875
2919.73665	2242.8875
2922.21476	2248.7875
2924.69136	2249.3875
2927.16644	2250.6875
2929.64	2250.2875
2932.11205	2231.0875
2934.58258	2226.6875
2937.05161	2222.7875
2939.51912	2230.8875
2941.98513	2228.3875
2944.44962	2219.0875
2946.91261	2212.6875
2949.37409	2220.7875
2951.83407	2225.5875
2954.29254	2212.2875
2956.74951	2213.3875
2959.20498	2214.0875
2961.65895	2202.0875
2964.11142	2199.6875
2966.56239	2197.4875
2969.01186	2198.8875
2971.45984	2198.8875
2973.90632	2204.1875
2976.35131	2177.0875
2978.7948	2180.7875
2981.23681	2165.6875
2983.67732	2170.2875
2986.11635	2167.1875
2988.55388	2167.6875
2990.98993	2151.3875
2993.4245	2147.9875
2995.85758	2141.0875
2998.28917	2136.5875
3000.71928	2128.1875
3003.14791	2121.6875
3005.57506	2113.6875
3008.00073	2108.1875
3010.42493	2101.6875
3012.84764	2093.6875
3015.26888	2087.5875
3017.68865	2081.2875
3020.10694	2075.2875
3022.52376	2076.2875
3024.9391	2066.7875
3027.35298	2063.4875
3029.76539	2067.4875
3032.17632	2065.0875
3034.5858	2066.3875
3036.9938	2056.2875
3039.40034	2055.7875
3041.80542	2049.0875
3044.20903	2046.1875
3046.61118	2032.7875
3049.01187	2024.8875
3051.4111	2022.0875
3053.80888	2022.5875
3056.20519	2015.3875
3058.60005	2013.4875
3060.99345	2012.1875
3063.3854	1998.4875
3065.7759	1989.6875
3068.16494	2001.1875
3070.55254	1989.3875
3072.93868	1979.2875
3075.32338	1971.3875
3077.70662	1954.3875
3080.08842	1943.3875
3082.46878	1939.3875
3084.84769	1934.5875
3087.22515	1941.9875
3089.60118	1935.5875
3091.97576	1944.2875
3094.3489	1929.3875
3096.72061	1928.1875
3099.09087	1920.3875
3101.4597	1922.1875
3103.82709	1925.0875
3106.19305	1915.4875
3108.55757	1909.4875
3110.92066	1912.9875
3113.28232	1916.7875
3115.64255	1905.1875
3118.00134	1891.7875
3120.35871	1896.0875
3122.71466	1893.5875
3125.06917	1883.8875
3127.42226	1891.1875
3129.77393	1866.0875
3132.12417	1874.4875
3134.47299	1874.2875
3136.82039	1867.1875
3139.16636	1862.8875
3141.51092	1871.4875
3143.85406	1863.9875
3146.19579	1867.3875
3148.53609	1865.4875
3150.87499	1866.0875
3153.21246	1853.2875
3155.54853	1859.4875
3157.88318	1864.6875
3160.21642	1860.0875
3162.54826	1849.4875
3164.87868	1853.5875
3167.2077	1879.8875
3169.5353	1887.8875
3171.86151	1874.7875
3174.18631	1844.7875
3176.5097	1829.8875
3178.83169	1820.9875
3181.15228	1823.1875
3183.47147	1823.6875
3185.78926	1811.6875
3188.10565	1815.7875
3190.42065	1816.8875
3192.73424	1809.5875
3195.04645	1795.6875
3197.35725	1802.1875
3199.66667	1798.2875
3201.97469	1800.9875
3204.28132	1793.8875
3206.58656	1796.8875
3208.8904	1803.8875
3211.19287	1809.4875
3213.49394	1803.7875
3215.79363	1806.7875
3218.09193	1802.4875
3220.38884	1785.2875
3222.68438	1791.1875
3224.97853	1794.2875
3227.2713	1786.2875
3229.56269	1788.5875
3231.8527	1784.4875
3234.14133	1781.0875
3236.42858	1780.0875
3238.71446	1770.9875
3240.99896	1770.7875
3243.28209	1774.5875
3245.56384	1762.4875
3247.84423	1764.5875
3250.12324	1757.2875
3252.40088	1763.0875
3254.67715	1755.0875
3256.95205	1750.9875
3259.22558	1742.0875
3261.49775	1741.7875
3263.76855	1740.4875
3266.03799	1751.8875
3268.30606	1746.4875
3270.57277	1739.3875
3272.83812	1744.2875
3275.10211	1738.9875
3277.36474	1733.5875
3279.62601	1718.4875
3281.88593	1719.9875
3284.14448	1715.4875
3286.40168	1719.4875
3288.65753	1709.4875
3290.91202	1719.3875
3293.16516	1709.3875
3295.41695	1707.6875
3297.66738	1688.5875
3299.91647	1681.3875
3302.16421	1685.8875
3304.4106	1655.9875
3306.65564	1655.1875
3308.89933	1631.3875
3311.14169	1627.8875
3313.38269	1621.0875
3315.62236	1614.4875
3317.86068	1585.5875
3320.09766	1578.4875
3322.3333	1566.4875
3324.5676	1550.8875
3326.80056	1526.4875
3329.03219	1511.0875
3331.26248	1.7875
3333.49143	-0.6125
3335.71905	-2.2125
