Data from AgNPs_UA_10uM_CRN_500uM_SU_RamanShift__43__13-12-30-262.txt Node

Date: Thu Aug 04 13:12:30 BST 2022
User: TCL
Spectrometer: QEP01345
Trigger mode: 4
Integration Time (sec): 1.000000E0
Scans to average: 10
Electric dark correction enabled: true
Nonlinearity correction enabled: false
Boxcar width: 0
XAxis mode: Raman Shifts
Number of Pixels in Spectrum: 1044
>>>>>Begin Spectral Data<<<<<
46.04893	-0.6625
50.45542	-0.5625
54.85868	1.2375
59.25871	-0.1625
63.6555	19.8375
68.04907	21.4375
72.43941	21.9375
76.82654	21.3375
81.21044	23.7375
85.59113	24.0375
89.96862	24.3375
94.34289	24.9375
98.71396	27.0375
103.08183	27.6375
107.4465	24.9375
111.80798	28.0375
116.16626	28.7375
120.52136	31.9375
124.87327	34.1375
129.222	33.6375
133.56755	35.5375
137.90993	39.3375
142.24913	41.5375
146.58517	52.0375
150.91804	56.7375
155.24774	69.1375
159.57429	88.7375
163.89768	114.1375
168.21792	152.8375
172.53501	206.2375
176.84895	289.2375
181.15975	416.4375
185.46741	588.7375
189.77193	814.6375
194.07331	1094.4375
198.37157	1414.0375
202.6667	1751.1375
206.9587	2096.0375
211.24758	2412.8375
215.53334	2748.0375
219.81599	3091.8375
224.09553	3504.4375
228.37195	3914.3375
232.64527	4381.0375
236.91549	4873.6375
241.18261	5337.6375
245.44663	5746.7375
249.70755	6087.8375
253.96539	6384.7375
258.22014	6657.1375
262.4718	6848.5375
266.72039	6983.0375
270.96589	7057.0375
275.20832	7020.5375
279.44768	6948.9375
283.68397	6854.7375
287.91719	6763.5375
292.14735	6745.1375
296.37445	6790.8375
300.59849	6880.2375
304.81948	7015.9375
309.03742	7132.6375
313.25231	7170.7375
317.46415	7106.8375
321.67296	6957.9375
325.87872	6807.6375
330.08145	6744.3375
334.28114	6778.0375
338.47781	6850.1375
342.67145	6953.4375
346.86207	7086.5375
351.04966	7292.5375
355.23424	7503.1375
359.4158	7690.6375
363.59435	7813.8375
367.76989	7871.9375
371.94243	7915.5375
376.11196	7941.8375
380.27849	7994.7375
384.44203	8037.9375
388.60257	8120.7375
392.76012	8185.5375
396.91468	8270.4375
401.06626	8381.8375
405.21485	8423.7375
409.36047	8406.6375
413.50311	8258.5375
417.64277	8140.7375
421.77947	8036.0375
425.9132	7977.5375
430.04396	7961.0375
434.17176	8010.4375
438.2966	8068.1375
442.41849	8174.6375
446.53742	8313.4375
450.6534	8451.9375
454.76644	8578.0375
458.87653	8671.3375
462.98368	8709.5375
467.08789	8708.8375
471.18916	8600.2375
475.2875	8513.6375
479.38291	8423.4375
483.4754	8352.6375
487.56496	8316.4375
491.6516	8300.8375
495.73531	8311.0375
499.81612	8346.1375
503.89401	8413.2375
507.96899	8462.5375
512.04106	8474.4375
516.11023	8491.1375
520.1765	8511.8375
524.23987	8534.5375
528.30034	8541.6375
532.35792	8528.0375
536.41261	8515.2375
540.46441	8475.8375
544.51333	8479.3375
548.55936	8529.7375
552.60252	8604.7375
556.64279	8686.4375
560.6802	8801.2375
564.71473	8837.2375
568.7464	8874.1375
572.7752	8817.4375
576.80114	8707.1375
580.82422	8579.2375
584.84444	8561.6375
588.86181	8568.9375
592.87633	8595.4375
596.888	8713.4375
600.89682	9025.6375
604.9028	9710.1375
608.90594	11003.3375
612.90624	12227.1375
616.90371	11549.6375
620.89834	9852.8375
624.89015	9129.8375
628.87913	9065.3375
632.86528	9222.4375
636.84862	9316.2375
640.82913	9190.0375
644.80683	9001.1375
648.78172	8850.6375
652.75379	8876.0375
656.72306	9052.8375
660.68952	9251.9375
664.65319	9247.3375
668.61405	9233.1375
672.57211	9321.5375
676.52738	9343.5375
680.47986	9177.4375
684.42955	9041.7375
688.37646	9015.8375
692.32058	9080.8375
696.26192	9210.1375
700.20048	9353.8375
704.13626	9374.4375
708.06928	9300.5375
711.99952	9210.8375
715.927	9206.3375
719.85171	9262.4375
723.77365	9260.0375
727.69284	9246.4375
731.60928	9192.2375
735.52295	9212.8375
739.43388	9236.2375
743.34206	9270.6375
747.24749	9245.2375
751.15017	9269.6375
755.05012	9312.8375
758.94733	9481.7375
762.8418	9911.6375
766.73354	10587.1375
770.62254	11152.2375
774.50882	11332.5375
778.39237	11244.6375
782.27321	10855.8375
786.15132	10283.2375
790.02671	9851.6375
793.89938	9572.6375
797.76935	9464.4375
801.6366	9371.7375
805.50115	9334.1375
809.36299	9321.4375
813.22213	9336.4375
817.07857	9354.4375
820.93231	9346.8375
824.78336	9345.7375
828.63172	9364.2375
832.47738	9393.9375
836.32036	9368.3375
840.16066	9367.2375
843.99827	9368.0375
847.8332	9398.7375
851.66546	9415.1375
855.49504	9416.4375
859.32195	9430.4375
863.1462	9452.9375
866.96777	9450.0375
870.78668	9463.8375
874.60293	9503.1375
878.41652	9533.6375
882.22745	9578.9375
886.03573	9638.6375
889.84136	9626.6375
893.64433	9597.9375
897.44466	9585.3375
901.24235	9571.6375
905.0374	9568.1375
908.8298	9525.0375
912.61957	9535.8375
916.40671	9535.6375
920.19121	9535.1375
923.97308	9576.2375
927.75233	9603.0375
931.52895	9662.3375
935.30295	9621.1375
939.07433	9556.0375
942.84309	9504.1375
946.60924	9520.6375
950.37278	9483.9375
954.13371	9493.5375
957.89203	9474.0375
961.64774	9487.0375
965.40086	9489.5375
969.15137	9455.8375
972.89929	9453.1375
976.64461	9444.2375
980.38733	9463.1375
984.12747	9475.3375
987.86502	9517.8375
991.59999	9553.8375
995.33237	9567.3375
999.06217	9630.4375
1002.78939	9674.4375
1006.51404	9783.8375
1010.23611	9919.4375
1013.95561	9974.2375
1017.67255	9984.0375
1021.38692	10009.1375
1025.09872	9963.4375
1028.80796	9898.9375
1032.51465	9876.0375
1036.21877	9855.2375
1039.92035	9904.4375
1043.61937	9914.7375
1047.31584	9952.3375
1051.00976	9994.2375
1054.70114	10036.9375
1058.38998	10077.0375
1062.07627	10120.8375
1065.76003	10151.4375
1069.44126	10248.0375
1073.11995	10435.9375
1076.79611	10572.8375
1080.46974	10682.4375
1084.14085	10704.8375
1087.80943	10757.5375
1091.47549	10772.1375
1095.13903	10819.1375
1098.80005	10940.8375
1102.45857	11065.8375
1106.11456	11106.2375
1109.76805	10915.8375
1113.41903	10868.8375
1117.06751	10889.8375
1120.71348	10941.8375
1124.35696	10987.3375
1127.99793	11021.9375
1131.63641	10912.3375
1135.2724	10721.3375
1138.90589	10588.9375
1142.5369	10513.7375
1146.16542	10437.8375
1149.79145	10389.0375
1153.415	10300.5375
1157.03607	10260.0375
1160.65467	10283.1375
1164.27079	10393.9375
1167.88443	10598.1375
1171.49561	10913.8375
1175.10432	11299.6375
1178.71056	11822.7375
1182.31434	12343.3375
1185.91565	12579.5375
1189.51451	12616.1375
1193.11091	12591.5375
1196.70485	12480.2375
1200.29634	12307.4375
1203.88538	12088.3375
1207.47197	11779.4375
1211.05612	11486.0375
1214.63782	11201.6375
1218.21708	10982.5375
1221.79391	10843.0375
1225.36829	10775.4375
1228.94024	10742.3375
1232.50976	10758.0375
1236.07685	10781.4375
1239.6415	10860.2375
1243.20374	10898.6375
1246.76355	10926.9375
1250.32093	10990.3375
1253.8759	11093.8375
1257.42845	11274.6375
1260.97859	11470.8375
1264.52631	11664.1375
1268.07163	11806.6375
1271.61453	11887.9375
1275.15503	11886.8375
1278.69312	11844.3375
1282.22882	11830.8375
1285.76211	11855.4375
1289.29301	11911.0375
1292.82151	12029.5375
1296.34761	12213.3375
1299.87133	12380.8375
1303.39266	12808.6375
1306.9116	13412.7375
1310.42815	13993.4375
1313.94233	14253.3375
1317.45412	13999.0375
1320.96354	13572.9375
1324.47058	13138.0375
1327.97525	12718.6375
1331.47754	12424.3375
1334.97747	12340.3375
1338.47502	12426.7375
1341.97022	12761.5375
1345.46305	13301.0375
1348.95352	14071.5375
1352.44163	14851.7375
1355.92738	15490.9375
1359.41078	16118.8375
1362.89183	16461.6375
1366.37053	15813.9375
1369.84688	14352.5375
1373.32088	12970.1375
1376.79254	12223.6375
1380.26186	11823.1375
1383.72883	11553.3375
1387.19347	11320.7375
1390.65578	11041.0375
1394.11575	10863.2375
1397.57339	10673.6375
1401.0287	10594.1375
1404.48168	10570.5375
1407.93234	10646.6375
1411.38068	10763.9375
1414.82669	10882.4375
1418.27039	10924.1375
1421.71177	10939.0375
1425.15083	10883.5375
1428.58758	10780.3375
1432.02203	10745.9375
1435.45416	10720.3375
1438.88399	10656.9375
1442.31151	10623.9375
1445.73673	10658.0375
1449.15965	10635.7375
1452.58027	10665.1375
1455.9986	10667.8375
1459.41463	10652.3375
1462.82837	10707.3375
1466.23982	10823.3375
1469.64898	10953.3375
1473.05586	11054.7375
1476.46045	11186.0375
1479.86276	11304.6375
1483.26279	11426.2375
1486.66054	11553.6375
1490.05602	11796.5375
1493.44922	12180.9375
1496.84016	12759.4375
1500.22882	13547.4375
1503.61521	14435.1375
1506.99934	15143.5375
1510.38121	15479.7375
1513.76081	15162.2375
1517.13816	14362.9375
1520.51324	13357.6375
1523.88607	12544.9375
1527.25665	12039.4375
1530.62498	11775.5375
1533.99105	11643.2375
1537.35488	11587.5375
1540.71647	11528.8375
1544.07581	11494.2375
1547.4329	11420.6375
1550.78776	11341.9375
1554.14038	11253.7375
1557.49077	11240.6375
1560.83892	11335.1375
1564.18484	11497.9375
1567.52853	11640.5375
1570.86999	11779.3375
1574.20922	11829.6375
1577.54624	11751.7375
1580.88103	11476.2375
1584.2136	11156.7375
1587.54395	10956.9375
1590.87208	10952.1375
1594.19801	11108.7375
1597.52172	11328.0375
1600.84321	11423.1375
1604.16251	11410.8375
1607.47959	11314.6375
1610.79447	11117.5375
1614.10715	10864.0375
1617.41763	10549.2375
1620.7259	10323.0375
1624.03199	10153.7375
1627.33587	10106.2375
1630.63757	10135.4375
1633.93707	10289.8375
1637.23439	10592.9375
1640.52951	11141.8375
1643.82246	11844.2375
1647.11321	12572.4375
1650.40179	12863.7375
1653.68819	12482.8375
1656.97241	11602.3375
1660.25446	10747.5375
1663.53433	10159.8375
1666.81203	9805.1375
1670.08756	9587.5375
1673.36092	9497.8375
1676.63211	9435.4375
1679.90115	9354.7375
1683.16801	9255.8375
1686.43272	9222.2375
1689.69527	9160.4375
1692.95567	9114.7375
1696.2139	9065.9375
1699.46999	9060.7375
1702.72392	9042.2375
1705.97571	9030.1375
1709.22535	9033.2375
1712.47284	9029.2375
1715.71819	9042.8375
1718.96139	9034.9375
1722.20246	9024.7375
1725.44139	9000.3375
1728.67818	8935.0375
1731.91284	8925.1375
1735.14537	8890.0375
1738.37576	8863.0375
1741.60403	8852.9375
1744.83017	8819.0375
1748.05418	8835.5375
1751.27607	8817.5375
1754.49584	8804.4375
1757.71349	8787.5375
1760.92903	8772.9375
1764.14244	8743.3375
1767.35375	8731.2375
1770.56294	8722.2375
1773.77002	8715.8375
1776.97499	8706.6375
1780.17785	8660.9375
1783.37861	8644.6375
1786.57727	8623.4375
1789.77382	8658.1375
1792.96828	8630.1375
1796.16064	8603.4375
1799.3509	8612.4375
1802.53907	8569.6375
1805.72514	8581.4375
1808.90913	8550.8375
1812.09102	8522.8375
1815.27083	8511.6375
1818.44856	8508.5375
1821.6242	8453.0375
1824.79776	8457.9375
1827.96924	8437.8375
1831.13864	8448.1375
1834.30597	8440.5375
1837.47122	8399.8375
1840.6344	8388.6375
1843.7955	8387.3375
1846.95454	8401.6375
1850.11151	8383.0375
1853.26642	8370.2375
1856.41926	8377.2375
1859.57004	8407.6375
1862.71876	8377.7375
1865.86542	8384.7375
1869.01003	8354.1375
1872.15258	8337.4375
1875.29308	8321.8375
1878.43152	8314.8375
1881.56792	8320.8375
1884.70227	8272.9375
1887.83457	8270.2375
1890.96482	8232.9375
1894.09304	8232.1375
1897.21921	8228.4375
1900.34335	8212.5375
1903.46544	8190.6375
1906.58551	8221.5375
1909.70353	8171.1375
1912.81953	8194.8375
1915.93349	8162.2375
1919.04543	8143.3375
1922.15534	8129.2375
1925.26322	8120.4375
1928.36908	8080.3375
1931.47292	8077.9375
1934.57473	8074.5375
1937.67453	8059.4375
1940.77232	8037.7375
1943.86808	8000.3375
1946.96184	7987.3375
1950.05358	7958.1375
1953.14331	7939.0375
1956.23103	7907.2375
1959.31675	7897.1375
1962.40046	7867.8375
1965.48217	7845.9375
1968.56188	7811.5375
1971.63959	7795.7375
1974.7153	7778.0375
1977.78901	7765.9375
1980.86073	7741.9375
1983.93046	7708.5375
1986.99819	7682.5375
1990.06394	7650.5375
1993.1277	7633.3375
1996.18947	7584.3375
1999.24925	7599.6375
2002.30706	7540.9375
2005.36288	7519.3375
2008.41672	7493.2375
2011.46859	7484.3375
2014.51848	7454.4375
2017.56639	7433.2375
2020.61233	7402.1375
2023.6563	7390.7375
2026.6983	7364.3375
2029.73833	7340.8375
2032.7764	7341.1375
2035.8125	7319.7375
2038.84664	7306.8375
2041.87881	7288.2375
2044.90903	7260.7375
2047.93729	7264.5375
2050.96359	7227.6375
2053.98794	7204.6375
2057.01034	7228.4375
2060.03078	7216.6375
2063.04927	7205.9375
2066.06582	7187.3375
2069.08042	7172.7375
2072.09307	7182.5375
2075.10378	7164.8375
2078.11255	7159.8375
2081.11938	7149.9375
2084.12426	7127.8375
2087.12722	7128.8375
2090.12824	7142.0375
2093.12732	7134.8375
2096.12447	7135.5375
2099.11969	7142.4375
2102.11299	7150.0375
2105.10435	7127.0375
2108.09379	7150.1375
2111.08131	7133.7375
2114.0669	7161.7375
2117.05057	7163.4375
2120.03233	7179.3375
2123.01216	7151.4375
2125.99008	7155.9375
2128.96609	7138.0375
2131.94018	7170.0375
2134.91236	7152.7375
2137.88263	7140.6375
2140.851	7173.0375
2143.81746	7172.2375
2146.78201	7148.5375
2149.74466	7139.2375
2152.7054	7139.9375
2155.66425	7138.2375
2158.6212	7149.5375
2161.57625	7110.6375
2164.52941	7134.6375
2167.48067	7132.4375
2170.43004	7123.1375
2173.37752	7105.2375
2176.32311	7119.3375
2179.26681	7109.1375
2182.20863	7123.9375
2185.14856	7118.1375
2188.08661	7102.3375
2191.02278	7124.8375
2193.95707	7103.4375
2196.88948	7105.2375
2199.82001	7089.1375
2202.74867	7067.2375
2205.67545	7089.3375
2208.60037	7049.1375
2211.52341	7057.4375
2214.44458	7032.6375
2217.36388	7009.9375
2220.28132	6973.9375
2223.1969	6958.6375
2226.11061	6947.3375
2229.02246	6941.1375
2231.93245	6935.9375
2234.84058	6917.7375
2237.74686	6911.4375
2240.65128	6899.8375
2243.55385	6881.0375
2246.45456	6875.9375
2249.35343	6838.8375
2252.25044	6857.5375
2255.14561	6844.5375
2258.03893	6846.1375
2260.93041	6817.2375
2263.82004	6802.6375
2266.70783	6767.7375
2269.59378	6762.2375
2272.4779	6733.5375
2275.36017	6720.9375
2278.24061	6718.6375
2281.11922	6686.9375
2283.996	6676.2375
2286.87094	6669.9375
2289.74405	6661.8375
2292.61534	6672.4375
2295.4848	6633.2375
2298.35243	6622.1375
2301.21824	6624.8375
2304.08223	6608.3375
2306.94439	6608.7375
2309.80474	6597.4375
2312.66327	6581.8375
2315.51999	6571.5375
2318.37489	6581.1375
2321.22797	6549.4375
2324.07925	6539.8375
2326.92871	6528.5375
2329.77637	6512.0375
2332.62222	6500.8375
2335.46626	6491.3375
2338.3085	6468.5375
2341.14893	6455.2375
2343.98756	6469.0375
2346.8244	6458.5375
2349.65943	6447.9375
2352.49267	6418.8375
2355.32411	6417.7375
2358.15376	6415.1375
2360.98161	6418.4375
2363.80768	6407.3375
2366.63195	6382.4375
2369.45444	6399.7375
2372.27514	6383.1375
2375.09405	6392.0375
2377.91118	6348.2375
2380.72652	6355.7375
2383.54009	6326.5375
2386.35187	6321.0375
2389.16188	6310.5375
2391.97011	6301.2375
2394.77657	6269.7375
2397.58125	6253.6375
2400.38416	6236.7375
2403.18529	6241.7375
2405.98466	6238.9375
2408.78226	6222.4375
2411.57809	6214.2375
2414.37216	6185.7375
2417.16446	6197.9375
2419.955	6180.3375
2422.74378	6177.3375
2425.5308	6164.5375
2428.31606	6157.2375
2431.09956	6152.6375
2433.88131	6116.8375
2436.6613	6139.1375
2439.43954	6129.9375
2442.21603	6128.9375
2444.99077	6111.1375
2447.76377	6127.6375
2450.53501	6104.1375
2453.30451	6093.0375
2456.07226	6076.6375
2458.83827	6072.8375
2461.60254	6050.3375
2464.36507	6054.4375
2467.12586	6029.4375
2469.88492	6035.3375
2472.64224	6037.2375
2475.39782	6026.0375
2478.15167	6022.3375
2480.90379	5998.7375
2483.65417	5971.9375
2486.40283	5985.4375
2489.14976	5977.4375
2491.89497	5989.5375
2494.63845	5985.8375
2497.3802	5956.1375
2500.12024	5959.4375
2502.85855	5940.3375
2505.59514	5924.2375
2508.33002	5925.4375
2511.06318	5911.1375
2513.79462	5904.0375
2516.52435	5896.7375
2519.25237	5874.2375
2521.97867	5867.5375
2524.70327	5847.6375
2527.42616	5839.6375
2530.14734	5836.6375
2532.86681	5813.9375
2535.58458	5843.5375
2538.30065	5829.1375
2541.01501	5812.8375
2543.72768	5798.5375
2546.43864	5794.8375
2549.14791	5769.0375
2551.85548	5759.6375
2554.56136	5755.4375
2557.26554	5744.2375
2559.96803	5748.6375
2562.66883	5717.6375
2565.36794	5703.0375
2568.06536	5692.1375
2570.7611	5662.3375
2573.45514	5644.8375
2576.14751	5648.7375
2578.83819	5639.8375
2581.52719	5618.4375
2584.21451	5604.1375
2586.90015	5609.8375
2589.58411	5592.3375
2592.2664	5588.1375
2594.94701	5572.0375
2597.62594	5575.6375
2600.30321	5555.9375
2602.9788	5564.5375
2605.65273	5543.1375
2608.32498	5537.2375
2610.99557	5497.0375
2613.66449	5498.7375
2616.33175	5478.4375
2618.99734	5490.7375
2621.66128	5484.2375
2624.32355	5456.0375
2626.98416	5432.9375
2629.64311	5422.3375
2632.30041	5427.7375
2634.95605	5404.7375
2637.61004	5396.4375
2640.26238	5384.3375
2642.91306	5383.9375
2645.56209	5369.9375
2648.20948	5375.9375
2650.85521	5358.8375
2653.4993	5355.3375
2656.14175	5360.9375
2658.78255	5347.6375
2661.42171	5342.6375
2664.05923	5337.4375
2666.6951	5348.7375
2669.32934	5366.4375
2671.96194	5352.4375
2674.59291	5352.6375
2677.22224	5340.3375
2679.84993	5343.7375
2682.476	5339.1375
2685.10043	5324.8375
2687.72324	5324.6375
2690.34441	5343.8375
2692.96396	5299.4375
2695.58188	5307.8375
2698.19818	5299.6375
2700.81285	5302.1375
2703.4259	5303.6375
2706.03733	5285.0375
2708.64714	5285.2375
2711.25533	5287.2375
2713.86191	5273.1375
2716.46687	5269.7375
2719.07021	5291.6375
2721.67194	5277.9375
2724.27206	5259.9375
2726.87057	5288.7375
2729.46747	5279.5375
2732.06276	5261.8375
2734.65644	5257.2375
2737.24852	5249.5375
2739.83899	5232.6375
2742.42786	5228.5375
2745.01513	5222.4375
2747.60079	5210.0375
2750.18486	5206.1375
2752.76733	5211.3375
2755.3482	5200.7375
2757.92747	5166.9375
2760.50515	5167.4375
2763.08123	5147.4375
2765.65573	5130.9375
2768.22863	5111.3375
2770.79994	5105.6375
2773.36967	5112.7375
2775.9378	5101.0375
2778.50435	5086.6375
2781.06932	5088.5375
2783.6327	5093.1375
2786.1945	5074.6375
2788.75471	5060.7375
2791.31335	5058.5375
2793.87041	5036.8375
2796.42589	5015.9375
2798.97979	5015.5375
2801.53212	4984.7375
2804.08288	4993.6375
2806.63206	4973.4375
2809.17967	4980.6375
2811.72571	4969.8375
2814.27018	4952.4375
2816.81308	4939.5375
2819.35442	4916.5375
2821.89419	4910.4375
2824.43239	4911.0375
2826.96904	4885.5375
2829.50412	4893.6375
2832.03763	4874.5375
2834.56959	4860.9375
2837.1	4834.1375
2839.62884	4836.1375
2842.15613	4821.9375
2844.68186	4822.4375
2847.20604	4809.8375
2849.72867	4817.3375
2852.24974	4799.9375
2854.76927	4774.4375
2857.28724	4789.8375
2859.80367	4763.1375
2862.31855	4752.5375
2864.83189	4755.2375
2867.34368	4741.3375
2869.85393	4760.8375
2872.36264	4731.8375
2874.8698	4718.8375
2877.37543	4729.9375
2879.87952	4736.1375
2882.38207	4720.0375
2884.88308	4710.0375
2887.38256	4708.7375
2889.88051	4715.9375
2892.37692	4690.9375
2894.8718	4696.5375
2897.36515	4689.0375
2899.85698	4679.4375
2902.34727	4682.9375
2904.83604	4675.7375
2907.32328	4702.3375
2909.809	4685.1375
2912.29319	4688.4375
2914.77587	4692.6375
2917.25702	4680.6375
2919.73665	4678.3375
2922.21476	4680.4375
2924.69136	4668.2375
2927.16644	4693.3375
2929.64	4665.3375
2932.11205	4640.0375
2934.58258	4616.2375
2937.05161	4627.0375
2939.51912	4638.9375
2941.98513	4618.5375
2944.44962	4620.7375
2946.91261	4600.4375
2949.37409	4608.6375
2951.83407	4594.6375
2954.29254	4599.7375
2956.74951	4587.2375
2959.20498	4587.8375
2961.65895	4606.8375
2964.11142	4607.9375
2966.56239	4579.4375
2969.01186	4597.3375
2971.45984	4581.6375
2973.90632	4567.6375
2976.35131	4554.0375
2978.7948	4550.3375
2981.23681	4545.7375
2983.67732	4546.1375
2986.11635	4521.9375
2988.55388	4522.1375
2990.98993	4509.2375
2993.4245	4495.9375
2995.85758	4481.3375
2998.28917	4470.6375
3000.71928	4465.1375
3003.14791	4452.4375
3005.57506	4451.1375
3008.00073	4431.1375
3010.42493	4415.9375
3012.84764	4401.5375
3015.26888	4393.5375
3017.68865	4388.6375
3020.10694	4382.3375
3022.52376	4376.7375
3024.9391	4343.4375
3027.35298	4332.4375
3029.76539	4334.3375
3032.17632	4325.9375
3034.5858	4316.5375
3036.9938	4318.5375
3039.40034	4313.3375
3041.80542	4293.4375
3044.20903	4263.8375
3046.61118	4289.2375
3049.01187	4264.5375
3051.4111	4264.4375
3053.80888	4252.1375
3056.20519	4213.6375
3058.60005	4218.2375
3060.99345	4208.7375
3063.3854	4205.0375
3065.7759	4180.7375
3068.16494	4186.2375
3070.55254	4171.5375
3072.93868	4157.1375
3075.32338	4148.2375
3077.70662	4151.3375
3080.08842	4138.1375
3082.46878	4118.0375
3084.84769	4102.7375
3087.22515	4099.9375
3089.60118	4105.4375
3091.97576	4091.1375
3094.3489	4099.1375
3096.72061	4102.9375
3099.09087	4107.3375
3101.4597	4086.6375
3103.82709	4070.5375
3106.19305	4077.8375
3108.55757	4086.0375
3110.92066	4051.6375
3113.28232	4048.8375
3115.64255	4028.6375
3118.00134	4029.0375
3120.35871	4041.3375
3122.71466	4012.0375
3125.06917	4015.9375
3127.42226	3998.3375
3129.77393	3993.5375
3132.12417	3966.4375
3134.47299	3968.4375
3136.82039	3956.6375
3139.16636	3969.7375
3141.51092	3961.0375
3143.85406	3967.9375
3146.19579	3961.8375
3148.53609	3949.3375
3150.87499	3937.6375
3153.21246	3949.6375
3155.54853	3965.8375
3157.88318	3947.3375
3160.21642	3933.6375
3162.54826	3936.1375
3164.87868	3950.8375
3167.2077	3931.7375
3169.5353	3935.7375
3171.86151	3916.1375
3174.18631	3920.0375
3176.5097	3902.0375
3178.83169	3891.5375
3181.15228	3892.5375
3183.47147	3865.9375
3185.78926	3879.0375
3188.10565	3860.1375
3190.42065	3836.2375
3192.73424	3839.7375
3195.04645	3838.7375
3197.35725	3822.3375
3199.66667	3806.3375
3201.97469	3821.0375
3204.28132	3804.0375
3206.58656	3823.6375
3208.8904	3822.2375
3211.19287	3816.8375
3213.49394	3810.2375
3215.79363	3793.8375
3218.09193	3810.5375
3220.38884	3811.2375
3222.68438	3815.1375
3224.97853	3804.2375
3227.2713	3796.3375
3229.56269	3792.9375
3231.8527	3776.5375
3234.14133	3782.1375
3236.42858	3760.8375
3238.71446	3741.4375
3240.99896	3755.7375
3243.28209	3728.7375
3245.56384	3722.8375
3247.84423	3709.0375
3250.12324	3705.2375
3252.40088	3696.8375
3254.67715	3687.3375
3256.95205	3691.3375
3259.22558	3694.1375
3261.49775	3686.1375
3263.76855	3706.3375
3266.03799	3682.5375
3268.30606	3695.4375
3270.57277	3695.3375
3272.83812	3655.7375
3275.10211	3662.1375
3277.36474	3643.0375
3279.62601	3632.8375
3281.88593	3627.0375
3284.14448	3632.9375
3286.40168	3619.1375
3288.65753	3623.6375
3290.91202	3598.7375
3293.16516	3609.3375
3295.41695	3607.4375
3297.66738	3578.9375
3299.91647	3561.8375
3302.16421	3537.5375
3304.4106	3508.5375
3306.65564	3487.0375
3308.89933	3458.4375
3311.14169	3437.2375
3313.38269	3399.1375
3315.62236	3381.2375
3317.86068	3356.3375
3320.09766	3327.2375
3322.3333	3307.6375
3324.5676	3272.1375
3326.80056	3240.5375
3329.03219	3196.9375
3331.26248	1.0375
3333.49143	0.0375
3335.71905	0.1375
