Data from AgNPs_UA_5uM_CRN_500uM_SU_RamanShift__19__11-32-33-142.txt Node

Date: Thu Aug 04 11:32:33 BST 2022
User: TCL
Spectrometer: QEP01345
Trigger mode: 4
Integration Time (sec): 1.000000E0
Scans to average: 10
Electric dark correction enabled: true
Nonlinearity correction enabled: false
Boxcar width: 0
XAxis mode: Raman Shifts
Number of Pixels in Spectrum: 1044
>>>>>Begin Spectral Data<<<<<
46.04893	0.6875
50.45542	-1.1125
54.85868	-0.3125
59.25871	-0.5125
63.6555	-54.5125
68.04907	-34.8125
72.43941	-68.8125
76.82654	-50.2125
81.21044	-51.4125
85.59113	-44.6125
89.96862	-69.6125
94.34289	-51.3125
98.71396	-70.9125
103.08183	-51.5125
107.4465	-42.0125
111.80798	-48.4125
116.16626	-37.1125
120.52136	-63.8125
124.87327	-38.5125
129.222	-50.5125
133.56755	-38.8125
137.90993	-46.4125
142.24913	-32.7125
146.58517	-18.8125
150.91804	-10.3125
155.24774	8.7875
159.57429	42.1875
163.89768	66.2875
168.21792	136.2875
172.53501	201.7875
176.84895	344.1875
181.15975	562.3875
185.46741	837.6875
189.77193	1174.1875
194.07331	1670.9875
198.37157	2183.2875
202.6667	2716.0875
206.9587	3319.8875
211.24758	3949.4875
215.53334	4649.3875
219.81599	5481.7875
224.09553	6419.1875
228.37195	7379.0875
232.64527	8323.4875
236.91549	9046.5875
241.18261	9449.2875
245.44663	9558.0875
249.70755	9518.3875
253.96539	9504.4875
258.22014	9585.0875
262.4718	9683.3875
266.72039	9693.6875
270.96589	9457.7875
275.20832	9038.9875
279.44768	8624.7875
283.68397	8313.9875
287.91719	8225.4875
292.14735	8442.0875
296.37445	9070.5875
300.59849	10188.0875
304.81948	11782.9875
309.03742	13566.1875
313.25231	14851.0875
317.46415	14684.3875
321.67296	12823.6875
325.87872	10735.8875
330.08145	9500.8875
334.28114	9251.6875
338.47781	9608.8875
342.67145	10274.6875
346.86207	11391.8875
351.04966	13065.4875
355.23424	14705.3875
359.4158	15291.6875
363.59435	14718.7875
367.76989	13727.9875
371.94243	12732.9875
376.11196	11931.3875
380.27849	11344.7875
384.44203	10851.3875
388.60257	10594.8875
392.76012	10628.7875
396.91468	10990.0875
401.06626	11438.1875
405.21485	11415.8875
409.36047	10674.9875
413.50311	9425.4875
417.64277	8183.4875
421.77947	7451.5875
425.9132	7074.4875
430.04396	6923.8875
434.17176	6895.6875
438.2966	7066.3875
442.41849	7299.9875
446.53742	7554.5875
450.6534	7688.0875
454.76644	7689.9875
458.87653	7557.1875
462.98368	7367.1875
467.08789	7188.7875
471.18916	6931.0875
475.2875	6592.7875
479.38291	6286.4875
483.4754	6097.4875
487.56496	6034.1875
491.6516	5932.3875
495.73531	5917.6875
499.81612	6002.5875
503.89401	6214.9875
507.96899	6426.6875
512.04106	6756.7875
516.11023	7071.5875
520.1765	7325.2875
524.23987	7437.0875
528.30034	7397.9875
532.35792	7251.7875
536.41261	7071.5875
540.46441	6810.8875
544.51333	6621.9875
548.55936	6617.4875
552.60252	6794.6875
556.64279	7072.6875
560.6802	7590.6875
564.71473	8766.4875
568.7464	10279.8875
572.7752	10250.2875
576.80114	8283.0875
580.82422	6688.5875
584.84444	6009.7875
588.86181	5789.5875
592.87633	5789.3875
596.888	6031.6875
600.89682	6969.8875
604.9028	10124.8875
608.90594	18205.9875
612.90624	27963.5875
616.90371	25219.1875
620.89834	13144.7875
624.89015	7902.3875
628.87913	7347.2875
632.86528	8114.6875
636.84862	8372.6875
640.82913	7380.7875
644.80683	6121.6875
648.78172	5563.6875
652.75379	5782.2875
656.72306	6721.8875
660.68952	7639.9875
664.65319	7110.6875
668.61405	5883.1875
672.57211	5369.8875
676.52738	5340.1875
680.47986	5285.4875
684.42955	5092.0875
688.37646	5013.5875
692.32058	5026.9875
696.26192	5120.0875
700.20048	5283.8875
704.13626	5338.6875
708.06928	5220.8875
711.99952	5162.3875
715.927	5257.7875
719.85171	5522.8875
723.77365	5702.4875
727.69284	5515.6875
731.60928	5335.5875
735.52295	5267.5875
739.43388	5337.3875
743.34206	5394.1875
747.24749	5377.0875
751.15017	5421.5875
755.05012	5852.5875
758.94733	7397.6875
762.8418	10991.7875
766.73354	15537.6875
770.62254	17888.1875
774.50882	16963.2875
778.39237	15071.9875
782.27321	12306.0875
786.15132	8898.0875
790.02671	6690.7875
793.89938	5668.8875
797.76935	5328.6875
801.6366	5173.1875
805.50115	5094.3875
809.36299	5018.3875
813.22213	4994.7875
817.07857	4998.1875
820.93231	5053.0875
824.78336	5177.3875
828.63172	5305.0875
832.47738	5388.1875
836.32036	5239.8875
840.16066	4984.6875
843.99827	4832.9875
847.8332	4765.2875
851.66546	4770.3875
855.49504	4743.8875
859.32195	4722.1875
863.1462	4679.9875
866.96777	4665.6875
870.78668	4661.3875
874.60293	4714.2875
878.41652	4792.1875
882.22745	4987.1875
886.03573	5071.4875
889.84136	5039.5875
893.64433	4995.6875
897.44466	5017.6875
901.24235	5046.2875
905.0374	4919.9875
908.8298	4707.8875
912.61957	4564.6875
916.40671	4461.1875
920.19121	4549.5875
923.97308	4788.2875
927.75233	5271.9875
931.52895	5787.9875
935.30295	5500.2875
939.07433	4791.8875
942.84309	4318.4875
946.60924	4153.0875
950.37278	4082.0875
954.13371	4054.9875
957.89203	4052.5875
961.64774	4073.5875
965.40086	4047.7875
969.15137	3998.1875
972.89929	4027.7875
976.64461	3985.3875
980.38733	4003.2875
984.12747	3977.2875
987.86502	3986.4875
991.59999	4022.9875
995.33237	4110.8875
999.06217	4242.8875
1002.78939	4482.9875
1006.51404	4830.2875
1010.23611	4992.3875
1013.95561	4805.7875
1017.67255	4575.9875
1021.38692	4389.3875
1025.09872	4197.5875
1028.80796	4112.2875
1032.51465	4182.7875
1036.21877	4199.2875
1039.92035	4299.2875
1043.61937	4376.3875
1047.31584	4466.7875
1051.00976	4473.5875
1054.70114	4402.6875
1058.38998	4330.0875
1062.07627	4286.8875
1065.76003	4293.1875
1069.44126	4349.6875
1073.11995	4480.2875
1076.79611	4806.8875
1080.46974	5389.5875
1084.14085	6263.0875
1087.80943	6968.9875
1091.47549	6909.5875
1095.13903	6185.7875
1098.80005	5429.3875
1102.45857	5045.9875
1106.11456	4999.1875
1109.76805	5149.5875
1113.41903	5638.9875
1117.06751	6410.8875
1120.71348	7655.5875
1124.35696	9512.7875
1127.99793	10719.8875
1131.63641	9741.3875
1135.2724	7814.8875
1138.90589	6522.5875
1142.5369	5806.5875
1146.16542	5371.6875
1149.79145	5062.8875
1153.415	4996.8875
1157.03607	5093.9875
1160.65467	5352.4875
1164.27079	5839.7875
1167.88443	6567.3875
1171.49561	7750.4875
1175.10432	9823.2875
1178.71056	12576.9875
1182.31434	14447.2875
1185.91565	14094.6875
1189.51451	12272.3875
1193.11091	10382.0875
1196.70485	9155.4875
1200.29634	8666.0875
1203.88538	8088.3875
1207.47197	6927.8875
1211.05612	5859.4875
1214.63782	5201.6875
1218.21708	4881.9875
1221.79391	4773.0875
1225.36829	4759.2875
1228.94024	4767.4875
1232.50976	4751.7875
1236.07685	4766.1875
1239.6415	4857.8875
1243.20374	4991.4875
1246.76355	5199.2875
1250.32093	5454.9875
1253.8759	5822.4875
1257.42845	6431.8875
1260.97859	7239.8875
1264.52631	7964.1875
1268.07163	8328.4875
1271.61453	8308.2875
1275.15503	7989.2875
1278.69312	7692.8875
1282.22882	7918.3875
1285.76211	8971.1875
1289.29301	10414.1875
1292.82151	11354.1875
1296.34761	11755.3875
1299.87133	12745.2875
1303.39266	15203.0875
1306.9116	19731.7875
1310.42815	25415.8875
1313.94233	27554.8875
1317.45412	23401.6875
1320.96354	17065.3875
1324.47058	12269.3875
1327.97525	9365.9875
1331.47754	7953.2875
1334.97747	7468.8875
1338.47502	7669.9875
1341.97022	8780.6875
1345.46305	11242.0875
1348.95352	14680.2875
1352.44163	18308.8875
1355.92738	22890.8875
1359.41078	30872.0875
1362.89183	39147.1875
1366.37053	36905.8875
1369.84688	25137.0875
1373.32088	15644.6875
1376.79254	11578.6875
1380.26186	9711.3875
1383.72883	8294.0875
1387.19347	6986.5875
1390.65578	6056.1875
1394.11575	5513.5875
1397.57339	5248.1875
1401.0287	5059.4875
1404.48168	4871.2875
1407.93234	4794.1875
1411.38068	4894.9875
1414.82669	5345.5875
1418.27039	5823.3875
1421.71177	5921.0875
1425.15083	5685.0875
1428.58758	5783.2875
1432.02203	6449.1875
1435.45416	6933.5875
1438.88399	6613.0875
1442.31151	6168.3875
1445.73673	6061.8875
1449.15965	6002.0875
1452.58027	5837.0875
1455.9986	5620.3875
1459.41463	5414.0875
1462.82837	5436.3875
1466.23982	5701.0875
1469.64898	6067.5875
1473.05586	6194.6875
1476.46045	6136.2875
1479.86276	6179.2875
1483.26279	6494.3875
1486.66054	7182.2875
1490.05602	8289.8875
1493.44922	10107.1875
1496.84016	12935.7875
1500.22882	17265.5875
1503.61521	23474.7875
1506.99934	31518.8875
1510.38121	39658.8875
1513.76081	43186.0875
1517.13816	38555.5875
1520.51324	28897.9875
1523.88607	19882.5875
1527.25665	14034.2875
1530.62498	10695.1875
1533.99105	8763.1875
1537.35488	7534.0875
1540.71647	6817.4875
1544.07581	6547.5875
1547.4329	6525.7875
1550.78776	6753.7875
1554.14038	7112.3875
1557.49077	7744.4875
1560.83892	8890.9875
1564.18484	10619.3875
1567.52853	12436.2875
1570.86999	13464.6875
1574.20922	13528.6875
1577.54624	12720.8875
1580.88103	10586.0875
1584.2136	8006.2875
1587.54395	6529.4875
1590.87208	6172.8875
1594.19801	6639.4875
1597.52172	7470.2875
1600.84321	7505.3875
1604.16251	6623.8875
1607.47959	5747.9875
1610.79447	5246.9875
1614.10715	4851.6875
1617.41763	4564.7875
1620.7259	4440.5875
1624.03199	4507.1875
1627.33587	4738.2875
1630.63757	5172.7875
1633.93707	5989.4875
1637.23439	7445.8875
1640.52951	10131.2875
1643.82246	14715.0875
1647.11321	20902.1875
1650.40179	25786.6875
1653.68819	25257.7875
1656.97241	19485.8875
1660.25446	12926.2875
1663.53433	8495.1875
1666.81203	6114.2875
1670.08756	4881.4875
1673.36092	4219.6875
1676.63211	3797.2875
1679.90115	3552.9875
1683.16801	3363.3875
1686.43272	3224.9875
1689.69527	3145.5875
1692.95567	3038.9875
1696.2139	3016.2875
1699.46999	2953.3875
1702.72392	2928.7875
1705.97571	2932.4875
1709.22535	2914.3875
1712.47284	2978.0875
1715.71819	2994.7875
1718.96139	2992.5875
1722.20246	2961.3875
1725.44139	2902.6875
1728.67818	2823.3875
1731.91284	2731.8875
1735.14537	2666.8875
1738.37576	2624.7875
1741.60403	2602.1875
1744.83017	2564.2875
1748.05418	2550.3875
1751.27607	2522.5875
1754.49584	2462.4875
1757.71349	2396.4875
1760.92903	2372.0875
1764.14244	2288.9875
1767.35375	2281.8875
1770.56294	2214.7875
1773.77002	2166.2875
1776.97499	2157.1875
1780.17785	2105.7875
1783.37861	2077.0875
1786.57727	2085.6875
1789.77382	2013.8875
1792.96828	2050.1875
1796.16064	2054.0875
1799.3509	2041.0875
1802.53907	2046.2875
1805.72514	2010.2875
1808.90913	1987.8875
1812.09102	1987.5875
1815.27083	1979.8875
1818.44856	1957.9875
1821.6242	1951.4875
1824.79776	1937.5875
1827.96924	1920.1875
1831.13864	1901.7875
1834.30597	1891.6875
1837.47122	1852.8875
1840.6344	1821.0875
1843.7955	1793.5875
1846.95454	1764.0875
1850.11151	1784.0875
1853.26642	1752.4875
1856.41926	1754.7875
1859.57004	1760.4875
1862.71876	1759.4875
1865.86542	1779.6875
1869.01003	1776.3875
1872.15258	1753.4875
1875.29308	1787.0875
1878.43152	1789.6875
1881.56792	1771.2875
1884.70227	1757.2875
1887.83457	1751.6875
1890.96482	1714.0875
1894.09304	1718.9875
1897.21921	1713.8875
1900.34335	1712.3875
1903.46544	1691.7875
1906.58551	1703.7875
1909.70353	1697.5875
1912.81953	1701.8875
1915.93349	1679.7875
1919.04543	1677.1875
1922.15534	1668.5875
1925.26322	1650.5875
1928.36908	1620.7875
1931.47292	1598.3875
1934.57473	1587.4875
1937.67453	1538.9875
1940.77232	1499.8875
1943.86808	1490.9875
1946.96184	1493.7875
1950.05358	1469.1875
1953.14331	1466.0875
1956.23103	1486.4875
1959.31675	1472.3875
1962.40046	1436.8875
1965.48217	1490.9875
1968.56188	1515.5875
1971.63959	1525.6875
1974.7153	1528.8875
1977.78901	1519.5875
1980.86073	1472.5875
1983.93046	1423.0875
1986.99819	1334.2875
1990.06394	1350.9875
1993.1277	1371.5875
1996.18947	1354.5875
1999.24925	1326.2875
2002.30706	1321.9875
2005.36288	1322.4875
2008.41672	1308.0875
2011.46859	1290.4875
2014.51848	1272.7875
2017.56639	1261.9875
2020.61233	1248.8875
2023.6563	1258.0875
2026.6983	1221.6875
2029.73833	1235.7875
2032.7764	1241.7875
2035.8125	1199.4875
2038.84664	1209.7875
2041.87881	1204.5875
2044.90903	1214.8875
2047.93729	1207.7875
2050.96359	1179.0875
2053.98794	1184.8875
2057.01034	1186.0875
2060.03078	1149.0875
2063.04927	1142.4875
2066.06582	1138.2875
2069.08042	1119.3875
2072.09307	1125.7875
2075.10378	1122.8875
2078.11255	1109.7875
2081.11938	1108.5875
2084.12426	1122.5875
2087.12722	1111.0875
2090.12824	1102.0875
2093.12732	1106.9875
2096.12447	1110.1875
2099.11969	1111.5875
2102.11299	1101.8875
2105.10435	1129.1875
2108.09379	1107.6875
2111.08131	1107.9875
2114.0669	1121.8875
2117.05057	1124.0875
2120.03233	1126.3875
2123.01216	1175.3875
2125.99008	1186.1875
2128.96609	1189.9875
2131.94018	1189.9875
2134.91236	1165.4875
2137.88263	1143.8875
2140.851	1126.8875
2143.81746	1131.4875
2146.78201	1091.9875
2149.74466	1066.3875
2152.7054	1071.7875
2155.66425	1046.4875
2158.6212	1042.4875
2161.57625	1004.0875
2164.52941	987.7875
2167.48067	1015.6875
2170.43004	1014.4875
2173.37752	1036.0875
2176.32311	1035.0875
2179.26681	1046.2875
2182.20863	1046.5875
2185.14856	1049.2875
2188.08661	1036.9875
2191.02278	1037.3875
2193.95707	1002.6875
2196.88948	985.3875
2199.82001	991.0875
2202.74867	979.6875
2205.67545	976.5875
2208.60037	985.7875
2211.52341	983.9875
2214.44458	979.2875
2217.36388	971.6875
2220.28132	960.1875
2223.1969	943.3875
2226.11061	941.4875
2229.02246	933.0875
2231.93245	943.4875
2234.84058	921.3875
2237.74686	922.6875
2240.65128	913.7875
2243.55385	940.2875
2246.45456	914.7875
2249.35343	955.1875
2252.25044	961.1875
2255.14561	992.9875
2258.03893	1024.7875
2260.93041	1043.1875
2263.82004	1052.9875
2266.70783	1055.6875
2269.59378	1033.5875
2272.4779	1021.5875
2275.36017	1045.0875
2278.24061	1029.9875
2281.11922	994.0875
2283.996	1004.4875
2286.87094	974.0875
2289.74405	971.3875
2292.61534	955.3875
2295.4848	938.2875
2298.35243	920.4875
2301.21824	909.4875
2304.08223	904.1875
2306.94439	909.6875
2309.80474	912.3875
2312.66327	909.1875
2315.51999	893.1875
2318.37489	890.8875
2321.22797	880.4875
2324.07925	877.0875
2326.92871	878.6875
2329.77637	873.3875
2332.62222	875.1875
2335.46626	861.8875
2338.3085	870.3875
2341.14893	890.2875
2343.98756	893.8875
2346.8244	887.7875
2349.65943	893.9875
2352.49267	916.0875
2355.32411	928.0875
2358.15376	943.1875
2360.98161	967.0875
2363.80768	957.8875
2366.63195	990.9875
2369.45444	1012.2875
2372.27514	1020.4875
2375.09405	1026.6875
2377.91118	983.1875
2380.72652	975.8875
2383.54009	958.8875
2386.35187	957.7875
2389.16188	927.2875
2391.97011	922.7875
2394.77657	906.9875
2397.58125	895.3875
2400.38416	882.4875
2403.18529	866.5875
2405.98466	855.0875
2408.78226	855.5875
2411.57809	850.5875
2414.37216	842.0875
2417.16446	842.0875
2419.955	834.0875
2422.74378	856.6875
2425.5308	845.3875
2428.31606	857.6875
2431.09956	864.0875
2433.88131	859.0875
2436.6613	878.7875
2439.43954	879.0875
2442.21603	889.7875
2444.99077	883.3875
2447.76377	905.4875
2450.53501	907.1875
2453.30451	907.7875
2456.07226	930.1875
2458.83827	914.4875
2461.60254	880.9875
2464.36507	903.8875
2467.12586	896.7875
2469.88492	905.6875
2472.64224	908.6875
2475.39782	893.1875
2478.15167	926.9875
2480.90379	947.0875
2483.65417	976.3875
2486.40283	995.9875
2489.14976	1014.8875
2491.89497	1008.7875
2494.63845	1017.3875
2497.3802	997.4875
2500.12024	989.0875
2502.85855	974.9875
2505.59514	964.0875
2508.33002	929.6875
2511.06318	890.3875
2513.79462	863.0875
2516.52435	805.4875
2519.25237	777.8875
2521.97867	765.2875
2524.70327	761.7875
2527.42616	756.0875
2530.14734	757.1875
2532.86681	739.9875
2535.58458	746.5875
2538.30065	742.0875
2541.01501	769.4875
2543.72768	755.5875
2546.43864	773.9875
2549.14791	775.6875
2551.85548	774.0875
2554.56136	785.9875
2557.26554	796.8875
2559.96803	800.5875
2562.66883	804.9875
2565.36794	801.1875
2568.06536	778.1875
2570.7611	812.6875
2573.45514	798.3875
2576.14751	789.3875
2578.83819	780.1875
2581.52719	765.9875
2584.21451	768.0875
2586.90015	741.1875
2589.58411	734.0875
2592.2664	745.4875
2594.94701	745.7875
2597.62594	753.7875
2600.30321	695.9875
2602.9788	723.6875
2605.65273	730.5875
2608.32498	739.7875
2610.99557	765.2875
2613.66449	726.6875
2616.33175	754.3875
2618.99734	755.6875
2621.66128	760.6875
2624.32355	751.4875
2626.98416	735.3875
2629.64311	725.1875
2632.30041	716.8875
2634.95605	688.2875
2637.61004	680.3875
2640.26238	656.0875
2642.91306	657.3875
2645.56209	678.7875
2648.20948	672.4875
2650.85521	658.0875
2653.4993	689.8875
2656.14175	682.9875
2658.78255	678.5875
2661.42171	659.6875
2664.05923	702.1875
2666.6951	722.9875
2669.32934	729.2875
2671.96194	742.2875
2674.59291	733.3875
2677.22224	734.3875
2679.84993	732.4875
2682.476	719.2875
2685.10043	713.9875
2687.72324	696.7875
2690.34441	690.1875
2692.96396	691.0875
2695.58188	704.6875
2698.19818	688.3875
2700.81285	674.1875
2703.4259	668.5875
2706.03733	640.0875
2708.64714	660.0875
2711.25533	684.8875
2713.86191	700.8875
2716.46687	697.7875
2719.07021	698.4875
2721.67194	698.1875
2724.27206	710.6875
2726.87057	678.8875
2729.46747	669.8875
2732.06276	673.3875
2734.65644	650.8875
2737.24852	652.4875
2739.83899	627.8875
2742.42786	633.6875
2745.01513	639.8875
2747.60079	610.9875
2750.18486	596.4875
2752.76733	599.4875
2755.3482	589.6875
2757.92747	585.2875
2760.50515	569.5875
2763.08123	561.5875
2765.65573	569.1875
2768.22863	555.4875
2770.79994	554.8875
2773.36967	558.3875
2775.9378	553.5875
2778.50435	556.7875
2781.06932	557.1875
2783.6327	551.2875
2786.1945	580.8875
2788.75471	565.8875
2791.31335	576.7875
2793.87041	584.9875
2796.42589	576.6875
2798.97979	572.0875
2801.53212	601.8875
2804.08288	617.7875
2806.63206	618.6875
2809.17967	618.4875
2811.72571	650.8875
2814.27018	665.2875
2816.81308	673.7875
2819.35442	664.1875
2821.89419	707.2875
2824.43239	704.4875
2826.96904	742.0875
2829.50412	721.9875
2832.03763	716.0875
2834.56959	708.1875
2837.1	691.5875
2839.62884	680.4875
2842.15613	670.8875
2844.68186	678.7875
2847.20604	659.4875
2849.72867	669.9875
2852.24974	692.0875
2854.76927	670.6875
2857.28724	645.6875
2859.80367	729.8875
2862.31855	750.9875
2864.83189	754.9875
2867.34368	778.4875
2869.85393	810.1875
2872.36264	797.6875
2874.8698	804.8875
2877.37543	810.3875
2879.87952	787.6875
2882.38207	760.2875
2884.88308	746.5875
2887.38256	742.5875
2889.88051	723.9875
2892.37692	719.2875
2894.8718	694.6875
2897.36515	711.5875
2899.85698	716.1875
2902.34727	713.0875
2904.83604	738.6875
2907.32328	765.0875
2909.809	779.7875
2912.29319	795.9875
2914.77587	805.5875
2917.25702	814.9875
2919.73665	801.5875
2922.21476	778.4875
2924.69136	759.3875
2927.16644	722.4875
2929.64	708.7875
2932.11205	686.0875
2934.58258	692.4875
2937.05161	674.0875
2939.51912	672.5875
2941.98513	693.0875
2944.44962	677.1875
2946.91261	657.9875
2949.37409	669.5875
2951.83407	668.8875
2954.29254	673.7875
2956.74951	684.9875
2959.20498	668.9875
2961.65895	675.5875
2964.11142	665.8875
2966.56239	661.1875
2969.01186	664.0875
2971.45984	647.2875
2973.90632	647.5875
2976.35131	666.1875
2978.7948	653.9875
2981.23681	659.4875
2983.67732	659.2875
2986.11635	659.5875
2988.55388	639.8875
2990.98993	658.1875
2993.4245	655.7875
2995.85758	654.1875
2998.28917	660.2875
3000.71928	657.1875
3003.14791	662.1875
3005.57506	650.7875
3008.00073	645.8875
3010.42493	590.2875
3012.84764	649.2875
3015.26888	649.3875
3017.68865	647.2875
3020.10694	600.8875
3022.52376	625.8875
3024.9391	616.8875
3027.35298	601.4875
3029.76539	578.3875
3032.17632	575.2875
3034.5858	560.3875
3036.9938	558.1875
3039.40034	535.2875
3041.80542	515.8875
3044.20903	495.9875
3046.61118	482.5875
3049.01187	499.3875
3051.4111	487.7875
3053.80888	481.9875
3056.20519	478.5875
3058.60005	461.0875
3060.99345	495.6875
3063.3854	462.7875
3065.7759	459.9875
3068.16494	454.9875
3070.55254	445.2875
3072.93868	459.4875
3075.32338	452.5875
3077.70662	446.8875
3080.08842	439.6875
3082.46878	424.4875
3084.84769	444.8875
3087.22515	422.8875
3089.60118	436.2875
3091.97576	419.6875
3094.3489	432.3875
3096.72061	420.1875
3099.09087	405.3875
3101.4597	416.5875
3103.82709	409.5875
3106.19305	401.5875
3108.55757	406.8875
3110.92066	401.8875
3113.28232	417.1875
3115.64255	421.0875
3118.00134	424.0875
3120.35871	404.8875
3122.71466	395.6875
3125.06917	410.5875
3127.42226	410.1875
3129.77393	396.9875
3132.12417	407.2875
3134.47299	418.1875
3136.82039	399.6875
3139.16636	382.3875
3141.51092	406.6875
3143.85406	417.8875
3146.19579	398.0875
3148.53609	403.7875
3150.87499	413.7875
3153.21246	406.1875
3155.54853	416.8875
3157.88318	423.0875
3160.21642	422.7875
3162.54826	419.5875
3164.87868	421.8875
3167.2077	379.9875
3169.5353	401.9875
3171.86151	401.5875
3174.18631	383.2875
3176.5097	373.0875
3178.83169	370.1875
3181.15228	368.8875
3183.47147	348.1875
3185.78926	326.4875
3188.10565	344.2875
3190.42065	321.9875
3192.73424	339.6875
3195.04645	329.4875
3197.35725	324.1875
3199.66667	337.9875
3201.97469	337.2875
3204.28132	329.6875
3206.58656	346.2875
3208.8904	360.9875
3211.19287	351.0875
3213.49394	344.9875
3215.79363	346.9875
3218.09193	365.9875
3220.38884	358.4875
3222.68438	351.6875
3224.97853	333.9875
3227.2713	360.7875
3229.56269	342.0875
3231.8527	344.7875
3234.14133	333.8875
3236.42858	332.5875
3238.71446	305.6875
3240.99896	332.8875
3243.28209	311.5875
3245.56384	328.9875
3247.84423	318.9875
3250.12324	327.1875
3252.40088	324.1875
3254.67715	314.3875
3256.95205	310.1875
3259.22558	322.6875
3261.49775	320.3875
3263.76855	317.6875
3266.03799	327.1875
3268.30606	326.1875
3270.57277	334.8875
3272.83812	322.9875
3275.10211	328.9875
3277.36474	354.9875
3279.62601	359.3875
3281.88593	348.6875
3284.14448	335.7875
3286.40168	370.7875
3288.65753	370.2875
3290.91202	388.0875
3293.16516	385.4875
3295.41695	413.0875
3297.66738	431.6875
3299.91647	423.1875
3302.16421	441.6875
3304.4106	417.0875
3306.65564	446.4875
3308.89933	428.0875
3311.14169	436.8875
3313.38269	443.2875
3315.62236	441.1875
3317.86068	445.5875
3320.09766	460.3875
3322.3333	441.9875
3324.5676	461.0875
3326.80056	462.6875
3329.03219	475.8875
3331.26248	-0.2125
3333.49143	-0.5125
3335.71905	0.7875
