Data from AgNPs_UA_10uM_CRN_500uM_SU_RamanShift__71__13-17-10-267.txt Node

Date: Thu Aug 04 13:17:10 BST 2022
User: TCL
Spectrometer: QEP01345
Trigger mode: 4
Integration Time (sec): 1.000000E0
Scans to average: 10
Electric dark correction enabled: true
Nonlinearity correction enabled: false
Boxcar width: 0
XAxis mode: Raman Shifts
Number of Pixels in Spectrum: 1044
>>>>>Begin Spectral Data<<<<<
46.04893	0.1875
50.45542	-1.3125
54.85868	0.9875
59.25871	0.2875
63.6555	23.3875
68.04907	21.6875
72.43941	23.5875
76.82654	25.7875
81.21044	25.9875
85.59113	26.4875
89.96862	29.5875
94.34289	28.3875
98.71396	30.7875
103.08183	31.2875
107.4465	30.7875
111.80798	31.8875
116.16626	32.3875
120.52136	35.6875
124.87327	40.3875
129.222	39.9875
133.56755	41.6875
137.90993	47.2875
142.24913	49.6875
146.58517	58.7875
150.91804	68.9875
155.24774	82.9875
159.57429	107.0875
163.89768	140.4875
168.21792	185.9875
172.53501	259.1875
176.84895	360.1875
181.15975	515.4875
185.46741	725.2875
189.77193	1010.3875
194.07331	1361.0875
198.37157	1761.6875
202.6667	2179.4875
206.9587	2583.1875
211.24758	3006.5875
215.53334	3427.7875
219.81599	3866.1875
224.09553	4353.4875
228.37195	4907.0875
232.64527	5489.7875
236.91549	6089.7875
241.18261	6635.6875
245.44663	7076.2875
249.70755	7473.0875
253.96539	7819.8875
258.22014	8119.2875
262.4718	8371.8875
266.72039	8534.1875
270.96589	8576.6875
275.20832	8553.6875
279.44768	8472.9875
283.68397	8323.4875
287.91719	8214.8875
292.14735	8224.5875
296.37445	8299.8875
300.59849	8488.2875
304.81948	8708.4875
309.03742	8880.9875
313.25231	8990.5875
317.46415	8920.3875
321.67296	8689.1875
325.87872	8462.3875
330.08145	8323.0875
334.28114	8335.7875
338.47781	8409.2875
342.67145	8536.8875
346.86207	8738.8875
351.04966	9018.2875
355.23424	9333.3875
359.4158	9555.0875
363.59435	9695.9875
367.76989	9778.9875
371.94243	9788.1875
376.11196	9801.4875
380.27849	9856.6875
384.44203	9899.9875
388.60257	9982.0875
392.76012	10092.0875
396.91468	10234.4875
401.06626	10363.0875
405.21485	10438.6875
409.36047	10342.6875
413.50311	10132.8875
417.64277	9923.0875
421.77947	9745.7875
425.9132	9654.4875
430.04396	9642.6875
434.17176	9674.8875
438.2966	9757.9875
442.41849	9912.1875
446.53742	10134.7875
450.6534	10324.7875
454.76644	10498.5875
458.87653	10584.5875
462.98368	10628.6875
467.08789	10575.3875
471.18916	10409.7875
475.2875	10216.8875
479.38291	10044.3875
483.4754	9889.3875
487.56496	9842.2875
491.6516	9838.4875
495.73531	9805.8875
499.81612	9836.7875
503.89401	9938.3875
507.96899	9977.0875
512.04106	10016.4875
516.11023	10036.6875
520.1765	10088.7875
524.23987	10106.5875
528.30034	10084.5875
532.35792	10070.2875
536.41261	10006.2875
540.46441	9945.8875
544.51333	9913.0875
548.55936	9976.0875
552.60252	10089.4875
556.64279	10227.8875
560.6802	10356.3875
564.71473	10439.2875
568.7464	10486.3875
572.7752	10412.1875
576.80114	10172.2875
580.82422	10048.5875
584.84444	10021.6875
588.86181	10008.6875
592.87633	10089.0875
596.888	10255.9875
600.89682	10705.5875
604.9028	11803.2875
608.90594	13852.4875
612.90624	15769.6875
616.90371	14592.3875
620.89834	11849.6875
624.89015	10744.3875
628.87913	10691.7875
632.86528	10885.1875
636.84862	10935.9875
640.82913	10695.1875
644.80683	10358.3875
648.78172	10168.3875
652.75379	10176.2875
656.72306	10443.4875
660.68952	10743.3875
664.65319	10732.8875
668.61405	10674.7875
672.57211	10808.3875
676.52738	10804.4875
680.47986	10538.5875
684.42955	10297.0875
688.37646	10269.0875
692.32058	10333.2875
696.26192	10560.4875
700.20048	10757.7875
704.13626	10769.6875
708.06928	10634.6875
711.99952	10499.9875
715.927	10470.6875
719.85171	10537.4875
723.77365	10542.3875
727.69284	10474.7875
731.60928	10401.6875
735.52295	10385.4875
739.43388	10440.5875
743.34206	10480.8875
747.24749	10488.5875
751.15017	10489.1875
755.05012	10571.6875
758.94733	10855.5875
762.8418	11530.9875
766.73354	12589.3875
770.62254	13496.4875
774.50882	13736.7875
778.39237	13517.7875
782.27321	12830.2875
786.15132	11953.6875
790.02671	11223.0875
793.89938	10868.7875
797.76935	10661.1875
801.6366	10556.4875
805.50115	10495.3875
809.36299	10477.2875
813.22213	10453.4875
817.07857	10458.4875
820.93231	10458.1875
824.78336	10457.0875
828.63172	10476.7875
832.47738	10477.1875
836.32036	10463.1875
840.16066	10465.5875
843.99827	10467.3875
847.8332	10471.5875
851.66546	10502.4875
855.49504	10513.0875
859.32195	10495.9875
863.1462	10510.4875
866.96777	10497.8875
870.78668	10507.6875
874.60293	10566.7875
878.41652	10580.6875
882.22745	10686.0875
886.03573	10718.3875
889.84136	10710.1875
893.64433	10679.2875
897.44466	10637.3875
901.24235	10591.8875
905.0374	10582.3875
908.8298	10586.6875
912.61957	10559.9875
916.40671	10577.3875
920.19121	10592.9875
923.97308	10613.7875
927.75233	10717.6875
931.52895	10788.8875
935.30295	10738.9875
939.07433	10595.1875
942.84309	10510.6875
946.60924	10503.4875
950.37278	10467.4875
954.13371	10445.1875
957.89203	10442.8875
961.64774	10446.6875
965.40086	10422.4875
969.15137	10416.1875
972.89929	10404.6875
976.64461	10407.0875
980.38733	10431.2875
984.12747	10476.5875
987.86502	10489.9875
991.59999	10556.0875
995.33237	10618.5875
999.06217	10736.3875
1002.78939	10880.5875
1006.51404	11017.3875
1010.23611	11180.5875
1013.95561	11306.2875
1017.67255	11347.9875
1021.38692	11357.1875
1025.09872	11283.7875
1028.80796	11226.3875
1032.51465	11223.6875
1036.21877	11271.6875
1039.92035	11296.5875
1043.61937	11302.5875
1047.31584	11284.8875
1051.00976	11322.4875
1054.70114	11338.7875
1058.38998	11393.0875
1062.07627	11442.0875
1065.76003	11543.1875
1069.44126	11632.8875
1073.11995	11862.9875
1076.79611	12053.9875
1080.46974	12205.3875
1084.14085	12254.4875
1087.80943	12334.0875
1091.47549	12385.5875
1095.13903	12419.7875
1098.80005	12531.7875
1102.45857	12716.4875
1106.11456	12721.0875
1109.76805	12459.6875
1113.41903	12388.0875
1117.06751	12494.8875
1120.71348	12599.3875
1124.35696	12692.8875
1127.99793	12758.4875
1131.63641	12586.3875
1135.2724	12301.8875
1138.90589	12062.5875
1142.5369	11912.6875
1146.16542	11825.6875
1149.79145	11730.1875
1153.415	11605.2875
1157.03607	11588.1875
1160.65467	11658.4875
1164.27079	11929.7875
1167.88443	12236.4875
1171.49561	12689.7875
1175.10432	13369.4875
1178.71056	14224.9875
1182.31434	15035.3875
1185.91565	15424.2875
1189.51451	15497.6875
1193.11091	15465.6875
1196.70485	15208.6875
1200.29634	14878.0875
1203.88538	14438.9875
1207.47197	13929.1875
1211.05612	13432.2875
1214.63782	12988.3875
1218.21708	12694.9875
1221.79391	12507.0875
1225.36829	12442.9875
1228.94024	12435.0875
1232.50976	12450.9875
1236.07685	12485.6875
1239.6415	12558.4875
1243.20374	12596.2875
1246.76355	12650.0875
1250.32093	12750.7875
1253.8759	12895.8875
1257.42845	13187.9875
1260.97859	13527.3875
1264.52631	13863.2875
1268.07163	14102.2875
1271.61453	14237.1875
1275.15503	14255.3875
1278.69312	14254.3875
1282.22882	14277.1875
1285.76211	14373.8875
1289.29301	14541.1875
1292.82151	14722.7875
1296.34761	14976.5875
1299.87133	15383.5875
1303.39266	16056.9875
1306.9116	16986.4875
1310.42815	18010.5875
1313.94233	18402.8875
1317.45412	18013.1875
1320.96354	17344.2875
1324.47058	16597.0875
1327.97525	15941.8875
1331.47754	15516.2875
1334.97747	15450.9875
1338.47502	15673.6875
1341.97022	16248.6875
1345.46305	17045.9875
1348.95352	18200.3875
1352.44163	19422.4875
1355.92738	20510.1875
1359.41078	21589.7875
1362.89183	22053.0875
1366.37053	20919.9875
1369.84688	18519.2875
1373.32088	16327.3875
1376.79254	15080.3875
1380.26186	14446.1875
1383.72883	14069.7875
1387.19347	13705.4875
1390.65578	13356.8875
1394.11575	13001.7875
1397.57339	12725.5875
1401.0287	12606.3875
1404.48168	12637.0875
1407.93234	12763.6875
1411.38068	13031.5875
1414.82669	13253.7875
1418.27039	13296.2875
1421.71177	13271.4875
1425.15083	13177.6875
1428.58758	13097.6875
1432.02203	13091.0875
1435.45416	13121.0875
1438.88399	13067.3875
1442.31151	12975.8875
1445.73673	12988.4875
1449.15965	12985.5875
1452.58027	12943.1875
1455.9986	12888.7875
1459.41463	12886.2875
1462.82837	12991.7875
1466.23982	13223.1875
1469.64898	13413.9875
1473.05586	13588.5875
1476.46045	13766.5875
1479.86276	13940.2875
1483.26279	14101.9875
1486.66054	14340.4875
1490.05602	14749.3875
1493.44922	15345.8875
1496.84016	16174.6875
1500.22882	17350.3875
1503.61521	18659.4875
1506.99934	19760.2875
1510.38121	20290.3875
1513.76081	19867.9875
1517.13816	18626.7875
1520.51324	17047.9875
1523.88607	15797.2875
1527.25665	14991.9875
1530.62498	14603.0875
1533.99105	14444.2875
1537.35488	14319.3875
1540.71647	14261.6875
1544.07581	14127.6875
1547.4329	13992.9875
1550.78776	13833.6875
1554.14038	13690.1875
1557.49077	13667.3875
1560.83892	13817.7875
1564.18484	14026.3875
1567.52853	14306.3875
1570.86999	14432.0875
1574.20922	14499.4875
1577.54624	14349.7875
1580.88103	13901.7875
1584.2136	13367.1875
1587.54395	13097.4875
1590.87208	13153.5875
1594.19801	13554.0875
1597.52172	14047.8875
1600.84321	14273.8875
1604.16251	14240.6875
1607.47959	14058.0875
1610.79447	13670.1875
1614.10715	13118.5875
1617.41763	12561.1875
1620.7259	12111.5875
1624.03199	11844.0875
1627.33587	11755.6875
1630.63757	11879.7875
1633.93707	12244.6875
1637.23439	12902.1875
1640.52951	13930.5875
1643.82246	15174.3875
1647.11321	16303.7875
1650.40179	16678.2875
1653.68819	15811.1875
1656.97241	14199.9875
1660.25446	12734.2875
1663.53433	11738.0875
1666.81203	11142.2875
1670.08756	10774.8875
1673.36092	10587.5875
1676.63211	10421.8875
1679.90115	10281.2875
1683.16801	10193.0875
1686.43272	10099.3875
1689.69527	10046.7875
1692.95567	10005.1875
1696.2139	9979.6875
1699.46999	9947.5875
1702.72392	9928.8875
1705.97571	9929.9875
1709.22535	9921.0875
1712.47284	9920.5875
1715.71819	9926.2875
1718.96139	9913.1875
1722.20246	9903.3875
1725.44139	9873.5875
1728.67818	9819.8875
1731.91284	9780.9875
1735.14537	9729.1875
1738.37576	9702.2875
1741.60403	9645.1875
1744.83017	9628.2875
1748.05418	9612.5875
1751.27607	9593.5875
1754.49584	9579.8875
1757.71349	9555.6875
1760.92903	9564.6875
1764.14244	9514.7875
1767.35375	9512.4875
1770.56294	9502.3875
1773.77002	9479.9875
1776.97499	9456.6875
1780.17785	9411.0875
1783.37861	9382.5875
1786.57727	9373.2875
1789.77382	9390.1875
1792.96828	9367.9875
1796.16064	9349.8875
1799.3509	9344.8875
1802.53907	9322.5875
1805.72514	9308.2875
1808.90913	9264.9875
1812.09102	9259.5875
1815.27083	9217.0875
1818.44856	9198.9875
1821.6242	9182.8875
1824.79776	9160.8875
1827.96924	9146.8875
1831.13864	9145.6875
1834.30597	9124.6875
1837.47122	9105.8875
1840.6344	9061.3875
1843.7955	9055.6875
1846.95454	9078.1875
1850.11151	9077.9875
1853.26642	9081.8875
1856.41926	9069.1875
1859.57004	9067.9875
1862.71876	9070.8875
1865.86542	9051.3875
1869.01003	9050.3875
1872.15258	9027.2875
1875.29308	8995.7875
1878.43152	9010.1875
1881.56792	8981.2875
1884.70227	8970.5875
1887.83457	8927.8875
1890.96482	8924.8875
1894.09304	8878.8875
1897.21921	8908.4875
1900.34335	8868.6875
1903.46544	8864.0875
1906.58551	8867.1875
1909.70353	8848.7875
1912.81953	8826.5875
1915.93349	8835.8875
1919.04543	8795.4875
1922.15534	8772.9875
1925.26322	8799.2875
1928.36908	8733.3875
1931.47292	8713.3875
1934.57473	8710.7875
1937.67453	8708.1875
1940.77232	8665.8875
1943.86808	8648.4875
1946.96184	8610.9875
1950.05358	8597.0875
1953.14331	8594.7875
1956.23103	8564.0875
1959.31675	8511.3875
1962.40046	8516.7875
1965.48217	8477.1875
1968.56188	8430.1875
1971.63959	8417.4875
1974.7153	8400.6875
1977.78901	8382.4875
1980.86073	8359.6875
1983.93046	8324.9875
1986.99819	8279.7875
1990.06394	8269.1875
1993.1277	8237.6875
1996.18947	8197.1875
1999.24925	8141.4875
2002.30706	8124.6875
2005.36288	8118.7875
2008.41672	8063.8875
2011.46859	8062.1875
2014.51848	8034.9875
2017.56639	8034.6875
2020.61233	7981.4875
2023.6563	7961.3875
2026.6983	7946.3875
2029.73833	7914.4875
2032.7764	7873.9875
2035.8125	7881.3875
2038.84664	7835.8875
2041.87881	7835.1875
2044.90903	7828.5875
2047.93729	7818.6875
2050.96359	7783.6875
2053.98794	7790.1875
2057.01034	7792.4875
2060.03078	7766.2875
2063.04927	7762.7875
2066.06582	7737.6875
2069.08042	7722.2875
2072.09307	7720.7875
2075.10378	7725.4875
2078.11255	7705.3875
2081.11938	7687.6875
2084.12426	7654.1875
2087.12722	7657.7875
2090.12824	7677.7875
2093.12732	7676.9875
2096.12447	7682.7875
2099.11969	7667.1875
2102.11299	7686.7875
2105.10435	7688.6875
2108.09379	7677.8875
2111.08131	7681.7875
2114.0669	7662.0875
2117.05057	7696.0875
2120.03233	7689.1875
2123.01216	7698.1875
2125.99008	7682.0875
2128.96609	7674.3875
2131.94018	7697.6875
2134.91236	7692.7875
2137.88263	7680.5875
2140.851	7689.2875
2143.81746	7695.6875
2146.78201	7686.3875
2149.74466	7691.7875
2152.7054	7684.3875
2155.66425	7688.4875
2158.6212	7679.0875
2161.57625	7634.5875
2164.52941	7666.2875
2167.48067	7646.3875
2170.43004	7651.7875
2173.37752	7621.8875
2176.32311	7618.5875
2179.26681	7638.0875
2182.20863	7641.3875
2185.14856	7637.8875
2188.08661	7623.0875
2191.02278	7620.0875
2193.95707	7626.1875
2196.88948	7603.3875
2199.82001	7613.5875
2202.74867	7602.3875
2205.67545	7588.0875
2208.60037	7584.3875
2211.52341	7568.3875
2214.44458	7555.3875
2217.36388	7520.4875
2220.28132	7495.1875
2223.1969	7476.0875
2226.11061	7466.0875
2229.02246	7420.3875
2231.93245	7437.1875
2234.84058	7402.3875
2237.74686	7397.8875
2240.65128	7377.4875
2243.55385	7384.0875
2246.45456	7383.3875
2249.35343	7334.7875
2252.25044	7353.3875
2255.14561	7356.0875
2258.03893	7347.3875
2260.93041	7336.0875
2263.82004	7309.1875
2266.70783	7298.1875
2269.59378	7267.7875
2272.4779	7250.2875
2275.36017	7218.0875
2278.24061	7208.5875
2281.11922	7193.8875
2283.996	7176.8875
2286.87094	7159.2875
2289.74405	7151.6875
2292.61534	7131.5875
2295.4848	7110.3875
2298.35243	7112.5875
2301.21824	7096.4875
2304.08223	7093.7875
2306.94439	7082.5875
2309.80474	7077.3875
2312.66327	7059.2875
2315.51999	7064.0875
2318.37489	7060.6875
2321.22797	7063.0875
2324.07925	7023.4875
2326.92871	7014.7875
2329.77637	6993.0875
2332.62222	6980.4875
2335.46626	6966.8875
2338.3085	6952.3875
2341.14893	6963.4875
2343.98756	6964.0875
2346.8244	6961.4875
2349.65943	6958.2875
2352.49267	6922.1875
2355.32411	6929.0875
2358.15376	6909.5875
2360.98161	6910.0875
2363.80768	6924.7875
2366.63195	6906.2875
2369.45444	6890.4875
2372.27514	6894.6875
2375.09405	6868.9875
2377.91118	6874.2875
2380.72652	6851.6875
2383.54009	6820.5875
2386.35187	6829.3875
2389.16188	6790.3875
2391.97011	6801.3875
2394.77657	6745.7875
2397.58125	6740.6875
2400.38416	6756.0875
2403.18529	6735.7875
2405.98466	6737.4875
2408.78226	6690.5875
2411.57809	6678.8875
2414.37216	6669.9875
2417.16446	6679.0875
2419.955	6668.0875
2422.74378	6646.5875
2425.5308	6638.7875
2428.31606	6649.0875
2431.09956	6634.3875
2433.88131	6619.8875
2436.6613	6611.8875
2439.43954	6610.3875
2442.21603	6607.0875
2444.99077	6602.5875
2447.76377	6593.2875
2450.53501	6585.6875
2453.30451	6587.2875
2456.07226	6571.8875
2458.83827	6568.5875
2461.60254	6534.7875
2464.36507	6547.9875
2467.12586	6508.1875
2469.88492	6508.6875
2472.64224	6507.0875
2475.39782	6496.6875
2478.15167	6508.2875
2480.90379	6492.0875
2483.65417	6455.1875
2486.40283	6474.5875
2489.14976	6485.9875
2491.89497	6481.1875
2494.63845	6471.3875
2497.3802	6467.9875
2500.12024	6439.0875
2502.85855	6452.4875
2505.59514	6444.8875
2508.33002	6431.0875
2511.06318	6413.4875
2513.79462	6390.3875
2516.52435	6386.7875
2519.25237	6361.4875
2521.97867	6370.5875
2524.70327	6369.3875
2527.42616	6329.3875
2530.14734	6323.0875
2532.86681	6310.5875
2535.58458	6331.9875
2538.30065	6314.2875
2541.01501	6313.8875
2543.72768	6300.1875
2546.43864	6302.4875
2549.14791	6280.6875
2551.85548	6273.8875
2554.56136	6263.1875
2557.26554	6255.0875
2559.96803	6235.1875
2562.66883	6219.8875
2565.36794	6201.0875
2568.06536	6167.7875
2570.7611	6164.0875
2573.45514	6139.4875
2576.14751	6135.0875
2578.83819	6141.3875
2581.52719	6117.6875
2584.21451	6121.3875
2586.90015	6118.9875
2589.58411	6080.0875
2592.2664	6072.6875
2594.94701	6061.6875
2597.62594	6058.5875
2600.30321	6053.5875
2602.9788	6045.5875
2605.65273	6040.0875
2608.32498	6022.8875
2610.99557	6013.9875
2613.66449	6007.6875
2616.33175	5990.7875
2618.99734	6004.7875
2621.66128	5988.2875
2624.32355	5950.9875
2626.98416	5955.9875
2629.64311	5945.8875
2632.30041	5926.8875
2634.95605	5920.4875
2637.61004	5920.3875
2640.26238	5911.4875
2642.91306	5908.1875
2645.56209	5895.2875
2648.20948	5892.8875
2650.85521	5869.3875
2653.4993	5874.2875
2656.14175	5863.7875
2658.78255	5866.9875
2661.42171	5862.0875
2664.05923	5862.2875
2666.6951	5876.1875
2669.32934	5897.4875
2671.96194	5862.5875
2674.59291	5888.5875
2677.22224	5860.4875
2679.84993	5870.8875
2682.476	5870.8875
2685.10043	5863.1875
2687.72324	5870.1875
2690.34441	5851.9875
2692.96396	5849.9875
2695.58188	5863.8875
2698.19818	5858.3875
2700.81285	5835.4875
2703.4259	5829.1875
2706.03733	5824.5875
2708.64714	5806.7875
2711.25533	5812.0875
2713.86191	5816.0875
2716.46687	5815.8875
2719.07021	5809.5875
2721.67194	5818.2875
2724.27206	5821.0875
2726.87057	5801.8875
2729.46747	5810.7875
2732.06276	5793.5875
2734.65644	5796.7875
2737.24852	5798.7875
2739.83899	5782.1875
2742.42786	5777.7875
2745.01513	5744.2875
2747.60079	5745.6875
2750.18486	5717.2875
2752.76733	5727.6875
2755.3482	5728.1875
2757.92747	5706.0875
2760.50515	5694.9875
2763.08123	5694.8875
2765.65573	5674.1875
2768.22863	5666.1875
2770.79994	5663.1875
2773.36967	5648.1875
2775.9378	5634.3875
2778.50435	5635.6875
2781.06932	5631.6875
2783.6327	5642.6875
2786.1945	5631.4875
2788.75471	5616.4875
2791.31335	5600.3875
2793.87041	5587.8875
2796.42589	5559.8875
2798.97979	5568.9875
2801.53212	5545.9875
2804.08288	5521.6875
2806.63206	5514.8875
2809.17967	5509.1875
2811.72571	5498.8875
2814.27018	5480.1875
2816.81308	5472.7875
2819.35442	5456.5875
2821.89419	5445.5875
2824.43239	5447.2875
2826.96904	5437.8875
2829.50412	5429.0875
2832.03763	5388.9875
2834.56959	5400.7875
2837.1	5395.8875
2839.62884	5372.7875
2842.15613	5362.1875
2844.68186	5378.1875
2847.20604	5359.1875
2849.72867	5353.7875
2852.24974	5341.6875
2854.76927	5321.4875
2857.28724	5309.4875
2859.80367	5313.4875
2862.31855	5286.2875
2864.83189	5313.1875
2867.34368	5298.5875
2869.85393	5293.1875
2872.36264	5277.0875
2874.8698	5266.1875
2877.37543	5248.4875
2879.87952	5263.8875
2882.38207	5261.0875
2884.88308	5232.5875
2887.38256	5234.7875
2889.88051	5242.2875
2892.37692	5229.3875
2894.8718	5219.3875
2897.36515	5230.6875
2899.85698	5219.6875
2902.34727	5201.3875
2904.83604	5219.3875
2907.32328	5223.8875
2909.809	5218.9875
2912.29319	5222.2875
2914.77587	5233.5875
2917.25702	5233.9875
2919.73665	5238.5875
2922.21476	5225.3875
2924.69136	5214.9875
2927.16644	5213.3875
2929.64	5186.3875
2932.11205	5187.7875
2934.58258	5144.0875
2937.05161	5154.9875
2939.51912	5173.8875
2941.98513	5167.2875
2944.44962	5150.7875
2946.91261	5113.9875
2949.37409	5133.2875
2951.83407	5127.2875
2954.29254	5125.2875
2956.74951	5125.5875
2959.20498	5116.6875
2961.65895	5120.1875
2964.11142	5120.6875
2966.56239	5101.5875
2969.01186	5105.5875
2971.45984	5093.9875
2973.90632	5085.4875
2976.35131	5079.1875
2978.7948	5079.6875
2981.23681	5065.2875
2983.67732	5054.8875
2986.11635	5039.4875
2988.55388	5024.3875
2990.98993	4995.8875
2993.4245	4999.2875
2995.85758	4984.7875
2998.28917	4978.7875
3000.71928	4956.3875
3003.14791	4935.6875
3005.57506	4934.3875
3008.00073	4918.0875
3010.42493	4910.0875
3012.84764	4895.2875
3015.26888	4886.6875
3017.68865	4880.3875
3020.10694	4871.2875
3022.52376	4850.1875
3024.9391	4838.8875
3027.35298	4810.0875
3029.76539	4807.8875
3032.17632	4811.2875
3034.5858	4820.4875
3036.9938	4781.4875
3039.40034	4770.4875
3041.80542	4758.0875
3044.20903	4754.5875
3046.61118	4754.4875
3049.01187	4727.1875
3051.4111	4719.7875
3053.80888	4717.7875
3056.20519	4692.8875
3058.60005	4681.4875
3060.99345	4673.2875
3063.3854	4660.9875
3065.7759	4649.5875
3068.16494	4636.4875
3070.55254	4622.0875
3072.93868	4591.3875
3075.32338	4591.1875
3077.70662	4592.4875
3080.08842	4565.6875
3082.46878	4565.9875
3084.84769	4564.6875
3087.22515	4532.2875
3089.60118	4549.8875
3091.97576	4525.9875
3094.3489	4521.7875
3096.72061	4503.2875
3099.09087	4508.2875
3101.4597	4508.1875
3103.82709	4523.9875
3106.19305	4500.6875
3108.55757	4510.5875
3110.92066	4479.9875
3113.28232	4486.3875
3115.64255	4472.0875
3118.00134	4455.2875
3120.35871	4433.5875
3122.71466	4443.7875
3125.06917	4438.1875
3127.42226	4402.9875
3129.77393	4408.0875
3132.12417	4391.7875
3134.47299	4390.7875
3136.82039	4372.0875
3139.16636	4380.8875
3141.51092	4390.4875
3143.85406	4377.9875
3146.19579	4377.8875
3148.53609	4386.7875
3150.87499	4375.5875
3153.21246	4352.5875
3155.54853	4367.8875
3157.88318	4354.1875
3160.21642	4333.2875
3162.54826	4358.2875
3164.87868	4332.7875
3167.2077	4328.4875
3169.5353	4322.7875
3171.86151	4312.9875
3174.18631	4290.2875
3176.5097	4307.4875
3178.83169	4284.7875
3181.15228	4263.9875
3183.47147	4269.6875
3185.78926	4250.9875
3188.10565	4241.8875
3190.42065	4235.4875
3192.73424	4229.3875
3195.04645	4216.9875
3197.35725	4225.2875
3199.66667	4218.6875
3201.97469	4204.1875
3204.28132	4204.5875
3206.58656	4215.6875
3208.8904	4215.0875
3211.19287	4216.2875
3213.49394	4201.8875
3215.79363	4203.0875
3218.09193	4208.0875
3220.38884	4191.3875
3222.68438	4198.9875
3224.97853	4185.9875
3227.2713	4184.4875
3229.56269	4165.5875
3231.8527	4172.4875
3234.14133	4150.8875
3236.42858	4143.6875
3238.71446	4131.3875
3240.99896	4126.6875
3243.28209	4118.7875
3245.56384	4102.7875
3247.84423	4091.3875
3250.12324	4085.8875
3252.40088	4090.0875
3254.67715	4069.3875
3256.95205	4074.2875
3259.22558	4063.7875
3261.49775	4051.9875
3263.76855	4054.5875
3266.03799	4056.4875
3268.30606	4057.2875
3270.57277	4053.8875
3272.83812	4052.9875
3275.10211	4027.6875
3277.36474	4016.5875
3279.62601	4007.8875
3281.88593	3998.5875
3284.14448	3988.6875
3286.40168	4000.9875
3288.65753	3972.2875
3290.91202	3993.4875
3293.16516	3965.3875
3295.41695	3972.3875
3297.66738	3946.7875
3299.91647	3935.0875
3302.16421	3896.0875
3304.4106	3888.4875
3306.65564	3866.7875
3308.89933	3826.0875
3311.14169	3779.1875
3313.38269	3745.7875
3315.62236	3743.7875
3317.86068	3720.4875
3320.09766	3684.4875
3322.3333	3656.2875
3324.5676	3616.9875
3326.80056	3570.1875
3329.03219	3541.6875
3331.26248	0.1875
3333.49143	-0.6125
3335.71905	0.5875
