Data from AgNPs_UA_20uM_CRN_500uM_SU_RamanShift__0__13-36-30-291.txt Node

Date: Thu Aug 04 13:36:30 BST 2022
User: TCL
Spectrometer: QEP01345
Trigger mode: 4
Integration Time (sec): 1.000000E0
Scans to average: 10
Electric dark correction enabled: true
Nonlinearity correction enabled: false
Boxcar width: 0
XAxis mode: Raman Shifts
Number of Pixels in Spectrum: 1044
>>>>>Begin Spectral Data<<<<<
46.04893	-1.6125
50.45542	0.7875
54.85868	0.3875
59.25871	0.1875
63.6555	17.2875
68.04907	15.5875
72.43941	18.8875
76.82654	18.3875
81.21044	18.2875
85.59113	19.0875
89.96862	19.9875
94.34289	19.1875
98.71396	21.7875
103.08183	22.7875
107.4465	21.5875
111.80798	24.3875
116.16626	25.3875
120.52136	26.1875
124.87327	26.8875
129.222	31.3875
133.56755	29.0875
137.90993	33.0875
142.24913	38.9875
146.58517	40.4875
150.91804	51.3875
155.24774	59.3875
159.57429	75.7875
163.89768	101.5875
168.21792	131.6875
172.53501	186.1875
176.84895	258.0875
181.15975	370.8875
185.46741	516.0875
189.77193	715.2875
194.07331	968.1875
198.37157	1249.3875
202.6667	1554.0875
206.9587	1852.0875
211.24758	2160.2875
215.53334	2460.7875
219.81599	2814.2875
224.09553	3181.8875
228.37195	3608.8875
232.64527	4058.0875
236.91549	4481.9875
241.18261	4887.8875
245.44663	5190.1875
249.70755	5398.0875
253.96539	5591.8875
258.22014	5743.9875
262.4718	5873.9875
266.72039	5958.4875
270.96589	5999.9875
275.20832	5949.6875
279.44768	5855.9875
283.68397	5749.1875
287.91719	5685.1875
292.14735	5715.6875
296.37445	5839.1875
300.59849	6074.9875
304.81948	6420.0875
309.03742	6681.6875
313.25231	6842.4875
317.46415	6760.2875
321.67296	6427.0875
325.87872	6070.9875
330.08145	5891.9875
334.28114	5878.6875
338.47781	5951.3875
342.67145	6094.5875
346.86207	6299.5875
351.04966	6597.9875
355.23424	6893.8875
359.4158	7090.9875
363.59435	7154.2875
367.76989	7174.1875
371.94243	7129.8875
376.11196	7072.1875
380.27849	7020.3875
384.44203	6985.4875
388.60257	6968.1875
392.76012	7028.0875
396.91468	7114.9875
401.06626	7265.3875
405.21485	7301.2875
409.36047	7131.5875
413.50311	6851.3875
417.64277	6585.7875
421.77947	6428.4875
425.9132	6367.4875
430.04396	6372.4875
434.17176	6403.0875
438.2966	6496.0875
442.41849	6619.8875
446.53742	6799.7875
450.6534	6927.2875
454.76644	6947.9875
458.87653	6972.3875
462.98368	6931.7875
467.08789	6875.2875
471.18916	6802.4875
475.2875	6670.9875
479.38291	6537.8875
483.4754	6457.2875
487.56496	6382.4875
491.6516	6350.9875
495.73531	6345.7875
499.81612	6377.1875
503.89401	6425.7875
507.96899	6507.1875
512.04106	6571.5875
516.11023	6652.8875
520.1765	6708.2875
524.23987	6735.2875
528.30034	6729.4875
532.35792	6699.9875
536.41261	6645.6875
540.46441	6524.0875
544.51333	6486.2875
548.55936	6541.0875
552.60252	6660.2875
556.64279	6755.2875
560.6802	6848.8875
564.71473	6933.0875
568.7464	7071.3875
572.7752	7055.7875
576.80114	6833.2875
580.82422	6643.4875
584.84444	6569.9875
588.86181	6536.7875
592.87633	6586.3875
596.888	6700.7875
600.89682	7059.4875
604.9028	7988.2875
608.90594	9994.7875
612.90624	12098.6875
616.90371	11113.7875
620.89834	8260.2875
624.89015	7023.2875
628.87913	6866.4875
632.86528	7033.6875
636.84862	7157.8875
640.82913	7049.1875
644.80683	6814.0875
648.78172	6629.8875
652.75379	6639.2875
656.72306	6838.5875
660.68952	7088.5875
664.65319	6976.0875
668.61405	6721.5875
672.57211	6711.8875
676.52738	6688.0875
680.47986	6621.7875
684.42955	6501.9875
688.37646	6466.3875
692.32058	6512.1875
696.26192	6591.5875
700.20048	6714.4875
704.13626	6768.6875
708.06928	6726.1875
711.99952	6633.6875
715.927	6655.5875
719.85171	6677.5875
723.77365	6689.5875
727.69284	6664.9875
731.60928	6595.4875
735.52295	6595.8875
739.43388	6606.3875
743.34206	6658.4875
747.24749	6674.9875
751.15017	6663.9875
755.05012	6752.0875
758.94733	7065.3875
762.8418	7834.5875
766.73354	9018.1875
770.62254	9959.9875
774.50882	10100.9875
778.39237	9583.8875
782.27321	8627.2875
786.15132	7696.2875
790.02671	7075.0875
793.89938	6808.2875
797.76935	6665.6875
801.6366	6612.0875
805.50115	6575.7875
809.36299	6534.9875
813.22213	6522.0875
817.07857	6518.5875
820.93231	6524.2875
824.78336	6525.2875
828.63172	6583.4875
832.47738	6573.0875
836.32036	6538.3875
840.16066	6506.3875
843.99827	6524.0875
847.8332	6521.3875
851.66546	6544.2875
855.49504	6574.9875
859.32195	6556.6875
863.1462	6577.7875
866.96777	6578.3875
870.78668	6552.4875
874.60293	6598.6875
878.41652	6625.9875
882.22745	6686.4875
886.03573	6719.4875
889.84136	6714.3875
893.64433	6686.4875
897.44466	6663.4875
901.24235	6669.1875
905.0374	6635.7875
908.8298	6586.3875
912.61957	6567.1875
916.40671	6570.4875
920.19121	6620.1875
923.97308	6657.5875
927.75233	6752.3875
931.52895	6815.3875
935.30295	6762.0875
939.07433	6610.8875
942.84309	6485.8875
946.60924	6459.8875
950.37278	6439.5875
954.13371	6434.7875
957.89203	6444.4875
961.64774	6444.9875
965.40086	6424.5875
969.15137	6408.6875
972.89929	6413.4875
976.64461	6419.3875
980.38733	6428.0875
984.12747	6447.3875
987.86502	6460.8875
991.59999	6542.5875
995.33237	6611.8875
999.06217	6715.6875
1002.78939	6858.4875
1006.51404	7055.0875
1010.23611	7199.3875
1013.95561	7248.3875
1017.67255	7267.8875
1021.38692	7180.9875
1025.09872	7051.9875
1028.80796	6925.6875
1032.51465	6893.9875
1036.21877	6925.7875
1039.92035	6952.2875
1043.61937	7008.2875
1047.31584	7035.4875
1051.00976	7018.7875
1054.70114	7012.8875
1058.38998	6985.7875
1062.07627	7016.2875
1065.76003	7107.3875
1069.44126	7226.0875
1073.11995	7404.6875
1076.79611	7616.5875
1080.46974	7778.2875
1084.14085	7884.8875
1087.80943	8013.7875
1091.47549	8116.1875
1095.13903	8156.1875
1098.80005	8045.2875
1102.45857	7828.0875
1106.11456	7643.3875
1109.76805	7516.3875
1113.41903	7536.5875
1117.06751	7660.4875
1120.71348	7892.2875
1124.35696	8207.7875
1127.99793	8413.9875
1131.63641	8291.3875
1135.2724	7976.4875
1138.90589	7732.2875
1142.5369	7662.2875
1146.16542	7665.9875
1149.79145	7636.1875
1153.415	7497.5875
1157.03607	7385.5875
1160.65467	7398.7875
1164.27079	7523.2875
1167.88443	7771.3875
1171.49561	8138.9875
1175.10432	8769.7875
1178.71056	9655.9875
1182.31434	10372.0875
1185.91565	10597.5875
1189.51451	10464.5875
1193.11091	10209.1875
1196.70485	9952.5875
1200.29634	9781.0875
1203.88538	9530.1875
1207.47197	9219.9875
1211.05612	8943.2875
1214.63782	8734.7875
1218.21708	8510.2875
1221.79391	8233.3875
1225.36829	8053.2875
1228.94024	7987.5875
1232.50976	7929.6875
1236.07685	7926.2875
1239.6415	7924.7875
1243.20374	7983.2875
1246.76355	8036.5875
1250.32093	8208.7875
1253.8759	8482.3875
1257.42845	8779.6875
1260.97859	9083.7875
1264.52631	9311.6875
1268.07163	9454.5875
1271.61453	9527.9875
1275.15503	9558.5875
1278.69312	9590.8875
1282.22882	9565.4875
1285.76211	9647.2875
1289.29301	9843.8875
1292.82151	10065.7875
1296.34761	10327.0875
1299.87133	10709.2875
1303.39266	11381.2875
1306.9116	12348.7875
1310.42815	13337.9875
1313.94233	13648.4875
1317.45412	13030.2875
1320.96354	12173.8875
1324.47058	11341.5875
1327.97525	10577.0875
1331.47754	10156.8875
1334.97747	10069.4875
1338.47502	10277.2875
1341.97022	10718.2875
1345.46305	11477.8875
1348.95352	12468.4875
1352.44163	13572.8875
1355.92738	14706.6875
1359.41078	16059.3875
1362.89183	17206.4875
1366.37053	16360.7875
1369.84688	13836.2875
1373.32088	11510.8875
1376.79254	10216.9875
1380.26186	9605.9875
1383.72883	9278.5875
1387.19347	8962.2875
1390.65578	8697.6875
1394.11575	8462.0875
1397.57339	8282.2875
1401.0287	8149.2875
1404.48168	8065.8875
1407.93234	8067.8875
1411.38068	8169.5875
1414.82669	8246.6875
1418.27039	8268.4875
1421.71177	8225.6875
1425.15083	8137.9875
1428.58758	8087.0875
1432.02203	8160.7875
1435.45416	8262.8875
1438.88399	8378.4875
1442.31151	8436.7875
1445.73673	8536.2875
1449.15965	8597.2875
1452.58027	8572.5875
1455.9986	8514.0875
1459.41463	8482.8875
1462.82837	8617.3875
1466.23982	8763.1875
1469.64898	8959.8875
1473.05586	9087.5875
1476.46045	9122.2875
1479.86276	9164.2875
1483.26279	9256.8875
1486.66054	9447.6875
1490.05602	9740.5875
1493.44922	10221.8875
1496.84016	10989.3875
1500.22882	12220.9875
1503.61521	13775.8875
1506.99934	15309.0875
1510.38121	16148.7875
1513.76081	15895.5875
1517.13816	14463.7875
1520.51324	12740.2875
1523.88607	11339.0875
1527.25665	10518.0875
1530.62498	10093.6875
1533.99105	9874.3875
1537.35488	9796.2875
1540.71647	9750.9875
1544.07581	9726.1875
1547.4329	9687.3875
1550.78776	9582.8875
1554.14038	9399.1875
1557.49077	9292.8875
1560.83892	9292.5875
1564.18484	9502.1875
1567.52853	9801.9875
1570.86999	10062.6875
1574.20922	10159.6875
1577.54624	9999.8875
1580.88103	9498.1875
1584.2136	8919.9875
1587.54395	8597.4875
1590.87208	8606.1875
1594.19801	8877.8875
1597.52172	9321.4875
1600.84321	9582.0875
1604.16251	9588.1875
1607.47959	9452.2875
1610.79447	9121.1875
1614.10715	8603.0875
1617.41763	8107.4875
1620.7259	7745.4875
1624.03199	7531.4875
1627.33587	7486.9875
1630.63757	7568.8875
1633.93707	7830.7875
1637.23439	8248.7875
1640.52951	8997.9875
1643.82246	10041.9875
1647.11321	11132.7875
1650.40179	11737.0875
1653.68819	11245.2875
1656.97241	9968.6875
1660.25446	8584.4875
1663.53433	7649.0875
1666.81203	7094.3875
1670.08756	6790.5875
1673.36092	6588.7875
1676.63211	6478.2875
1679.90115	6371.5875
1683.16801	6287.4875
1686.43272	6233.6875
1689.69527	6198.7875
1692.95567	6174.6875
1696.2139	6150.6875
1699.46999	6116.0875
1702.72392	6125.2875
1705.97571	6116.5875
1709.22535	6104.0875
1712.47284	6108.4875
1715.71819	6107.6875
1718.96139	6091.6875
1722.20246	6072.9875
1725.44139	6067.1875
1728.67818	6026.7875
1731.91284	5989.4875
1735.14537	5964.9875
1738.37576	5913.2875
1741.60403	5928.4875
1744.83017	5905.6875
1748.05418	5901.5875
1751.27607	5886.8875
1754.49584	5852.3875
1757.71349	5840.3875
1760.92903	5834.3875
1764.14244	5819.6875
1767.35375	5799.9875
1770.56294	5794.3875
1773.77002	5790.9875
1776.97499	5775.0875
1780.17785	5752.7875
1783.37861	5734.1875
1786.57727	5721.3875
1789.77382	5715.6875
1792.96828	5701.3875
1796.16064	5700.6875
1799.3509	5690.1875
1802.53907	5669.1875
1805.72514	5669.2875
1808.90913	5641.4875
1812.09102	5633.3875
1815.27083	5605.7875
1818.44856	5598.0875
1821.6242	5582.9875
1824.79776	5576.2875
1827.96924	5595.6875
1831.13864	5558.2875
1834.30597	5555.9875
1837.47122	5539.7875
1840.6344	5534.8875
1843.7955	5515.8875
1846.95454	5526.2875
1850.11151	5501.1875
1853.26642	5519.4875
1856.41926	5510.9875
1859.57004	5516.1875
1862.71876	5516.8875
1865.86542	5513.2875
1869.01003	5494.1875
1872.15258	5472.5875
1875.29308	5466.2875
1878.43152	5471.4875
1881.56792	5468.0875
1884.70227	5440.2875
1887.83457	5449.8875
1890.96482	5459.6875
1894.09304	5422.6875
1897.21921	5433.8875
1900.34335	5425.2875
1903.46544	5412.7875
1906.58551	5419.8875
1909.70353	5416.2875
1912.81953	5407.9875
1915.93349	5395.2875
1919.04543	5392.7875
1922.15534	5375.0875
1925.26322	5354.8875
1928.36908	5346.2875
1931.47292	5316.7875
1934.57473	5324.1875
1937.67453	5314.9875
1940.77232	5306.0875
1943.86808	5276.6875
1946.96184	5267.7875
1950.05358	5268.1875
1953.14331	5236.2875
1956.23103	5208.0875
1959.31675	5187.3875
1962.40046	5185.7875
1965.48217	5157.7875
1968.56188	5144.7875
1971.63959	5150.3875
1974.7153	5150.1875
1977.78901	5127.2875
1980.86073	5113.6875
1983.93046	5096.1875
1986.99819	5071.9875
1990.06394	5064.4875
1993.1277	5038.6875
1996.18947	5044.9875
1999.24925	5012.9875
2002.30706	4998.8875
2005.36288	4956.4875
2008.41672	4951.8875
2011.46859	4939.6875
2014.51848	4920.4875
2017.56639	4905.2875
2020.61233	4897.2875
2023.6563	4889.1875
2026.6983	4894.7875
2029.73833	4873.4875
2032.7764	4856.1875
2035.8125	4828.2875
2038.84664	4820.9875
2041.87881	4826.9875
2044.90903	4819.9875
2047.93729	4788.1875
2050.96359	4797.9875
2053.98794	4781.0875
2057.01034	4777.0875
2060.03078	4761.1875
2063.04927	4760.7875
2066.06582	4747.7875
2069.08042	4758.2875
2072.09307	4756.8875
2075.10378	4734.3875
2078.11255	4750.3875
2081.11938	4729.5875
2084.12426	4733.2875
2087.12722	4747.7875
2090.12824	4726.0875
2093.12732	4743.3875
2096.12447	4745.7875
2099.11969	4751.2875
2102.11299	4746.2875
2105.10435	4747.7875
2108.09379	4729.8875
2111.08131	4744.5875
2114.0669	4736.3875
2117.05057	4755.1875
2120.03233	4737.5875
2123.01216	4748.8875
2125.99008	4751.7875
2128.96609	4761.5875
2131.94018	4781.1875
2134.91236	4761.7875
2137.88263	4760.1875
2140.851	4771.5875
2143.81746	4763.1875
2146.78201	4759.7875
2149.74466	4754.1875
2152.7054	4743.4875
2155.66425	4748.9875
2158.6212	4755.6875
2161.57625	4772.9875
2164.52941	4747.1875
2167.48067	4744.2875
2170.43004	4734.2875
2173.37752	4730.2875
2176.32311	4740.4875
2179.26681	4743.3875
2182.20863	4751.0875
2185.14856	4735.0875
2188.08661	4740.6875
2191.02278	4723.8875
2193.95707	4712.9875
2196.88948	4728.4875
2199.82001	4723.8875
2202.74867	4719.1875
2205.67545	4721.6875
2208.60037	4716.8875
2211.52341	4698.2875
2214.44458	4692.2875
2217.36388	4679.6875
2220.28132	4651.0875
2223.1969	4644.2875
2226.11061	4632.6875
2229.02246	4629.0875
2231.93245	4623.1875
2234.84058	4605.1875
2237.74686	4605.5875
2240.65128	4613.3875
2243.55385	4595.6875
2246.45456	4606.7875
2249.35343	4588.9875
2252.25044	4581.5875
2255.14561	4594.5875
2258.03893	4591.9875
2260.93041	4580.4875
2263.82004	4561.9875
2266.70783	4558.1875
2269.59378	4544.0875
2272.4779	4533.9875
2275.36017	4527.5875
2278.24061	4504.4875
2281.11922	4498.5875
2283.996	4505.8875
2286.87094	4490.4875
2289.74405	4483.2875
2292.61534	4474.5875
2295.4848	4473.4875
2298.35243	4482.5875
2301.21824	4460.2875
2304.08223	4464.0875
2306.94439	4470.9875
2309.80474	4479.5875
2312.66327	4458.4875
2315.51999	4439.1875
2318.37489	4425.2875
2321.22797	4428.9875
2324.07925	4431.2875
2326.92871	4408.7875
2329.77637	4399.3875
2332.62222	4395.0875
2335.46626	4380.6875
2338.3085	4379.0875
2341.14893	4397.9875
2343.98756	4396.2875
2346.8244	4378.0875
2349.65943	4382.9875
2352.49267	4391.9875
2355.32411	4393.8875
2358.15376	4384.7875
2360.98161	4392.0875
2363.80768	4394.5875
2366.63195	4386.4875
2369.45444	4399.9875
2372.27514	4386.1875
2375.09405	4380.1875
2377.91118	4376.6875
2380.72652	4351.9875
2383.54009	4360.4875
2386.35187	4325.6875
2389.16188	4334.6875
2391.97011	4317.9875
2394.77657	4295.4875
2397.58125	4281.0875
2400.38416	4275.3875
2403.18529	4272.7875
2405.98466	4288.4875
2408.78226	4273.8875
2411.57809	4261.0875
2414.37216	4262.3875
2417.16446	4259.7875
2419.955	4256.4875
2422.74378	4246.8875
2425.5308	4235.2875
2428.31606	4243.0875
2431.09956	4232.6875
2433.88131	4231.6875
2436.6613	4237.9875
2439.43954	4225.5875
2442.21603	4238.5875
2444.99077	4223.2875
2447.76377	4227.2875
2450.53501	4223.6875
2453.30451	4229.7875
2456.07226	4216.2875
2458.83827	4203.7875
2461.60254	4194.3875
2464.36507	4193.7875
2467.12586	4198.8875
2469.88492	4217.4875
2472.64224	4204.7875
2475.39782	4201.4875
2478.15167	4204.8875
2480.90379	4184.5875
2483.65417	4185.0875
2486.40283	4209.4875
2489.14976	4219.7875
2491.89497	4209.6875
2494.63845	4202.4875
2497.3802	4210.2875
2500.12024	4205.2875
2502.85855	4172.5875
2505.59514	4167.6875
2508.33002	4149.0875
2511.06318	4134.9875
2513.79462	4117.2875
2516.52435	4116.3875
2519.25237	4110.7875
2521.97867	4103.6875
2524.70327	4115.1875
2527.42616	4105.0875
2530.14734	4110.0875
2532.86681	4096.5875
2535.58458	4092.5875
2538.30065	4096.5875
2541.01501	4097.6875
2543.72768	4097.2875
2546.43864	4096.4875
2549.14791	4095.3875
2551.85548	4100.2875
2554.56136	4098.8875
2557.26554	4085.6875
2559.96803	4084.5875
2562.66883	4071.5875
2565.36794	4049.4875
2568.06536	4041.4875
2570.7611	4033.0875
2573.45514	4009.9875
2576.14751	4017.4875
2578.83819	3993.0875
2581.52719	3982.1875
2584.21451	3971.9875
2586.90015	3962.4875
2589.58411	3961.5875
2592.2664	3956.3875
2594.94701	3959.0875
2597.62594	3963.2875
2600.30321	3954.2875
2602.9788	3937.9875
2605.65273	3952.5875
2608.32498	3938.2875
2610.99557	3938.0875
2613.66449	3923.4875
2616.33175	3938.3875
2618.99734	3909.1875
2621.66128	3924.0875
2624.32355	3924.7875
2626.98416	3906.3875
2629.64311	3898.3875
2632.30041	3885.2875
2634.95605	3877.4875
2637.61004	3873.4875
2640.26238	3866.1875
2642.91306	3850.2875
2645.56209	3845.6875
2648.20948	3852.4875
2650.85521	3852.8875
2653.4993	3851.2875
2656.14175	3841.3875
2658.78255	3852.5875
2661.42171	3855.2875
2664.05923	3858.7875
2666.6951	3884.5875
2669.32934	3872.7875
2671.96194	3857.4875
2674.59291	3855.6875
2677.22224	3866.1875
2679.84993	3868.2875
2682.476	3861.7875
2685.10043	3846.2875
2687.72324	3841.3875
2690.34441	3841.8875
2692.96396	3849.1875
2695.58188	3839.1875
2698.19818	3841.8875
2700.81285	3840.1875
2703.4259	3847.1875
2706.03733	3834.7875
2708.64714	3832.5875
2711.25533	3829.8875
2713.86191	3822.8875
2716.46687	3833.7875
2719.07021	3821.8875
2721.67194	3831.5875
2724.27206	3837.8875
2726.87057	3829.4875
2729.46747	3830.4875
2732.06276	3833.6875
2734.65644	3823.4875
2737.24852	3818.1875
2739.83899	3816.9875
2742.42786	3819.9875
2745.01513	3816.5875
2747.60079	3799.0875
2750.18486	3797.2875
2752.76733	3800.3875
2755.3482	3784.7875
2757.92747	3777.2875
2760.50515	3756.0875
2763.08123	3757.8875
2765.65573	3738.7875
2768.22863	3747.8875
2770.79994	3741.7875
2773.36967	3732.1875
2775.9378	3723.1875
2778.50435	3731.1875
2781.06932	3722.2875
2783.6327	3713.7875
2786.1945	3704.8875
2788.75471	3703.7875
2791.31335	3689.1875
2793.87041	3677.1875
2796.42589	3678.1875
2798.97979	3674.5875
2801.53212	3675.2875
2804.08288	3680.0875
2806.63206	3664.0875
2809.17967	3668.4875
2811.72571	3661.1875
2814.27018	3659.7875
2816.81308	3637.6875
2819.35442	3636.7875
2821.89419	3621.4875
2824.43239	3619.0875
2826.96904	3603.2875
2829.50412	3595.5875
2832.03763	3593.5875
2834.56959	3579.9875
2837.1	3575.2875
2839.62884	3563.1875
2842.15613	3562.1875
2844.68186	3566.4875
2847.20604	3569.2875
2849.72867	3552.1875
2852.24974	3541.5875
2854.76927	3539.9875
2857.28724	3524.9875
2859.80367	3509.3875
2862.31855	3524.3875
2864.83189	3527.2875
2867.34368	3525.3875
2869.85393	3527.3875
2872.36264	3530.0875
2874.8698	3504.1875
2877.37543	3509.6875
2879.87952	3507.1875
2882.38207	3493.7875
2884.88308	3503.0875
2887.38256	3490.0875
2889.88051	3489.4875
2892.37692	3488.7875
2894.8718	3475.5875
2897.36515	3484.7875
2899.85698	3484.6875
2902.34727	3464.1875
2904.83604	3462.9875
2907.32328	3476.3875
2909.809	3487.9875
2912.29319	3494.9875
2914.77587	3489.0875
2917.25702	3468.9875
2919.73665	3483.2875
2922.21476	3482.9875
2924.69136	3472.4875
2927.16644	3465.3875
2929.64	3460.7875
2932.11205	3454.8875
2934.58258	3445.5875
2937.05161	3440.6875
2939.51912	3431.3875
2941.98513	3430.9875
2944.44962	3426.0875
2946.91261	3411.1875
2949.37409	3437.8875
2951.83407	3436.0875
2954.29254	3430.9875
2956.74951	3404.8875
2959.20498	3403.1875
2961.65895	3396.9875
2964.11142	3393.5875
2966.56239	3392.6875
2969.01186	3398.7875
2971.45984	3403.1875
2973.90632	3394.1875
2976.35131	3367.9875
2978.7948	3361.1875
2981.23681	3371.6875
2983.67732	3360.6875
2986.11635	3353.9875
2988.55388	3356.1875
2990.98993	3349.2875
2993.4245	3358.1875
2995.85758	3345.6875
2998.28917	3334.9875
3000.71928	3309.6875
3003.14791	3307.4875
3005.57506	3308.7875
3008.00073	3295.6875
3010.42493	3287.2875
3012.84764	3267.0875
3015.26888	3261.6875
3017.68865	3255.3875
3020.10694	3245.9875
3022.52376	3252.2875
3024.9391	3250.9875
3027.35298	3224.0875
3029.76539	3208.8875
3032.17632	3209.7875
3034.5858	3212.5875
3036.9938	3207.3875
3039.40034	3191.9875
3041.80542	3180.5875
3044.20903	3170.2875
3046.61118	3172.8875
3049.01187	3154.9875
3051.4111	3172.5875
3053.80888	3154.9875
3056.20519	3144.8875
3058.60005	3129.7875
3060.99345	3135.8875
3063.3854	3136.0875
3065.7759	3126.1875
3068.16494	3130.1875
3070.55254	3109.5875
3072.93868	3113.2875
3075.32338	3092.5875
3077.70662	3074.2875
3080.08842	3065.8875
3082.46878	3058.7875
3084.84769	3042.7875
3087.22515	3048.3875
3089.60118	3055.1875
3091.97576	3053.1875
3094.3489	3039.9875
3096.72061	3039.3875
3099.09087	3032.9875
3101.4597	3043.9875
3103.82709	3026.4875
3106.19305	3017.1875
3108.55757	3020.8875
3110.92066	3008.1875
3113.28232	3008.0875
3115.64255	2994.0875
3118.00134	2996.7875
3120.35871	2970.7875
3122.71466	2989.5875
3125.06917	2983.8875
3127.42226	2973.5875
3129.77393	2947.5875
3132.12417	2952.1875
3134.47299	2949.5875
3136.82039	2939.1875
3139.16636	2947.4875
3141.51092	2941.1875
3143.85406	2942.2875
3146.19579	2946.7875
3148.53609	2934.5875
3150.87499	2941.1875
3153.21246	2932.2875
3155.54853	2944.5875
3157.88318	2949.4875
3160.21642	2945.9875
3162.54826	2943.7875
3164.87868	2924.4875
3167.2077	2915.7875
3169.5353	2908.0875
3171.86151	2911.9875
3174.18631	2906.0875
3176.5097	2901.7875
3178.83169	2896.1875
3181.15228	2883.3875
3183.47147	2890.3875
3185.78926	2892.3875
3188.10565	2870.5875
3190.42065	2868.8875
3192.73424	2854.8875
3195.04645	2848.7875
3197.35725	2841.1875
3199.66667	2830.5875
3201.97469	2837.5875
3204.28132	2845.1875
3206.58656	2839.3875
3208.8904	2844.1875
3211.19287	2848.3875
3213.49394	2840.4875
3215.79363	2848.4875
3218.09193	2835.7875
3220.38884	2841.0875
3222.68438	2830.5875
3224.97853	2827.0875
3227.2713	2823.0875
3229.56269	2835.0875
3231.8527	2821.9875
3234.14133	2809.8875
3236.42858	2798.0875
3238.71446	2805.9875
3240.99896	2773.1875
3243.28209	2793.3875
3245.56384	2786.6875
3247.84423	2773.7875
3250.12324	2772.0875
3252.40088	2759.0875
3254.67715	2767.9875
3256.95205	2759.4875
3259.22558	2747.2875
3261.49775	2758.9875
3263.76855	2759.9875
3266.03799	2759.4875
3268.30606	2756.6875
3270.57277	2753.7875
3272.83812	2751.2875
3275.10211	2731.7875
3277.36474	2721.5875
3279.62601	2723.0875
3281.88593	2717.2875
3284.14448	2717.6875
3286.40168	2722.9875
3288.65753	2713.3875
3290.91202	2711.4875
3293.16516	2693.0875
3295.41695	2695.9875
3297.66738	2678.6875
3299.91647	2670.2875
3302.16421	2650.1875
3304.4106	2649.2875
3306.65564	2622.6875
3308.89933	2601.2875
3311.14169	2574.0875
3313.38269	2569.5875
3315.62236	2542.4875
3317.86068	2527.9875
3320.09766	2506.9875
3322.3333	2484.8875
3324.5676	2469.4875
3326.80056	2429.3875
3329.03219	2411.3875
3331.26248	1.7875
3333.49143	-1.2125
3335.71905	-1.0125
