Data from AgNPs_UA_5uM_CRN_500uM_SU_RamanShift__190__12-01-03-177.txt Node

Date: Thu Aug 04 12:01:03 BST 2022
User: TCL
Spectrometer: QEP01345
Trigger mode: 4
Integration Time (sec): 1.000000E0
Scans to average: 10
Electric dark correction enabled: true
Nonlinearity correction enabled: false
Boxcar width: 0
XAxis mode: Raman Shifts
Number of Pixels in Spectrum: 1044
>>>>>Begin Spectral Data<<<<<
46.04893	-0.4125
50.45542	-0.0125
54.85868	-0.2125
59.25871	-1.0125
63.6555	-58.5125
68.04907	-39.0125
72.43941	-72.3125
76.82654	-59.2125
81.21044	-56.8125
85.59113	-48.8125
89.96862	-75.1125
94.34289	-54.8125
98.71396	-78.4125
103.08183	-58.1125
107.4465	-51.6125
111.80798	-56.7125
116.16626	-45.7125
120.52136	-74.7125
124.87327	-50.2125
129.222	-63.6125
133.56755	-51.4125
137.90993	-63.4125
142.24913	-52.8125
146.58517	-42.6125
150.91804	-40.4125
155.24774	-28.1125
159.57429	-7.2125
163.89768	-6.1125
168.21792	40.1875
172.53501	56.7875
176.84895	143.5875
181.15975	280.5875
185.46741	427.5875
189.77193	612.7875
194.07331	914.5875
198.37157	1195.2875
202.6667	1490.3875
206.9587	1798.0875
211.24758	2126.4875
215.53334	2441.1875
219.81599	2804.9875
224.09553	3237.8875
228.37195	3675.6875
232.64527	4132.5875
236.91549	4619.0875
241.18261	4962.9875
245.44663	5251.5875
249.70755	5441.2875
253.96539	5563.7875
258.22014	5683.9875
262.4718	5725.7875
266.72039	5783.4875
270.96589	5738.8875
275.20832	5653.1875
279.44768	5542.9875
283.68397	5427.4875
287.91719	5361.2875
292.14735	5402.4875
296.37445	5577.7875
300.59849	5856.6875
304.81948	6204.5875
309.03742	6587.9875
313.25231	6831.1875
317.46415	6788.7875
321.67296	6365.0875
325.87872	5964.7875
330.08145	5766.0875
334.28114	5717.5875
338.47781	5799.9875
342.67145	5947.0875
346.86207	6181.5875
351.04966	6553.8875
355.23424	6945.1875
359.4158	7216.9875
363.59435	7255.0875
367.76989	7187.6875
371.94243	7050.5875
376.11196	6931.8875
380.27849	6855.6875
384.44203	6775.0875
388.60257	6744.6875
392.76012	6774.8875
396.91468	6868.7875
401.06626	7036.0875
405.21485	7077.2875
409.36047	6893.4875
413.50311	6556.0875
417.64277	6276.7875
421.77947	6081.4875
425.9132	6007.5875
430.04396	5987.2875
434.17176	6026.4875
438.2966	6128.1875
442.41849	6198.5875
446.53742	6334.0875
450.6534	6441.6875
454.76644	6513.5875
458.87653	6538.2875
462.98368	6477.2875
467.08789	6417.7875
471.18916	6339.1875
475.2875	6216.8875
479.38291	6105.5875
483.4754	5992.2875
487.56496	5961.5875
491.6516	5928.4875
495.73531	5933.1875
499.81612	5957.3875
503.89401	6043.7875
507.96899	6111.6875
512.04106	6195.4875
516.11023	6284.3875
520.1765	6384.6875
524.23987	6420.9875
528.30034	6415.4875
532.35792	6315.4875
536.41261	6286.2875
540.46441	6184.0875
544.51333	6141.4875
548.55936	6176.1875
552.60252	6277.9875
556.64279	6419.6875
560.6802	6537.4875
564.71473	6679.0875
568.7464	6860.1875
572.7752	6840.7875
576.80114	6494.9875
580.82422	6285.8875
584.84444	6164.5875
588.86181	6147.7875
592.87633	6196.3875
596.888	6301.8875
600.89682	6686.3875
604.9028	7640.7875
608.90594	9766.3875
612.90624	12138.0875
616.90371	11286.3875
620.89834	8151.8875
624.89015	6836.5875
628.87913	6615.9875
632.86528	6766.9875
636.84862	6949.2875
640.82913	6811.5875
644.80683	6450.5875
648.78172	6268.6875
652.75379	6304.0875
656.72306	6529.9875
660.68952	6790.4875
664.65319	6704.7875
668.61405	6461.4875
672.57211	6393.1875
676.52738	6374.7875
680.47986	6304.0875
684.42955	6193.7875
688.37646	6155.2875
692.32058	6164.0875
696.26192	6231.1875
700.20048	6326.0875
704.13626	6372.1875
708.06928	6317.5875
711.99952	6286.5875
715.927	6261.7875
719.85171	6302.5875
723.77365	6360.9875
727.69284	6334.6875
731.60928	6302.2875
735.52295	6293.3875
739.43388	6329.5875
743.34206	6341.9875
747.24749	6355.0875
751.15017	6375.9875
755.05012	6450.3875
758.94733	6834.2875
762.8418	7673.6875
766.73354	9025.6875
770.62254	10043.1875
774.50882	10113.5875
778.39237	9617.8875
782.27321	8668.4875
786.15132	7623.0875
790.02671	6927.9875
793.89938	6534.2875
797.76935	6435.4875
801.6366	6332.8875
805.50115	6284.6875
809.36299	6291.5875
813.22213	6279.7875
817.07857	6298.0875
820.93231	6268.0875
824.78336	6300.6875
828.63172	6318.3875
832.47738	6325.6875
836.32036	6318.5875
840.16066	6290.1875
843.99827	6274.1875
847.8332	6268.5875
851.66546	6282.2875
855.49504	6282.6875
859.32195	6346.0875
863.1462	6306.3875
866.96777	6318.6875
870.78668	6275.7875
874.60293	6323.7875
878.41652	6352.4875
882.22745	6399.1875
886.03573	6441.9875
889.84136	6429.8875
893.64433	6438.5875
897.44466	6447.5875
901.24235	6418.1875
905.0374	6428.0875
908.8298	6354.8875
912.61957	6334.7875
916.40671	6271.2875
920.19121	6328.6875
923.97308	6435.2875
927.75233	6497.7875
931.52895	6540.5875
935.30295	6526.1875
939.07433	6363.7875
942.84309	6254.6875
946.60924	6229.2875
950.37278	6184.9875
954.13371	6170.5875
957.89203	6189.7875
961.64774	6199.8875
965.40086	6170.3875
969.15137	6134.0875
972.89929	6186.6875
976.64461	6173.1875
980.38733	6191.2875
984.12747	6196.0875
987.86502	6211.7875
991.59999	6229.5875
995.33237	6308.5875
999.06217	6383.1875
1002.78939	6474.7875
1006.51404	6584.7875
1010.23611	6714.1875
1013.95561	6765.7875
1017.67255	6791.0875
1021.38692	6739.8875
1025.09872	6685.7875
1028.80796	6571.3875
1032.51465	6594.0875
1036.21877	6585.5875
1039.92035	6626.3875
1043.61937	6657.0875
1047.31584	6703.4875
1051.00976	6751.9875
1054.70114	6763.1875
1058.38998	6741.6875
1062.07627	6745.8875
1065.76003	6773.9875
1069.44126	6866.7875
1073.11995	6936.8875
1076.79611	7071.5875
1080.46974	7209.6875
1084.14085	7382.2875
1087.80943	7527.5875
1091.47549	7550.1875
1095.13903	7481.9875
1098.80005	7357.7875
1102.45857	7259.8875
1106.11456	7211.1875
1109.76805	7142.5875
1113.41903	7285.1875
1117.06751	7471.6875
1120.71348	7697.0875
1124.35696	8089.8875
1127.99793	8383.3875
1131.63641	8223.3875
1135.2724	7800.5875
1138.90589	7506.2875
1142.5369	7311.6875
1146.16542	7199.9875
1149.79145	7076.7875
1153.415	7041.1875
1157.03607	7031.4875
1160.65467	7121.9875
1164.27079	7351.2875
1167.88443	7582.3875
1171.49561	7988.3875
1175.10432	8630.2875
1178.71056	9526.8875
1182.31434	10332.6875
1185.91565	10566.5875
1189.51451	10433.6875
1193.11091	10167.9875
1196.70485	9941.3875
1200.29634	9709.3875
1203.88538	9403.3875
1207.47197	8982.8875
1211.05612	8509.0875
1214.63782	8112.1875
1218.21708	7834.2875
1221.79391	7710.7875
1225.36829	7631.2875
1228.94024	7603.1875
1232.50976	7615.8875
1236.07685	7654.1875
1239.6415	7688.8875
1243.20374	7687.7875
1246.76355	7738.1875
1250.32093	7806.4875
1253.8759	7866.8875
1257.42845	8055.5875
1260.97859	8269.7875
1264.52631	8512.9875
1268.07163	8663.8875
1271.61453	8775.4875
1275.15503	8835.2875
1278.69312	8853.9875
1282.22882	8903.0875
1285.76211	9108.9875
1289.29301	9348.1875
1292.82151	9648.2875
1296.34761	9868.6875
1299.87133	10284.3875
1303.39266	10974.1875
1306.9116	12117.6875
1310.42815	13366.9875
1313.94233	13811.7875
1317.45412	12995.6875
1320.96354	11845.7875
1324.47058	10802.1875
1327.97525	10070.9875
1331.47754	9650.5875
1334.97747	9573.0875
1338.47502	9670.9875
1341.97022	10029.8875
1345.46305	10775.4875
1348.95352	11859.4875
1352.44163	13114.5875
1355.92738	14507.4875
1359.41078	16168.5875
1362.89183	17686.4875
1366.37053	17037.7875
1369.84688	14154.9875
1373.32088	11460.2875
1376.79254	10088.7875
1380.26186	9432.5875
1383.72883	8998.4875
1387.19347	8607.7875
1390.65578	8253.5875
1394.11575	8017.9875
1397.57339	7834.2875
1401.0287	7740.6875
1404.48168	7692.7875
1407.93234	7712.4875
1411.38068	7742.2875
1414.82669	7825.5875
1418.27039	7903.1875
1421.71177	7914.9875
1425.15083	7796.0875
1428.58758	7719.7875
1432.02203	7754.4875
1435.45416	7832.5875
1438.88399	7829.0875
1442.31151	7824.8875
1445.73673	7888.2875
1449.15965	7932.4875
1452.58027	7975.3875
1455.9986	7955.6875
1459.41463	7978.0875
1462.82837	8066.7875
1466.23982	8249.2875
1469.64898	8460.5875
1473.05586	8593.7875
1476.46045	8697.0875
1479.86276	8768.1875
1483.26279	8862.8875
1486.66054	9070.3875
1490.05602	9339.1875
1493.44922	9882.5875
1496.84016	10749.4875
1500.22882	12143.7875
1503.61521	13859.8875
1506.99934	15671.7875
1510.38121	16891.1875
1513.76081	16753.6875
1517.13816	15174.2875
1520.51324	13057.0875
1523.88607	11306.6875
1527.25665	10316.5875
1530.62498	9786.9875
1533.99105	9586.9875
1537.35488	9462.1875
1540.71647	9361.6875
1544.07581	9251.9875
1547.4329	9098.2875
1550.78776	8988.4875
1554.14038	8923.3875
1557.49077	8888.6875
1560.83892	8971.4875
1564.18484	9194.1875
1567.52853	9533.9875
1570.86999	9870.2875
1574.20922	10007.8875
1577.54624	9921.7875
1580.88103	9381.6875
1584.2136	8693.0875
1587.54395	8358.2875
1590.87208	8257.2875
1594.19801	8432.0875
1597.52172	8796.7875
1600.84321	8938.4875
1604.16251	8824.8875
1607.47959	8607.4875
1610.79447	8425.9875
1614.10715	8126.6875
1617.41763	7821.9875
1620.7259	7560.0875
1624.03199	7430.9875
1627.33587	7332.1875
1630.63757	7385.4875
1633.93707	7615.2875
1637.23439	8050.7875
1640.52951	8708.9875
1643.82246	9719.9875
1647.11321	10896.7875
1650.40179	11613.7875
1653.68819	11266.7875
1656.97241	10003.9875
1660.25446	8616.2875
1663.53433	7585.5875
1666.81203	7000.8875
1670.08756	6657.0875
1673.36092	6473.5875
1676.63211	6325.4875
1679.90115	6242.6875
1683.16801	6145.5875
1686.43272	6071.7875
1689.69527	6014.5875
1692.95567	5980.6875
1696.2139	5931.8875
1699.46999	5872.7875
1702.72392	5887.0875
1705.97571	5903.5875
1709.22535	5875.0875
1712.47284	5913.6875
1715.71819	5918.7875
1718.96139	5908.6875
1722.20246	5892.4875
1725.44139	5861.7875
1728.67818	5857.2875
1731.91284	5799.1875
1735.14537	5751.0875
1738.37576	5729.2875
1741.60403	5715.4875
1744.83017	5690.9875
1748.05418	5692.9875
1751.27607	5691.4875
1754.49584	5666.0875
1757.71349	5600.6875
1760.92903	5616.2875
1764.14244	5566.7875
1767.35375	5595.0875
1770.56294	5572.4875
1773.77002	5521.5875
1776.97499	5549.7875
1780.17785	5536.0875
1783.37861	5517.6875
1786.57727	5539.2875
1789.77382	5480.1875
1792.96828	5509.0875
1796.16064	5514.8875
1799.3509	5476.7875
1802.53907	5497.8875
1805.72514	5471.4875
1808.90913	5439.9875
1812.09102	5453.2875
1815.27083	5411.9875
1818.44856	5407.8875
1821.6242	5402.2875
1824.79776	5395.0875
1827.96924	5374.9875
1831.13864	5352.9875
1834.30597	5351.7875
1837.47122	5351.2875
1840.6344	5338.8875
1843.7955	5312.8875
1846.95454	5299.8875
1850.11151	5317.5875
1853.26642	5286.0875
1856.41926	5294.4875
1859.57004	5291.1875
1862.71876	5289.0875
1865.86542	5285.6875
1869.01003	5259.7875
1872.15258	5250.8875
1875.29308	5272.6875
1878.43152	5276.2875
1881.56792	5240.9875
1884.70227	5231.9875
1887.83457	5237.5875
1890.96482	5200.2875
1894.09304	5221.8875
1897.21921	5197.1875
1900.34335	5209.5875
1903.46544	5171.7875
1906.58551	5191.1875
1909.70353	5189.7875
1912.81953	5178.5875
1915.93349	5163.9875
1919.04543	5154.4875
1922.15534	5137.3875
1925.26322	5143.0875
1928.36908	5132.5875
1931.47292	5120.8875
1934.57473	5116.3875
1937.67453	5089.3875
1940.77232	5076.7875
1943.86808	5057.2875
1946.96184	5041.3875
1950.05358	5019.6875
1953.14331	4998.1875
1956.23103	5012.3875
1959.31675	4969.1875
1962.40046	4935.2875
1965.48217	4953.9875
1968.56188	4953.5875
1971.63959	4937.8875
1974.7153	4939.0875
1977.78901	4929.4875
1980.86073	4898.0875
1983.93046	4838.7875
1986.99819	4785.4875
1990.06394	4800.8875
1993.1277	4820.8875
1996.18947	4798.4875
1999.24925	4760.5875
2002.30706	4754.3875
2005.36288	4751.8875
2008.41672	4731.1875
2011.46859	4712.0875
2014.51848	4681.9875
2017.56639	4683.6875
2020.61233	4668.9875
2023.6563	4666.0875
2026.6983	4609.3875
2029.73833	4620.4875
2032.7764	4636.2875
2035.8125	4584.6875
2038.84664	4600.2875
2041.87881	4562.5875
2044.90903	4575.2875
2047.93729	4559.6875
2050.96359	4535.8875
2053.98794	4548.2875
2057.01034	4561.4875
2060.03078	4518.7875
2063.04927	4507.5875
2066.06582	4518.8875
2069.08042	4498.9875
2072.09307	4522.7875
2075.10378	4515.6875
2078.11255	4495.7875
2081.11938	4491.9875
2084.12426	4480.1875
2087.12722	4483.6875
2090.12824	4472.5875
2093.12732	4488.6875
2096.12447	4492.7875
2099.11969	4485.7875
2102.11299	4472.9875
2105.10435	4498.6875
2108.09379	4485.5875
2111.08131	4476.8875
2114.0669	4491.8875
2117.05057	4488.1875
2120.03233	4472.8875
2123.01216	4490.2875
2125.99008	4490.8875
2128.96609	4490.0875
2131.94018	4512.2875
2134.91236	4497.8875
2137.88263	4506.8875
2140.851	4489.9875
2143.81746	4515.8875
2146.78201	4504.3875
2149.74466	4479.0875
2152.7054	4504.6875
2155.66425	4505.9875
2158.6212	4483.7875
2161.57625	4468.3875
2164.52941	4429.9875
2167.48067	4453.0875
2170.43004	4450.2875
2173.37752	4470.3875
2176.32311	4450.2875
2179.26681	4450.5875
2182.20863	4445.6875
2185.14856	4467.6875
2188.08661	4454.0875
2191.02278	4453.3875
2193.95707	4441.0875
2196.88948	4432.8875
2199.82001	4434.7875
2202.74867	4417.7875
2205.67545	4436.6875
2208.60037	4429.3875
2211.52341	4419.3875
2214.44458	4403.7875
2217.36388	4395.6875
2220.28132	4374.2875
2223.1969	4343.1875
2226.11061	4350.8875
2229.02246	4331.0875
2231.93245	4344.5875
2234.84058	4327.0875
2237.74686	4300.2875
2240.65128	4302.6875
2243.55385	4297.4875
2246.45456	4280.6875
2249.35343	4303.8875
2252.25044	4280.1875
2255.14561	4274.3875
2258.03893	4277.5875
2260.93041	4260.2875
2263.82004	4260.3875
2266.70783	4249.7875
2269.59378	4233.1875
2272.4779	4212.0875
2275.36017	4233.0875
2278.24061	4215.6875
2281.11922	4174.7875
2283.996	4203.0875
2286.87094	4178.3875
2289.74405	4165.1875
2292.61534	4153.9875
2295.4848	4156.7875
2298.35243	4157.9875
2301.21824	4141.2875
2304.08223	4129.6875
2306.94439	4130.8875
2309.80474	4133.0875
2312.66327	4133.0875
2315.51999	4120.7875
2318.37489	4116.1875
2321.22797	4095.9875
2324.07925	4081.3875
2326.92871	4072.3875
2329.77637	4073.7875
2332.62222	4064.5875
2335.46626	4016.6875
2338.3085	4028.9875
2341.14893	4044.8875
2343.98756	4055.1875
2346.8244	4032.5875
2349.65943	4015.0875
2352.49267	4007.6875
2355.32411	4027.1875
2358.15376	4031.1875
2360.98161	4034.8875
2363.80768	4028.0875
2366.63195	4017.1875
2369.45444	4030.2875
2372.27514	4016.5875
2375.09405	4018.1875
2377.91118	3997.4875
2380.72652	3983.1875
2383.54009	3983.2875
2386.35187	3985.4875
2389.16188	3945.2875
2391.97011	3964.0875
2394.77657	3943.6875
2397.58125	3933.3875
2400.38416	3935.8875
2403.18529	3903.3875
2405.98466	3884.0875
2408.78226	3901.6875
2411.57809	3903.4875
2414.37216	3863.9875
2417.16446	3887.7875
2419.955	3847.6875
2422.74378	3884.0875
2425.5308	3851.1875
2428.31606	3859.1875
2431.09956	3864.1875
2433.88131	3825.7875
2436.6613	3841.7875
2439.43954	3825.9875
2442.21603	3819.7875
2444.99077	3837.2875
2447.76377	3840.2875
2450.53501	3843.6875
2453.30451	3812.8875
2456.07226	3830.5875
2458.83827	3803.8875
2461.60254	3766.1875
2464.36507	3788.5875
2467.12586	3772.6875
2469.88492	3775.9875
2472.64224	3773.4875
2475.39782	3760.1875
2478.15167	3791.0875
2480.90379	3756.4875
2483.65417	3778.6875
2486.40283	3783.2875
2489.14976	3787.9875
2491.89497	3769.1875
2494.63845	3770.9875
2497.3802	3764.3875
2500.12024	3760.3875
2502.85855	3749.5875
2505.59514	3767.0875
2508.33002	3737.2875
2511.06318	3707.8875
2513.79462	3717.6875
2516.52435	3690.5875
2519.25237	3664.7875
2521.97867	3653.5875
2524.70327	3667.9875
2527.42616	3665.3875
2530.14734	3663.2875
2532.86681	3653.9875
2535.58458	3655.7875
2538.30065	3639.1875
2541.01501	3656.8875
2543.72768	3633.1875
2546.43864	3646.8875
2549.14791	3637.7875
2551.85548	3616.7875
2554.56136	3605.9875
2557.26554	3612.1875
2559.96803	3604.8875
2562.66883	3601.0875
2565.36794	3574.0875
2568.06536	3552.7875
2570.7611	3580.3875
2573.45514	3562.1875
2576.14751	3551.0875
2578.83819	3538.1875
2581.52719	3530.1875
2584.21451	3528.0875
2586.90015	3511.5875
2589.58411	3505.2875
2592.2664	3494.2875
2594.94701	3499.5875
2597.62594	3506.2875
2600.30321	3441.7875
2602.9788	3459.6875
2605.65273	3448.8875
2608.32498	3434.9875
2610.99557	3460.8875
2613.66449	3446.2875
2616.33175	3447.9875
2618.99734	3449.9875
2621.66128	3441.4875
2624.32355	3425.8875
2626.98416	3403.9875
2629.64311	3410.1875
2632.30041	3401.9875
2634.95605	3395.8875
2637.61004	3366.2875
2640.26238	3358.6875
2642.91306	3360.9875
2645.56209	3389.4875
2648.20948	3370.1875
2650.85521	3346.2875
2653.4993	3368.1875
2656.14175	3358.9875
2658.78255	3358.2875
2661.42171	3329.4875
2664.05923	3353.6875
2666.6951	3362.8875
2669.32934	3368.6875
2671.96194	3381.9875
2674.59291	3362.5875
2677.22224	3368.9875
2679.84993	3357.0875
2682.476	3347.0875
2685.10043	3348.1875
2687.72324	3334.8875
2690.34441	3341.5875
2692.96396	3340.2875
2695.58188	3345.4875
2698.19818	3330.5875
2700.81285	3324.3875
2703.4259	3323.1875
2706.03733	3282.7875
2708.64714	3282.0875
2711.25533	3318.6875
2713.86191	3327.2875
2716.46687	3324.7875
2719.07021	3302.9875
2721.67194	3314.8875
2724.27206	3337.4875
2726.87057	3312.8875
2729.46747	3309.8875
2732.06276	3314.4875
2734.65644	3276.5875
2737.24852	3293.9875
2739.83899	3270.2875
2742.42786	3297.6875
2745.01513	3282.0875
2747.60079	3263.5875
2750.18486	3251.0875
2752.76733	3266.6875
2755.3482	3254.0875
2757.92747	3245.3875
2760.50515	3212.9875
2763.08123	3239.6875
2765.65573	3215.4875
2768.22863	3218.7875
2770.79994	3211.2875
2773.36967	3199.4875
2775.9378	3182.7875
2778.50435	3184.2875
2781.06932	3190.8875
2783.6327	3177.7875
2786.1945	3203.9875
2788.75471	3167.5875
2791.31335	3167.0875
2793.87041	3166.2875
2796.42589	3149.6875
2798.97979	3146.5875
2801.53212	3129.5875
2804.08288	3154.4875
2806.63206	3137.7875
2809.17967	3109.9875
2811.72571	3132.1875
2814.27018	3122.1875
2816.81308	3118.3875
2819.35442	3081.0875
2821.89419	3083.3875
2824.43239	3074.4875
2826.96904	3093.9875
2829.50412	3078.0875
2832.03763	3097.2875
2834.56959	3078.7875
2837.1	3063.0875
2839.62884	3085.2875
2842.15613	3057.0875
2844.68186	3078.5875
2847.20604	3057.7875
2849.72867	3035.6875
2852.24974	3046.9875
2854.76927	3016.7875
2857.28724	2960.3875
2859.80367	3023.8875
2862.31855	3034.9875
2864.83189	3026.1875
2867.34368	3028.9875
2869.85393	3034.5875
2872.36264	3003.6875
2874.8698	3030.1875
2877.37543	3005.0875
2879.87952	3003.6875
2882.38207	2985.2875
2884.88308	2992.5875
2887.38256	2997.0875
2889.88051	2982.0875
2892.37692	2979.8875
2894.8718	2967.0875
2897.36515	2974.3875
2899.85698	2977.7875
2902.34727	2970.6875
2904.83604	2981.1875
2907.32328	2994.7875
2909.809	2992.2875
2912.29319	2990.4875
2914.77587	3001.7875
2917.25702	3010.7875
2919.73665	2992.0875
2922.21476	3011.7875
2924.69136	3013.2875
2927.16644	2986.1875
2929.64	2979.9875
2932.11205	2973.5875
2934.58258	2969.4875
2937.05161	2947.8875
2939.51912	2953.4875
2941.98513	2976.3875
2944.44962	2940.3875
2946.91261	2929.6875
2949.37409	2940.5875
2951.83407	2930.5875
2954.29254	2938.1875
2956.74951	2927.4875
2959.20498	2906.5875
2961.65895	2913.2875
2964.11142	2903.1875
2966.56239	2900.8875
2969.01186	2889.6875
2971.45984	2895.9875
2973.90632	2878.1875
2976.35131	2890.1875
2978.7948	2888.7875
2981.23681	2877.6875
2983.67732	2872.1875
2986.11635	2864.9875
2988.55388	2832.2875
2990.98993	2843.4875
2993.4245	2839.8875
2995.85758	2820.6875
2998.28917	2820.9875
3000.71928	2802.8875
3003.14791	2804.4875
3005.57506	2797.1875
3008.00073	2770.5875
3010.42493	2721.3875
3012.84764	2769.9875
3015.26888	2771.8875
3017.68865	2751.0875
3020.10694	2723.6875
3022.52376	2738.3875
3024.9391	2727.5875
3027.35298	2718.4875
3029.76539	2704.5875
3032.17632	2718.1875
3034.5858	2703.8875
3036.9938	2706.9875
3039.40034	2702.8875
3041.80542	2684.4875
3044.20903	2666.5875
3046.61118	2670.2875
3049.01187	2674.7875
3051.4111	2668.8875
3053.80888	2652.2875
3056.20519	2650.1875
3058.60005	2623.7875
3060.99345	2644.4875
3063.3854	2626.9875
3065.7759	2607.7875
3068.16494	2618.6875
3070.55254	2583.3875
3072.93868	2606.7875
3075.32338	2594.4875
3077.70662	2579.7875
3080.08842	2571.6875
3082.46878	2564.2875
3084.84769	2581.3875
3087.22515	2551.6875
3089.60118	2568.3875
3091.97576	2546.8875
3094.3489	2562.3875
3096.72061	2552.2875
3099.09087	2534.6875
3101.4597	2554.7875
3103.82709	2548.0875
3106.19305	2520.3875
3108.55757	2531.9875
3110.92066	2514.5875
3113.28232	2516.9875
3115.64255	2526.2875
3118.00134	2523.1875
3120.35871	2492.8875
3122.71466	2478.4875
3125.06917	2475.2875
3127.42226	2483.9875
3129.77393	2462.1875
3132.12417	2479.0875
3134.47299	2473.5875
3136.82039	2454.8875
3139.16636	2438.3875
3141.51092	2460.2875
3143.85406	2445.0875
3146.19579	2432.5875
3148.53609	2442.7875
3150.87499	2443.8875
3153.21246	2436.8875
3155.54853	2443.8875
3157.88318	2442.3875
3160.21642	2444.0875
3162.54826	2433.7875
3164.87868	2444.8875
3167.2077	2393.7875
3169.5353	2429.8875
3171.86151	2431.9875
3174.18631	2407.2875
3176.5097	2418.1875
3178.83169	2402.5875
3181.15228	2402.7875
3183.47147	2395.4875
3185.78926	2363.4875
3188.10565	2377.6875
3190.42065	2344.4875
3192.73424	2375.1875
3195.04645	2354.5875
3197.35725	2344.2875
3199.66667	2354.3875
3201.97469	2356.0875
3204.28132	2333.1875
3206.58656	2350.7875
3208.8904	2349.5875
3211.19287	2345.2875
3213.49394	2331.8875
3215.79363	2332.5875
3218.09193	2347.2875
3220.38884	2342.7875
3222.68438	2339.4875
3224.97853	2311.1875
3227.2713	2332.2875
3229.56269	2319.8875
3231.8527	2323.6875
3234.14133	2307.0875
3236.42858	2305.4875
3238.71446	2288.3875
3240.99896	2295.9875
3243.28209	2280.0875
3245.56384	2282.8875
3247.84423	2264.6875
3250.12324	2283.0875
3252.40088	2274.0875
3254.67715	2269.1875
3256.95205	2255.3875
3259.22558	2272.7875
3261.49775	2258.6875
3263.76855	2264.4875
3266.03799	2267.8875
3268.30606	2257.3875
3270.57277	2266.2875
3272.83812	2225.8875
3275.10211	2233.6875
3277.36474	2249.9875
3279.62601	2237.2875
3281.88593	2213.4875
3284.14448	2201.1875
3286.40168	2215.7875
3288.65753	2207.2875
3290.91202	2211.1875
3293.16516	2182.5875
3295.41695	2214.4875
3297.66738	2204.8875
3299.91647	2188.5875
3302.16421	2181.7875
3304.4106	2135.2875
3306.65564	2158.2875
3308.89933	2124.8875
3311.14169	2127.6875
3313.38269	2103.2875
3315.62236	2076.0875
3317.86068	2062.1875
3320.09766	2059.8875
3322.3333	2031.1875
3324.5676	2027.4875
3326.80056	1991.1875
3329.03219	1975.2875
3331.26248	0.9875
3333.49143	-0.1125
3335.71905	0.5875
