Data from AgNPs_UA_20uM_CRN_500uM_SU_RamanShift__63__13-47-00-303.txt Node

Date: Thu Aug 04 13:47:00 BST 2022
User: TCL
Spectrometer: QEP01345
Trigger mode: 4
Integration Time (sec): 1.000000E0
Scans to average: 10
Electric dark correction enabled: true
Nonlinearity correction enabled: false
Boxcar width: 0
XAxis mode: Raman Shifts
Number of Pixels in Spectrum: 1044
>>>>>Begin Spectral Data<<<<<
46.04893	-2.075
50.45542	-0.475
54.85868	0.625
59.25871	0.325
63.6555	11.825
68.04907	10.825
72.43941	14.425
76.82654	11.325
81.21044	12.025
85.59113	14.825
89.96862	15.025
94.34289	14.525
98.71396	15.625
103.08183	16.825
107.4465	16.725
111.80798	17.725
116.16626	18.125
120.52136	19.025
124.87327	18.125
129.222	22.725
133.56755	22.325
137.90993	22.125
142.24913	24.425
146.58517	26.725
150.91804	30.525
155.24774	39.525
159.57429	49.025
163.89768	60.825
168.21792	84.425
172.53501	112.325
176.84895	152.925
181.15975	215.925
185.46741	301.525
189.77193	416.325
194.07331	568.125
198.37157	722.625
202.6667	891.525
206.9587	1053.825
211.24758	1224.025
215.53334	1389.225
219.81599	1565.825
224.09553	1771.125
228.37195	1991.425
232.64527	2225.025
236.91549	2463.725
241.18261	2690.025
245.44663	2901.025
249.70755	3083.825
253.96539	3258.425
258.22014	3378.425
262.4718	3496.425
266.72039	3586.225
270.96589	3626.125
275.20832	3611.125
279.44768	3590.325
283.68397	3530.925
287.91719	3489.725
292.14735	3476.225
296.37445	3498.625
300.59849	3560.925
304.81948	3633.925
309.03742	3701.225
313.25231	3719.725
317.46415	3697.625
321.67296	3603.125
325.87872	3520.025
330.08145	3484.125
334.28114	3509.125
338.47781	3550.025
342.67145	3634.525
346.86207	3718.925
351.04966	3809.625
355.23424	3926.325
359.4158	4028.125
363.59435	4081.625
367.76989	4147.025
371.94243	4178.025
376.11196	4189.225
380.27849	4245.825
384.44203	4255.625
388.60257	4280.225
392.76012	4329.325
396.91468	4383.425
401.06626	4459.825
405.21485	4516.325
409.36047	4509.625
413.50311	4414.425
417.64277	4339.325
421.77947	4288.225
425.9132	4288.125
430.04396	4333.525
434.17176	4410.125
438.2966	4543.625
442.41849	4744.325
446.53742	4967.025
450.6534	5171.125
454.76644	5309.625
458.87653	5285.925
462.98368	5177.125
467.08789	5008.125
471.18916	4841.825
475.2875	4649.025
479.38291	4500.725
483.4754	4406.725
487.56496	4353.125
491.6516	4288.825
495.73531	4257.525
499.81612	4256.425
503.89401	4273.025
507.96899	4298.525
512.04106	4309.025
516.11023	4359.525
520.1765	4391.025
524.23987	4427.125
528.30034	4433.325
532.35792	4437.325
536.41261	4385.125
540.46441	4325.125
544.51333	4301.525
548.55936	4336.125
552.60252	4394.525
556.64279	4442.925
560.6802	4464.525
564.71473	4449.525
568.7464	4465.625
572.7752	4461.725
576.80114	4440.625
580.82422	4447.925
584.84444	4541.225
588.86181	4704.425
592.87633	4920.025
596.888	5029.325
600.89682	5176.925
604.9028	5572.525
608.90594	6377.825
612.90624	6995.325
616.90371	6396.025
620.89834	5317.025
624.89015	4909.625
628.87913	4841.425
632.86528	4786.825
636.84862	4683.025
640.82913	4549.625
644.80683	4412.925
648.78172	4348.225
652.75379	4396.025
656.72306	4529.025
660.68952	4656.825
664.65319	4615.625
668.61405	4568.625
672.57211	4556.125
676.52738	4572.525
680.47986	4498.625
684.42955	4449.025
688.37646	4452.425
692.32058	4499.925
696.26192	4564.425
700.20048	4640.725
704.13626	4656.725
708.06928	4579.825
711.99952	4526.125
715.927	4549.325
719.85171	4582.925
723.77365	4535.725
727.69284	4506.225
731.60928	4471.425
735.52295	4498.625
739.43388	4536.025
743.34206	4588.025
747.24749	4618.825
751.15017	4640.925
755.05012	4689.825
758.94733	4830.325
762.8418	5104.125
766.73354	5506.225
770.62254	5872.625
774.50882	6042.625
778.39237	5857.725
782.27321	5420.525
786.15132	5021.725
790.02671	4751.725
793.89938	4661.025
797.76935	4614.925
801.6366	4587.225
805.50115	4555.825
809.36299	4553.525
813.22213	4523.025
817.07857	4524.925
820.93231	4525.025
824.78336	4532.725
828.63172	4538.525
832.47738	4546.625
836.32036	4561.025
840.16066	4580.025
843.99827	4597.725
847.8332	4579.625
851.66546	4561.625
855.49504	4551.125
859.32195	4556.225
863.1462	4567.725
866.96777	4538.625
870.78668	4523.425
874.60293	4538.025
878.41652	4560.925
882.22745	4586.025
886.03573	4605.825
889.84136	4593.225
893.64433	4557.425
897.44466	4555.625
901.24235	4538.425
905.0374	4533.825
908.8298	4517.825
912.61957	4527.725
916.40671	4563.825
920.19121	4600.825
923.97308	4669.625
927.75233	4714.325
931.52895	4735.725
935.30295	4669.125
939.07433	4581.625
942.84309	4528.425
946.60924	4514.325
950.37278	4497.325
954.13371	4477.425
957.89203	4469.725
961.64774	4454.325
965.40086	4422.125
969.15137	4430.925
972.89929	4428.125
976.64461	4423.725
980.38733	4451.225
984.12747	4464.825
987.86502	4518.025
991.59999	4574.825
995.33237	4681.125
999.06217	4879.225
1002.78939	5044.525
1006.51404	5134.325
1010.23611	5175.525
1013.95561	5250.725
1017.67255	5333.625
1021.38692	5276.225
1025.09872	5224.825
1028.80796	5245.725
1032.51465	5352.825
1036.21877	5447.825
1039.92035	5418.825
1043.61937	5352.025
1047.31584	5207.725
1051.00976	5088.925
1054.70114	5036.025
1058.38998	5025.725
1062.07627	5037.725
1065.76003	5074.225
1069.44126	5101.925
1073.11995	5154.425
1076.79611	5187.525
1080.46974	5213.325
1084.14085	5286.525
1087.80943	5325.625
1091.47549	5324.225
1095.13903	5266.225
1098.80005	5151.725
1102.45857	5102.325
1106.11456	5085.925
1109.76805	5108.125
1113.41903	5164.625
1117.06751	5251.325
1120.71348	5345.025
1124.35696	5437.425
1127.99793	5489.925
1131.63641	5444.925
1135.2724	5330.325
1138.90589	5238.625
1142.5369	5147.725
1146.16542	5108.325
1149.79145	5063.325
1153.415	5071.425
1157.03607	5100.125
1160.65467	5183.825
1164.27079	5293.025
1167.88443	5491.025
1171.49561	5788.725
1175.10432	6239.725
1178.71056	6817.625
1182.31434	7387.925
1185.91565	7792.725
1189.51451	7928.325
1193.11091	7707.225
1196.70485	7272.525
1200.29634	6808.825
1203.88538	6443.825
1207.47197	6139.925
1211.05612	5927.525
1214.63782	5800.225
1218.21708	5776.225
1221.79391	5828.625
1225.36829	5872.325
1228.94024	5874.125
1232.50976	5855.225
1236.07685	5877.825
1239.6415	5955.725
1243.20374	5980.425
1246.76355	5992.825
1250.32093	6045.425
1253.8759	6180.225
1257.42845	6389.925
1260.97859	6593.825
1264.52631	6766.325
1268.07163	6877.525
1271.61453	6945.125
1275.15503	7034.525
1278.69312	7148.625
1282.22882	7280.825
1285.76211	7468.725
1289.29301	7649.125
1292.82151	7838.025
1296.34761	8036.525
1299.87133	8276.125
1303.39266	8643.625
1306.9116	9131.625
1310.42815	9663.025
1313.94233	9890.125
1317.45412	9744.425
1320.96354	9435.025
1324.47058	9162.325
1327.97525	9013.225
1331.47754	9096.125
1334.97747	9348.325
1338.47502	9547.425
1341.97022	9653.425
1345.46305	9701.125
1348.95352	9913.925
1352.44163	10211.725
1355.92738	10636.225
1359.41078	11129.425
1362.89183	11286.525
1366.37053	10728.325
1369.84688	9641.825
1373.32088	8621.925
1376.79254	7989.525
1380.26186	7715.425
1383.72883	7524.325
1387.19347	7342.825
1390.65578	7074.125
1394.11575	6819.425
1397.57339	6698.625
1401.0287	6744.625
1404.48168	6904.125
1407.93234	7141.225
1411.38068	7362.925
1414.82669	7396.525
1418.27039	7294.825
1421.71177	7148.725
1425.15083	7117.425
1428.58758	7221.425
1432.02203	7399.725
1435.45416	7527.525
1438.88399	7532.225
1442.31151	7444.625
1445.73673	7374.025
1449.15965	7296.125
1452.58027	7140.825
1455.9986	7025.125
1459.41463	6985.325
1462.82837	7048.425
1466.23982	7189.625
1469.64898	7352.125
1473.05586	7527.525
1476.46045	7631.625
1479.86276	7715.825
1483.26279	7770.625
1486.66054	7813.525
1490.05602	7914.125
1493.44922	8078.325
1496.84016	8305.625
1500.22882	8625.125
1503.61521	9017.925
1506.99934	9374.525
1510.38121	9504.025
1513.76081	9266.525
1517.13816	8775.125
1520.51324	8247.025
1523.88607	7897.425
1527.25665	7738.325
1530.62498	7722.325
1533.99105	7753.625
1537.35488	7743.925
1540.71647	7768.125
1544.07581	7696.225
1547.4329	7539.625
1550.78776	7330.825
1554.14038	7131.425
1557.49077	6980.025
1560.83892	6930.125
1564.18484	6921.725
1567.52853	6933.525
1570.86999	6980.725
1574.20922	6987.625
1577.54624	6882.925
1580.88103	6737.925
1584.2136	6597.625
1587.54395	6663.025
1590.87208	6990.025
1594.19801	7606.625
1597.52172	8365.425
1600.84321	8917.725
1604.16251	8903.225
1607.47959	8394.325
1610.79447	7617.525
1614.10715	6904.125
1617.41763	6356.925
1620.7259	6050.925
1624.03199	5862.125
1627.33587	5869.325
1630.63757	6027.525
1633.93707	6378.825
1637.23439	6915.725
1640.52951	7604.525
1643.82246	8339.725
1647.11321	8764.225
1650.40179	8573.925
1653.68819	7769.025
1656.97241	6781.625
1660.25446	5980.425
1663.53433	5445.225
1666.81203	5128.725
1670.08756	4933.325
1673.36092	4816.625
1676.63211	4715.225
1679.90115	4652.625
1683.16801	4606.625
1686.43272	4554.125
1689.69527	4546.125
1692.95567	4530.625
1696.2139	4498.025
1699.46999	4496.425
1702.72392	4498.225
1705.97571	4502.325
1709.22535	4491.725
1712.47284	4494.225
1715.71819	4488.225
1718.96139	4467.625
1722.20246	4445.325
1725.44139	4447.425
1728.67818	4426.625
1731.91284	4392.325
1735.14537	4369.925
1738.37576	4363.225
1741.60403	4343.825
1744.83017	4342.625
1748.05418	4320.625
1751.27607	4324.825
1754.49584	4307.925
1757.71349	4301.025
1760.92903	4293.025
1764.14244	4291.825
1767.35375	4296.625
1770.56294	4293.325
1773.77002	4279.725
1776.97499	4287.425
1780.17785	4264.225
1783.37861	4246.325
1786.57727	4262.825
1789.77382	4254.525
1792.96828	4247.525
1796.16064	4248.225
1799.3509	4223.225
1802.53907	4240.625
1805.72514	4237.025
1808.90913	4222.225
1812.09102	4212.225
1815.27083	4202.225
1818.44856	4189.225
1821.6242	4168.825
1824.79776	4180.125
1827.96924	4177.025
1831.13864	4168.825
1834.30597	4164.425
1837.47122	4153.225
1840.6344	4138.925
1843.7955	4144.725
1846.95454	4143.425
1850.11151	4141.525
1853.26642	4143.125
1856.41926	4140.925
1859.57004	4145.025
1862.71876	4151.625
1865.86542	4144.025
1869.01003	4126.025
1872.15258	4125.025
1875.29308	4131.725
1878.43152	4143.825
1881.56792	4122.025
1884.70227	4114.525
1887.83457	4121.225
1890.96482	4108.725
1894.09304	4105.425
1897.21921	4102.925
1900.34335	4103.725
1903.46544	4104.625
1906.58551	4100.725
1909.70353	4095.125
1912.81953	4091.825
1915.93349	4098.025
1919.04543	4080.225
1922.15534	4078.525
1925.26322	4073.225
1928.36908	4065.425
1931.47292	4055.425
1934.57473	4059.625
1937.67453	4055.725
1940.77232	4058.725
1943.86808	4051.825
1946.96184	4022.025
1950.05358	4028.325
1953.14331	4017.825
1956.23103	3988.225
1959.31675	3973.025
1962.40046	3969.225
1965.48217	3947.325
1968.56188	3932.325
1971.63959	3913.725
1974.7153	3917.625
1977.78901	3903.725
1980.86073	3912.725
1983.93046	3875.825
1986.99819	3867.925
1990.06394	3860.425
1993.1277	3850.325
1996.18947	3843.225
1999.24925	3837.325
2002.30706	3814.525
2005.36288	3809.825
2008.41672	3794.625
2011.46859	3784.625
2014.51848	3759.925
2017.56639	3762.225
2020.61233	3759.125
2023.6563	3738.125
2026.6983	3733.125
2029.73833	3720.225
2032.7764	3721.525
2035.8125	3707.925
2038.84664	3708.425
2041.87881	3718.725
2044.90903	3700.625
2047.93729	3673.625
2050.96359	3688.025
2053.98794	3676.725
2057.01034	3689.125
2060.03078	3675.025
2063.04927	3664.225
2066.06582	3660.725
2069.08042	3664.325
2072.09307	3655.725
2075.10378	3665.625
2078.11255	3647.425
2081.11938	3642.825
2084.12426	3631.225
2087.12722	3630.425
2090.12824	3634.525
2093.12732	3642.325
2096.12447	3645.225
2099.11969	3637.625
2102.11299	3639.425
2105.10435	3634.725
2108.09379	3630.825
2111.08131	3652.325
2114.0669	3632.125
2117.05057	3643.825
2120.03233	3627.525
2123.01216	3632.425
2125.99008	3645.325
2128.96609	3645.325
2131.94018	3646.025
2134.91236	3644.125
2137.88263	3656.925
2140.851	3634.025
2143.81746	3649.325
2146.78201	3640.625
2149.74466	3642.125
2152.7054	3648.325
2155.66425	3651.825
2158.6212	3643.825
2161.57625	3636.625
2164.52941	3639.225
2167.48067	3641.025
2170.43004	3629.425
2173.37752	3627.525
2176.32311	3632.225
2179.26681	3629.725
2182.20863	3631.325
2185.14856	3633.525
2188.08661	3621.225
2191.02278	3624.425
2193.95707	3640.925
2196.88948	3621.025
2199.82001	3638.125
2202.74867	3629.425
2205.67545	3633.325
2208.60037	3642.925
2211.52341	3615.125
2214.44458	3616.825
2217.36388	3602.925
2220.28132	3590.025
2223.1969	3576.625
2226.11061	3577.925
2229.02246	3562.325
2231.93245	3558.825
2234.84058	3540.925
2237.74686	3539.625
2240.65128	3546.825
2243.55385	3553.225
2246.45456	3540.725
2249.35343	3526.625
2252.25044	3527.525
2255.14561	3532.225
2258.03893	3535.425
2260.93041	3531.025
2263.82004	3507.425
2266.70783	3516.625
2269.59378	3497.825
2272.4779	3483.225
2275.36017	3476.625
2278.24061	3439.825
2281.11922	3445.025
2283.996	3444.225
2286.87094	3434.525
2289.74405	3433.325
2292.61534	3424.625
2295.4848	3429.825
2298.35243	3437.325
2301.21824	3414.225
2304.08223	3416.925
2306.94439	3432.525
2309.80474	3430.025
2312.66327	3429.825
2315.51999	3418.325
2318.37489	3410.825
2321.22797	3427.525
2324.07925	3423.025
2326.92871	3399.125
2329.77637	3402.125
2332.62222	3405.425
2335.46626	3405.825
2338.3085	3409.525
2341.14893	3415.825
2343.98756	3410.225
2346.8244	3412.625
2349.65943	3406.225
2352.49267	3401.025
2355.32411	3401.225
2358.15376	3399.725
2360.98161	3396.225
2363.80768	3391.925
2366.63195	3396.225
2369.45444	3374.025
2372.27514	3363.225
2375.09405	3366.025
2377.91118	3363.025
2380.72652	3372.325
2383.54009	3352.425
2386.35187	3347.025
2389.16188	3335.425
2391.97011	3324.125
2394.77657	3321.925
2397.58125	3320.125
2400.38416	3300.925
2403.18529	3298.025
2405.98466	3308.725
2408.78226	3289.425
2411.57809	3269.925
2414.37216	3269.425
2417.16446	3281.625
2419.955	3266.125
2422.74378	3280.025
2425.5308	3255.025
2428.31606	3254.025
2431.09956	3257.425
2433.88131	3255.525
2436.6613	3245.125
2439.43954	3258.625
2442.21603	3249.525
2444.99077	3239.925
2447.76377	3248.625
2450.53501	3242.825
2453.30451	3220.425
2456.07226	3228.625
2458.83827	3229.125
2461.60254	3225.225
2464.36507	3211.325
2467.12586	3205.625
2469.88492	3208.625
2472.64224	3215.225
2475.39782	3220.425
2478.15167	3223.825
2480.90379	3206.425
2483.65417	3228.425
2486.40283	3227.525
2489.14976	3228.325
2491.89497	3227.925
2494.63845	3226.525
2497.3802	3230.325
2500.12024	3226.325
2502.85855	3217.225
2505.59514	3197.725
2508.33002	3202.725
2511.06318	3195.125
2513.79462	3197.325
2516.52435	3182.725
2519.25237	3191.425
2521.97867	3184.225
2524.70327	3200.225
2527.42616	3179.125
2530.14734	3188.325
2532.86681	3183.225
2535.58458	3183.525
2538.30065	3167.025
2541.01501	3162.025
2543.72768	3179.825
2546.43864	3178.025
2549.14791	3162.925
2551.85548	3165.825
2554.56136	3168.425
2557.26554	3182.125
2559.96803	3146.525
2562.66883	3134.025
2565.36794	3144.425
2568.06536	3134.325
2570.7611	3124.625
2573.45514	3130.525
2576.14751	3126.925
2578.83819	3120.025
2581.52719	3099.625
2584.21451	3104.025
2586.90015	3111.025
2589.58411	3094.625
2592.2664	3112.325
2594.94701	3104.025
2597.62594	3106.925
2600.30321	3105.125
2602.9788	3100.025
2605.65273	3105.225
2608.32498	3090.725
2610.99557	3096.625
2613.66449	3104.425
2616.33175	3087.325
2618.99734	3090.925
2621.66128	3088.725
2624.32355	3099.425
2626.98416	3080.525
2629.64311	3099.525
2632.30041	3099.825
2634.95605	3099.725
2637.61004	3093.825
2640.26238	3085.225
2642.91306	3084.025
2645.56209	3067.525
2648.20948	3079.525
2650.85521	3072.025
2653.4993	3062.125
2656.14175	3062.725
2658.78255	3064.625
2661.42171	3075.825
2664.05923	3067.325
2666.6951	3085.625
2669.32934	3084.525
2671.96194	3084.025
2674.59291	3074.725
2677.22224	3077.225
2679.84993	3080.725
2682.476	3076.925
2685.10043	3086.925
2687.72324	3074.225
2690.34441	3071.625
2692.96396	3065.425
2695.58188	3063.025
2698.19818	3078.925
2700.81285	3078.625
2703.4259	3069.725
2706.03733	3073.125
2708.64714	3059.725
2711.25533	3054.525
2713.86191	3050.625
2716.46687	3077.725
2719.07021	3058.325
2721.67194	3072.425
2724.27206	3073.625
2726.87057	3066.325
2729.46747	3070.325
2732.06276	3081.525
2734.65644	3055.625
2737.24852	3060.425
2739.83899	3073.425
2742.42786	3056.425
2745.01513	3062.125
2747.60079	3061.325
2750.18486	3051.025
2752.76733	3046.725
2755.3482	3051.725
2757.92747	3037.525
2760.50515	3035.625
2763.08123	3035.125
2765.65573	3040.525
2768.22863	3040.325
2770.79994	3030.025
2773.36967	3039.225
2775.9378	3023.425
2778.50435	3039.425
2781.06932	3034.025
2783.6327	3029.025
2786.1945	3036.925
2788.75471	3024.525
2791.31335	3013.825
2793.87041	3015.825
2796.42589	3012.725
2798.97979	3000.725
2801.53212	2997.525
2804.08288	2995.525
2806.63206	2988.925
2809.17967	2986.525
2811.72571	2979.625
2814.27018	2985.925
2816.81308	2965.625
2819.35442	2955.125
2821.89419	2953.325
2824.43239	2946.625
2826.96904	2953.425
2829.50412	2961.325
2832.03763	2952.725
2834.56959	2943.625
2837.1	2939.425
2839.62884	2931.725
2842.15613	2938.825
2844.68186	2944.125
2847.20604	2940.925
2849.72867	2935.225
2852.24974	2922.825
2854.76927	2898.725
2857.28724	2901.425
2859.80367	2897.025
2862.31855	2896.825
2864.83189	2879.525
2867.34368	2903.125
2869.85393	2900.025
2872.36264	2877.425
2874.8698	2878.025
2877.37543	2874.825
2879.87952	2868.025
2882.38207	2863.125
2884.88308	2879.925
2887.38256	2865.225
2889.88051	2853.025
2892.37692	2858.825
2894.8718	2858.125
2897.36515	2859.225
2899.85698	2870.725
2902.34727	2861.525
2904.83604	2873.725
2907.32328	2874.225
2909.809	2875.525
2912.29319	2869.325
2914.77587	2876.525
2917.25702	2878.225
2919.73665	2882.625
2922.21476	2872.925
2924.69136	2866.625
2927.16644	2857.625
2929.64	2864.625
2932.11205	2852.425
2934.58258	2845.125
2937.05161	2849.225
2939.51912	2837.825
2941.98513	2847.625
2944.44962	2830.225
2946.91261	2831.425
2949.37409	2833.825
2951.83407	2831.425
2954.29254	2827.625
2956.74951	2823.325
2959.20498	2821.525
2961.65895	2813.625
2964.11142	2813.725
2966.56239	2804.025
2969.01186	2813.425
2971.45984	2812.925
2973.90632	2799.625
2976.35131	2795.425
2978.7948	2781.725
2981.23681	2766.725
2983.67732	2774.725
2986.11635	2769.825
2988.55388	2760.625
2990.98993	2752.625
2993.4245	2735.325
2995.85758	2732.325
2998.28917	2728.325
3000.71928	2734.225
3003.14791	2703.425
3005.57506	2718.925
3008.00073	2699.825
3010.42493	2683.925
3012.84764	2681.125
3015.26888	2684.625
3017.68865	2658.825
3020.10694	2661.425
3022.52376	2655.825
3024.9391	2653.925
3027.35298	2641.825
3029.76539	2645.225
3032.17632	2654.125
3034.5858	2638.825
3036.9938	2638.725
3039.40034	2630.525
3041.80542	2622.025
3044.20903	2617.325
3046.61118	2614.325
3049.01187	2595.725
3051.4111	2598.825
3053.80888	2595.225
3056.20519	2585.525
3058.60005	2587.325
3060.99345	2569.325
3063.3854	2563.525
3065.7759	2558.525
3068.16494	2548.525
3070.55254	2541.025
3072.93868	2535.425
3075.32338	2524.725
3077.70662	2513.025
3080.08842	2507.525
3082.46878	2509.225
3084.84769	2494.725
3087.22515	2491.525
3089.60118	2485.125
3091.97576	2488.025
3094.3489	2495.625
3096.72061	2493.825
3099.09087	2477.425
3101.4597	2481.425
3103.82709	2476.225
3106.19305	2454.625
3108.55757	2467.925
3110.92066	2461.025
3113.28232	2458.225
3115.64255	2444.725
3118.00134	2438.125
3120.35871	2431.225
3122.71466	2424.725
3125.06917	2426.125
3127.42226	2415.725
3129.77393	2425.725
3132.12417	2414.925
3134.47299	2414.225
3136.82039	2398.025
3139.16636	2401.025
3141.51092	2397.425
3143.85406	2403.625
3146.19579	2404.325
3148.53609	2398.825
3150.87499	2392.925
3153.21246	2391.525
3155.54853	2396.125
3157.88318	2390.025
3160.21642	2393.625
3162.54826	2390.125
3164.87868	2396.725
3167.2077	2388.425
3169.5353	2380.025
3171.86151	2367.025
3174.18631	2363.625
3176.5097	2363.725
3178.83169	2347.925
3181.15228	2354.525
3183.47147	2348.525
3185.78926	2341.925
3188.10565	2338.425
3190.42065	2340.825
3192.73424	2331.425
3195.04645	2336.825
3197.35725	2322.225
3199.66667	2319.925
3201.97469	2317.825
3204.28132	2320.725
3206.58656	2319.725
3208.8904	2319.325
3211.19287	2315.625
3213.49394	2335.725
3215.79363	2325.225
3218.09193	2319.225
3220.38884	2310.525
3222.68438	2322.025
3224.97853	2309.425
3227.2713	2303.725
3229.56269	2314.025
3231.8527	2299.625
3234.14133	2299.325
3236.42858	2300.725
3238.71446	2294.625
3240.99896	2286.125
3243.28209	2280.925
3245.56384	2278.525
3247.84423	2265.425
3250.12324	2270.925
3252.40088	2271.225
3254.67715	2261.125
3256.95205	2267.625
3259.22558	2254.125
3261.49775	2254.425
3263.76855	2255.225
3266.03799	2253.325
3268.30606	2245.125
3270.57277	2250.225
3272.83812	2255.025
3275.10211	2235.425
3277.36474	2222.025
3279.62601	2225.825
3281.88593	2222.425
3284.14448	2221.425
3286.40168	2222.325
3288.65753	2218.725
3290.91202	2214.225
3293.16516	2207.625
3295.41695	2192.125
3297.66738	2186.725
3299.91647	2173.825
3302.16421	2167.525
3304.4106	2164.525
3306.65564	2136.325
3308.89933	2122.225
3311.14169	2101.525
3313.38269	2092.225
3315.62236	2075.125
3317.86068	2062.025
3320.09766	2036.025
3322.3333	2018.625
3324.5676	2007.825
3326.80056	1975.225
3329.03219	1961.025
3331.26248	2.325
3333.49143	-1.675
3335.71905	-0.375
