Data from AgNPs_UA_50uM_CRN_500uM_SU_RamanShift__54__14-04-50-324.txt Node

Date: Thu Aug 04 14:04:50 BST 2022
User: TCL
Spectrometer: QEP01345
Trigger mode: 4
Integration Time (sec): 1.000000E0
Scans to average: 10
Electric dark correction enabled: true
Nonlinearity correction enabled: false
Boxcar width: 0
XAxis mode: Raman Shifts
Number of Pixels in Spectrum: 1044
>>>>>Begin Spectral Data<<<<<
46.04893	0.9875
50.45542	-0.7125
54.85868	-0.0125
59.25871	-0.2125
63.6555	18.2875
68.04907	17.2875
72.43941	17.3875
76.82654	18.8875
81.21044	20.0875
85.59113	21.4875
89.96862	22.6875
94.34289	23.7875
98.71396	23.6875
103.08183	23.5875
107.4465	23.5875
111.80798	26.1875
116.16626	26.0875
120.52136	29.2875
124.87327	28.7875
129.222	33.2875
133.56755	36.5875
137.90993	37.1875
142.24913	42.9875
146.58517	47.1875
150.91804	57.6875
155.24774	68.2875
159.57429	85.7875
163.89768	111.8875
168.21792	151.7875
172.53501	205.0875
176.84895	292.6875
181.15975	413.7875
185.46741	585.9875
189.77193	814.7875
194.07331	1091.5875
198.37157	1417.4875
202.6667	1756.3875
206.9587	2090.4875
211.24758	2445.4875
215.53334	2799.7875
219.81599	3166.7875
224.09553	3605.3875
228.37195	4083.3875
232.64527	4581.9875
236.91549	5054.3875
241.18261	5477.2875
245.44663	5777.3875
249.70755	6041.1875
253.96539	6247.6875
258.22014	6455.5875
262.4718	6620.3875
266.72039	6737.8875
270.96589	6778.3875
275.20832	6729.3875
279.44768	6618.1875
283.68397	6493.6875
287.91719	6418.3875
292.14735	6449.8875
296.37445	6566.7875
300.59849	6844.7875
304.81948	7117.8875
309.03742	7435.4875
313.25231	7621.7875
317.46415	7527.9875
321.67296	7180.1875
325.87872	6794.3875
330.08145	6609.9875
334.28114	6591.9875
338.47781	6682.5875
342.67145	6798.8875
346.86207	7027.5875
351.04966	7366.7875
355.23424	7714.3875
359.4158	7913.1875
363.59435	8012.0875
367.76989	8005.1875
371.94243	7934.1875
376.11196	7892.9875
380.27849	7833.8875
384.44203	7829.4875
388.60257	7820.8875
392.76012	7877.2875
396.91468	7973.6875
401.06626	8101.5875
405.21485	8155.8875
409.36047	8003.9875
413.50311	7692.6875
417.64277	7410.6875
421.77947	7202.9875
425.9132	7106.3875
430.04396	7106.4875
434.17176	7121.9875
438.2966	7210.9875
442.41849	7371.1875
446.53742	7508.7875
450.6534	7674.7875
454.76644	7752.8875
458.87653	7803.6875
462.98368	7812.1875
467.08789	7724.1875
471.18916	7595.7875
475.2875	7418.2875
479.38291	7264.3875
483.4754	7183.3875
487.56496	7118.2875
491.6516	7044.8875
495.73531	7051.9875
499.81612	7088.0875
503.89401	7152.0875
507.96899	7202.0875
512.04106	7249.8875
516.11023	7322.8875
520.1765	7358.5875
524.23987	7403.1875
528.30034	7376.8875
532.35792	7344.2875
536.41261	7281.2875
540.46441	7166.2875
544.51333	7127.5875
548.55936	7197.8875
552.60252	7290.1875
556.64279	7433.2875
560.6802	7525.2875
564.71473	7676.9875
568.7464	7834.4875
572.7752	7774.0875
576.80114	7511.6875
580.82422	7287.3875
584.84444	7172.2875
588.86181	7177.7875
592.87633	7242.8875
596.888	7383.0875
600.89682	7790.6875
604.9028	8862.2875
608.90594	11141.8875
612.90624	13418.1875
616.90371	12252.7875
620.89834	9073.2875
624.89015	7802.9875
628.87913	7656.9875
632.86528	7836.1875
636.84862	7892.8875
640.82913	7664.4875
644.80683	7305.4875
648.78172	7097.0875
652.75379	7149.3875
656.72306	7426.2875
660.68952	7724.8875
664.65319	7653.2875
668.61405	7485.1875
672.57211	7480.4875
676.52738	7474.5875
680.47986	7293.5875
684.42955	7128.5875
688.37646	7061.7875
692.32058	7160.0875
696.26192	7296.2875
700.20048	7429.9875
704.13626	7459.9875
708.06928	7371.7875
711.99952	7282.3875
715.927	7283.0875
719.85171	7303.5875
723.77365	7348.7875
727.69284	7267.1875
731.60928	7173.0875
735.52295	7154.0875
739.43388	7164.1875
743.34206	7221.1875
747.24749	7237.0875
751.15017	7225.9875
755.05012	7334.4875
758.94733	7680.2875
762.8418	8501.9875
766.73354	9719.4875
770.62254	10672.3875
774.50882	10794.9875
778.39237	10325.1875
782.27321	9435.6875
786.15132	8464.6875
790.02671	7769.9875
793.89938	7450.4875
797.76935	7288.1875
801.6366	7193.4875
805.50115	7150.1875
809.36299	7118.8875
813.22213	7093.5875
817.07857	7090.7875
820.93231	7084.0875
824.78336	7114.8875
828.63172	7138.6875
832.47738	7158.5875
836.32036	7131.3875
840.16066	7099.8875
843.99827	7055.7875
847.8332	7046.6875
851.66546	7063.8875
855.49504	7081.4875
859.32195	7070.4875
863.1462	7060.5875
866.96777	7065.4875
870.78668	7053.6875
874.60293	7051.2875
878.41652	7101.7875
882.22745	7164.9875
886.03573	7208.1875
889.84136	7178.7875
893.64433	7157.5875
897.44466	7126.6875
901.24235	7129.9875
905.0374	7115.0875
908.8298	7060.9875
912.61957	7042.5875
916.40671	7060.6875
920.19121	7084.8875
923.97308	7171.3875
927.75233	7251.6875
931.52895	7314.8875
935.30295	7240.6875
939.07433	7089.1875
942.84309	6983.1875
946.60924	6918.5875
950.37278	6896.7875
954.13371	6909.1875
957.89203	6899.6875
961.64774	6878.5875
965.40086	6858.7875
969.15137	6846.9875
972.89929	6835.3875
976.64461	6827.3875
980.38733	6825.3875
984.12747	6854.6875
987.86502	6882.2875
991.59999	6937.6875
995.33237	7011.2875
999.06217	7137.2875
1002.78939	7240.7875
1006.51404	7383.3875
1010.23611	7504.2875
1013.95561	7579.6875
1017.67255	7595.4875
1021.38692	7553.0875
1025.09872	7480.5875
1028.80796	7443.5875
1032.51465	7469.3875
1036.21877	7504.6875
1039.92035	7532.8875
1043.61937	7546.2875
1047.31584	7531.7875
1051.00976	7492.7875
1054.70114	7467.6875
1058.38998	7478.3875
1062.07627	7513.9875
1065.76003	7580.7875
1069.44126	7635.0875
1073.11995	7820.3875
1076.79611	7940.7875
1080.46974	8108.2875
1084.14085	8238.0875
1087.80943	8338.2875
1091.47549	8358.0875
1095.13903	8300.3875
1098.80005	8218.2875
1102.45857	8248.8875
1106.11456	8199.7875
1109.76805	8130.8875
1113.41903	8156.6875
1117.06751	8300.6875
1120.71348	8484.0875
1124.35696	8757.9875
1127.99793	8940.5875
1131.63641	8756.2875
1135.2724	8405.1875
1138.90589	8095.0875
1142.5369	7932.5875
1146.16542	7841.7875
1149.79145	7788.4875
1153.415	7700.9875
1157.03607	7660.2875
1160.65467	7740.2875
1164.27079	7929.8875
1167.88443	8208.1875
1171.49561	8648.9875
1175.10432	9345.4875
1178.71056	10241.7875
1182.31434	11033.7875
1185.91565	11249.7875
1189.51451	11052.5875
1193.11091	10734.7875
1196.70485	10310.0875
1200.29634	9984.0875
1203.88538	9643.5875
1207.47197	9218.8875
1211.05612	8819.0875
1214.63782	8515.6875
1218.21708	8309.9875
1221.79391	8180.5875
1225.36829	8143.6875
1228.94024	8149.4875
1232.50976	8130.2875
1236.07685	8128.9875
1239.6415	8120.9875
1243.20374	8184.0875
1246.76355	8222.0875
1250.32093	8322.5875
1253.8759	8489.6875
1257.42845	8762.2875
1260.97859	9061.9875
1264.52631	9341.6875
1268.07163	9537.5875
1271.61453	9656.7875
1275.15503	9675.0875
1278.69312	9687.0875
1282.22882	9710.6875
1285.76211	9871.9875
1289.29301	10117.2875
1292.82151	10315.5875
1296.34761	10530.9875
1299.87133	10967.9875
1303.39266	11693.6875
1306.9116	12845.9875
1310.42815	13992.1875
1313.94233	14392.1875
1317.45412	13760.0875
1320.96354	12717.2875
1324.47058	11796.6875
1327.97525	11018.9875
1331.47754	10560.5875
1334.97747	10432.8875
1338.47502	10571.2875
1341.97022	10975.9875
1345.46305	11669.4875
1348.95352	12673.6875
1352.44163	13792.7875
1355.92738	14997.1875
1359.41078	16569.0875
1362.89183	17680.8875
1366.37053	16790.9875
1369.84688	14176.6875
1373.32088	11840.0875
1376.79254	10565.9875
1380.26186	9936.7875
1383.72883	9556.9875
1387.19347	9242.4875
1390.65578	8881.5875
1394.11575	8605.5875
1397.57339	8383.5875
1401.0287	8256.3875
1404.48168	8249.2875
1407.93234	8304.4875
1411.38068	8460.4875
1414.82669	8607.9875
1418.27039	8691.0875
1421.71177	8685.7875
1425.15083	8624.9875
1428.58758	8572.6875
1432.02203	8633.9875
1435.45416	8721.1875
1438.88399	8697.3875
1442.31151	8648.3875
1445.73673	8639.8875
1449.15965	8634.0875
1452.58027	8574.3875
1455.9986	8452.3875
1459.41463	8429.2875
1462.82837	8497.6875
1466.23982	8656.1875
1469.64898	8835.2875
1473.05586	8966.7875
1476.46045	9059.4875
1479.86276	9192.2875
1483.26279	9336.8875
1486.66054	9554.8875
1490.05602	9882.1875
1493.44922	10438.0875
1496.84016	11268.4875
1500.22882	12490.6875
1503.61521	14020.5875
1506.99934	15537.6875
1510.38121	16485.2875
1513.76081	16296.8875
1517.13816	14942.9875
1520.51324	13048.7875
1523.88607	11455.3875
1527.25665	10499.3875
1530.62498	9968.6875
1533.99105	9696.5875
1537.35488	9518.8875
1540.71647	9403.0875
1544.07581	9293.4875
1547.4329	9197.0875
1550.78776	9121.3875
1554.14038	9093.3875
1557.49077	9166.1875
1560.83892	9338.0875
1564.18484	9618.8875
1567.52853	9982.1875
1570.86999	10235.7875
1574.20922	10230.1875
1577.54624	10051.4875
1580.88103	9550.6875
1584.2136	8957.7875
1587.54395	8667.0875
1590.87208	8660.3875
1594.19801	9017.3875
1597.52172	9441.8875
1600.84321	9602.7875
1604.16251	9467.2875
1607.47959	9244.6875
1610.79447	8898.6875
1614.10715	8438.9875
1617.41763	8025.3875
1620.7259	7721.8875
1624.03199	7561.1875
1627.33587	7549.4875
1630.63757	7675.6875
1633.93707	8000.8875
1637.23439	8576.5875
1640.52951	9475.2875
1643.82246	10751.3875
1647.11321	12037.8875
1650.40179	12633.0875
1653.68819	12013.9875
1656.97241	10423.9875
1660.25446	8905.6875
1663.53433	7878.9875
1666.81203	7263.5875
1670.08756	6914.7875
1673.36092	6713.9875
1676.63211	6569.5875
1679.90115	6468.9875
1683.16801	6400.7875
1686.43272	6320.4875
1689.69527	6268.3875
1692.95567	6265.5875
1696.2139	6219.5875
1699.46999	6217.6875
1702.72392	6207.2875
1705.97571	6204.6875
1709.22535	6181.7875
1712.47284	6218.4875
1715.71819	6197.8875
1718.96139	6196.5875
1722.20246	6166.9875
1725.44139	6146.7875
1728.67818	6079.3875
1731.91284	6062.2875
1735.14537	6020.0875
1738.37576	6014.1875
1741.60403	5990.6875
1744.83017	5958.7875
1748.05418	5961.8875
1751.27607	5941.2875
1754.49584	5904.6875
1757.71349	5877.7875
1760.92903	5883.5875
1764.14244	5874.0875
1767.35375	5871.4875
1770.56294	5847.5875
1773.77002	5860.3875
1776.97499	5822.5875
1780.17785	5782.3875
1783.37861	5777.1875
1786.57727	5757.2875
1789.77382	5736.7875
1792.96828	5747.9875
1796.16064	5722.4875
1799.3509	5726.9875
1802.53907	5718.7875
1805.72514	5694.3875
1808.90913	5659.7875
1812.09102	5672.9875
1815.27083	5649.5875
1818.44856	5634.6875
1821.6242	5609.7875
1824.79776	5609.7875
1827.96924	5595.8875
1831.13864	5571.8875
1834.30597	5564.9875
1837.47122	5553.3875
1840.6344	5547.3875
1843.7955	5543.1875
1846.95454	5534.2875
1850.11151	5528.9875
1853.26642	5534.3875
1856.41926	5527.5875
1859.57004	5526.3875
1862.71876	5530.2875
1865.86542	5502.7875
1869.01003	5492.8875
1872.15258	5499.5875
1875.29308	5507.2875
1878.43152	5489.3875
1881.56792	5499.3875
1884.70227	5454.4875
1887.83457	5479.5875
1890.96482	5457.5875
1894.09304	5449.4875
1897.21921	5428.4875
1900.34335	5424.7875
1903.46544	5397.5875
1906.58551	5401.5875
1909.70353	5383.4875
1912.81953	5365.7875
1915.93349	5362.6875
1919.04543	5354.5875
1922.15534	5356.4875
1925.26322	5328.8875
1928.36908	5326.3875
1931.47292	5321.5875
1934.57473	5306.6875
1937.67453	5294.6875
1940.77232	5262.1875
1943.86808	5251.6875
1946.96184	5240.6875
1950.05358	5223.4875
1953.14331	5191.4875
1956.23103	5178.1875
1959.31675	5153.4875
1962.40046	5164.5875
1965.48217	5158.3875
1968.56188	5129.6875
1971.63959	5135.2875
1974.7153	5096.0875
1977.78901	5101.0875
1980.86073	5062.6875
1983.93046	5053.6875
1986.99819	5037.8875
1990.06394	5037.5875
1993.1277	5005.9875
1996.18947	4987.3875
1999.24925	4960.9875
2002.30706	4955.2875
2005.36288	4923.6875
2008.41672	4903.3875
2011.46859	4880.8875
2014.51848	4883.2875
2017.56639	4861.8875
2020.61233	4843.8875
2023.6563	4820.8875
2026.6983	4815.4875
2029.73833	4780.1875
2032.7764	4770.5875
2035.8125	4767.0875
2038.84664	4767.7875
2041.87881	4752.2875
2044.90903	4746.4875
2047.93729	4730.5875
2050.96359	4741.3875
2053.98794	4708.7875
2057.01034	4703.3875
2060.03078	4702.6875
2063.04927	4700.5875
2066.06582	4687.0875
2069.08042	4697.3875
2072.09307	4675.2875
2075.10378	4651.8875
2078.11255	4671.7875
2081.11938	4670.8875
2084.12426	4660.1875
2087.12722	4679.1875
2090.12824	4672.4875
2093.12732	4657.7875
2096.12447	4650.6875
2099.11969	4669.8875
2102.11299	4667.0875
2105.10435	4664.2875
2108.09379	4655.2875
2111.08131	4666.7875
2114.0669	4659.7875
2117.05057	4652.6875
2120.03233	4662.6875
2123.01216	4663.9875
2125.99008	4666.7875
2128.96609	4676.0875
2131.94018	4674.1875
2134.91236	4673.2875
2137.88263	4667.0875
2140.851	4666.2875
2143.81746	4656.2875
2146.78201	4656.3875
2149.74466	4657.3875
2152.7054	4667.5875
2155.66425	4642.7875
2158.6212	4649.6875
2161.57625	4636.5875
2164.52941	4626.4875
2167.48067	4636.7875
2170.43004	4633.3875
2173.37752	4623.3875
2176.32311	4613.5875
2179.26681	4641.0875
2182.20863	4644.6875
2185.14856	4633.0875
2188.08661	4618.6875
2191.02278	4618.7875
2193.95707	4615.1875
2196.88948	4600.6875
2199.82001	4602.1875
2202.74867	4607.8875
2205.67545	4594.1875
2208.60037	4587.3875
2211.52341	4566.0875
2214.44458	4586.4875
2217.36388	4573.0875
2220.28132	4551.9875
2223.1969	4516.2875
2226.11061	4517.3875
2229.02246	4510.0875
2231.93245	4502.4875
2234.84058	4500.7875
2237.74686	4488.3875
2240.65128	4489.7875
2243.55385	4454.1875
2246.45456	4461.6875
2249.35343	4457.3875
2252.25044	4457.2875
2255.14561	4455.8875
2258.03893	4460.7875
2260.93041	4450.0875
2263.82004	4424.1875
2266.70783	4419.2875
2269.59378	4417.7875
2272.4779	4392.1875
2275.36017	4386.9875
2278.24061	4364.6875
2281.11922	4349.7875
2283.996	4354.5875
2286.87094	4345.8875
2289.74405	4346.8875
2292.61534	4328.1875
2295.4848	4345.9875
2298.35243	4332.0875
2301.21824	4330.3875
2304.08223	4312.0875
2306.94439	4315.9875
2309.80474	4309.5875
2312.66327	4302.8875
2315.51999	4297.6875
2318.37489	4300.4875
2321.22797	4292.1875
2324.07925	4267.5875
2326.92871	4253.4875
2329.77637	4269.9875
2332.62222	4243.6875
2335.46626	4249.6875
2338.3085	4235.3875
2341.14893	4252.7875
2343.98756	4253.5875
2346.8244	4237.7875
2349.65943	4242.2875
2352.49267	4229.4875
2355.32411	4220.6875
2358.15376	4236.0875
2360.98161	4220.2875
2363.80768	4240.2875
2366.63195	4227.3875
2369.45444	4222.9875
2372.27514	4225.9875
2375.09405	4206.8875
2377.91118	4194.1875
2380.72652	4186.3875
2383.54009	4166.3875
2386.35187	4169.7875
2389.16188	4141.9875
2391.97011	4138.6875
2394.77657	4128.4875
2397.58125	4105.6875
2400.38416	4098.0875
2403.18529	4090.2875
2405.98466	4102.4875
2408.78226	4084.6875
2411.57809	4072.8875
2414.37216	4071.6875
2417.16446	4058.2875
2419.955	4050.7875
2422.74378	4063.1875
2425.5308	4051.7875
2428.31606	4056.0875
2431.09956	4053.7875
2433.88131	4027.3875
2436.6613	4023.5875
2439.43954	4043.1875
2442.21603	4041.8875
2444.99077	4026.9875
2447.76377	4031.9875
2450.53501	4033.3875
2453.30451	4015.9875
2456.07226	4022.2875
2458.83827	4011.4875
2461.60254	4012.5875
2464.36507	4012.6875
2467.12586	3998.4875
2469.88492	3982.2875
2472.64224	3985.1875
2475.39782	3996.3875
2478.15167	3986.9875
2480.90379	3986.9875
2483.65417	3989.9875
2486.40283	3990.2875
2489.14976	3998.6875
2491.89497	3984.2875
2494.63845	3977.8875
2497.3802	3982.0875
2500.12024	3954.2875
2502.85855	3974.3875
2505.59514	3965.8875
2508.33002	3964.3875
2511.06318	3949.0875
2513.79462	3921.0875
2516.52435	3905.0875
2519.25237	3913.7875
2521.97867	3902.2875
2524.70327	3908.3875
2527.42616	3885.9875
2530.14734	3888.6875
2532.86681	3876.5875
2535.58458	3893.0875
2538.30065	3879.8875
2541.01501	3870.9875
2543.72768	3867.3875
2546.43864	3854.4875
2549.14791	3859.8875
2551.85548	3866.0875
2554.56136	3867.4875
2557.26554	3838.6875
2559.96803	3849.9875
2562.66883	3822.0875
2565.36794	3825.7875
2568.06536	3825.6875
2570.7611	3801.9875
2573.45514	3795.4875
2576.14751	3782.9875
2578.83819	3768.4875
2581.52719	3772.0875
2584.21451	3758.4875
2586.90015	3760.7875
2589.58411	3752.6875
2592.2664	3749.8875
2594.94701	3731.1875
2597.62594	3731.0875
2600.30321	3727.4875
2602.9788	3725.6875
2605.65273	3718.3875
2608.32498	3717.2875
2610.99557	3712.2875
2613.66449	3719.3875
2616.33175	3706.1875
2618.99734	3703.7875
2621.66128	3683.2875
2624.32355	3689.4875
2626.98416	3686.6875
2629.64311	3677.1875
2632.30041	3672.3875
2634.95605	3657.9875
2637.61004	3652.8875
2640.26238	3648.3875
2642.91306	3636.9875
2645.56209	3649.6875
2648.20948	3636.0875
2650.85521	3631.2875
2653.4993	3615.7875
2656.14175	3640.1875
2658.78255	3621.3875
2661.42171	3629.9875
2664.05923	3627.6875
2666.6951	3628.1875
2669.32934	3642.1875
2671.96194	3615.7875
2674.59291	3624.3875
2677.22224	3632.4875
2679.84993	3624.8875
2682.476	3611.4875
2685.10043	3629.7875
2687.72324	3609.1875
2690.34441	3602.3875
2692.96396	3605.5875
2695.58188	3612.2875
2698.19818	3606.0875
2700.81285	3612.2875
2703.4259	3606.0875
2706.03733	3608.5875
2708.64714	3604.1875
2711.25533	3591.4875
2713.86191	3593.4875
2716.46687	3594.8875
2719.07021	3601.8875
2721.67194	3610.1875
2724.27206	3598.1875
2726.87057	3590.1875
2729.46747	3588.2875
2732.06276	3570.3875
2734.65644	3589.1875
2737.24852	3574.3875
2739.83899	3577.5875
2742.42786	3575.8875
2745.01513	3560.6875
2747.60079	3561.0875
2750.18486	3552.1875
2752.76733	3538.8875
2755.3482	3542.8875
2757.92747	3530.0875
2760.50515	3527.8875
2763.08123	3510.8875
2765.65573	3494.2875
2768.22863	3502.4875
2770.79994	3488.1875
2773.36967	3502.3875
2775.9378	3504.9875
2778.50435	3503.9875
2781.06932	3487.1875
2783.6327	3491.6875
2786.1945	3480.4875
2788.75471	3484.9875
2791.31335	3455.6875
2793.87041	3451.3875
2796.42589	3465.0875
2798.97979	3459.3875
2801.53212	3438.6875
2804.08288	3430.6875
2806.63206	3436.7875
2809.17967	3426.9875
2811.72571	3398.7875
2814.27018	3392.9875
2816.81308	3407.5875
2819.35442	3402.9875
2821.89419	3396.9875
2824.43239	3374.0875
2826.96904	3388.8875
2829.50412	3386.0875
2832.03763	3370.6875
2834.56959	3358.8875
2837.1	3351.7875
2839.62884	3360.8875
2842.15613	3343.1875
2844.68186	3346.1875
2847.20604	3333.8875
2849.72867	3328.5875
2852.24974	3321.6875
2854.76927	3315.6875
2857.28724	3303.7875
2859.80367	3313.8875
2862.31855	3312.7875
2864.83189	3309.2875
2867.34368	3308.3875
2869.85393	3310.0875
2872.36264	3291.1875
2874.8698	3297.9875
2877.37543	3304.0875
2879.87952	3296.6875
2882.38207	3291.8875
2884.88308	3280.2875
2887.38256	3274.6875
2889.88051	3258.3875
2892.37692	3260.5875
2894.8718	3246.5875
2897.36515	3250.9875
2899.85698	3249.6875
2902.34727	3250.3875
2904.83604	3263.9875
2907.32328	3285.2875
2909.809	3272.0875
2912.29319	3275.4875
2914.77587	3276.0875
2917.25702	3282.2875
2919.73665	3281.3875
2922.21476	3263.3875
2924.69136	3257.7875
2927.16644	3253.6875
2929.64	3242.2875
2932.11205	3253.7875
2934.58258	3235.3875
2937.05161	3239.3875
2939.51912	3234.0875
2941.98513	3216.5875
2944.44962	3221.6875
2946.91261	3205.5875
2949.37409	3215.4875
2951.83407	3214.6875
2954.29254	3226.6875
2956.74951	3193.6875
2959.20498	3201.0875
2961.65895	3190.0875
2964.11142	3191.4875
2966.56239	3184.9875
2969.01186	3180.3875
2971.45984	3182.9875
2973.90632	3185.3875
2976.35131	3174.8875
2978.7948	3169.4875
2981.23681	3169.2875
2983.67732	3155.9875
2986.11635	3145.1875
2988.55388	3128.2875
2990.98993	3132.6875
2993.4245	3138.3875
2995.85758	3119.7875
2998.28917	3120.1875
3000.71928	3105.0875
3003.14791	3109.7875
3005.57506	3100.7875
3008.00073	3082.1875
3010.42493	3076.1875
3012.84764	3070.1875
3015.26888	3067.1875
3017.68865	3061.0875
3020.10694	3042.6875
3022.52376	3038.1875
3024.9391	3036.2875
3027.35298	3032.1875
3029.76539	3001.5875
3032.17632	3009.3875
3034.5858	3003.8875
3036.9938	2995.3875
3039.40034	2988.4875
3041.80542	2976.6875
3044.20903	2972.7875
3046.61118	2975.7875
3049.01187	2968.1875
3051.4111	2957.7875
3053.80888	2954.4875
3056.20519	2948.0875
3058.60005	2944.4875
3060.99345	2932.9875
3063.3854	2920.3875
3065.7759	2917.2875
3068.16494	2912.5875
3070.55254	2909.7875
3072.93868	2892.5875
3075.32338	2887.3875
3077.70662	2876.5875
3080.08842	2866.5875
3082.46878	2855.2875
3084.84769	2850.5875
3087.22515	2850.3875
3089.60118	2847.8875
3091.97576	2842.1875
3094.3489	2845.7875
3096.72061	2833.8875
3099.09087	2840.0875
3101.4597	2843.7875
3103.82709	2826.6875
3106.19305	2814.9875
3108.55757	2831.8875
3110.92066	2817.8875
3113.28232	2821.9875
3115.64255	2810.2875
3118.00134	2802.0875
3120.35871	2808.0875
3122.71466	2786.7875
3125.06917	2769.1875
3127.42226	2768.3875
3129.77393	2776.6875
3132.12417	2776.1875
3134.47299	2769.9875
3136.82039	2762.7875
3139.16636	2755.4875
3141.51092	2754.9875
3143.85406	2748.7875
3146.19579	2743.6875
3148.53609	2745.4875
3150.87499	2744.7875
3153.21246	2742.4875
3155.54853	2755.7875
3157.88318	2754.5875
3160.21642	2761.3875
3162.54826	2741.4875
3164.87868	2739.1875
3167.2077	2744.4875
3169.5353	2728.9875
3171.86151	2723.3875
3174.18631	2717.6875
3176.5097	2718.7875
3178.83169	2714.3875
3181.15228	2713.6875
3183.47147	2697.0875
3185.78926	2697.9875
3188.10565	2686.6875
3190.42065	2683.8875
3192.73424	2682.5875
3195.04645	2663.6875
3197.35725	2676.5875
3199.66667	2666.3875
3201.97469	2687.7875
3204.28132	2673.0875
3206.58656	2670.1875
3208.8904	2673.4875
3211.19287	2671.5875
3213.49394	2671.3875
3215.79363	2668.3875
3218.09193	2659.9875
3220.38884	2668.0875
3222.68438	2659.3875
3224.97853	2646.1875
3227.2713	2668.2875
3229.56269	2651.2875
3231.8527	2635.6875
3234.14133	2641.0875
3236.42858	2623.5875
3238.71446	2624.0875
3240.99896	2609.8875
3243.28209	2600.2875
3245.56384	2608.7875
3247.84423	2618.8875
3250.12324	2598.0875
3252.40088	2604.7875
3254.67715	2599.8875
3256.95205	2592.0875
3259.22558	2581.6875
3261.49775	2593.1875
3263.76855	2581.6875
3266.03799	2581.9875
3268.30606	2581.4875
3270.57277	2567.2875
3272.83812	2569.9875
3275.10211	2548.0875
3277.36474	2546.8875
3279.62601	2557.1875
3281.88593	2539.6875
3284.14448	2540.9875
3286.40168	2544.5875
3288.65753	2551.3875
3290.91202	2536.9875
3293.16516	2541.4875
3295.41695	2537.7875
3297.66738	2515.1875
3299.91647	2513.0875
3302.16421	2483.7875
3304.4106	2474.6875
3306.65564	2466.5875
3308.89933	2443.9875
3311.14169	2420.3875
3313.38269	2407.1875
3315.62236	2381.2875
3317.86068	2370.5875
3320.09766	2357.0875
3322.3333	2331.4875
3324.5676	2319.5875
3326.80056	2287.2875
3329.03219	2266.2875
3331.26248	0.3875
3333.49143	0.1875
3335.71905	0.0875
