Data from AgNPs_UA_50uM_CRN_500uM_SU_RamanShift__48__14-03-50-323.txt Node

Date: Thu Aug 04 14:03:50 BST 2022
User: TCL
Spectrometer: QEP01345
Trigger mode: 4
Integration Time (sec): 1.000000E0
Scans to average: 10
Electric dark correction enabled: true
Nonlinearity correction enabled: false
Boxcar width: 0
XAxis mode: Raman Shifts
Number of Pixels in Spectrum: 1044
>>>>>Begin Spectral Data<<<<<
46.04893	1.6875
50.45542	0.0875
54.85868	-0.5125
59.25871	-1.4125
63.6555	18.2875
68.04907	16.9875
72.43941	17.3875
76.82654	19.2875
81.21044	21.2875
85.59113	21.3875
89.96862	20.8875
94.34289	22.8875
98.71396	23.7875
103.08183	22.8875
107.4465	23.9875
111.80798	23.0875
116.16626	25.0875
120.52136	26.1875
124.87327	30.3875
129.222	32.5875
133.56755	33.0875
137.90993	36.6875
142.24913	39.5875
146.58517	45.4875
150.91804	55.1875
155.24774	63.7875
159.57429	82.4875
163.89768	105.7875
168.21792	142.6875
172.53501	201.9875
176.84895	281.9875
181.15975	402.5875
185.46741	573.0875
189.77193	789.7875
194.07331	1068.6875
198.37157	1376.0875
202.6667	1704.1875
206.9587	2046.9875
211.24758	2377.6875
215.53334	2713.4875
219.81599	3099.8875
224.09553	3512.9875
228.37195	3969.5875
232.64527	4450.1875
236.91549	4938.2875
241.18261	5331.6875
245.44663	5648.1875
249.70755	5894.9875
253.96539	6101.2875
258.22014	6267.7875
262.4718	6435.8875
266.72039	6552.7875
270.96589	6598.5875
275.20832	6544.7875
279.44768	6434.1875
283.68397	6335.0875
287.91719	6270.9875
292.14735	6270.7875
296.37445	6387.0875
300.59849	6655.5875
304.81948	6949.8875
309.03742	7236.6875
313.25231	7404.3875
317.46415	7326.6875
321.67296	6986.3875
325.87872	6623.5875
330.08145	6396.8875
334.28114	6411.0875
338.47781	6487.0875
342.67145	6629.3875
346.86207	6854.2875
351.04966	7195.9875
355.23424	7520.8875
359.4158	7729.0875
363.59435	7796.4875
367.76989	7790.3875
371.94243	7719.8875
376.11196	7684.6875
380.27849	7636.8875
384.44203	7614.3875
388.60257	7613.6875
392.76012	7672.5875
396.91468	7767.1875
401.06626	7887.9875
405.21485	7940.1875
409.36047	7780.6875
413.50311	7500.0875
417.64277	7193.6875
421.77947	7028.3875
425.9132	6927.4875
430.04396	6924.4875
434.17176	6948.6875
438.2966	7029.3875
442.41849	7152.0875
446.53742	7302.2875
450.6534	7471.5875
454.76644	7530.0875
458.87653	7574.8875
462.98368	7578.4875
467.08789	7543.7875
471.18916	7400.6875
475.2875	7217.8875
479.38291	7077.1875
483.4754	6988.8875
487.56496	6947.5875
491.6516	6898.5875
495.73531	6901.8875
499.81612	6920.6875
503.89401	6989.2875
507.96899	7041.0875
512.04106	7071.3875
516.11023	7151.2875
520.1765	7205.5875
524.23987	7218.5875
528.30034	7211.5875
532.35792	7173.9875
536.41261	7110.5875
540.46441	7006.4875
544.51333	6965.6875
548.55936	7006.1875
552.60252	7117.2875
556.64279	7251.4875
560.6802	7367.3875
564.71473	7477.9875
568.7464	7625.4875
572.7752	7593.7875
576.80114	7327.5875
580.82422	7107.0875
584.84444	7010.5875
588.86181	6970.1875
592.87633	7027.0875
596.888	7160.3875
600.89682	7582.6875
604.9028	8592.3875
608.90594	10754.8875
612.90624	12997.9875
616.90371	11854.0875
620.89834	8825.6875
624.89015	7577.2875
628.87913	7430.0875
632.86528	7625.1875
636.84862	7730.6875
640.82913	7495.4875
644.80683	7164.7875
648.78172	6985.4875
652.75379	6996.5875
656.72306	7247.3875
660.68952	7560.9875
664.65319	7459.4875
668.61405	7290.5875
672.57211	7324.3875
676.52738	7319.8875
680.47986	7131.5875
684.42955	6959.0875
688.37646	6928.5875
692.32058	7000.8875
696.26192	7143.2875
700.20048	7290.1875
704.13626	7287.0875
708.06928	7222.3875
711.99952	7137.3875
715.927	7126.1875
719.85171	7172.0875
723.77365	7186.0875
727.69284	7094.7875
731.60928	7033.6875
735.52295	7013.5875
739.43388	7024.4875
743.34206	7081.7875
747.24749	7067.4875
751.15017	7081.0875
755.05012	7173.4875
758.94733	7491.9875
762.8418	8289.6875
766.73354	9460.9875
770.62254	10355.1875
774.50882	10512.6875
778.39237	10070.4875
782.27321	9239.9875
786.15132	8298.8875
790.02671	7621.1875
793.89938	7276.4875
797.76935	7131.5875
801.6366	7059.0875
805.50115	7009.5875
809.36299	6982.2875
813.22213	6956.3875
817.07857	6970.1875
820.93231	6959.1875
824.78336	6978.1875
828.63172	6991.9875
832.47738	7016.0875
836.32036	6990.1875
840.16066	6953.4875
843.99827	6922.2875
847.8332	6930.1875
851.66546	6902.5875
855.49504	6944.0875
859.32195	6938.5875
863.1462	6932.8875
866.96777	6919.4875
870.78668	6933.1875
874.60293	6948.6875
878.41652	6988.0875
882.22745	7029.5875
886.03573	7072.9875
889.84136	7067.5875
893.64433	7049.8875
897.44466	7004.6875
901.24235	6999.9875
905.0374	6968.4875
908.8298	6949.1875
912.61957	6919.6875
916.40671	6906.5875
920.19121	6951.1875
923.97308	7017.2875
927.75233	7085.4875
931.52895	7138.9875
935.30295	7076.3875
939.07433	6936.7875
942.84309	6841.4875
946.60924	6785.7875
950.37278	6793.3875
954.13371	6782.8875
957.89203	6779.8875
961.64774	6749.2875
965.40086	6744.8875
969.15137	6718.3875
972.89929	6722.3875
976.64461	6726.4875
980.38733	6717.5875
984.12747	6726.2875
987.86502	6770.8875
991.59999	6809.0875
995.33237	6873.7875
999.06217	6941.9875
1002.78939	7042.0875
1006.51404	7178.0875
1010.23611	7312.7875
1013.95561	7383.1875
1017.67255	7386.4875
1021.38692	7350.5875
1025.09872	7236.3875
1028.80796	7158.0875
1032.51465	7183.4875
1036.21877	7195.4875
1039.92035	7233.5875
1043.61937	7261.7875
1047.31584	7275.2875
1051.00976	7264.6875
1054.70114	7291.1875
1058.38998	7304.5875
1062.07627	7298.4875
1065.76003	7368.2875
1069.44126	7480.9875
1073.11995	7633.2875
1076.79611	7794.1875
1080.46974	7901.1875
1084.14085	8038.5875
1087.80943	8136.6875
1091.47549	8170.7875
1095.13903	8131.6875
1098.80005	8069.7875
1102.45857	8090.2875
1106.11456	8043.7875
1109.76805	7950.9875
1113.41903	7974.7875
1117.06751	8098.9875
1120.71348	8309.1875
1124.35696	8559.6875
1127.99793	8716.8875
1131.63641	8506.7875
1135.2724	8188.9875
1138.90589	7903.6875
1142.5369	7786.6875
1146.16542	7670.0875
1149.79145	7602.9875
1153.415	7528.9875
1157.03607	7484.7875
1160.65467	7545.4875
1164.27079	7720.5875
1167.88443	7968.0875
1171.49561	8393.1875
1175.10432	9024.5875
1178.71056	9905.4875
1182.31434	10618.1875
1185.91565	10781.9875
1189.51451	10642.3875
1193.11091	10355.0875
1196.70485	9999.4875
1200.29634	9698.1875
1203.88538	9386.3875
1207.47197	8965.4875
1211.05612	8617.5875
1214.63782	8308.5875
1218.21708	8087.3875
1221.79391	7947.5875
1225.36829	7899.2875
1228.94024	7876.9875
1232.50976	7869.7875
1236.07685	7901.9875
1239.6415	7916.3875
1243.20374	7960.4875
1246.76355	8008.3875
1250.32093	8097.6875
1253.8759	8240.5875
1257.42845	8500.7875
1260.97859	8772.0875
1264.52631	9017.0875
1268.07163	9201.0875
1271.61453	9287.1875
1275.15503	9319.5875
1278.69312	9277.9875
1282.22882	9296.0875
1285.76211	9430.1875
1289.29301	9669.4875
1292.82151	9853.0875
1296.34761	10089.0875
1299.87133	10458.8875
1303.39266	11150.8875
1306.9116	12152.5875
1310.42815	13273.2875
1313.94233	13613.2875
1317.45412	12990.7875
1320.96354	12008.7875
1324.47058	11143.4875
1327.97525	10468.3875
1331.47754	10013.8875
1334.97747	9892.7875
1338.47502	10018.7875
1341.97022	10436.1875
1345.46305	11126.7875
1348.95352	12109.6875
1352.44163	13172.9875
1355.92738	14327.2875
1359.41078	15795.6875
1362.89183	16934.1875
1366.37053	16115.3875
1369.84688	13580.2875
1373.32088	11358.7875
1376.79254	10123.1875
1380.26186	9537.2875
1383.72883	9184.4875
1387.19347	8850.2875
1390.65578	8539.2875
1394.11575	8248.4875
1397.57339	8067.7875
1401.0287	7939.6875
1404.48168	7908.2875
1407.93234	7953.6875
1411.38068	8131.3875
1414.82669	8283.5875
1418.27039	8337.8875
1421.71177	8304.1875
1425.15083	8262.3875
1428.58758	8204.9875
1432.02203	8251.5875
1435.45416	8321.8875
1438.88399	8290.4875
1442.31151	8250.1875
1445.73673	8263.8875
1449.15965	8260.0875
1452.58027	8202.3875
1455.9986	8121.4875
1459.41463	8103.3875
1462.82837	8163.5875
1466.23982	8314.2875
1469.64898	8476.2875
1473.05586	8598.3875
1476.46045	8690.6875
1479.86276	8763.8875
1483.26279	8946.6875
1486.66054	9178.5875
1490.05602	9494.4875
1493.44922	10022.4875
1496.84016	10838.9875
1500.22882	12006.1875
1503.61521	13512.9875
1506.99934	14978.0875
1510.38121	15875.3875
1513.76081	15706.0875
1517.13816	14342.3875
1520.51324	12536.6875
1523.88607	11041.5875
1527.25665	10057.1875
1530.62498	9576.1875
1533.99105	9315.5875
1537.35488	9164.4875
1540.71647	9036.1875
1544.07581	8942.4875
1547.4329	8872.4875
1550.78776	8783.8875
1554.14038	8757.7875
1557.49077	8816.3875
1560.83892	9001.6875
1564.18484	9240.9875
1567.52853	9602.1875
1570.86999	9828.9875
1574.20922	9872.3875
1577.54624	9704.6875
1580.88103	9204.5875
1584.2136	8655.0875
1587.54395	8337.2875
1590.87208	8323.1875
1594.19801	8595.6875
1597.52172	8933.2875
1600.84321	9085.2875
1604.16251	8964.6875
1607.47959	8770.0875
1610.79447	8492.1875
1614.10715	8108.8875
1617.41763	7721.1875
1620.7259	7447.9875
1624.03199	7319.3875
1627.33587	7274.1875
1630.63757	7404.1875
1633.93707	7654.4875
1637.23439	8157.1875
1640.52951	9000.1875
1643.82246	10167.4875
1647.11321	11396.5875
1650.40179	12001.8875
1653.68819	11457.3875
1656.97241	10046.2875
1660.25446	8618.8875
1663.53433	7661.7875
1666.81203	7100.6875
1670.08756	6754.1875
1673.36092	6533.6875
1676.63211	6409.9875
1679.90115	6318.1875
1683.16801	6232.6875
1686.43272	6194.3875
1689.69527	6153.4875
1692.95567	6119.1875
1696.2139	6094.7875
1699.46999	6058.0875
1702.72392	6086.7875
1705.97571	6071.0875
1709.22535	6054.9875
1712.47284	6053.1875
1715.71819	6052.1875
1718.96139	6063.0875
1722.20246	6031.6875
1725.44139	6011.7875
1728.67818	5983.5875
1731.91284	5933.9875
1735.14537	5885.9875
1738.37576	5874.9875
1741.60403	5855.9875
1744.83017	5834.9875
1748.05418	5818.1875
1751.27607	5800.8875
1754.49584	5775.0875
1757.71349	5770.3875
1760.92903	5778.6875
1764.14244	5760.3875
1767.35375	5747.7875
1770.56294	5742.5875
1773.77002	5721.2875
1776.97499	5701.5875
1780.17785	5671.1875
1783.37861	5661.7875
1786.57727	5639.4875
1789.77382	5615.5875
1792.96828	5628.0875
1796.16064	5623.8875
1799.3509	5597.5875
1802.53907	5584.2875
1805.72514	5579.7875
1808.90913	5559.5875
1812.09102	5537.2875
1815.27083	5533.5875
1818.44856	5525.2875
1821.6242	5499.8875
1824.79776	5496.8875
1827.96924	5474.2875
1831.13864	5450.7875
1834.30597	5437.9875
1837.47122	5441.7875
1840.6344	5432.7875
1843.7955	5431.3875
1846.95454	5431.9875
1850.11151	5436.0875
1853.26642	5429.1875
1856.41926	5417.8875
1859.57004	5406.7875
1862.71876	5388.4875
1865.86542	5389.3875
1869.01003	5374.0875
1872.15258	5383.1875
1875.29308	5377.7875
1878.43152	5370.4875
1881.56792	5353.4875
1884.70227	5357.1875
1887.83457	5344.8875
1890.96482	5329.0875
1894.09304	5317.7875
1897.21921	5317.0875
1900.34335	5302.2875
1903.46544	5272.4875
1906.58551	5280.9875
1909.70353	5263.7875
1912.81953	5245.3875
1915.93349	5252.6875
1919.04543	5244.6875
1922.15534	5216.3875
1925.26322	5216.1875
1928.36908	5201.7875
1931.47292	5194.6875
1934.57473	5186.1875
1937.67453	5165.0875
1940.77232	5141.8875
1943.86808	5119.3875
1946.96184	5111.5875
1950.05358	5100.4875
1953.14331	5090.5875
1956.23103	5059.7875
1959.31675	5040.6875
1962.40046	5040.9875
1965.48217	5033.3875
1968.56188	5013.3875
1971.63959	4998.8875
1974.7153	5004.8875
1977.78901	4990.8875
1980.86073	4961.8875
1983.93046	4928.7875
1986.99819	4915.0875
1990.06394	4905.9875
1993.1277	4885.1875
1996.18947	4857.2875
1999.24925	4848.7875
2002.30706	4831.7875
2005.36288	4799.6875
2008.41672	4783.9875
2011.46859	4765.2875
2014.51848	4772.0875
2017.56639	4753.1875
2020.61233	4746.4875
2023.6563	4711.3875
2026.6983	4697.0875
2029.73833	4677.6875
2032.7764	4660.2875
2035.8125	4653.0875
2038.84664	4642.8875
2041.87881	4641.8875
2044.90903	4621.8875
2047.93729	4603.8875
2050.96359	4613.7875
2053.98794	4605.8875
2057.01034	4580.8875
2060.03078	4591.5875
2063.04927	4599.6875
2066.06582	4597.8875
2069.08042	4569.9875
2072.09307	4551.5875
2075.10378	4540.6875
2078.11255	4546.9875
2081.11938	4536.0875
2084.12426	4543.7875
2087.12722	4550.3875
2090.12824	4540.8875
2093.12732	4539.8875
2096.12447	4555.8875
2099.11969	4558.1875
2102.11299	4561.2875
2105.10435	4551.4875
2108.09379	4553.6875
2111.08131	4541.5875
2114.0669	4548.3875
2117.05057	4540.4875
2120.03233	4543.9875
2123.01216	4547.7875
2125.99008	4557.4875
2128.96609	4563.2875
2131.94018	4553.9875
2134.91236	4547.1875
2137.88263	4553.6875
2140.851	4548.0875
2143.81746	4544.1875
2146.78201	4545.2875
2149.74466	4548.2875
2152.7054	4526.3875
2155.66425	4536.9875
2158.6212	4530.0875
2161.57625	4533.6875
2164.52941	4525.7875
2167.48067	4515.7875
2170.43004	4513.6875
2173.37752	4520.2875
2176.32311	4515.8875
2179.26681	4526.6875
2182.20863	4507.1875
2185.14856	4508.1875
2188.08661	4500.2875
2191.02278	4496.8875
2193.95707	4477.0875
2196.88948	4461.5875
2199.82001	4466.4875
2202.74867	4481.3875
2205.67545	4464.9875
2208.60037	4468.8875
2211.52341	4472.1875
2214.44458	4456.3875
2217.36388	4453.2875
2220.28132	4441.0875
2223.1969	4401.2875
2226.11061	4398.1875
2229.02246	4372.2875
2231.93245	4388.6875
2234.84058	4383.2875
2237.74686	4357.1875
2240.65128	4359.8875
2243.55385	4345.0875
2246.45456	4347.2875
2249.35343	4347.9875
2252.25044	4339.6875
2255.14561	4320.9875
2258.03893	4318.2875
2260.93041	4333.6875
2263.82004	4314.4875
2266.70783	4319.9875
2269.59378	4297.6875
2272.4779	4286.3875
2275.36017	4252.3875
2278.24061	4251.3875
2281.11922	4235.0875
2283.996	4226.2875
2286.87094	4217.1875
2289.74405	4226.8875
2292.61534	4216.2875
2295.4848	4213.0875
2298.35243	4211.6875
2301.21824	4210.9875
2304.08223	4219.3875
2306.94439	4189.5875
2309.80474	4190.3875
2312.66327	4177.7875
2315.51999	4171.8875
2318.37489	4178.0875
2321.22797	4159.4875
2324.07925	4157.0875
2326.92871	4121.9875
2329.77637	4138.6875
2332.62222	4130.4875
2335.46626	4123.2875
2338.3085	4113.8875
2341.14893	4131.8875
2343.98756	4118.1875
2346.8244	4099.1875
2349.65943	4098.0875
2352.49267	4088.3875
2355.32411	4105.2875
2358.15376	4089.2875
2360.98161	4086.8875
2363.80768	4103.3875
2366.63195	4095.0875
2369.45444	4087.4875
2372.27514	4082.4875
2375.09405	4092.3875
2377.91118	4085.7875
2380.72652	4047.3875
2383.54009	4043.4875
2386.35187	4029.3875
2389.16188	4014.0875
2391.97011	4017.6875
2394.77657	4006.0875
2397.58125	3988.6875
2400.38416	3968.9875
2403.18529	3975.0875
2405.98466	3992.0875
2408.78226	3973.5875
2411.57809	3963.7875
2414.37216	3950.3875
2417.16446	3932.7875
2419.955	3929.3875
2422.74378	3938.2875
2425.5308	3938.3875
2428.31606	3929.1875
2431.09956	3930.9875
2433.88131	3924.0875
2436.6613	3912.1875
2439.43954	3930.1875
2442.21603	3908.5875
2444.99077	3905.5875
2447.76377	3907.5875
2450.53501	3897.4875
2453.30451	3896.6875
2456.07226	3901.4875
2458.83827	3899.1875
2461.60254	3889.8875
2464.36507	3896.1875
2467.12586	3885.6875
2469.88492	3872.9875
2472.64224	3861.0875
2475.39782	3863.2875
2478.15167	3865.6875
2480.90379	3845.7875
2483.65417	3859.9875
2486.40283	3866.1875
2489.14976	3873.4875
2491.89497	3860.1875
2494.63845	3881.3875
2497.3802	3836.7875
2500.12024	3838.6875
2502.85855	3830.8875
2505.59514	3825.2875
2508.33002	3826.2875
2511.06318	3824.9875
2513.79462	3794.3875
2516.52435	3781.4875
2519.25237	3779.6875
2521.97867	3767.6875
2524.70327	3750.2875
2527.42616	3762.5875
2530.14734	3757.4875
2532.86681	3751.7875
2535.58458	3751.7875
2538.30065	3753.8875
2541.01501	3759.0875
2543.72768	3743.3875
2546.43864	3727.2875
2549.14791	3717.8875
2551.85548	3717.7875
2554.56136	3696.7875
2557.26554	3707.1875
2559.96803	3697.9875
2562.66883	3700.2875
2565.36794	3697.1875
2568.06536	3684.3875
2570.7611	3654.1875
2573.45514	3668.2875
2576.14751	3643.8875
2578.83819	3641.4875
2581.52719	3628.0875
2584.21451	3632.2875
2586.90015	3621.4875
2589.58411	3625.6875
2592.2664	3607.9875
2594.94701	3607.1875
2597.62594	3594.3875
2600.30321	3597.9875
2602.9788	3592.5875
2605.65273	3595.9875
2608.32498	3585.9875
2610.99557	3577.8875
2613.66449	3576.9875
2616.33175	3579.5875
2618.99734	3559.6875
2621.66128	3562.5875
2624.32355	3554.2875
2626.98416	3539.5875
2629.64311	3525.8875
2632.30041	3521.0875
2634.95605	3519.3875
2637.61004	3506.6875
2640.26238	3495.4875
2642.91306	3483.2875
2645.56209	3493.3875
2648.20948	3496.3875
2650.85521	3485.0875
2653.4993	3467.5875
2656.14175	3480.9875
2658.78255	3485.2875
2661.42171	3491.8875
2664.05923	3486.9875
2666.6951	3481.3875
2669.32934	3479.9875
2671.96194	3480.4875
2674.59291	3478.2875
2677.22224	3474.7875
2679.84993	3486.9875
2682.476	3471.5875
2685.10043	3471.3875
2687.72324	3461.3875
2690.34441	3464.3875
2692.96396	3463.5875
2695.58188	3454.4875
2698.19818	3452.4875
2700.81285	3466.8875
2703.4259	3454.5875
2706.03733	3478.4875
2708.64714	3453.7875
2711.25533	3449.5875
2713.86191	3452.3875
2716.46687	3443.7875
2719.07021	3447.5875
2721.67194	3443.6875
2724.27206	3452.7875
2726.87057	3443.2875
2729.46747	3437.6875
2732.06276	3434.5875
2734.65644	3449.8875
2737.24852	3422.2875
2739.83899	3423.6875
2742.42786	3441.2875
2745.01513	3410.3875
2747.60079	3407.8875
2750.18486	3414.7875
2752.76733	3396.4875
2755.3482	3394.4875
2757.92747	3380.6875
2760.50515	3375.7875
2763.08123	3381.5875
2765.65573	3364.5875
2768.22863	3357.3875
2770.79994	3345.7875
2773.36967	3348.0875
2775.9378	3360.1875
2778.50435	3340.3875
2781.06932	3346.6875
2783.6327	3332.1875
2786.1945	3329.1875
2788.75471	3337.0875
2791.31335	3311.5875
2793.87041	3312.1875
2796.42589	3311.2875
2798.97979	3296.3875
2801.53212	3303.7875
2804.08288	3294.2875
2806.63206	3281.9875
2809.17967	3272.2875
2811.72571	3266.2875
2814.27018	3259.0875
2816.81308	3261.7875
2819.35442	3239.9875
2821.89419	3238.7875
2824.43239	3241.4875
2826.96904	3234.9875
2829.50412	3218.5875
2832.03763	3220.1875
2834.56959	3216.9875
2837.1	3202.6875
2839.62884	3210.9875
2842.15613	3196.5875
2844.68186	3204.9875
2847.20604	3186.8875
2849.72867	3182.0875
2852.24974	3180.1875
2854.76927	3163.8875
2857.28724	3153.2875
2859.80367	3166.2875
2862.31855	3161.9875
2864.83189	3149.6875
2867.34368	3153.7875
2869.85393	3153.1875
2872.36264	3155.0875
2874.8698	3140.8875
2877.37543	3159.5875
2879.87952	3150.9875
2882.38207	3132.4875
2884.88308	3135.0875
2887.38256	3122.1875
2889.88051	3113.4875
2892.37692	3113.6875
2894.8718	3101.2875
2897.36515	3098.9875
2899.85698	3112.1875
2902.34727	3113.2875
2904.83604	3109.7875
2907.32328	3109.0875
2909.809	3119.7875
2912.29319	3121.5875
2914.77587	3128.4875
2917.25702	3124.4875
2919.73665	3113.6875
2922.21476	3121.4875
2924.69136	3118.3875
2927.16644	3093.7875
2929.64	3102.4875
2932.11205	3089.3875
2934.58258	3086.3875
2937.05161	3074.9875
2939.51912	3082.5875
2941.98513	3062.1875
2944.44962	3059.0875
2946.91261	3057.7875
2949.37409	3054.8875
2951.83407	3062.1875
2954.29254	3068.5875
2956.74951	3067.6875
2959.20498	3041.2875
2961.65895	3042.7875
2964.11142	3041.1875
2966.56239	3029.8875
2969.01186	3036.2875
2971.45984	3026.8875
2973.90632	3038.7875
2976.35131	3031.8875
2978.7948	3023.9875
2981.23681	3020.9875
2983.67732	3007.5875
2986.11635	2998.4875
2988.55388	2993.0875
2990.98993	2992.4875
2993.4245	2980.5875
2995.85758	2971.1875
2998.28917	2957.3875
3000.71928	2962.8875
3003.14791	2960.0875
3005.57506	2958.4875
3008.00073	2945.9875
3010.42493	2944.2875
3012.84764	2929.0875
3015.26888	2936.8875
3017.68865	2924.1875
3020.10694	2907.1875
3022.52376	2898.4875
3024.9391	2883.1875
3027.35298	2879.3875
3029.76539	2863.0875
3032.17632	2860.8875
3034.5858	2863.0875
3036.9938	2853.8875
3039.40034	2836.2875
3041.80542	2845.0875
3044.20903	2841.4875
3046.61118	2845.2875
3049.01187	2822.7875
3051.4111	2825.0875
3053.80888	2814.0875
3056.20519	2797.5875
3058.60005	2795.9875
3060.99345	2799.9875
3063.3854	2794.5875
3065.7759	2785.6875
3068.16494	2772.6875
3070.55254	2751.9875
3072.93868	2759.2875
3075.32338	2741.1875
3077.70662	2741.7875
3080.08842	2735.4875
3082.46878	2726.4875
3084.84769	2713.8875
3087.22515	2717.3875
3089.60118	2711.1875
3091.97576	2705.6875
3094.3489	2710.7875
3096.72061	2703.2875
3099.09087	2712.0875
3101.4597	2706.1875
3103.82709	2691.5875
3106.19305	2697.9875
3108.55757	2696.5875
3110.92066	2691.8875
3113.28232	2683.2875
3115.64255	2673.1875
3118.00134	2678.5875
3120.35871	2661.0875
3122.71466	2657.3875
3125.06917	2641.9875
3127.42226	2646.4875
3129.77393	2640.0875
3132.12417	2631.0875
3134.47299	2627.6875
3136.82039	2627.4875
3139.16636	2633.6875
3141.51092	2622.9875
3143.85406	2616.6875
3146.19579	2617.8875
3148.53609	2616.1875
3150.87499	2612.3875
3153.21246	2624.0875
3155.54853	2625.1875
3157.88318	2623.8875
3160.21642	2628.6875
3162.54826	2621.3875
3164.87868	2609.1875
3167.2077	2598.2875
3169.5353	2601.1875
3171.86151	2586.9875
3174.18631	2589.7875
3176.5097	2596.9875
3178.83169	2589.3875
3181.15228	2579.0875
3183.47147	2570.9875
3185.78926	2564.1875
3188.10565	2549.8875
3190.42065	2548.7875
3192.73424	2539.1875
3195.04645	2539.2875
3197.35725	2546.3875
3199.66667	2525.2875
3201.97469	2550.6875
3204.28132	2542.4875
3206.58656	2550.9875
3208.8904	2529.2875
3211.19287	2537.3875
3213.49394	2545.7875
3215.79363	2534.1875
3218.09193	2530.2875
3220.38884	2537.0875
3222.68438	2527.0875
3224.97853	2528.7875
3227.2713	2532.1875
3229.56269	2518.8875
3231.8527	2511.1875
3234.14133	2508.0875
3236.42858	2498.8875
3238.71446	2494.9875
3240.99896	2477.2875
3243.28209	2481.2875
3245.56384	2478.6875
3247.84423	2474.6875
3250.12324	2472.9875
3252.40088	2472.1875
3254.67715	2471.2875
3256.95205	2456.4875
3259.22558	2452.1875
3261.49775	2462.1875
3263.76855	2462.0875
3266.03799	2447.6875
3268.30606	2444.6875
3270.57277	2445.9875
3272.83812	2431.9875
3275.10211	2431.1875
3277.36474	2419.6875
3279.62601	2420.2875
3281.88593	2409.3875
3284.14448	2408.5875
3286.40168	2412.3875
3288.65753	2412.3875
3290.91202	2408.6875
3293.16516	2398.4875
3295.41695	2412.9875
3297.66738	2392.8875
3299.91647	2369.9875
3302.16421	2352.1875
3304.4106	2341.3875
3306.65564	2333.2875
3308.89933	2320.2875
3311.14169	2282.0875
3313.38269	2275.5875
3315.62236	2262.8875
3317.86068	2251.0875
3320.09766	2235.9875
3322.3333	2207.9875
3324.5676	2209.9875
3326.80056	2169.1875
3329.03219	2134.8875
3331.26248	0.1875
3333.49143	0.0875
3335.71905	-0.4125
