Data from AgNPs_UA_5uM_CRN_500uM_SU_RamanShift__170__11-57-43-173.txt Node

Date: Thu Aug 04 11:57:43 BST 2022
User: TCL
Spectrometer: QEP01345
Trigger mode: 4
Integration Time (sec): 1.000000E0
Scans to average: 10
Electric dark correction enabled: true
Nonlinearity correction enabled: false
Boxcar width: 0
XAxis mode: Raman Shifts
Number of Pixels in Spectrum: 1044
>>>>>Begin Spectral Data<<<<<
46.04893	-0.9125
50.45542	0.6875
54.85868	0.3875
59.25871	0.5875
63.6555	-56.3125
68.04907	-37.9125
72.43941	-69.9125
76.82654	-54.3125
81.21044	-56.6125
85.59113	-47.9125
89.96862	-74.9125
94.34289	-53.2125
98.71396	-77.3125
103.08183	-58.0125
107.4465	-48.9125
111.80798	-54.1125
116.16626	-42.4125
120.52136	-74.2125
124.87327	-49.4125
129.222	-63.0125
133.56755	-49.5125
137.90993	-61.6125
142.24913	-50.1125
146.58517	-43.3125
150.91804	-38.4125
155.24774	-27.8125
159.57429	-8.4125
163.89768	-4.8125
168.21792	40.2875
172.53501	60.8875
176.84895	143.4875
181.15975	271.3875
185.46741	425.5875
189.77193	611.6875
194.07331	898.7875
198.37157	1194.1875
202.6667	1479.1875
206.9587	1809.6875
211.24758	2129.7875
215.53334	2459.3875
219.81599	2816.6875
224.09553	3222.7875
228.37195	3664.2875
232.64527	4124.7875
236.91549	4595.1875
241.18261	4960.5875
245.44663	5253.9875
249.70755	5437.1875
253.96539	5550.6875
258.22014	5686.7875
262.4718	5751.3875
266.72039	5769.8875
270.96589	5741.5875
275.20832	5636.3875
279.44768	5543.6875
283.68397	5426.1875
287.91719	5377.3875
292.14735	5388.8875
296.37445	5553.0875
300.59849	5855.5875
304.81948	6183.6875
309.03742	6551.4875
313.25231	6781.6875
317.46415	6734.4875
321.67296	6336.1875
325.87872	5935.3875
330.08145	5744.0875
334.28114	5711.2875
338.47781	5771.4875
342.67145	5925.7875
346.86207	6137.8875
351.04966	6523.9875
355.23424	6922.1875
359.4158	7200.8875
363.59435	7234.9875
367.76989	7158.9875
371.94243	7051.6875
376.11196	6909.2875
380.27849	6853.6875
384.44203	6780.7875
388.60257	6727.0875
392.76012	6745.9875
396.91468	6874.2875
401.06626	7027.7875
405.21485	7056.2875
409.36047	6904.3875
413.50311	6581.8875
417.64277	6281.8875
421.77947	6084.9875
425.9132	6021.4875
430.04396	5992.9875
434.17176	6037.2875
438.2966	6154.4875
442.41849	6224.1875
446.53742	6340.4875
450.6534	6447.9875
454.76644	6525.7875
458.87653	6551.1875
462.98368	6508.8875
467.08789	6447.0875
471.18916	6354.0875
475.2875	6259.5875
479.38291	6144.2875
483.4754	6055.3875
487.56496	5985.0875
491.6516	5973.8875
495.73531	5981.9875
499.81612	5998.0875
503.89401	6089.6875
507.96899	6145.4875
512.04106	6227.7875
516.11023	6350.6875
520.1765	6422.0875
524.23987	6456.3875
528.30034	6438.6875
532.35792	6359.7875
536.41261	6310.4875
540.46441	6214.8875
544.51333	6171.1875
548.55936	6214.2875
552.60252	6345.0875
556.64279	6447.8875
560.6802	6550.6875
564.71473	6730.0875
568.7464	6905.7875
572.7752	6875.6875
576.80114	6552.2875
580.82422	6291.0875
584.84444	6202.6875
588.86181	6173.1875
592.87633	6220.3875
596.888	6344.7875
600.89682	6724.5875
604.9028	7677.7875
608.90594	9769.1875
612.90624	12103.2875
616.90371	11249.4875
620.89834	8188.4875
624.89015	6867.2875
628.87913	6662.1875
632.86528	6832.3875
636.84862	6982.1875
640.82913	6850.1875
644.80683	6518.6875
648.78172	6335.1875
652.75379	6346.3875
656.72306	6588.7875
660.68952	6849.6875
664.65319	6734.9875
668.61405	6511.8875
672.57211	6447.6875
676.52738	6451.3875
680.47986	6345.0875
684.42955	6269.6875
688.37646	6223.1875
692.32058	6235.8875
696.26192	6291.9875
700.20048	6398.5875
704.13626	6432.7875
708.06928	6386.7875
711.99952	6342.3875
715.927	6326.7875
719.85171	6353.4875
723.77365	6441.8875
727.69284	6381.2875
731.60928	6379.5875
735.52295	6361.2875
739.43388	6384.5875
743.34206	6417.1875
747.24749	6437.5875
751.15017	6433.5875
755.05012	6522.5875
758.94733	6906.8875
762.8418	7719.9875
766.73354	9024.7875
770.62254	10019.5875
774.50882	10092.3875
778.39237	9601.2875
782.27321	8700.6875
786.15132	7655.6875
790.02671	6970.5875
793.89938	6599.4875
797.76935	6475.9875
801.6366	6416.0875
805.50115	6359.4875
809.36299	6339.5875
813.22213	6339.1875
817.07857	6347.8875
820.93231	6333.0875
824.78336	6369.1875
828.63172	6386.7875
832.47738	6401.8875
836.32036	6416.6875
840.16066	6375.5875
843.99827	6365.6875
847.8332	6351.2875
851.66546	6363.0875
855.49504	6367.3875
859.32195	6397.8875
863.1462	6386.1875
866.96777	6386.8875
870.78668	6386.4875
874.60293	6399.3875
878.41652	6420.6875
882.22745	6489.7875
886.03573	6533.3875
889.84136	6512.9875
893.64433	6517.2875
897.44466	6514.1875
901.24235	6497.9875
905.0374	6498.2875
908.8298	6433.5875
912.61957	6400.6875
916.40671	6358.9875
920.19121	6406.7875
923.97308	6502.9875
927.75233	6549.9875
931.52895	6629.6875
935.30295	6606.5875
939.07433	6457.5875
942.84309	6326.8875
946.60924	6309.9875
950.37278	6275.9875
954.13371	6276.8875
957.89203	6260.5875
961.64774	6271.0875
965.40086	6255.0875
969.15137	6241.1875
972.89929	6270.7875
976.64461	6258.1875
980.38733	6266.3875
984.12747	6276.7875
987.86502	6295.7875
991.59999	6341.2875
995.33237	6396.2875
999.06217	6456.8875
1002.78939	6564.7875
1006.51404	6687.9875
1010.23611	6804.0875
1013.95561	6850.4875
1017.67255	6846.5875
1021.38692	6832.6875
1025.09872	6766.5875
1028.80796	6678.9875
1032.51465	6689.6875
1036.21877	6669.7875
1039.92035	6721.8875
1043.61937	6743.6875
1047.31584	6790.8875
1051.00976	6818.9875
1054.70114	6827.0875
1058.38998	6821.9875
1062.07627	6827.5875
1065.76003	6859.0875
1069.44126	6935.3875
1073.11995	7029.8875
1076.79611	7170.2875
1080.46974	7310.4875
1084.14085	7452.2875
1087.80943	7583.4875
1091.47549	7623.0875
1095.13903	7535.9875
1098.80005	7435.0875
1102.45857	7330.5875
1106.11456	7289.0875
1109.76805	7245.5875
1113.41903	7348.7875
1117.06751	7513.8875
1120.71348	7764.3875
1124.35696	8139.5875
1127.99793	8422.5875
1131.63641	8255.5875
1135.2724	7867.7875
1138.90589	7573.5875
1142.5369	7386.6875
1146.16542	7297.6875
1149.79145	7170.6875
1153.415	7119.7875
1157.03607	7122.9875
1160.65467	7207.4875
1164.27079	7389.0875
1167.88443	7635.6875
1171.49561	8052.4875
1175.10432	8663.4875
1178.71056	9532.4875
1182.31434	10288.9875
1185.91565	10534.7875
1189.51451	10398.3875
1193.11091	10141.1875
1196.70485	9920.4875
1200.29634	9716.3875
1203.88538	9452.0875
1207.47197	8990.0875
1211.05612	8549.4875
1214.63782	8156.5875
1218.21708	7910.1875
1221.79391	7774.5875
1225.36829	7693.1875
1228.94024	7696.0875
1232.50976	7694.2875
1236.07685	7720.0875
1239.6415	7737.5875
1243.20374	7771.0875
1246.76355	7799.5875
1250.32093	7884.3875
1253.8759	7959.7875
1257.42845	8145.4875
1260.97859	8349.7875
1264.52631	8578.6875
1268.07163	8726.6875
1271.61453	8844.4875
1275.15503	8891.4875
1278.69312	8881.7875
1282.22882	8934.9875
1285.76211	9141.0875
1289.29301	9411.6875
1292.82151	9663.5875
1296.34761	9873.2875
1299.87133	10256.5875
1303.39266	10957.7875
1306.9116	12096.1875
1310.42815	13285.9875
1313.94233	13732.9875
1317.45412	12945.6875
1320.96354	11800.1875
1324.47058	10819.7875
1327.97525	10086.5875
1331.47754	9681.1875
1334.97747	9588.6875
1338.47502	9708.6875
1341.97022	10095.8875
1345.46305	10784.6875
1348.95352	11837.7875
1352.44163	13082.9875
1355.92738	14362.0875
1359.41078	15993.7875
1362.89183	17442.4875
1366.37053	16790.5875
1369.84688	13993.0875
1373.32088	11406.4875
1376.79254	10057.2875
1380.26186	9436.1875
1383.72883	9039.3875
1387.19347	8661.0875
1390.65578	8278.9875
1394.11575	8061.9875
1397.57339	7908.7875
1401.0287	7808.0875
1404.48168	7765.7875
1407.93234	7787.1875
1411.38068	7822.5875
1414.82669	7881.5875
1418.27039	7966.1875
1421.71177	7967.3875
1425.15083	7871.8875
1428.58758	7805.3875
1432.02203	7839.7875
1435.45416	7904.9875
1438.88399	7887.8875
1442.31151	7916.5875
1445.73673	7982.5875
1449.15965	8018.9875
1452.58027	8037.1875
1455.9986	8023.6875
1459.41463	8040.9875
1462.82837	8127.3875
1466.23982	8322.1875
1469.64898	8521.5875
1473.05586	8666.4875
1476.46045	8767.1875
1479.86276	8812.7875
1483.26279	8900.3875
1486.66054	9078.6875
1490.05602	9363.8875
1493.44922	9892.9875
1496.84016	10750.2875
1500.22882	12084.9875
1503.61521	13783.9875
1506.99934	15491.3875
1510.38121	16675.6875
1513.76081	16572.7875
1517.13816	15026.9875
1520.51324	12935.3875
1523.88607	11277.6875
1527.25665	10293.8875
1530.62498	9778.7875
1533.99105	9559.6875
1537.35488	9423.0875
1540.71647	9357.4875
1544.07581	9266.8875
1547.4329	9147.4875
1550.78776	9008.1875
1554.14038	8949.6875
1557.49077	8911.2875
1560.83892	9012.3875
1564.18484	9233.1875
1567.52853	9550.7875
1570.86999	9847.8875
1574.20922	9989.9875
1577.54624	9866.9875
1580.88103	9387.5875
1584.2136	8731.7875
1587.54395	8356.4875
1590.87208	8308.9875
1594.19801	8474.4875
1597.52172	8841.2875
1600.84321	8971.0875
1604.16251	8857.2875
1607.47959	8658.8875
1610.79447	8476.1875
1614.10715	8185.9875
1617.41763	7909.6875
1620.7259	7611.5875
1624.03199	7498.2875
1627.33587	7396.7875
1630.63757	7442.3875
1633.93707	7682.7875
1637.23439	8109.1875
1640.52951	8780.1875
1643.82246	9750.3875
1647.11321	10876.9875
1650.40179	11560.9875
1653.68819	11245.8875
1656.97241	9989.7875
1660.25446	8639.2875
1663.53433	7657.3875
1666.81203	7069.9875
1670.08756	6748.2875
1673.36092	6575.5875
1676.63211	6409.5875
1679.90115	6342.0875
1683.16801	6238.2875
1686.43272	6159.2875
1689.69527	6120.8875
1692.95567	6055.4875
1696.2139	6030.2875
1699.46999	5979.2875
1702.72392	5970.5875
1705.97571	5995.8875
1709.22535	5953.8875
1712.47284	6005.1875
1715.71819	6022.3875
1718.96139	6004.1875
1722.20246	6001.5875
1725.44139	5956.7875
1728.67818	5939.4875
1731.91284	5892.5875
1735.14537	5868.3875
1738.37576	5832.4875
1741.60403	5815.7875
1744.83017	5792.3875
1748.05418	5783.5875
1751.27607	5784.1875
1754.49584	5761.0875
1757.71349	5704.6875
1760.92903	5712.7875
1764.14244	5691.4875
1767.35375	5679.8875
1770.56294	5665.2875
1773.77002	5655.7875
1776.97499	5658.1875
1780.17785	5632.6875
1783.37861	5626.5875
1786.57727	5638.1875
1789.77382	5582.4875
1792.96828	5607.9875
1796.16064	5588.9875
1799.3509	5586.4875
1802.53907	5604.9875
1805.72514	5556.2875
1808.90913	5528.0875
1812.09102	5536.4875
1815.27083	5510.3875
1818.44856	5530.9875
1821.6242	5504.8875
1824.79776	5488.6875
1827.96924	5485.8875
1831.13864	5468.9875
1834.30597	5466.3875
1837.47122	5438.7875
1840.6344	5450.0875
1843.7955	5421.0875
1846.95454	5414.4875
1850.11151	5430.8875
1853.26642	5397.3875
1856.41926	5400.6875
1859.57004	5409.9875
1862.71876	5387.1875
1865.86542	5415.2875
1869.01003	5383.8875
1872.15258	5338.7875
1875.29308	5384.8875
1878.43152	5383.5875
1881.56792	5350.0875
1884.70227	5320.0875
1887.83457	5348.5875
1890.96482	5309.1875
1894.09304	5318.7875
1897.21921	5304.0875
1900.34335	5300.2875
1903.46544	5285.6875
1906.58551	5304.5875
1909.70353	5316.1875
1912.81953	5289.9875
1915.93349	5266.8875
1919.04543	5275.0875
1922.15534	5239.2875
1925.26322	5253.2875
1928.36908	5228.2875
1931.47292	5221.2875
1934.57473	5223.2875
1937.67453	5208.5875
1940.77232	5173.4875
1943.86808	5177.2875
1946.96184	5148.9875
1950.05358	5132.6875
1953.14331	5109.1875
1956.23103	5095.3875
1959.31675	5086.9875
1962.40046	5047.0875
1965.48217	5066.8875
1968.56188	5058.3875
1971.63959	5039.4875
1974.7153	5033.7875
1977.78901	5034.0875
1980.86073	5000.5875
1983.93046	4956.0875
1986.99819	4903.7875
1990.06394	4892.1875
1993.1277	4920.0875
1996.18947	4891.5875
1999.24925	4861.2875
2002.30706	4863.7875
2005.36288	4856.2875
2008.41672	4828.9875
2011.46859	4806.0875
2014.51848	4792.8875
2017.56639	4782.7875
2020.61233	4745.9875
2023.6563	4760.9875
2026.6983	4711.7875
2029.73833	4717.5875
2032.7764	4724.0875
2035.8125	4671.5875
2038.84664	4698.8875
2041.87881	4657.6875
2044.90903	4662.3875
2047.93729	4675.4875
2050.96359	4633.8875
2053.98794	4660.9875
2057.01034	4651.6875
2060.03078	4632.1875
2063.04927	4608.2875
2066.06582	4624.2875
2069.08042	4607.1875
2072.09307	4604.5875
2075.10378	4594.2875
2078.11255	4611.0875
2081.11938	4587.6875
2084.12426	4589.9875
2087.12722	4581.7875
2090.12824	4584.7875
2093.12732	4586.4875
2096.12447	4594.9875
2099.11969	4590.8875
2102.11299	4572.7875
2105.10435	4593.5875
2108.09379	4585.9875
2111.08131	4583.2875
2114.0669	4578.2875
2117.05057	4583.6875
2120.03233	4574.7875
2123.01216	4592.5875
2125.99008	4589.9875
2128.96609	4592.4875
2131.94018	4622.7875
2134.91236	4590.4875
2137.88263	4588.1875
2140.851	4599.6875
2143.81746	4619.5875
2146.78201	4590.0875
2149.74466	4580.4875
2152.7054	4617.0875
2155.66425	4575.6875
2158.6212	4586.1875
2161.57625	4567.4875
2164.52941	4524.1875
2167.48067	4545.5875
2170.43004	4563.9875
2173.37752	4559.2875
2176.32311	4553.0875
2179.26681	4554.2875
2182.20863	4549.5875
2185.14856	4563.3875
2188.08661	4543.3875
2191.02278	4558.4875
2193.95707	4530.0875
2196.88948	4526.7875
2199.82001	4536.4875
2202.74867	4523.4875
2205.67545	4535.0875
2208.60037	4518.6875
2211.52341	4506.8875
2214.44458	4504.1875
2217.36388	4482.0875
2220.28132	4469.2875
2223.1969	4429.4875
2226.11061	4446.9875
2229.02246	4430.7875
2231.93245	4424.2875
2234.84058	4404.6875
2237.74686	4403.7875
2240.65128	4407.7875
2243.55385	4409.8875
2246.45456	4391.4875
2249.35343	4389.7875
2252.25044	4376.9875
2255.14561	4391.0875
2258.03893	4394.2875
2260.93041	4356.5875
2263.82004	4362.4875
2266.70783	4353.5875
2269.59378	4334.6875
2272.4779	4309.2875
2275.36017	4304.4875
2278.24061	4300.6875
2281.11922	4273.0875
2283.996	4290.3875
2286.87094	4255.4875
2289.74405	4279.7875
2292.61534	4257.3875
2295.4848	4245.2875
2298.35243	4260.2875
2301.21824	4232.4875
2304.08223	4235.5875
2306.94439	4232.4875
2309.80474	4233.6875
2312.66327	4224.6875
2315.51999	4204.0875
2318.37489	4204.8875
2321.22797	4177.1875
2324.07925	4176.5875
2326.92871	4179.8875
2329.77637	4146.7875
2332.62222	4153.8875
2335.46626	4123.1875
2338.3085	4117.0875
2341.14893	4127.7875
2343.98756	4148.8875
2346.8244	4121.9875
2349.65943	4107.2875
2352.49267	4131.4875
2355.32411	4128.3875
2358.15376	4115.8875
2360.98161	4118.2875
2363.80768	4095.7875
2366.63195	4099.4875
2369.45444	4116.7875
2372.27514	4115.9875
2375.09405	4121.9875
2377.91118	4069.2875
2380.72652	4074.6875
2383.54009	4067.2875
2386.35187	4067.3875
2389.16188	4039.4875
2391.97011	4031.3875
2394.77657	4035.8875
2397.58125	4012.6875
2400.38416	4016.3875
2403.18529	3997.2875
2405.98466	3985.9875
2408.78226	3984.5875
2411.57809	3973.8875
2414.37216	3967.7875
2417.16446	3957.5875
2419.955	3933.9875
2422.74378	3946.9875
2425.5308	3934.2875
2428.31606	3927.5875
2431.09956	3954.4875
2433.88131	3921.8875
2436.6613	3938.2875
2439.43954	3938.5875
2442.21603	3910.5875
2444.99077	3900.1875
2447.76377	3916.9875
2450.53501	3901.8875
2453.30451	3886.2875
2456.07226	3901.9875
2458.83827	3897.1875
2461.60254	3854.6875
2464.36507	3870.4875
2467.12586	3867.7875
2469.88492	3867.0875
2472.64224	3863.8875
2475.39782	3848.0875
2478.15167	3861.7875
2480.90379	3856.9875
2483.65417	3852.6875
2486.40283	3871.1875
2489.14976	3889.5875
2491.89497	3852.9875
2494.63845	3854.3875
2497.3802	3854.4875
2500.12024	3845.2875
2502.85855	3838.2875
2505.59514	3842.9875
2508.33002	3820.8875
2511.06318	3799.0875
2513.79462	3809.4875
2516.52435	3766.7875
2519.25237	3743.3875
2521.97867	3758.2875
2524.70327	3745.1875
2527.42616	3750.9875
2530.14734	3759.6875
2532.86681	3739.9875
2535.58458	3732.8875
2538.30065	3725.9875
2541.01501	3743.6875
2543.72768	3716.3875
2546.43864	3715.7875
2549.14791	3706.4875
2551.85548	3685.1875
2554.56136	3680.4875
2557.26554	3688.6875
2559.96803	3677.7875
2562.66883	3690.8875
2565.36794	3655.9875
2568.06536	3633.0875
2570.7611	3657.3875
2573.45514	3638.5875
2576.14751	3630.8875
2578.83819	3607.7875
2581.52719	3616.0875
2584.21451	3611.7875
2586.90015	3592.1875
2589.58411	3568.0875
2592.2664	3592.5875
2594.94701	3574.9875
2597.62594	3579.5875
2600.30321	3509.8875
2602.9788	3527.8875
2605.65273	3545.6875
2608.32498	3537.0875
2610.99557	3535.7875
2613.66449	3516.9875
2616.33175	3523.8875
2618.99734	3523.4875
2621.66128	3524.7875
2624.32355	3503.9875
2626.98416	3490.0875
2629.64311	3492.1875
2632.30041	3480.2875
2634.95605	3458.5875
2637.61004	3437.9875
2640.26238	3432.6875
2642.91306	3440.2875
2645.56209	3457.2875
2648.20948	3441.2875
2650.85521	3432.4875
2653.4993	3451.5875
2656.14175	3444.0875
2658.78255	3426.7875
2661.42171	3403.1875
2664.05923	3429.4875
2666.6951	3444.4875
2669.32934	3440.4875
2671.96194	3458.3875
2674.59291	3436.7875
2677.22224	3444.2875
2679.84993	3446.0875
2682.476	3436.8875
2685.10043	3428.0875
2687.72324	3415.4875
2690.34441	3417.0875
2692.96396	3410.7875
2695.58188	3419.9875
2698.19818	3418.3875
2700.81285	3409.2875
2703.4259	3394.1875
2706.03733	3363.5875
2708.64714	3381.2875
2711.25533	3397.5875
2713.86191	3404.6875
2716.46687	3392.2875
2719.07021	3399.3875
2721.67194	3404.6875
2724.27206	3402.9875
2726.87057	3384.7875
2729.46747	3374.4875
2732.06276	3401.6875
2734.65644	3370.4875
2737.24852	3379.9875
2739.83899	3347.5875
2742.42786	3369.0875
2745.01513	3381.6875
2747.60079	3356.5875
2750.18486	3332.0875
2752.76733	3346.7875
2755.3482	3330.5875
2757.92747	3312.4875
2760.50515	3304.3875
2763.08123	3306.3875
2765.65573	3304.8875
2768.22863	3277.0875
2770.79994	3284.5875
2773.36967	3275.6875
2775.9378	3270.0875
2778.50435	3263.9875
2781.06932	3267.8875
2783.6327	3257.2875
2786.1945	3270.0875
2788.75471	3265.6875
2791.31335	3253.0875
2793.87041	3253.5875
2796.42589	3233.0875
2798.97979	3217.7875
2801.53212	3208.0875
2804.08288	3228.0875
2806.63206	3203.2875
2809.17967	3182.8875
2811.72571	3205.6875
2814.27018	3189.8875
2816.81308	3173.6875
2819.35442	3157.0875
2821.89419	3175.0875
2824.43239	3140.3875
2826.96904	3170.8875
2829.50412	3151.0875
2832.03763	3151.4875
2834.56959	3161.4875
2837.1	3144.1875
2839.62884	3137.0875
2842.15613	3143.2875
2844.68186	3149.8875
2847.20604	3111.0875
2849.72867	3118.1875
2852.24974	3122.3875
2854.76927	3097.5875
2857.28724	3039.9875
2859.80367	3104.7875
2862.31855	3113.4875
2864.83189	3086.3875
2867.34368	3098.4875
2869.85393	3102.6875
2872.36264	3086.3875
2874.8698	3073.3875
2877.37543	3068.3875
2879.87952	3071.9875
2882.38207	3042.5875
2884.88308	3063.8875
2887.38256	3067.7875
2889.88051	3040.1875
2892.37692	3063.7875
2894.8718	3034.5875
2897.36515	3055.7875
2899.85698	3046.3875
2902.34727	3037.9875
2904.83604	3040.7875
2907.32328	3061.3875
2909.809	3058.6875
2912.29319	3060.8875
2914.77587	3062.0875
2917.25702	3065.7875
2919.73665	3085.0875
2922.21476	3070.8875
2924.69136	3075.6875
2927.16644	3062.8875
2929.64	3046.3875
2932.11205	3050.0875
2934.58258	3034.9875
2937.05161	3036.4875
2939.51912	3029.3875
2941.98513	3048.1875
2944.44962	3020.0875
2946.91261	2989.8875
2949.37409	3011.5875
2951.83407	3007.3875
2954.29254	2994.4875
2956.74951	2993.2875
2959.20498	2985.2875
2961.65895	2980.7875
2964.11142	2974.4875
2966.56239	2949.2875
2969.01186	2968.0875
2971.45984	2966.4875
2973.90632	2961.1875
2976.35131	2962.8875
2978.7948	2956.8875
2981.23681	2943.2875
2983.67732	2961.1875
2986.11635	2942.5875
2988.55388	2912.8875
2990.98993	2914.7875
2993.4245	2895.1875
2995.85758	2891.2875
2998.28917	2887.2875
3000.71928	2883.9875
3003.14791	2878.8875
3005.57506	2856.4875
3008.00073	2836.9875
3010.42493	2787.6875
3012.84764	2847.5875
3015.26888	2832.8875
3017.68865	2832.9875
3020.10694	2787.8875
3022.52376	2798.9875
3024.9391	2789.3875
3027.35298	2790.3875
3029.76539	2770.1875
3032.17632	2779.3875
3034.5858	2759.1875
3036.9938	2771.6875
3039.40034	2767.1875
3041.80542	2748.8875
3044.20903	2744.3875
3046.61118	2732.3875
3049.01187	2738.8875
3051.4111	2726.8875
3053.80888	2724.3875
3056.20519	2710.1875
3058.60005	2695.5875
3060.99345	2713.1875
3063.3854	2690.7875
3065.7759	2667.2875
3068.16494	2663.3875
3070.55254	2655.0875
3072.93868	2667.0875
3075.32338	2653.9875
3077.70662	2645.1875
3080.08842	2629.6875
3082.46878	2629.1875
3084.84769	2651.2875
3087.22515	2619.4875
3089.60118	2626.8875
3091.97576	2609.0875
3094.3489	2634.0875
3096.72061	2612.9875
3099.09087	2614.2875
3101.4597	2611.1875
3103.82709	2598.7875
3106.19305	2594.0875
3108.55757	2599.0875
3110.92066	2579.5875
3113.28232	2582.0875
3115.64255	2595.9875
3118.00134	2583.1875
3120.35871	2559.5875
3122.71466	2546.3875
3125.06917	2553.0875
3127.42226	2540.2875
3129.77393	2520.4875
3132.12417	2538.0875
3134.47299	2535.8875
3136.82039	2509.6875
3139.16636	2501.8875
3141.51092	2526.0875
3143.85406	2511.6875
3146.19579	2500.0875
3148.53609	2493.4875
3150.87499	2487.2875
3153.21246	2499.5875
3155.54853	2509.9875
3157.88318	2504.2875
3160.21642	2508.3875
3162.54826	2507.4875
3164.87868	2501.4875
3167.2077	2471.3875
3169.5353	2484.1875
3171.86151	2483.8875
3174.18631	2467.0875
3176.5097	2471.4875
3178.83169	2468.7875
3181.15228	2476.3875
3183.47147	2448.6875
3185.78926	2424.9875
3188.10565	2439.2875
3190.42065	2421.2875
3192.73424	2441.0875
3195.04645	2424.1875
3197.35725	2406.6875
3199.66667	2415.0875
3201.97469	2410.0875
3204.28132	2389.5875
3206.58656	2411.9875
3208.8904	2423.5875
3211.19287	2410.4875
3213.49394	2403.8875
3215.79363	2398.5875
3218.09193	2412.8875
3220.38884	2408.4875
3222.68438	2395.7875
3224.97853	2368.4875
3227.2713	2390.4875
3229.56269	2374.8875
3231.8527	2374.9875
3234.14133	2361.8875
3236.42858	2365.7875
3238.71446	2343.8875
3240.99896	2347.2875
3243.28209	2324.7875
3245.56384	2346.7875
3247.84423	2338.0875
3250.12324	2336.6875
3252.40088	2339.7875
3254.67715	2313.5875
3256.95205	2306.8875
3259.22558	2325.4875
3261.49775	2324.4875
3263.76855	2319.0875
3266.03799	2317.9875
3268.30606	2321.8875
3270.57277	2320.1875
3272.83812	2305.8875
3275.10211	2296.0875
3277.36474	2314.3875
3279.62601	2302.8875
3281.88593	2271.1875
3284.14448	2257.3875
3286.40168	2278.3875
3288.65753	2264.0875
3290.91202	2264.1875
3293.16516	2233.7875
3295.41695	2267.5875
3297.66738	2260.5875
3299.91647	2237.9875
3302.16421	2234.9875
3304.4106	2186.3875
3306.65564	2211.3875
3308.89933	2166.2875
3311.14169	2164.2875
3313.38269	2157.0875
3315.62236	2125.5875
3317.86068	2111.3875
3320.09766	2115.1875
3322.3333	2077.5875
3324.5676	2067.4875
3326.80056	2036.2875
3329.03219	2026.4875
3331.26248	0.6875
3333.49143	-2.0125
3335.71905	0.8875
