Data from AgNPs_UA_20uM_CRN_500uM_SU_RamanShift__52__13-45-10-301.txt Node

Date: Thu Aug 04 13:45:10 BST 2022
User: TCL
Spectrometer: QEP01345
Trigger mode: 4
Integration Time (sec): 1.000000E0
Scans to average: 10
Electric dark correction enabled: true
Nonlinearity correction enabled: false
Boxcar width: 0
XAxis mode: Raman Shifts
Number of Pixels in Spectrum: 1044
>>>>>Begin Spectral Data<<<<<
46.04893	-1.275
50.45542	-0.775
54.85868	0.625
59.25871	0.325
63.6555	16.525
68.04907	14.625
72.43941	18.625
76.82654	17.925
81.21044	18.525
85.59113	20.325
89.96862	21.025
94.34289	21.925
98.71396	23.625
103.08183	23.025
107.4465	22.525
111.80798	24.925
116.16626	24.625
120.52136	28.325
124.87327	25.925
129.222	30.225
133.56755	30.725
137.90993	34.625
142.24913	38.225
146.58517	40.425
150.91804	50.025
155.24774	60.125
159.57429	73.725
163.89768	97.025
168.21792	127.025
172.53501	175.625
176.84895	241.925
181.15975	348.925
185.46741	483.025
189.77193	675.225
194.07331	904.425
198.37157	1169.825
202.6667	1444.225
206.9587	1717.525
211.24758	1993.325
215.53334	2251.425
219.81599	2546.825
224.09553	2872.425
228.37195	3226.725
232.64527	3624.425
236.91549	4009.825
241.18261	4382.125
245.44663	4682.325
249.70755	4969.425
253.96539	5190.925
258.22014	5385.225
262.4718	5542.025
266.72039	5681.225
270.96589	5742.125
275.20832	5715.225
279.44768	5657.825
283.68397	5545.325
287.91719	5482.225
292.14735	5469.525
296.37445	5533.725
300.59849	5660.825
304.81948	5827.925
309.03742	5964.825
313.25231	6011.725
317.46415	5933.525
321.67296	5775.325
325.87872	5596.525
330.08145	5526.825
334.28114	5518.525
338.47781	5606.725
342.67145	5718.625
346.86207	5868.225
351.04966	6055.425
355.23424	6251.325
359.4158	6422.425
363.59435	6540.025
367.76989	6602.325
371.94243	6624.325
376.11196	6662.025
380.27849	6680.825
384.44203	6699.425
388.60257	6715.825
392.76012	6780.925
396.91468	6879.825
401.06626	6977.625
405.21485	7044.825
409.36047	6969.825
413.50311	6773.025
417.64277	6624.425
421.77947	6501.125
425.9132	6456.825
430.04396	6492.425
434.17176	6541.725
438.2966	6643.225
442.41849	6805.025
446.53742	7029.425
450.6534	7229.325
454.76644	7344.625
458.87653	7347.425
462.98368	7312.325
467.08789	7201.925
471.18916	7064.325
475.2875	6888.625
479.38291	6729.625
483.4754	6647.425
487.56496	6589.025
491.6516	6535.925
495.73531	6518.525
499.81612	6509.225
503.89401	6565.325
507.96899	6598.825
512.04106	6648.325
516.11023	6697.625
520.1765	6767.925
524.23987	6760.225
528.30034	6748.125
532.35792	6721.225
536.41261	6651.825
540.46441	6571.925
544.51333	6534.925
548.55936	6614.425
552.60252	6710.725
556.64279	6790.025
560.6802	6863.525
564.71473	6888.725
568.7464	6953.425
572.7752	6935.525
576.80114	6835.825
580.82422	6761.525
584.84444	6771.325
588.86181	6872.225
592.87633	7038.725
596.888	7192.625
600.89682	7460.325
604.9028	8208.725
608.90594	9673.925
612.90624	10987.825
616.90371	10120.425
620.89834	8144.125
624.89015	7426.425
628.87913	7377.425
632.86528	7368.325
636.84862	7264.825
640.82913	7082.425
644.80683	6843.125
648.78172	6704.525
652.75379	6747.625
656.72306	6941.625
660.68952	7137.425
664.65319	7120.125
668.61405	7006.325
672.57211	7028.025
676.52738	7022.325
680.47986	6923.425
684.42955	6787.725
688.37646	6819.525
692.32058	6872.225
696.26192	7010.225
700.20048	7106.325
704.13626	7112.125
708.06928	7031.425
711.99952	6955.325
715.927	6966.925
719.85171	7002.125
723.77365	6963.225
727.69284	6924.925
731.60928	6861.425
735.52295	6879.925
739.43388	6923.025
743.34206	6958.125
747.24749	6999.525
751.15017	7018.525
755.05012	7084.125
758.94733	7318.625
762.8418	7832.825
766.73354	8609.225
770.62254	9250.225
774.50882	9462.625
778.39237	9114.725
782.27321	8471.325
786.15132	7795.825
790.02671	7362.925
793.89938	7142.225
797.76935	7058.325
801.6366	7019.125
805.50115	6973.025
809.36299	6952.225
813.22213	6921.225
817.07857	6947.925
820.93231	6920.225
824.78336	6952.725
828.63172	6964.225
832.47738	6967.425
836.32036	6994.825
840.16066	6997.525
843.99827	7035.125
847.8332	7019.525
851.66546	6992.125
855.49504	6971.425
859.32195	7021.125
863.1462	6978.825
866.96777	6948.225
870.78668	6928.225
874.60293	6960.825
878.41652	7009.225
882.22745	7024.825
886.03573	7077.325
889.84136	7068.125
893.64433	7020.925
897.44466	7009.525
901.24235	6990.225
905.0374	6975.525
908.8298	6959.125
912.61957	6947.225
916.40671	6970.825
920.19121	7028.025
923.97308	7131.125
927.75233	7202.425
931.52895	7250.025
935.30295	7214.025
939.07433	7076.225
942.84309	6970.025
946.60924	6933.825
950.37278	6909.325
954.13371	6900.325
957.89203	6877.425
961.64774	6858.725
965.40086	6822.325
969.15137	6797.525
972.89929	6809.025
976.64461	6818.325
980.38733	6851.725
984.12747	6856.825
987.86502	6914.925
991.59999	7009.125
995.33237	7147.525
999.06217	7372.025
1002.78939	7579.625
1006.51404	7657.425
1010.23611	7721.425
1013.95561	7803.825
1017.67255	7898.825
1021.38692	7890.225
1025.09872	7889.325
1028.80796	7956.125
1032.51465	8153.125
1036.21877	8304.325
1039.92035	8253.825
1043.61937	8129.725
1047.31584	7942.125
1051.00976	7752.625
1054.70114	7669.625
1058.38998	7678.525
1062.07627	7677.325
1065.76003	7673.525
1069.44126	7737.625
1073.11995	7822.125
1076.79611	7902.525
1080.46974	7998.025
1084.14085	8089.225
1087.80943	8129.625
1091.47549	8191.625
1095.13903	8070.825
1098.80005	7986.325
1102.45857	7942.825
1106.11456	7947.725
1109.76805	7924.225
1113.41903	7974.725
1117.06751	8066.725
1120.71348	8218.225
1124.35696	8375.925
1127.99793	8434.725
1131.63641	8339.825
1135.2724	8121.425
1138.90589	7965.925
1142.5369	7828.125
1146.16542	7749.025
1149.79145	7702.025
1153.415	7694.625
1157.03607	7691.325
1160.65467	7775.725
1164.27079	7944.125
1167.88443	8217.625
1171.49561	8631.825
1175.10432	9249.425
1178.71056	10035.325
1182.31434	10793.325
1185.91565	11153.125
1189.51451	11168.225
1193.11091	10800.925
1196.70485	10354.525
1200.29634	9912.625
1203.88538	9515.425
1207.47197	9131.025
1211.05612	8812.825
1214.63782	8595.325
1218.21708	8507.725
1221.79391	8539.625
1225.36829	8586.825
1228.94024	8594.325
1232.50976	8514.325
1236.07685	8467.725
1239.6415	8495.825
1243.20374	8521.925
1246.76355	8578.125
1250.32093	8693.925
1253.8759	8850.825
1257.42845	9114.925
1260.97859	9355.625
1264.52631	9581.425
1268.07163	9730.225
1271.61453	9881.625
1275.15503	10057.525
1278.69312	10221.225
1282.22882	10355.825
1285.76211	10483.725
1289.29301	10638.725
1292.82151	10807.125
1296.34761	11040.425
1299.87133	11443.025
1303.39266	12127.625
1306.9116	13040.625
1310.42815	13973.025
1313.94233	14383.025
1317.45412	14054.125
1320.96354	13318.325
1324.47058	12541.025
1327.97525	11984.425
1331.47754	11703.225
1334.97747	11736.525
1338.47502	11926.325
1341.97022	12275.025
1345.46305	12684.125
1348.95352	13232.225
1352.44163	13850.725
1355.92738	14637.925
1359.41078	15628.925
1362.89183	16239.425
1366.37053	15451.025
1369.84688	13560.225
1373.32088	11843.225
1376.79254	10861.225
1380.26186	10387.425
1383.72883	10133.825
1387.19347	9882.425
1390.65578	9589.425
1394.11575	9355.325
1397.57339	9198.825
1401.0287	9204.025
1404.48168	9270.825
1407.93234	9390.625
1411.38068	9579.725
1414.82669	9685.325
1418.27039	9676.025
1421.71177	9560.125
1425.15083	9467.425
1428.58758	9498.425
1432.02203	9637.925
1435.45416	9749.525
1438.88399	9758.425
1442.31151	9708.625
1445.73673	9645.025
1449.15965	9592.625
1452.58027	9490.425
1455.9986	9397.825
1459.41463	9377.825
1462.82837	9439.825
1466.23982	9614.025
1469.64898	9777.325
1473.05586	9942.225
1476.46045	10058.425
1479.86276	10148.425
1483.26279	10295.725
1486.66054	10407.125
1490.05602	10638.925
1493.44922	10986.425
1496.84016	11479.725
1500.22882	12178.325
1503.61521	13064.725
1506.99934	13905.525
1510.38121	14336.225
1513.76081	14095.125
1517.13816	13204.225
1520.51324	12112.925
1523.88607	11286.025
1527.25665	10788.725
1530.62498	10527.025
1533.99105	10378.125
1537.35488	10302.625
1540.71647	10237.025
1544.07581	10167.025
1547.4329	10052.125
1550.78776	9915.725
1554.14038	9818.325
1557.49077	9776.525
1560.83892	9783.325
1564.18484	9888.625
1567.52853	10015.325
1570.86999	10132.025
1574.20922	10137.625
1577.54624	9966.325
1580.88103	9667.725
1584.2136	9365.825
1587.54395	9315.325
1590.87208	9585.625
1594.19801	10165.925
1597.52172	10933.325
1600.84321	11344.825
1604.16251	11204.225
1607.47959	10703.925
1610.79447	10072.425
1614.10715	9363.525
1617.41763	8796.025
1620.7259	8440.525
1624.03199	8245.225
1627.33587	8272.325
1630.63757	8456.925
1633.93707	8853.725
1637.23439	9491.125
1640.52951	10308.725
1643.82246	11239.325
1647.11321	11940.925
1650.40179	11950.025
1653.68819	11126.425
1656.97241	9859.125
1660.25446	8705.925
1663.53433	7974.925
1666.81203	7515.725
1670.08756	7246.325
1673.36092	7095.725
1676.63211	6983.625
1679.90115	6883.425
1683.16801	6814.425
1686.43272	6742.825
1689.69527	6732.825
1692.95567	6705.825
1696.2139	6677.925
1699.46999	6656.425
1702.72392	6665.325
1705.97571	6664.925
1709.22535	6685.525
1712.47284	6651.825
1715.71819	6633.525
1718.96139	6636.725
1722.20246	6617.825
1725.44139	6593.525
1728.67818	6549.025
1731.91284	6524.425
1735.14537	6502.125
1738.37576	6465.225
1741.60403	6461.925
1744.83017	6451.525
1748.05418	6428.325
1751.27607	6427.325
1754.49584	6390.525
1757.71349	6393.325
1760.92903	6355.925
1764.14244	6374.025
1767.35375	6355.325
1770.56294	6358.025
1773.77002	6354.925
1776.97499	6329.825
1780.17785	6338.425
1783.37861	6307.425
1786.57727	6286.325
1789.77382	6288.525
1792.96828	6287.925
1796.16064	6278.725
1799.3509	6268.325
1802.53907	6257.725
1805.72514	6255.525
1808.90913	6252.825
1812.09102	6251.725
1815.27083	6216.025
1818.44856	6198.425
1821.6242	6184.825
1824.79776	6199.225
1827.96924	6163.625
1831.13864	6162.725
1834.30597	6156.825
1837.47122	6135.425
1840.6344	6122.725
1843.7955	6135.925
1846.95454	6128.525
1850.11151	6117.525
1853.26642	6119.425
1856.41926	6102.125
1859.57004	6109.225
1862.71876	6096.325
1865.86542	6114.825
1869.01003	6084.125
1872.15258	6066.025
1875.29308	6097.325
1878.43152	6086.825
1881.56792	6074.125
1884.70227	6060.425
1887.83457	6045.625
1890.96482	6064.225
1894.09304	6045.625
1897.21921	6043.325
1900.34335	6022.725
1903.46544	6031.525
1906.58551	6024.225
1909.70353	6029.825
1912.81953	6014.025
1915.93349	6009.225
1919.04543	5995.525
1922.15534	6000.325
1925.26322	5971.625
1928.36908	5979.825
1931.47292	5954.625
1934.57473	5959.825
1937.67453	5937.925
1940.77232	5945.125
1943.86808	5922.425
1946.96184	5888.925
1950.05358	5891.625
1953.14331	5877.825
1956.23103	5845.825
1959.31675	5810.425
1962.40046	5801.925
1965.48217	5795.025
1968.56188	5776.325
1971.63959	5757.725
1974.7153	5749.125
1977.78901	5747.525
1980.86073	5714.425
1983.93046	5680.925
1986.99819	5664.625
1990.06394	5646.625
1993.1277	5629.025
1996.18947	5629.925
1999.24925	5608.525
2002.30706	5594.125
2005.36288	5563.425
2008.41672	5531.525
2011.46859	5531.125
2014.51848	5504.925
2017.56639	5514.725
2020.61233	5493.225
2023.6563	5471.725
2026.6983	5471.725
2029.73833	5465.325
2032.7764	5455.525
2035.8125	5429.325
2038.84664	5416.725
2041.87881	5420.225
2044.90903	5405.325
2047.93729	5408.325
2050.96359	5399.125
2053.98794	5391.825
2057.01034	5375.325
2060.03078	5366.125
2063.04927	5351.525
2066.06582	5350.825
2069.08042	5344.525
2072.09307	5352.825
2075.10378	5329.025
2078.11255	5347.025
2081.11938	5333.025
2084.12426	5316.725
2087.12722	5311.925
2090.12824	5321.425
2093.12732	5315.725
2096.12447	5331.725
2099.11969	5317.325
2102.11299	5333.125
2105.10435	5312.125
2108.09379	5327.225
2111.08131	5333.925
2114.0669	5334.025
2117.05057	5321.425
2120.03233	5320.625
2123.01216	5318.325
2125.99008	5325.525
2128.96609	5344.425
2131.94018	5350.225
2134.91236	5337.025
2137.88263	5342.625
2140.851	5341.125
2143.81746	5343.425
2146.78201	5345.725
2149.74466	5337.525
2152.7054	5325.725
2155.66425	5315.425
2158.6212	5334.825
2161.57625	5338.625
2164.52941	5346.125
2167.48067	5335.625
2170.43004	5321.525
2173.37752	5310.425
2176.32311	5330.825
2179.26681	5328.225
2182.20863	5310.625
2185.14856	5327.625
2188.08661	5318.025
2191.02278	5325.325
2193.95707	5331.625
2196.88948	5324.025
2199.82001	5302.825
2202.74867	5315.825
2205.67545	5293.025
2208.60037	5319.225
2211.52341	5305.725
2214.44458	5287.325
2217.36388	5277.325
2220.28132	5261.225
2223.1969	5239.125
2226.11061	5247.325
2229.02246	5234.925
2231.93245	5219.525
2234.84058	5204.425
2237.74686	5210.125
2240.65128	5193.225
2243.55385	5192.025
2246.45456	5198.625
2249.35343	5186.825
2252.25044	5160.625
2255.14561	5178.925
2258.03893	5178.125
2260.93041	5145.625
2263.82004	5146.025
2266.70783	5135.025
2269.59378	5110.925
2272.4779	5103.525
2275.36017	5082.725
2278.24061	5075.925
2281.11922	5047.825
2283.996	5042.425
2286.87094	5047.025
2289.74405	5045.125
2292.61534	5034.925
2295.4848	5021.225
2298.35243	5033.125
2301.21824	5028.625
2304.08223	5042.425
2306.94439	5028.625
2309.80474	5019.125
2312.66327	5036.525
2315.51999	5016.225
2318.37489	5035.625
2321.22797	5028.225
2324.07925	5008.525
2326.92871	4990.325
2329.77637	5008.425
2332.62222	4995.025
2335.46626	4978.925
2338.3085	4991.125
2341.14893	4991.525
2343.98756	4986.425
2346.8244	4971.825
2349.65943	4995.725
2352.49267	4994.425
2355.32411	4983.725
2358.15376	4968.325
2360.98161	4969.325
2363.80768	4967.525
2366.63195	4969.125
2369.45444	4948.525
2372.27514	4933.625
2375.09405	4940.725
2377.91118	4922.425
2380.72652	4917.925
2383.54009	4890.225
2386.35187	4904.625
2389.16188	4879.425
2391.97011	4857.925
2394.77657	4874.725
2397.58125	4862.125
2400.38416	4842.825
2403.18529	4834.525
2405.98466	4820.625
2408.78226	4827.525
2411.57809	4789.125
2414.37216	4788.225
2417.16446	4789.625
2419.955	4774.225
2422.74378	4773.525
2425.5308	4764.525
2428.31606	4756.525
2431.09956	4739.325
2433.88131	4744.125
2436.6613	4746.225
2439.43954	4746.225
2442.21603	4758.025
2444.99077	4751.225
2447.76377	4733.125
2450.53501	4720.125
2453.30451	4727.025
2456.07226	4713.025
2458.83827	4729.525
2461.60254	4720.925
2464.36507	4701.025
2467.12586	4691.125
2469.88492	4695.825
2472.64224	4703.525
2475.39782	4697.625
2478.15167	4702.025
2480.90379	4705.125
2483.65417	4689.625
2486.40283	4708.125
2489.14976	4701.025
2491.89497	4690.825
2494.63845	4713.325
2497.3802	4699.625
2500.12024	4691.325
2502.85855	4680.225
2505.59514	4679.225
2508.33002	4670.525
2511.06318	4669.925
2513.79462	4644.725
2516.52435	4642.625
2519.25237	4630.925
2521.97867	4639.125
2524.70327	4633.825
2527.42616	4620.125
2530.14734	4624.825
2532.86681	4618.325
2535.58458	4622.325
2538.30065	4610.025
2541.01501	4611.625
2543.72768	4610.625
2546.43864	4626.325
2549.14791	4597.725
2551.85548	4607.425
2554.56136	4609.425
2557.26554	4593.925
2559.96803	4575.425
2562.66883	4568.925
2565.36794	4564.725
2568.06536	4537.625
2570.7611	4523.225
2573.45514	4523.725
2576.14751	4527.525
2578.83819	4534.525
2581.52719	4509.525
2584.21451	4512.025
2586.90015	4501.225
2589.58411	4496.725
2592.2664	4505.125
2594.94701	4501.425
2597.62594	4496.325
2600.30321	4499.225
2602.9788	4486.425
2605.65273	4483.225
2608.32498	4476.625
2610.99557	4474.325
2613.66449	4464.225
2616.33175	4474.925
2618.99734	4452.125
2621.66128	4474.425
2624.32355	4466.625
2626.98416	4469.125
2629.64311	4469.825
2632.30041	4461.625
2634.95605	4456.625
2637.61004	4446.325
2640.26238	4446.625
2642.91306	4424.925
2645.56209	4422.625
2648.20948	4412.625
2650.85521	4420.125
2653.4993	4406.425
2656.14175	4422.625
2658.78255	4409.025
2661.42171	4400.025
2664.05923	4406.525
2666.6951	4431.025
2669.32934	4431.025
2671.96194	4423.825
2674.59291	4411.425
2677.22224	4430.625
2679.84993	4414.625
2682.476	4404.225
2685.10043	4393.825
2687.72324	4400.525
2690.34441	4400.125
2692.96396	4392.125
2695.58188	4382.825
2698.19818	4379.125
2700.81285	4388.325
2703.4259	4382.725
2706.03733	4386.325
2708.64714	4375.025
2711.25533	4373.325
2713.86191	4361.625
2716.46687	4366.925
2719.07021	4376.625
2721.67194	4382.925
2724.27206	4390.325
2726.87057	4387.925
2729.46747	4387.125
2732.06276	4366.025
2734.65644	4356.925
2737.24852	4355.025
2739.83899	4351.225
2742.42786	4358.925
2745.01513	4368.225
2747.60079	4343.125
2750.18486	4341.825
2752.76733	4343.225
2755.3482	4341.625
2757.92747	4332.325
2760.50515	4333.325
2763.08123	4316.425
2765.65573	4315.625
2768.22863	4304.225
2770.79994	4301.825
2773.36967	4314.225
2775.9378	4307.725
2778.50435	4310.625
2781.06932	4301.525
2783.6327	4295.325
2786.1945	4288.125
2788.75471	4286.725
2791.31335	4275.625
2793.87041	4274.025
2796.42589	4266.625
2798.97979	4269.225
2801.53212	4237.425
2804.08288	4251.525
2806.63206	4233.525
2809.17967	4222.225
2811.72571	4217.625
2814.27018	4220.725
2816.81308	4204.225
2819.35442	4175.525
2821.89419	4181.225
2824.43239	4178.525
2826.96904	4171.925
2829.50412	4158.525
2832.03763	4152.425
2834.56959	4154.825
2837.1	4152.225
2839.62884	4160.125
2842.15613	4146.225
2844.68186	4143.925
2847.20604	4139.925
2849.72867	4123.925
2852.24974	4115.225
2854.76927	4108.725
2857.28724	4095.725
2859.80367	4093.425
2862.31855	4094.825
2864.83189	4092.725
2867.34368	4082.225
2869.85393	4069.025
2872.36264	4071.225
2874.8698	4072.325
2877.37543	4072.725
2879.87952	4057.825
2882.38207	4056.325
2884.88308	4056.825
2887.38256	4059.225
2889.88051	4067.825
2892.37692	4059.225
2894.8718	4040.225
2897.36515	4047.325
2899.85698	4043.425
2902.34727	4056.125
2904.83604	4058.425
2907.32328	4064.925
2909.809	4059.925
2912.29319	4057.025
2914.77587	4057.225
2917.25702	4041.025
2919.73665	4046.325
2922.21476	4077.225
2924.69136	4062.225
2927.16644	4055.525
2929.64	4046.725
2932.11205	4025.025
2934.58258	4022.725
2937.05161	4012.125
2939.51912	4010.425
2941.98513	4021.125
2944.44962	3989.325
2946.91261	3998.025
2949.37409	4015.825
2951.83407	4007.025
2954.29254	3998.925
2956.74951	3992.125
2959.20498	3992.125
2961.65895	3970.925
2964.11142	3977.225
2966.56239	3964.525
2969.01186	3980.725
2971.45984	3965.825
2973.90632	3963.025
2976.35131	3949.425
2978.7948	3946.125
2981.23681	3922.225
2983.67732	3925.625
2986.11635	3914.725
2988.55388	3907.125
2990.98993	3895.125
2993.4245	3892.425
2995.85758	3891.225
2998.28917	3882.225
3000.71928	3864.925
3003.14791	3852.625
3005.57506	3848.925
3008.00073	3826.925
3010.42493	3812.925
3012.84764	3804.925
3015.26888	3794.325
3017.68865	3785.625
3020.10694	3799.325
3022.52376	3784.225
3024.9391	3780.125
3027.35298	3755.525
3029.76539	3750.725
3032.17632	3742.325
3034.5858	3746.325
3036.9938	3749.925
3039.40034	3744.125
3041.80542	3718.425
3044.20903	3713.825
3046.61118	3726.325
3049.01187	3697.725
3051.4111	3705.925
3053.80888	3691.525
3056.20519	3681.725
3058.60005	3686.425
3060.99345	3653.025
3063.3854	3654.025
3065.7759	3653.125
3068.16494	3632.625
3070.55254	3640.325
3072.93868	3623.225
3075.32338	3597.325
3077.70662	3585.825
3080.08842	3562.925
3082.46878	3558.625
3084.84769	3555.625
3087.22515	3553.525
3089.60118	3566.925
3091.97576	3560.125
3094.3489	3559.525
3096.72061	3548.425
3099.09087	3542.725
3101.4597	3531.225
3103.82709	3521.125
3106.19305	3527.425
3108.55757	3538.525
3110.92066	3525.225
3113.28232	3516.125
3115.64255	3502.525
3118.00134	3509.525
3120.35871	3489.625
3122.71466	3492.025
3125.06917	3491.225
3127.42226	3470.425
3129.77393	3469.425
3132.12417	3447.925
3134.47299	3459.725
3136.82039	3438.425
3139.16636	3441.525
3141.51092	3435.125
3143.85406	3436.525
3146.19579	3431.825
3148.53609	3442.225
3150.87499	3436.625
3153.21246	3428.825
3155.54853	3430.825
3157.88318	3434.725
3160.21642	3425.525
3162.54826	3426.025
3164.87868	3413.725
3167.2077	3411.425
3169.5353	3408.825
3171.86151	3401.425
3174.18631	3406.225
3176.5097	3407.425
3178.83169	3388.325
3181.15228	3383.625
3183.47147	3374.825
3185.78926	3373.725
3188.10565	3362.425
3190.42065	3350.525
3192.73424	3355.425
3195.04645	3349.825
3197.35725	3335.925
3199.66667	3329.725
3201.97469	3336.925
3204.28132	3330.825
3206.58656	3332.325
3208.8904	3340.625
3211.19287	3335.525
3213.49394	3333.425
3215.79363	3342.925
3218.09193	3339.925
3220.38884	3329.825
3222.68438	3329.425
3224.97853	3331.925
3227.2713	3328.225
3229.56269	3315.425
3231.8527	3328.025
3234.14133	3308.925
3236.42858	3295.025
3238.71446	3298.725
3240.99896	3272.825
3243.28209	3290.225
3245.56384	3278.125
3247.84423	3279.725
3250.12324	3260.525
3252.40088	3249.625
3254.67715	3261.425
3256.95205	3257.525
3259.22558	3245.925
3261.49775	3241.525
3263.76855	3251.325
3266.03799	3262.325
3268.30606	3248.925
3270.57277	3254.325
3272.83812	3238.925
3275.10211	3228.925
3277.36474	3226.925
3279.62601	3212.825
3281.88593	3210.025
3284.14448	3207.825
3286.40168	3210.425
3288.65753	3200.225
3290.91202	3188.625
3293.16516	3177.725
3295.41695	3174.125
3297.66738	3173.325
3299.91647	3153.325
3302.16421	3126.625
3304.4106	3116.125
3306.65564	3081.725
3308.89933	3073.125
3311.14169	3047.925
3313.38269	3026.125
3315.62236	3002.625
3317.86068	2969.625
3320.09766	2953.425
3322.3333	2921.625
3324.5676	2909.325
3326.80056	2870.825
3329.03219	2843.225
3331.26248	2.325
3333.49143	-0.975
3335.71905	-1.275
