Data from AgNPs_UA_10uM_CRN_500uM_SU_RamanShift__94__13-21-00-271.txt Node

Date: Thu Aug 04 13:21:00 BST 2022
User: TCL
Spectrometer: QEP01345
Trigger mode: 4
Integration Time (sec): 1.000000E0
Scans to average: 10
Electric dark correction enabled: true
Nonlinearity correction enabled: false
Boxcar width: 0
XAxis mode: Raman Shifts
Number of Pixels in Spectrum: 1044
>>>>>Begin Spectral Data<<<<<
46.04893	-0.1375
50.45542	-0.0375
54.85868	0.1625
59.25871	-0.4375
63.6555	20.3625
68.04907	20.5625
72.43941	20.9625
76.82654	22.1625
81.21044	22.9625
85.59113	25.2625
89.96862	26.6625
94.34289	25.7625
98.71396	25.8625
103.08183	29.8625
107.4465	29.3625
111.80798	28.7625
116.16626	31.5625
120.52136	33.1625
124.87327	34.4625
129.222	36.3625
133.56755	39.1625
137.90993	41.4625
142.24913	48.1625
146.58517	53.9625
150.91804	63.8625
155.24774	77.8625
159.57429	96.6625
163.89768	126.0625
168.21792	167.2625
172.53501	231.3625
176.84895	324.8625
181.15975	463.9625
185.46741	656.0625
189.77193	906.9625
194.07331	1223.1625
198.37157	1571.9625
202.6667	1950.9625
206.9587	2323.3625
211.24758	2687.9625
215.53334	3059.3625
219.81599	3471.4625
224.09553	3927.2625
228.37195	4412.7625
232.64527	4941.8625
236.91549	5465.9625
241.18261	5944.6625
245.44663	6372.5625
249.70755	6662.1625
253.96539	6970.9625
258.22014	7223.1625
262.4718	7427.1625
266.72039	7579.8625
270.96589	7618.9625
275.20832	7592.4625
279.44768	7503.8625
283.68397	7384.0625
287.91719	7305.7625
292.14735	7328.4625
296.37445	7387.7625
300.59849	7583.3625
304.81948	7843.7625
309.03742	8044.0625
313.25231	8181.2625
317.46415	8098.5625
321.67296	7826.7625
325.87872	7561.6625
330.08145	7439.0625
334.28114	7431.9625
338.47781	7500.2625
342.67145	7666.7625
346.86207	7847.1625
351.04966	8110.9625
355.23424	8414.1625
359.4158	8637.2625
363.59435	8732.6625
367.76989	8779.8625
371.94243	8797.9625
376.11196	8783.5625
380.27849	8799.1625
384.44203	8831.8625
388.60257	8881.8625
392.76012	8944.0625
396.91468	9046.1625
401.06626	9216.6625
405.21485	9264.6625
409.36047	9163.2625
413.50311	8923.2625
417.64277	8691.4625
421.77947	8547.0625
425.9132	8462.4625
430.04396	8470.6625
434.17176	8506.1625
438.2966	8632.7625
442.41849	8782.5625
446.53742	8992.4625
450.6534	9198.4625
454.76644	9333.4625
458.87653	9380.9625
462.98368	9380.6625
467.08789	9303.2625
471.18916	9135.7625
475.2875	8964.4625
479.38291	8799.6625
483.4754	8682.7625
487.56496	8607.5625
491.6516	8580.7625
495.73531	8545.9625
499.81612	8608.8625
503.89401	8693.3625
507.96899	8717.9625
512.04106	8740.5625
516.11023	8808.5625
520.1765	8864.1625
524.23987	8855.6625
528.30034	8869.3625
532.35792	8841.5625
536.41261	8772.3625
540.46441	8672.7625
544.51333	8652.6625
548.55936	8716.9625
552.60252	8840.3625
556.64279	8968.9625
560.6802	9110.2625
564.71473	9176.7625
568.7464	9265.7625
572.7752	9215.4625
576.80114	9047.3625
580.82422	8903.0625
584.84444	8857.1625
588.86181	8918.7625
592.87633	9022.0625
596.888	9185.7625
600.89682	9593.4625
604.9028	10578.0625
608.90594	12593.5625
612.90624	14514.1625
616.90371	13367.0625
620.89834	10669.4625
624.89015	9614.8625
628.87913	9546.7625
632.86528	9645.3625
636.84862	9630.8625
640.82913	9376.4625
644.80683	9054.2625
648.78172	8857.7625
652.75379	8903.6625
656.72306	9149.6625
660.68952	9428.6625
664.65319	9350.4625
668.61405	9271.5625
672.57211	9337.1625
676.52738	9345.0625
680.47986	9123.9625
684.42955	8969.8625
688.37646	8938.2625
692.32058	8993.8625
696.26192	9194.9625
700.20048	9327.4625
704.13626	9387.4625
708.06928	9240.9625
711.99952	9131.5625
715.927	9128.4625
719.85171	9211.2625
723.77365	9194.8625
727.69284	9114.9625
731.60928	9061.8625
735.52295	9052.1625
739.43388	9104.6625
743.34206	9144.7625
747.24749	9161.3625
751.15017	9141.3625
755.05012	9286.8625
758.94733	9580.4625
762.8418	10285.5625
766.73354	11361.0625
770.62254	12199.9625
774.50882	12443.5625
778.39237	12044.7625
782.27321	11277.1625
786.15132	10414.4625
790.02671	9802.0625
793.89938	9510.0625
797.76935	9340.4625
801.6366	9244.7625
805.50115	9173.7625
809.36299	9142.2625
813.22213	9133.0625
817.07857	9120.5625
820.93231	9091.3625
824.78336	9128.0625
828.63172	9149.7625
832.47738	9147.2625
836.32036	9131.5625
840.16066	9143.2625
843.99827	9173.6625
847.8332	9166.0625
851.66546	9152.0625
855.49504	9168.1625
859.32195	9177.0625
863.1462	9156.6625
866.96777	9158.5625
870.78668	9167.8625
874.60293	9170.7625
878.41652	9223.1625
882.22745	9302.1625
886.03573	9350.6625
889.84136	9320.7625
893.64433	9280.5625
897.44466	9248.8625
901.24235	9248.4625
905.0374	9219.4625
908.8298	9165.5625
912.61957	9181.6625
916.40671	9194.8625
920.19121	9245.2625
923.97308	9344.8625
927.75233	9435.5625
931.52895	9507.0625
935.30295	9447.5625
939.07433	9257.1625
942.84309	9188.9625
946.60924	9157.7625
950.37278	9144.7625
954.13371	9111.8625
957.89203	9092.9625
961.64774	9083.1625
965.40086	9069.3625
969.15137	9058.2625
972.89929	9043.5625
976.64461	9046.1625
980.38733	9054.3625
984.12747	9101.3625
987.86502	9143.7625
991.59999	9234.9625
995.33237	9369.5625
999.06217	9545.4625
1002.78939	9745.0625
1006.51404	9891.7625
1010.23611	10007.9625
1013.95561	10102.8625
1017.67255	10148.3625
1021.38692	10169.4625
1025.09872	10160.0625
1028.80796	10189.3625
1032.51465	10330.2625
1036.21877	10463.5625
1039.92035	10430.0625
1043.61937	10353.3625
1047.31584	10233.8625
1051.00976	10114.4625
1054.70114	10062.1625
1058.38998	10078.2625
1062.07627	10100.9625
1065.76003	10156.0625
1069.44126	10225.0625
1073.11995	10365.5625
1076.79611	10563.4625
1080.46974	10681.4625
1084.14085	10792.2625
1087.80943	10879.0625
1091.47549	10910.2625
1095.13903	10862.2625
1098.80005	10847.5625
1102.45857	10896.3625
1106.11456	10862.5625
1109.76805	10755.1625
1113.41903	10740.2625
1117.06751	10864.7625
1120.71348	11027.2625
1124.35696	11195.6625
1127.99793	11287.5625
1131.63641	11162.8625
1135.2724	10884.9625
1138.90589	10645.9625
1142.5369	10480.8625
1146.16542	10388.2625
1149.79145	10306.6625
1153.415	10240.9625
1157.03607	10205.9625
1160.65467	10323.0625
1164.27079	10536.4625
1167.88443	10883.5625
1171.49561	11390.3625
1175.10432	12145.9625
1178.71056	13142.7625
1182.31434	13984.2625
1185.91565	14373.6625
1189.51451	14352.3625
1193.11091	14052.9625
1196.70485	13652.8625
1200.29634	13265.8625
1203.88538	12830.1625
1207.47197	12346.6625
1211.05612	11883.6625
1214.63782	11546.0625
1218.21708	11317.5625
1221.79391	11251.3625
1225.36829	11274.4625
1228.94024	11231.9625
1232.50976	11178.6625
1236.07685	11122.3625
1239.6415	11123.3625
1243.20374	11145.6625
1246.76355	11237.9625
1250.32093	11366.8625
1253.8759	11567.7625
1257.42845	11864.3625
1260.97859	12212.0625
1264.52631	12518.9625
1268.07163	12767.3625
1271.61453	12933.6625
1275.15503	13081.1625
1278.69312	13164.9625
1282.22882	13304.6625
1285.76211	13424.6625
1289.29301	13538.0625
1292.82151	13768.6625
1296.34761	14033.2625
1299.87133	14517.5625
1303.39266	15310.6625
1306.9116	16504.8625
1310.42815	17772.9625
1313.94233	18385.0625
1317.45412	17949.4625
1320.96354	17015.6625
1324.47058	16011.7625
1327.97525	15148.4625
1331.47754	14648.9625
1334.97747	14493.3625
1338.47502	14644.5625
1341.97022	15066.8625
1345.46305	15792.2625
1348.95352	16778.3625
1352.44163	17852.5625
1355.92738	18947.8625
1359.41078	20272.2625
1362.89183	21142.9625
1366.37053	20091.5625
1369.84688	17596.7625
1373.32088	15293.7625
1376.79254	13947.4625
1380.26186	13349.0625
1383.72883	12974.1625
1387.19347	12669.8625
1390.65578	12290.6625
1394.11575	11966.9625
1397.57339	11745.5625
1401.0287	11662.8625
1404.48168	11693.2625
1407.93234	11792.3625
1411.38068	11969.7625
1414.82669	12115.8625
1418.27039	12131.2625
1421.71177	12093.3625
1425.15083	12033.0625
1428.58758	11967.1625
1432.02203	12084.2625
1435.45416	12169.8625
1438.88399	12165.7625
1442.31151	12120.0625
1445.73673	12117.3625
1449.15965	12058.7625
1452.58027	12015.7625
1455.9986	11931.6625
1459.41463	11929.0625
1462.82837	12016.6625
1466.23982	12220.8625
1469.64898	12409.3625
1473.05586	12577.8625
1476.46045	12700.6625
1479.86276	12896.8625
1483.26279	12991.2625
1486.66054	13175.6625
1490.05602	13514.2625
1493.44922	14038.9625
1496.84016	14744.7625
1500.22882	15828.7625
1503.61521	17092.8625
1506.99934	18342.2625
1510.38121	19048.4625
1513.76081	18790.3625
1517.13816	17530.6625
1520.51324	15971.2625
1523.88607	14680.9625
1527.25665	13910.6625
1530.62498	13480.0625
1533.99105	13282.7625
1537.35488	13206.9625
1540.71647	13109.4625
1544.07581	12991.3625
1547.4329	12872.8625
1550.78776	12747.4625
1554.14038	12633.9625
1557.49077	12581.4625
1560.83892	12725.0625
1564.18484	12926.0625
1567.52853	13164.1625
1570.86999	13304.2625
1574.20922	13307.5625
1577.54624	13153.9625
1580.88103	12699.4625
1584.2136	12216.8625
1587.54395	12022.2625
1590.87208	12224.3625
1594.19801	12760.3625
1597.52172	13398.7625
1600.84321	13741.0625
1604.16251	13584.1625
1607.47959	13215.7625
1610.79447	12711.4625
1614.10715	12061.0625
1617.41763	11425.4625
1620.7259	10956.4625
1624.03199	10749.7625
1627.33587	10704.2625
1630.63757	10878.3625
1633.93707	11314.1625
1637.23439	12059.3625
1640.52951	13094.2625
1643.82246	14369.8625
1647.11321	15471.2625
1650.40179	15791.4625
1653.68819	14897.2625
1656.97241	13202.4625
1660.25446	11671.8625
1663.53433	10642.3625
1666.81203	10022.3625
1670.08756	9643.9625
1673.36092	9433.3625
1676.63211	9263.5625
1679.90115	9152.5625
1683.16801	9063.6625
1686.43272	8971.3625
1689.69527	8913.3625
1692.95567	8901.3625
1696.2139	8862.5625
1699.46999	8839.0625
1702.72392	8836.1625
1705.97571	8801.9625
1709.22535	8788.7625
1712.47284	8820.6625
1715.71819	8817.3625
1718.96139	8815.4625
1722.20246	8781.2625
1725.44139	8763.4625
1728.67818	8706.1625
1731.91284	8671.1625
1735.14537	8628.2625
1738.37576	8596.3625
1741.60403	8571.6625
1744.83017	8547.4625
1748.05418	8531.9625
1751.27607	8513.1625
1754.49584	8483.5625
1757.71349	8503.0625
1760.92903	8476.8625
1764.14244	8458.4625
1767.35375	8418.6625
1770.56294	8421.0625
1773.77002	8410.0625
1776.97499	8401.5625
1780.17785	8354.7625
1783.37861	8329.5625
1786.57727	8355.1625
1789.77382	8334.3625
1792.96828	8318.1625
1796.16064	8303.3625
1799.3509	8290.0625
1802.53907	8293.5625
1805.72514	8285.3625
1808.90913	8219.5625
1812.09102	8239.7625
1815.27083	8209.3625
1818.44856	8179.0625
1821.6242	8169.4625
1824.79776	8128.8625
1827.96924	8140.0625
1831.13864	8132.6625
1834.30597	8123.8625
1837.47122	8111.6625
1840.6344	8074.6625
1843.7955	8088.9625
1846.95454	8081.4625
1850.11151	8069.2625
1853.26642	8071.7625
1856.41926	8070.6625
1859.57004	8089.9625
1862.71876	8082.8625
1865.86542	8061.5625
1869.01003	8064.2625
1872.15258	8042.4625
1875.29308	8011.1625
1878.43152	8028.1625
1881.56792	8010.8625
1884.70227	7989.2625
1887.83457	7963.5625
1890.96482	7967.9625
1894.09304	7956.3625
1897.21921	7934.3625
1900.34335	7950.0625
1903.46544	7927.6625
1906.58551	7909.8625
1909.70353	7900.7625
1912.81953	7924.1625
1915.93349	7894.6625
1919.04543	7885.1625
1922.15534	7829.7625
1925.26322	7863.4625
1928.36908	7831.0625
1931.47292	7820.1625
1934.57473	7805.6625
1937.67453	7787.1625
1940.77232	7767.0625
1943.86808	7753.8625
1946.96184	7723.9625
1950.05358	7719.3625
1953.14331	7697.1625
1956.23103	7672.9625
1959.31675	7635.4625
1962.40046	7613.2625
1965.48217	7581.2625
1968.56188	7550.3625
1971.63959	7536.2625
1974.7153	7546.0625
1977.78901	7525.9625
1980.86073	7508.5625
1983.93046	7461.2625
1986.99819	7439.8625
1990.06394	7431.9625
1993.1277	7393.4625
1996.18947	7366.4625
1999.24925	7336.3625
2002.30706	7300.0625
2005.36288	7276.3625
2008.41672	7254.5625
2011.46859	7257.0625
2014.51848	7248.0625
2017.56639	7211.8625
2020.61233	7178.0625
2023.6563	7173.5625
2026.6983	7131.7625
2029.73833	7127.0625
2032.7764	7122.8625
2035.8125	7095.8625
2038.84664	7078.2625
2041.87881	7072.5625
2044.90903	7058.1625
2047.93729	7058.1625
2050.96359	7038.2625
2053.98794	7029.3625
2057.01034	7011.9625
2060.03078	7032.4625
2063.04927	7024.0625
2066.06582	7000.5625
2069.08042	6984.0625
2072.09307	6996.5625
2075.10378	6963.9625
2078.11255	6971.0625
2081.11938	6956.2625
2084.12426	6946.1625
2087.12722	6929.3625
2090.12824	6955.9625
2093.12732	6949.1625
2096.12447	6930.8625
2099.11969	6961.2625
2102.11299	6952.9625
2105.10435	6969.2625
2108.09379	6951.3625
2111.08131	6952.4625
2114.0669	6946.5625
2117.05057	6963.5625
2120.03233	6978.7625
2123.01216	6967.0625
2125.99008	6975.6625
2128.96609	6955.1625
2131.94018	6996.6625
2134.91236	6973.7625
2137.88263	6967.0625
2140.851	6992.8625
2143.81746	6967.5625
2146.78201	6977.3625
2149.74466	6956.6625
2152.7054	6971.3625
2155.66425	6979.1625
2158.6212	6969.0625
2161.57625	6962.7625
2164.52941	6959.3625
2167.48067	6950.0625
2170.43004	6953.6625
2173.37752	6923.3625
2176.32311	6942.2625
2179.26681	6936.4625
2182.20863	6955.1625
2185.14856	6951.4625
2188.08661	6942.9625
2191.02278	6979.6625
2193.95707	6946.4625
2196.88948	6930.3625
2199.82001	6933.5625
2202.74867	6939.0625
2205.67545	6934.5625
2208.60037	6928.7625
2211.52341	6903.5625
2214.44458	6888.7625
2217.36388	6875.9625
2220.28132	6865.7625
2223.1969	6837.6625
2226.11061	6821.1625
2229.02246	6807.4625
2231.93245	6817.2625
2234.84058	6797.6625
2237.74686	6771.9625
2240.65128	6754.8625
2243.55385	6734.2625
2246.45456	6729.7625
2249.35343	6738.9625
2252.25044	6723.6625
2255.14561	6703.6625
2258.03893	6729.2625
2260.93041	6726.1625
2263.82004	6687.6625
2266.70783	6679.8625
2269.59378	6662.4625
2272.4779	6662.5625
2275.36017	6609.2625
2278.24061	6603.9625
2281.11922	6589.7625
2283.996	6566.8625
2286.87094	6569.5625
2289.74405	6579.0625
2292.61534	6559.8625
2295.4848	6537.6625
2298.35243	6528.7625
2301.21824	6530.0625
2304.08223	6527.8625
2306.94439	6530.5625
2309.80474	6518.5625
2312.66327	6524.5625
2315.51999	6519.3625
2318.37489	6540.1625
2321.22797	6504.1625
2324.07925	6514.2625
2326.92871	6481.3625
2329.77637	6472.0625
2332.62222	6473.6625
2335.46626	6447.6625
2338.3085	6447.1625
2341.14893	6439.9625
2343.98756	6467.2625
2346.8244	6458.6625
2349.65943	6445.7625
2352.49267	6424.8625
2355.32411	6452.9625
2358.15376	6443.5625
2360.98161	6437.9625
2363.80768	6427.4625
2366.63195	6431.4625
2369.45444	6395.4625
2372.27514	6405.4625
2375.09405	6369.2625
2377.91118	6366.6625
2380.72652	6353.4625
2383.54009	6342.0625
2386.35187	6329.1625
2389.16188	6313.4625
2391.97011	6292.0625
2394.77657	6274.4625
2397.58125	6258.6625
2400.38416	6260.3625
2403.18529	6246.2625
2405.98466	6257.5625
2408.78226	6212.5625
2411.57809	6224.6625
2414.37216	6195.7625
2417.16446	6176.7625
2419.955	6193.3625
2422.74378	6179.1625
2425.5308	6185.9625
2428.31606	6170.8625
2431.09956	6167.8625
2433.88131	6157.8625
2436.6613	6157.3625
2439.43954	6150.8625
2442.21603	6145.2625
2444.99077	6149.8625
2447.76377	6133.9625
2450.53501	6134.9625
2453.30451	6124.2625
2456.07226	6120.5625
2458.83827	6096.9625
2461.60254	6093.0625
2464.36507	6082.6625
2467.12586	6076.2625
2469.88492	6083.3625
2472.64224	6076.2625
2475.39782	6093.1625
2478.15167	6074.9625
2480.90379	6073.3625
2483.65417	6042.4625
2486.40283	6061.3625
2489.14976	6075.3625
2491.89497	6074.9625
2494.63845	6073.7625
2497.3802	6071.9625
2500.12024	6043.6625
2502.85855	6052.1625
2505.59514	6039.9625
2508.33002	6036.2625
2511.06318	6026.3625
2513.79462	5993.6625
2516.52435	5990.5625
2519.25237	5979.8625
2521.97867	5975.7625
2524.70327	5959.7625
2527.42616	5960.9625
2530.14734	5941.0625
2532.86681	5945.5625
2535.58458	5965.0625
2538.30065	5951.7625
2541.01501	5938.9625
2543.72768	5944.9625
2546.43864	5949.4625
2549.14791	5920.9625
2551.85548	5922.9625
2554.56136	5905.7625
2557.26554	5895.8625
2559.96803	5882.0625
2562.66883	5874.1625
2565.36794	5844.3625
2568.06536	5838.4625
2570.7611	5823.2625
2573.45514	5827.9625
2576.14751	5826.0625
2578.83819	5802.8625
2581.52719	5787.6625
2584.21451	5783.4625
2586.90015	5797.4625
2589.58411	5786.6625
2592.2664	5765.0625
2594.94701	5757.3625
2597.62594	5750.6625
2600.30321	5753.4625
2602.9788	5748.9625
2605.65273	5723.1625
2608.32498	5737.0625
2610.99557	5712.2625
2613.66449	5715.9625
2616.33175	5716.6625
2618.99734	5703.1625
2621.66128	5716.8625
2624.32355	5689.7625
2626.98416	5681.9625
2629.64311	5679.6625
2632.30041	5688.7625
2634.95605	5667.6625
2637.61004	5658.4625
2640.26238	5663.5625
2642.91306	5642.0625
2645.56209	5635.9625
2648.20948	5623.8625
2650.85521	5618.1625
2653.4993	5639.5625
2656.14175	5628.6625
2658.78255	5604.3625
2661.42171	5611.2625
2664.05923	5618.5625
2666.6951	5625.1625
2669.32934	5627.9625
2671.96194	5640.4625
2674.59291	5647.9625
2677.22224	5622.0625
2679.84993	5614.6625
2682.476	5626.2625
2685.10043	5624.0625
2687.72324	5634.1625
2690.34441	5611.2625
2692.96396	5590.6625
2695.58188	5595.1625
2698.19818	5608.5625
2700.81285	5591.6625
2703.4259	5583.7625
2706.03733	5571.5625
2708.64714	5571.2625
2711.25533	5557.1625
2713.86191	5556.7625
2716.46687	5581.1625
2719.07021	5582.1625
2721.67194	5576.4625
2724.27206	5573.0625
2726.87057	5572.6625
2729.46747	5578.4625
2732.06276	5563.9625
2734.65644	5565.5625
2737.24852	5557.9625
2739.83899	5549.1625
2742.42786	5525.2625
2745.01513	5496.3625
2747.60079	5507.0625
2750.18486	5505.4625
2752.76733	5501.0625
2755.3482	5491.9625
2757.92747	5481.5625
2760.50515	5486.6625
2763.08123	5475.5625
2765.65573	5466.7625
2768.22863	5456.8625
2770.79994	5448.8625
2773.36967	5452.6625
2775.9378	5429.1625
2778.50435	5416.4625
2781.06932	5427.7625
2783.6327	5442.7625
2786.1945	5417.7625
2788.75471	5411.7625
2791.31335	5393.4625
2793.87041	5386.0625
2796.42589	5375.2625
2798.97979	5376.6625
2801.53212	5344.6625
2804.08288	5326.5625
2806.63206	5328.0625
2809.17967	5333.4625
2811.72571	5321.7625
2814.27018	5312.6625
2816.81308	5293.8625
2819.35442	5278.2625
2821.89419	5288.7625
2824.43239	5280.8625
2826.96904	5249.0625
2829.50412	5242.7625
2832.03763	5241.7625
2834.56959	5234.0625
2837.1	5225.8625
2839.62884	5204.0625
2842.15613	5217.0625
2844.68186	5220.7625
2847.20604	5204.0625
2849.72867	5194.4625
2852.24974	5171.2625
2854.76927	5152.2625
2857.28724	5154.4625
2859.80367	5150.1625
2862.31855	5158.3625
2864.83189	5151.6625
2867.34368	5139.2625
2869.85393	5149.4625
2872.36264	5127.3625
2874.8698	5124.8625
2877.37543	5121.2625
2879.87952	5106.3625
2882.38207	5119.9625
2884.88308	5107.4625
2887.38256	5086.5625
2889.88051	5092.9625
2892.37692	5084.1625
2894.8718	5083.6625
2897.36515	5104.2625
2899.85698	5101.8625
2902.34727	5101.2625
2904.83604	5092.1625
2907.32328	5121.3625
2909.809	5113.4625
2912.29319	5109.2625
2914.77587	5108.7625
2917.25702	5126.4625
2919.73665	5115.5625
2922.21476	5117.1625
2924.69136	5089.4625
2927.16644	5102.9625
2929.64	5089.0625
2932.11205	5063.3625
2934.58258	5044.7625
2937.05161	5067.1625
2939.51912	5050.1625
2941.98513	5060.1625
2944.44962	5040.8625
2946.91261	5011.6625
2949.37409	5022.5625
2951.83407	5006.1625
2954.29254	5025.2625
2956.74951	5007.5625
2959.20498	5012.3625
2961.65895	5013.5625
2964.11142	5009.4625
2966.56239	4994.8625
2969.01186	4997.4625
2971.45984	4997.4625
2973.90632	5003.6625
2976.35131	4976.5625
2978.7948	4957.3625
2981.23681	4957.2625
2983.67732	4931.0625
2986.11635	4922.0625
2988.55388	4924.5625
2990.98993	4894.8625
2993.4245	4899.8625
2995.85758	4884.7625
2998.28917	4873.8625
3000.71928	4878.4625
3003.14791	4853.1625
3005.57506	4836.9625
3008.00073	4811.1625
3010.42493	4807.0625
3012.84764	4810.4625
3015.26888	4800.1625
3017.68865	4790.9625
3020.10694	4788.5625
3022.52376	4761.6625
3024.9391	4750.3625
3027.35298	4723.3625
3029.76539	4717.7625
3032.17632	4718.6625
3034.5858	4723.4625
3036.9938	4711.9625
3039.40034	4693.4625
3041.80542	4675.3625
3044.20903	4679.8625
3046.61118	4668.1625
3049.01187	4640.7625
3051.4111	4650.6625
3053.80888	4642.6625
3056.20519	4617.0625
3058.60005	4600.9625
3060.99345	4604.5625
3063.3854	4596.2625
3065.7759	4584.4625
3068.16494	4565.1625
3070.55254	4547.7625
3072.93868	4533.0625
3075.32338	4523.6625
3077.70662	4518.8625
3080.08842	4508.7625
3082.46878	4513.3625
3084.84769	4490.3625
3087.22515	4477.9625
3089.60118	4482.0625
3091.97576	4469.9625
3094.3489	4469.9625
3096.72061	4465.0625
3099.09087	4453.6625
3101.4597	4452.1625
3103.82709	4459.4625
3106.19305	4447.4625
3108.55757	4461.1625
3110.92066	4445.2625
3113.28232	4428.6625
3115.64255	4415.7625
3118.00134	4418.7625
3120.35871	4409.0625
3122.71466	4397.6625
3125.06917	4387.0625
3127.42226	4366.3625
3129.77393	4356.4625
3132.12417	4342.7625
3134.47299	4333.1625
3136.82039	4335.7625
3139.16636	4346.7625
3141.51092	4331.6625
3143.85406	4343.8625
3146.19579	4335.5625
3148.53609	4331.0625
3150.87499	4323.3625
3153.21246	4324.7625
3155.54853	4333.5625
3157.88318	4311.7625
3160.21642	4315.2625
3162.54826	4313.1625
3164.87868	4309.3625
3167.2077	4290.9625
3169.5353	4302.9625
3171.86151	4275.2625
3174.18631	4271.6625
3176.5097	4256.7625
3178.83169	4268.6625
3181.15228	4255.6625
3183.47147	4247.6625
3185.78926	4228.7625
3188.10565	4217.6625
3190.42065	4199.3625
3192.73424	4205.9625
3195.04645	4217.8625
3197.35725	4202.5625
3199.66667	4194.1625
3201.97469	4196.2625
3204.28132	4208.0625
3206.58656	4190.8625
3208.8904	4196.7625
3211.19287	4186.6625
3213.49394	4192.8625
3215.79363	4184.3625
3218.09193	4176.3625
3220.38884	4196.1625
3222.68438	4204.9625
3224.97853	4188.4625
3227.2713	4179.1625
3229.56269	4179.7625
3231.8527	4161.8625
3234.14133	4156.8625
3236.42858	4159.9625
3238.71446	4138.6625
3240.99896	4126.7625
3243.28209	4122.6625
3245.56384	4104.1625
3247.84423	4100.3625
3250.12324	4087.4625
3252.40088	4080.2625
3254.67715	4089.6625
3256.95205	4073.9625
3259.22558	4074.2625
3261.49775	4060.7625
3263.76855	4084.2625
3266.03799	4081.7625
3268.30606	4077.1625
3270.57277	4059.6625
3272.83812	4053.3625
3275.10211	4046.5625
3277.36474	4023.7625
3279.62601	4036.2625
3281.88593	4012.4625
3284.14448	4021.6625
3286.40168	4010.1625
3288.65753	4011.4625
3290.91202	4002.2625
3293.16516	3993.3625
3295.41695	3992.9625
3297.66738	3973.3625
3299.91647	3953.3625
3302.16421	3924.6625
3304.4106	3889.2625
3306.65564	3876.1625
3308.89933	3848.9625
3311.14169	3816.7625
3313.38269	3778.2625
3315.62236	3781.3625
3317.86068	3749.5625
3320.09766	3724.1625
3322.3333	3693.3625
3324.5676	3673.3625
3326.80056	3604.8625
3329.03219	3574.3625
3331.26248	0.9625
3333.49143	-0.7375
3335.71905	-0.4375
