Data from AgNPs_UA_20uM_CRN_500uM_SU_RamanShift__64__13-47-10-303.txt Node

Date: Thu Aug 04 13:47:10 BST 2022
User: TCL
Spectrometer: QEP01345
Trigger mode: 4
Integration Time (sec): 1.000000E0
Scans to average: 10
Electric dark correction enabled: true
Nonlinearity correction enabled: false
Boxcar width: 0
XAxis mode: Raman Shifts
Number of Pixels in Spectrum: 1044
>>>>>Begin Spectral Data<<<<<
46.04893	-1.5125
50.45542	0.7875
54.85868	-0.6125
59.25871	0.1875
63.6555	11.9875
68.04907	11.5875
72.43941	14.2875
76.82654	13.2875
81.21044	11.8875
85.59113	14.8875
89.96862	12.7875
94.34289	15.6875
98.71396	14.4875
103.08183	16.9875
107.4465	13.8875
111.80798	18.7875
116.16626	18.3875
120.52136	19.6875
124.87327	18.8875
129.222	21.6875
133.56755	20.8875
137.90993	23.1875
142.24913	25.6875
146.58517	26.1875
150.91804	30.7875
155.24774	38.0875
159.57429	47.8875
163.89768	59.9875
168.21792	80.2875
172.53501	109.5875
176.84895	145.5875
181.15975	214.4875
185.46741	300.2875
189.77193	405.3875
194.07331	551.8875
198.37157	707.1875
202.6667	880.6875
206.9587	1035.9875
211.24758	1205.5875
215.53334	1369.7875
219.81599	1546.8875
224.09553	1732.5875
228.37195	1952.5875
232.64527	2179.4875
236.91549	2408.6875
241.18261	2641.1875
245.44663	2849.2875
249.70755	3021.3875
253.96539	3187.3875
258.22014	3318.0875
262.4718	3417.6875
266.72039	3504.6875
270.96589	3554.4875
275.20832	3567.0875
279.44768	3522.6875
283.68397	3445.6875
287.91719	3402.2875
292.14735	3404.6875
296.37445	3424.8875
300.59849	3488.0875
304.81948	3565.5875
309.03742	3627.7875
313.25231	3641.9875
317.46415	3607.0875
321.67296	3537.9875
325.87872	3448.5875
330.08145	3420.8875
334.28114	3442.2875
338.47781	3486.2875
342.67145	3561.3875
346.86207	3630.6875
351.04966	3741.6875
355.23424	3841.0875
359.4158	3954.5875
363.59435	4014.8875
367.76989	4052.0875
371.94243	4083.7875
376.11196	4126.4875
380.27849	4166.9875
384.44203	4157.8875
388.60257	4199.8875
392.76012	4242.4875
396.91468	4296.9875
401.06626	4362.8875
405.21485	4432.3875
409.36047	4405.3875
413.50311	4333.8875
417.64277	4258.6875
421.77947	4209.0875
425.9132	4193.3875
430.04396	4253.7875
434.17176	4320.8875
438.2966	4467.9875
442.41849	4652.9875
446.53742	4875.7875
450.6534	5114.2875
454.76644	5239.7875
458.87653	5224.3875
462.98368	5099.1875
467.08789	4921.4875
471.18916	4741.4875
475.2875	4545.1875
479.38291	4412.3875
483.4754	4330.9875
487.56496	4251.9875
491.6516	4209.4875
495.73531	4160.2875
499.81612	4161.4875
503.89401	4187.0875
507.96899	4215.2875
512.04106	4214.9875
516.11023	4256.4875
520.1765	4305.0875
524.23987	4339.0875
528.30034	4352.2875
532.35792	4339.8875
536.41261	4284.5875
540.46441	4233.0875
544.51333	4211.1875
548.55936	4265.2875
552.60252	4317.8875
556.64279	4379.7875
560.6802	4385.2875
564.71473	4355.0875
568.7464	4368.6875
572.7752	4359.8875
576.80114	4346.3875
580.82422	4374.4875
584.84444	4457.4875
588.86181	4621.0875
592.87633	4830.8875
596.888	4958.4875
600.89682	5075.2875
604.9028	5472.9875
608.90594	6252.3875
612.90624	6834.2875
616.90371	6275.7875
620.89834	5179.5875
624.89015	4783.7875
628.87913	4726.5875
632.86528	4672.2875
636.84862	4557.0875
640.82913	4443.8875
644.80683	4321.1875
648.78172	4247.1875
652.75379	4301.1875
656.72306	4417.6875
660.68952	4547.5875
664.65319	4505.8875
668.61405	4455.8875
672.57211	4461.8875
676.52738	4466.4875
680.47986	4402.3875
684.42955	4344.6875
688.37646	4342.1875
692.32058	4404.3875
696.26192	4489.4875
700.20048	4553.7875
704.13626	4552.8875
708.06928	4471.9875
711.99952	4434.3875
715.927	4440.9875
719.85171	4465.6875
723.77365	4451.0875
727.69284	4393.0875
731.60928	4361.3875
735.52295	4401.1875
739.43388	4437.0875
743.34206	4490.1875
747.24749	4508.1875
751.15017	4536.9875
755.05012	4589.1875
758.94733	4722.3875
762.8418	4990.7875
766.73354	5389.2875
770.62254	5769.5875
774.50882	5912.9875
778.39237	5704.9875
782.27321	5289.3875
786.15132	4896.3875
790.02671	4651.5875
793.89938	4532.5875
797.76935	4485.9875
801.6366	4479.3875
805.50115	4455.1875
809.36299	4437.4875
813.22213	4417.3875
817.07857	4421.4875
820.93231	4407.0875
824.78336	4426.2875
828.63172	4434.2875
832.47738	4446.5875
836.32036	4443.0875
840.16066	4464.9875
843.99827	4489.5875
847.8332	4472.2875
851.66546	4456.9875
855.49504	4447.7875
859.32195	4464.0875
863.1462	4453.1875
866.96777	4435.9875
870.78668	4419.2875
874.60293	4436.2875
878.41652	4448.0875
882.22745	4486.3875
886.03573	4492.3875
889.84136	4474.6875
893.64433	4459.8875
897.44466	4451.3875
901.24235	4444.5875
905.0374	4427.5875
908.8298	4410.1875
912.61957	4417.3875
916.40671	4431.4875
920.19121	4483.0875
923.97308	4560.9875
927.75233	4577.6875
931.52895	4609.3875
935.30295	4558.6875
939.07433	4478.2875
942.84309	4428.2875
946.60924	4405.9875
950.37278	4382.2875
954.13371	4368.2875
957.89203	4356.6875
961.64774	4335.7875
965.40086	4311.8875
969.15137	4313.1875
972.89929	4315.9875
976.64461	4326.5875
980.38733	4327.6875
984.12747	4351.1875
987.86502	4394.6875
991.59999	4462.7875
995.33237	4549.7875
999.06217	4740.2875
1002.78939	4929.0875
1006.51404	5001.0875
1010.23611	5038.6875
1013.95561	5116.4875
1017.67255	5200.5875
1021.38692	5146.5875
1025.09872	5072.2875
1028.80796	5098.6875
1032.51465	5183.7875
1036.21877	5270.6875
1039.92035	5248.3875
1043.61937	5166.2875
1047.31584	5051.2875
1051.00976	4936.3875
1054.70114	4882.7875
1058.38998	4879.8875
1062.07627	4900.0875
1065.76003	4920.0875
1069.44126	4985.0875
1073.11995	5001.3875
1076.79611	5074.7875
1080.46974	5081.8875
1084.14085	5147.2875
1087.80943	5180.9875
1091.47549	5190.6875
1095.13903	5119.8875
1098.80005	5022.8875
1102.45857	4974.6875
1106.11456	4959.0875
1109.76805	4985.7875
1113.41903	5038.3875
1117.06751	5120.1875
1120.71348	5193.6875
1124.35696	5303.4875
1127.99793	5361.1875
1131.63641	5302.0875
1135.2724	5188.7875
1138.90589	5113.6875
1142.5369	5009.5875
1146.16542	4972.0875
1149.79145	4965.8875
1153.415	4953.5875
1157.03607	4989.4875
1160.65467	5065.0875
1164.27079	5177.7875
1167.88443	5379.9875
1171.49561	5667.3875
1175.10432	6097.5875
1178.71056	6664.9875
1182.31434	7235.6875
1185.91565	7650.9875
1189.51451	7778.3875
1193.11091	7574.5875
1196.70485	7132.4875
1200.29634	6678.2875
1203.88538	6318.4875
1207.47197	5996.3875
1211.05612	5793.0875
1214.63782	5665.0875
1218.21708	5650.8875
1221.79391	5680.3875
1225.36829	5714.5875
1228.94024	5721.6875
1232.50976	5744.4875
1236.07685	5768.6875
1239.6415	5838.0875
1243.20374	5858.2875
1246.76355	5871.0875
1250.32093	5926.6875
1253.8759	6068.8875
1257.42845	6253.2875
1260.97859	6464.8875
1264.52631	6616.6875
1268.07163	6743.7875
1271.61453	6818.0875
1275.15503	6885.9875
1278.69312	6987.6875
1282.22882	7107.5875
1285.76211	7302.1875
1289.29301	7481.3875
1292.82151	7706.2875
1296.34761	7888.7875
1299.87133	8116.6875
1303.39266	8431.2875
1306.9116	8908.7875
1310.42815	9405.6875
1313.94233	9619.7875
1317.45412	9523.8875
1320.96354	9229.2875
1324.47058	8949.3875
1327.97525	8865.2875
1331.47754	8968.3875
1334.97747	9191.9875
1338.47502	9393.8875
1341.97022	9491.2875
1345.46305	9569.0875
1348.95352	9726.5875
1352.44163	10049.8875
1355.92738	10419.0875
1359.41078	10906.9875
1362.89183	11088.3875
1366.37053	10504.9875
1369.84688	9459.6875
1373.32088	8469.3875
1376.79254	7881.3875
1380.26186	7566.6875
1383.72883	7422.9875
1387.19347	7198.9875
1390.65578	6943.8875
1394.11575	6697.7875
1397.57339	6571.6875
1401.0287	6589.3875
1404.48168	6773.9875
1407.93234	7017.9875
1411.38068	7241.5875
1414.82669	7274.6875
1418.27039	7154.2875
1421.71177	6996.8875
1425.15083	6983.1875
1428.58758	7092.9875
1432.02203	7269.3875
1435.45416	7375.9875
1438.88399	7395.7875
1442.31151	7335.9875
1445.73673	7235.7875
1449.15965	7171.8875
1452.58027	7042.9875
1455.9986	6885.3875
1459.41463	6839.1875
1462.82837	6931.4875
1466.23982	7067.2875
1469.64898	7243.8875
1473.05586	7383.3875
1476.46045	7515.6875
1479.86276	7597.4875
1483.26279	7624.3875
1486.66054	7668.0875
1490.05602	7765.5875
1493.44922	7909.3875
1496.84016	8122.4875
1500.22882	8440.8875
1503.61521	8804.5875
1506.99934	9142.6875
1510.38121	9264.7875
1513.76081	9047.6875
1517.13816	8550.9875
1520.51324	8039.1875
1523.88607	7753.2875
1527.25665	7587.1875
1530.62498	7568.8875
1533.99105	7578.5875
1537.35488	7610.7875
1540.71647	7627.3875
1544.07581	7536.8875
1547.4329	7398.4875
1550.78776	7188.3875
1554.14038	6973.9875
1557.49077	6818.8875
1560.83892	6757.3875
1564.18484	6743.8875
1567.52853	6776.0875
1570.86999	6821.1875
1574.20922	6827.2875
1577.54624	6740.4875
1580.88103	6587.4875
1584.2136	6451.7875
1587.54395	6532.6875
1590.87208	6850.6875
1594.19801	7435.2875
1597.52172	8189.1875
1600.84321	8758.9875
1604.16251	8770.0875
1607.47959	8234.8875
1610.79447	7494.4875
1614.10715	6770.1875
1617.41763	6230.0875
1620.7259	5908.7875
1624.03199	5745.7875
1627.33587	5726.5875
1630.63757	5895.0875
1633.93707	6219.2875
1637.23439	6756.9875
1640.52951	7450.3875
1643.82246	8203.3875
1647.11321	8608.0875
1650.40179	8439.3875
1653.68819	7626.2875
1656.97241	6653.3875
1660.25446	5831.2875
1663.53433	5323.6875
1666.81203	5008.5875
1670.08756	4809.0875
1673.36092	4709.6875
1676.63211	4601.1875
1679.90115	4524.1875
1683.16801	4470.0875
1686.43272	4443.1875
1689.69527	4428.2875
1692.95567	4421.4875
1696.2139	4391.6875
1699.46999	4369.2875
1702.72392	4360.3875
1705.97571	4371.5875
1709.22535	4367.2875
1712.47284	4342.7875
1715.71819	4354.8875
1718.96139	4356.2875
1722.20246	4351.1875
1725.44139	4315.3875
1728.67818	4307.0875
1731.91284	4281.3875
1735.14537	4263.2875
1738.37576	4246.6875
1741.60403	4227.5875
1744.83017	4227.2875
1748.05418	4218.6875
1751.27607	4186.1875
1754.49584	4203.5875
1757.71349	4180.0875
1760.92903	4170.3875
1764.14244	4168.4875
1767.35375	4175.1875
1770.56294	4157.7875
1773.77002	4165.1875
1776.97499	4158.3875
1780.17785	4154.1875
1783.37861	4141.3875
1786.57727	4138.5875
1789.77382	4140.0875
1792.96828	4138.6875
1796.16064	4125.8875
1799.3509	4107.1875
1802.53907	4126.7875
1805.72514	4117.4875
1808.90913	4102.6875
1812.09102	4099.0875
1815.27083	4077.5875
1818.44856	4069.8875
1821.6242	4066.0875
1824.79776	4061.3875
1827.96924	4061.0875
1831.13864	4045.3875
1834.30597	4034.6875
1837.47122	4037.4875
1840.6344	4027.4875
1843.7955	4019.1875
1846.95454	4024.3875
1850.11151	4012.0875
1853.26642	4018.8875
1856.41926	4007.6875
1859.57004	4014.1875
1862.71876	4009.3875
1865.86542	4014.4875
1869.01003	4019.6875
1872.15258	4011.9875
1875.29308	4007.8875
1878.43152	4010.2875
1881.56792	4009.6875
1884.70227	4006.4875
1887.83457	3998.2875
1890.96482	3996.1875
1894.09304	4008.3875
1897.21921	3982.2875
1900.34335	3995.8875
1903.46544	3980.0875
1906.58551	3984.1875
1909.70353	3987.0875
1912.81953	3984.3875
1915.93349	3981.7875
1919.04543	3971.0875
1922.15534	3964.2875
1925.26322	3952.1875
1928.36908	3949.9875
1931.47292	3941.1875
1934.57473	3954.4875
1937.67453	3940.0875
1940.77232	3924.4875
1943.86808	3928.8875
1946.96184	3919.0875
1950.05358	3922.4875
1953.14331	3898.3875
1956.23103	3883.2875
1959.31675	3857.3875
1962.40046	3852.2875
1965.48217	3834.2875
1968.56188	3825.5875
1971.63959	3837.9875
1974.7153	3811.0875
1977.78901	3793.3875
1980.86073	3777.7875
1983.93046	3779.2875
1986.99819	3756.3875
1990.06394	3749.2875
1993.1277	3743.5875
1996.18947	3720.2875
1999.24925	3718.4875
2002.30706	3704.0875
2005.36288	3689.6875
2008.41672	3680.0875
2011.46859	3660.3875
2014.51848	3657.0875
2017.56639	3650.6875
2020.61233	3650.7875
2023.6563	3642.9875
2026.6983	3649.2875
2029.73833	3632.3875
2032.7764	3617.6875
2035.8125	3607.7875
2038.84664	3597.3875
2041.87881	3599.3875
2044.90903	3597.5875
2047.93729	3582.4875
2050.96359	3582.3875
2053.98794	3579.7875
2057.01034	3580.4875
2060.03078	3567.8875
2063.04927	3555.1875
2066.06582	3571.1875
2069.08042	3563.0875
2072.09307	3549.2875
2075.10378	3553.8875
2078.11255	3549.7875
2081.11938	3539.5875
2084.12426	3537.2875
2087.12722	3539.0875
2090.12824	3535.1875
2093.12732	3540.3875
2096.12447	3549.7875
2099.11969	3539.5875
2102.11299	3541.5875
2105.10435	3534.6875
2108.09379	3524.6875
2111.08131	3531.2875
2114.0669	3528.9875
2117.05057	3536.4875
2120.03233	3521.7875
2123.01216	3521.5875
2125.99008	3522.0875
2128.96609	3532.8875
2131.94018	3542.8875
2134.91236	3536.1875
2137.88263	3537.8875
2140.851	3535.2875
2143.81746	3528.5875
2146.78201	3526.7875
2149.74466	3531.3875
2152.7054	3528.4875
2155.66425	3526.5875
2158.6212	3530.2875
2161.57625	3528.6875
2164.52941	3524.4875
2167.48067	3526.7875
2170.43004	3523.2875
2173.37752	3514.4875
2176.32311	3517.4875
2179.26681	3521.8875
2182.20863	3517.3875
2185.14856	3511.9875
2188.08661	3508.0875
2191.02278	3537.8875
2193.95707	3523.4875
2196.88948	3529.6875
2199.82001	3529.7875
2202.74867	3529.8875
2205.67545	3515.1875
2208.60037	3516.4875
2211.52341	3515.6875
2214.44458	3498.8875
2217.36388	3495.6875
2220.28132	3478.3875
2223.1969	3476.1875
2226.11061	3475.1875
2229.02246	3458.7875
2231.93245	3458.5875
2234.84058	3451.1875
2237.74686	3442.7875
2240.65128	3449.1875
2243.55385	3451.1875
2246.45456	3449.3875
2249.35343	3424.3875
2252.25044	3428.5875
2255.14561	3414.9875
2258.03893	3435.4875
2260.93041	3408.0875
2263.82004	3416.0875
2266.70783	3404.2875
2269.59378	3382.1875
2272.4779	3366.4875
2275.36017	3356.0875
2278.24061	3357.6875
2281.11922	3349.0875
2283.996	3335.9875
2286.87094	3326.7875
2289.74405	3325.1875
2292.61534	3322.8875
2295.4848	3318.6875
2298.35243	3335.0875
2301.21824	3317.9875
2304.08223	3323.9875
2306.94439	3330.0875
2309.80474	3325.6875
2312.66327	3325.9875
2315.51999	3313.5875
2318.37489	3317.3875
2321.22797	3323.0875
2324.07925	3308.8875
2326.92871	3301.4875
2329.77637	3309.1875
2332.62222	3299.4875
2335.46626	3296.1875
2338.3085	3290.4875
2341.14893	3307.0875
2343.98756	3291.1875
2346.8244	3311.8875
2349.65943	3308.6875
2352.49267	3293.0875
2355.32411	3306.1875
2358.15376	3306.1875
2360.98161	3294.7875
2363.80768	3300.4875
2366.63195	3293.2875
2369.45444	3263.7875
2372.27514	3273.0875
2375.09405	3269.5875
2377.91118	3258.3875
2380.72652	3267.4875
2383.54009	3242.6875
2386.35187	3238.8875
2389.16188	3223.9875
2391.97011	3226.1875
2394.77657	3213.8875
2397.58125	3215.9875
2400.38416	3200.1875
2403.18529	3216.0875
2405.98466	3185.9875
2408.78226	3176.9875
2411.57809	3176.5875
2414.37216	3185.8875
2417.16446	3187.4875
2419.955	3156.7875
2422.74378	3157.4875
2425.5308	3157.6875
2428.31606	3144.4875
2431.09956	3145.8875
2433.88131	3138.6875
2436.6613	3153.6875
2439.43954	3147.8875
2442.21603	3155.8875
2444.99077	3140.4875
2447.76377	3151.9875
2450.53501	3139.7875
2453.30451	3132.5875
2456.07226	3136.0875
2458.83827	3120.6875
2461.60254	3119.6875
2464.36507	3113.7875
2467.12586	3114.3875
2469.88492	3125.8875
2472.64224	3126.9875
2475.39782	3108.9875
2478.15167	3115.2875
2480.90379	3105.2875
2483.65417	3120.8875
2486.40283	3114.2875
2489.14976	3118.7875
2491.89497	3121.4875
2494.63845	3121.6875
2497.3802	3116.7875
2500.12024	3125.1875
2502.85855	3111.6875
2505.59514	3098.7875
2508.33002	3097.8875
2511.06318	3089.7875
2513.79462	3097.7875
2516.52435	3092.3875
2519.25237	3086.4875
2521.97867	3075.5875
2524.70327	3086.7875
2527.42616	3081.7875
2530.14734	3086.0875
2532.86681	3081.5875
2535.58458	3070.9875
2538.30065	3072.1875
2541.01501	3068.0875
2543.72768	3072.9875
2546.43864	3067.5875
2549.14791	3063.7875
2551.85548	3071.7875
2554.56136	3071.2875
2557.26554	3047.2875
2559.96803	3040.7875
2562.66883	3042.4875
2565.36794	3041.7875
2568.06536	3023.8875
2570.7611	3023.9875
2573.45514	3033.7875
2576.14751	3023.2875
2578.83819	3010.9875
2581.52719	3014.1875
2584.21451	3023.4875
2586.90015	3008.6875
2589.58411	2997.5875
2592.2664	3008.8875
2594.94701	3022.3875
2597.62594	3009.8875
2600.30321	3004.1875
2602.9788	2987.6875
2605.65273	3004.5875
2608.32498	2987.0875
2610.99557	2993.7875
2613.66449	2985.1875
2616.33175	2987.8875
2618.99734	2994.2875
2621.66128	3003.0875
2624.32355	2986.2875
2626.98416	3000.1875
2629.64311	2998.2875
2632.30041	2997.9875
2634.95605	2998.0875
2637.61004	2991.3875
2640.26238	2972.6875
2642.91306	2974.5875
2645.56209	2978.7875
2648.20948	2979.5875
2650.85521	2978.1875
2653.4993	2950.0875
2656.14175	2976.2875
2658.78255	2976.9875
2661.42171	2974.4875
2664.05923	2971.2875
2666.6951	2972.6875
2669.32934	3005.9875
2671.96194	2987.6875
2674.59291	2980.6875
2677.22224	2983.0875
2679.84993	2984.0875
2682.476	2982.9875
2685.10043	2979.8875
2687.72324	2973.5875
2690.34441	2979.0875
2692.96396	2983.9875
2695.58188	2955.7875
2698.19818	2975.2875
2700.81285	2972.6875
2703.4259	2967.9875
2706.03733	2961.0875
2708.64714	2971.3875
2711.25533	2962.4875
2713.86191	2960.9875
2716.46687	2974.5875
2719.07021	2979.9875
2721.67194	2984.5875
2724.27206	2979.5875
2726.87057	2995.4875
2729.46747	2973.1875
2732.06276	2991.4875
2734.65644	2971.2875
2737.24852	2969.2875
2739.83899	2963.7875
2742.42786	2966.5875
2745.01513	2967.5875
2747.60079	2959.3875
2750.18486	2950.9875
2752.76733	2952.0875
2755.3482	2960.2875
2757.92747	2958.7875
2760.50515	2944.6875
2763.08123	2946.0875
2765.65573	2943.1875
2768.22863	2942.8875
2770.79994	2933.4875
2773.36967	2945.0875
2775.9378	2944.4875
2778.50435	2947.8875
2781.06932	2939.3875
2783.6327	2947.5875
2786.1945	2938.6875
2788.75471	2931.1875
2791.31335	2916.5875
2793.87041	2923.5875
2796.42589	2921.6875
2798.97979	2920.8875
2801.53212	2903.6875
2804.08288	2912.7875
2806.63206	2903.1875
2809.17967	2899.7875
2811.72571	2893.6875
2814.27018	2901.1875
2816.81308	2893.0875
2819.35442	2882.3875
2821.89419	2866.2875
2824.43239	2857.9875
2826.96904	2859.9875
2829.50412	2866.9875
2832.03763	2861.2875
2834.56959	2856.3875
2837.1	2847.6875
2839.62884	2852.6875
2842.15613	2856.4875
2844.68186	2856.7875
2847.20604	2850.9875
2849.72867	2849.1875
2852.24974	2847.9875
2854.76927	2824.8875
2857.28724	2821.6875
2859.80367	2805.9875
2862.31855	2807.0875
2864.83189	2800.2875
2867.34368	2812.8875
2869.85393	2813.5875
2872.36264	2805.7875
2874.8698	2788.5875
2877.37543	2793.1875
2879.87952	2788.4875
2882.38207	2790.5875
2884.88308	2787.0875
2887.38256	2780.9875
2889.88051	2783.0875
2892.37692	2785.8875
2894.8718	2777.4875
2897.36515	2773.6875
2899.85698	2780.0875
2902.34727	2788.8875
2904.83604	2778.1875
2907.32328	2779.2875
2909.809	2774.5875
2912.29319	2792.5875
2914.77587	2775.2875
2917.25702	2775.6875
2919.73665	2775.8875
2922.21476	2781.2875
2924.69136	2780.8875
2927.16644	2773.2875
2929.64	2777.4875
2932.11205	2773.0875
2934.58258	2758.8875
2937.05161	2761.0875
2939.51912	2752.7875
2941.98513	2756.9875
2944.44962	2751.7875
2946.91261	2743.9875
2949.37409	2745.8875
2951.83407	2741.9875
2954.29254	2748.6875
2956.74951	2731.8875
2959.20498	2741.0875
2961.65895	2730.7875
2964.11142	2723.6875
2966.56239	2714.2875
2969.01186	2725.0875
2971.45984	2722.1875
2973.90632	2714.1875
2976.35131	2709.7875
2978.7948	2703.7875
2981.23681	2691.8875
2983.67732	2688.5875
2986.11635	2694.9875
2988.55388	2673.2875
2990.98993	2665.7875
2993.4245	2659.4875
2995.85758	2662.5875
2998.28917	2645.4875
3000.71928	2646.2875
3003.14791	2628.5875
3005.57506	2634.8875
3008.00073	2611.3875
3010.42493	2605.1875
3012.84764	2601.6875
3015.26888	2590.5875
3017.68865	2585.8875
3020.10694	2586.7875
3022.52376	2575.8875
3024.9391	2579.5875
3027.35298	2569.0875
3029.76539	2555.2875
3032.17632	2550.3875
3034.5858	2546.0875
3036.9938	2563.7875
3039.40034	2539.7875
3041.80542	2535.7875
3044.20903	2538.4875
3046.61118	2531.0875
3049.01187	2515.5875
3051.4111	2526.2875
3053.80888	2513.8875
3056.20519	2515.4875
3058.60005	2497.7875
3060.99345	2498.4875
3063.3854	2483.9875
3065.7759	2467.5875
3068.16494	2479.8875
3070.55254	2464.1875
3072.93868	2451.6875
3075.32338	2447.5875
3077.70662	2438.3875
3080.08842	2423.9875
3082.46878	2417.2875
3084.84769	2420.0875
3087.22515	2411.0875
3089.60118	2409.9875
3091.97576	2418.8875
3094.3489	2404.4875
3096.72061	2395.6875
3099.09087	2397.5875
3101.4597	2399.4875
3103.82709	2395.8875
3106.19305	2386.1875
3108.55757	2391.4875
3110.92066	2385.6875
3113.28232	2382.3875
3115.64255	2371.7875
3118.00134	2365.8875
3120.35871	2348.5875
3122.71466	2352.8875
3125.06917	2354.2875
3127.42226	2348.4875
3129.77393	2342.3875
3132.12417	2329.5875
3134.47299	2334.1875
3136.82039	2321.9875
3139.16636	2325.7875
3141.51092	2328.4875
3143.85406	2332.0875
3146.19579	2324.6875
3148.53609	2329.8875
3150.87499	2316.6875
3153.21246	2320.3875
3155.54853	2316.6875
3157.88318	2318.1875
3160.21642	2311.6875
3162.54826	2318.4875
3164.87868	2308.7875
3167.2077	2302.6875
3169.5353	2292.1875
3171.86151	2291.8875
3174.18631	2292.3875
3176.5097	2301.1875
3178.83169	2272.1875
3181.15228	2280.3875
3183.47147	2276.2875
3185.78926	2278.9875
3188.10565	2264.8875
3190.42065	2256.1875
3192.73424	2260.8875
3195.04645	2253.2875
3197.35725	2252.9875
3199.66667	2242.6875
3201.97469	2248.7875
3204.28132	2247.6875
3206.58656	2254.3875
3208.8904	2239.8875
3211.19287	2243.8875
3213.49394	2252.1875
3215.79363	2244.8875
3218.09193	2250.6875
3220.38884	2237.5875
3222.68438	2239.7875
3224.97853	2238.4875
3227.2713	2250.0875
3229.56269	2233.6875
3231.8527	2220.9875
3234.14133	2220.4875
3236.42858	2216.3875
3238.71446	2221.2875
3240.99896	2206.9875
3243.28209	2204.7875
3245.56384	2206.2875
3247.84423	2197.1875
3250.12324	2189.5875
3252.40088	2192.7875
3254.67715	2196.7875
3256.95205	2190.0875
3259.22558	2183.5875
3261.49775	2188.3875
3263.76855	2177.0875
3266.03799	2180.6875
3268.30606	2196.1875
3270.57277	2178.7875
3272.83812	2179.4875
3275.10211	2160.5875
3277.36474	2165.7875
3279.62601	2159.2875
3281.88593	2149.9875
3284.14448	2150.3875
3286.40168	2157.6875
3288.65753	2147.0875
3290.91202	2145.8875
3293.16516	2141.7875
3295.41695	2126.5875
3297.66738	2121.9875
3299.91647	2101.3875
3302.16421	2088.0875
3304.4106	2092.2875
3306.65564	2066.0875
3308.89933	2056.4875
3311.14169	2037.2875
3313.38269	2016.6875
3315.62236	2005.8875
3317.86068	1994.7875
3320.09766	1971.7875
3322.3333	1951.0875
3324.5676	1942.5875
3326.80056	1912.4875
3329.03219	1896.7875
3331.26248	2.2875
3333.49143	-0.8125
3335.71905	-1.8125
