Data from AgNPs_UA_5uM_CRN_500uM_SU_RamanShift__136__11-52-03-166.txt Node

Date: Thu Aug 04 11:52:03 BST 2022
User: TCL
Spectrometer: QEP01345
Trigger mode: 4
Integration Time (sec): 1.000000E0
Scans to average: 10
Electric dark correction enabled: true
Nonlinearity correction enabled: false
Boxcar width: 0
XAxis mode: Raman Shifts
Number of Pixels in Spectrum: 1044
>>>>>Begin Spectral Data<<<<<
46.04893	-0.7625
50.45542	0.7375
54.85868	-0.7625
59.25871	-1.4625
63.6555	-56.6625
68.04907	-39.7625
72.43941	-71.6625
76.82654	-56.4625
81.21044	-56.7625
85.59113	-50.3625
89.96862	-75.4625
94.34289	-55.1625
98.71396	-77.5625
103.08183	-57.4625
107.4465	-49.4625
111.80798	-55.4625
116.16626	-44.7625
120.52136	-74.2625
124.87327	-49.7625
129.222	-64.2625
133.56755	-50.2625
137.90993	-63.0625
142.24913	-51.1625
146.58517	-41.9625
150.91804	-41.1625
155.24774	-27.7625
159.57429	-10.0625
163.89768	-8.4625
168.21792	36.9375
172.53501	58.3375
176.84895	145.0375
181.15975	274.1375
185.46741	412.8375
189.77193	592.7375
194.07331	878.7375
198.37157	1172.3375
202.6667	1457.6375
206.9587	1777.5375
211.24758	2080.7375
215.53334	2409.1375
219.81599	2746.7375
224.09553	3157.3375
228.37195	3596.5375
232.64527	4042.8375
236.91549	4502.4375
241.18261	4870.6375
245.44663	5185.7375
249.70755	5380.1375
253.96539	5524.3375
258.22014	5617.7375
262.4718	5690.0375
266.72039	5729.1375
270.96589	5678.6375
275.20832	5577.2375
279.44768	5461.4375
283.68397	5344.1375
287.91719	5290.3375
292.14735	5309.4375
296.37445	5436.9375
300.59849	5676.6375
304.81948	5979.0375
309.03742	6293.7375
313.25231	6503.1375
317.46415	6458.0375
321.67296	6094.2375
325.87872	5745.9375
330.08145	5600.6375
334.28114	5553.5375
338.47781	5623.4375
342.67145	5759.1375
346.86207	5971.7375
351.04966	6324.5375
355.23424	6675.7375
359.4158	6923.9375
363.59435	6958.7375
367.76989	6906.1375
371.94243	6800.7375
376.11196	6714.7375
380.27849	6643.4375
384.44203	6602.3375
388.60257	6568.5375
392.76012	6587.5375
396.91468	6680.1375
401.06626	6831.7375
405.21485	6865.9375
409.36047	6745.3375
413.50311	6473.9375
417.64277	6214.1375
421.77947	6032.5375
425.9132	5964.7375
430.04396	5961.2375
434.17176	6006.0375
438.2966	6102.7375
442.41849	6203.0375
446.53742	6284.1375
450.6534	6411.4375
454.76644	6475.8375
458.87653	6513.0375
462.98368	6462.7375
467.08789	6421.5375
471.18916	6383.8375
475.2875	6275.2375
479.38291	6178.2375
483.4754	6085.6375
487.56496	6046.6375
491.6516	5996.0375
495.73531	6000.7375
499.81612	6025.4375
503.89401	6112.6375
507.96899	6136.2375
512.04106	6223.2375
516.11023	6343.4375
520.1765	6404.4375
524.23987	6423.5375
528.30034	6431.4375
532.35792	6356.5375
536.41261	6323.6375
540.46441	6253.3375
544.51333	6214.3375
548.55936	6239.9375
552.60252	6357.1375
556.64279	6449.8375
560.6802	6567.2375
564.71473	6692.8375
568.7464	6855.1375
572.7752	6822.5375
576.80114	6514.8375
580.82422	6308.7375
584.84444	6219.6375
588.86181	6220.2375
592.87633	6252.1375
596.888	6370.4375
600.89682	6702.3375
604.9028	7556.7375
608.90594	9393.1375
612.90624	11459.3375
616.90371	10696.2375
620.89834	8024.9375
624.89015	6848.1375
628.87913	6678.3375
632.86528	6817.1375
636.84862	6966.7375
640.82913	6866.3375
644.80683	6561.0375
648.78172	6390.1375
652.75379	6414.2375
656.72306	6634.1375
660.68952	6849.4375
664.65319	6776.2375
668.61405	6589.9375
672.57211	6540.5375
676.52738	6532.9375
680.47986	6447.5375
684.42955	6370.3375
688.37646	6325.7375
692.32058	6328.2375
696.26192	6399.0375
700.20048	6492.4375
704.13626	6515.3375
708.06928	6486.1375
711.99952	6455.1375
715.927	6426.8375
719.85171	6454.7375
723.77365	6512.1375
727.69284	6495.0375
731.60928	6497.6375
735.52295	6457.7375
739.43388	6507.2375
743.34206	6524.1375
747.24749	6534.4375
751.15017	6542.9375
755.05012	6594.4375
758.94733	6930.6375
762.8418	7638.4375
766.73354	8794.9375
770.62254	9618.8375
774.50882	9735.5375
778.39237	9293.8375
782.27321	8520.9375
786.15132	7604.0375
790.02671	7025.1375
793.89938	6665.7375
797.76935	6585.5375
801.6366	6515.1375
805.50115	6468.3375
809.36299	6475.7375
813.22213	6483.8375
817.07857	6459.7375
820.93231	6466.1375
824.78336	6502.3375
828.63172	6514.2375
832.47738	6510.8375
836.32036	6531.9375
840.16066	6508.2375
843.99827	6474.2375
847.8332	6491.1375
851.66546	6502.2375
855.49504	6501.1375
859.32195	6535.3375
863.1462	6537.5375
866.96777	6542.0375
870.78668	6512.1375
874.60293	6554.6375
878.41652	6550.0375
882.22745	6643.9375
886.03573	6649.1375
889.84136	6651.4375
893.64433	6689.9375
897.44466	6651.4375
901.24235	6622.1375
905.0374	6625.0375
908.8298	6590.8375
912.61957	6555.5375
916.40671	6502.2375
920.19121	6579.9375
923.97308	6638.6375
927.75233	6696.9375
931.52895	6745.3375
935.30295	6729.2375
939.07433	6612.7375
942.84309	6508.4375
946.60924	6480.9375
950.37278	6456.1375
954.13371	6446.6375
957.89203	6419.2375
961.64774	6461.9375
965.40086	6430.3375
969.15137	6405.7375
972.89929	6442.2375
976.64461	6437.8375
980.38733	6468.2375
984.12747	6460.5375
987.86502	6485.8375
991.59999	6502.7375
995.33237	6584.9375
999.06217	6666.5375
1002.78939	6736.0375
1006.51404	6886.7375
1010.23611	7023.5375
1013.95561	7051.1375
1017.67255	7056.3375
1021.38692	7032.4375
1025.09872	6977.6375
1028.80796	6884.0375
1032.51465	6886.1375
1036.21877	6872.9375
1039.92035	6913.9375
1043.61937	6947.8375
1047.31584	6984.2375
1051.00976	7028.7375
1054.70114	7025.4375
1058.38998	7020.0375
1062.07627	7016.8375
1065.76003	7069.0375
1069.44126	7153.5375
1073.11995	7230.2375
1076.79611	7347.1375
1080.46974	7488.5375
1084.14085	7638.6375
1087.80943	7724.3375
1091.47549	7778.7375
1095.13903	7713.6375
1098.80005	7641.8375
1102.45857	7537.5375
1106.11456	7481.0375
1109.76805	7403.9375
1113.41903	7513.1375
1117.06751	7645.3375
1120.71348	7848.3375
1124.35696	8175.2375
1127.99793	8417.7375
1131.63641	8295.3375
1135.2724	7952.0375
1138.90589	7689.3375
1142.5369	7544.4375
1146.16542	7469.2375
1149.79145	7381.9375
1153.415	7307.1375
1157.03607	7296.8375
1160.65467	7359.6375
1164.27079	7527.4375
1167.88443	7724.3375
1171.49561	8089.1375
1175.10432	8602.0375
1178.71056	9382.3375
1182.31434	10040.0375
1185.91565	10267.9375
1189.51451	10154.2375
1193.11091	9986.9375
1196.70485	9803.8375
1200.29634	9622.7375
1203.88538	9400.6375
1207.47197	9062.2375
1211.05612	8665.8375
1214.63782	8357.5375
1218.21708	8115.0375
1221.79391	7974.7375
1225.36829	7895.2375
1228.94024	7837.2375
1232.50976	7862.3375
1236.07685	7886.8375
1239.6415	7898.4375
1243.20374	7950.1375
1246.76355	7989.9375
1250.32093	8065.6375
1253.8759	8156.4375
1257.42845	8341.0375
1260.97859	8517.9375
1264.52631	8716.5375
1268.07163	8851.4375
1271.61453	8961.3375
1275.15503	8975.5375
1278.69312	8974.1375
1282.22882	9043.5375
1285.76211	9220.4375
1289.29301	9419.9375
1292.82151	9660.4375
1296.34761	9863.5375
1299.87133	10228.1375
1303.39266	10805.3375
1306.9116	11788.1375
1310.42815	12825.9375
1313.94233	13206.8375
1317.45412	12552.6375
1320.96354	11599.7375
1324.47058	10733.2375
1327.97525	10070.6375
1331.47754	9744.6375
1334.97747	9676.6375
1338.47502	9798.9375
1341.97022	10138.6375
1345.46305	10759.8375
1348.95352	11688.6375
1352.44163	12750.8375
1355.92738	13830.3375
1359.41078	15169.6375
1362.89183	16400.2375
1366.37053	15802.8375
1369.84688	13338.2375
1373.32088	11122.5375
1376.79254	9943.0375
1380.26186	9408.7375
1383.72883	9061.6375
1387.19347	8716.2375
1390.65578	8422.9375
1394.11575	8212.8375
1397.57339	8100.6375
1401.0287	7990.3375
1404.48168	7971.7375
1407.93234	7975.2375
1411.38068	8000.6375
1414.82669	8074.7375
1418.27039	8136.9375
1421.71177	8144.7375
1425.15083	8020.5375
1428.58758	7984.5375
1432.02203	8006.9375
1435.45416	8080.9375
1438.88399	8087.3375
1442.31151	8082.6375
1445.73673	8167.2375
1449.15965	8227.5375
1452.58027	8232.2375
1455.9986	8235.3375
1459.41463	8200.2375
1462.82837	8326.3375
1466.23982	8498.9375
1469.64898	8674.1375
1473.05586	8807.6375
1476.46045	8889.6375
1479.86276	8926.8375
1483.26279	9008.3375
1486.66054	9151.5375
1490.05602	9372.0375
1493.44922	9851.6375
1496.84016	10551.3375
1500.22882	11717.6375
1503.61521	13136.9375
1506.99934	14592.0375
1510.38121	15578.9375
1513.76081	15493.4375
1517.13816	14236.6375
1520.51324	12435.9375
1523.88607	10993.0375
1527.25665	10152.1375
1530.62498	9712.1375
1533.99105	9543.4375
1537.35488	9439.5375
1540.71647	9385.8375
1544.07581	9321.5375
1547.4329	9223.5375
1550.78776	9120.6375
1554.14038	9008.0375
1557.49077	8980.4375
1560.83892	9047.1375
1564.18484	9212.7375
1567.52853	9477.5375
1570.86999	9707.1375
1574.20922	9840.2375
1577.54624	9724.1375
1580.88103	9300.7375
1584.2136	8760.3375
1587.54395	8485.3375
1590.87208	8440.3375
1594.19801	8583.8375
1597.52172	8934.3375
1600.84321	9072.5375
1604.16251	8999.8375
1607.47959	8851.2375
1610.79447	8672.2375
1614.10715	8358.7375
1617.41763	8089.0375
1620.7259	7792.5375
1624.03199	7674.3375
1627.33587	7575.9375
1630.63757	7641.6375
1633.93707	7861.6375
1637.23439	8225.7375
1640.52951	8846.8375
1643.82246	9690.3375
1647.11321	10686.8375
1650.40179	11241.0375
1653.68819	10917.4375
1656.97241	9838.9375
1660.25446	8630.2375
1663.53433	7759.9375
1666.81203	7250.8375
1670.08756	6965.2375
1673.36092	6796.8375
1676.63211	6671.1375
1679.90115	6569.5375
1683.16801	6508.2375
1686.43272	6425.3375
1689.69527	6367.4375
1692.95567	6308.0375
1696.2139	6277.4375
1699.46999	6208.4375
1702.72392	6229.8375
1705.97571	6254.0375
1709.22535	6215.7375
1712.47284	6245.2375
1715.71819	6256.4375
1718.96139	6253.1375
1722.20246	6234.4375
1725.44139	6212.0375
1728.67818	6184.4375
1731.91284	6148.8375
1735.14537	6127.9375
1738.37576	6096.1375
1741.60403	6078.4375
1744.83017	6043.7375
1748.05418	6051.0375
1751.27607	6057.9375
1754.49584	6018.2375
1757.71349	5984.9375
1760.92903	6003.5375
1764.14244	5956.3375
1767.35375	5962.0375
1770.56294	5940.3375
1773.77002	5914.7375
1776.97499	5930.3375
1780.17785	5892.7375
1783.37861	5894.3375
1786.57727	5907.0375
1789.77382	5833.2375
1792.96828	5892.0375
1796.16064	5887.0375
1799.3509	5865.9375
1802.53907	5892.7375
1805.72514	5858.0375
1808.90913	5823.1375
1812.09102	5818.3375
1815.27083	5808.9375
1818.44856	5790.6375
1821.6242	5790.7375
1824.79776	5768.0375
1827.96924	5759.2375
1831.13864	5725.5375
1834.30597	5743.2375
1837.47122	5723.9375
1840.6344	5719.3375
1843.7955	5722.2375
1846.95454	5689.5375
1850.11151	5710.6375
1853.26642	5692.8375
1856.41926	5693.9375
1859.57004	5681.7375
1862.71876	5674.3375
1865.86542	5680.9375
1869.01003	5656.6375
1872.15258	5643.7375
1875.29308	5661.4375
1878.43152	5644.2375
1881.56792	5628.1375
1884.70227	5607.2375
1887.83457	5628.2375
1890.96482	5614.9375
1894.09304	5593.2375
1897.21921	5578.4375
1900.34335	5589.5375
1903.46544	5573.0375
1906.58551	5576.0375
1909.70353	5573.9375
1912.81953	5589.7375
1915.93349	5560.6375
1919.04543	5552.2375
1922.15534	5529.1375
1925.26322	5537.2375
1928.36908	5512.3375
1931.47292	5511.2375
1934.57473	5504.6375
1937.67453	5475.7375
1940.77232	5457.2375
1943.86808	5453.0375
1946.96184	5435.4375
1950.05358	5428.0375
1953.14331	5405.7375
1956.23103	5384.0375
1959.31675	5375.0375
1962.40046	5323.8375
1965.48217	5328.3375
1968.56188	5315.7375
1971.63959	5303.0375
1974.7153	5312.8375
1977.78901	5296.4375
1980.86073	5276.4375
1983.93046	5232.0375
1986.99819	5155.7375
1990.06394	5182.1375
1993.1277	5175.2375
1996.18947	5172.2375
1999.24925	5117.9375
2002.30706	5138.9375
2005.36288	5113.2375
2008.41672	5124.8375
2011.46859	5066.2375
2014.51848	5065.2375
2017.56639	5048.6375
2020.61233	5021.7375
2023.6563	5019.6375
2026.6983	4982.1375
2029.73833	4982.6375
2032.7764	4990.6375
2035.8125	4943.4375
2038.84664	4945.0375
2041.87881	4924.4375
2044.90903	4937.5375
2047.93729	4921.7375
2050.96359	4918.0375
2053.98794	4919.6375
2057.01034	4911.1375
2060.03078	4901.2375
2063.04927	4884.9375
2066.06582	4880.1375
2069.08042	4875.0375
2072.09307	4877.4375
2075.10378	4875.9375
2078.11255	4864.2375
2081.11938	4870.7375
2084.12426	4845.4375
2087.12722	4840.0375
2090.12824	4856.5375
2093.12732	4854.0375
2096.12447	4864.0375
2099.11969	4858.0375
2102.11299	4858.7375
2105.10435	4873.1375
2108.09379	4853.9375
2111.08131	4842.2375
2114.0669	4848.6375
2117.05057	4857.9375
2120.03233	4834.2375
2123.01216	4851.7375
2125.99008	4868.9375
2128.96609	4851.6375
2131.94018	4874.4375
2134.91236	4859.1375
2137.88263	4863.1375
2140.851	4854.5375
2143.81746	4893.9375
2146.78201	4871.2375
2149.74466	4849.5375
2152.7054	4872.2375
2155.66425	4859.6375
2158.6212	4873.4375
2161.57625	4837.7375
2164.52941	4808.3375
2167.48067	4815.7375
2170.43004	4812.6375
2173.37752	4845.9375
2176.32311	4822.3375
2179.26681	4829.7375
2182.20863	4832.4375
2185.14856	4823.1375
2188.08661	4818.9375
2191.02278	4849.5375
2193.95707	4805.7375
2196.88948	4801.2375
2199.82001	4805.1375
2202.74867	4788.2375
2205.67545	4779.5375
2208.60037	4792.7375
2211.52341	4775.8375
2214.44458	4762.0375
2217.36388	4748.4375
2220.28132	4739.9375
2223.1969	4723.2375
2226.11061	4718.9375
2229.02246	4706.7375
2231.93245	4710.2375
2234.84058	4663.4375
2237.74686	4677.9375
2240.65128	4683.8375
2243.55385	4664.0375
2246.45456	4636.4375
2249.35343	4662.2375
2252.25044	4650.0375
2255.14561	4641.9375
2258.03893	4650.2375
2260.93041	4638.5375
2263.82004	4618.8375
2266.70783	4618.0375
2269.59378	4589.6375
2272.4779	4561.5375
2275.36017	4578.1375
2278.24061	4565.1375
2281.11922	4539.9375
2283.996	4541.2375
2286.87094	4511.2375
2289.74405	4530.9375
2292.61534	4529.1375
2295.4848	4514.1375
2298.35243	4502.7375
2301.21824	4484.0375
2304.08223	4505.3375
2306.94439	4492.0375
2309.80474	4484.7375
2312.66327	4495.8375
2315.51999	4469.6375
2318.37489	4462.0375
2321.22797	4439.2375
2324.07925	4439.3375
2326.92871	4439.1375
2329.77637	4413.6375
2332.62222	4400.2375
2335.46626	4400.5375
2338.3085	4373.2375
2341.14893	4404.1375
2343.98756	4405.1375
2346.8244	4371.8375
2349.65943	4373.3375
2352.49267	4374.6375
2355.32411	4381.1375
2358.15376	4372.0375
2360.98161	4355.6375
2363.80768	4363.1375
2366.63195	4354.9375
2369.45444	4361.7375
2372.27514	4367.4375
2375.09405	4357.5375
2377.91118	4315.1375
2380.72652	4321.3375
2383.54009	4325.0375
2386.35187	4324.5375
2389.16188	4295.5375
2391.97011	4297.5375
2394.77657	4282.3375
2397.58125	4274.2375
2400.38416	4263.9375
2403.18529	4248.3375
2405.98466	4249.7375
2408.78226	4243.3375
2411.57809	4229.1375
2414.37216	4214.6375
2417.16446	4206.8375
2419.955	4203.3375
2422.74378	4215.6375
2425.5308	4192.0375
2428.31606	4194.9375
2431.09956	4194.3375
2433.88131	4169.6375
2436.6613	4183.0375
2439.43954	4171.8375
2442.21603	4161.0375
2444.99077	4145.9375
2447.76377	4162.1375
2450.53501	4164.6375
2453.30451	4144.0375
2456.07226	4146.5375
2458.83827	4150.2375
2461.60254	4106.6375
2464.36507	4141.2375
2467.12586	4112.1375
2469.88492	4110.9375
2472.64224	4112.7375
2475.39782	4092.7375
2478.15167	4117.0375
2480.90379	4092.0375
2483.65417	4097.5375
2486.40283	4115.3375
2489.14976	4128.4375
2491.89497	4091.7375
2494.63845	4109.1375
2497.3802	4088.3375
2500.12024	4080.8375
2502.85855	4074.7375
2505.59514	4081.2375
2508.33002	4067.4375
2511.06318	4043.1375
2513.79462	4038.4375
2516.52435	4005.2375
2519.25237	3990.3375
2521.97867	4009.2375
2524.70327	3990.8375
2527.42616	4000.5375
2530.14734	4009.9375
2532.86681	3977.7375
2535.58458	3979.9375
2538.30065	3972.0375
2541.01501	3984.1375
2543.72768	3977.9375
2546.43864	3973.7375
2549.14791	3953.4375
2551.85548	3940.8375
2554.56136	3941.8375
2557.26554	3921.1375
2559.96803	3935.0375
2562.66883	3930.2375
2565.36794	3887.8375
2568.06536	3867.8375
2570.7611	3903.9375
2573.45514	3875.8375
2576.14751	3870.6375
2578.83819	3847.7375
2581.52719	3852.1375
2584.21451	3852.0375
2586.90015	3814.9375
2589.58411	3805.5375
2592.2664	3813.2375
2594.94701	3822.9375
2597.62594	3824.9375
2600.30321	3750.5375
2602.9788	3760.7375
2605.65273	3754.1375
2608.32498	3757.0375
2610.99557	3787.1375
2613.66449	3757.7375
2616.33175	3759.2375
2618.99734	3758.0375
2621.66128	3760.2375
2624.32355	3755.7375
2626.98416	3726.5375
2629.64311	3708.3375
2632.30041	3698.6375
2634.95605	3689.3375
2637.61004	3673.8375
2640.26238	3673.9375
2642.91306	3659.7375
2645.56209	3681.2375
2648.20948	3683.3375
2650.85521	3657.5375
2653.4993	3691.4375
2656.14175	3671.8375
2658.78255	3666.9375
2661.42171	3628.9375
2664.05923	3672.9375
2666.6951	3673.7375
2669.32934	3661.8375
2671.96194	3704.3375
2674.59291	3667.2375
2677.22224	3672.9375
2679.84993	3668.8375
2682.476	3665.8375
2685.10043	3656.8375
2687.72324	3649.4375
2690.34441	3634.8375
2692.96396	3632.3375
2695.58188	3662.3375
2698.19818	3641.3375
2700.81285	3628.4375
2703.4259	3635.2375
2706.03733	3601.6375
2708.64714	3593.5375
2711.25533	3632.9375
2713.86191	3621.0375
2716.46687	3630.6375
2719.07021	3619.3375
2721.67194	3611.9375
2724.27206	3631.7375
2726.87057	3612.6375
2729.46747	3620.2375
2732.06276	3620.5375
2734.65644	3589.5375
2737.24852	3601.0375
2739.83899	3563.0375
2742.42786	3594.1375
2745.01513	3584.5375
2747.60079	3583.8375
2750.18486	3553.6375
2752.76733	3569.5375
2755.3482	3552.7375
2757.92747	3551.7375
2760.50515	3526.2375
2763.08123	3531.7375
2765.65573	3528.9375
2768.22863	3514.8375
2770.79994	3514.1375
2773.36967	3508.1375
2775.9378	3485.2375
2778.50435	3479.7375
2781.06932	3479.7375
2783.6327	3487.2375
2786.1945	3501.1375
2788.75471	3468.2375
2791.31335	3465.6375
2793.87041	3468.5375
2796.42589	3439.5375
2798.97979	3427.7375
2801.53212	3434.1375
2804.08288	3439.8375
2806.63206	3430.8375
2809.17967	3405.5375
2811.72571	3410.5375
2814.27018	3402.6375
2816.81308	3395.7375
2819.35442	3346.3375
2821.89419	3374.5375
2824.43239	3360.2375
2826.96904	3382.0375
2829.50412	3359.8375
2832.03763	3360.9375
2834.56959	3365.6375
2837.1	3344.2375
2839.62884	3352.3375
2842.15613	3336.7375
2844.68186	3352.8375
2847.20604	3325.0375
2849.72867	3312.6375
2852.24974	3328.0375
2854.76927	3283.0375
2857.28724	3236.8375
2859.80367	3299.9375
2862.31855	3302.1375
2864.83189	3298.3375
2867.34368	3286.7375
2869.85393	3303.6375
2872.36264	3264.5375
2874.8698	3277.0375
2877.37543	3284.6375
2879.87952	3265.8375
2882.38207	3255.2375
2884.88308	3264.8375
2887.38256	3266.0375
2889.88051	3249.3375
2892.37692	3264.3375
2894.8718	3225.2375
2897.36515	3258.6375
2899.85698	3239.7375
2902.34727	3239.4375
2904.83604	3236.5375
2907.32328	3259.4375
2909.809	3248.1375
2912.29319	3248.6375
2914.77587	3257.9375
2917.25702	3272.5375
2919.73665	3268.5375
2922.21476	3264.5375
2924.69136	3256.7375
2927.16644	3245.9375
2929.64	3244.6375
2932.11205	3240.7375
2934.58258	3240.5375
2937.05161	3217.4375
2939.51912	3233.5375
2941.98513	3232.5375
2944.44962	3218.0375
2946.91261	3188.0375
2949.37409	3193.8375
2951.83407	3194.8375
2954.29254	3191.6375
2956.74951	3187.2375
2959.20498	3175.1375
2961.65895	3177.2375
2964.11142	3169.2375
2966.56239	3159.1375
2969.01186	3158.8375
2971.45984	3157.6375
2973.90632	3145.3375
2976.35131	3159.0375
2978.7948	3158.1375
2981.23681	3128.2375
2983.67732	3124.0375
2986.11635	3134.8375
2988.55388	3105.8375
2990.98993	3110.3375
2993.4245	3097.6375
2995.85758	3083.7375
2998.28917	3076.1375
3000.71928	3076.4375
3003.14791	3049.4375
3005.57506	3052.3375
3008.00073	3027.7375
3010.42493	2969.9375
3012.84764	3026.3375
3015.26888	3028.8375
3017.68865	3030.4375
3020.10694	2987.2375
3022.52376	2970.5375
3024.9391	2984.2375
3027.35298	2971.1375
3029.76539	2950.5375
3032.17632	2962.1375
3034.5858	2954.7375
3036.9938	2954.3375
3039.40034	2947.3375
3041.80542	2927.4375
3044.20903	2927.1375
3046.61118	2923.5375
3049.01187	2922.5375
3051.4111	2917.4375
3053.80888	2900.7375
3056.20519	2892.0375
3058.60005	2872.9375
3060.99345	2883.2375
3063.3854	2874.6375
3065.7759	2850.4375
3068.16494	2831.8375
3070.55254	2825.9375
3072.93868	2846.5375
3075.32338	2837.0375
3077.70662	2817.8375
3080.08842	2801.0375
3082.46878	2793.7375
3084.84769	2825.5375
3087.22515	2801.0375
3089.60118	2810.9375
3091.97576	2794.9375
3094.3489	2800.3375
3096.72061	2780.1375
3099.09087	2776.9375
3101.4597	2778.9375
3103.82709	2771.0375
3106.19305	2757.8375
3108.55757	2767.8375
3110.92066	2756.9375
3113.28232	2757.6375
3115.64255	2755.2375
3118.00134	2746.7375
3120.35871	2720.0375
3122.71466	2711.1375
3125.06917	2720.5375
3127.42226	2704.8375
3129.77393	2696.7375
3132.12417	2703.7375
3134.47299	2701.5375
3136.82039	2691.0375
3139.16636	2660.4375
3141.51092	2685.7375
3143.85406	2686.7375
3146.19579	2663.4375
3148.53609	2663.4375
3150.87499	2666.1375
3153.21246	2660.3375
3155.54853	2672.9375
3157.88318	2685.7375
3160.21642	2680.2375
3162.54826	2682.6375
3164.87868	2671.2375
3167.2077	2632.5375
3169.5353	2659.8375
3171.86151	2660.7375
3174.18631	2639.1375
3176.5097	2632.7375
3178.83169	2640.3375
3181.15228	2641.2375
3183.47147	2609.1375
3185.78926	2597.6375
3188.10565	2602.3375
3190.42065	2588.5375
3192.73424	2601.6375
3195.04645	2576.5375
3197.35725	2566.1375
3199.66667	2583.1375
3201.97469	2592.6375
3204.28132	2564.1375
3206.58656	2576.7375
3208.8904	2582.0375
3211.19287	2569.8375
3213.49394	2565.2375
3215.79363	2547.8375
3218.09193	2575.6375
3220.38884	2557.5375
3222.68438	2554.3375
3224.97853	2542.2375
3227.2713	2555.8375
3229.56269	2536.7375
3231.8527	2543.9375
3234.14133	2526.8375
3236.42858	2526.2375
3238.71446	2493.2375
3240.99896	2517.4375
3243.28209	2495.2375
3245.56384	2507.0375
3247.84423	2487.7375
3250.12324	2501.8375
3252.40088	2489.8375
3254.67715	2483.3375
3256.95205	2465.7375
3259.22558	2480.3375
3261.49775	2474.8375
3263.76855	2465.2375
3266.03799	2471.0375
3268.30606	2474.0375
3270.57277	2473.6375
3272.83812	2460.0375
3275.10211	2440.7375
3277.36474	2464.4375
3279.62601	2450.1375
3281.88593	2425.7375
3284.14448	2407.1375
3286.40168	2439.2375
3288.65753	2415.8375
3290.91202	2410.4375
3293.16516	2404.1375
3295.41695	2422.6375
3297.66738	2408.9375
3299.91647	2397.3375
3302.16421	2387.1375
3304.4106	2338.6375
3306.65564	2356.8375
3308.89933	2320.6375
3311.14169	2301.2375
3313.38269	2290.3375
3315.62236	2268.5375
3317.86068	2260.4375
3320.09766	2254.1375
3322.3333	2208.2375
3324.5676	2216.7375
3326.80056	2167.4375
3329.03219	2170.0375
3331.26248	-0.6625
3333.49143	0.6375
3335.71905	1.2375
