Data from AgNPs_UA_5uM_CRN_500uM_SU_RamanShift__220__12-06-03-184.txt Node

Date: Thu Aug 04 12:06:03 BST 2022
User: TCL
Spectrometer: QEP01345
Trigger mode: 4
Integration Time (sec): 1.000000E0
Scans to average: 10
Electric dark correction enabled: true
Nonlinearity correction enabled: false
Boxcar width: 0
XAxis mode: Raman Shifts
Number of Pixels in Spectrum: 1044
>>>>>Begin Spectral Data<<<<<
46.04893	0.0125
50.45542	1.1125
54.85868	-0.5875
59.25871	0.1125
63.6555	-57.9875
68.04907	-40.6875
72.43941	-70.9875
76.82654	-57.0875
81.21044	-55.9875
85.59113	-48.1875
89.96862	-74.2875
94.34289	-56.0875
98.71396	-80.2875
103.08183	-57.5875
107.4465	-48.7875
111.80798	-55.5875
116.16626	-45.3875
120.52136	-73.6875
124.87327	-49.7875
129.222	-62.2875
133.56755	-48.8875
137.90993	-62.7875
142.24913	-50.4875
146.58517	-44.3875
150.91804	-41.4875
155.24774	-31.2875
159.57429	-8.3875
163.89768	-6.7875
168.21792	41.2125
172.53501	61.3125
176.84895	140.0125
181.15975	276.8125
185.46741	429.8125
189.77193	601.5125
194.07331	898.4125
198.37157	1179.4125
202.6667	1471.4125
206.9587	1792.6125
211.24758	2105.1125
215.53334	2438.8125
219.81599	2797.1125
224.09553	3203.8125
228.37195	3640.3125
232.64527	4104.0125
236.91549	4592.6125
241.18261	4930.0125
245.44663	5206.8125
249.70755	5386.7125
253.96539	5524.5125
258.22014	5602.9125
262.4718	5691.0125
266.72039	5719.2125
270.96589	5693.9125
275.20832	5600.0125
279.44768	5491.4125
283.68397	5390.0125
287.91719	5324.5125
292.14735	5371.5125
296.37445	5534.2125
300.59849	5833.8125
304.81948	6202.7125
309.03742	6561.6125
313.25231	6816.5125
317.46415	6740.2125
321.67296	6344.6125
325.87872	5937.9125
330.08145	5732.2125
334.28114	5697.7125
338.47781	5749.5125
342.67145	5893.0125
346.86207	6125.2125
351.04966	6504.5125
355.23424	6902.9125
359.4158	7159.2125
363.59435	7200.0125
367.76989	7154.8125
371.94243	7007.4125
376.11196	6904.1125
380.27849	6807.2125
384.44203	6736.3125
388.60257	6712.1125
392.76012	6703.3125
396.91468	6830.3125
401.06626	6963.5125
405.21485	7012.0125
409.36047	6850.7125
413.50311	6525.9125
417.64277	6231.3125
421.77947	5999.4125
425.9132	5953.9125
430.04396	5939.3125
434.17176	5955.6125
438.2966	6059.5125
442.41849	6141.8125
446.53742	6267.8125
450.6534	6374.3125
454.76644	6447.7125
458.87653	6455.4125
462.98368	6412.5125
467.08789	6343.1125
471.18916	6253.1125
475.2875	6151.0125
479.38291	6042.7125
483.4754	5939.4125
487.56496	5892.8125
491.6516	5848.3125
495.73531	5856.8125
499.81612	5890.8125
503.89401	5978.7125
507.96899	6038.5125
512.04106	6135.1125
516.11023	6235.2125
520.1765	6311.8125
524.23987	6343.3125
528.30034	6341.4125
532.35792	6237.4125
536.41261	6209.6125
540.46441	6103.0125
544.51333	6048.5125
548.55936	6105.7125
552.60252	6230.0125
556.64279	6338.2125
560.6802	6467.9125
564.71473	6586.0125
568.7464	6768.1125
572.7752	6763.0125
576.80114	6447.3125
580.82422	6212.4125
584.84444	6101.5125
588.86181	6082.7125
592.87633	6118.2125
596.888	6242.6125
600.89682	6625.7125
604.9028	7595.9125
608.90594	9722.4125
612.90624	12113.3125
616.90371	11215.7125
620.89834	8119.3125
624.89015	6755.0125
628.87913	6543.9125
632.86528	6701.5125
636.84862	6865.1125
640.82913	6725.9125
644.80683	6390.2125
648.78172	6175.3125
652.75379	6220.0125
656.72306	6458.6125
660.68952	6694.6125
664.65319	6598.3125
668.61405	6354.5125
672.57211	6274.8125
676.52738	6294.4125
680.47986	6193.1125
684.42955	6099.8125
688.37646	6052.1125
692.32058	6067.3125
696.26192	6116.2125
700.20048	6244.7125
704.13626	6287.7125
708.06928	6214.7125
711.99952	6206.5125
715.927	6152.7125
719.85171	6202.7125
723.77365	6256.8125
727.69284	6239.4125
731.60928	6210.0125
735.52295	6198.9125
739.43388	6230.2125
743.34206	6242.6125
747.24749	6265.1125
751.15017	6287.8125
755.05012	6356.1125
758.94733	6745.0125
762.8418	7610.3125
766.73354	8947.2125
770.62254	10009.2125
774.50882	10088.1125
778.39237	9559.6125
782.27321	8603.8125
786.15132	7530.0125
790.02671	6856.5125
793.89938	6459.7125
797.76935	6343.5125
801.6366	6253.5125
805.50115	6181.9125
809.36299	6194.8125
813.22213	6196.9125
817.07857	6189.3125
820.93231	6181.4125
824.78336	6204.6125
828.63172	6215.8125
832.47738	6234.2125
836.32036	6213.1125
840.16066	6198.5125
843.99827	6161.0125
847.8332	6158.1125
851.66546	6181.6125
855.49504	6178.3125
859.32195	6236.8125
863.1462	6195.1125
866.96777	6208.7125
870.78668	6191.2125
874.60293	6208.2125
878.41652	6252.3125
882.22745	6294.4125
886.03573	6345.0125
889.84136	6341.2125
893.64433	6335.9125
897.44466	6328.7125
901.24235	6323.4125
905.0374	6309.9125
908.8298	6244.3125
912.61957	6226.1125
916.40671	6174.3125
920.19121	6233.0125
923.97308	6297.8125
927.75233	6383.5125
931.52895	6450.4125
935.30295	6398.5125
939.07433	6262.7125
942.84309	6146.1125
946.60924	6119.1125
950.37278	6099.1125
954.13371	6074.3125
957.89203	6066.4125
961.64774	6088.5125
965.40086	6044.3125
969.15137	6051.4125
972.89929	6075.8125
976.64461	6067.8125
980.38733	6098.1125
984.12747	6077.2125
987.86502	6105.4125
991.59999	6141.6125
995.33237	6187.2125
999.06217	6278.8125
1002.78939	6341.7125
1006.51404	6465.8125
1010.23611	6601.5125
1013.95561	6641.3125
1017.67255	6640.0125
1021.38692	6616.8125
1025.09872	6547.0125
1028.80796	6478.8125
1032.51465	6461.3125
1036.21877	6457.0125
1039.92035	6486.5125
1043.61937	6557.8125
1047.31584	6582.9125
1051.00976	6635.6125
1054.70114	6623.9125
1058.38998	6613.9125
1062.07627	6632.0125
1065.76003	6670.0125
1069.44126	6735.0125
1073.11995	6818.1125
1076.79611	6954.8125
1080.46974	7106.4125
1084.14085	7289.0125
1087.80943	7416.9125
1091.47549	7440.2125
1095.13903	7352.7125
1098.80005	7241.1125
1102.45857	7144.8125
1106.11456	7099.6125
1109.76805	7044.8125
1113.41903	7178.8125
1117.06751	7335.6125
1120.71348	7603.1125
1124.35696	7992.3125
1127.99793	8274.4125
1131.63641	8113.1125
1135.2724	7711.9125
1138.90589	7400.2125
1142.5369	7204.0125
1146.16542	7086.4125
1149.79145	6980.3125
1153.415	6913.0125
1157.03607	6956.6125
1160.65467	7041.0125
1164.27079	7252.1125
1167.88443	7504.9125
1171.49561	7932.3125
1175.10432	8562.8125
1178.71056	9481.9125
1182.31434	10292.7125
1185.91565	10571.9125
1189.51451	10421.4125
1193.11091	10176.9125
1196.70485	9881.1125
1200.29634	9658.3125
1203.88538	9354.4125
1207.47197	8897.1125
1211.05612	8416.5125
1214.63782	8002.0125
1218.21708	7745.0125
1221.79391	7609.0125
1225.36829	7519.8125
1228.94024	7503.6125
1232.50976	7512.8125
1236.07685	7537.4125
1239.6415	7576.8125
1243.20374	7593.5125
1246.76355	7641.9125
1250.32093	7706.6125
1253.8759	7783.6125
1257.42845	7940.4125
1260.97859	8168.1125
1264.52631	8386.4125
1268.07163	8541.0125
1271.61453	8703.0125
1275.15503	8741.6125
1278.69312	8744.2125
1282.22882	8823.2125
1285.76211	9020.3125
1289.29301	9276.1125
1292.82151	9561.3125
1296.34761	9766.4125
1299.87133	10183.4125
1303.39266	10900.5125
1306.9116	12051.8125
1310.42815	13318.4125
1313.94233	13777.1125
1317.45412	12969.2125
1320.96354	11810.2125
1324.47058	10763.5125
1327.97525	9998.9125
1331.47754	9579.4125
1334.97747	9483.8125
1338.47502	9603.1125
1341.97022	9968.6125
1345.46305	10739.4125
1348.95352	11833.5125
1352.44163	13142.1125
1355.92738	14534.3125
1359.41078	16227.4125
1362.89183	17822.3125
1366.37053	17134.9125
1369.84688	14253.6125
1373.32088	11485.2125
1376.79254	10029.3125
1380.26186	9365.4125
1383.72883	8923.1125
1387.19347	8531.9125
1390.65578	8174.1125
1394.11575	7902.8125
1397.57339	7743.2125
1401.0287	7658.1125
1404.48168	7590.9125
1407.93234	7625.1125
1411.38068	7617.8125
1414.82669	7713.0125
1418.27039	7775.3125
1421.71177	7767.7125
1425.15083	7681.2125
1428.58758	7611.6125
1432.02203	7633.3125
1435.45416	7708.3125
1438.88399	7709.2125
1442.31151	7691.4125
1445.73673	7774.5125
1449.15965	7821.5125
1452.58027	7841.8125
1455.9986	7839.1125
1459.41463	7843.1125
1462.82837	7965.3125
1466.23982	8140.8125
1469.64898	8347.3125
1473.05586	8514.2125
1476.46045	8596.2125
1479.86276	8672.6125
1483.26279	8774.2125
1486.66054	8967.3125
1490.05602	9271.1125
1493.44922	9819.0125
1496.84016	10734.7125
1500.22882	12138.5125
1503.61521	13902.5125
1506.99934	15728.7125
1510.38121	16971.1125
1513.76081	16825.5125
1517.13816	15205.8125
1520.51324	13026.1125
1523.88607	11258.8125
1527.25665	10256.3125
1530.62498	9750.6125
1533.99105	9529.9125
1537.35488	9416.4125
1540.71647	9307.6125
1544.07581	9184.8125
1547.4329	9041.1125
1550.78776	8924.4125
1554.14038	8817.2125
1557.49077	8811.0125
1560.83892	8885.0125
1564.18484	9137.4125
1567.52853	9475.2125
1570.86999	9795.8125
1574.20922	9965.7125
1577.54624	9842.0125
1580.88103	9327.5125
1584.2136	8618.5125
1587.54395	8241.6125
1590.87208	8150.1125
1594.19801	8326.3125
1597.52172	8683.2125
1600.84321	8847.1125
1604.16251	8690.7125
1607.47959	8482.4125
1610.79447	8293.9125
1614.10715	8020.7125
1617.41763	7719.2125
1620.7259	7446.5125
1624.03199	7272.5125
1627.33587	7203.3125
1630.63757	7257.3125
1633.93707	7496.5125
1637.23439	7922.2125
1640.52951	8617.4125
1643.82246	9609.8125
1647.11321	10804.8125
1650.40179	11545.2125
1653.68819	11200.9125
1656.97241	9930.9125
1660.25446	8523.5125
1663.53433	7486.6125
1666.81203	6868.3125
1670.08756	6513.8125
1673.36092	6336.0125
1676.63211	6203.4125
1679.90115	6095.5125
1683.16801	6022.3125
1686.43272	5931.2125
1689.69527	5885.9125
1692.95567	5829.7125
1696.2139	5814.1125
1699.46999	5746.2125
1702.72392	5751.8125
1705.97571	5760.4125
1709.22535	5738.0125
1712.47284	5779.1125
1715.71819	5789.4125
1718.96139	5772.8125
1722.20246	5773.4125
1725.44139	5727.6125
1728.67818	5709.5125
1731.91284	5652.5125
1735.14537	5630.5125
1738.37576	5596.5125
1741.60403	5583.2125
1744.83017	5552.3125
1748.05418	5557.8125
1751.27607	5544.4125
1754.49584	5510.8125
1757.71349	5465.1125
1760.92903	5493.9125
1764.14244	5433.9125
1767.35375	5442.3125
1770.56294	5420.2125
1773.77002	5390.7125
1776.97499	5408.9125
1780.17785	5399.8125
1783.37861	5365.3125
1786.57727	5387.6125
1789.77382	5325.0125
1792.96828	5356.5125
1796.16064	5367.7125
1799.3509	5346.5125
1802.53907	5357.9125
1805.72514	5317.8125
1808.90913	5289.9125
1812.09102	5283.8125
1815.27083	5288.1125
1818.44856	5268.9125
1821.6242	5261.8125
1824.79776	5259.3125
1827.96924	5236.0125
1831.13864	5213.7125
1834.30597	5228.1125
1837.47122	5183.0125
1840.6344	5188.6125
1843.7955	5177.7125
1846.95454	5157.8125
1850.11151	5189.2125
1853.26642	5151.8125
1856.41926	5156.1125
1859.57004	5159.2125
1862.71876	5128.9125
1865.86542	5152.9125
1869.01003	5132.4125
1872.15258	5109.8125
1875.29308	5131.0125
1878.43152	5134.1125
1881.56792	5104.7125
1884.70227	5107.9125
1887.83457	5093.1125
1890.96482	5062.7125
1894.09304	5066.2125
1897.21921	5063.3125
1900.34335	5077.0125
1903.46544	5041.2125
1906.58551	5061.4125
1909.70353	5056.7125
1912.81953	5036.0125
1915.93349	5032.2125
1919.04543	5020.3125
1922.15534	5003.0125
1925.26322	4992.1125
1928.36908	4968.8125
1931.47292	4997.5125
1934.57473	4990.7125
1937.67453	4964.0125
1940.77232	4932.9125
1943.86808	4910.3125
1946.96184	4904.0125
1950.05358	4885.5125
1953.14331	4869.4125
1956.23103	4869.0125
1959.31675	4837.0125
1962.40046	4794.8125
1965.48217	4815.5125
1968.56188	4808.0125
1971.63959	4794.8125
1974.7153	4783.8125
1977.78901	4782.0125
1980.86073	4757.0125
1983.93046	4724.7125
1986.99819	4649.8125
1990.06394	4654.7125
1993.1277	4674.1125
1996.18947	4660.3125
1999.24925	4626.2125
2002.30706	4630.4125
2005.36288	4612.2125
2008.41672	4580.6125
2011.46859	4565.0125
2014.51848	4555.7125
2017.56639	4545.3125
2020.61233	4524.8125
2023.6563	4533.9125
2026.6983	4485.4125
2029.73833	4492.1125
2032.7764	4513.6125
2035.8125	4453.5125
2038.84664	4436.2125
2041.87881	4428.8125
2044.90903	4456.7125
2047.93729	4428.4125
2050.96359	4419.8125
2053.98794	4427.2125
2057.01034	4423.0125
2060.03078	4399.5125
2063.04927	4374.4125
2066.06582	4393.1125
2069.08042	4384.7125
2072.09307	4392.7125
2075.10378	4377.8125
2078.11255	4363.3125
2081.11938	4367.0125
2084.12426	4369.6125
2087.12722	4342.3125
2090.12824	4348.2125
2093.12732	4352.7125
2096.12447	4369.7125
2099.11969	4353.1125
2102.11299	4334.2125
2105.10435	4368.4125
2108.09379	4342.5125
2111.08131	4338.0125
2114.0669	4344.9125
2117.05057	4330.2125
2120.03233	4329.3125
2123.01216	4358.1125
2125.99008	4367.2125
2128.96609	4367.4125
2131.94018	4381.2125
2134.91236	4372.0125
2137.88263	4347.1125
2140.851	4351.5125
2143.81746	4389.3125
2146.78201	4367.6125
2149.74466	4356.0125
2152.7054	4380.5125
2155.66425	4349.3125
2158.6212	4357.2125
2161.57625	4326.0125
2164.52941	4301.4125
2167.48067	4316.1125
2170.43004	4326.4125
2173.37752	4333.6125
2176.32311	4322.2125
2179.26681	4322.5125
2182.20863	4343.1125
2185.14856	4308.5125
2188.08661	4317.3125
2191.02278	4338.4125
2193.95707	4296.0125
2196.88948	4279.5125
2199.82001	4307.2125
2202.74867	4283.4125
2205.67545	4286.3125
2208.60037	4298.5125
2211.52341	4278.1125
2214.44458	4260.4125
2217.36388	4246.6125
2220.28132	4235.0125
2223.1969	4212.3125
2226.11061	4206.0125
2229.02246	4227.7125
2231.93245	4212.9125
2234.84058	4181.7125
2237.74686	4183.8125
2240.65128	4166.6125
2243.55385	4180.0125
2246.45456	4148.3125
2249.35343	4170.7125
2252.25044	4140.2125
2255.14561	4140.2125
2258.03893	4148.8125
2260.93041	4134.7125
2263.82004	4134.3125
2266.70783	4123.6125
2269.59378	4104.8125
2272.4779	4084.0125
2275.36017	4083.6125
2278.24061	4080.5125
2281.11922	4038.0125
2283.996	4050.9125
2286.87094	4036.3125
2289.74405	4046.5125
2292.61534	4029.2125
2295.4848	4024.9125
2298.35243	4024.0125
2301.21824	4013.6125
2304.08223	4000.4125
2306.94439	4016.7125
2309.80474	4003.4125
2312.66327	3998.4125
2315.51999	3978.1125
2318.37489	3977.8125
2321.22797	3979.6125
2324.07925	3976.5125
2326.92871	3966.0125
2329.77637	3939.5125
2332.62222	3934.5125
2335.46626	3908.1125
2338.3085	3907.2125
2341.14893	3912.0125
2343.98756	3923.7125
2346.8244	3898.3125
2349.65943	3878.9125
2352.49267	3905.3125
2355.32411	3907.0125
2358.15376	3901.0125
2360.98161	3898.2125
2363.80768	3890.1125
2366.63195	3898.2125
2369.45444	3892.7125
2372.27514	3891.8125
2375.09405	3907.7125
2377.91118	3867.9125
2380.72652	3867.2125
2383.54009	3862.6125
2386.35187	3854.0125
2389.16188	3827.7125
2391.97011	3836.6125
2394.77657	3819.3125
2397.58125	3802.8125
2400.38416	3796.3125
2403.18529	3806.5125
2405.98466	3775.0125
2408.78226	3781.0125
2411.57809	3781.4125
2414.37216	3763.3125
2417.16446	3753.2125
2419.955	3740.3125
2422.74378	3747.1125
2425.5308	3731.3125
2428.31606	3737.4125
2431.09956	3724.5125
2433.88131	3711.4125
2436.6613	3723.7125
2439.43954	3711.1125
2442.21603	3704.7125
2444.99077	3697.6125
2447.76377	3712.5125
2450.53501	3703.5125
2453.30451	3689.5125
2456.07226	3700.6125
2458.83827	3674.4125
2461.60254	3643.9125
2464.36507	3681.9125
2467.12586	3650.9125
2469.88492	3657.5125
2472.64224	3683.5125
2475.39782	3655.7125
2478.15167	3660.2125
2480.90379	3640.2125
2483.65417	3667.8125
2486.40283	3667.1125
2489.14976	3672.2125
2491.89497	3650.5125
2494.63845	3660.2125
2497.3802	3642.9125
2500.12024	3630.3125
2502.85855	3633.6125
2505.59514	3630.5125
2508.33002	3620.0125
2511.06318	3596.6125
2513.79462	3608.6125
2516.52435	3570.7125
2519.25237	3534.4125
2521.97867	3552.5125
2524.70327	3547.5125
2527.42616	3549.3125
2530.14734	3561.9125
2532.86681	3531.7125
2535.58458	3530.7125
2538.30065	3520.9125
2541.01501	3544.0125
2543.72768	3534.1125
2546.43864	3513.7125
2549.14791	3516.0125
2551.85548	3490.1125
2554.56136	3501.9125
2557.26554	3502.3125
2559.96803	3483.7125
2562.66883	3477.4125
2565.36794	3455.7125
2568.06536	3428.8125
2570.7611	3453.1125
2573.45514	3443.2125
2576.14751	3432.0125
2578.83819	3420.8125
2581.52719	3398.3125
2584.21451	3401.3125
2586.90015	3390.7125
2589.58411	3382.5125
2592.2664	3390.9125
2594.94701	3388.5125
2597.62594	3389.7125
2600.30321	3319.8125
2602.9788	3336.4125
2605.65273	3324.1125
2608.32498	3332.7125
2610.99557	3357.8125
2613.66449	3312.7125
2616.33175	3345.9125
2618.99734	3342.3125
2621.66128	3328.5125
2624.32355	3312.6125
2626.98416	3302.7125
2629.64311	3279.7125
2632.30041	3287.8125
2634.95605	3269.7125
2637.61004	3247.1125
2640.26238	3262.6125
2642.91306	3251.9125
2645.56209	3269.6125
2648.20948	3247.5125
2650.85521	3232.8125
2653.4993	3246.7125
2656.14175	3253.6125
2658.78255	3231.4125
2661.42171	3213.7125
2664.05923	3249.4125
2666.6951	3252.5125
2669.32934	3256.4125
2671.96194	3261.1125
2674.59291	3242.0125
2677.22224	3269.0125
2679.84993	3244.9125
2682.476	3239.5125
2685.10043	3238.9125
2687.72324	3219.1125
2690.34441	3211.0125
2692.96396	3222.1125
2695.58188	3227.1125
2698.19818	3242.8125
2700.81285	3215.0125
2703.4259	3208.9125
2706.03733	3200.2125
2708.64714	3187.7125
2711.25533	3215.2125
2713.86191	3221.6125
2716.46687	3217.5125
2719.07021	3206.1125
2721.67194	3212.1125
2724.27206	3219.2125
2726.87057	3208.2125
2729.46747	3189.7125
2732.06276	3200.9125
2734.65644	3179.7125
2737.24852	3186.0125
2739.83899	3157.1125
2742.42786	3170.7125
2745.01513	3188.4125
2747.60079	3152.5125
2750.18486	3140.0125
2752.76733	3149.9125
2755.3482	3144.9125
2757.92747	3144.5125
2760.50515	3123.4125
2763.08123	3124.1125
2765.65573	3116.6125
2768.22863	3118.6125
2770.79994	3101.4125
2773.36967	3092.6125
2775.9378	3091.6125
2778.50435	3087.6125
2781.06932	3074.8125
2783.6327	3066.1125
2786.1945	3087.7125
2788.75471	3063.5125
2791.31335	3066.1125
2793.87041	3052.1125
2796.42589	3034.6125
2798.97979	3037.7125
2801.53212	3048.0125
2804.08288	3046.5125
2806.63206	3029.9125
2809.17967	3006.6125
2811.72571	3028.4125
2814.27018	3026.4125
2816.81308	3019.0125
2819.35442	2973.2125
2821.89419	2992.6125
2824.43239	2983.1125
2826.96904	3006.8125
2829.50412	2968.2125
2832.03763	2985.2125
2834.56959	2976.9125
2837.1	2968.5125
2839.62884	2963.3125
2842.15613	2973.2125
2844.68186	2976.0125
2847.20604	2950.2125
2849.72867	2935.1125
2852.24974	2962.9125
2854.76927	2909.0125
2857.28724	2876.7125
2859.80367	2925.2125
2862.31855	2938.6125
2864.83189	2915.5125
2867.34368	2936.1125
2869.85393	2929.3125
2872.36264	2912.7125
2874.8698	2914.7125
2877.37543	2924.7125
2879.87952	2899.8125
2882.38207	2881.6125
2884.88308	2890.4125
2887.38256	2896.8125
2889.88051	2891.2125
2892.37692	2890.2125
2894.8718	2871.1125
2897.36515	2880.5125
2899.85698	2864.4125
2902.34727	2872.3125
2904.83604	2886.8125
2907.32328	2884.4125
2909.809	2892.5125
2912.29319	2886.6125
2914.77587	2896.2125
2917.25702	2905.5125
2919.73665	2910.0125
2922.21476	2907.6125
2924.69136	2901.1125
2927.16644	2898.4125
2929.64	2900.7125
2932.11205	2875.3125
2934.58258	2878.5125
2937.05161	2870.6125
2939.51912	2851.9125
2941.98513	2881.4125
2944.44962	2863.3125
2946.91261	2828.7125
2949.37409	2842.5125
2951.83407	2836.1125
2954.29254	2836.7125
2956.74951	2833.9125
2959.20498	2821.9125
2961.65895	2810.7125
2964.11142	2815.2125
2966.56239	2803.9125
2969.01186	2808.6125
2971.45984	2817.0125
2973.90632	2780.8125
2976.35131	2794.1125
2978.7948	2793.9125
2981.23681	2767.3125
2983.67732	2783.5125
2986.11635	2771.7125
2988.55388	2732.7125
2990.98993	2750.4125
2993.4245	2731.7125
2995.85758	2737.2125
2998.28917	2719.2125
3000.71928	2713.4125
3003.14791	2712.2125
3005.57506	2698.5125
3008.00073	2685.4125
3010.42493	2641.2125
3012.84764	2685.1125
3015.26888	2692.4125
3017.68865	2672.4125
3020.10694	2622.0125
3022.52376	2650.9125
3024.9391	2638.7125
3027.35298	2626.2125
3029.76539	2631.0125
3032.17632	2620.6125
3034.5858	2615.1125
3036.9938	2615.0125
3039.40034	2611.8125
3041.80542	2590.4125
3044.20903	2576.8125
3046.61118	2573.6125
3049.01187	2586.5125
3051.4111	2571.4125
3053.80888	2557.2125
3056.20519	2552.7125
3058.60005	2545.5125
3060.99345	2559.2125
3063.3854	2545.7125
3065.7759	2520.2125
3068.16494	2511.0125
3070.55254	2508.5125
3072.93868	2518.1125
3075.32338	2506.1125
3077.70662	2497.3125
3080.08842	2488.6125
3082.46878	2473.9125
3084.84769	2483.7125
3087.22515	2473.4125
3089.60118	2483.9125
3091.97576	2468.5125
3094.3489	2472.8125
3096.72061	2461.9125
3099.09087	2458.8125
3101.4597	2467.6125
3103.82709	2456.5125
3106.19305	2442.4125
3108.55757	2450.5125
3110.92066	2438.0125
3113.28232	2429.1125
3115.64255	2431.8125
3118.00134	2433.0125
3120.35871	2408.4125
3122.71466	2393.7125
3125.06917	2403.3125
3127.42226	2383.6125
3129.77393	2380.5125
3132.12417	2396.6125
3134.47299	2393.8125
3136.82039	2365.9125
3139.16636	2354.6125
3141.51092	2377.9125
3143.85406	2379.2125
3146.19579	2361.7125
3148.53609	2368.6125
3150.87499	2359.5125
3153.21246	2351.2125
3155.54853	2358.4125
3157.88318	2352.6125
3160.21642	2362.0125
3162.54826	2344.1125
3164.87868	2361.8125
3167.2077	2327.4125
3169.5353	2343.1125
3171.86151	2342.2125
3174.18631	2335.0125
3176.5097	2321.7125
3178.83169	2332.5125
3181.15228	2324.7125
3183.47147	2306.1125
3185.78926	2275.1125
3188.10565	2284.9125
3190.42065	2277.9125
3192.73424	2280.0125
3195.04645	2285.8125
3197.35725	2270.1125
3199.66667	2286.2125
3201.97469	2272.3125
3204.28132	2255.1125
3206.58656	2270.0125
3208.8904	2282.7125
3211.19287	2267.7125
3213.49394	2261.9125
3215.79363	2257.1125
3218.09193	2268.7125
3220.38884	2258.3125
3222.68438	2260.6125
3224.97853	2229.8125
3227.2713	2256.1125
3229.56269	2226.2125
3231.8527	2251.4125
3234.14133	2234.7125
3236.42858	2227.2125
3238.71446	2205.8125
3240.99896	2226.4125
3243.28209	2192.8125
3245.56384	2212.3125
3247.84423	2191.1125
3250.12324	2197.7125
3252.40088	2193.5125
3254.67715	2190.7125
3256.95205	2189.8125
3259.22558	2189.9125
3261.49775	2201.7125
3263.76855	2183.3125
3266.03799	2186.1125
3268.30606	2183.9125
3270.57277	2185.4125
3272.83812	2163.5125
3275.10211	2160.5125
3277.36474	2179.4125
3279.62601	2159.5125
3281.88593	2128.0125
3284.14448	2121.7125
3286.40168	2151.7125
3288.65753	2133.2125
3290.91202	2138.1125
3293.16516	2113.5125
3295.41695	2141.8125
3297.66738	2132.1125
3299.91647	2101.3125
3302.16421	2107.7125
3304.4106	2074.0125
3306.65564	2094.9125
3308.89933	2049.6125
3311.14169	2045.7125
3313.38269	2028.1125
3315.62236	2010.7125
3317.86068	2010.1125
3320.09766	1996.3125
3322.3333	1955.9125
3324.5676	1957.2125
3326.80056	1926.9125
3329.03219	1918.8125
3331.26248	-0.2875
3333.49143	-0.3875
3335.71905	0.0125
