Data from AgNPs_UA_5uM_CRN_500uM_SU_RamanShift__230__12-07-43-186.txt Node

Date: Thu Aug 04 12:07:43 BST 2022
User: TCL
Spectrometer: QEP01345
Trigger mode: 4
Integration Time (sec): 1.000000E0
Scans to average: 10
Electric dark correction enabled: true
Nonlinearity correction enabled: false
Boxcar width: 0
XAxis mode: Raman Shifts
Number of Pixels in Spectrum: 1044
>>>>>Begin Spectral Data<<<<<
46.04893	-0.2625
50.45542	-0.7625
54.85868	-0.3625
59.25871	-0.3625
63.6555	-57.2625
68.04907	-41.4625
72.43941	-71.7625
76.82654	-57.1625
81.21044	-56.1625
85.59113	-48.0625
89.96862	-74.6625
94.34289	-55.5625
98.71396	-76.9625
103.08183	-57.2625
107.4465	-50.7625
111.80798	-58.3625
116.16626	-44.5625
120.52136	-74.2625
124.87327	-51.1625
129.222	-62.7625
133.56755	-49.1625
137.90993	-63.1625
142.24913	-51.8625
146.58517	-44.8625
150.91804	-40.7625
155.24774	-33.2625
159.57429	-11.9625
163.89768	-8.8625
168.21792	35.9375
172.53501	53.5375
176.84895	133.6375
181.15975	262.6375
185.46741	406.2375
189.77193	582.4375
194.07331	867.0375
198.37157	1142.6375
202.6667	1428.0375
206.9587	1741.5375
211.24758	2043.5375
215.53334	2361.3375
219.81599	2708.5375
224.09553	3095.6375
228.37195	3541.1375
232.64527	3978.3375
236.91549	4426.5375
241.18261	4774.9375
245.44663	5057.5375
249.70755	5223.4375
253.96539	5353.2375
258.22014	5447.3375
262.4718	5520.5375
266.72039	5548.4375
270.96589	5537.1375
275.20832	5437.8375
279.44768	5319.9375
283.68397	5210.9375
287.91719	5161.4375
292.14735	5201.8375
296.37445	5371.5375
300.59849	5650.6375
304.81948	6018.2375
309.03742	6379.6375
313.25231	6601.3375
317.46415	6577.4375
321.67296	6188.9375
325.87872	5787.2375
330.08145	5577.0375
334.28114	5545.2375
338.47781	5597.3375
342.67145	5724.3375
346.86207	5976.1375
351.04966	6329.9375
355.23424	6715.4375
359.4158	6974.6375
363.59435	7015.0375
367.76989	6937.2375
371.94243	6810.0375
376.11196	6694.6375
380.27849	6624.2375
384.44203	6560.9375
388.60257	6518.2375
392.76012	6520.2375
396.91468	6633.9375
401.06626	6794.2375
405.21485	6797.4375
409.36047	6667.8375
413.50311	6345.7375
417.64277	6048.7375
421.77947	5847.0375
425.9132	5771.4375
430.04396	5763.9375
434.17176	5787.9375
438.2966	5878.5375
442.41849	5951.3375
446.53742	6067.1375
450.6534	6186.7375
454.76644	6243.4375
458.87653	6263.6375
462.98368	6211.9375
467.08789	6167.1375
471.18916	6066.0375
475.2875	5934.8375
479.38291	5839.4375
483.4754	5754.3375
487.56496	5705.8375
491.6516	5673.7375
495.73531	5672.9375
499.81612	5714.0375
503.89401	5793.8375
507.96899	5849.3375
512.04106	5932.1375
516.11023	6047.1375
520.1765	6118.7375
524.23987	6131.8375
528.30034	6148.0375
532.35792	6049.4375
536.41261	6010.0375
540.46441	5920.7375
544.51333	5851.2375
548.55936	5906.1375
552.60252	6040.2375
556.64279	6135.0375
560.6802	6249.1375
564.71473	6389.4375
568.7464	6587.6375
572.7752	6548.4375
576.80114	6258.0375
580.82422	6042.9375
584.84444	5928.4375
588.86181	5897.5375
592.87633	5923.9375
596.888	6049.9375
600.89682	6411.0375
604.9028	7367.1375
608.90594	9447.7375
612.90624	11726.7375
616.90371	10912.7375
620.89834	7859.5375
624.89015	6540.4375
628.87913	6339.5375
632.86528	6491.2375
636.84862	6643.8375
640.82913	6534.1375
644.80683	6166.9375
648.78172	5977.1375
652.75379	6011.8375
656.72306	6239.9375
660.68952	6487.9375
664.65319	6398.2375
668.61405	6174.0375
672.57211	6080.9375
676.52738	6100.5375
680.47986	6010.3375
684.42955	5899.1375
688.37646	5848.7375
692.32058	5848.7375
696.26192	5942.7375
700.20048	6010.5375
704.13626	6068.9375
708.06928	6030.4375
711.99952	5997.9375
715.927	5961.6375
719.85171	6026.7375
723.77365	6069.9375
727.69284	6017.3375
731.60928	6016.3375
735.52295	5988.5375
739.43388	6027.2375
743.34206	6047.7375
747.24749	6067.1375
751.15017	6078.0375
755.05012	6153.8375
758.94733	6526.1375
762.8418	7367.1375
766.73354	8713.5375
770.62254	9722.4375
774.50882	9818.6375
778.39237	9297.2375
782.27321	8323.6375
786.15132	7312.3375
790.02671	6625.3375
793.89938	6252.2375
797.76935	6134.9375
801.6366	6039.9375
805.50115	5978.4375
809.36299	5978.0375
813.22213	5974.0375
817.07857	5975.3375
820.93231	5956.2375
824.78336	6011.6375
828.63172	6005.4375
832.47738	6013.1375
836.32036	6023.2375
840.16066	5978.3375
843.99827	5981.5375
847.8332	5965.5375
851.66546	5975.5375
855.49504	5963.1375
859.32195	6000.5375
863.1462	5997.0375
866.96777	5992.7375
870.78668	5974.2375
874.60293	5997.4375
878.41652	6016.6375
882.22745	6094.5375
886.03573	6131.4375
889.84136	6121.2375
893.64433	6130.1375
897.44466	6108.7375
901.24235	6098.8375
905.0374	6101.2375
908.8298	6042.7375
912.61957	6012.1375
916.40671	5961.0375
920.19121	6027.2375
923.97308	6105.0375
927.75233	6167.0375
931.52895	6222.0375
935.30295	6198.2375
939.07433	6043.8375
942.84309	5936.0375
946.60924	5908.7375
950.37278	5854.5375
954.13371	5865.8375
957.89203	5863.5375
961.64774	5871.2375
965.40086	5865.3375
969.15137	5837.1375
972.89929	5878.1375
976.64461	5867.6375
980.38733	5867.8375
984.12747	5862.4375
987.86502	5884.3375
991.59999	5918.0375
995.33237	5971.3375
999.06217	6042.8375
1002.78939	6119.0375
1006.51404	6258.8375
1010.23611	6353.0375
1013.95561	6403.6375
1017.67255	6410.0375
1021.38692	6384.3375
1025.09872	6338.3375
1028.80796	6236.5375
1032.51465	6259.8375
1036.21877	6242.2375
1039.92035	6291.3375
1043.61937	6322.3375
1047.31584	6366.7375
1051.00976	6399.3375
1054.70114	6404.2375
1058.38998	6395.1375
1062.07627	6401.7375
1065.76003	6444.4375
1069.44126	6512.9375
1073.11995	6596.4375
1076.79611	6712.6375
1080.46974	6876.2375
1084.14085	7044.5375
1087.80943	7161.6375
1091.47549	7208.8375
1095.13903	7093.9375
1098.80005	6974.3375
1102.45857	6893.1375
1106.11456	6856.8375
1109.76805	6804.3375
1113.41903	6923.0375
1117.06751	7072.6375
1120.71348	7358.1375
1124.35696	7748.9375
1127.99793	8035.2375
1131.63641	7871.0375
1135.2724	7450.1375
1138.90589	7154.3375
1142.5369	6961.2375
1146.16542	6849.4375
1149.79145	6741.4375
1153.415	6714.7375
1157.03607	6712.3375
1160.65467	6799.1375
1164.27079	6997.0375
1167.88443	7270.5375
1171.49561	7686.7375
1175.10432	8313.7375
1178.71056	9206.5375
1182.31434	9975.6375
1185.91565	10243.9375
1189.51451	10103.9375
1193.11091	9851.5375
1196.70485	9589.5375
1200.29634	9347.9375
1203.88538	9064.4375
1207.47197	8635.6375
1211.05612	8142.7375
1214.63782	7730.6375
1218.21708	7492.6375
1221.79391	7334.9375
1225.36829	7272.4375
1228.94024	7263.9375
1232.50976	7269.9375
1236.07685	7293.7375
1239.6415	7329.1375
1243.20374	7333.2375
1246.76355	7384.4375
1250.32093	7456.1375
1253.8759	7527.0375
1257.42845	7696.9375
1260.97859	7888.9375
1264.52631	8135.1375
1268.07163	8302.5375
1271.61453	8412.5375
1275.15503	8473.6375
1278.69312	8465.5375
1282.22882	8547.5375
1285.76211	8728.4375
1289.29301	8964.1375
1292.82151	9267.2375
1296.34761	9479.3375
1299.87133	9871.5375
1303.39266	10571.1375
1306.9116	11709.0375
1310.42815	12938.2375
1313.94233	13350.9375
1317.45412	12604.6375
1320.96354	11454.7375
1324.47058	10447.2375
1327.97525	9708.9375
1331.47754	9265.2375
1334.97747	9171.7375
1338.47502	9299.2375
1341.97022	9642.2375
1345.46305	10384.6375
1348.95352	11456.9375
1352.44163	12765.5375
1355.92738	14152.6375
1359.41078	15813.9375
1362.89183	17339.6375
1366.37053	16744.3375
1369.84688	13868.2375
1373.32088	11198.7375
1376.79254	9735.5375
1380.26186	9079.8375
1383.72883	8664.7375
1387.19347	8250.1375
1390.65578	7888.9375
1394.11575	7661.6375
1397.57339	7496.1375
1401.0287	7376.1375
1404.48168	7339.5375
1407.93234	7349.0375
1411.38068	7379.6375
1414.82669	7457.7375
1418.27039	7518.9375
1421.71177	7546.1375
1425.15083	7428.0375
1428.58758	7340.0375
1432.02203	7369.4375
1435.45416	7450.5375
1438.88399	7455.3375
1442.31151	7431.2375
1445.73673	7494.0375
1449.15965	7551.1375
1452.58027	7574.7375
1455.9986	7573.7375
1459.41463	7556.1375
1462.82837	7674.3375
1466.23982	7877.6375
1469.64898	8070.1375
1473.05586	8208.1375
1476.46045	8314.9375
1479.86276	8386.2375
1483.26279	8471.2375
1486.66054	8681.2375
1490.05602	8982.9375
1493.44922	9527.8375
1496.84016	10406.6375
1500.22882	11802.3375
1503.61521	13487.0375
1506.99934	15317.1375
1510.38121	16498.3375
1513.76081	16374.8375
1517.13816	14788.4375
1520.51324	12681.4375
1523.88607	10971.1375
1527.25665	9970.4375
1530.62498	9455.9375
1533.99105	9274.3375
1537.35488	9158.9375
1540.71647	9023.9375
1544.07581	8898.9375
1547.4329	8768.8375
1550.78776	8647.4375
1554.14038	8553.6375
1557.49077	8534.3375
1560.83892	8595.4375
1564.18484	8846.6375
1567.52853	9188.1375
1570.86999	9523.0375
1574.20922	9650.9375
1577.54624	9577.5375
1580.88103	9056.9375
1584.2136	8361.3375
1587.54395	7977.4375
1590.87208	7885.6375
1594.19801	8044.7375
1597.52172	8411.1375
1600.84321	8566.8375
1604.16251	8417.7375
1607.47959	8210.2375
1610.79447	8041.2375
1614.10715	7743.7375
1617.41763	7451.1375
1620.7259	7193.1375
1624.03199	7027.1375
1627.33587	6972.4375
1630.63757	7009.6375
1633.93707	7228.4375
1637.23439	7662.2375
1640.52951	8326.8375
1643.82246	9306.7375
1647.11321	10484.1375
1650.40179	11202.0375
1653.68819	10882.4375
1656.97241	9656.7375
1660.25446	8262.2375
1663.53433	7240.3375
1666.81203	6655.7375
1670.08756	6308.9375
1673.36092	6127.8375
1676.63211	5990.9375
1679.90115	5899.4375
1683.16801	5810.8375
1686.43272	5726.2375
1689.69527	5679.1375
1692.95567	5626.0375
1696.2139	5580.1375
1699.46999	5546.4375
1702.72392	5543.3375
1705.97571	5572.0375
1709.22535	5549.5375
1712.47284	5576.9375
1715.71819	5583.9375
1718.96139	5578.1375
1722.20246	5569.6375
1725.44139	5535.6375
1728.67818	5517.0375
1731.91284	5459.6375
1735.14537	5426.7375
1738.37576	5400.7375
1741.60403	5383.2375
1744.83017	5325.1375
1748.05418	5365.5375
1751.27607	5365.6375
1754.49584	5324.6375
1757.71349	5292.1375
1760.92903	5278.7375
1764.14244	5233.8375
1767.35375	5235.8375
1770.56294	5228.9375
1773.77002	5217.0375
1776.97499	5222.5375
1780.17785	5192.5375
1783.37861	5186.3375
1786.57727	5201.9375
1789.77382	5136.1375
1792.96828	5177.2375
1796.16064	5183.2375
1799.3509	5162.7375
1802.53907	5164.7375
1805.72514	5125.9375
1808.90913	5118.2375
1812.09102	5101.2375
1815.27083	5095.9375
1818.44856	5083.7375
1821.6242	5088.0375
1824.79776	5066.6375
1827.96924	5048.8375
1831.13864	5030.0375
1834.30597	5025.5375
1837.47122	5017.9375
1840.6344	5012.5375
1843.7955	4979.9375
1846.95454	4979.7375
1850.11151	5005.4375
1853.26642	4963.1375
1856.41926	4961.4375
1859.57004	4965.1375
1862.71876	4974.0375
1865.86542	4962.9375
1869.01003	4973.5375
1872.15258	4934.5375
1875.29308	4960.0375
1878.43152	4941.3375
1881.56792	4920.8375
1884.70227	4908.3375
1887.83457	4916.2375
1890.96482	4888.9375
1894.09304	4878.2375
1897.21921	4886.6375
1900.34335	4886.6375
1903.46544	4870.0375
1906.58551	4889.9375
1909.70353	4857.2375
1912.81953	4870.1375
1915.93349	4844.4375
1919.04543	4828.2375
1922.15534	4815.3375
1925.26322	4817.5375
1928.36908	4804.6375
1931.47292	4809.0375
1934.57473	4805.3375
1937.67453	4781.8375
1940.77232	4759.9375
1943.86808	4748.3375
1946.96184	4742.6375
1950.05358	4716.5375
1953.14331	4694.8375
1956.23103	4704.2375
1959.31675	4661.3375
1962.40046	4624.6375
1965.48217	4645.3375
1968.56188	4642.4375
1971.63959	4618.4375
1974.7153	4640.7375
1977.78901	4610.3375
1980.86073	4603.9375
1983.93046	4557.2375
1986.99819	4477.5375
1990.06394	4491.3375
1993.1277	4502.2375
1996.18947	4489.3375
1999.24925	4446.8375
2002.30706	4466.6375
2005.36288	4454.8375
2008.41672	4440.2375
2011.46859	4402.8375
2014.51848	4408.1375
2017.56639	4392.8375
2020.61233	4364.7375
2023.6563	4368.1375
2026.6983	4320.9375
2029.73833	4338.9375
2032.7764	4350.8375
2035.8125	4279.3375
2038.84664	4291.6375
2041.87881	4270.7375
2044.90903	4277.8375
2047.93729	4276.7375
2050.96359	4243.1375
2053.98794	4248.1375
2057.01034	4261.1375
2060.03078	4247.4375
2063.04927	4226.0375
2066.06582	4240.5375
2069.08042	4221.6375
2072.09307	4217.0375
2075.10378	4236.7375
2078.11255	4221.5375
2081.11938	4212.0375
2084.12426	4217.1375
2087.12722	4200.6375
2090.12824	4201.3375
2093.12732	4203.7375
2096.12447	4203.8375
2099.11969	4181.1375
2102.11299	4182.7375
2105.10435	4214.7375
2108.09379	4199.8375
2111.08131	4191.1375
2114.0669	4189.2375
2117.05057	4184.5375
2120.03233	4176.2375
2123.01216	4196.2375
2125.99008	4209.1375
2128.96609	4191.6375
2131.94018	4204.5375
2134.91236	4204.5375
2137.88263	4210.2375
2140.851	4213.4375
2143.81746	4228.1375
2146.78201	4210.3375
2149.74466	4201.3375
2152.7054	4200.7375
2155.66425	4195.3375
2158.6212	4190.8375
2161.57625	4156.3375
2164.52941	4150.2375
2167.48067	4149.5375
2170.43004	4167.7375
2173.37752	4174.8375
2176.32311	4160.5375
2179.26681	4147.6375
2182.20863	4164.7375
2185.14856	4168.9375
2188.08661	4173.5375
2191.02278	4162.9375
2193.95707	4140.2375
2196.88948	4133.6375
2199.82001	4121.6375
2202.74867	4125.0375
2205.67545	4133.4375
2208.60037	4111.9375
2211.52341	4126.8375
2214.44458	4107.6375
2217.36388	4098.6375
2220.28132	4075.8375
2223.1969	4069.6375
2226.11061	4057.1375
2229.02246	4039.1375
2231.93245	4046.0375
2234.84058	4032.3375
2237.74686	4034.6375
2240.65128	4017.0375
2243.55385	4016.1375
2246.45456	3993.0375
2249.35343	4021.7375
2252.25044	3993.1375
2255.14561	4001.7375
2258.03893	3999.4375
2260.93041	3990.6375
2263.82004	3982.4375
2266.70783	3975.4375
2269.59378	3958.0375
2272.4779	3922.2375
2275.36017	3937.6375
2278.24061	3935.9375
2281.11922	3886.0375
2283.996	3916.8375
2286.87094	3875.1375
2289.74405	3884.9375
2292.61534	3888.2375
2295.4848	3881.9375
2298.35243	3875.7375
2301.21824	3853.8375
2304.08223	3838.7375
2306.94439	3865.2375
2309.80474	3861.4375
2312.66327	3838.8375
2315.51999	3844.3375
2318.37489	3830.6375
2321.22797	3822.9375
2324.07925	3815.5375
2326.92871	3797.6375
2329.77637	3787.4375
2332.62222	3781.8375
2335.46626	3766.5375
2338.3085	3756.3375
2341.14893	3770.9375
2343.98756	3784.6375
2346.8244	3763.9375
2349.65943	3745.6375
2352.49267	3758.8375
2355.32411	3754.5375
2358.15376	3750.9375
2360.98161	3757.4375
2363.80768	3730.0375
2366.63195	3741.4375
2369.45444	3757.7375
2372.27514	3758.1375
2375.09405	3764.6375
2377.91118	3723.1375
2380.72652	3714.5375
2383.54009	3714.2375
2386.35187	3716.0375
2389.16188	3691.7375
2391.97011	3679.7375
2394.77657	3671.6375
2397.58125	3676.7375
2400.38416	3653.7375
2403.18529	3652.0375
2405.98466	3622.3375
2408.78226	3641.0375
2411.57809	3613.9375
2414.37216	3604.4375
2417.16446	3608.2375
2419.955	3601.9375
2422.74378	3599.6375
2425.5308	3591.2375
2428.31606	3590.1375
2431.09956	3601.9375
2433.88131	3574.6375
2436.6613	3594.4375
2439.43954	3570.3375
2442.21603	3557.3375
2444.99077	3558.1375
2447.76377	3570.6375
2450.53501	3557.9375
2453.30451	3540.5375
2456.07226	3554.7375
2458.83827	3546.9375
2461.60254	3508.6375
2464.36507	3551.2375
2467.12586	3531.4375
2469.88492	3527.0375
2472.64224	3523.4375
2475.39782	3514.0375
2478.15167	3524.6375
2480.90379	3515.4375
2483.65417	3532.3375
2486.40283	3523.3375
2489.14976	3514.3375
2491.89497	3521.8375
2494.63845	3511.5375
2497.3802	3522.6375
2500.12024	3488.9375
2502.85855	3509.6375
2505.59514	3499.1375
2508.33002	3488.8375
2511.06318	3457.3375
2513.79462	3467.6375
2516.52435	3430.9375
2519.25237	3410.1375
2521.97867	3409.1375
2524.70327	3420.7375
2527.42616	3414.2375
2530.14734	3433.2375
2532.86681	3412.1375
2535.58458	3403.3375
2538.30065	3386.9375
2541.01501	3404.7375
2543.72768	3381.1375
2546.43864	3383.3375
2549.14791	3380.6375
2551.85548	3364.9375
2554.56136	3358.6375
2557.26554	3369.5375
2559.96803	3349.2375
2562.66883	3350.7375
2565.36794	3329.1375
2568.06536	3296.8375
2570.7611	3334.9375
2573.45514	3318.2375
2576.14751	3295.7375
2578.83819	3288.8375
2581.52719	3267.3375
2584.21451	3283.5375
2586.90015	3262.9375
2589.58411	3246.7375
2592.2664	3260.7375
2594.94701	3265.2375
2597.62594	3258.8375
2600.30321	3188.5375
2602.9788	3210.2375
2605.65273	3201.5375
2608.32498	3212.1375
2610.99557	3230.9375
2613.66449	3210.6375
2616.33175	3201.4375
2618.99734	3212.1375
2621.66128	3189.6375
2624.32355	3191.7375
2626.98416	3174.8375
2629.64311	3163.2375
2632.30041	3167.0375
2634.95605	3140.6375
2637.61004	3143.9375
2640.26238	3125.9375
2642.91306	3113.9375
2645.56209	3145.7375
2648.20948	3149.1375
2650.85521	3112.6375
2653.4993	3138.9375
2656.14175	3120.5375
2658.78255	3118.3375
2661.42171	3094.5375
2664.05923	3126.8375
2666.6951	3136.9375
2669.32934	3133.7375
2671.96194	3141.5375
2674.59291	3122.4375
2677.22224	3130.5375
2679.84993	3118.3375
2682.476	3118.5375
2685.10043	3118.7375
2687.72324	3093.6375
2690.34441	3103.6375
2692.96396	3093.1375
2695.58188	3113.8375
2698.19818	3109.9375
2700.81285	3093.6375
2703.4259	3086.3375
2706.03733	3054.1375
2708.64714	3056.6375
2711.25533	3079.8375
2713.86191	3104.5375
2716.46687	3089.5375
2719.07021	3088.6375
2721.67194	3089.6375
2724.27206	3105.6375
2726.87057	3080.2375
2729.46747	3076.3375
2732.06276	3084.8375
2734.65644	3059.5375
2737.24852	3066.0375
2739.83899	3037.0375
2742.42786	3054.7375
2745.01513	3055.2375
2747.60079	3031.6375
2750.18486	3023.6375
2752.76733	3032.1375
2755.3482	3027.3375
2757.92747	3016.5375
2760.50515	3013.8375
2763.08123	2998.1375
2765.65573	2990.1375
2768.22863	2990.0375
2770.79994	2989.1375
2773.36967	2981.6375
2775.9378	2975.3375
2778.50435	2970.5375
2781.06932	2957.2375
2783.6327	2953.6375
2786.1945	2972.3375
2788.75471	2951.7375
2791.31335	2957.4375
2793.87041	2939.6375
2796.42589	2928.2375
2798.97979	2905.6375
2801.53212	2925.8375
2804.08288	2940.2375
2806.63206	2915.5375
2809.17967	2890.3375
2811.72571	2916.6375
2814.27018	2902.9375
2816.81308	2889.1375
2819.35442	2849.4375
2821.89419	2875.1375
2824.43239	2857.3375
2826.96904	2875.5375
2829.50412	2864.1375
2832.03763	2858.8375
2834.56959	2861.0375
2837.1	2854.2375
2839.62884	2848.8375
2842.15613	2833.3375
2844.68186	2848.1375
2847.20604	2823.5375
2849.72867	2820.9375
2852.24974	2829.9375
2854.76927	2795.0375
2857.28724	2740.1375
2859.80367	2816.6375
2862.31855	2821.7375
2864.83189	2811.7375
2867.34368	2822.7375
2869.85393	2832.9375
2872.36264	2792.8375
2874.8698	2797.1375
2877.37543	2795.4375
2879.87952	2804.6375
2882.38207	2766.3375
2884.88308	2782.2375
2887.38256	2781.3375
2889.88051	2776.6375
2892.37692	2774.9375
2894.8718	2764.5375
2897.36515	2781.2375
2899.85698	2766.8375
2902.34727	2771.0375
2904.83604	2779.9375
2907.32328	2790.2375
2909.809	2786.2375
2912.29319	2781.2375
2914.77587	2791.9375
2917.25702	2803.5375
2919.73665	2803.9375
2922.21476	2802.9375
2924.69136	2793.3375
2927.16644	2790.2375
2929.64	2777.6375
2932.11205	2774.1375
2934.58258	2764.2375
2937.05161	2750.9375
2939.51912	2759.7375
2941.98513	2774.1375
2944.44962	2747.9375
2946.91261	2714.1375
2949.37409	2734.4375
2951.83407	2719.9375
2954.29254	2719.3375
2956.74951	2717.9375
2959.20498	2700.9375
2961.65895	2705.6375
2964.11142	2691.1375
2966.56239	2694.0375
2969.01186	2700.1375
2971.45984	2700.8375
2973.90632	2681.7375
2976.35131	2700.2375
2978.7948	2687.0375
2981.23681	2666.2375
2983.67732	2663.0375
2986.11635	2665.3375
2988.55388	2632.6375
2990.98993	2648.1375
2993.4245	2636.2375
2995.85758	2631.1375
2998.28917	2611.3375
3000.71928	2611.0375
3003.14791	2611.7375
3005.57506	2595.6375
3008.00073	2592.4375
3010.42493	2517.2375
3012.84764	2595.0375
3015.26888	2570.1375
3017.68865	2564.6375
3020.10694	2522.6375
3022.52376	2541.2375
3024.9391	2538.8375
3027.35298	2537.2375
3029.76539	2516.2375
3032.17632	2530.5375
3034.5858	2515.1375
3036.9938	2518.2375
3039.40034	2517.1375
3041.80542	2503.0375
3044.20903	2488.1375
3046.61118	2489.6375
3049.01187	2495.3375
3051.4111	2468.9375
3053.80888	2458.7375
3056.20519	2456.9375
3058.60005	2445.1375
3060.99345	2462.1375
3063.3854	2431.0375
3065.7759	2415.4375
3068.16494	2419.4375
3070.55254	2412.6375
3072.93868	2420.7375
3075.32338	2407.0375
3077.70662	2404.7375
3080.08842	2390.4375
3082.46878	2376.9375
3084.84769	2391.4375
3087.22515	2378.0375
3089.60118	2382.6375
3091.97576	2375.8375
3094.3489	2385.0375
3096.72061	2374.5375
3099.09087	2354.8375
3101.4597	2377.3375
3103.82709	2366.0375
3106.19305	2344.2375
3108.55757	2361.2375
3110.92066	2329.3375
3113.28232	2345.7375
3115.64255	2349.4375
3118.00134	2334.2375
3120.35871	2318.8375
3122.71466	2307.2375
3125.06917	2312.2375
3127.42226	2312.1375
3129.77393	2279.3375
3132.12417	2298.6375
3134.47299	2309.6375
3136.82039	2274.6375
3139.16636	2263.5375
3141.51092	2282.3375
3143.85406	2280.0375
3146.19579	2269.1375
3148.53609	2264.2375
3150.87499	2276.9375
3153.21246	2263.8375
3155.54853	2267.4375
3157.88318	2271.9375
3160.21642	2266.4375
3162.54826	2261.1375
3164.87868	2269.9375
3167.2077	2230.4375
3169.5353	2256.1375
3171.86151	2255.7375
3174.18631	2241.3375
3176.5097	2241.4375
3178.83169	2248.1375
3181.15228	2244.0375
3183.47147	2216.8375
3185.78926	2198.6375
3188.10565	2206.4375
3190.42065	2190.3375
3192.73424	2207.8375
3195.04645	2195.8375
3197.35725	2188.8375
3199.66667	2193.9375
3201.97469	2181.3375
3204.28132	2173.8375
3206.58656	2189.6375
3208.8904	2185.7375
3211.19287	2181.0375
3213.49394	2181.1375
3215.79363	2170.4375
3218.09193	2188.7375
3220.38884	2185.5375
3222.68438	2171.7375
3224.97853	2155.3375
3227.2713	2181.8375
3229.56269	2152.0375
3231.8527	2153.5375
3234.14133	2141.1375
3236.42858	2151.6375
3238.71446	2116.7375
3240.99896	2134.9375
3243.28209	2123.4375
3245.56384	2132.0375
3247.84423	2112.7375
3250.12324	2118.2375
3252.40088	2114.4375
3254.67715	2101.9375
3256.95205	2092.8375
3259.22558	2108.9375
3261.49775	2103.0375
3263.76855	2104.0375
3266.03799	2093.7375
3268.30606	2095.6375
3270.57277	2098.8375
3272.83812	2090.8375
3275.10211	2069.4375
3277.36474	2088.2375
3279.62601	2089.1375
3281.88593	2057.6375
3284.14448	2040.4375
3286.40168	2066.8375
3288.65753	2040.2375
3290.91202	2059.9375
3293.16516	2033.9375
3295.41695	2059.6375
3297.66738	2056.7375
3299.91647	2022.8375
3302.16421	2025.8375
3304.4106	1987.7375
3306.65564	2004.1375
3308.89933	1966.5375
3311.14169	1961.7375
3313.38269	1968.0375
3315.62236	1929.6375
3317.86068	1925.2375
3320.09766	1917.6375
3322.3333	1887.7375
3324.5676	1880.4375
3326.80056	1844.0375
3329.03219	1841.6375
3331.26248	-0.5625
3333.49143	0.6375
3335.71905	1.3375
