Data from AgNPs_UA_50uM_CRN_500uM_SU_RamanShift__16__13-58-30-316.txt Node

Date: Thu Aug 04 13:58:30 BST 2022
User: TCL
Spectrometer: QEP01345
Trigger mode: 4
Integration Time (sec): 1.000000E0
Scans to average: 10
Electric dark correction enabled: true
Nonlinearity correction enabled: false
Boxcar width: 0
XAxis mode: Raman Shifts
Number of Pixels in Spectrum: 1044
>>>>>Begin Spectral Data<<<<<
46.04893	1.225
50.45542	-0.675
54.85868	-0.375
59.25871	-1.175
63.6555	11.825
68.04907	13.725
72.43941	16.325
76.82654	16.825
81.21044	16.025
85.59113	17.325
89.96862	18.825
94.34289	18.025
98.71396	19.425
103.08183	19.725
107.4465	20.425
111.80798	20.025
116.16626	21.525
120.52136	23.725
124.87327	25.425
129.222	26.825
133.56755	30.725
137.90993	31.225
142.24913	32.925
146.58517	38.325
150.91804	44.125
155.24774	53.125
159.57429	70.325
163.89768	89.625
168.21792	116.025
172.53501	164.525
176.84895	230.125
181.15975	326.325
185.46741	456.025
189.77193	638.425
194.07331	860.425
198.37157	1108.325
202.6667	1373.925
206.9587	1643.625
211.24758	1931.925
215.53334	2214.725
219.81599	2521.025
224.09553	2869.525
228.37195	3261.425
232.64527	3665.525
236.91549	4077.725
241.18261	4394.225
245.44663	4639.325
249.70755	4830.025
253.96539	4959.525
258.22014	5087.525
262.4718	5193.125
266.72039	5253.625
270.96589	5268.225
275.20832	5203.725
279.44768	5112.925
283.68397	5018.525
287.91719	4976.925
292.14735	4994.925
296.37445	5133.225
300.59849	5357.025
304.81948	5674.925
309.03742	5980.825
313.25231	6166.825
317.46415	6118.225
321.67296	5800.025
325.87872	5433.625
330.08145	5233.725
334.28114	5214.225
338.47781	5280.925
342.67145	5390.325
346.86207	5593.725
351.04966	5869.125
355.23424	6187.225
359.4158	6358.925
363.59435	6420.325
367.76989	6394.625
371.94243	6302.425
376.11196	6222.625
380.27849	6147.425
384.44203	6111.725
388.60257	6086.025
392.76012	6123.125
396.91468	6211.025
401.06626	6333.025
405.21485	6351.225
409.36047	6190.725
413.50311	5916.925
417.64277	5648.225
421.77947	5485.225
425.9132	5428.225
430.04396	5431.525
434.17176	5453.725
438.2966	5531.425
442.41849	5641.825
446.53742	5768.725
450.6534	5856.525
454.76644	5934.325
458.87653	5904.825
462.98368	5876.225
467.08789	5831.425
471.18916	5727.125
475.2875	5595.325
479.38291	5479.925
483.4754	5406.925
487.56496	5362.525
491.6516	5345.225
495.73531	5336.325
499.81612	5353.225
503.89401	5382.525
507.96899	5442.425
512.04106	5504.825
516.11023	5599.925
520.1765	5669.825
524.23987	5680.125
528.30034	5674.125
532.35792	5644.425
536.41261	5584.225
540.46441	5485.525
544.51333	5453.825
548.55936	5464.625
552.60252	5565.925
556.64279	5684.825
560.6802	5750.425
564.71473	5860.325
568.7464	6005.525
572.7752	5992.325
576.80114	5784.125
580.82422	5584.925
584.84444	5505.725
588.86181	5478.125
592.87633	5515.725
596.888	5630.225
600.89682	5948.025
604.9028	6799.025
608.90594	8674.925
612.90624	10659.425
616.90371	9795.125
620.89834	7069.625
624.89015	5898.425
628.87913	5739.725
632.86528	5903.525
636.84862	6023.825
640.82913	5864.725
644.80683	5600.625
648.78172	5436.225
652.75379	5464.825
656.72306	5665.925
660.68952	5879.325
664.65319	5785.425
668.61405	5555.025
672.57211	5519.525
676.52738	5510.825
680.47986	5451.325
684.42955	5345.425
688.37646	5314.625
692.32058	5340.925
696.26192	5414.025
700.20048	5505.925
704.13626	5533.725
708.06928	5504.525
711.99952	5463.425
715.927	5449.225
719.85171	5479.025
723.77365	5517.025
727.69284	5476.425
731.60928	5411.625
735.52295	5411.625
739.43388	5399.025
743.34206	5447.725
747.24749	5445.425
751.15017	5471.025
755.05012	5550.725
758.94733	5834.225
762.8418	6607.525
766.73354	7724.425
770.62254	8564.325
774.50882	8643.725
778.39237	8103.825
782.27321	7242.325
786.15132	6387.825
790.02671	5825.025
793.89938	5554.425
797.76935	5422.525
801.6366	5377.325
805.50115	5334.325
809.36299	5311.725
813.22213	5310.725
817.07857	5306.625
820.93231	5304.625
824.78336	5322.125
828.63172	5334.925
832.47738	5353.725
836.32036	5328.525
840.16066	5301.025
843.99827	5277.825
847.8332	5284.725
851.66546	5285.625
855.49504	5296.225
859.32195	5313.625
863.1462	5300.925
866.96777	5299.925
870.78668	5312.525
874.60293	5310.825
878.41652	5343.125
882.22745	5394.725
886.03573	5400.525
889.84136	5397.025
893.64433	5378.825
897.44466	5363.125
901.24235	5373.025
905.0374	5353.925
908.8298	5314.225
912.61957	5282.825
916.40671	5294.025
920.19121	5321.825
923.97308	5402.725
927.75233	5454.625
931.52895	5508.525
935.30295	5429.125
939.07433	5299.025
942.84309	5207.125
946.60924	5159.925
950.37278	5156.325
954.13371	5144.025
957.89203	5140.725
961.64774	5157.325
965.40086	5125.925
969.15137	5135.225
972.89929	5127.125
976.64461	5105.525
980.38733	5119.525
984.12747	5128.425
987.86502	5163.925
991.59999	5182.125
995.33237	5227.825
999.06217	5308.825
1002.78939	5416.425
1006.51404	5544.425
1010.23611	5667.325
1013.95561	5702.525
1017.67255	5689.825
1021.38692	5646.225
1025.09872	5560.125
1028.80796	5459.825
1032.51465	5436.425
1036.21877	5454.725
1039.92035	5496.425
1043.61937	5523.325
1047.31584	5538.125
1051.00976	5555.425
1054.70114	5543.025
1058.38998	5539.325
1062.07627	5541.425
1065.76003	5603.825
1069.44126	5686.825
1073.11995	5811.725
1076.79611	5964.925
1080.46974	6077.725
1084.14085	6192.425
1087.80943	6321.425
1091.47549	6344.625
1095.13903	6287.425
1098.80005	6199.225
1102.45857	6048.525
1106.11456	5959.825
1109.76805	5900.425
1113.41903	5965.325
1117.06751	6090.225
1120.71348	6298.125
1124.35696	6609.325
1127.99793	6815.225
1131.63641	6665.525
1135.2724	6370.425
1138.90589	6127.325
1142.5369	6032.025
1146.16542	5980.025
1149.79145	5937.725
1153.415	5856.725
1157.03607	5802.525
1160.65467	5818.725
1164.27079	5962.425
1167.88443	6176.825
1171.49561	6510.225
1175.10432	7076.825
1178.71056	7850.425
1182.31434	8513.625
1185.91565	8671.425
1189.51451	8478.525
1193.11091	8209.325
1196.70485	7922.825
1200.29634	7716.325
1203.88538	7488.425
1207.47197	7182.325
1211.05612	6884.925
1214.63782	6660.825
1218.21708	6458.825
1221.79391	6313.525
1225.36829	6198.425
1228.94024	6168.225
1232.50976	6163.425
1236.07685	6174.625
1239.6415	6176.325
1243.20374	6203.425
1246.76355	6268.025
1250.32093	6353.325
1253.8759	6502.425
1257.42845	6718.725
1260.97859	6949.525
1264.52631	7155.325
1268.07163	7294.225
1271.61453	7348.525
1275.15503	7374.325
1278.69312	7369.025
1282.22882	7387.525
1285.76211	7503.025
1289.29301	7708.025
1292.82151	7901.225
1296.34761	8108.925
1299.87133	8458.625
1303.39266	9026.825
1306.9116	9945.625
1310.42815	10863.825
1313.94233	11144.025
1317.45412	10520.525
1320.96354	9654.725
1324.47058	8851.725
1327.97525	8206.225
1331.47754	7872.025
1334.97747	7781.925
1338.47502	7901.625
1341.97022	8242.825
1345.46305	8842.525
1348.95352	9706.825
1352.44163	10683.725
1355.92738	11760.325
1359.41078	13168.125
1362.89183	14386.525
1366.37053	13748.025
1369.84688	11475.925
1373.32088	9329.025
1376.79254	8169.925
1380.26186	7624.725
1383.72883	7289.825
1387.19347	6997.025
1390.65578	6756.825
1394.11575	6545.125
1397.57339	6380.325
1401.0287	6265.025
1404.48168	6192.025
1407.93234	6206.925
1411.38068	6282.125
1414.82669	6351.925
1418.27039	6375.125
1421.71177	6349.325
1425.15083	6285.725
1428.58758	6249.425
1432.02203	6287.525
1435.45416	6350.925
1438.88399	6403.725
1442.31151	6431.825
1445.73673	6491.225
1449.15965	6536.225
1452.58027	6516.825
1455.9986	6444.225
1459.41463	6408.725
1462.82837	6471.025
1466.23982	6615.925
1469.64898	6798.725
1473.05586	6910.925
1476.46045	6974.325
1479.86276	7004.625
1483.26279	7125.725
1486.66054	7307.925
1490.05602	7581.825
1493.44922	8024.125
1496.84016	8735.325
1500.22882	9813.425
1503.61521	11239.525
1506.99934	12627.825
1510.38121	13488.925
1513.76081	13293.425
1517.13816	12031.025
1520.51324	10399.125
1523.88607	9052.625
1527.25665	8266.825
1530.62498	7874.925
1533.99105	7685.925
1537.35488	7559.725
1540.71647	7499.225
1544.07581	7430.525
1547.4329	7341.925
1550.78776	7250.325
1554.14038	7188.225
1557.49077	7164.025
1560.83892	7248.525
1564.18484	7467.425
1567.52853	7806.025
1570.86999	8053.025
1574.20922	8103.125
1577.54624	7963.025
1580.88103	7494.825
1584.2136	6979.225
1587.54395	6675.725
1590.87208	6635.025
1594.19801	6834.225
1597.52172	7151.625
1600.84321	7282.225
1604.16251	7223.825
1607.47959	7070.325
1610.79447	6811.725
1614.10715	6473.725
1617.41763	6145.925
1620.7259	5892.625
1624.03199	5785.425
1627.33587	5736.125
1630.63757	5804.425
1633.93707	5983.325
1637.23439	6352.825
1640.52951	6965.925
1643.82246	7874.425
1647.11321	8908.825
1650.40179	9519.525
1653.68819	9183.925
1656.97241	8096.825
1660.25446	6884.725
1663.53433	6035.725
1666.81203	5528.225
1670.08756	5233.025
1673.36092	5058.325
1676.63211	4943.025
1679.90115	4880.525
1683.16801	4813.925
1686.43272	4762.225
1689.69527	4732.325
1692.95567	4709.125
1696.2139	4703.625
1699.46999	4679.225
1702.72392	4667.925
1705.97571	4685.125
1709.22535	4667.325
1712.47284	4667.025
1715.71819	4645.725
1718.96139	4649.025
1722.20246	4645.425
1725.44139	4623.025
1728.67818	4590.025
1731.91284	4555.525
1735.14537	4534.425
1738.37576	4526.625
1741.60403	4497.325
1744.83017	4490.225
1748.05418	4473.625
1751.27607	4468.925
1754.49584	4448.725
1757.71349	4451.525
1760.92903	4439.125
1764.14244	4433.125
1767.35375	4416.125
1770.56294	4427.225
1773.77002	4392.125
1776.97499	4387.125
1780.17785	4361.025
1783.37861	4343.825
1786.57727	4337.425
1789.77382	4330.525
1792.96828	4311.825
1796.16064	4322.525
1799.3509	4302.325
1802.53907	4305.825
1805.72514	4290.125
1808.90913	4273.225
1812.09102	4273.425
1815.27083	4254.625
1818.44856	4255.925
1821.6242	4233.125
1824.79776	4230.625
1827.96924	4213.025
1831.13864	4189.325
1834.30597	4185.925
1837.47122	4173.625
1840.6344	4181.825
1843.7955	4171.525
1846.95454	4174.225
1850.11151	4179.825
1853.26642	4172.525
1856.41926	4168.925
1859.57004	4174.425
1862.71876	4158.425
1865.86542	4152.425
1869.01003	4153.625
1872.15258	4144.525
1875.29308	4160.725
1878.43152	4137.925
1881.56792	4134.725
1884.70227	4131.625
1887.83457	4111.925
1890.96482	4120.825
1894.09304	4110.025
1897.21921	4094.525
1900.34335	4084.225
1903.46544	4079.625
1906.58551	4076.325
1909.70353	4071.825
1912.81953	4062.025
1915.93349	4059.625
1919.04543	4053.725
1922.15534	4042.525
1925.26322	4036.725
1928.36908	4038.425
1931.47292	4020.825
1934.57473	4003.725
1937.67453	3992.425
1940.77232	3966.925
1943.86808	3959.825
1946.96184	3954.525
1950.05358	3956.325
1953.14331	3930.025
1956.23103	3917.125
1959.31675	3902.525
1962.40046	3900.125
1965.48217	3895.225
1968.56188	3886.225
1971.63959	3878.525
1974.7153	3868.225
1977.78901	3864.825
1980.86073	3858.625
1983.93046	3823.225
1986.99819	3795.925
1990.06394	3805.425
1993.1277	3791.525
1996.18947	3781.025
1999.24925	3767.825
2002.30706	3745.025
2005.36288	3726.025
2008.41672	3716.925
2011.46859	3710.825
2014.51848	3696.725
2017.56639	3692.125
2020.61233	3668.525
2023.6563	3665.525
2026.6983	3640.225
2029.73833	3635.925
2032.7764	3631.525
2035.8125	3627.025
2038.84664	3600.825
2041.87881	3615.425
2044.90903	3599.025
2047.93729	3585.425
2050.96359	3587.325
2053.98794	3579.925
2057.01034	3570.925
2060.03078	3568.725
2063.04927	3561.225
2066.06582	3580.025
2069.08042	3571.425
2072.09307	3549.025
2075.10378	3540.125
2078.11255	3549.125
2081.11938	3549.825
2084.12426	3547.025
2087.12722	3550.225
2090.12824	3553.825
2093.12732	3557.525
2096.12447	3555.925
2099.11969	3546.025
2102.11299	3558.825
2105.10435	3541.425
2108.09379	3548.025
2111.08131	3552.625
2114.0669	3544.825
2117.05057	3542.325
2120.03233	3541.825
2123.01216	3552.925
2125.99008	3556.525
2128.96609	3569.725
2131.94018	3549.925
2134.91236	3561.325
2137.88263	3555.925
2140.851	3563.525
2143.81746	3559.425
2146.78201	3561.525
2149.74466	3548.025
2152.7054	3553.925
2155.66425	3564.825
2158.6212	3552.225
2161.57625	3553.825
2164.52941	3553.125
2167.48067	3540.425
2170.43004	3556.225
2173.37752	3523.225
2176.32311	3539.325
2179.26681	3536.325
2182.20863	3526.225
2185.14856	3531.025
2188.08661	3526.225
2191.02278	3527.725
2193.95707	3527.025
2196.88948	3523.125
2199.82001	3509.525
2202.74867	3512.525
2205.67545	3511.725
2208.60037	3496.425
2211.52341	3496.525
2214.44458	3491.525
2217.36388	3487.125
2220.28132	3474.325
2223.1969	3463.325
2226.11061	3451.225
2229.02246	3442.525
2231.93245	3451.225
2234.84058	3432.025
2237.74686	3444.025
2240.65128	3439.525
2243.55385	3430.125
2246.45456	3409.325
2249.35343	3415.925
2252.25044	3424.725
2255.14561	3412.825
2258.03893	3417.125
2260.93041	3406.225
2263.82004	3411.925
2266.70783	3391.625
2269.59378	3386.225
2272.4779	3375.625
2275.36017	3353.925
2278.24061	3357.825
2281.11922	3350.525
2283.996	3347.025
2286.87094	3337.425
2289.74405	3340.425
2292.61534	3342.125
2295.4848	3333.625
2298.35243	3326.425
2301.21824	3317.825
2304.08223	3326.525
2306.94439	3309.825
2309.80474	3315.725
2312.66327	3303.925
2315.51999	3313.425
2318.37489	3309.425
2321.22797	3290.625
2324.07925	3285.725
2326.92871	3280.225
2329.77637	3272.725
2332.62222	3253.825
2335.46626	3262.825
2338.3085	3249.925
2341.14893	3250.325
2343.98756	3258.725
2346.8244	3263.525
2349.65943	3247.625
2352.49267	3246.925
2355.32411	3253.025
2358.15376	3258.225
2360.98161	3254.125
2363.80768	3254.625
2366.63195	3255.225
2369.45444	3256.525
2372.27514	3250.425
2375.09405	3250.025
2377.91118	3248.025
2380.72652	3233.525
2383.54009	3215.225
2386.35187	3225.525
2389.16188	3210.625
2391.97011	3205.025
2394.77657	3187.525
2397.58125	3174.825
2400.38416	3154.025
2403.18529	3154.625
2405.98466	3165.425
2408.78226	3159.525
2411.57809	3146.625
2414.37216	3144.025
2417.16446	3142.525
2419.955	3138.825
2422.74378	3131.825
2425.5308	3139.525
2428.31606	3138.025
2431.09956	3144.825
2433.88131	3125.825
2436.6613	3118.025
2439.43954	3131.425
2442.21603	3128.925
2444.99077	3138.725
2447.76377	3117.125
2450.53501	3119.525
2453.30451	3121.325
2456.07226	3122.125
2458.83827	3119.025
2461.60254	3117.225
2464.36507	3102.325
2467.12586	3110.025
2469.88492	3108.525
2472.64224	3086.525
2475.39782	3095.825
2478.15167	3103.125
2480.90379	3097.825
2483.65417	3103.025
2486.40283	3111.625
2489.14976	3116.125
2491.89497	3114.625
2494.63845	3101.925
2497.3802	3097.025
2500.12024	3084.925
2502.85855	3083.625
2505.59514	3086.825
2508.33002	3080.025
2511.06318	3069.325
2513.79462	3067.225
2516.52435	3059.825
2519.25237	3031.125
2521.97867	3022.425
2524.70327	3029.025
2527.42616	3019.325
2530.14734	3015.425
2532.86681	3014.725
2535.58458	3034.425
2538.30065	3015.125
2541.01501	3020.925
2543.72768	3015.225
2546.43864	3021.825
2549.14791	3014.525
2551.85548	3015.625
2554.56136	3014.625
2557.26554	2999.525
2559.96803	2990.025
2562.66883	2988.925
2565.36794	2980.425
2568.06536	2982.825
2570.7611	2971.925
2573.45514	2953.725
2576.14751	2941.925
2578.83819	2944.725
2581.52719	2931.625
2584.21451	2932.025
2586.90015	2919.525
2589.58411	2922.625
2592.2664	2928.325
2594.94701	2910.225
2597.62594	2914.325
2600.30321	2902.025
2602.9788	2907.125
2605.65273	2904.925
2608.32498	2897.225
2610.99557	2904.525
2613.66449	2897.425
2616.33175	2893.925
2618.99734	2888.425
2621.66128	2893.925
2624.32355	2872.125
2626.98416	2873.325
2629.64311	2841.625
2632.30041	2852.725
2634.95605	2844.825
2637.61004	2823.125
2640.26238	2833.025
2642.91306	2840.325
2645.56209	2819.225
2648.20948	2841.425
2650.85521	2829.125
2653.4993	2837.525
2656.14175	2822.325
2658.78255	2827.125
2661.42171	2831.725
2664.05923	2832.325
2666.6951	2831.625
2669.32934	2827.725
2671.96194	2821.725
2674.59291	2821.425
2677.22224	2831.625
2679.84993	2830.925
2682.476	2822.625
2685.10043	2821.125
2687.72324	2827.725
2690.34441	2815.325
2692.96396	2819.625
2695.58188	2816.225
2698.19818	2802.025
2700.81285	2808.125
2703.4259	2806.025
2706.03733	2806.325
2708.64714	2807.525
2711.25533	2794.025
2713.86191	2785.825
2716.46687	2799.025
2719.07021	2807.625
2721.67194	2819.325
2724.27206	2799.625
2726.87057	2803.025
2729.46747	2797.325
2732.06276	2798.125
2734.65644	2793.725
2737.24852	2801.525
2739.83899	2791.425
2742.42786	2790.825
2745.01513	2774.125
2747.60079	2783.425
2750.18486	2771.325
2752.76733	2774.425
2755.3482	2772.525
2757.92747	2772.625
2760.50515	2754.925
2763.08123	2747.825
2765.65573	2740.525
2768.22863	2737.325
2770.79994	2726.025
2773.36967	2740.025
2775.9378	2726.225
2778.50435	2729.425
2781.06932	2731.625
2783.6327	2721.325
2786.1945	2722.325
2788.75471	2711.825
2791.31335	2711.925
2793.87041	2707.825
2796.42589	2698.025
2798.97979	2697.125
2801.53212	2694.425
2804.08288	2684.525
2806.63206	2686.025
2809.17967	2671.025
2811.72571	2662.325
2814.27018	2666.925
2816.81308	2661.425
2819.35442	2668.425
2821.89419	2645.425
2824.43239	2638.925
2826.96904	2638.725
2829.50412	2636.225
2832.03763	2630.725
2834.56959	2633.925
2837.1	2628.025
2839.62884	2613.325
2842.15613	2610.425
2844.68186	2608.925
2847.20604	2613.325
2849.72867	2596.325
2852.24974	2593.825
2854.76927	2597.725
2857.28724	2582.925
2859.80367	2598.925
2862.31855	2592.825
2864.83189	2582.225
2867.34368	2601.025
2869.85393	2592.125
2872.36264	2584.125
2874.8698	2583.125
2877.37543	2583.925
2879.87952	2581.225
2882.38207	2573.825
2884.88308	2574.725
2887.38256	2560.625
2889.88051	2557.625
2892.37692	2553.125
2894.8718	2558.425
2897.36515	2540.625
2899.85698	2539.125
2902.34727	2549.225
2904.83604	2558.125
2907.32328	2553.225
2909.809	2562.225
2912.29319	2568.925
2914.77587	2577.825
2917.25702	2571.625
2919.73665	2567.325
2922.21476	2571.625
2924.69136	2562.125
2927.16644	2555.425
2929.64	2544.925
2932.11205	2551.725
2934.58258	2526.425
2937.05161	2544.625
2939.51912	2541.025
2941.98513	2527.225
2944.44962	2518.925
2946.91261	2513.225
2949.37409	2521.625
2951.83407	2518.925
2954.29254	2519.125
2956.74951	2511.725
2959.20498	2515.125
2961.65895	2504.525
2964.11142	2509.825
2966.56239	2487.425
2969.01186	2489.525
2971.45984	2477.425
2973.90632	2499.925
2976.35131	2485.425
2978.7948	2491.925
2981.23681	2482.325
2983.67732	2480.925
2986.11635	2468.925
2988.55388	2464.325
2990.98993	2454.725
2993.4245	2454.325
2995.85758	2453.525
2998.28917	2444.625
3000.71928	2445.925
3003.14791	2441.325
3005.57506	2435.225
3008.00073	2417.625
3010.42493	2417.525
3012.84764	2408.925
3015.26888	2405.625
3017.68865	2407.125
3020.10694	2399.625
3022.52376	2386.125
3024.9391	2372.125
3027.35298	2375.225
3029.76539	2373.125
3032.17632	2364.525
3034.5858	2368.125
3036.9938	2348.525
3039.40034	2343.525
3041.80542	2345.625
3044.20903	2333.025
3046.61118	2340.425
3049.01187	2333.425
3051.4111	2326.125
3053.80888	2320.325
3056.20519	2310.425
3058.60005	2317.925
3060.99345	2320.125
3063.3854	2309.425
3065.7759	2303.125
3068.16494	2299.325
3070.55254	2282.525
3072.93868	2277.725
3075.32338	2279.225
3077.70662	2279.425
3080.08842	2263.225
3082.46878	2249.325
3084.84769	2241.525
3087.22515	2246.325
3089.60118	2255.825
3091.97576	2247.225
3094.3489	2237.925
3096.72061	2242.425
3099.09087	2238.225
3101.4597	2247.625
3103.82709	2247.025
3106.19305	2223.225
3108.55757	2235.225
3110.92066	2223.425
3113.28232	2215.225
3115.64255	2215.025
3118.00134	2210.425
3120.35871	2206.925
3122.71466	2188.425
3125.06917	2197.225
3127.42226	2181.525
3129.77393	2182.725
3132.12417	2183.325
3134.47299	2192.125
3136.82039	2178.825
3139.16636	2178.625
3141.51092	2174.025
3143.85406	2164.325
3146.19579	2168.825
3148.53609	2170.725
3150.87499	2168.025
3153.21246	2177.325
3155.54853	2183.025
3157.88318	2180.625
3160.21642	2173.725
3162.54826	2166.225
3164.87868	2164.925
3167.2077	2165.425
3169.5353	2155.325
3171.86151	2161.325
3174.18631	2152.125
3176.5097	2150.925
3178.83169	2156.625
3181.15228	2136.625
3183.47147	2138.025
3185.78926	2134.425
3188.10565	2122.725
3190.42065	2115.525
3192.73424	2119.825
3195.04645	2116.925
3197.35725	2105.325
3199.66667	2117.225
3201.97469	2116.425
3204.28132	2121.125
3206.58656	2111.325
3208.8904	2112.225
3211.19287	2114.425
3213.49394	2109.425
3215.79363	2111.125
3218.09193	2112.325
3220.38884	2116.825
3222.68438	2114.025
3224.97853	2093.525
3227.2713	2100.425
3229.56269	2103.025
3231.8527	2098.125
3234.14133	2086.825
3236.42858	2081.725
3238.71446	2082.225
3240.99896	2068.425
3243.28209	2058.725
3245.56384	2061.725
3247.84423	2064.125
3250.12324	2069.025
3252.40088	2068.525
3254.67715	2058.725
3256.95205	2046.725
3259.22558	2044.825
3261.49775	2050.725
3263.76855	2052.725
3266.03799	2031.825
3268.30606	2053.825
3270.57277	2036.125
3272.83812	2038.925
3275.10211	2025.425
3277.36474	2016.525
3279.62601	2022.625
3281.88593	2025.625
3284.14448	2020.225
3286.40168	2020.225
3288.65753	2014.925
3290.91202	2010.825
3293.16516	2007.425
3295.41695	2016.725
3297.66738	1991.925
3299.91647	1989.425
3302.16421	1961.925
3304.4106	1962.825
3306.65564	1953.325
3308.89933	1937.125
3311.14169	1915.425
3313.38269	1911.125
3315.62236	1893.425
3317.86068	1878.225
3320.09766	1870.425
3322.3333	1847.125
3324.5676	1840.125
3326.80056	1804.025
3329.03219	1786.625
3331.26248	-0.375
3333.49143	-0.575
3335.71905	0.225
