Data from AgNPs_UA_5uM_CRN_500uM_SU_RamanShift__15__11-31-53-141.txt Node

Date: Thu Aug 04 11:31:53 BST 2022
User: TCL
Spectrometer: QEP01345
Trigger mode: 4
Integration Time (sec): 1.000000E0
Scans to average: 10
Electric dark correction enabled: true
Nonlinearity correction enabled: false
Boxcar width: 0
XAxis mode: Raman Shifts
Number of Pixels in Spectrum: 1044
>>>>>Begin Spectral Data<<<<<
46.04893	-0.1625
50.45542	0.4375
54.85868	0.0375
59.25871	-0.8625
63.6555	-54.7625
68.04907	-35.7625
72.43941	-67.4625
76.82654	-51.8625
81.21044	-51.1625
85.59113	-45.9625
89.96862	-68.2625
94.34289	-50.2625
98.71396	-72.1625
103.08183	-51.3625
107.4465	-41.3625
111.80798	-47.8625
116.16626	-37.4625
120.52136	-65.5625
124.87327	-39.1625
129.222	-50.6625
133.56755	-36.1625
137.90993	-47.6625
142.24913	-30.9625
146.58517	-22.2625
150.91804	-14.2625
155.24774	8.4375
159.57429	38.5375
163.89768	62.7375
168.21792	132.0375
172.53501	194.8375
176.84895	340.9375
181.15975	559.2375
185.46741	832.7375
189.77193	1165.3375
194.07331	1644.4375
198.37157	2169.2375
202.6667	2688.5375
206.9587	3287.8375
211.24758	3910.7375
215.53334	4592.8375
219.81599	5411.7375
224.09553	6355.8375
228.37195	7324.8375
232.64527	8216.0375
236.91549	8961.6375
241.18261	9315.0375
245.44663	9432.1375
249.70755	9407.9375
253.96539	9398.0375
258.22014	9487.4375
262.4718	9575.6375
266.72039	9550.7375
270.96589	9337.4375
275.20832	8925.9375
279.44768	8519.1375
283.68397	8205.7375
287.91719	8129.4375
292.14735	8332.8375
296.37445	8973.8375
300.59849	10107.3375
304.81948	11643.1375
309.03742	13426.5375
313.25231	14660.9375
317.46415	14455.9375
321.67296	12663.1375
325.87872	10580.8375
330.08145	9411.4375
334.28114	9127.4375
338.47781	9480.4375
342.67145	10154.6375
346.86207	11248.6375
351.04966	12902.1375
355.23424	14536.2375
359.4158	15139.4375
363.59435	14539.7375
367.76989	13555.0375
371.94243	12623.6375
376.11196	11801.9375
380.27849	11246.3375
384.44203	10744.4375
388.60257	10491.1375
392.76012	10509.5375
396.91468	10877.1375
401.06626	11313.8375
405.21485	11292.6375
409.36047	10557.1375
413.50311	9286.1375
417.64277	8079.7375
421.77947	7382.9375
425.9132	7025.2375
430.04396	6843.1375
434.17176	6832.6375
438.2966	6965.4375
442.41849	7211.6375
446.53742	7475.8375
450.6534	7625.0375
454.76644	7614.4375
458.87653	7450.0375
462.98368	7286.0375
467.08789	7131.6375
471.18916	6861.6375
475.2875	6514.8375
479.38291	6230.8375
483.4754	6050.8375
487.56496	5964.9375
491.6516	5886.5375
495.73531	5859.6375
499.81612	5930.4375
503.89401	6126.0375
507.96899	6341.4375
512.04106	6664.3375
516.11023	6983.6375
520.1765	7228.3375
524.23987	7343.5375
528.30034	7309.1375
532.35792	7173.5375
536.41261	6997.4375
540.46441	6736.7375
544.51333	6543.8375
548.55936	6554.8375
552.60252	6719.5375
556.64279	6999.8375
560.6802	7487.8375
564.71473	8669.0375
568.7464	10185.2375
572.7752	10106.2375
576.80114	8190.1375
580.82422	6605.9375
584.84444	5959.6375
588.86181	5730.7375
592.87633	5707.3375
596.888	5966.4375
600.89682	6902.4375
604.9028	10025.8375
608.90594	18026.9375
612.90624	27661.2375
616.90371	24924.2375
620.89834	12965.9375
624.89015	7803.1375
628.87913	7262.7375
632.86528	8014.2375
636.84862	8263.8375
640.82913	7312.2375
644.80683	6046.4375
648.78172	5519.5375
652.75379	5695.9375
656.72306	6644.4375
660.68952	7550.7375
664.65319	7020.2375
668.61405	5804.8375
672.57211	5299.6375
676.52738	5292.1375
680.47986	5225.1375
684.42955	5049.8375
688.37646	4975.4375
692.32058	4962.8375
696.26192	5068.7375
700.20048	5234.3375
704.13626	5274.2375
708.06928	5161.9375
711.99952	5127.9375
715.927	5189.7375
719.85171	5468.7375
723.77365	5628.8375
727.69284	5450.8375
731.60928	5266.9375
735.52295	5185.0375
739.43388	5267.3375
743.34206	5339.2375
747.24749	5323.8375
751.15017	5352.6375
755.05012	5782.2375
758.94733	7353.2375
762.8418	10864.1375
766.73354	15357.6375
770.62254	17681.2375
774.50882	16785.2375
778.39237	14928.2375
782.27321	12172.8375
786.15132	8811.3375
790.02671	6593.8375
793.89938	5603.3375
797.76935	5282.1375
801.6366	5107.7375
805.50115	5019.5375
809.36299	4960.0375
813.22213	4928.4375
817.07857	4940.1375
820.93231	4991.2375
824.78336	5130.3375
828.63172	5248.6375
832.47738	5320.3375
836.32036	5186.2375
840.16066	4931.6375
843.99827	4779.2375
847.8332	4711.0375
851.66546	4722.7375
855.49504	4702.4375
859.32195	4678.7375
863.1462	4621.3375
866.96777	4617.2375
870.78668	4606.3375
874.60293	4662.0375
878.41652	4750.5375
882.22745	4907.4375
886.03573	5016.8375
889.84136	4965.1375
893.64433	4939.5375
897.44466	4956.9375
901.24235	4966.3375
905.0374	4862.5375
908.8298	4659.5375
912.61957	4519.3375
916.40671	4434.5375
920.19121	4478.2375
923.97308	4742.8375
927.75233	5211.3375
931.52895	5720.3375
935.30295	5437.3375
939.07433	4725.0375
942.84309	4259.9375
946.60924	4094.4375
950.37278	4019.0375
954.13371	4010.0375
957.89203	4005.7375
961.64774	4021.2375
965.40086	3998.8375
969.15137	3943.3375
972.89929	3981.2375
976.64461	3940.4375
980.38733	3952.0375
984.12747	3931.7375
987.86502	3945.5375
991.59999	3976.3375
995.33237	4060.2375
999.06217	4191.9375
1002.78939	4411.7375
1006.51404	4777.4375
1010.23611	4927.8375
1013.95561	4765.4375
1017.67255	4527.3375
1021.38692	4330.7375
1025.09872	4169.5375
1028.80796	4055.2375
1032.51465	4127.6375
1036.21877	4182.5375
1039.92035	4246.0375
1043.61937	4322.4375
1047.31584	4421.6375
1051.00976	4424.7375
1054.70114	4338.0375
1058.38998	4272.4375
1062.07627	4248.3375
1065.76003	4256.2375
1069.44126	4302.2375
1073.11995	4437.0375
1076.79611	4753.6375
1080.46974	5336.3375
1084.14085	6186.0375
1087.80943	6887.5375
1091.47549	6806.0375
1095.13903	6125.4375
1098.80005	5382.4375
1102.45857	4982.5375
1106.11456	4942.3375
1109.76805	5079.0375
1113.41903	5569.5375
1117.06751	6319.1375
1120.71348	7566.6375
1124.35696	9393.3375
1127.99793	10569.8375
1131.63641	9621.8375
1135.2724	7726.1375
1138.90589	6441.7375
1142.5369	5737.1375
1146.16542	5295.0375
1149.79145	5014.6375
1153.415	4951.2375
1157.03607	5021.5375
1160.65467	5309.8375
1164.27079	5767.4375
1167.88443	6483.7375
1171.49561	7651.0375
1175.10432	9699.7375
1178.71056	12448.3375
1182.31434	14280.6375
1185.91565	13901.7375
1189.51451	12110.7375
1193.11091	10239.7375
1196.70485	9043.9375
1200.29634	8565.3375
1203.88538	7971.1375
1207.47197	6847.1375
1211.05612	5791.5375
1214.63782	5129.3375
1218.21708	4833.7375
1221.79391	4725.3375
1225.36829	4694.0375
1228.94024	4718.5375
1232.50976	4678.2375
1236.07685	4715.3375
1239.6415	4791.4375
1243.20374	4928.3375
1246.76355	5122.3375
1250.32093	5381.4375
1253.8759	5718.6375
1257.42845	6362.0375
1260.97859	7119.7375
1264.52631	7875.6375
1268.07163	8202.8375
1271.61453	8179.9375
1275.15503	7885.9375
1278.69312	7587.4375
1282.22882	7805.9375
1285.76211	8869.4375
1289.29301	10285.4375
1292.82151	11235.4375
1296.34761	11623.5375
1299.87133	12579.5375
1303.39266	14993.7375
1306.9116	19505.4375
1310.42815	25065.3375
1313.94233	27188.3375
1317.45412	23077.9375
1320.96354	16872.2375
1324.47058	12148.9375
1327.97525	9250.5375
1331.47754	7824.4375
1334.97747	7378.2375
1338.47502	7572.6375
1341.97022	8682.0375
1345.46305	11096.9375
1348.95352	14516.2375
1352.44163	18068.1375
1355.92738	22630.6375
1359.41078	30523.9375
1362.89183	38628.2375
1366.37053	36451.8375
1369.84688	24808.8375
1373.32088	15421.6375
1376.79254	11423.7375
1380.26186	9592.7375
1383.72883	8168.6375
1387.19347	6917.4375
1390.65578	5964.6375
1394.11575	5437.9375
1397.57339	5168.0375
1401.0287	5006.3375
1404.48168	4808.9375
1407.93234	4735.5375
1411.38068	4843.2375
1414.82669	5264.1375
1418.27039	5740.9375
1421.71177	5831.0375
1425.15083	5621.3375
1428.58758	5727.9375
1432.02203	6375.5375
1435.45416	6831.8375
1438.88399	6526.0375
1442.31151	6067.8375
1445.73673	5974.2375
1449.15965	5925.0375
1452.58027	5763.8375
1455.9986	5536.4375
1459.41463	5348.9375
1462.82837	5355.6375
1466.23982	5612.0375
1469.64898	5996.0375
1473.05586	6124.4375
1476.46045	6059.1375
1479.86276	6094.3375
1483.26279	6399.1375
1486.66054	7104.9375
1490.05602	8213.4375
1493.44922	9970.9375
1496.84016	12758.1375
1500.22882	17100.4375
1503.61521	23199.8375
1506.99934	31109.6375
1510.38121	39207.3375
1513.76081	42636.8375
1517.13816	38107.9375
1520.51324	28490.1375
1523.88607	19630.4375
1527.25665	13826.9375
1530.62498	10559.0375
1533.99105	8652.2375
1537.35488	7409.2375
1540.71647	6731.0375
1544.07581	6438.4375
1547.4329	6473.4375
1550.78776	6667.7375
1554.14038	7019.4375
1557.49077	7663.1375
1560.83892	8778.0375
1564.18484	10486.8375
1567.52853	12279.6375
1570.86999	13277.3375
1574.20922	13347.7375
1577.54624	12562.5375
1580.88103	10448.4375
1584.2136	7923.2375
1587.54395	6447.0375
1590.87208	6087.5375
1594.19801	6577.2375
1597.52172	7382.5375
1600.84321	7416.3375
1604.16251	6544.9375
1607.47959	5700.2375
1610.79447	5163.6375
1614.10715	4785.8375
1617.41763	4517.5375
1620.7259	4382.6375
1624.03199	4470.5375
1627.33587	4679.7375
1630.63757	5114.7375
1633.93707	5924.7375
1637.23439	7353.7375
1640.52951	9998.1375
1643.82246	14515.8375
1647.11321	20621.2375
1650.40179	25419.3375
1653.68819	24933.9375
1656.97241	19192.0375
1660.25446	12757.9375
1663.53433	8389.3375
1666.81203	6016.7375
1670.08756	4828.9375
1673.36092	4162.7375
1676.63211	3759.3375
1679.90115	3502.5375
1683.16801	3314.4375
1686.43272	3188.1375
1689.69527	3095.8375
1692.95567	3007.5375
1696.2139	2983.1375
1699.46999	2894.7375
1702.72392	2890.1375
1705.97571	2905.9375
1709.22535	2879.2375
1712.47284	2930.7375
1715.71819	2963.7375
1718.96139	2962.8375
1722.20246	2924.3375
1725.44139	2857.2375
1728.67818	2787.5375
1731.91284	2699.4375
1735.14537	2627.3375
1738.37576	2590.0375
1741.60403	2565.2375
1744.83017	2526.3375
1748.05418	2530.9375
1751.27607	2496.3375
1754.49584	2441.9375
1757.71349	2368.4375
1760.92903	2342.1375
1764.14244	2254.7375
1767.35375	2240.3375
1770.56294	2184.6375
1773.77002	2149.4375
1776.97499	2119.2375
1780.17785	2081.8375
1783.37861	2047.6375
1786.57727	2057.0375
1789.77382	1989.2375
1792.96828	2014.8375
1796.16064	2025.5375
1799.3509	2004.4375
1802.53907	2017.2375
1805.72514	1986.2375
1808.90913	1953.4375
1812.09102	1956.3375
1815.27083	1951.1375
1818.44856	1930.5375
1821.6242	1928.9375
1824.79776	1912.7375
1827.96924	1893.2375
1831.13864	1863.2375
1834.30597	1852.1375
1837.47122	1832.3375
1840.6344	1810.5375
1843.7955	1772.1375
1846.95454	1745.5375
1850.11151	1771.1375
1853.26642	1715.1375
1856.41926	1737.2375
1859.57004	1731.2375
1862.71876	1742.6375
1865.86542	1748.4375
1869.01003	1752.4375
1872.15258	1746.8375
1875.29308	1766.1375
1878.43152	1777.9375
1881.56792	1750.6375
1884.70227	1726.4375
1887.83457	1732.0375
1890.96482	1706.8375
1894.09304	1697.0375
1897.21921	1681.2375
1900.34335	1691.0375
1903.46544	1685.7375
1906.58551	1688.5375
1909.70353	1688.9375
1912.81953	1676.1375
1915.93349	1666.4375
1919.04543	1661.0375
1922.15534	1634.5375
1925.26322	1631.0375
1928.36908	1597.9375
1931.47292	1575.7375
1934.57473	1569.5375
1937.67453	1522.2375
1940.77232	1485.2375
1943.86808	1478.0375
1946.96184	1477.9375
1950.05358	1453.4375
1953.14331	1445.2375
1956.23103	1466.0375
1959.31675	1446.9375
1962.40046	1420.4375
1965.48217	1471.5375
1968.56188	1496.3375
1971.63959	1506.7375
1974.7153	1518.3375
1977.78901	1501.2375
1980.86073	1466.3375
1983.93046	1406.3375
1986.99819	1327.7375
1990.06394	1332.3375
1993.1277	1351.8375
1996.18947	1337.7375
1999.24925	1308.7375
2002.30706	1312.6375
2005.36288	1305.4375
2008.41672	1287.6375
2011.46859	1264.6375
2014.51848	1258.7375
2017.56639	1245.8375
2020.61233	1242.8375
2023.6563	1241.6375
2026.6983	1211.5375
2029.73833	1226.2375
2032.7764	1231.1375
2035.8125	1190.1375
2038.84664	1196.6375
2041.87881	1195.1375
2044.90903	1215.3375
2047.93729	1193.9375
2050.96359	1169.9375
2053.98794	1177.1375
2057.01034	1171.1375
2060.03078	1146.0375
2063.04927	1127.0375
2066.06582	1131.5375
2069.08042	1106.7375
2072.09307	1111.7375
2075.10378	1101.9375
2078.11255	1096.5375
2081.11938	1103.0375
2084.12426	1100.6375
2087.12722	1106.1375
2090.12824	1101.3375
2093.12732	1103.4375
2096.12447	1106.0375
2099.11969	1097.8375
2102.11299	1087.1375
2105.10435	1112.8375
2108.09379	1104.9375
2111.08131	1095.4375
2114.0669	1108.9375
2117.05057	1119.3375
2120.03233	1123.5375
2123.01216	1154.4375
2125.99008	1177.6375
2128.96609	1168.4375
2131.94018	1185.6375
2134.91236	1148.3375
2137.88263	1124.6375
2140.851	1124.1375
2143.81746	1120.7375
2146.78201	1089.3375
2149.74466	1060.2375
2152.7054	1052.8375
2155.66425	1032.1375
2158.6212	1023.0375
2161.57625	995.8375
2164.52941	983.4375
2167.48067	995.2375
2170.43004	996.9375
2173.37752	1033.5375
2176.32311	1020.6375
2179.26681	1035.8375
2182.20863	1043.7375
2185.14856	1043.1375
2188.08661	1031.2375
2191.02278	1026.7375
2193.95707	991.0375
2196.88948	973.7375
2199.82001	979.9375
2202.74867	966.9375
2205.67545	964.8375
2208.60037	982.3375
2211.52341	969.3375
2214.44458	966.5375
2217.36388	955.2375
2220.28132	951.7375
2223.1969	932.8375
2226.11061	933.6375
2229.02246	922.6375
2231.93245	924.5375
2234.84058	911.3375
2237.74686	905.5375
2240.65128	915.1375
2243.55385	922.3375
2246.45456	907.3375
2249.35343	945.3375
2252.25044	951.1375
2255.14561	992.8375
2258.03893	1012.3375
2260.93041	1026.9375
2263.82004	1042.3375
2266.70783	1057.5375
2269.59378	1036.5375
2272.4779	1011.4375
2275.36017	1035.9375
2278.24061	1011.8375
2281.11922	980.4375
2283.996	999.0375
2286.87094	967.4375
2289.74405	962.6375
2292.61534	944.0375
2295.4848	925.1375
2298.35243	910.0375
2301.21824	898.0375
2304.08223	897.6375
2306.94439	906.0375
2309.80474	905.0375
2312.66327	900.3375
2315.51999	885.3375
2318.37489	886.7375
2321.22797	874.5375
2324.07925	877.3375
2326.92871	871.6375
2329.77637	867.4375
2332.62222	865.8375
2335.46626	851.9375
2338.3085	863.3375
2341.14893	882.1375
2343.98756	888.2375
2346.8244	879.6375
2349.65943	880.3375
2352.49267	899.4375
2355.32411	919.8375
2358.15376	925.5375
2360.98161	955.5375
2363.80768	951.6375
2366.63195	986.8375
2369.45444	1000.0375
2372.27514	998.1375
2375.09405	1021.0375
2377.91118	984.5375
2380.72652	969.4375
2383.54009	951.2375
2386.35187	952.9375
2389.16188	926.3375
2391.97011	910.6375
2394.77657	887.2375
2397.58125	886.0375
2400.38416	881.2375
2403.18529	861.9375
2405.98466	838.1375
2408.78226	847.7375
2411.57809	845.2375
2414.37216	841.6375
2417.16446	841.7375
2419.955	825.6375
2422.74378	851.6375
2425.5308	831.0375
2428.31606	842.0375
2431.09956	859.2375
2433.88131	854.3375
2436.6613	875.4375
2439.43954	873.6375
2442.21603	877.9375
2444.99077	885.7375
2447.76377	902.1375
2450.53501	900.5375
2453.30451	901.5375
2456.07226	918.5375
2458.83827	911.2375
2461.60254	861.1375
2464.36507	896.0375
2467.12586	884.4375
2469.88492	892.9375
2472.64224	896.7375
2475.39782	890.6375
2478.15167	915.8375
2480.90379	925.4375
2483.65417	967.9375
2486.40283	984.9375
2489.14976	1014.4375
2491.89497	995.5375
2494.63845	992.4375
2497.3802	990.9375
2500.12024	979.6375
2502.85855	965.3375
2505.59514	946.9375
2508.33002	923.7375
2511.06318	873.8375
2513.79462	858.7375
2516.52435	799.7375
2519.25237	768.3375
2521.97867	759.5375
2524.70327	761.6375
2527.42616	743.1375
2530.14734	755.5375
2532.86681	728.9375
2535.58458	735.1375
2538.30065	734.1375
2541.01501	759.7375
2543.72768	747.9375
2546.43864	758.6375
2549.14791	771.9375
2551.85548	770.8375
2554.56136	770.8375
2557.26554	791.3375
2559.96803	788.9375
2562.66883	795.0375
2565.36794	786.0375
2568.06536	767.0375
2570.7611	799.0375
2573.45514	792.5375
2576.14751	786.9375
2578.83819	769.5375
2581.52719	757.9375
2584.21451	757.4375
2586.90015	735.8375
2589.58411	723.6375
2592.2664	741.4375
2594.94701	740.4375
2597.62594	743.6375
2600.30321	686.7375
2602.9788	716.4375
2605.65273	711.0375
2608.32498	726.5375
2610.99557	752.6375
2613.66449	724.7375
2616.33175	740.7375
2618.99734	751.8375
2621.66128	747.8375
2624.32355	750.2375
2626.98416	727.7375
2629.64311	718.7375
2632.30041	704.5375
2634.95605	683.6375
2637.61004	672.0375
2640.26238	650.3375
2642.91306	649.0375
2645.56209	667.7375
2648.20948	664.1375
2650.85521	648.2375
2653.4993	675.7375
2656.14175	668.1375
2658.78255	673.9375
2661.42171	648.9375
2664.05923	695.5375
2666.6951	704.4375
2669.32934	721.7375
2671.96194	734.1375
2674.59291	725.4375
2677.22224	728.1375
2679.84993	722.3375
2682.476	705.2375
2685.10043	705.6375
2687.72324	698.8375
2690.34441	690.2375
2692.96396	691.9375
2695.58188	694.5375
2698.19818	685.8375
2700.81285	667.3375
2703.4259	663.8375
2706.03733	635.2375
2708.64714	647.8375
2711.25533	682.9375
2713.86191	695.4375
2716.46687	687.1375
2719.07021	686.6375
2721.67194	689.5375
2724.27206	698.7375
2726.87057	679.1375
2729.46747	657.9375
2732.06276	666.5375
2734.65644	642.6375
2737.24852	638.8375
2739.83899	614.3375
2742.42786	630.0375
2745.01513	626.8375
2747.60079	611.1375
2750.18486	591.2375
2752.76733	594.8375
2755.3482	577.2375
2757.92747	583.3375
2760.50515	563.2375
2763.08123	560.4375
2765.65573	563.2375
2768.22863	554.9375
2770.79994	555.3375
2773.36967	547.4375
2775.9378	547.1375
2778.50435	549.9375
2781.06932	547.2375
2783.6327	546.5375
2786.1945	574.6375
2788.75471	561.7375
2791.31335	563.2375
2793.87041	574.5375
2796.42589	564.2375
2798.97979	570.0375
2801.53212	589.1375
2804.08288	615.4375
2806.63206	611.7375
2809.17967	613.8375
2811.72571	645.3375
2814.27018	659.4375
2816.81308	665.5375
2819.35442	657.8375
2821.89419	695.1375
2824.43239	695.5375
2826.96904	727.1375
2829.50412	704.7375
2832.03763	708.7375
2834.56959	701.9375
2837.1	683.1375
2839.62884	673.1375
2842.15613	666.7375
2844.68186	674.6375
2847.20604	652.5375
2849.72867	661.2375
2852.24974	685.0375
2854.76927	660.6375
2857.28724	636.4375
2859.80367	717.5375
2862.31855	744.9375
2864.83189	752.3375
2867.34368	770.4375
2869.85393	798.7375
2872.36264	790.3375
2874.8698	797.8375
2877.37543	803.2375
2879.87952	782.4375
2882.38207	752.3375
2884.88308	743.1375
2887.38256	736.4375
2889.88051	716.2375
2892.37692	702.8375
2894.8718	691.4375
2897.36515	699.6375
2899.85698	696.3375
2902.34727	709.1375
2904.83604	730.7375
2907.32328	752.4375
2909.809	773.0375
2912.29319	779.0375
2914.77587	788.9375
2917.25702	798.3375
2919.73665	792.3375
2922.21476	771.9375
2924.69136	754.6375
2927.16644	711.2375
2929.64	702.0375
2932.11205	676.1375
2934.58258	684.6375
2937.05161	667.3375
2939.51912	667.7375
2941.98513	682.6375
2944.44962	670.0375
2946.91261	643.6375
2949.37409	664.5375
2951.83407	661.6375
2954.29254	661.5375
2956.74951	675.2375
2959.20498	656.1375
2961.65895	672.8375
2964.11142	658.7375
2966.56239	661.0375
2969.01186	653.2375
2971.45984	642.0375
2973.90632	633.3375
2976.35131	654.0375
2978.7948	649.9375
2981.23681	637.2375
2983.67732	650.2375
2986.11635	657.8375
2988.55388	635.4375
2990.98993	645.4375
2993.4245	649.2375
2995.85758	647.9375
2998.28917	649.3375
3000.71928	650.8375
3003.14791	658.7375
3005.57506	644.1375
3008.00073	636.6375
3010.42493	585.1375
3012.84764	645.6375
3015.26888	638.1375
3017.68865	637.1375
3020.10694	592.2375
3022.52376	613.0375
3024.9391	606.8375
3027.35298	598.5375
3029.76539	577.9375
3032.17632	571.2375
3034.5858	550.8375
3036.9938	540.2375
3039.40034	530.4375
3041.80542	511.1375
3044.20903	491.8375
3046.61118	480.9375
3049.01187	502.6375
3051.4111	475.3375
3053.80888	473.6375
3056.20519	468.7375
3058.60005	457.1375
3060.99345	490.1375
3063.3854	461.1375
3065.7759	452.7375
3068.16494	444.6375
3070.55254	436.8375
3072.93868	454.2375
3075.32338	447.2375
3077.70662	443.9375
3080.08842	433.9375
3082.46878	419.3375
3084.84769	442.6375
3087.22515	420.6375
3089.60118	429.5375
3091.97576	411.5375
3094.3489	427.6375
3096.72061	419.7375
3099.09087	399.7375
3101.4597	419.0375
3103.82709	409.4375
3106.19305	395.8375
3108.55757	406.9375
3110.92066	400.6375
3113.28232	413.7375
3115.64255	417.5375
3118.00134	421.2375
3120.35871	404.5375
3122.71466	390.1375
3125.06917	406.7375
3127.42226	400.1375
3129.77393	391.3375
3132.12417	405.4375
3134.47299	416.8375
3136.82039	399.1375
3139.16636	381.5375
3141.51092	406.9375
3143.85406	411.4375
3146.19579	394.4375
3148.53609	392.4375
3150.87499	407.3375
3153.21246	401.3375
3155.54853	412.1375
3157.88318	416.8375
3160.21642	420.6375
3162.54826	411.3375
3164.87868	415.6375
3167.2077	383.0375
3169.5353	397.3375
3171.86151	399.8375
3174.18631	380.5375
3176.5097	368.8375
3178.83169	371.7375
3181.15228	366.2375
3183.47147	348.2375
3185.78926	323.3375
3188.10565	343.7375
3190.42065	322.2375
3192.73424	335.4375
3195.04645	328.1375
3197.35725	320.0375
3199.66667	339.6375
3201.97469	330.3375
3204.28132	326.8375
3206.58656	345.9375
3208.8904	352.4375
3211.19287	345.8375
3213.49394	342.7375
3215.79363	341.9375
3218.09193	355.5375
3220.38884	353.1375
3222.68438	345.3375
3224.97853	336.1375
3227.2713	350.7375
3229.56269	339.3375
3231.8527	342.9375
3234.14133	326.1375
3236.42858	326.4375
3238.71446	310.5375
3240.99896	331.1375
3243.28209	312.5375
3245.56384	323.3375
3247.84423	313.6375
3250.12324	325.1375
3252.40088	321.3375
3254.67715	313.4375
3256.95205	302.2375
3259.22558	318.5375
3261.49775	324.1375
3263.76855	313.4375
3266.03799	322.6375
3268.30606	320.0375
3270.57277	327.0375
3272.83812	319.9375
3275.10211	327.1375
3277.36474	346.9375
3279.62601	356.2375
3281.88593	340.2375
3284.14448	331.5375
3286.40168	373.2375
3288.65753	370.2375
3290.91202	380.0375
3293.16516	376.9375
3295.41695	412.5375
3297.66738	429.5375
3299.91647	418.4375
3302.16421	437.7375
3304.4106	410.4375
3306.65564	442.2375
3308.89933	424.5375
3311.14169	442.1375
3313.38269	441.3375
3315.62236	433.6375
3317.86068	441.2375
3320.09766	452.5375
3322.3333	440.9375
3324.5676	449.3375
3326.80056	448.9375
3329.03219	460.1375
3331.26248	-0.0625
3333.49143	-0.1625
3335.71905	0.1375
