Data from AgNPs_UA_10uM_CRN_500uM_SU_RamanShift__62__13-15-40-266.txt Node

Date: Thu Aug 04 13:15:40 BST 2022
User: TCL
Spectrometer: QEP01345
Trigger mode: 4
Integration Time (sec): 1.000000E0
Scans to average: 10
Electric dark correction enabled: true
Nonlinearity correction enabled: false
Boxcar width: 0
XAxis mode: Raman Shifts
Number of Pixels in Spectrum: 1044
>>>>>Begin Spectral Data<<<<<
46.04893	0.6375
50.45542	0.4375
54.85868	0.7375
59.25871	0.8375
63.6555	23.5375
68.04907	23.5375
72.43941	22.6375
76.82654	25.1375
81.21044	24.1375
85.59113	26.8375
89.96862	27.3375
94.34289	28.3375
98.71396	27.7375
103.08183	31.6375
107.4465	30.2375
111.80798	31.3375
116.16626	34.1375
120.52136	36.2375
124.87327	38.1375
129.222	38.2375
133.56755	41.0375
137.90993	43.8375
142.24913	49.9375
146.58517	56.0375
150.91804	65.8375
155.24774	82.0375
159.57429	101.1375
163.89768	135.4375
168.21792	179.1375
172.53501	246.6375
176.84895	349.7375
181.15975	489.5375
185.46741	696.0375
189.77193	966.2375
194.07331	1298.3375
198.37157	1682.0375
202.6667	2083.7375
206.9587	2485.8375
211.24758	2889.0375
215.53334	3288.7375
219.81599	3725.0375
224.09553	4204.3375
228.37195	4723.8375
232.64527	5293.9375
236.91549	5866.5375
241.18261	6397.9375
245.44663	6837.9375
249.70755	7201.4375
253.96539	7534.6375
258.22014	7837.3375
262.4718	8061.5375
266.72039	8185.9375
270.96589	8228.5375
275.20832	8181.7375
279.44768	8115.4375
283.68397	7975.0375
287.91719	7893.2375
292.14735	7894.7375
296.37445	7954.0375
300.59849	8115.4375
304.81948	8334.3375
309.03742	8539.9375
313.25231	8658.9375
317.46415	8579.6375
321.67296	8351.5375
325.87872	8113.9375
330.08145	8018.1375
334.28114	7996.3375
338.47781	8065.2375
342.67145	8188.4375
346.86207	8388.6375
351.04966	8673.3375
355.23424	8952.3375
359.4158	9177.5375
363.59435	9311.3375
367.76989	9361.7375
371.94243	9365.9375
376.11196	9359.2375
380.27849	9402.4375
384.44203	9483.8375
388.60257	9536.8375
392.76012	9643.0375
396.91468	9769.4375
401.06626	9898.1375
405.21485	9980.1375
409.36047	9904.5375
413.50311	9672.8375
417.64277	9479.5375
421.77947	9315.6375
425.9132	9236.2375
430.04396	9204.0375
434.17176	9212.2375
438.2966	9309.2375
442.41849	9441.6375
446.53742	9615.2375
450.6534	9801.4375
454.76644	9937.0375
458.87653	10044.5375
462.98368	10095.9375
467.08789	10045.0375
471.18916	9928.9375
475.2875	9759.1375
479.38291	9623.1375
483.4754	9501.5375
487.56496	9426.9375
491.6516	9408.0375
495.73531	9414.5375
499.81612	9441.1375
503.89401	9522.9375
507.96899	9586.4375
512.04106	9635.0375
516.11023	9648.6375
520.1765	9669.6375
524.23987	9658.6375
528.30034	9680.8375
532.35792	9673.5375
536.41261	9611.2375
540.46441	9517.1375
544.51333	9510.6375
548.55936	9578.4375
552.60252	9694.0375
556.64279	9822.7375
560.6802	9933.5375
564.71473	10034.4375
568.7464	10066.2375
572.7752	9972.8375
576.80114	9770.7375
580.82422	9627.6375
584.84444	9565.2375
588.86181	9529.1375
592.87633	9600.0375
596.888	9732.5375
600.89682	10158.5375
604.9028	11162.6375
608.90594	13115.5375
612.90624	14908.6375
616.90371	13868.3375
620.89834	11283.1375
624.89015	10239.4375
628.87913	10185.5375
632.86528	10393.0375
636.84862	10486.0375
640.82913	10295.1375
644.80683	9983.1375
648.78172	9793.9375
652.75379	9824.0375
656.72306	10069.9375
660.68952	10321.6375
664.65319	10294.7375
668.61405	10277.7375
672.57211	10408.0375
676.52738	10433.5375
680.47986	10159.7375
684.42955	9917.1375
688.37646	9842.2375
692.32058	9936.7375
696.26192	10130.7375
700.20048	10334.8375
704.13626	10369.2375
708.06928	10249.7375
711.99952	10117.1375
715.927	10092.9375
719.85171	10130.5375
723.77365	10131.4375
727.69284	10087.4375
731.60928	10038.6375
735.52295	10012.4375
739.43388	10049.8375
743.34206	10092.2375
747.24749	10099.7375
751.15017	10078.3375
755.05012	10136.3375
758.94733	10402.6375
762.8418	11063.7375
766.73354	12064.9375
770.62254	12872.7375
774.50882	13092.5375
778.39237	12926.4375
782.27321	12352.4375
786.15132	11526.6375
790.02671	10854.6375
793.89938	10476.1375
797.76935	10269.9375
801.6366	10142.4375
805.50115	10078.5375
809.36299	10057.6375
813.22213	10083.4375
817.07857	10065.4375
820.93231	10072.6375
824.78336	10062.1375
828.63172	10098.9375
832.47738	10104.7375
836.32036	10090.1375
840.16066	10084.6375
843.99827	10056.4375
847.8332	10045.0375
851.66546	10098.5375
855.49504	10099.9375
859.32195	10108.7375
863.1462	10123.9375
866.96777	10117.5375
870.78668	10116.9375
874.60293	10182.8375
878.41652	10209.6375
882.22745	10288.5375
886.03573	10317.0375
889.84136	10329.3375
893.64433	10281.8375
897.44466	10256.4375
901.24235	10222.6375
905.0374	10230.2375
908.8298	10203.4375
912.61957	10194.0375
916.40671	10191.9375
920.19121	10172.1375
923.97308	10220.3375
927.75233	10309.3375
931.52895	10353.6375
935.30295	10296.4375
939.07433	10183.1375
942.84309	10127.1375
946.60924	10083.0375
950.37278	10061.2375
954.13371	10076.4375
957.89203	10083.4375
961.64774	10050.0375
965.40086	10056.8375
969.15137	10067.8375
972.89929	10046.2375
976.64461	10047.1375
980.38733	10044.8375
984.12747	10092.4375
987.86502	10111.1375
991.59999	10148.0375
995.33237	10180.5375
999.06217	10238.9375
1002.78939	10329.8375
1006.51404	10504.6375
1010.23611	10662.9375
1013.95561	10755.5375
1017.67255	10819.6375
1021.38692	10804.7375
1025.09872	10706.4375
1028.80796	10643.5375
1032.51465	10556.3375
1036.21877	10579.5375
1039.92035	10619.9375
1043.61937	10654.6375
1047.31584	10703.0375
1051.00976	10739.6375
1054.70114	10799.0375
1058.38998	10820.3375
1062.07627	10893.4375
1065.76003	10972.9375
1069.44126	11074.0375
1073.11995	11281.4375
1076.79611	11535.4375
1080.46974	11653.4375
1084.14085	11734.0375
1087.80943	11768.2375
1091.47549	11857.2375
1095.13903	11942.6375
1098.80005	12111.0375
1102.45857	12306.0375
1106.11456	12273.6375
1109.76805	12034.2375
1113.41903	11901.8375
1117.06751	11929.1375
1120.71348	12043.9375
1124.35696	12124.5375
1127.99793	12198.0375
1131.63641	12028.3375
1135.2724	11733.0375
1138.90589	11526.8375
1142.5369	11401.3375
1146.16542	11360.0375
1149.79145	11247.1375
1153.415	11119.9375
1157.03607	11077.8375
1160.65467	11129.7375
1164.27079	11292.5375
1167.88443	11557.1375
1171.49561	12003.5375
1175.10432	12574.5375
1178.71056	13368.4375
1182.31434	14038.0375
1185.91565	14370.1375
1189.51451	14414.9375
1193.11091	14396.0375
1196.70485	14244.9375
1200.29634	13978.1375
1203.88538	13655.1375
1207.47197	13283.4375
1211.05612	12848.8375
1214.63782	12428.5375
1218.21708	12097.1375
1221.79391	11853.6375
1225.36829	11747.6375
1228.94024	11752.8375
1232.50976	11740.2375
1236.07685	11778.4375
1239.6415	11835.3375
1243.20374	11942.7375
1246.76355	11974.9375
1250.32093	12063.5375
1253.8759	12195.9375
1257.42845	12427.9375
1260.97859	12765.8375
1264.52631	13031.1375
1268.07163	13256.1375
1271.61453	13369.2375
1275.15503	13343.9375
1278.69312	13296.0375
1282.22882	13245.9375
1285.76211	13304.1375
1289.29301	13414.2375
1292.82151	13595.4375
1296.34761	13750.3375
1299.87133	14066.5375
1303.39266	14633.2375
1306.9116	15478.8375
1310.42815	16385.9375
1313.94233	16703.7375
1317.45412	16325.2375
1320.96354	15687.9375
1324.47058	15074.3375
1327.97525	14503.5375
1331.47754	14084.6375
1334.97747	13936.2375
1338.47502	14086.2375
1341.97022	14563.6375
1345.46305	15386.5375
1348.95352	16544.1375
1352.44163	17761.7375
1355.92738	18791.4375
1359.41078	19703.8375
1362.89183	20248.0375
1366.37053	19316.1375
1369.84688	17083.4375
1373.32088	15079.0375
1376.79254	13942.4375
1380.26186	13380.6375
1383.72883	13009.8375
1387.19347	12609.8375
1390.65578	12259.8375
1394.11575	11969.9375
1397.57339	11695.8375
1401.0287	11604.2375
1404.48168	11597.5375
1407.93234	11698.6375
1411.38068	11908.4375
1414.82669	12062.9375
1418.27039	12142.2375
1421.71177	12128.4375
1425.15083	12032.1375
1428.58758	11906.6375
1432.02203	11829.0375
1435.45416	11768.8375
1438.88399	11739.3375
1442.31151	11730.4375
1445.73673	11752.4375
1449.15965	11768.6375
1452.58027	11785.3375
1455.9986	11724.1375
1459.41463	11728.8375
1462.82837	11820.9375
1466.23982	11987.5375
1469.64898	12211.6375
1473.05586	12396.1375
1476.46045	12536.2375
1479.86276	12702.2375
1483.26279	12842.9375
1486.66054	13065.3375
1490.05602	13383.3375
1493.44922	13926.4375
1496.84016	14744.2375
1500.22882	15826.0375
1503.61521	17065.3375
1506.99934	18130.7375
1510.38121	18590.4375
1513.76081	18214.0375
1517.13816	17062.9375
1520.51324	15623.1375
1523.88607	14470.0375
1527.25665	13755.5375
1530.62498	13360.1375
1533.99105	13198.8375
1537.35488	13096.1375
1540.71647	12985.0375
1544.07581	12922.7375
1547.4329	12796.6375
1550.78776	12627.1375
1554.14038	12521.6375
1557.49077	12493.2375
1560.83892	12628.8375
1564.18484	12842.9375
1567.52853	13118.5375
1570.86999	13302.8375
1574.20922	13391.3375
1577.54624	13278.3375
1580.88103	12849.7375
1584.2136	12371.9375
1587.54395	12051.7375
1590.87208	12035.0375
1594.19801	12267.9375
1597.52172	12597.0375
1600.84321	12751.7375
1604.16251	12699.7375
1607.47959	12563.8375
1610.79447	12282.1375
1614.10715	11890.9375
1617.41763	11468.4375
1620.7259	11121.1375
1624.03199	10912.5375
1627.33587	10838.4375
1630.63757	10894.0375
1633.93707	11119.6375
1637.23439	11615.4375
1640.52951	12368.1375
1643.82246	13420.3375
1647.11321	14494.7375
1650.40179	14921.6375
1653.68819	14386.7375
1656.97241	13070.3375
1660.25446	11822.9375
1663.53433	10947.7375
1666.81203	10416.3375
1670.08756	10122.1375
1673.36092	9929.7375
1676.63211	9821.7375
1679.90115	9693.9375
1683.16801	9626.3375
1686.43272	9541.9375
1689.69527	9488.1375
1692.95567	9430.6375
1696.2139	9423.7375
1699.46999	9376.7375
1702.72392	9360.5375
1705.97571	9365.8375
1709.22535	9369.5375
1712.47284	9358.8375
1715.71819	9353.9375
1718.96139	9343.6375
1722.20246	9347.7375
1725.44139	9308.5375
1728.67818	9253.2375
1731.91284	9215.1375
1735.14537	9171.3375
1738.37576	9146.6375
1741.60403	9109.4375
1744.83017	9096.9375
1748.05418	9088.0375
1751.27607	9050.9375
1754.49584	9047.7375
1757.71349	9025.4375
1760.92903	9023.7375
1764.14244	8995.9375
1767.35375	8962.3375
1770.56294	8964.6375
1773.77002	8942.5375
1776.97499	8911.1375
1780.17785	8872.9375
1783.37861	8863.5375
1786.57727	8851.4375
1789.77382	8837.2375
1792.96828	8819.2375
1796.16064	8788.8375
1799.3509	8788.5375
1802.53907	8768.0375
1805.72514	8773.3375
1808.90913	8734.6375
1812.09102	8703.9375
1815.27083	8669.7375
1818.44856	8663.6375
1821.6242	8643.7375
1824.79776	8631.8375
1827.96924	8607.5375
1831.13864	8595.7375
1834.30597	8590.9375
1837.47122	8551.4375
1840.6344	8550.1375
1843.7955	8535.3375
1846.95454	8531.2375
1850.11151	8516.8375
1853.26642	8527.1375
1856.41926	8503.6375
1859.57004	8525.9375
1862.71876	8512.9375
1865.86542	8491.0375
1869.01003	8488.0375
1872.15258	8471.4375
1875.29308	8452.0375
1878.43152	8421.2375
1881.56792	8432.7375
1884.70227	8403.4375
1887.83457	8387.1375
1890.96482	8360.3375
1894.09304	8338.8375
1897.21921	8330.2375
1900.34335	8308.7375
1903.46544	8317.5375
1906.58551	8310.4375
1909.70353	8285.4375
1912.81953	8274.3375
1915.93349	8243.7375
1919.04543	8228.4375
1922.15534	8223.0375
1925.26322	8218.9375
1928.36908	8185.6375
1931.47292	8150.2375
1934.57473	8156.4375
1937.67453	8132.7375
1940.77232	8115.1375
1943.86808	8071.8375
1946.96184	8045.5375
1950.05358	8021.1375
1953.14331	8027.5375
1956.23103	8005.1375
1959.31675	7957.2375
1962.40046	7946.5375
1965.48217	7900.2375
1968.56188	7890.8375
1971.63959	7847.2375
1974.7153	7825.8375
1977.78901	7825.1375
1980.86073	7797.5375
1983.93046	7757.0375
1986.99819	7726.7375
1990.06394	7723.5375
1993.1277	7680.7375
1996.18947	7650.5375
1999.24925	7616.1375
2002.30706	7590.1375
2005.36288	7562.4375
2008.41672	7537.5375
2011.46859	7531.0375
2014.51848	7508.4375
2017.56639	7472.0375
2020.61233	7455.2375
2023.6563	7423.1375
2026.6983	7411.8375
2029.73833	7366.9375
2032.7764	7344.9375
2035.8125	7324.4375
2038.84664	7304.4375
2041.87881	7285.1375
2044.90903	7270.5375
2047.93729	7266.6375
2050.96359	7265.1375
2053.98794	7240.2375
2057.01034	7236.4375
2060.03078	7221.5375
2063.04927	7211.3375
2066.06582	7191.4375
2069.08042	7170.6375
2072.09307	7176.1375
2075.10378	7194.4375
2078.11255	7160.0375
2081.11938	7141.7375
2084.12426	7130.4375
2087.12722	7129.7375
2090.12824	7146.8375
2093.12732	7135.5375
2096.12447	7139.3375
2099.11969	7144.3375
2102.11299	7128.1375
2105.10435	7138.8375
2108.09379	7127.3375
2111.08131	7125.1375
2114.0669	7137.8375
2117.05057	7140.7375
2120.03233	7136.9375
2123.01216	7141.9375
2125.99008	7138.2375
2128.96609	7144.5375
2131.94018	7143.3375
2134.91236	7142.9375
2137.88263	7127.6375
2140.851	7137.0375
2143.81746	7153.3375
2146.78201	7125.2375
2149.74466	7119.2375
2152.7054	7111.0375
2155.66425	7116.4375
2158.6212	7120.5375
2161.57625	7097.1375
2164.52941	7102.1375
2167.48067	7102.4375
2170.43004	7063.6375
2173.37752	7073.3375
2176.32311	7077.8375
2179.26681	7075.2375
2182.20863	7081.5375
2185.14856	7075.9375
2188.08661	7056.9375
2191.02278	7064.5375
2193.95707	7075.5375
2196.88948	7062.2375
2199.82001	7033.9375
2202.74867	7012.6375
2205.67545	7043.3375
2208.60037	7013.8375
2211.52341	6977.4375
2214.44458	6968.9375
2217.36388	6949.6375
2220.28132	6924.5375
2223.1969	6906.5375
2226.11061	6905.4375
2229.02246	6855.2375
2231.93245	6856.4375
2234.84058	6849.7375
2237.74686	6828.9375
2240.65128	6823.8375
2243.55385	6803.3375
2246.45456	6798.2375
2249.35343	6763.9375
2252.25044	6768.7375
2255.14561	6791.5375
2258.03893	6764.7375
2260.93041	6747.1375
2263.82004	6736.4375
2266.70783	6726.8375
2269.59378	6702.9375
2272.4779	6674.6375
2275.36017	6676.6375
2278.24061	6639.0375
2281.11922	6619.7375
2283.996	6604.0375
2286.87094	6592.9375
2289.74405	6597.2375
2292.61534	6586.9375
2295.4848	6543.3375
2298.35243	6536.5375
2301.21824	6531.3375
2304.08223	6519.9375
2306.94439	6529.8375
2309.80474	6529.7375
2312.66327	6504.6375
2315.51999	6495.3375
2318.37489	6497.4375
2321.22797	6465.6375
2324.07925	6463.6375
2326.92871	6455.3375
2329.77637	6428.1375
2332.62222	6401.9375
2335.46626	6392.6375
2338.3085	6378.3375
2341.14893	6371.8375
2343.98756	6373.6375
2346.8244	6365.7375
2349.65943	6362.2375
2352.49267	6344.1375
2355.32411	6324.1375
2358.15376	6339.0375
2360.98161	6323.8375
2363.80768	6337.3375
2366.63195	6314.5375
2369.45444	6312.4375
2372.27514	6287.2375
2375.09405	6315.3375
2377.91118	6277.8375
2380.72652	6274.0375
2383.54009	6256.5375
2386.35187	6237.4375
2389.16188	6223.8375
2391.97011	6202.9375
2394.77657	6186.4375
2397.58125	6157.7375
2400.38416	6161.0375
2403.18529	6149.6375
2405.98466	6149.0375
2408.78226	6109.2375
2411.57809	6116.4375
2414.37216	6114.6375
2417.16446	6083.0375
2419.955	6100.5375
2422.74378	6080.9375
2425.5308	6073.2375
2428.31606	6084.9375
2431.09956	6057.8375
2433.88131	6063.3375
2436.6613	6052.8375
2439.43954	6032.6375
2442.21603	6039.3375
2444.99077	6026.8375
2447.76377	6016.2375
2450.53501	6024.3375
2453.30451	6011.7375
2456.07226	6008.0375
2458.83827	5982.6375
2461.60254	5970.8375
2464.36507	5956.4375
2467.12586	5953.2375
2469.88492	5945.4375
2472.64224	5966.2375
2475.39782	5934.9375
2478.15167	5924.5375
2480.90379	5915.9375
2483.65417	5911.0375
2486.40283	5907.0375
2489.14976	5907.0375
2491.89497	5896.9375
2494.63845	5895.0375
2497.3802	5882.1375
2500.12024	5862.0375
2502.85855	5851.1375
2505.59514	5852.4375
2508.33002	5837.0375
2511.06318	5829.9375
2513.79462	5819.0375
2516.52435	5793.6375
2519.25237	5794.0375
2521.97867	5774.5375
2524.70327	5776.0375
2527.42616	5764.3375
2530.14734	5743.8375
2532.86681	5732.9375
2535.58458	5742.5375
2538.30065	5739.5375
2541.01501	5750.1375
2543.72768	5709.0375
2546.43864	5720.9375
2549.14791	5680.3375
2551.85548	5683.7375
2554.56136	5663.1375
2557.26554	5666.2375
2559.96803	5643.7375
2562.66883	5636.1375
2565.36794	5607.3375
2568.06536	5622.7375
2570.7611	5577.4375
2573.45514	5576.8375
2576.14751	5571.6375
2578.83819	5533.4375
2581.52719	5538.4375
2584.21451	5527.1375
2586.90015	5519.9375
2589.58411	5505.6375
2592.2664	5483.1375
2594.94701	5468.4375
2597.62594	5470.2375
2600.30321	5454.4375
2602.9788	5444.0375
2605.65273	5440.3375
2608.32498	5438.2375
2610.99557	5412.8375
2613.66449	5416.4375
2616.33175	5387.6375
2618.99734	5400.5375
2621.66128	5369.1375
2624.32355	5347.4375
2626.98416	5334.2375
2629.64311	5323.4375
2632.30041	5322.0375
2634.95605	5303.2375
2637.61004	5297.2375
2640.26238	5290.3375
2642.91306	5288.8375
2645.56209	5279.8375
2648.20948	5257.2375
2650.85521	5272.5375
2653.4993	5252.5375
2656.14175	5253.1375
2658.78255	5248.3375
2661.42171	5233.8375
2664.05923	5234.7375
2666.6951	5256.7375
2669.32934	5261.4375
2671.96194	5242.2375
2674.59291	5259.7375
2677.22224	5248.8375
2679.84993	5247.2375
2682.476	5246.3375
2685.10043	5229.3375
2687.72324	5243.0375
2690.34441	5230.6375
2692.96396	5241.1375
2695.58188	5225.2375
2698.19818	5216.0375
2700.81285	5201.9375
2703.4259	5228.0375
2706.03733	5199.0375
2708.64714	5195.4375
2711.25533	5186.9375
2713.86191	5185.7375
2716.46687	5186.6375
2719.07021	5174.5375
2721.67194	5185.4375
2724.27206	5171.7375
2726.87057	5178.9375
2729.46747	5177.6375
2732.06276	5167.0375
2734.65644	5177.3375
2737.24852	5150.8375
2739.83899	5128.7375
2742.42786	5137.8375
2745.01513	5104.7375
2747.60079	5108.2375
2750.18486	5104.9375
2752.76733	5089.9375
2755.3482	5081.8375
2757.92747	5055.5375
2760.50515	5059.7375
2763.08123	5060.1375
2765.65573	5011.3375
2768.22863	5021.0375
2770.79994	5017.7375
2773.36967	5020.9375
2775.9378	4996.6375
2778.50435	4986.7375
2781.06932	4981.9375
2783.6327	4980.0375
2786.1945	4987.1375
2788.75471	4963.0375
2791.31335	4939.1375
2793.87041	4930.6375
2796.42589	4923.2375
2798.97979	4908.0375
2801.53212	4897.7375
2804.08288	4890.1375
2806.63206	4871.7375
2809.17967	4848.0375
2811.72571	4844.9375
2814.27018	4851.2375
2816.81308	4834.1375
2819.35442	4809.1375
2821.89419	4807.3375
2824.43239	4789.9375
2826.96904	4795.8375
2829.50412	4778.5375
2832.03763	4753.6375
2834.56959	4759.3375
2837.1	4736.3375
2839.62884	4730.6375
2842.15613	4711.0375
2844.68186	4707.0375
2847.20604	4715.4375
2849.72867	4715.6375
2852.24974	4692.7375
2854.76927	4674.4375
2857.28724	4653.2375
2859.80367	4660.3375
2862.31855	4657.5375
2864.83189	4644.3375
2867.34368	4653.1375
2869.85393	4640.5375
2872.36264	4642.9375
2874.8698	4632.4375
2877.37543	4617.2375
2879.87952	4606.3375
2882.38207	4607.5375
2884.88308	4585.0375
2887.38256	4581.8375
2889.88051	4599.6375
2892.37692	4573.9375
2894.8718	4573.8375
2897.36515	4575.5375
2899.85698	4569.0375
2902.34727	4560.9375
2904.83604	4578.5375
2907.32328	4573.4375
2909.809	4576.1375
2912.29319	4575.5375
2914.77587	4583.2375
2917.25702	4587.6375
2919.73665	4586.7375
2922.21476	4573.1375
2924.69136	4557.5375
2927.16644	4560.5375
2929.64	4531.9375
2932.11205	4532.7375
2934.58258	4514.2375
2937.05161	4517.0375
2939.51912	4517.8375
2941.98513	4519.1375
2944.44962	4500.2375
2946.91261	4487.3375
2949.37409	4495.0375
2951.83407	4496.3375
2954.29254	4470.8375
2956.74951	4461.0375
2959.20498	4472.9375
2961.65895	4472.8375
2964.11142	4475.4375
2966.56239	4463.0375
2969.01186	4451.1375
2971.45984	4461.1375
2973.90632	4444.1375
2976.35131	4439.9375
2978.7948	4415.7375
2981.23681	4416.6375
2983.67732	4405.3375
2986.11635	4397.8375
2988.55388	4388.3375
2990.98993	4380.7375
2993.4245	4362.9375
2995.85758	4347.2375
2998.28917	4337.2375
3000.71928	4326.4375
3003.14791	4315.1375
3005.57506	4308.5375
3008.00073	4308.6375
3010.42493	4276.0375
3012.84764	4274.2375
3015.26888	4273.2375
3017.68865	4249.0375
3020.10694	4246.3375
3022.52376	4226.9375
3024.9391	4214.3375
3027.35298	4203.9375
3029.76539	4190.8375
3032.17632	4191.5375
3034.5858	4188.5375
3036.9938	4190.3375
3039.40034	4152.7375
3041.80542	4146.6375
3044.20903	4132.3375
3046.61118	4135.3375
3049.01187	4116.5375
3051.4111	4118.2375
3053.80888	4087.8375
3056.20519	4090.5375
3058.60005	4064.3375
3060.99345	4063.9375
3063.3854	4076.8375
3065.7759	4038.6375
3068.16494	4037.8375
3070.55254	4015.3375
3072.93868	4007.1375
3075.32338	3986.9375
3077.70662	3990.6375
3080.08842	3966.6375
3082.46878	3970.9375
3084.84769	3965.9375
3087.22515	3942.8375
3089.60118	3960.3375
3091.97576	3946.4375
3094.3489	3936.2375
3096.72061	3926.6375
3099.09087	3925.7375
3101.4597	3915.5375
3103.82709	3924.2375
3106.19305	3914.6375
3108.55757	3912.3375
3110.92066	3896.9375
3113.28232	3895.6375
3115.64255	3898.1375
3118.00134	3877.3375
3120.35871	3868.9375
3122.71466	3863.7375
3125.06917	3842.9375
3127.42226	3833.7375
3129.77393	3835.8375
3132.12417	3824.3375
3134.47299	3813.0375
3136.82039	3805.0375
3139.16636	3809.8375
3141.51092	3817.0375
3143.85406	3800.7375
3146.19579	3787.1375
3148.53609	3797.9375
3150.87499	3791.3375
3153.21246	3788.5375
3155.54853	3772.7375
3157.88318	3783.3375
3160.21642	3775.9375
3162.54826	3769.9375
3164.87868	3769.5375
3167.2077	3773.2375
3169.5353	3752.1375
3171.86151	3738.5375
3174.18631	3748.4375
3176.5097	3731.6375
3178.83169	3713.2375
3181.15228	3718.6375
3183.47147	3707.1375
3185.78926	3711.3375
3188.10565	3669.9375
3190.42065	3665.2375
3192.73424	3688.5375
3195.04645	3665.1375
3197.35725	3666.4375
3199.66667	3648.9375
3201.97469	3646.9375
3204.28132	3642.7375
3206.58656	3643.9375
3208.8904	3644.1375
3211.19287	3643.3375
3213.49394	3648.4375
3215.79363	3635.8375
3218.09193	3636.1375
3220.38884	3634.4375
3222.68438	3639.7375
3224.97853	3631.4375
3227.2713	3632.7375
3229.56269	3617.3375
3231.8527	3607.1375
3234.14133	3594.9375
3236.42858	3594.0375
3238.71446	3576.7375
3240.99896	3558.9375
3243.28209	3562.1375
3245.56384	3541.5375
3247.84423	3538.9375
3250.12324	3536.4375
3252.40088	3521.6375
3254.67715	3528.2375
3256.95205	3531.0375
3259.22558	3524.6375
3261.49775	3516.4375
3263.76855	3527.3375
3266.03799	3507.5375
3268.30606	3513.9375
3270.57277	3519.9375
3272.83812	3498.4375
3275.10211	3497.6375
3277.36474	3474.0375
3279.62601	3467.0375
3281.88593	3452.2375
3284.14448	3450.7375
3286.40168	3454.3375
3288.65753	3439.1375
3290.91202	3439.4375
3293.16516	3419.2375
3295.41695	3421.2375
3297.66738	3388.6375
3299.91647	3394.2375
3302.16421	3363.5375
3304.4106	3336.8375
3306.65564	3323.0375
3308.89933	3300.1375
3311.14169	3260.4375
3313.38269	3227.2375
3315.62236	3212.1375
3317.86068	3190.4375
3320.09766	3168.0375
3322.3333	3142.5375
3324.5676	3131.1375
3326.80056	3079.9375
3329.03219	3049.0375
3331.26248	0.4375
3333.49143	-1.1625
3335.71905	-1.3625
