Data from AgNPs_UA_50uM_CRN_500uM_SU_RamanShift__6__13-56-50-315.txt Node

Date: Thu Aug 04 13:56:50 BST 2022
User: TCL
Spectrometer: QEP01345
Trigger mode: 4
Integration Time (sec): 1.000000E0
Scans to average: 10
Electric dark correction enabled: true
Nonlinearity correction enabled: false
Boxcar width: 0
XAxis mode: Raman Shifts
Number of Pixels in Spectrum: 1044
>>>>>Begin Spectral Data<<<<<
46.04893	1.475
50.45542	-0.625
54.85868	-0.725
59.25871	-0.025
63.6555	14.875
68.04907	14.875
72.43941	15.175
76.82654	15.575
81.21044	16.975
85.59113	16.875
89.96862	19.175
94.34289	18.975
98.71396	19.275
103.08183	19.775
107.4465	18.675
111.80798	20.075
116.16626	20.375
120.52136	22.275
124.87327	24.775
129.222	25.875
133.56755	30.175
137.90993	31.075
142.24913	32.075
146.58517	35.475
150.91804	43.475
155.24774	54.175
159.57429	69.575
163.89768	88.475
168.21792	120.375
172.53501	162.375
176.84895	231.775
181.15975	327.575
185.46741	463.175
189.77193	646.275
194.07331	869.775
198.37157	1131.475
202.6667	1390.575
206.9587	1672.775
211.24758	1948.275
215.53334	2232.475
219.81599	2541.475
224.09553	2885.275
228.37195	3281.475
232.64527	3692.775
236.91549	4082.475
241.18261	4412.075
245.44663	4658.875
249.70755	4839.475
253.96539	4962.575
258.22014	5108.075
262.4718	5229.075
266.72039	5321.075
270.96589	5321.475
275.20832	5273.075
279.44768	5163.775
283.68397	5077.175
287.91719	5048.775
292.14735	5066.675
296.37445	5187.775
300.59849	5420.675
304.81948	5719.575
309.03742	6036.475
313.25231	6212.175
317.46415	6148.875
321.67296	5831.875
325.87872	5477.575
330.08145	5291.075
334.28114	5261.175
338.47781	5318.175
342.67145	5448.775
346.86207	5654.275
351.04966	5927.875
355.23424	6221.675
359.4158	6401.875
363.59435	6472.175
367.76989	6418.675
371.94243	6368.975
376.11196	6288.175
380.27849	6213.175
384.44203	6174.275
388.60257	6153.375
392.76012	6190.175
396.91468	6293.675
401.06626	6397.575
405.21485	6436.075
409.36047	6271.975
413.50311	6000.375
417.64277	5727.275
421.77947	5566.575
425.9132	5516.075
430.04396	5507.575
434.17176	5565.275
438.2966	5631.975
442.41849	5743.275
446.53742	5866.575
450.6534	5979.975
454.76644	6026.975
458.87653	6009.975
462.98368	5980.675
467.08789	5932.175
471.18916	5838.275
475.2875	5710.875
479.38291	5573.775
483.4754	5497.775
487.56496	5454.875
491.6516	5438.575
495.73531	5417.675
499.81612	5429.275
503.89401	5498.375
507.96899	5517.975
512.04106	5597.475
516.11023	5678.575
520.1765	5749.375
524.23987	5760.075
528.30034	5767.675
532.35792	5727.675
536.41261	5685.975
540.46441	5553.875
544.51333	5528.575
548.55936	5557.575
552.60252	5659.875
556.64279	5794.375
560.6802	5864.075
564.71473	5956.475
568.7464	6115.175
572.7752	6100.875
576.80114	5862.575
580.82422	5671.375
584.84444	5610.375
588.86181	5584.775
592.87633	5609.675
596.888	5731.775
600.89682	6043.375
604.9028	6920.275
608.90594	8812.875
612.90624	10830.775
616.90371	9915.475
620.89834	7187.075
624.89015	6006.975
628.87913	5845.575
632.86528	6005.275
636.84862	6103.275
640.82913	5973.375
644.80683	5687.275
648.78172	5539.675
652.75379	5570.575
656.72306	5782.375
660.68952	5981.075
664.65319	5900.375
668.61405	5652.675
672.57211	5620.275
676.52738	5616.475
680.47986	5543.375
684.42955	5459.275
688.37646	5427.075
692.32058	5444.775
696.26192	5527.575
700.20048	5621.675
704.13626	5649.875
708.06928	5595.075
711.99952	5552.675
715.927	5571.975
719.85171	5592.975
723.77365	5602.775
727.69284	5571.775
731.60928	5513.975
735.52295	5493.775
739.43388	5522.575
743.34206	5537.975
747.24749	5556.475
751.15017	5556.575
755.05012	5637.575
758.94733	5944.075
762.8418	6688.075
766.73354	7809.175
770.62254	8652.575
774.50882	8775.975
778.39237	8214.875
782.27321	7338.875
786.15132	6485.775
790.02671	5929.775
793.89938	5647.475
797.76935	5547.975
801.6366	5491.775
805.50115	5442.075
809.36299	5425.775
813.22213	5416.975
817.07857	5397.775
820.93231	5413.575
824.78336	5425.175
828.63172	5454.375
832.47738	5473.875
836.32036	5434.875
840.16066	5415.775
843.99827	5387.975
847.8332	5379.975
851.66546	5399.375
855.49504	5422.875
859.32195	5412.375
863.1462	5411.175
866.96777	5399.675
870.78668	5408.175
874.60293	5414.875
878.41652	5435.875
882.22745	5488.275
886.03573	5520.075
889.84136	5518.375
893.64433	5474.275
897.44466	5461.375
901.24235	5482.575
905.0374	5451.475
908.8298	5429.375
912.61957	5395.175
916.40671	5399.875
920.19121	5431.375
923.97308	5504.175
927.75233	5568.175
931.52895	5600.075
935.30295	5547.375
939.07433	5402.575
942.84309	5314.175
946.60924	5272.875
950.37278	5259.975
954.13371	5260.975
957.89203	5249.775
961.64774	5239.375
965.40086	5219.775
969.15137	5213.875
972.89929	5210.675
976.64461	5203.875
980.38733	5212.975
984.12747	5227.875
987.86502	5266.475
991.59999	5299.375
995.33237	5344.975
999.06217	5422.875
1002.78939	5536.575
1006.51404	5688.275
1010.23611	5819.375
1013.95561	5852.075
1017.67255	5838.075
1021.38692	5790.975
1025.09872	5675.375
1028.80796	5592.675
1032.51465	5583.175
1036.21877	5627.675
1039.92035	5666.875
1043.61937	5682.275
1047.31584	5698.375
1051.00976	5700.075
1054.70114	5674.475
1058.38998	5665.175
1062.07627	5681.975
1065.76003	5734.175
1069.44126	5825.375
1073.11995	5943.675
1076.79611	6089.575
1080.46974	6230.475
1084.14085	6337.875
1087.80943	6434.475
1091.47549	6490.375
1095.13903	6430.875
1098.80005	6331.575
1102.45857	6183.275
1106.11456	6071.475
1109.76805	6037.675
1113.41903	6092.775
1117.06751	6229.475
1120.71348	6432.175
1124.35696	6742.475
1127.99793	6943.375
1131.63641	6814.475
1135.2724	6501.475
1138.90589	6266.575
1142.5369	6141.175
1146.16542	6115.675
1149.79145	6086.875
1153.415	5997.675
1157.03607	5925.375
1160.65467	5965.075
1164.27079	6108.375
1167.88443	6321.075
1171.49561	6666.975
1175.10432	7230.275
1178.71056	8020.375
1182.31434	8666.275
1185.91565	8825.975
1189.51451	8662.775
1193.11091	8399.175
1196.70485	8111.575
1200.29634	7906.175
1203.88538	7647.575
1207.47197	7334.775
1211.05612	7025.875
1214.63782	6827.475
1218.21708	6631.175
1221.79391	6478.675
1225.36829	6380.275
1228.94024	6350.075
1232.50976	6328.375
1236.07685	6335.275
1239.6415	6340.075
1243.20374	6384.775
1246.76355	6416.575
1250.32093	6512.575
1253.8759	6677.375
1257.42845	6933.475
1260.97859	7146.675
1264.52631	7347.775
1268.07163	7487.575
1271.61453	7548.575
1275.15503	7572.775
1278.69312	7577.175
1282.22882	7607.575
1285.76211	7752.075
1289.29301	7951.875
1292.82151	8141.075
1296.34761	8371.675
1299.87133	8723.175
1303.39266	9301.475
1306.9116	10216.275
1310.42815	11189.675
1313.94233	11424.275
1317.45412	10845.375
1320.96354	9982.175
1324.47058	9192.175
1327.97525	8528.475
1331.47754	8135.575
1334.97747	8061.775
1338.47502	8193.375
1341.97022	8532.275
1345.46305	9141.575
1348.95352	10021.175
1352.44163	10973.475
1355.92738	12040.075
1359.41078	13462.875
1362.89183	14638.875
1366.37053	13900.775
1369.84688	11615.475
1373.32088	9512.875
1376.79254	8335.275
1380.26186	7789.275
1383.72883	7486.075
1387.19347	7213.375
1390.65578	6937.275
1394.11575	6715.775
1397.57339	6574.875
1401.0287	6467.875
1404.48168	6399.975
1407.93234	6414.875
1411.38068	6499.675
1414.82669	6599.175
1418.27039	6633.775
1421.71177	6605.075
1425.15083	6524.675
1428.58758	6466.075
1432.02203	6538.275
1435.45416	6613.875
1438.88399	6653.475
1442.31151	6683.175
1445.73673	6757.675
1449.15965	6787.275
1452.58027	6743.075
1455.9986	6661.475
1459.41463	6655.175
1462.82837	6720.475
1466.23982	6854.875
1469.64898	7001.675
1473.05586	7128.375
1476.46045	7182.275
1479.86276	7224.375
1483.26279	7338.875
1486.66054	7519.075
1490.05602	7786.375
1493.44922	8247.875
1496.84016	8944.575
1500.22882	10040.775
1503.61521	11481.775
1506.99934	12873.175
1510.38121	13769.375
1513.76081	13568.475
1517.13816	12325.375
1520.51324	10667.875
1523.88607	9334.175
1527.25665	8515.175
1530.62498	8113.275
1533.99105	7908.975
1537.35488	7804.875
1540.71647	7698.275
1544.07581	7653.175
1547.4329	7582.175
1550.78776	7498.075
1554.14038	7385.475
1557.49077	7406.075
1560.83892	7486.775
1564.18484	7693.975
1567.52853	8019.175
1570.86999	8243.275
1574.20922	8325.775
1577.54624	8158.475
1580.88103	7712.475
1584.2136	7205.775
1587.54395	6880.575
1590.87208	6850.975
1594.19801	7103.975
1597.52172	7443.975
1600.84321	7585.175
1604.16251	7531.275
1607.47959	7360.375
1610.79447	7122.775
1614.10715	6721.475
1617.41763	6363.975
1620.7259	6126.175
1624.03199	5974.475
1627.33587	5939.175
1630.63757	6017.175
1633.93707	6229.575
1637.23439	6659.075
1640.52951	7288.375
1643.82246	8225.175
1647.11321	9282.575
1650.40179	9860.975
1653.68819	9487.575
1656.97241	8276.875
1660.25446	7063.775
1663.53433	6196.875
1666.81203	5702.075
1670.08756	5415.475
1673.36092	5211.475
1676.63211	5095.675
1679.90115	5023.375
1683.16801	4959.175
1686.43272	4917.275
1689.69527	4890.875
1692.95567	4845.775
1696.2139	4829.975
1699.46999	4823.575
1702.72392	4824.175
1705.97571	4815.875
1709.22535	4805.175
1712.47284	4794.875
1715.71819	4816.775
1718.96139	4810.775
1722.20246	4784.275
1725.44139	4774.475
1728.67818	4724.875
1731.91284	4714.375
1735.14537	4690.675
1738.37576	4682.475
1741.60403	4653.275
1744.83017	4652.975
1748.05418	4639.175
1751.27607	4611.375
1754.49584	4596.475
1757.71349	4583.875
1760.92903	4578.175
1764.14244	4572.075
1767.35375	4564.475
1770.56294	4561.175
1773.77002	4536.675
1776.97499	4532.075
1780.17785	4521.775
1783.37861	4503.475
1786.57727	4481.475
1789.77382	4478.475
1792.96828	4468.675
1796.16064	4459.375
1799.3509	4449.075
1802.53907	4435.975
1805.72514	4437.775
1808.90913	4428.075
1812.09102	4413.375
1815.27083	4405.675
1818.44856	4389.275
1821.6242	4390.575
1824.79776	4378.175
1827.96924	4367.475
1831.13864	4340.475
1834.30597	4336.875
1837.47122	4331.875
1840.6344	4322.375
1843.7955	4325.775
1846.95454	4328.975
1850.11151	4336.475
1853.26642	4327.875
1856.41926	4331.275
1859.57004	4321.775
1862.71876	4316.375
1865.86542	4307.875
1869.01003	4288.875
1872.15258	4302.275
1875.29308	4303.775
1878.43152	4286.275
1881.56792	4285.375
1884.70227	4283.975
1887.83457	4273.475
1890.96482	4274.175
1894.09304	4261.975
1897.21921	4251.175
1900.34335	4241.975
1903.46544	4232.375
1906.58551	4223.575
1909.70353	4213.175
1912.81953	4215.175
1915.93349	4198.075
1919.04543	4220.775
1922.15534	4196.875
1925.26322	4176.675
1928.36908	4168.075
1931.47292	4179.275
1934.57473	4166.775
1937.67453	4152.675
1940.77232	4122.875
1943.86808	4117.175
1946.96184	4101.975
1950.05358	4100.675
1953.14331	4095.875
1956.23103	4080.775
1959.31675	4061.475
1962.40046	4057.675
1965.48217	4052.475
1968.56188	4035.775
1971.63959	4038.275
1974.7153	4025.675
1977.78901	4005.375
1980.86073	4005.275
1983.93046	3989.375
1986.99819	3953.575
1990.06394	3954.675
1993.1277	3944.575
1996.18947	3931.575
1999.24925	3918.575
2002.30706	3896.575
2005.36288	3885.375
2008.41672	3874.075
2011.46859	3861.675
2014.51848	3834.575
2017.56639	3838.375
2020.61233	3824.175
2023.6563	3814.975
2026.6983	3797.775
2029.73833	3782.275
2032.7764	3763.975
2035.8125	3766.675
2038.84664	3759.375
2041.87881	3763.875
2044.90903	3755.875
2047.93729	3742.575
2050.96359	3735.475
2053.98794	3729.975
2057.01034	3726.575
2060.03078	3717.575
2063.04927	3740.575
2066.06582	3723.975
2069.08042	3708.975
2072.09307	3698.875
2075.10378	3695.475
2078.11255	3685.875
2081.11938	3694.775
2084.12426	3711.475
2087.12722	3689.075
2090.12824	3711.375
2093.12732	3695.975
2096.12447	3687.375
2099.11969	3707.275
2102.11299	3698.775
2105.10435	3700.475
2108.09379	3704.875
2111.08131	3696.575
2114.0669	3693.375
2117.05057	3699.775
2120.03233	3705.975
2123.01216	3706.475
2125.99008	3703.875
2128.96609	3707.275
2131.94018	3715.575
2134.91236	3718.675
2137.88263	3712.575
2140.851	3691.075
2143.81746	3711.975
2146.78201	3708.375
2149.74466	3701.075
2152.7054	3710.975
2155.66425	3716.075
2158.6212	3706.175
2161.57625	3693.975
2164.52941	3700.575
2167.48067	3695.875
2170.43004	3698.675
2173.37752	3701.075
2176.32311	3691.575
2179.26681	3691.175
2182.20863	3701.975
2185.14856	3698.775
2188.08661	3688.875
2191.02278	3684.675
2193.95707	3672.775
2196.88948	3677.275
2199.82001	3667.775
2202.74867	3673.075
2205.67545	3663.675
2208.60037	3667.175
2211.52341	3662.375
2214.44458	3662.175
2217.36388	3636.775
2220.28132	3640.275
2223.1969	3621.875
2226.11061	3615.675
2229.02246	3610.675
2231.93245	3607.175
2234.84058	3599.875
2237.74686	3585.275
2240.65128	3589.975
2243.55385	3588.675
2246.45456	3591.175
2249.35343	3567.375
2252.25044	3586.875
2255.14561	3574.575
2258.03893	3571.675
2260.93041	3568.775
2263.82004	3562.775
2266.70783	3558.075
2269.59378	3547.375
2272.4779	3542.775
2275.36017	3516.975
2278.24061	3506.575
2281.11922	3505.075
2283.996	3504.575
2286.87094	3498.775
2289.74405	3489.975
2292.61534	3485.575
2295.4848	3480.075
2298.35243	3487.175
2301.21824	3494.175
2304.08223	3471.675
2306.94439	3487.875
2309.80474	3468.275
2312.66327	3468.575
2315.51999	3463.575
2318.37489	3467.875
2321.22797	3451.975
2324.07925	3439.175
2326.92871	3429.875
2329.77637	3437.475
2332.62222	3423.675
2335.46626	3403.375
2338.3085	3410.775
2341.14893	3418.775
2343.98756	3432.875
2346.8244	3420.175
2349.65943	3419.775
2352.49267	3412.375
2355.32411	3413.175
2358.15376	3413.975
2360.98161	3406.075
2363.80768	3418.775
2366.63195	3419.975
2369.45444	3415.575
2372.27514	3428.875
2375.09405	3418.975
2377.91118	3400.175
2380.72652	3384.875
2383.54009	3380.675
2386.35187	3387.075
2389.16188	3360.575
2391.97011	3343.575
2394.77657	3341.075
2397.58125	3325.375
2400.38416	3323.675
2403.18529	3323.675
2405.98466	3330.775
2408.78226	3327.975
2411.57809	3306.975
2414.37216	3313.475
2417.16446	3309.475
2419.955	3314.075
2422.74378	3309.675
2425.5308	3300.175
2428.31606	3297.875
2431.09956	3295.075
2433.88131	3284.275
2436.6613	3290.175
2439.43954	3282.075
2442.21603	3290.675
2444.99077	3288.175
2447.76377	3284.375
2450.53501	3279.975
2453.30451	3291.475
2456.07226	3284.775
2458.83827	3272.775
2461.60254	3282.075
2464.36507	3264.475
2467.12586	3280.575
2469.88492	3259.575
2472.64224	3261.275
2475.39782	3268.575
2478.15167	3278.375
2480.90379	3257.575
2483.65417	3266.775
2486.40283	3269.075
2489.14976	3278.675
2491.89497	3282.975
2494.63845	3277.075
2497.3802	3279.075
2500.12024	3258.275
2502.85855	3250.175
2505.59514	3257.975
2508.33002	3259.075
2511.06318	3230.375
2513.79462	3220.275
2516.52435	3210.275
2519.25237	3202.175
2521.97867	3203.475
2524.70327	3194.875
2527.42616	3196.575
2530.14734	3196.675
2532.86681	3191.875
2535.58458	3199.175
2538.30065	3200.275
2541.01501	3194.775
2543.72768	3181.875
2546.43864	3187.475
2549.14791	3173.175
2551.85548	3170.475
2554.56136	3180.175
2557.26554	3170.075
2559.96803	3161.575
2562.66883	3140.975
2565.36794	3146.175
2568.06536	3138.675
2570.7611	3134.975
2573.45514	3129.375
2576.14751	3129.075
2578.83819	3104.975
2581.52719	3100.975
2584.21451	3094.975
2586.90015	3099.075
2589.58411	3099.975
2592.2664	3084.575
2594.94701	3077.275
2597.62594	3083.775
2600.30321	3081.675
2602.9788	3066.275
2605.65273	3076.275
2608.32498	3082.175
2610.99557	3075.475
2613.66449	3055.175
2616.33175	3062.675
2618.99734	3067.375
2621.66128	3055.875
2624.32355	3042.375
2626.98416	3046.175
2629.64311	3017.875
2632.30041	3003.975
2634.95605	3013.975
2637.61004	3010.375
2640.26238	3008.475
2642.91306	2994.675
2645.56209	2995.075
2648.20948	3004.775
2650.85521	3002.175
2653.4993	2991.075
2656.14175	3007.575
2658.78255	2987.975
2661.42171	2997.575
2664.05923	3006.775
2666.6951	3007.475
2669.32934	3004.175
2671.96194	2997.975
2674.59291	2996.675
2677.22224	2995.875
2679.84993	3007.775
2682.476	2989.875
2685.10043	2996.075
2687.72324	2988.475
2690.34441	2986.475
2692.96396	2993.975
2695.58188	2987.175
2698.19818	2985.575
2700.81285	2995.275
2703.4259	2995.775
2706.03733	2983.075
2708.64714	2987.175
2711.25533	2986.575
2713.86191	2984.675
2716.46687	2980.275
2719.07021	2982.775
2721.67194	2984.275
2724.27206	2980.375
2726.87057	2979.875
2729.46747	2982.175
2732.06276	2985.975
2734.65644	2972.075
2737.24852	2975.375
2739.83899	2960.475
2742.42786	2962.375
2745.01513	2972.675
2747.60079	2969.475
2750.18486	2948.975
2752.76733	2956.375
2755.3482	2962.875
2757.92747	2937.875
2760.50515	2937.875
2763.08123	2932.775
2765.65573	2912.775
2768.22863	2906.775
2770.79994	2903.375
2773.36967	2907.875
2775.9378	2906.875
2778.50435	2913.975
2781.06932	2905.475
2783.6327	2903.975
2786.1945	2892.175
2788.75471	2894.375
2791.31335	2880.375
2793.87041	2880.775
2796.42589	2881.775
2798.97979	2876.775
2801.53212	2878.375
2804.08288	2873.575
2806.63206	2864.275
2809.17967	2851.175
2811.72571	2844.675
2814.27018	2847.175
2816.81308	2838.475
2819.35442	2837.275
2821.89419	2837.875
2824.43239	2821.475
2826.96904	2828.275
2829.50412	2827.275
2832.03763	2806.775
2834.56959	2806.375
2837.1	2792.875
2839.62884	2798.375
2842.15613	2788.475
2844.68186	2795.575
2847.20604	2769.975
2849.72867	2781.375
2852.24974	2779.375
2854.76927	2787.675
2857.28724	2759.675
2859.80367	2782.875
2862.31855	2765.575
2864.83189	2768.575
2867.34368	2769.875
2869.85393	2762.975
2872.36264	2769.275
2874.8698	2771.475
2877.37543	2769.775
2879.87952	2747.175
2882.38207	2755.075
2884.88308	2750.275
2887.38256	2745.975
2889.88051	2744.275
2892.37692	2737.575
2894.8718	2727.975
2897.36515	2733.875
2899.85698	2734.575
2902.34727	2733.475
2904.83604	2730.175
2907.32328	2739.675
2909.809	2736.775
2912.29319	2747.675
2914.77587	2746.075
2917.25702	2748.375
2919.73665	2746.175
2922.21476	2740.175
2924.69136	2737.575
2927.16644	2731.275
2929.64	2733.675
2932.11205	2724.275
2934.58258	2698.775
2937.05161	2710.775
2939.51912	2714.075
2941.98513	2715.175
2944.44962	2701.775
2946.91261	2693.575
2949.37409	2708.475
2951.83407	2702.275
2954.29254	2703.475
2956.74951	2694.275
2959.20498	2688.875
2961.65895	2691.475
2964.11142	2687.675
2966.56239	2674.875
2969.01186	2678.275
2971.45984	2687.675
2973.90632	2672.775
2976.35131	2674.175
2978.7948	2658.175
2981.23681	2662.875
2983.67732	2656.675
2986.11635	2655.375
2988.55388	2637.075
2990.98993	2651.275
2993.4245	2625.275
2995.85758	2623.775
2998.28917	2625.275
3000.71928	2616.575
3003.14791	2611.875
3005.57506	2624.875
3008.00073	2598.075
3010.42493	2606.075
3012.84764	2600.775
3015.26888	2601.475
3017.68865	2584.475
3020.10694	2585.075
3022.52376	2567.475
3024.9391	2555.175
3027.35298	2551.275
3029.76539	2544.175
3032.17632	2542.975
3034.5858	2536.675
3036.9938	2528.775
3039.40034	2532.975
3041.80542	2518.375
3044.20903	2527.775
3046.61118	2520.175
3049.01187	2504.075
3051.4111	2510.575
3053.80888	2502.075
3056.20519	2484.175
3058.60005	2496.175
3060.99345	2489.275
3063.3854	2485.175
3065.7759	2481.975
3068.16494	2475.875
3070.55254	2467.875
3072.93868	2462.675
3075.32338	2445.075
3077.70662	2450.375
3080.08842	2433.675
3082.46878	2436.075
3084.84769	2414.175
3087.22515	2415.475
3089.60118	2414.275
3091.97576	2417.175
3094.3489	2406.675
3096.72061	2418.475
3099.09087	2424.075
3101.4597	2419.575
3103.82709	2413.875
3106.19305	2394.475
3108.55757	2408.475
3110.92066	2393.475
3113.28232	2409.775
3115.64255	2392.475
3118.00134	2381.675
3120.35871	2371.975
3122.71466	2377.475
3125.06917	2363.275
3127.42226	2345.775
3129.77393	2363.975
3132.12417	2359.675
3134.47299	2361.875
3136.82039	2356.175
3139.16636	2355.375
3141.51092	2347.075
3143.85406	2333.875
3146.19579	2331.575
3148.53609	2347.775
3150.87499	2343.875
3153.21246	2357.075
3155.54853	2353.375
3157.88318	2333.975
3160.21642	2347.775
3162.54826	2339.375
3164.87868	2336.375
3167.2077	2346.575
3169.5353	2324.375
3171.86151	2321.675
3174.18631	2326.975
3176.5097	2327.875
3178.83169	2319.775
3181.15228	2317.275
3183.47147	2315.075
3185.78926	2302.175
3188.10565	2296.575
3190.42065	2289.975
3192.73424	2289.875
3195.04645	2274.675
3197.35725	2291.475
3199.66667	2282.975
3201.97469	2288.875
3204.28132	2289.475
3206.58656	2287.675
3208.8904	2280.975
3211.19287	2287.275
3213.49394	2286.675
3215.79363	2276.175
3218.09193	2283.975
3220.38884	2287.575
3222.68438	2289.775
3224.97853	2281.675
3227.2713	2274.275
3229.56269	2267.975
3231.8527	2259.375
3234.14133	2260.375
3236.42858	2253.575
3238.71446	2240.975
3240.99896	2241.975
3243.28209	2239.275
3245.56384	2230.875
3247.84423	2236.675
3250.12324	2239.475
3252.40088	2226.275
3254.67715	2224.775
3256.95205	2210.675
3259.22558	2219.775
3261.49775	2220.175
3263.76855	2222.075
3266.03799	2218.675
3268.30606	2218.475
3270.57277	2214.675
3272.83812	2212.275
3275.10211	2197.875
3277.36474	2197.675
3279.62601	2199.175
3281.88593	2191.875
3284.14448	2181.575
3286.40168	2188.875
3288.65753	2179.175
3290.91202	2175.675
3293.16516	2177.175
3295.41695	2182.575
3297.66738	2162.075
3299.91647	2152.875
3302.16421	2140.675
3304.4106	2133.475
3306.65564	2115.075
3308.89933	2099.975
3311.14169	2079.175
3313.38269	2068.275
3315.62236	2050.875
3317.86068	2028.675
3320.09766	2027.775
3322.3333	2005.975
3324.5676	1994.375
3326.80056	1959.075
3329.03219	1946.475
3331.26248	0.675
3333.49143	-0.725
3335.71905	-0.025
