Data from AgNPs_UA_20uM_CRN_500uM_SU_RamanShift__74__13-48-50-305.txt Node

Date: Thu Aug 04 13:48:50 BST 2022
User: TCL
Spectrometer: QEP01345
Trigger mode: 4
Integration Time (sec): 1.000000E0
Scans to average: 10
Electric dark correction enabled: true
Nonlinearity correction enabled: false
Boxcar width: 0
XAxis mode: Raman Shifts
Number of Pixels in Spectrum: 1044
>>>>>Begin Spectral Data<<<<<
46.04893	-1.3125
50.45542	0.4875
54.85868	-0.0125
59.25871	-0.3125
63.6555	13.0875
68.04907	11.4875
72.43941	13.1875
76.82654	13.5875
81.21044	12.9875
85.59113	15.0875
89.96862	15.4875
94.34289	15.3875
98.71396	15.7875
103.08183	16.2875
107.4465	13.3875
111.80798	17.1875
116.16626	18.7875
120.52136	20.1875
124.87327	17.2875
129.222	23.0875
133.56755	21.5875
137.90993	22.8875
142.24913	24.5875
146.58517	28.7875
150.91804	32.0875
155.24774	40.3875
159.57429	48.6875
163.89768	61.1875
168.21792	86.1875
172.53501	117.5875
176.84895	164.5875
181.15975	232.7875
185.46741	325.4875
189.77193	452.6875
194.07331	601.5875
198.37157	778.4875
202.6667	975.1875
206.9587	1148.4875
211.24758	1337.7875
215.53334	1532.9875
219.81599	1732.2875
224.09553	1965.9875
228.37195	2210.8875
232.64527	2483.4875
236.91549	2758.1875
241.18261	2989.2875
245.44663	3173.6875
249.70755	3326.6875
253.96539	3454.2875
258.22014	3565.6875
262.4718	3660.4875
266.72039	3752.6875
270.96589	3762.5875
275.20832	3772.1875
279.44768	3719.7875
283.68397	3657.2875
287.91719	3609.8875
292.14735	3620.3875
296.37445	3676.7875
300.59849	3806.8875
304.81948	3955.3875
309.03742	4086.6875
313.25231	4134.7875
317.46415	4093.9875
321.67296	3911.9875
325.87872	3745.3875
330.08145	3664.6875
334.28114	3662.6875
338.47781	3713.5875
342.67145	3788.5875
346.86207	3927.0875
351.04966	4079.1875
355.23424	4246.0875
359.4158	4347.7875
363.59435	4397.3875
367.76989	4436.1875
371.94243	4433.1875
376.11196	4438.5875
380.27849	4438.8875
384.44203	4425.6875
388.60257	4432.6875
392.76012	4468.6875
396.91468	4526.3875
401.06626	4616.0875
405.21485	4647.8875
409.36047	4547.9875
413.50311	4406.7875
417.64277	4269.1875
421.77947	4176.6875
425.9132	4139.0875
430.04396	4153.2875
434.17176	4195.6875
438.2966	4286.9875
442.41849	4380.9875
446.53742	4523.9875
450.6534	4653.0875
454.76644	4712.4875
458.87653	4721.1875
462.98368	4679.8875
467.08789	4607.0875
471.18916	4512.0875
475.2875	4404.0875
479.38291	4300.8875
483.4754	4244.0875
487.56496	4215.3875
491.6516	4177.3875
495.73531	4146.1875
499.81612	4153.8875
503.89401	4196.9875
507.96899	4221.0875
512.04106	4266.7875
516.11023	4306.6875
520.1765	4353.7875
524.23987	4364.7875
528.30034	4346.5875
532.35792	4329.5875
536.41261	4305.6875
540.46441	4237.0875
544.51333	4206.5875
548.55936	4229.9875
552.60252	4308.7875
556.64279	4364.0875
560.6802	4410.3875
564.71473	4466.9875
568.7464	4525.6875
572.7752	4542.0875
576.80114	4440.8875
580.82422	4356.2875
584.84444	4382.1875
588.86181	4417.6875
592.87633	4508.0875
596.888	4608.2875
600.89682	4806.8875
604.9028	5357.0875
608.90594	6556.8875
612.90624	7715.3875
616.90371	7033.1875
620.89834	5370.6875
624.89015	4696.5875
628.87913	4624.6875
632.86528	4645.0875
636.84862	4646.6875
640.82913	4518.0875
644.80683	4363.2875
648.78172	4275.1875
652.75379	4282.1875
656.72306	4447.9875
660.68952	4626.7875
664.65319	4560.5875
668.61405	4429.1875
672.57211	4388.3875
676.52738	4389.0875
680.47986	4335.9875
684.42955	4302.8875
688.37646	4272.5875
692.32058	4319.1875
696.26192	4375.7875
700.20048	4444.9875
704.13626	4464.2875
708.06928	4421.8875
711.99952	4371.4875
715.927	4384.8875
719.85171	4400.6875
723.77365	4403.6875
727.69284	4364.2875
731.60928	4312.8875
735.52295	4352.5875
739.43388	4376.0875
743.34206	4407.2875
747.24749	4419.3875
751.15017	4424.2875
755.05012	4494.4875
758.94733	4678.7875
762.8418	5084.8875
766.73354	5747.1875
770.62254	6338.0875
774.50882	6490.6875
778.39237	6140.2875
782.27321	5546.0875
786.15132	4987.0875
790.02671	4653.2875
793.89938	4496.5875
797.76935	4428.3875
801.6366	4395.6875
805.50115	4395.7875
809.36299	4369.3875
813.22213	4355.5875
817.07857	4359.3875
820.93231	4352.3875
824.78336	4369.5875
828.63172	4382.5875
832.47738	4389.4875
836.32036	4398.5875
840.16066	4400.0875
843.99827	4400.8875
847.8332	4411.0875
851.66546	4398.5875
855.49504	4395.3875
859.32195	4387.6875
863.1462	4393.5875
866.96777	4376.0875
870.78668	4383.2875
874.60293	4391.1875
878.41652	4413.5875
882.22745	4441.1875
886.03573	4468.3875
889.84136	4432.4875
893.64433	4429.6875
897.44466	4433.8875
901.24235	4395.1875
905.0374	4407.1875
908.8298	4397.3875
912.61957	4382.7875
916.40671	4397.5875
920.19121	4428.2875
923.97308	4470.2875
927.75233	4530.1875
931.52895	4552.6875
935.30295	4523.4875
939.07433	4412.8875
942.84309	4363.7875
946.60924	4340.9875
950.37278	4312.6875
954.13371	4307.5875
957.89203	4307.6875
961.64774	4282.4875
965.40086	4258.7875
969.15137	4258.5875
972.89929	4268.6875
976.64461	4264.2875
980.38733	4268.9875
984.12747	4301.6875
987.86502	4324.6875
991.59999	4385.4875
995.33237	4449.6875
999.06217	4561.6875
1002.78939	4662.4875
1006.51404	4734.6875
1010.23611	4809.2875
1013.95561	4852.5875
1017.67255	4871.9875
1021.38692	4829.7875
1025.09872	4783.3875
1028.80796	4784.9875
1032.51465	4862.6875
1036.21877	4930.5875
1039.92035	4943.4875
1043.61937	4898.7875
1047.31584	4839.4875
1051.00976	4793.4875
1054.70114	4763.2875
1058.38998	4780.0875
1062.07627	4811.6875
1065.76003	4858.9875
1069.44126	4922.7875
1073.11995	4987.4875
1076.79611	5015.1875
1080.46974	5038.2875
1084.14085	5133.9875
1087.80943	5194.5875
1091.47549	5212.6875
1095.13903	5126.0875
1098.80005	5025.0875
1102.45857	4953.2875
1106.11456	4914.0875
1109.76805	4933.0875
1113.41903	4991.9875
1117.06751	5075.8875
1120.71348	5234.4875
1124.35696	5427.6875
1127.99793	5521.1875
1131.63641	5420.4875
1135.2724	5252.0875
1138.90589	5097.4875
1142.5369	5009.3875
1146.16542	4942.2875
1149.79145	4883.7875
1153.415	4860.2875
1157.03607	4868.3875
1160.65467	4934.7875
1164.27079	5051.9875
1167.88443	5226.0875
1171.49561	5512.5875
1175.10432	5950.8875
1178.71056	6525.4875
1182.31434	7041.0875
1185.91565	7278.2875
1189.51451	7229.7875
1193.11091	6989.5875
1196.70485	6667.3875
1200.29634	6398.8875
1203.88538	6111.3875
1207.47197	5819.0875
1211.05612	5590.5875
1214.63782	5424.1875
1218.21708	5361.3875
1221.79391	5343.5875
1225.36829	5368.9875
1228.94024	5412.3875
1232.50976	5370.7875
1236.07685	5379.5875
1239.6415	5396.0875
1243.20374	5394.8875
1246.76355	5436.6875
1250.32093	5492.6875
1253.8759	5618.5875
1257.42845	5753.5875
1260.97859	5935.4875
1264.52631	6085.4875
1268.07163	6207.5875
1271.61453	6300.3875
1275.15503	6379.5875
1278.69312	6432.4875
1282.22882	6512.2875
1285.76211	6669.3875
1289.29301	6836.5875
1292.82151	7055.8875
1296.34761	7242.7875
1299.87133	7531.3875
1303.39266	8022.4875
1306.9116	8685.4875
1310.42815	9281.3875
1313.94233	9474.3875
1317.45412	9167.8875
1320.96354	8609.2875
1324.47058	8080.9875
1327.97525	7656.1875
1331.47754	7453.3875
1334.97747	7463.7875
1338.47502	7596.8875
1341.97022	7822.8875
1345.46305	8115.2875
1348.95352	8521.6875
1352.44163	9052.2875
1355.92738	9731.1875
1359.41078	10628.3875
1362.89183	11263.2875
1366.37053	10710.3875
1369.84688	9141.1875
1373.32088	7753.9875
1376.79254	6985.4875
1380.26186	6652.2875
1383.72883	6472.2875
1387.19347	6324.5875
1390.65578	6139.4875
1394.11575	5935.1875
1397.57339	5814.8875
1401.0287	5755.0875
1404.48168	5757.2875
1407.93234	5841.8875
1411.38068	5956.1875
1414.82669	6058.7875
1418.27039	6062.8875
1421.71177	6014.9875
1425.15083	6000.4875
1428.58758	6034.2875
1432.02203	6130.6875
1435.45416	6226.4875
1438.88399	6215.7875
1442.31151	6143.4875
1445.73673	6108.9875
1449.15965	6086.0875
1452.58027	6020.6875
1455.9986	5938.9875
1459.41463	5927.9875
1462.82837	5975.2875
1466.23982	6056.4875
1469.64898	6159.3875
1473.05586	6228.0875
1476.46045	6310.4875
1479.86276	6354.7875
1483.26279	6465.9875
1486.66054	6556.8875
1490.05602	6763.6875
1493.44922	7125.7875
1496.84016	7608.9875
1500.22882	8317.3875
1503.61521	9188.1875
1506.99934	9997.3875
1510.38121	10471.1875
1513.76081	10241.1875
1517.13816	9399.1875
1520.51324	8360.0875
1523.88607	7592.1875
1527.25665	7153.3875
1530.62498	6939.4875
1533.99105	6815.0875
1537.35488	6741.6875
1540.71647	6675.9875
1544.07581	6639.5875
1547.4329	6566.4875
1550.78776	6498.7875
1554.14038	6425.0875
1557.49077	6418.3875
1560.83892	6450.9875
1564.18484	6564.2875
1567.52853	6720.9875
1570.86999	6837.8875
1574.20922	6837.9875
1577.54624	6710.8875
1580.88103	6425.1875
1584.2136	6138.8875
1587.54395	6003.9875
1590.87208	6129.3875
1594.19801	6447.7875
1597.52172	6905.4875
1600.84321	7171.0875
1604.16251	7127.9875
1607.47959	6894.4875
1610.79447	6544.3875
1614.10715	6100.7875
1617.41763	5733.3875
1620.7259	5467.1875
1624.03199	5335.9875
1627.33587	5315.0875
1630.63757	5452.5875
1633.93707	5714.2875
1637.23439	6144.8875
1640.52951	6793.2875
1643.82246	7568.3875
1647.11321	8221.0875
1650.40179	8353.4875
1653.68819	7734.8875
1656.97241	6720.1875
1660.25446	5798.6875
1663.53433	5192.0875
1666.81203	4836.7875
1670.08756	4638.2875
1673.36092	4513.4875
1676.63211	4422.1875
1679.90115	4374.1875
1683.16801	4320.1875
1686.43272	4265.9875
1689.69527	4249.5875
1692.95567	4229.0875
1696.2139	4225.9875
1699.46999	4201.4875
1702.72392	4205.7875
1705.97571	4190.4875
1709.22535	4215.6875
1712.47284	4210.7875
1715.71819	4178.9875
1718.96139	4182.6875
1722.20246	4182.0875
1725.44139	4153.9875
1728.67818	4141.8875
1731.91284	4100.7875
1735.14537	4100.5875
1738.37576	4080.8875
1741.60403	4088.4875
1744.83017	4069.2875
1748.05418	4066.3875
1751.27607	4051.0875
1754.49584	4041.4875
1757.71349	4034.4875
1760.92903	4015.4875
1764.14244	4026.6875
1767.35375	4021.1875
1770.56294	4002.1875
1773.77002	3997.7875
1776.97499	3986.3875
1780.17785	3987.6875
1783.37861	3971.6875
1786.57727	3967.3875
1789.77382	3966.2875
1792.96828	3959.7875
1796.16064	3939.3875
1799.3509	3941.0875
1802.53907	3937.6875
1805.72514	3933.4875
1808.90913	3937.3875
1812.09102	3921.2875
1815.27083	3900.2875
1818.44856	3898.9875
1821.6242	3893.4875
1824.79776	3901.7875
1827.96924	3884.5875
1831.13864	3878.8875
1834.30597	3877.0875
1837.47122	3871.0875
1840.6344	3868.2875
1843.7955	3869.1875
1846.95454	3851.7875
1850.11151	3858.9875
1853.26642	3861.3875
1856.41926	3854.7875
1859.57004	3860.6875
1862.71876	3849.6875
1865.86542	3847.5875
1869.01003	3850.4875
1872.15258	3837.0875
1875.29308	3846.4875
1878.43152	3823.2875
1881.56792	3834.3875
1884.70227	3827.3875
1887.83457	3832.9875
1890.96482	3835.9875
1894.09304	3813.3875
1897.21921	3820.1875
1900.34335	3809.9875
1903.46544	3817.2875
1906.58551	3821.8875
1909.70353	3810.9875
1912.81953	3805.5875
1915.93349	3784.4875
1919.04543	3798.3875
1922.15534	3789.7875
1925.26322	3787.3875
1928.36908	3761.9875
1931.47292	3777.7875
1934.57473	3767.6875
1937.67453	3773.2875
1940.77232	3765.1875
1943.86808	3735.6875
1946.96184	3741.9875
1950.05358	3716.7875
1953.14331	3717.0875
1956.23103	3701.1875
1959.31675	3683.8875
1962.40046	3675.1875
1965.48217	3663.8875
1968.56188	3650.7875
1971.63959	3651.7875
1974.7153	3649.8875
1977.78901	3633.2875
1980.86073	3618.6875
1983.93046	3610.6875
1986.99819	3593.9875
1990.06394	3586.4875
1993.1277	3584.1875
1996.18947	3577.4875
1999.24925	3561.1875
2002.30706	3546.6875
2005.36288	3529.3875
2008.41672	3521.1875
2011.46859	3517.9875
2014.51848	3506.7875
2017.56639	3496.3875
2020.61233	3487.2875
2023.6563	3481.8875
2026.6983	3481.6875
2029.73833	3466.1875
2032.7764	3448.8875
2035.8125	3450.2875
2038.84664	3460.1875
2041.87881	3433.7875
2044.90903	3435.8875
2047.93729	3418.4875
2050.96359	3424.0875
2053.98794	3418.1875
2057.01034	3415.1875
2060.03078	3422.6875
2063.04927	3403.3875
2066.06582	3406.0875
2069.08042	3409.5875
2072.09307	3393.0875
2075.10378	3411.1875
2078.11255	3404.5875
2081.11938	3393.7875
2084.12426	3383.0875
2087.12722	3391.9875
2090.12824	3385.5875
2093.12732	3388.6875
2096.12447	3404.8875
2099.11969	3388.8875
2102.11299	3394.9875
2105.10435	3393.6875
2108.09379	3389.4875
2111.08131	3408.7875
2114.0669	3384.9875
2117.05057	3408.8875
2120.03233	3393.7875
2123.01216	3400.0875
2125.99008	3400.3875
2128.96609	3418.8875
2131.94018	3418.1875
2134.91236	3407.8875
2137.88263	3403.8875
2140.851	3409.2875
2143.81746	3405.2875
2146.78201	3398.4875
2149.74466	3409.1875
2152.7054	3400.7875
2155.66425	3412.8875
2158.6212	3414.2875
2161.57625	3413.4875
2164.52941	3411.6875
2167.48067	3402.3875
2170.43004	3403.3875
2173.37752	3396.6875
2176.32311	3398.7875
2179.26681	3402.6875
2182.20863	3413.2875
2185.14856	3397.6875
2188.08661	3407.1875
2191.02278	3410.5875
2193.95707	3413.8875
2196.88948	3396.5875
2199.82001	3391.2875
2202.74867	3399.9875
2205.67545	3408.8875
2208.60037	3395.2875
2211.52341	3379.1875
2214.44458	3379.6875
2217.36388	3382.7875
2220.28132	3366.1875
2223.1969	3348.3875
2226.11061	3346.2875
2229.02246	3341.3875
2231.93245	3323.4875
2234.84058	3334.6875
2237.74686	3324.2875
2240.65128	3333.2875
2243.55385	3334.2875
2246.45456	3309.3875
2249.35343	3314.7875
2252.25044	3304.6875
2255.14561	3316.7875
2258.03893	3308.2875
2260.93041	3307.6875
2263.82004	3300.0875
2266.70783	3287.2875
2269.59378	3279.4875
2272.4779	3265.8875
2275.36017	3270.5875
2278.24061	3249.3875
2281.11922	3235.9875
2283.996	3245.1875
2286.87094	3221.1875
2289.74405	3226.4875
2292.61534	3230.8875
2295.4848	3231.7875
2298.35243	3229.3875
2301.21824	3216.3875
2304.08223	3218.6875
2306.94439	3223.1875
2309.80474	3225.4875
2312.66327	3223.2875
2315.51999	3219.7875
2318.37489	3223.1875
2321.22797	3216.0875
2324.07925	3210.2875
2326.92871	3193.4875
2329.77637	3194.1875
2332.62222	3191.0875
2335.46626	3194.5875
2338.3085	3196.1875
2341.14893	3191.2875
2343.98756	3203.0875
2346.8244	3186.5875
2349.65943	3196.4875
2352.49267	3196.9875
2355.32411	3192.6875
2358.15376	3176.5875
2360.98161	3198.5875
2363.80768	3192.6875
2366.63195	3191.9875
2369.45444	3184.2875
2372.27514	3158.7875
2375.09405	3168.5875
2377.91118	3175.6875
2380.72652	3164.0875
2383.54009	3156.9875
2386.35187	3133.3875
2389.16188	3125.3875
2391.97011	3123.9875
2394.77657	3122.9875
2397.58125	3112.3875
2400.38416	3126.0875
2403.18529	3099.2875
2405.98466	3101.2875
2408.78226	3101.9875
2411.57809	3095.6875
2414.37216	3100.9875
2417.16446	3089.8875
2419.955	3087.1875
2422.74378	3079.8875
2425.5308	3080.6875
2428.31606	3061.6875
2431.09956	3077.0875
2433.88131	3058.6875
2436.6613	3065.7875
2439.43954	3070.4875
2442.21603	3069.7875
2444.99077	3068.4875
2447.76377	3066.7875
2450.53501	3053.4875
2453.30451	3056.5875
2456.07226	3041.9875
2458.83827	3048.6875
2461.60254	3046.7875
2464.36507	3045.9875
2467.12586	3038.7875
2469.88492	3032.8875
2472.64224	3039.9875
2475.39782	3047.8875
2478.15167	3041.8875
2480.90379	3043.4875
2483.65417	3043.0875
2486.40283	3047.7875
2489.14976	3044.5875
2491.89497	3051.6875
2494.63845	3049.7875
2497.3802	3051.5875
2500.12024	3055.1875
2502.85855	3021.6875
2505.59514	3014.8875
2508.33002	3025.1875
2511.06318	2999.9875
2513.79462	3000.8875
2516.52435	3008.3875
2519.25237	3005.8875
2521.97867	2983.9875
2524.70327	2978.6875
2527.42616	3001.1875
2530.14734	2997.5875
2532.86681	2989.3875
2535.58458	2988.6875
2538.30065	2982.0875
2541.01501	2977.0875
2543.72768	2986.9875
2546.43864	2974.4875
2549.14791	2975.3875
2551.85548	2977.5875
2554.56136	2964.5875
2557.26554	2974.8875
2559.96803	2956.4875
2562.66883	2961.1875
2565.36794	2953.8875
2568.06536	2943.7875
2570.7611	2929.5875
2573.45514	2935.8875
2576.14751	2936.4875
2578.83819	2936.4875
2581.52719	2917.7875
2584.21451	2914.6875
2586.90015	2917.8875
2589.58411	2899.1875
2592.2664	2911.4875
2594.94701	2916.8875
2597.62594	2904.2875
2600.30321	2916.3875
2602.9788	2911.7875
2605.65273	2891.9875
2608.32498	2891.5875
2610.99557	2880.5875
2613.66449	2907.5875
2616.33175	2883.2875
2618.99734	2877.5875
2621.66128	2883.6875
2624.32355	2883.9875
2626.98416	2894.0875
2629.64311	2903.1875
2632.30041	2877.5875
2634.95605	2872.3875
2637.61004	2880.7875
2640.26238	2869.0875
2642.91306	2867.2875
2645.56209	2876.2875
2648.20948	2870.8875
2650.85521	2850.8875
2653.4993	2862.5875
2656.14175	2851.2875
2658.78255	2859.4875
2661.42171	2866.7875
2664.05923	2870.7875
2666.6951	2877.9875
2669.32934	2863.2875
2671.96194	2871.3875
2674.59291	2878.6875
2677.22224	2873.4875
2679.84993	2865.2875
2682.476	2877.8875
2685.10043	2873.4875
2687.72324	2859.3875
2690.34441	2859.8875
2692.96396	2871.1875
2695.58188	2859.9875
2698.19818	2856.5875
2700.81285	2867.0875
2703.4259	2859.7875
2706.03733	2864.3875
2708.64714	2852.8875
2711.25533	2862.1875
2713.86191	2846.3875
2716.46687	2863.5875
2719.07021	2866.4875
2721.67194	2857.8875
2724.27206	2860.6875
2726.87057	2870.9875
2729.46747	2869.2875
2732.06276	2863.4875
2734.65644	2852.1875
2737.24852	2853.1875
2739.83899	2862.2875
2742.42786	2860.0875
2745.01513	2849.9875
2747.60079	2841.6875
2750.18486	2843.0875
2752.76733	2835.0875
2755.3482	2840.0875
2757.92747	2812.5875
2760.50515	2830.0875
2763.08123	2831.4875
2765.65573	2818.4875
2768.22863	2822.1875
2770.79994	2822.7875
2773.36967	2824.8875
2775.9378	2825.0875
2778.50435	2819.7875
2781.06932	2808.1875
2783.6327	2806.6875
2786.1945	2809.3875
2788.75471	2815.7875
2791.31335	2797.2875
2793.87041	2791.2875
2796.42589	2789.4875
2798.97979	2783.1875
2801.53212	2789.1875
2804.08288	2783.7875
2806.63206	2766.0875
2809.17967	2772.3875
2811.72571	2761.2875
2814.27018	2770.1875
2816.81308	2765.9875
2819.35442	2756.5875
2821.89419	2743.6875
2824.43239	2729.6875
2826.96904	2729.5875
2829.50412	2738.1875
2832.03763	2732.4875
2834.56959	2722.5875
2837.1	2735.6875
2839.62884	2721.3875
2842.15613	2722.0875
2844.68186	2736.1875
2847.20604	2720.5875
2849.72867	2726.1875
2852.24974	2712.6875
2854.76927	2695.2875
2857.28724	2705.9875
2859.80367	2690.4875
2862.31855	2689.8875
2864.83189	2697.6875
2867.34368	2702.5875
2869.85393	2694.1875
2872.36264	2682.3875
2874.8698	2678.9875
2877.37543	2679.0875
2879.87952	2674.3875
2882.38207	2677.9875
2884.88308	2677.4875
2887.38256	2669.7875
2889.88051	2674.5875
2892.37692	2674.0875
2894.8718	2669.8875
2897.36515	2667.5875
2899.85698	2660.3875
2902.34727	2676.3875
2904.83604	2673.5875
2907.32328	2677.4875
2909.809	2674.3875
2912.29319	2677.1875
2914.77587	2670.3875
2917.25702	2688.1875
2919.73665	2676.8875
2922.21476	2685.9875
2924.69136	2681.3875
2927.16644	2683.3875
2929.64	2669.1875
2932.11205	2659.8875
2934.58258	2656.7875
2937.05161	2661.8875
2939.51912	2641.8875
2941.98513	2654.3875
2944.44962	2655.5875
2946.91261	2646.9875
2949.37409	2654.7875
2951.83407	2658.0875
2954.29254	2647.9875
2956.74951	2649.6875
2959.20498	2643.6875
2961.65895	2641.9875
2964.11142	2637.3875
2966.56239	2632.4875
2969.01186	2639.1875
2971.45984	2624.9875
2973.90632	2626.0875
2976.35131	2616.4875
2978.7948	2612.7875
2981.23681	2619.4875
2983.67732	2618.8875
2986.11635	2606.4875
2988.55388	2600.9875
2990.98993	2591.9875
2993.4245	2587.2875
2995.85758	2581.5875
2998.28917	2579.2875
3000.71928	2573.1875
3003.14791	2578.8875
3005.57506	2557.5875
3008.00073	2538.6875
3010.42493	2533.9875
3012.84764	2539.9875
3015.26888	2517.7875
3017.68865	2534.7875
3020.10694	2529.0875
3022.52376	2519.7875
3024.9391	2517.7875
3027.35298	2497.1875
3029.76539	2503.3875
3032.17632	2497.4875
3034.5858	2492.2875
3036.9938	2490.3875
3039.40034	2479.8875
3041.80542	2473.3875
3044.20903	2475.5875
3046.61118	2482.5875
3049.01187	2466.2875
3051.4111	2463.8875
3053.80888	2461.4875
3056.20519	2455.5875
3058.60005	2447.3875
3060.99345	2431.4875
3063.3854	2434.3875
3065.7759	2432.0875
3068.16494	2429.8875
3070.55254	2433.0875
3072.93868	2407.4875
3075.32338	2412.2875
3077.70662	2395.5875
3080.08842	2378.7875
3082.46878	2385.2875
3084.84769	2375.0875
3087.22515	2370.0875
3089.60118	2379.5875
3091.97576	2364.9875
3094.3489	2373.5875
3096.72061	2378.1875
3099.09087	2371.1875
3101.4597	2367.2875
3103.82709	2359.4875
3106.19305	2353.0875
3108.55757	2366.8875
3110.92066	2358.8875
3113.28232	2351.0875
3115.64255	2347.4875
3118.00134	2336.4875
3120.35871	2339.6875
3122.71466	2331.6875
3125.06917	2340.8875
3127.42226	2325.2875
3129.77393	2319.4875
3132.12417	2323.9875
3134.47299	2315.8875
3136.82039	2308.5875
3139.16636	2302.4875
3141.51092	2303.0875
3143.85406	2306.6875
3146.19579	2311.9875
3148.53609	2309.4875
3150.87499	2312.0875
3153.21246	2307.2875
3155.54853	2309.9875
3157.88318	2301.7875
3160.21642	2310.8875
3162.54826	2303.5875
3164.87868	2302.1875
3167.2077	2288.9875
3169.5353	2291.9875
3171.86151	2303.7875
3174.18631	2297.9875
3176.5097	2284.8875
3178.83169	2279.4875
3181.15228	2283.1875
3183.47147	2270.1875
3185.78926	2267.2875
3188.10565	2264.5875
3190.42065	2261.7875
3192.73424	2257.9875
3195.04645	2246.5875
3197.35725	2247.4875
3199.66667	2242.1875
3201.97469	2239.8875
3204.28132	2241.8875
3206.58656	2235.6875
3208.8904	2249.2875
3211.19287	2254.1875
3213.49394	2254.9875
3215.79363	2258.8875
3218.09193	2249.0875
3220.38884	2244.9875
3222.68438	2251.3875
3224.97853	2239.8875
3227.2713	2249.7875
3229.56269	2260.7875
3231.8527	2246.6875
3234.14133	2238.4875
3236.42858	2231.3875
3238.71446	2221.9875
3240.99896	2223.6875
3243.28209	2214.4875
3245.56384	2220.8875
3247.84423	2225.0875
3250.12324	2213.6875
3252.40088	2209.1875
3254.67715	2216.0875
3256.95205	2195.5875
3259.22558	2190.3875
3261.49775	2205.2875
3263.76855	2202.1875
3266.03799	2200.1875
3268.30606	2205.8875
3270.57277	2207.7875
3272.83812	2192.2875
3275.10211	2192.4875
3277.36474	2182.5875
3279.62601	2179.7875
3281.88593	2165.3875
3284.14448	2165.6875
3286.40168	2167.6875
3288.65753	2169.4875
3290.91202	2153.2875
3293.16516	2161.1875
3295.41695	2157.6875
3297.66738	2147.9875
3299.91647	2132.1875
3302.16421	2118.8875
3304.4106	2119.9875
3306.65564	2105.4875
3308.89933	2088.1875
3311.14169	2068.2875
3313.38269	2045.5875
3315.62236	2039.1875
3317.86068	2015.9875
3320.09766	2008.2875
3322.3333	1991.9875
3324.5676	1974.4875
3326.80056	1951.2875
3329.03219	1938.5875
3331.26248	1.4875
3333.49143	-0.6125
3335.71905	-1.2125
