Data from AgNPs_UA_50uM_CRN_500uM_SU_RamanShift__2__13-56-10-314.txt Node

Date: Thu Aug 04 13:56:10 BST 2022
User: TCL
Spectrometer: QEP01345
Trigger mode: 4
Integration Time (sec): 1.000000E0
Scans to average: 10
Electric dark correction enabled: true
Nonlinearity correction enabled: false
Boxcar width: 0
XAxis mode: Raman Shifts
Number of Pixels in Spectrum: 1044
>>>>>Begin Spectral Data<<<<<
46.04893	1.7875
50.45542	-0.6125
54.85868	-0.5125
59.25871	-1.2125
63.6555	15.1875
68.04907	13.4875
72.43941	15.7875
76.82654	15.1875
81.21044	16.6875
85.59113	19.7875
89.96862	19.4875
94.34289	18.3875
98.71396	21.0875
103.08183	21.9875
107.4465	18.8875
111.80798	18.4875
116.16626	21.1875
120.52136	22.8875
124.87327	24.4875
129.222	25.1875
133.56755	30.0875
137.90993	30.3875
142.24913	31.7875
146.58517	35.8875
150.91804	43.9875
155.24774	53.7875
159.57429	68.5875
163.89768	84.6875
168.21792	116.3875
172.53501	158.8875
176.84895	223.5875
181.15975	322.4875
185.46741	451.1875
189.77193	623.6875
194.07331	842.8875
198.37157	1087.4875
202.6667	1358.6875
206.9587	1622.6875
211.24758	1891.9875
215.53334	2173.6875
219.81599	2464.7875
224.09553	2794.9875
228.37195	3177.5875
232.64527	3576.5875
236.91549	3965.5875
241.18261	4288.2875
245.44663	4537.0875
249.70755	4733.8875
253.96539	4865.9875
258.22014	5016.3875
262.4718	5118.5875
266.72039	5211.2875
270.96589	5207.9875
275.20832	5146.4875
279.44768	5079.3875
283.68397	4989.2875
287.91719	4941.2875
292.14735	4968.1875
296.37445	5070.6875
300.59849	5301.9875
304.81948	5581.4875
309.03742	5844.1875
313.25231	6028.1875
317.46415	5940.8875
321.67296	5644.3875
325.87872	5336.0875
330.08145	5138.7875
334.28114	5138.1875
338.47781	5193.2875
342.67145	5320.9875
346.86207	5490.2875
351.04966	5774.6875
355.23424	6028.1875
359.4158	6219.2875
363.59435	6273.9875
367.76989	6254.9875
371.94243	6183.4875
376.11196	6111.3875
380.27849	6073.2875
384.44203	6011.0875
388.60257	6015.0875
392.76012	6052.3875
396.91468	6143.1875
401.06626	6256.4875
405.21485	6266.7875
409.36047	6146.2875
413.50311	5868.4875
417.64277	5627.6875
421.77947	5482.4875
425.9132	5424.0875
430.04396	5429.1875
434.17176	5478.9875
438.2966	5558.5875
442.41849	5666.3875
446.53742	5780.2875
450.6534	5886.2875
454.76644	5944.9875
458.87653	5931.2875
462.98368	5911.0875
467.08789	5852.0875
471.18916	5756.3875
475.2875	5640.2875
479.38291	5530.5875
483.4754	5457.5875
487.56496	5412.4875
491.6516	5386.7875
495.73531	5380.2875
499.81612	5375.0875
503.89401	5435.2875
507.96899	5478.8875
512.04106	5545.9875
516.11023	5628.7875
520.1765	5689.7875
524.23987	5717.5875
528.30034	5707.3875
532.35792	5690.0875
536.41261	5643.1875
540.46441	5521.0875
544.51333	5485.5875
548.55936	5519.1875
552.60252	5612.6875
556.64279	5744.1875
560.6802	5787.8875
564.71473	5886.6875
568.7464	6014.2875
572.7752	6015.1875
576.80114	5781.2875
580.82422	5617.2875
584.84444	5563.4875
588.86181	5555.2875
592.87633	5561.4875
596.888	5694.6875
600.89682	5980.1875
604.9028	6778.9875
608.90594	8570.3875
612.90624	10390.7875
616.90371	9576.6875
620.89834	7021.6875
624.89015	5932.9875
628.87913	5806.9875
632.86528	5933.8875
636.84862	6057.1875
640.82913	5924.7875
644.80683	5695.4875
648.78172	5541.3875
652.75379	5551.9875
656.72306	5744.4875
660.68952	5933.2875
664.65319	5860.1875
668.61405	5648.9875
672.57211	5592.3875
676.52738	5592.5875
680.47986	5534.2875
684.42955	5458.7875
688.37646	5400.5875
692.32058	5436.1875
696.26192	5512.2875
700.20048	5610.1875
704.13626	5653.0875
708.06928	5591.7875
711.99952	5558.4875
715.927	5548.7875
719.85171	5585.6875
723.77365	5591.7875
727.69284	5563.6875
731.60928	5527.4875
735.52295	5494.1875
739.43388	5516.4875
743.34206	5522.4875
747.24749	5543.7875
751.15017	5558.5875
755.05012	5644.0875
758.94733	5913.4875
762.8418	6618.1875
766.73354	7644.3875
770.62254	8446.9875
774.50882	8545.1875
778.39237	8041.8875
782.27321	7223.6875
786.15132	6407.5875
790.02671	5905.2875
793.89938	5642.2875
797.76935	5541.9875
801.6366	5475.0875
805.50115	5459.3875
809.36299	5431.3875
813.22213	5403.9875
817.07857	5421.2875
820.93231	5418.6875
824.78336	5424.8875
828.63172	5437.0875
832.47738	5465.2875
836.32036	5433.1875
840.16066	5412.2875
843.99827	5406.6875
847.8332	5402.2875
851.66546	5415.9875
855.49504	5416.7875
859.32195	5426.0875
863.1462	5430.8875
866.96777	5423.7875
870.78668	5420.5875
874.60293	5425.3875
878.41652	5442.8875
882.22745	5514.7875
886.03573	5527.5875
889.84136	5522.2875
893.64433	5495.9875
897.44466	5501.2875
901.24235	5489.7875
905.0374	5463.1875
908.8298	5423.0875
912.61957	5403.1875
916.40671	5414.1875
920.19121	5462.8875
923.97308	5514.6875
927.75233	5591.5875
931.52895	5619.7875
935.30295	5550.1875
939.07433	5456.7875
942.84309	5339.8875
946.60924	5301.4875
950.37278	5296.1875
954.13371	5288.5875
957.89203	5284.0875
961.64774	5288.2875
965.40086	5277.4875
969.15137	5256.0875
972.89929	5262.0875
976.64461	5249.1875
980.38733	5247.5875
984.12747	5262.7875
987.86502	5280.2875
991.59999	5336.1875
995.33237	5391.4875
999.06217	5474.5875
1002.78939	5590.6875
1006.51404	5742.9875
1010.23611	5864.5875
1013.95561	5888.4875
1017.67255	5890.8875
1021.38692	5839.0875
1025.09872	5735.4875
1028.80796	5646.7875
1032.51465	5624.8875
1036.21877	5636.7875
1039.92035	5659.1875
1043.61937	5714.6875
1047.31584	5726.3875
1051.00976	5722.8875
1054.70114	5699.6875
1058.38998	5701.0875
1062.07627	5717.5875
1065.76003	5771.2875
1069.44126	5847.4875
1073.11995	5981.5875
1076.79611	6145.6875
1080.46974	6292.0875
1084.14085	6374.4875
1087.80943	6456.8875
1091.47549	6533.1875
1095.13903	6495.0875
1098.80005	6422.4875
1102.45857	6261.3875
1106.11456	6127.5875
1109.76805	6044.4875
1113.41903	6096.9875
1117.06751	6211.2875
1120.71348	6414.2875
1124.35696	6690.0875
1127.99793	6880.8875
1131.63641	6759.8875
1135.2724	6474.0875
1138.90589	6268.1875
1142.5369	6164.6875
1146.16542	6168.7875
1149.79145	6120.4875
1153.415	6032.2875
1157.03607	5966.2875
1160.65467	5980.7875
1164.27079	6110.0875
1167.88443	6301.3875
1171.49561	6628.5875
1175.10432	7173.3875
1178.71056	7882.7875
1182.31434	8499.5875
1185.91565	8655.7875
1189.51451	8539.8875
1193.11091	8279.3875
1196.70485	8017.8875
1200.29634	7836.1875
1203.88538	7643.4875
1207.47197	7372.5875
1211.05612	7093.7875
1214.63782	6925.4875
1218.21708	6734.1875
1221.79391	6557.3875
1225.36829	6435.6875
1228.94024	6377.4875
1232.50976	6343.7875
1236.07685	6357.9875
1239.6415	6364.5875
1243.20374	6408.3875
1246.76355	6435.8875
1250.32093	6551.9875
1253.8759	6720.4875
1257.42845	6972.8875
1260.97859	7214.2875
1264.52631	7399.4875
1268.07163	7520.5875
1271.61453	7567.5875
1275.15503	7587.8875
1278.69312	7589.8875
1282.22882	7623.3875
1285.76211	7723.4875
1289.29301	7935.2875
1292.82151	8081.8875
1296.34761	8299.4875
1299.87133	8617.1875
1303.39266	9158.5875
1306.9116	10040.4875
1310.42815	10896.4875
1313.94233	11111.9875
1317.45412	10577.6875
1320.96354	9781.3875
1324.47058	9083.0875
1327.97525	8444.4875
1331.47754	8079.2875
1334.97747	8034.1875
1338.47502	8137.4875
1341.97022	8512.0875
1345.46305	9094.8875
1348.95352	9894.1875
1352.44163	10803.5875
1355.92738	11795.6875
1359.41078	13051.4875
1362.89183	14073.4875
1366.37053	13422.3875
1369.84688	11286.5875
1373.32088	9328.5875
1376.79254	8227.1875
1380.26186	7730.2875
1383.72883	7432.7875
1387.19347	7161.1875
1390.65578	6927.1875
1394.11575	6731.9875
1397.57339	6562.6875
1401.0287	6472.2875
1404.48168	6421.5875
1407.93234	6419.6875
1411.38068	6494.7875
1414.82669	6572.3875
1418.27039	6595.3875
1421.71177	6579.3875
1425.15083	6501.6875
1428.58758	6469.1875
1432.02203	6502.8875
1435.45416	6591.4875
1438.88399	6634.6875
1442.31151	6690.6875
1445.73673	6752.2875
1449.15965	6798.6875
1452.58027	6770.4875
1455.9986	6702.2875
1459.41463	6677.1875
1462.82837	6748.0875
1466.23982	6885.4875
1469.64898	7032.4875
1473.05586	7149.6875
1476.46045	7204.5875
1479.86276	7220.0875
1483.26279	7335.2875
1486.66054	7483.0875
1490.05602	7738.9875
1493.44922	8111.3875
1496.84016	8779.5875
1500.22882	9800.3875
1503.61521	11125.6875
1506.99934	12418.1875
1510.38121	13225.2875
1513.76081	13021.1875
1517.13816	11869.9875
1520.51324	10360.7875
1523.88607	9131.3875
1527.25665	8379.5875
1530.62498	8021.7875
1533.99105	7832.0875
1537.35488	7741.0875
1540.71647	7700.0875
1544.07581	7639.6875
1547.4329	7602.9875
1550.78776	7503.5875
1554.14038	7383.9875
1557.49077	7350.7875
1560.83892	7423.7875
1564.18484	7615.9875
1567.52853	7894.1875
1570.86999	8104.7875
1574.20922	8177.1875
1577.54624	8047.6875
1580.88103	7589.7875
1584.2136	7139.0875
1587.54395	6868.7875
1590.87208	6841.0875
1594.19801	7071.4875
1597.52172	7395.9875
1600.84321	7550.4875
1604.16251	7527.9875
1607.47959	7371.6875
1610.79447	7126.7875
1614.10715	6739.4875
1617.41763	6378.4875
1620.7259	6121.1875
1624.03199	5964.7875
1627.33587	5924.9875
1630.63757	5980.1875
1633.93707	6195.4875
1637.23439	6574.2875
1640.52951	7164.1875
1643.82246	8028.7875
1647.11321	8967.9875
1650.40179	9531.7875
1653.68819	9144.8875
1656.97241	8092.6875
1660.25446	6945.0875
1663.53433	6154.1875
1666.81203	5682.5875
1670.08756	5418.9875
1673.36092	5224.8875
1676.63211	5128.5875
1679.90115	5045.2875
1683.16801	5007.8875
1686.43272	4946.0875
1689.69527	4906.9875
1692.95567	4890.3875
1696.2139	4881.5875
1699.46999	4875.9875
1702.72392	4843.7875
1705.97571	4861.7875
1709.22535	4853.0875
1712.47284	4858.4875
1715.71819	4831.0875
1718.96139	4830.7875
1722.20246	4823.9875
1725.44139	4803.7875
1728.67818	4779.2875
1731.91284	4744.4875
1735.14537	4732.4875
1738.37576	4697.8875
1741.60403	4692.9875
1744.83017	4676.2875
1748.05418	4681.8875
1751.27607	4660.5875
1754.49584	4652.1875
1757.71349	4623.8875
1760.92903	4641.5875
1764.14244	4633.5875
1767.35375	4607.7875
1770.56294	4610.0875
1773.77002	4589.2875
1776.97499	4577.4875
1780.17785	4570.5875
1783.37861	4538.7875
1786.57727	4524.9875
1789.77382	4507.7875
1792.96828	4526.6875
1796.16064	4506.9875
1799.3509	4514.5875
1802.53907	4504.7875
1805.72514	4468.2875
1808.90913	4476.8875
1812.09102	4446.6875
1815.27083	4451.4875
1818.44856	4437.8875
1821.6242	4418.9875
1824.79776	4422.4875
1827.96924	4402.6875
1831.13864	4386.0875
1834.30597	4391.5875
1837.47122	4377.5875
1840.6344	4391.4875
1843.7955	4371.7875
1846.95454	4376.1875
1850.11151	4375.9875
1853.26642	4381.7875
1856.41926	4359.1875
1859.57004	4369.3875
1862.71876	4369.7875
1865.86542	4365.9875
1869.01003	4353.9875
1872.15258	4351.2875
1875.29308	4346.2875
1878.43152	4325.5875
1881.56792	4342.0875
1884.70227	4319.1875
1887.83457	4319.6875
1890.96482	4305.4875
1894.09304	4311.8875
1897.21921	4298.8875
1900.34335	4306.1875
1903.46544	4282.8875
1906.58551	4283.6875
1909.70353	4248.5875
1912.81953	4266.8875
1915.93349	4270.7875
1919.04543	4257.5875
1922.15534	4240.2875
1925.26322	4234.5875
1928.36908	4242.8875
1931.47292	4216.8875
1934.57473	4220.2875
1937.67453	4200.8875
1940.77232	4179.0875
1943.86808	4162.2875
1946.96184	4155.3875
1950.05358	4139.7875
1953.14331	4143.0875
1956.23103	4120.0875
1959.31675	4110.7875
1962.40046	4105.8875
1965.48217	4103.5875
1968.56188	4081.1875
1971.63959	4076.5875
1974.7153	4063.4875
1977.78901	4055.7875
1980.86073	4048.7875
1983.93046	4037.9875
1986.99819	4027.5875
1990.06394	4005.1875
1993.1277	3982.4875
1996.18947	3981.5875
1999.24925	3954.9875
2002.30706	3964.9875
2005.36288	3943.8875
2008.41672	3904.0875
2011.46859	3914.8875
2014.51848	3908.8875
2017.56639	3894.9875
2020.61233	3875.6875
2023.6563	3855.5875
2026.6983	3851.7875
2029.73833	3827.1875
2032.7764	3831.1875
2035.8125	3792.5875
2038.84664	3814.3875
2041.87881	3799.9875
2044.90903	3791.7875
2047.93729	3783.6875
2050.96359	3781.5875
2053.98794	3766.7875
2057.01034	3776.1875
2060.03078	3773.9875
2063.04927	3765.9875
2066.06582	3779.6875
2069.08042	3755.1875
2072.09307	3740.1875
2075.10378	3735.4875
2078.11255	3742.5875
2081.11938	3757.1875
2084.12426	3743.9875
2087.12722	3745.3875
2090.12824	3738.4875
2093.12732	3754.2875
2096.12447	3753.6875
2099.11969	3749.7875
2102.11299	3754.7875
2105.10435	3760.2875
2108.09379	3736.9875
2111.08131	3738.1875
2114.0669	3740.7875
2117.05057	3755.2875
2120.03233	3758.1875
2123.01216	3755.7875
2125.99008	3770.1875
2128.96609	3758.5875
2131.94018	3759.1875
2134.91236	3760.8875
2137.88263	3763.1875
2140.851	3759.5875
2143.81746	3757.6875
2146.78201	3757.8875
2149.74466	3753.8875
2152.7054	3753.6875
2155.66425	3739.2875
2158.6212	3751.2875
2161.57625	3760.5875
2164.52941	3746.3875
2167.48067	3744.1875
2170.43004	3734.4875
2173.37752	3736.9875
2176.32311	3733.1875
2179.26681	3754.6875
2182.20863	3743.6875
2185.14856	3736.3875
2188.08661	3732.0875
2191.02278	3737.0875
2193.95707	3726.2875
2196.88948	3723.4875
2199.82001	3714.9875
2202.74867	3716.2875
2205.67545	3702.8875
2208.60037	3703.3875
2211.52341	3707.0875
2214.44458	3693.8875
2217.36388	3693.1875
2220.28132	3696.1875
2223.1969	3674.4875
2226.11061	3659.3875
2229.02246	3661.4875
2231.93245	3643.9875
2234.84058	3660.9875
2237.74686	3638.9875
2240.65128	3649.6875
2243.55385	3632.7875
2246.45456	3614.0875
2249.35343	3631.9875
2252.25044	3628.9875
2255.14561	3622.7875
2258.03893	3627.8875
2260.93041	3618.3875
2263.82004	3615.3875
2266.70783	3601.8875
2269.59378	3585.4875
2272.4779	3582.0875
2275.36017	3571.4875
2278.24061	3557.3875
2281.11922	3565.7875
2283.996	3543.9875
2286.87094	3538.1875
2289.74405	3550.1875
2292.61534	3544.0875
2295.4848	3545.9875
2298.35243	3544.2875
2301.21824	3535.6875
2304.08223	3525.4875
2306.94439	3519.0875
2309.80474	3534.1875
2312.66327	3527.6875
2315.51999	3514.3875
2318.37489	3521.5875
2321.22797	3514.1875
2324.07925	3497.5875
2326.92871	3483.0875
2329.77637	3479.5875
2332.62222	3470.8875
2335.46626	3464.5875
2338.3085	3458.9875
2341.14893	3481.4875
2343.98756	3467.4875
2346.8244	3477.1875
2349.65943	3453.9875
2352.49267	3455.5875
2355.32411	3461.9875
2358.15376	3474.7875
2360.98161	3470.4875
2363.80768	3456.4875
2366.63195	3461.0875
2369.45444	3463.1875
2372.27514	3469.3875
2375.09405	3462.8875
2377.91118	3441.4875
2380.72652	3427.9875
2383.54009	3421.2875
2386.35187	3424.6875
2389.16188	3411.5875
2391.97011	3403.6875
2394.77657	3399.1875
2397.58125	3375.3875
2400.38416	3367.7875
2403.18529	3373.0875
2405.98466	3368.8875
2408.78226	3353.8875
2411.57809	3349.3875
2414.37216	3346.0875
2417.16446	3342.4875
2419.955	3349.6875
2422.74378	3360.8875
2425.5308	3350.8875
2428.31606	3341.7875
2431.09956	3343.3875
2433.88131	3338.2875
2436.6613	3331.3875
2439.43954	3340.0875
2442.21603	3334.2875
2444.99077	3339.3875
2447.76377	3328.4875
2450.53501	3342.3875
2453.30451	3321.6875
2456.07226	3327.7875
2458.83827	3322.2875
2461.60254	3307.5875
2464.36507	3316.7875
2467.12586	3303.5875
2469.88492	3304.0875
2472.64224	3307.8875
2475.39782	3292.4875
2478.15167	3303.9875
2480.90379	3301.1875
2483.65417	3309.1875
2486.40283	3313.6875
2489.14976	3318.2875
2491.89497	3321.0875
2494.63845	3305.8875
2497.3802	3302.2875
2500.12024	3295.6875
2502.85855	3300.4875
2505.59514	3301.1875
2508.33002	3285.1875
2511.06318	3277.3875
2513.79462	3266.1875
2516.52435	3251.2875
2519.25237	3255.0875
2521.97867	3240.2875
2524.70327	3251.2875
2527.42616	3221.5875
2530.14734	3229.1875
2532.86681	3239.7875
2535.58458	3236.1875
2538.30065	3237.0875
2541.01501	3233.4875
2543.72768	3230.9875
2546.43864	3223.9875
2549.14791	3208.4875
2551.85548	3217.8875
2554.56136	3231.9875
2557.26554	3215.2875
2559.96803	3198.9875
2562.66883	3194.6875
2565.36794	3189.8875
2568.06536	3190.1875
2570.7611	3165.7875
2573.45514	3175.4875
2576.14751	3175.3875
2578.83819	3141.8875
2581.52719	3151.3875
2584.21451	3152.5875
2586.90015	3136.2875
2589.58411	3124.5875
2592.2664	3115.8875
2594.94701	3115.4875
2597.62594	3108.2875
2600.30321	3112.5875
2602.9788	3113.1875
2605.65273	3119.7875
2608.32498	3101.6875
2610.99557	3104.2875
2613.66449	3113.6875
2616.33175	3105.7875
2618.99734	3102.0875
2621.66128	3096.0875
2624.32355	3080.6875
2626.98416	3082.0875
2629.64311	3062.4875
2632.30041	3064.0875
2634.95605	3041.9875
2637.61004	3030.6875
2640.26238	3043.7875
2642.91306	3022.7875
2645.56209	3028.7875
2648.20948	3038.6875
2650.85521	3040.7875
2653.4993	3043.5875
2656.14175	3038.4875
2658.78255	3028.3875
2661.42171	3032.2875
2664.05923	3042.4875
2666.6951	3047.0875
2669.32934	3037.0875
2671.96194	3028.5875
2674.59291	3035.3875
2677.22224	3033.3875
2679.84993	3039.6875
2682.476	3025.9875
2685.10043	3038.3875
2687.72324	3022.4875
2690.34441	3021.8875
2692.96396	3021.5875
2695.58188	3020.5875
2698.19818	3023.7875
2700.81285	3038.0875
2703.4259	3025.0875
2706.03733	3019.1875
2708.64714	3038.1875
2711.25533	3010.9875
2713.86191	3009.9875
2716.46687	3002.9875
2719.07021	3026.5875
2721.67194	3029.1875
2724.27206	3017.6875
2726.87057	3008.9875
2729.46747	3013.4875
2732.06276	2999.0875
2734.65644	2996.9875
2737.24852	3000.5875
2739.83899	3012.5875
2742.42786	3005.0875
2745.01513	2991.1875
2747.60079	2992.1875
2750.18486	2981.0875
2752.76733	2981.3875
2755.3482	2979.2875
2757.92747	2971.7875
2760.50515	2961.0875
2763.08123	2961.4875
2765.65573	2951.4875
2768.22863	2940.7875
2770.79994	2937.0875
2773.36967	2936.5875
2775.9378	2936.6875
2778.50435	2934.5875
2781.06932	2927.3875
2783.6327	2929.8875
2786.1945	2926.6875
2788.75471	2928.0875
2791.31335	2909.1875
2793.87041	2904.4875
2796.42589	2904.6875
2798.97979	2901.6875
2801.53212	2905.3875
2804.08288	2903.7875
2806.63206	2901.0875
2809.17967	2889.7875
2811.72571	2866.8875
2814.27018	2871.7875
2816.81308	2870.5875
2819.35442	2868.4875
2821.89419	2861.7875
2824.43239	2841.7875
2826.96904	2852.7875
2829.50412	2844.7875
2832.03763	2834.8875
2834.56959	2825.9875
2837.1	2813.2875
2839.62884	2816.8875
2842.15613	2810.1875
2844.68186	2802.7875
2847.20604	2795.2875
2849.72867	2801.0875
2852.24974	2804.4875
2854.76927	2801.6875
2857.28724	2795.5875
2859.80367	2785.0875
2862.31855	2783.7875
2864.83189	2782.5875
2867.34368	2788.2875
2869.85393	2790.3875
2872.36264	2774.6875
2874.8698	2779.2875
2877.37543	2780.4875
2879.87952	2779.2875
2882.38207	2759.3875
2884.88308	2771.3875
2887.38256	2750.9875
2889.88051	2754.0875
2892.37692	2755.5875
2894.8718	2750.6875
2897.36515	2741.1875
2899.85698	2742.1875
2902.34727	2750.5875
2904.83604	2750.3875
2907.32328	2766.9875
2909.809	2760.8875
2912.29319	2771.4875
2914.77587	2768.2875
2917.25702	2769.9875
2919.73665	2763.9875
2922.21476	2765.0875
2924.69136	2763.0875
2927.16644	2761.0875
2929.64	2744.8875
2932.11205	2744.1875
2934.58258	2729.3875
2937.05161	2724.3875
2939.51912	2728.2875
2941.98513	2728.4875
2944.44962	2719.5875
2946.91261	2699.5875
2949.37409	2729.2875
2951.83407	2725.1875
2954.29254	2718.0875
2956.74951	2709.9875
2959.20498	2695.7875
2961.65895	2693.8875
2964.11142	2697.0875
2966.56239	2692.7875
2969.01186	2689.4875
2971.45984	2689.2875
2973.90632	2690.3875
2976.35131	2671.7875
2978.7948	2681.8875
2981.23681	2682.7875
2983.67732	2671.2875
2986.11635	2657.7875
2988.55388	2659.8875
2990.98993	2658.8875
2993.4245	2641.9875
2995.85758	2642.0875
2998.28917	2639.7875
3000.71928	2647.5875
3003.14791	2638.0875
3005.57506	2630.8875
3008.00073	2612.2875
3010.42493	2617.7875
3012.84764	2612.6875
3015.26888	2612.0875
3017.68865	2603.7875
3020.10694	2587.9875
3022.52376	2583.7875
3024.9391	2575.8875
3027.35298	2552.7875
3029.76539	2558.7875
3032.17632	2552.7875
3034.5858	2548.8875
3036.9938	2547.9875
3039.40034	2540.2875
3041.80542	2536.1875
3044.20903	2532.2875
3046.61118	2536.7875
3049.01187	2531.5875
3051.4111	2515.0875
3053.80888	2511.6875
3056.20519	2511.7875
3058.60005	2503.3875
3060.99345	2511.5875
3063.3854	2492.7875
3065.7759	2489.8875
3068.16494	2485.5875
3070.55254	2479.0875
3072.93868	2466.7875
3075.32338	2453.1875
3077.70662	2440.4875
3080.08842	2448.4875
3082.46878	2442.6875
3084.84769	2445.1875
3087.22515	2434.5875
3089.60118	2433.4875
3091.97576	2433.9875
3094.3489	2431.9875
3096.72061	2425.9875
3099.09087	2425.1875
3101.4597	2422.5875
3103.82709	2417.5875
3106.19305	2418.7875
3108.55757	2411.7875
3110.92066	2405.3875
3113.28232	2406.8875
3115.64255	2397.2875
3118.00134	2387.1875
3120.35871	2394.7875
3122.71466	2389.0875
3125.06917	2372.0875
3127.42226	2367.2875
3129.77393	2373.3875
3132.12417	2355.1875
3134.47299	2372.7875
3136.82039	2367.9875
3139.16636	2361.4875
3141.51092	2353.9875
3143.85406	2342.0875
3146.19579	2354.3875
3148.53609	2349.3875
3150.87499	2360.4875
3153.21246	2351.6875
3155.54853	2357.6875
3157.88318	2363.6875
3160.21642	2357.5875
3162.54826	2351.9875
3164.87868	2354.6875
3167.2077	2347.7875
3169.5353	2336.7875
3171.86151	2333.3875
3174.18631	2344.3875
3176.5097	2347.2875
3178.83169	2333.8875
3181.15228	2327.9875
3183.47147	2309.6875
3185.78926	2316.0875
3188.10565	2300.3875
3190.42065	2300.8875
3192.73424	2291.8875
3195.04645	2305.5875
3197.35725	2302.2875
3199.66667	2291.7875
3201.97469	2294.9875
3204.28132	2295.7875
3206.58656	2284.3875
3208.8904	2294.5875
3211.19287	2299.8875
3213.49394	2294.0875
3215.79363	2296.8875
3218.09193	2302.1875
3220.38884	2290.3875
3222.68438	2291.8875
3224.97853	2285.8875
3227.2713	2279.0875
3229.56269	2279.9875
3231.8527	2279.8875
3234.14133	2273.9875
3236.42858	2262.8875
3238.71446	2253.9875
3240.99896	2240.9875
3243.28209	2251.3875
3245.56384	2243.7875
3247.84423	2240.9875
3250.12324	2242.0875
3252.40088	2234.9875
3254.67715	2246.3875
3256.95205	2226.3875
3259.22558	2226.0875
3261.49775	2229.5875
3263.76855	2231.3875
3266.03799	2220.4875
3268.30606	2214.8875
3270.57277	2215.4875
3272.83812	2214.7875
3275.10211	2200.0875
3277.36474	2216.6875
3279.62601	2193.1875
3281.88593	2185.5875
3284.14448	2187.7875
3286.40168	2197.6875
3288.65753	2181.4875
3290.91202	2180.3875
3293.16516	2185.1875
3295.41695	2183.5875
3297.66738	2168.0875
3299.91647	2152.4875
3302.16421	2134.6875
3304.4106	2131.1875
3306.65564	2118.7875
3308.89933	2106.9875
3311.14169	2084.0875
3313.38269	2066.8875
3315.62236	2055.2875
3317.86068	2043.0875
3320.09766	2032.2875
3322.3333	2004.3875
3324.5676	2004.8875
3326.80056	1958.9875
3329.03219	1952.7875
3331.26248	0.5875
3333.49143	0.6875
3335.71905	-0.8125
