Data from AgNPs_UA_10uM_CRN_500uM_SU_RamanShift__146__13-29-40-282.txt Node

Date: Thu Aug 04 13:29:40 BST 2022
User: TCL
Spectrometer: QEP01345
Trigger mode: 4
Integration Time (sec): 1.000000E0
Scans to average: 10
Electric dark correction enabled: true
Nonlinearity correction enabled: false
Boxcar width: 0
XAxis mode: Raman Shifts
Number of Pixels in Spectrum: 1044
>>>>>Begin Spectral Data<<<<<
46.04893	-0.2
50.45542	0.2
54.85868	0.1
59.25871	0
63.6555	19.5
68.04907	20.5
72.43941	21.1
76.82654	21.2
81.21044	24.1
85.59113	23.7
89.96862	23.1
94.34289	23.3
98.71396	25.6
103.08183	26.7
107.4465	28
111.80798	27.4
116.16626	30.4
120.52136	32.8
124.87327	33.1
129.222	34.3
133.56755	34.8
137.90993	38.2
142.24913	42.5
146.58517	47.9
150.91804	57.3
155.24774	72.1
159.57429	88.6
163.89768	114.1
168.21792	153.1
172.53501	211.7
176.84895	294.1
181.15975	417.6
185.46741	587
189.77193	813
194.07331	1085
198.37157	1395.8
202.6667	1727.9
206.9587	2044.7
211.24758	2367.8
215.53334	2696.3
219.81599	3032.7
224.09553	3421.4
228.37195	3851.1
232.64527	4324.5
236.91549	4785
241.18261	5229.4
245.44663	5626.6
249.70755	5915.5
253.96539	6186
258.22014	6436.2
262.4718	6644.2
266.72039	6755.1
270.96589	6844
275.20832	6828.4
279.44768	6726.7
283.68397	6624.5
287.91719	6557
292.14735	6552.9
296.37445	6631.8
300.59849	6782.2
304.81948	6963.7
309.03742	7097
313.25231	7153
317.46415	7060
321.67296	6859.9
325.87872	6652.1
330.08145	6580.2
334.28114	6607.9
338.47781	6681.4
342.67145	6780.8
346.86207	6970.5
351.04966	7211.1
355.23424	7465.5
359.4158	7680.7
363.59435	7824
367.76989	7902.5
371.94243	7927
376.11196	7962
380.27849	7995.7
384.44203	8028.1
388.60257	8052.8
392.76012	8120.4
396.91468	8209.5
401.06626	8364.6
405.21485	8435.2
409.36047	8365.9
413.50311	8149.5
417.64277	7949.4
421.77947	7836.9
425.9132	7786.1
430.04396	7805.7
434.17176	7920.4
438.2966	8071
442.41849	8280.6
446.53742	8577.4
450.6534	8825
454.76644	8999.7
458.87653	9027.3
462.98368	8932.3
467.08789	8715.1
471.18916	8510.6
475.2875	8263.6
479.38291	8098.3
483.4754	7949.9
487.56496	7876.6
491.6516	7819.5
495.73531	7788.9
499.81612	7807.9
503.89401	7857.3
507.96899	7898.2
512.04106	7934
516.11023	7993.5
520.1765	8082.2
524.23987	8107.5
528.30034	8111.6
532.35792	8052.4
536.41261	7953.8
540.46441	7865.9
544.51333	7827
548.55936	7892.9
552.60252	8010.7
556.64279	8162.9
560.6802	8220.1
564.71473	8211.5
568.7464	8288.9
572.7752	8294.4
576.80114	8210
580.82422	8169.1
584.84444	8220.9
588.86181	8373.4
592.87633	8599.8
596.888	8801.9
600.89682	9113.5
604.9028	10007.9
608.90594	11778.7
612.90624	13329
616.90371	12155
620.89834	9854.4
624.89015	9001.7
628.87913	8962.8
632.86528	8900.5
636.84862	8737.9
640.82913	8476.6
644.80683	8159.2
648.78172	8016.6
652.75379	8058.9
656.72306	8298.8
660.68952	8523.9
664.65319	8489.4
668.61405	8392.4
672.57211	8395.8
676.52738	8366.7
680.47986	8220.2
684.42955	8117.1
688.37646	8142.6
692.32058	8205.5
696.26192	8355.4
700.20048	8474.9
704.13626	8493.2
708.06928	8356.7
711.99952	8265.4
715.927	8275
719.85171	8343.7
723.77365	8312.3
727.69284	8233.9
731.60928	8197.6
735.52295	8195.4
739.43388	8270.1
743.34206	8339.9
747.24749	8354.4
751.15017	8389.7
755.05012	8495.3
758.94733	8798.8
762.8418	9415.3
766.73354	10321.6
770.62254	11173.7
774.50882	11408.2
778.39237	11000.1
782.27321	10155.5
786.15132	9348.9
790.02671	8836.6
793.89938	8569.6
797.76935	8476.5
801.6366	8414.2
805.50115	8367.4
809.36299	8325
813.22213	8287.3
817.07857	8277.6
820.93231	8258.8
824.78336	8283.7
828.63172	8305.3
832.47738	8309.7
836.32036	8347.4
840.16066	8420.9
843.99827	8432.6
847.8332	8409.2
851.66546	8383.4
855.49504	8367.8
859.32195	8359.4
863.1462	8341
866.96777	8314.4
870.78668	8301.8
874.60293	8316.7
878.41652	8348.6
882.22745	8412.2
886.03573	8462.4
889.84136	8465.2
893.64433	8405.1
897.44466	8367.7
901.24235	8360.5
905.0374	8337.6
908.8298	8312.6
912.61957	8320.4
916.40671	8376.7
920.19121	8482.2
923.97308	8575.5
927.75233	8666.7
931.52895	8744.5
935.30295	8674.8
939.07433	8504.4
942.84309	8369.4
946.60924	8351.7
950.37278	8319.4
954.13371	8259
957.89203	8224
961.64774	8197.1
965.40086	8154.6
969.15137	8135.9
972.89929	8161
976.64461	8163.6
980.38733	8194.1
984.12747	8234.1
987.86502	8323
991.59999	8427.1
995.33237	8628.9
999.06217	8976.3
1002.78939	9324.9
1006.51404	9448.5
1010.23611	9500.4
1013.95561	9587.1
1017.67255	9680.6
1021.38692	9708.2
1025.09872	9722.2
1028.80796	9900.8
1032.51465	10237.9
1036.21877	10453.9
1039.92035	10408.8
1043.61937	10176.1
1047.31584	9845
1051.00976	9539.7
1054.70114	9397.4
1058.38998	9373
1062.07627	9361.8
1065.76003	9347.2
1069.44126	9359.2
1073.11995	9473.3
1076.79611	9601.6
1080.46974	9682.6
1084.14085	9802.9
1087.80943	9870.1
1091.47549	9894.6
1095.13903	9749.5
1098.80005	9640.1
1102.45857	9583.6
1106.11456	9585.4
1109.76805	9603.2
1113.41903	9648.7
1117.06751	9800.9
1120.71348	9981.7
1124.35696	10130.6
1127.99793	10242
1131.63641	10113.7
1135.2724	9895.9
1138.90589	9716.8
1142.5369	9507.9
1146.16542	9422.4
1149.79145	9348.6
1153.415	9327.9
1157.03607	9378.4
1160.65467	9519.9
1164.27079	9778.8
1167.88443	10148.7
1171.49561	10752.9
1175.10432	11600.8
1178.71056	12658.2
1182.31434	13635.4
1185.91565	14176.7
1189.51451	14195.8
1193.11091	13688.6
1196.70485	13030.2
1200.29634	12416.4
1203.88538	11866.3
1207.47197	11382.4
1211.05612	10959.3
1214.63782	10730.5
1218.21708	10679.2
1221.79391	10799.6
1225.36829	10884.6
1228.94024	10828.8
1232.50976	10664.2
1236.07685	10582.4
1239.6415	10527
1243.20374	10595.5
1246.76355	10691.1
1250.32093	10820.3
1253.8759	11064.7
1257.42845	11403.7
1260.97859	11706
1264.52631	12004.3
1268.07163	12259.7
1271.61453	12534.1
1275.15503	12740.3
1278.69312	13032
1282.22882	13303.2
1285.76211	13517.4
1289.29301	13638.6
1292.82151	13862.2
1296.34761	14196.5
1299.87133	14740.7
1303.39266	15700.8
1306.9116	17075.2
1310.42815	18439.5
1313.94233	19076.8
1317.45412	18662.5
1320.96354	17607.4
1324.47058	16541.7
1327.97525	15701.9
1331.47754	15319.2
1334.97747	15292.4
1338.47502	15543.7
1341.97022	15968
1345.46305	16519.1
1348.95352	17131.3
1352.44163	17911.9
1355.92738	18858.8
1359.41078	20125
1362.89183	20813.6
1366.37053	19716.3
1369.84688	17333.5
1373.32088	15140.8
1376.79254	13869
1380.26186	13281.2
1383.72883	12978.3
1387.19347	12659.2
1390.65578	12282.9
1394.11575	11993.4
1397.57339	11841.7
1401.0287	11907
1404.48168	12052
1407.93234	12230.2
1411.38068	12493.8
1414.82669	12610.1
1418.27039	12510.2
1421.71177	12346.3
1425.15083	12239.6
1428.58758	12248.9
1432.02203	12442.2
1435.45416	12656.9
1438.88399	12658.4
1442.31151	12617.8
1445.73673	12531.6
1449.15965	12500
1452.58027	12381.9
1455.9986	12244.3
1459.41463	12220.9
1462.82837	12342.3
1466.23982	12569.9
1469.64898	12803.4
1473.05586	12968.2
1476.46045	13110.2
1479.86276	13258.9
1483.26279	13376.6
1486.66054	13498.9
1490.05602	13767.8
1493.44922	14129.6
1496.84016	14718
1500.22882	15444.3
1503.61521	16428.1
1506.99934	17399.2
1510.38121	17909.3
1513.76081	17604.9
1517.13816	16560.9
1520.51324	15294.6
1523.88607	14317.9
1527.25665	13774.7
1530.62498	13514.1
1533.99105	13396.9
1537.35488	13319.3
1540.71647	13288.7
1544.07581	13167.3
1547.4329	13049.1
1550.78776	12866.7
1554.14038	12669.8
1557.49077	12559
1560.83892	12563.8
1564.18484	12662.6
1567.52853	12784.9
1570.86999	12860.6
1574.20922	12820.5
1577.54624	12662.1
1580.88103	12274.2
1584.2136	11946.1
1587.54395	11971.1
1590.87208	12441.5
1594.19801	13331.3
1597.52172	14436.1
1600.84321	15009.7
1604.16251	14844.4
1607.47959	14104
1610.79447	13116.2
1614.10715	12105.7
1617.41763	11289.9
1620.7259	10752.4
1624.03199	10511.5
1627.33587	10508.3
1630.63757	10832.5
1633.93707	11421.2
1637.23439	12310.2
1640.52951	13414.1
1643.82246	14617.7
1647.11321	15433.4
1650.40179	15314.7
1653.68819	14136.8
1656.97241	12375.9
1660.25446	10912
1663.53433	9955.8
1666.81203	9382.8
1670.08756	9026.2
1673.36092	8806.9
1676.63211	8634.7
1679.90115	8540.5
1683.16801	8408.4
1686.43272	8354.4
1689.69527	8307.3
1692.95567	8269.2
1696.2139	8241.5
1699.46999	8227.6
1702.72392	8208.2
1705.97571	8203.4
1709.22535	8190.1
1712.47284	8200.4
1715.71819	8191.2
1718.96139	8177.1
1722.20246	8168.5
1725.44139	8128.9
1728.67818	8091.6
1731.91284	8052.1
1735.14537	8021.6
1738.37576	7974.8
1741.60403	7936
1744.83017	7937.6
1748.05418	7930.7
1751.27607	7918.5
1754.49584	7895.3
1757.71349	7896.7
1760.92903	7909.8
1764.14244	7885.9
1767.35375	7857.2
1770.56294	7871.4
1773.77002	7839.3
1776.97499	7814.9
1780.17785	7791.6
1783.37861	7793.2
1786.57727	7782
1789.77382	7786.7
1792.96828	7754.5
1796.16064	7762.8
1799.3509	7746.1
1802.53907	7753.3
1805.72514	7738.4
1808.90913	7701.5
1812.09102	7702.3
1815.27083	7660.8
1818.44856	7653.1
1821.6242	7643.1
1824.79776	7623.3
1827.96924	7613.8
1831.13864	7610.1
1834.30597	7617.4
1837.47122	7580.5
1840.6344	7561.2
1843.7955	7582.5
1846.95454	7586.6
1850.11151	7575.9
1853.26642	7595.4
1856.41926	7578.9
1859.57004	7602.1
1862.71876	7588
1865.86542	7575.9
1869.01003	7594.9
1872.15258	7564.3
1875.29308	7542.4
1878.43152	7574.1
1881.56792	7550
1884.70227	7533.4
1887.83457	7527.2
1890.96482	7524.9
1894.09304	7485.8
1897.21921	7523.8
1900.34335	7486.8
1903.46544	7482.5
1906.58551	7474.2
1909.70353	7475.8
1912.81953	7474.6
1915.93349	7496.1
1919.04543	7460.1
1922.15534	7443.5
1925.26322	7454.5
1928.36908	7423.8
1931.47292	7424.7
1934.57473	7407.5
1937.67453	7395.2
1940.77232	7406.3
1943.86808	7377.3
1946.96184	7353.4
1950.05358	7325.6
1953.14331	7309.2
1956.23103	7279
1959.31675	7244.3
1962.40046	7245
1965.48217	7216.6
1968.56188	7178.3
1971.63959	7169.1
1974.7153	7131.8
1977.78901	7170.9
1980.86073	7142.5
1983.93046	7098.3
1986.99819	7085
1990.06394	7064.5
1993.1277	7060.3
1996.18947	7020.3
1999.24925	7011.5
2002.30706	6978.5
2005.36288	6945.5
2008.41672	6919.3
2011.46859	6901.5
2014.51848	6899.5
2017.56639	6876.1
2020.61233	6842.4
2023.6563	6840.5
2026.6983	6833.3
2029.73833	6824.9
2032.7764	6779.2
2035.8125	6802.8
2038.84664	6776.6
2041.87881	6756.4
2044.90903	6748.3
2047.93729	6756.5
2050.96359	6750.4
2053.98794	6733.1
2057.01034	6729.7
2060.03078	6730.8
2063.04927	6712
2066.06582	6709.8
2069.08042	6706.4
2072.09307	6705.8
2075.10378	6673.1
2078.11255	6684.6
2081.11938	6651.2
2084.12426	6653.1
2087.12722	6642.4
2090.12824	6645
2093.12732	6651.2
2096.12447	6657.6
2099.11969	6664.5
2102.11299	6659.1
2105.10435	6626.8
2108.09379	6663.6
2111.08131	6654.5
2114.0669	6660.8
2117.05057	6678.1
2120.03233	6685.3
2123.01216	6697.8
2125.99008	6676.1
2128.96609	6689.8
2131.94018	6696
2134.91236	6690.8
2137.88263	6687.9
2140.851	6686.3
2143.81746	6684.6
2146.78201	6695.6
2149.74466	6692.7
2152.7054	6693.9
2155.66425	6705.1
2158.6212	6699.2
2161.57625	6670.4
2164.52941	6674.7
2167.48067	6667.5
2170.43004	6681.4
2173.37752	6666.3
2176.32311	6688
2179.26681	6672.7
2182.20863	6687.9
2185.14856	6695.7
2188.08661	6674.6
2191.02278	6690.5
2193.95707	6699.2
2196.88948	6661.3
2199.82001	6693.2
2202.74867	6679.7
2205.67545	6700.8
2208.60037	6698.3
2211.52341	6678.9
2214.44458	6667.6
2217.36388	6642.7
2220.28132	6649.7
2223.1969	6625.7
2226.11061	6618.1
2229.02246	6597.4
2231.93245	6588.7
2234.84058	6593.2
2237.74686	6571.2
2240.65128	6571.3
2243.55385	6542.3
2246.45456	6558.8
2249.35343	6524.7
2252.25044	6524.1
2255.14561	6513.4
2258.03893	6518
2260.93041	6501.2
2263.82004	6483
2266.70783	6480
2269.59378	6462.7
2272.4779	6437.1
2275.36017	6408.4
2278.24061	6412.2
2281.11922	6392.1
2283.996	6364.7
2286.87094	6362
2289.74405	6383.8
2292.61534	6378.2
2295.4848	6348.5
2298.35243	6367
2301.21824	6344
2304.08223	6345.5
2306.94439	6365.9
2309.80474	6377.6
2312.66327	6367
2315.51999	6364.9
2318.37489	6364.2
2321.22797	6383
2324.07925	6354.1
2326.92871	6342.5
2329.77637	6341.5
2332.62222	6331.4
2335.46626	6342
2338.3085	6346.3
2341.14893	6354.5
2343.98756	6360.8
2346.8244	6375.6
2349.65943	6366.4
2352.49267	6343.2
2355.32411	6338.2
2358.15376	6342.4
2360.98161	6343.9
2363.80768	6325.7
2366.63195	6320.2
2369.45444	6298.1
2372.27514	6316.7
2375.09405	6273.6
2377.91118	6263.9
2380.72652	6238.5
2383.54009	6236.2
2386.35187	6227.2
2389.16188	6200.1
2391.97011	6195.3
2394.77657	6199.2
2397.58125	6170.9
2400.38416	6165.6
2403.18529	6163.6
2405.98466	6156.6
2408.78226	6119.1
2411.57809	6122.1
2414.37216	6101.7
2417.16446	6085.9
2419.955	6090.1
2422.74378	6069.7
2425.5308	6084.2
2428.31606	6074.7
2431.09956	6070.2
2433.88131	6064.6
2436.6613	6049.4
2439.43954	6063.4
2442.21603	6058.2
2444.99077	6038.1
2447.76377	6054.7
2450.53501	6043.7
2453.30451	6054.9
2456.07226	6032.4
2458.83827	6016.2
2461.60254	6012.6
2464.36507	6014.9
2467.12586	6013.3
2469.88492	6000.8
2472.64224	6020.7
2475.39782	6012.6
2478.15167	6006.5
2480.90379	6002.7
2483.65417	6007.9
2486.40283	6003.7
2489.14976	6036.7
2491.89497	6031.5
2494.63845	6042.8
2497.3802	6025.3
2500.12024	6029.3
2502.85855	6003.7
2505.59514	6010.3
2508.33002	6004.8
2511.06318	5982.8
2513.79462	5977.8
2516.52435	5973.1
2519.25237	5961.2
2521.97867	5943.9
2524.70327	5942.6
2527.42616	5934.5
2530.14734	5929.1
2532.86681	5932.5
2535.58458	5954.5
2538.30065	5929.9
2541.01501	5956.9
2543.72768	5935.3
2546.43864	5920.4
2549.14791	5907.7
2551.85548	5918.8
2554.56136	5919.9
2557.26554	5896.2
2559.96803	5882.7
2562.66883	5862.7
2565.36794	5867.5
2568.06536	5856.7
2570.7611	5841.2
2573.45514	5837.6
2576.14751	5846.2
2578.83819	5842.1
2581.52719	5839.3
2584.21451	5838
2586.90015	5845.5
2589.58411	5823.9
2592.2664	5828.2
2594.94701	5816.1
2597.62594	5823
2600.30321	5813.2
2602.9788	5807.1
2605.65273	5815.2
2608.32498	5806.2
2610.99557	5805.5
2613.66449	5794.1
2616.33175	5809.4
2618.99734	5799
2621.66128	5813
2624.32355	5787.6
2626.98416	5802.6
2629.64311	5793.6
2632.30041	5823.6
2634.95605	5797.5
2637.61004	5782.9
2640.26238	5774.3
2642.91306	5771.9
2645.56209	5772.7
2648.20948	5762.7
2650.85521	5747.2
2653.4993	5758
2656.14175	5732.5
2658.78255	5740.6
2661.42171	5710.5
2664.05923	5740.7
2666.6951	5768.8
2669.32934	5776.6
2671.96194	5773.5
2674.59291	5759.3
2677.22224	5763.6
2679.84993	5759.6
2682.476	5747
2685.10043	5729.4
2687.72324	5732.8
2690.34441	5741.4
2692.96396	5723.6
2695.58188	5720.6
2698.19818	5720.5
2700.81285	5693.3
2703.4259	5706.6
2706.03733	5692.4
2708.64714	5684.8
2711.25533	5690.2
2713.86191	5698.5
2716.46687	5706.5
2719.07021	5712.9
2721.67194	5706.3
2724.27206	5726
2726.87057	5704.8
2729.46747	5705.6
2732.06276	5706.7
2734.65644	5713.1
2737.24852	5692.1
2739.83899	5683.9
2742.42786	5698.3
2745.01513	5671.4
2747.60079	5657.7
2750.18486	5669.5
2752.76733	5670.2
2755.3482	5644
2757.92747	5633
2760.50515	5619.6
2763.08123	5642.6
2765.65573	5623.6
2768.22863	5608.4
2770.79994	5612.7
2773.36967	5618
2775.9378	5626
2778.50435	5633.6
2781.06932	5613.9
2783.6327	5634.1
2786.1945	5626.8
2788.75471	5609.7
2791.31335	5597.3
2793.87041	5585.5
2796.42589	5571.1
2798.97979	5554.8
2801.53212	5542.6
2804.08288	5541.9
2806.63206	5533.6
2809.17967	5531.5
2811.72571	5525.5
2814.27018	5519.9
2816.81308	5502.8
2819.35442	5500
2821.89419	5502.7
2824.43239	5479.7
2826.96904	5494.1
2829.50412	5464.2
2832.03763	5452.3
2834.56959	5457.7
2837.1	5451.4
2839.62884	5424
2842.15613	5439.1
2844.68186	5450.5
2847.20604	5430.9
2849.72867	5427.6
2852.24974	5414
2854.76927	5407.8
2857.28724	5383.3
2859.80367	5383.2
2862.31855	5383.8
2864.83189	5384
2867.34368	5379.4
2869.85393	5367.4
2872.36264	5353
2874.8698	5364.6
2877.37543	5356.7
2879.87952	5346.7
2882.38207	5345.2
2884.88308	5335
2887.38256	5362.1
2889.88051	5335.6
2892.37692	5342.1
2894.8718	5333.9
2897.36515	5337.7
2899.85698	5332.3
2902.34727	5347.2
2904.83604	5345.5
2907.32328	5357.3
2909.809	5371
2912.29319	5358.1
2914.77587	5377.7
2917.25702	5388.2
2919.73665	5347.5
2922.21476	5361.4
2924.69136	5346.5
2927.16644	5355.4
2929.64	5325
2932.11205	5325.6
2934.58258	5285.1
2937.05161	5296.9
2939.51912	5321.3
2941.98513	5298.5
2944.44962	5291.7
2946.91261	5272.3
2949.37409	5297.5
2951.83407	5301.2
2954.29254	5290.9
2956.74951	5281.8
2959.20498	5279.9
2961.65895	5281.7
2964.11142	5266.6
2966.56239	5258.9
2969.01186	5262.8
2971.45984	5258.8
2973.90632	5242.8
2976.35131	5228.9
2978.7948	5223.4
2981.23681	5217.7
2983.67732	5196.9
2986.11635	5180.5
2988.55388	5164.5
2990.98993	5144.8
2993.4245	5130.3
2995.85758	5113.4
2998.28917	5109.8
3000.71928	5110.1
3003.14791	5078.7
3005.57506	5090.9
3008.00073	5067.9
3010.42493	5046
3012.84764	5035.7
3015.26888	5052.4
3017.68865	5028.9
3020.10694	5014.8
3022.52376	5009.4
3024.9391	4984.4
3027.35298	4957.6
3029.76539	4975.6
3032.17632	4961.7
3034.5858	4976.2
3036.9938	4941.6
3039.40034	4945.5
3041.80542	4917.1
3044.20903	4911.6
3046.61118	4917.5
3049.01187	4911.1
3051.4111	4910.9
3053.80888	4879.2
3056.20519	4869.6
3058.60005	4857.4
3060.99345	4840.1
3063.3854	4825.2
3065.7759	4809.7
3068.16494	4801.1
3070.55254	4776.5
3072.93868	4759.5
3075.32338	4755.7
3077.70662	4748.8
3080.08842	4749.3
3082.46878	4738.3
3084.84769	4717.4
3087.22515	4707.5
3089.60118	4703.5
3091.97576	4702.5
3094.3489	4694.5
3096.72061	4710.8
3099.09087	4688
3101.4597	4699.5
3103.82709	4686.3
3106.19305	4694.1
3108.55757	4688.5
3110.92066	4668.1
3113.28232	4651.2
3115.64255	4651
3118.00134	4650.3
3120.35871	4630.7
3122.71466	4629.8
3125.06917	4614.3
3127.42226	4583
3129.77393	4606
3132.12417	4591.4
3134.47299	4575.4
3136.82039	4564.7
3139.16636	4574.6
3141.51092	4580.2
3143.85406	4561
3146.19579	4560.8
3148.53609	4544.6
3150.87499	4550.4
3153.21246	4563.1
3155.54853	4545.4
3157.88318	4550.7
3160.21642	4555.8
3162.54826	4533.1
3164.87868	4549.1
3167.2077	4520.6
3169.5353	4519.1
3171.86151	4523.2
3174.18631	4516.3
3176.5097	4488.6
3178.83169	4490.1
3181.15228	4492.2
3183.47147	4471.3
3185.78926	4483.6
3188.10565	4435.7
3190.42065	4444.3
3192.73424	4451
3195.04645	4454.6
3197.35725	4460.4
3199.66667	4428.1
3201.97469	4452.8
3204.28132	4439
3206.58656	4454.3
3208.8904	4431
3211.19287	4451.1
3213.49394	4420.2
3215.79363	4432.4
3218.09193	4429.2
3220.38884	4428.4
3222.68438	4433.5
3224.97853	4422.2
3227.2713	4437
3229.56269	4414.2
3231.8527	4409.2
3234.14133	4408.3
3236.42858	4392.5
3238.71446	4386.5
3240.99896	4375.4
3243.28209	4373.7
3245.56384	4355.2
3247.84423	4369.1
3250.12324	4336.8
3252.40088	4351.3
3254.67715	4340
3256.95205	4331.3
3259.22558	4331.6
3261.49775	4315.2
3263.76855	4334.8
3266.03799	4328.7
3268.30606	4339.9
3270.57277	4323.5
3272.83812	4314.3
3275.10211	4289
3277.36474	4285.3
3279.62601	4296.8
3281.88593	4281.3
3284.14448	4258.4
3286.40168	4262.7
3288.65753	4275.1
3290.91202	4278.4
3293.16516	4259.1
3295.41695	4248.6
3297.66738	4230.8
3299.91647	4221.2
3302.16421	4199.6
3304.4106	4158.1
3306.65564	4157.2
3308.89933	4111.1
3311.14169	4079.5
3313.38269	4040.3
3315.62236	4015
3317.86068	3997.5
3320.09766	3967.2
3322.3333	3938.1
3324.5676	3909.5
3326.80056	3844.1
3329.03219	3820.3
3331.26248	0.7
3333.49143	0.1
3335.71905	-0.1
