Data from AgNPs_UA_20uM_CRN_500uM_SU_RamanShift__46__13-44-10-300.txt Node

Date: Thu Aug 04 13:44:10 BST 2022
User: TCL
Spectrometer: QEP01345
Trigger mode: 4
Integration Time (sec): 1.000000E0
Scans to average: 10
Electric dark correction enabled: true
Nonlinearity correction enabled: false
Boxcar width: 0
XAxis mode: Raman Shifts
Number of Pixels in Spectrum: 1044
>>>>>Begin Spectral Data<<<<<
46.04893	-0.9625
50.45542	-0.9625
54.85868	-0.1625
59.25871	0.4375
63.6555	19.5375
68.04907	16.8375
72.43941	20.2375
76.82654	18.7375
81.21044	20.8375
85.59113	22.6375
89.96862	22.1375
94.34289	24.7375
98.71396	24.6375
103.08183	24.3375
107.4465	22.5375
111.80798	27.1375
116.16626	28.1375
120.52136	30.8375
124.87327	28.2375
129.222	33.4375
133.56755	31.6375
137.90993	34.0375
142.24913	40.2375
146.58517	46.8375
150.91804	53.7375
155.24774	67.0375
159.57429	84.5375
163.89768	108.6375
168.21792	144.3375
172.53501	198.0375
176.84895	274.5375
181.15975	392.2375
185.46741	556.7375
189.77193	774.2375
194.07331	1032.3375
198.37157	1338.9375
202.6667	1649.8375
206.9587	1973.1375
211.24758	2294.8375
215.53334	2610.8375
219.81599	2955.6375
224.09553	3346.0375
228.37195	3763.5375
232.64527	4207.1375
236.91549	4685.4375
241.18261	5091.3375
245.44663	5423.3375
249.70755	5721.8375
253.96539	5962.5375
258.22014	6170.2375
262.4718	6366.1375
266.72039	6513.2375
270.96589	6532.3375
275.20832	6517.2375
279.44768	6444.7375
283.68397	6310.2375
287.91719	6248.6375
292.14735	6234.5375
296.37445	6321.0375
300.59849	6480.3375
304.81948	6690.5375
309.03742	6886.1375
313.25231	6969.3375
317.46415	6912.4375
321.67296	6650.9375
325.87872	6430.9375
330.08145	6332.2375
334.28114	6320.5375
338.47781	6382.9375
342.67145	6530.2375
346.86207	6701.4375
351.04966	6927.0375
355.23424	7187.0375
359.4158	7381.1375
363.59435	7473.8375
367.76989	7506.6375
371.94243	7539.7375
376.11196	7538.4375
380.27849	7558.4375
384.44203	7560.3375
388.60257	7596.1375
392.76012	7646.8375
396.91468	7752.9375
401.06626	7859.5375
405.21485	7910.1375
409.36047	7796.3375
413.50311	7600.9375
417.64277	7405.0375
421.77947	7261.0375
425.9132	7216.3375
430.04396	7232.9375
434.17176	7259.5375
438.2966	7346.5375
442.41849	7475.3375
446.53742	7663.7375
450.6534	7817.9375
454.76644	7949.0375
458.87653	7981.0375
462.98368	7950.0375
467.08789	7879.3375
471.18916	7784.4375
475.2875	7616.7375
479.38291	7458.7375
483.4754	7384.5375
487.56496	7355.4375
491.6516	7301.4375
495.73531	7276.0375
499.81612	7290.9375
503.89401	7357.6375
507.96899	7396.2375
512.04106	7456.0375
516.11023	7492.0375
520.1765	7523.4375
524.23987	7554.0375
528.30034	7514.2375
532.35792	7498.9375
536.41261	7473.5375
540.46441	7378.7375
544.51333	7342.8375
548.55936	7408.1375
552.60252	7521.9375
556.64279	7625.9375
560.6802	7707.6375
564.71473	7793.1375
568.7464	7851.3375
572.7752	7824.4375
576.80114	7692.5375
580.82422	7506.1375
584.84444	7485.7375
588.86181	7526.0375
592.87633	7588.9375
596.888	7752.7375
600.89682	8102.6375
604.9028	8946.9375
608.90594	10671.1375
612.90624	12381.6375
616.90371	11405.6375
620.89834	9038.6375
624.89015	8103.6375
628.87913	8038.1375
632.86528	8140.3375
636.84862	8132.1375
640.82913	7957.1375
644.80683	7667.3375
648.78172	7486.7375
652.75379	7531.1375
656.72306	7755.7375
660.68952	7997.4375
664.65319	7955.6375
668.61405	7839.8375
672.57211	7885.0375
676.52738	7856.4375
680.47986	7725.4375
684.42955	7583.8375
688.37646	7584.7375
692.32058	7630.9375
696.26192	7771.6375
700.20048	7920.8375
704.13626	7933.1375
708.06928	7841.7375
711.99952	7764.9375
715.927	7759.7375
719.85171	7787.6375
723.77365	7805.1375
727.69284	7748.1375
731.60928	7673.1375
735.52295	7672.6375
739.43388	7702.3375
743.34206	7742.2375
747.24749	7779.3375
751.15017	7789.9375
755.05012	7846.4375
758.94733	8117.3375
762.8418	8723.1375
766.73354	9650.7375
770.62254	10424.1375
774.50882	10582.1375
778.39237	10214.4375
782.27321	9507.4375
786.15132	8734.7375
790.02671	8222.4375
793.89938	7991.3375
797.76935	7841.5375
801.6366	7798.5375
805.50115	7749.9375
809.36299	7732.8375
813.22213	7711.6375
817.07857	7705.4375
820.93231	7711.3375
824.78336	7756.1375
828.63172	7741.9375
832.47738	7752.8375
836.32036	7742.6375
840.16066	7724.6375
843.99827	7747.4375
847.8332	7758.7375
851.66546	7768.2375
855.49504	7752.7375
859.32195	7764.8375
863.1462	7750.1375
866.96777	7744.1375
870.78668	7726.8375
874.60293	7761.8375
878.41652	7786.1375
882.22745	7830.9375
886.03573	7866.2375
889.84136	7863.6375
893.64433	7854.7375
897.44466	7828.7375
901.24235	7803.5375
905.0374	7786.6375
908.8298	7742.0375
912.61957	7729.5375
916.40671	7734.2375
920.19121	7779.1375
923.97308	7863.0375
927.75233	7940.8375
931.52895	7984.8375
935.30295	7941.2375
939.07433	7810.9375
942.84309	7705.7375
946.60924	7668.7375
950.37278	7658.5375
954.13371	7638.1375
957.89203	7646.9375
961.64774	7633.3375
965.40086	7610.6375
969.15137	7592.0375
972.89929	7577.1375
976.64461	7602.7375
980.38733	7610.5375
984.12747	7632.0375
987.86502	7664.5375
991.59999	7735.8375
995.33237	7823.9375
999.06217	7963.1375
1002.78939	8124.5375
1006.51404	8259.6375
1010.23611	8343.3375
1013.95561	8401.1375
1017.67255	8466.0375
1021.38692	8428.4375
1025.09872	8412.9375
1028.80796	8423.8375
1032.51465	8491.2375
1036.21877	8576.5375
1039.92035	8593.2375
1043.61937	8542.3375
1047.31584	8457.2375
1051.00976	8382.2375
1054.70114	8344.5375
1058.38998	8357.1375
1062.07627	8362.5375
1065.76003	8433.6375
1069.44126	8519.8375
1073.11995	8640.8375
1076.79611	8775.3375
1080.46974	8860.1375
1084.14085	8960.2375
1087.80943	9032.1375
1091.47549	9072.6375
1095.13903	9058.3375
1098.80005	8966.4375
1102.45857	8947.7375
1106.11456	8921.5375
1109.76805	8856.2375
1113.41903	8858.8375
1117.06751	8980.0375
1120.71348	9129.0375
1124.35696	9302.8375
1127.99793	9414.1375
1131.63641	9264.7375
1135.2724	9027.5375
1138.90589	8806.8375
1142.5369	8681.1375
1146.16542	8576.5375
1149.79145	8540.5375
1153.415	8483.1375
1157.03607	8475.4375
1160.65467	8553.1375
1164.27079	8709.5375
1167.88443	8974.1375
1171.49561	9358.8375
1175.10432	9949.8375
1178.71056	10765.7375
1182.31434	11474.3375
1185.91565	11783.7375
1189.51451	11717.1375
1193.11091	11461.8375
1196.70485	11132.8375
1200.29634	10795.4375
1203.88538	10434.0375
1207.47197	10038.3375
1211.05612	9649.4375
1214.63782	9428.2375
1218.21708	9232.2375
1221.79391	9158.1375
1225.36829	9156.6375
1228.94024	9156.6375
1232.50976	9101.6375
1236.07685	9086.3375
1239.6415	9107.1375
1243.20374	9137.1375
1246.76355	9230.9375
1250.32093	9292.8375
1253.8759	9484.4375
1257.42845	9717.0375
1260.97859	9993.6375
1264.52631	10216.0375
1268.07163	10395.7375
1271.61453	10530.3375
1275.15503	10641.4375
1278.69312	10677.4375
1282.22882	10740.8375
1285.76211	10878.1375
1289.29301	10994.2375
1292.82151	11216.0375
1296.34761	11455.8375
1299.87133	11829.8375
1303.39266	12480.5375
1306.9116	13382.5375
1310.42815	14312.8375
1313.94233	14717.4375
1317.45412	14279.5375
1320.96354	13519.2375
1324.47058	12770.2375
1327.97525	12132.6375
1331.47754	11744.3375
1334.97747	11674.4375
1338.47502	11915.5375
1341.97022	12312.5375
1345.46305	12891.7375
1348.95352	13624.5375
1352.44163	14446.6375
1355.92738	15314.0375
1359.41078	16455.0375
1362.89183	17214.8375
1366.37053	16396.9375
1369.84688	14335.5375
1373.32088	12419.8375
1376.79254	11348.0375
1380.26186	10800.6375
1383.72883	10503.2375
1387.19347	10249.0375
1390.65578	9971.5375
1394.11575	9714.3375
1397.57339	9518.0375
1401.0287	9460.9375
1404.48168	9447.8375
1407.93234	9521.0375
1411.38068	9679.5375
1414.82669	9810.3375
1418.27039	9835.2375
1421.71177	9798.9375
1425.15083	9742.5375
1428.58758	9716.9375
1432.02203	9812.5375
1435.45416	9869.2375
1438.88399	9900.3375
1442.31151	9838.8375
1445.73673	9826.5375
1449.15965	9784.3375
1452.58027	9701.7375
1455.9986	9614.0375
1459.41463	9624.3375
1462.82837	9696.2375
1466.23982	9838.9375
1469.64898	10004.9375
1473.05586	10140.5375
1476.46045	10258.8375
1479.86276	10395.3375
1483.26279	10489.4375
1486.66054	10672.4375
1490.05602	11008.3375
1493.44922	11406.7375
1496.84016	12034.8375
1500.22882	13003.3375
1503.61521	14146.4375
1506.99934	15213.5375
1510.38121	15803.8375
1513.76081	15547.1375
1517.13816	14464.3375
1520.51324	13123.0375
1523.88607	12014.8375
1527.25665	11307.1375
1530.62498	10953.5375
1533.99105	10745.1375
1537.35488	10642.8375
1540.71647	10553.1375
1544.07581	10455.9375
1547.4329	10365.8375
1550.78776	10262.1375
1554.14038	10184.8375
1557.49077	10195.4375
1560.83892	10300.6375
1564.18484	10464.8375
1567.52853	10691.8375
1570.86999	10819.3375
1574.20922	10870.4375
1577.54624	10704.8375
1580.88103	10282.9375
1584.2136	9892.2375
1587.54395	9727.1375
1590.87208	9886.3375
1594.19801	10285.9375
1597.52172	10800.1375
1600.84321	11098.1375
1604.16251	10962.1375
1607.47959	10686.2375
1610.79447	10246.2375
1614.10715	9694.4375
1617.41763	9201.7375
1620.7259	8857.2375
1624.03199	8706.9375
1627.33587	8658.3375
1630.63757	8798.7375
1633.93707	9132.6375
1637.23439	9712.3375
1640.52951	10556.2375
1643.82246	11546.4375
1647.11321	12484.3375
1650.40179	12749.2375
1653.68819	12057.4375
1656.97241	10725.7375
1660.25446	9497.6375
1663.53433	8640.8375
1666.81203	8126.2375
1670.08756	7845.5375
1673.36092	7675.1375
1676.63211	7544.5375
1679.90115	7438.9375
1683.16801	7385.9375
1686.43272	7330.7375
1689.69527	7287.8375
1692.95567	7265.7375
1696.2139	7244.4375
1699.46999	7222.1375
1702.72392	7227.6375
1705.97571	7217.9375
1709.22535	7212.9375
1712.47284	7207.8375
1715.71819	7186.6375
1718.96139	7180.1375
1722.20246	7168.1375
1725.44139	7174.3375
1728.67818	7124.9375
1731.91284	7069.2375
1735.14537	7037.8375
1738.37576	7016.0375
1741.60403	6995.4375
1744.83017	6991.5375
1748.05418	6955.7375
1751.27607	6964.2375
1754.49584	6921.2375
1757.71349	6928.7375
1760.92903	6889.7375
1764.14244	6905.0375
1767.35375	6871.0375
1770.56294	6875.1375
1773.77002	6890.0375
1776.97499	6849.4375
1780.17785	6827.0375
1783.37861	6827.3375
1786.57727	6818.7375
1789.77382	6803.8375
1792.96828	6799.5375
1796.16064	6758.8375
1799.3509	6771.9375
1802.53907	6765.6375
1805.72514	6744.9375
1808.90913	6726.9375
1812.09102	6719.6375
1815.27083	6695.0375
1818.44856	6675.4375
1821.6242	6657.7375
1824.79776	6646.7375
1827.96924	6638.5375
1831.13864	6636.7375
1834.30597	6648.2375
1837.47122	6612.8375
1840.6344	6592.7375
1843.7955	6579.9375
1846.95454	6595.0375
1850.11151	6589.6375
1853.26642	6577.8375
1856.41926	6585.1375
1859.57004	6585.5375
1862.71876	6564.3375
1865.86542	6558.0375
1869.01003	6559.0375
1872.15258	6537.2375
1875.29308	6539.1375
1878.43152	6521.7375
1881.56792	6524.7375
1884.70227	6512.6375
1887.83457	6514.3375
1890.96482	6511.1375
1894.09304	6491.0375
1897.21921	6462.0375
1900.34335	6474.4375
1903.46544	6461.5375
1906.58551	6468.4375
1909.70353	6468.2375
1912.81953	6439.2375
1915.93349	6437.8375
1919.04543	6422.1375
1922.15534	6416.1375
1925.26322	6404.1375
1928.36908	6399.8375
1931.47292	6380.6375
1934.57473	6361.4375
1937.67453	6353.4375
1940.77232	6354.9375
1943.86808	6330.9375
1946.96184	6299.4375
1950.05358	6290.0375
1953.14331	6271.2375
1956.23103	6229.5375
1959.31675	6228.8375
1962.40046	6183.8375
1965.48217	6175.8375
1968.56188	6182.9375
1971.63959	6147.3375
1974.7153	6125.5375
1977.78901	6114.9375
1980.86073	6100.6375
1983.93046	6070.6375
1986.99819	6067.4375
1990.06394	6030.5375
1993.1277	6021.8375
1996.18947	6016.2375
1999.24925	5988.7375
2002.30706	5976.3375
2005.36288	5946.4375
2008.41672	5921.4375
2011.46859	5901.0375
2014.51848	5891.5375
2017.56639	5866.6375
2020.61233	5849.7375
2023.6563	5838.9375
2026.6983	5821.9375
2029.73833	5800.7375
2032.7764	5798.5375
2035.8125	5781.1375
2038.84664	5783.6375
2041.87881	5778.0375
2044.90903	5763.5375
2047.93729	5735.3375
2050.96359	5743.5375
2053.98794	5727.3375
2057.01034	5726.7375
2060.03078	5706.2375
2063.04927	5695.6375
2066.06582	5698.9375
2069.08042	5690.9375
2072.09307	5696.3375
2075.10378	5672.2375
2078.11255	5673.9375
2081.11938	5675.1375
2084.12426	5658.1375
2087.12722	5653.5375
2090.12824	5660.2375
2093.12732	5646.1375
2096.12447	5672.0375
2099.11969	5664.0375
2102.11299	5674.4375
2105.10435	5660.1375
2108.09379	5652.4375
2111.08131	5657.8375
2114.0669	5648.2375
2117.05057	5666.1375
2120.03233	5638.4375
2123.01216	5647.3375
2125.99008	5661.7375
2128.96609	5654.4375
2131.94018	5686.1375
2134.91236	5672.2375
2137.88263	5688.6375
2140.851	5678.0375
2143.81746	5660.0375
2146.78201	5661.1375
2149.74466	5678.3375
2152.7054	5659.2375
2155.66425	5674.3375
2158.6212	5675.0375
2161.57625	5674.0375
2164.52941	5674.2375
2167.48067	5655.6375
2170.43004	5646.9375
2173.37752	5657.0375
2176.32311	5651.6375
2179.26681	5643.6375
2182.20863	5654.9375
2185.14856	5651.3375
2188.08661	5661.2375
2191.02278	5631.0375
2193.95707	5646.6375
2196.88948	5636.9375
2199.82001	5662.6375
2202.74867	5628.9375
2205.67545	5631.9375
2208.60037	5638.6375
2211.52341	5612.1375
2214.44458	5606.4375
2217.36388	5579.8375
2220.28132	5552.0375
2223.1969	5544.4375
2226.11061	5555.4375
2229.02246	5537.5375
2231.93245	5525.2375
2234.84058	5517.7375
2237.74686	5498.8375
2240.65128	5499.3375
2243.55385	5492.0375
2246.45456	5498.9375
2249.35343	5466.4375
2252.25044	5460.9375
2255.14561	5487.9375
2258.03893	5463.0375
2260.93041	5442.4375
2263.82004	5440.9375
2266.70783	5441.3375
2269.59378	5402.6375
2272.4779	5410.3375
2275.36017	5381.0375
2278.24061	5344.6375
2281.11922	5367.3375
2283.996	5340.6375
2286.87094	5314.8375
2289.74405	5318.5375
2292.61534	5313.3375
2295.4848	5321.7375
2298.35243	5308.9375
2301.21824	5312.0375
2304.08223	5302.9375
2306.94439	5312.3375
2309.80474	5301.4375
2312.66327	5299.8375
2315.51999	5277.7375
2318.37489	5269.7375
2321.22797	5277.1375
2324.07925	5257.4375
2326.92871	5256.2375
2329.77637	5256.7375
2332.62222	5246.3375
2335.46626	5230.3375
2338.3085	5227.7375
2341.14893	5219.4375
2343.98756	5229.3375
2346.8244	5220.6375
2349.65943	5225.1375
2352.49267	5228.5375
2355.32411	5219.2375
2358.15376	5192.7375
2360.98161	5215.1375
2363.80768	5216.2375
2366.63195	5194.9375
2369.45444	5179.3375
2372.27514	5183.2375
2375.09405	5165.4375
2377.91118	5178.1375
2380.72652	5173.1375
2383.54009	5148.6375
2386.35187	5130.3375
2389.16188	5116.7375
2391.97011	5114.3375
2394.77657	5098.2375
2397.58125	5079.3375
2400.38416	5092.3375
2403.18529	5069.8375
2405.98466	5073.3375
2408.78226	5050.5375
2411.57809	5042.1375
2414.37216	5018.8375
2417.16446	5014.9375
2419.955	5017.6375
2422.74378	5003.1375
2425.5308	4999.8375
2428.31606	4992.3375
2431.09956	4992.6375
2433.88131	4993.4375
2436.6613	4979.6375
2439.43954	4992.0375
2442.21603	4980.4375
2444.99077	4977.9375
2447.76377	4977.2375
2450.53501	4954.4375
2453.30451	4957.4375
2456.07226	4959.0375
2458.83827	4950.7375
2461.60254	4937.4375
2464.36507	4938.4375
2467.12586	4931.2375
2469.88492	4917.5375
2472.64224	4947.3375
2475.39782	4938.5375
2478.15167	4930.7375
2480.90379	4915.1375
2483.65417	4916.3375
2486.40283	4925.1375
2489.14976	4926.8375
2491.89497	4921.1375
2494.63845	4932.1375
2497.3802	4921.4375
2500.12024	4920.1375
2502.85855	4881.2375
2505.59514	4871.4375
2508.33002	4869.2375
2511.06318	4850.1375
2513.79462	4846.1375
2516.52435	4847.6375
2519.25237	4856.9375
2521.97867	4851.5375
2524.70327	4821.9375
2527.42616	4825.3375
2530.14734	4816.8375
2532.86681	4810.6375
2535.58458	4802.3375
2538.30065	4808.0375
2541.01501	4796.7375
2543.72768	4800.1375
2546.43864	4784.1375
2549.14791	4785.0375
2551.85548	4779.9375
2554.56136	4776.2375
2557.26554	4767.0375
2559.96803	4755.8375
2562.66883	4743.6375
2565.36794	4730.8375
2568.06536	4718.7375
2570.7611	4708.0375
2573.45514	4703.3375
2576.14751	4710.6375
2578.83819	4682.8375
2581.52719	4689.4375
2584.21451	4671.9375
2586.90015	4675.2375
2589.58411	4651.7375
2592.2664	4653.6375
2594.94701	4638.6375
2597.62594	4661.5375
2600.30321	4643.5375
2602.9788	4637.5375
2605.65273	4634.2375
2608.32498	4620.2375
2610.99557	4612.5375
2613.66449	4615.6375
2616.33175	4610.1375
2618.99734	4605.5375
2621.66128	4590.8375
2624.32355	4588.3375
2626.98416	4605.5375
2629.64311	4598.1375
2632.30041	4591.7375
2634.95605	4566.6375
2637.61004	4557.1375
2640.26238	4547.1375
2642.91306	4543.7375
2645.56209	4535.0375
2648.20948	4522.3375
2650.85521	4520.2375
2653.4993	4529.8375
2656.14175	4537.6375
2658.78255	4519.5375
2661.42171	4524.4375
2664.05923	4544.9375
2666.6951	4539.6375
2669.32934	4558.1375
2671.96194	4533.6375
2674.59291	4538.4375
2677.22224	4522.5375
2679.84993	4545.1375
2682.476	4542.6375
2685.10043	4511.8375
2687.72324	4504.3375
2690.34441	4519.6375
2692.96396	4513.8375
2695.58188	4505.7375
2698.19818	4517.1375
2700.81285	4500.4375
2703.4259	4506.2375
2706.03733	4505.5375
2708.64714	4467.8375
2711.25533	4477.6375
2713.86191	4484.4375
2716.46687	4498.2375
2719.07021	4498.0375
2721.67194	4487.3375
2724.27206	4505.1375
2726.87057	4504.1375
2729.46747	4504.1375
2732.06276	4500.9375
2734.65644	4475.9375
2737.24852	4475.0375
2739.83899	4474.6375
2742.42786	4482.0375
2745.01513	4467.3375
2747.60079	4460.5375
2750.18486	4445.1375
2752.76733	4450.6375
2755.3482	4439.2375
2757.92747	4436.8375
2760.50515	4414.5375
2763.08123	4416.6375
2765.65573	4406.2375
2768.22863	4397.1375
2770.79994	4393.8375
2773.36967	4391.2375
2775.9378	4400.8375
2778.50435	4384.8375
2781.06932	4389.0375
2783.6327	4381.5375
2786.1945	4374.8375
2788.75471	4355.5375
2791.31335	4339.6375
2793.87041	4347.8375
2796.42589	4334.0375
2798.97979	4333.9375
2801.53212	4320.9375
2804.08288	4320.0375
2806.63206	4315.3375
2809.17967	4305.1375
2811.72571	4282.3375
2814.27018	4283.3375
2816.81308	4272.6375
2819.35442	4270.0375
2821.89419	4241.3375
2824.43239	4254.4375
2826.96904	4242.6375
2829.50412	4245.8375
2832.03763	4227.6375
2834.56959	4223.7375
2837.1	4216.0375
2839.62884	4222.2375
2842.15613	4198.9375
2844.68186	4220.1375
2847.20604	4213.9375
2849.72867	4198.9375
2852.24974	4183.0375
2854.76927	4173.2375
2857.28724	4150.5375
2859.80367	4156.3375
2862.31855	4140.9375
2864.83189	4155.2375
2867.34368	4144.2375
2869.85393	4161.3375
2872.36264	4129.1375
2874.8698	4132.7375
2877.37543	4126.6375
2879.87952	4133.6375
2882.38207	4121.5375
2884.88308	4119.5375
2887.38256	4111.2375
2889.88051	4099.4375
2892.37692	4106.0375
2894.8718	4098.4375
2897.36515	4100.6375
2899.85698	4098.7375
2902.34727	4104.5375
2904.83604	4103.7375
2907.32328	4118.6375
2909.809	4101.4375
2912.29319	4111.4375
2914.77587	4104.4375
2917.25702	4118.5375
2919.73665	4104.3375
2922.21476	4116.1375
2924.69136	4126.5375
2927.16644	4104.1375
2929.64	4094.4375
2932.11205	4080.1375
2934.58258	4059.0375
2937.05161	4063.0375
2939.51912	4065.1375
2941.98513	4048.2375
2944.44962	4054.7375
2946.91261	4049.5375
2949.37409	4062.1375
2951.83407	4046.3375
2954.29254	4047.8375
2956.74951	4050.6375
2959.20498	4033.7375
2961.65895	4031.3375
2964.11142	4023.4375
2966.56239	4022.6375
2969.01186	4021.0375
2971.45984	4028.1375
2973.90632	4028.1375
2976.35131	4002.2375
2978.7948	3977.0375
2981.23681	3979.1375
2983.67732	3972.8375
2986.11635	3975.8375
2988.55388	3958.4375
2990.98993	3961.8375
2993.4245	3959.9375
2995.85758	3930.7375
2998.28917	3931.1375
3000.71928	3921.3375
3003.14791	3907.2375
3005.57506	3894.4375
3008.00073	3880.9375
3010.42493	3873.6375
3012.84764	3869.3375
3015.26888	3858.0375
3017.68865	3846.8375
3020.10694	3851.4375
3022.52376	3836.2375
3024.9391	3833.2375
3027.35298	3808.3375
3029.76539	3809.0375
3032.17632	3793.9375
3034.5858	3798.9375
3036.9938	3790.5375
3039.40034	3781.7375
3041.80542	3762.4375
3044.20903	3764.3375
3046.61118	3757.6375
3049.01187	3752.3375
3051.4111	3735.9375
3053.80888	3727.6375
3056.20519	3728.3375
3058.60005	3714.6375
3060.99345	3697.2375
3063.3854	3695.8375
3065.7759	3698.6375
3068.16494	3684.4375
3070.55254	3663.7375
3072.93868	3665.7375
3075.32338	3649.3375
3077.70662	3641.0375
3080.08842	3622.8375
3082.46878	3617.4375
3084.84769	3589.7375
3087.22515	3615.4375
3089.60118	3619.8375
3091.97576	3611.8375
3094.3489	3604.2375
3096.72061	3604.2375
3099.09087	3578.6375
3101.4597	3588.6375
3103.82709	3585.2375
3106.19305	3570.6375
3108.55757	3583.3375
3110.92066	3570.6375
3113.28232	3556.8375
3115.64255	3539.2375
3118.00134	3548.2375
3120.35871	3533.9375
3122.71466	3523.7375
3125.06917	3536.0375
3127.42226	3522.1375
3129.77393	3505.1375
3132.12417	3499.7375
3134.47299	3499.2375
3136.82039	3480.5375
3139.16636	3490.0375
3141.51092	3485.6375
3143.85406	3495.8375
3146.19579	3496.5375
3148.53609	3482.4375
3150.87499	3485.2375
3153.21246	3475.6375
3155.54853	3477.1375
3157.88318	3474.0375
3160.21642	3485.7375
3162.54826	3473.3375
3164.87868	3481.6375
3167.2077	3464.3375
3169.5353	3456.0375
3171.86151	3436.3375
3174.18631	3438.4375
3176.5097	3441.6375
3178.83169	3442.7375
3181.15228	3439.5375
3183.47147	3424.4375
3185.78926	3418.7375
3188.10565	3415.7375
3190.42065	3395.8375
3192.73424	3400.7375
3195.04645	3373.2375
3197.35725	3377.5375
3199.66667	3380.0375
3201.97469	3380.5375
3204.28132	3367.3375
3206.58656	3367.1375
3208.8904	3365.1375
3211.19287	3378.7375
3213.49394	3386.5375
3215.79363	3381.9375
3218.09193	3373.5375
3220.38884	3372.5375
3222.68438	3368.3375
3224.97853	3359.9375
3227.2713	3357.2375
3229.56269	3362.7375
3231.8527	3360.2375
3234.14133	3349.9375
3236.42858	3330.5375
3238.71446	3328.5375
3240.99896	3310.9375
3243.28209	3305.3375
3245.56384	3318.0375
3247.84423	3306.4375
3250.12324	3296.5375
3252.40088	3305.1375
3254.67715	3300.1375
3256.95205	3269.7375
3259.22558	3264.9375
3261.49775	3275.4375
3263.76855	3284.5375
3266.03799	3281.6375
3268.30606	3276.9375
3270.57277	3285.7375
3272.83812	3269.4375
3275.10211	3255.2375
3277.36474	3253.3375
3279.62601	3239.5375
3281.88593	3226.7375
3284.14448	3229.4375
3286.40168	3232.1375
3288.65753	3222.1375
3290.91202	3221.8375
3293.16516	3212.8375
3295.41695	3196.5375
3297.66738	3184.0375
3299.91647	3170.9375
3302.16421	3153.1375
3304.4106	3142.3375
3306.65564	3100.4375
3308.89933	3088.3375
3311.14169	3066.6375
3313.38269	3045.4375
3315.62236	3028.6375
3317.86068	3002.6375
3320.09766	2967.9375
3322.3333	2956.0375
3324.5676	2934.5375
3326.80056	2892.7375
3329.03219	2866.2375
3331.26248	1.7375
3333.49143	-1.0625
3335.71905	-0.3625
