Data from AgNPs_UA_5uM_CRN_500uM_SU_RamanShift__12__11-31-23-140.txt Node

Date: Thu Aug 04 11:31:23 BST 2022
User: TCL
Spectrometer: QEP01345
Trigger mode: 4
Integration Time (sec): 1.000000E0
Scans to average: 10
Electric dark correction enabled: true
Nonlinearity correction enabled: false
Boxcar width: 0
XAxis mode: Raman Shifts
Number of Pixels in Spectrum: 1044
>>>>>Begin Spectral Data<<<<<
46.04893	-0.275
50.45542	0.725
54.85868	0.825
59.25871	-1.675
63.6555	-52.575
68.04907	-35.175
72.43941	-67.075
76.82654	-51.475
81.21044	-51.175
85.59113	-46.075
89.96862	-71.875
94.34289	-49.575
98.71396	-71.275
103.08183	-50.375
107.4465	-41.175
111.80798	-49.075
116.16626	-36.275
120.52136	-64.375
124.87327	-39.875
129.222	-49.575
133.56755	-36.075
137.90993	-46.875
142.24913	-32.675
146.58517	-20.475
150.91804	-10.975
155.24774	6.125
159.57429	42.425
163.89768	59.225
168.21792	137.925
172.53501	196.925
176.84895	343.725
181.15975	564.125
185.46741	826.625
189.77193	1177.225
194.07331	1658.925
198.37157	2162.725
202.6667	2703.725
206.9587	3295.225
211.24758	3906.525
215.53334	4617.525
219.81599	5446.425
224.09553	6372.625
228.37195	7321.525
232.64527	8254.825
236.91549	8986.725
241.18261	9353.225
245.44663	9477.025
249.70755	9429.225
253.96539	9445.025
258.22014	9519.225
262.4718	9613.425
266.72039	9595.225
270.96589	9378.425
275.20832	8963.025
279.44768	8562.525
283.68397	8282.425
287.91719	8179.025
292.14735	8386.825
296.37445	9040.025
300.59849	10147.525
304.81948	11711.725
309.03742	13449.725
313.25231	14746.825
317.46415	14500.125
321.67296	12705.325
325.87872	10598.625
330.08145	9428.825
334.28114	9194.025
338.47781	9521.125
342.67145	10195.825
346.86207	11296.425
351.04966	12972.225
355.23424	14607.425
359.4158	15194.625
363.59435	14616.025
367.76989	13651.825
371.94243	12670.125
376.11196	11858.625
380.27849	11267.025
384.44203	10828.225
388.60257	10557.525
392.76012	10577.925
396.91468	10916.325
401.06626	11378.125
405.21485	11374.925
409.36047	10625.525
413.50311	9345.925
417.64277	8164.125
421.77947	7399.025
425.9132	7046.025
430.04396	6921.625
434.17176	6859.325
438.2966	7006.025
442.41849	7263.325
446.53742	7518.325
450.6534	7655.325
454.76644	7644.425
458.87653	7506.325
462.98368	7335.225
467.08789	7155.725
471.18916	6915.425
475.2875	6565.925
479.38291	6278.025
483.4754	6084.325
487.56496	6011.825
491.6516	5925.325
495.73531	5916.525
499.81612	5969.725
503.89401	6206.525
507.96899	6423.225
512.04106	6726.325
516.11023	7062.625
520.1765	7292.325
524.23987	7414.425
528.30034	7360.825
532.35792	7208.525
536.41261	7046.125
540.46441	6783.625
544.51333	6584.825
548.55936	6591.525
552.60252	6775.325
556.64279	7040.525
560.6802	7550.725
564.71473	8702.825
568.7464	10229.325
572.7752	10168.125
576.80114	8229.125
580.82422	6642.525
584.84444	6003.625
588.86181	5765.425
592.87633	5782.825
596.888	6034.125
600.89682	6957.125
604.9028	10103.725
608.90594	18077.925
612.90624	27775.225
616.90371	24995.825
620.89834	13038.425
624.89015	7876.625
628.87913	7285.225
632.86528	8034.025
636.84862	8319.425
640.82913	7355.625
644.80683	6100.225
648.78172	5542.225
652.75379	5774.725
656.72306	6708.925
660.68952	7611.325
664.65319	7091.025
668.61405	5866.925
672.57211	5352.225
676.52738	5358.825
680.47986	5285.725
684.42955	5098.525
688.37646	5007.325
692.32058	5014.825
696.26192	5129.025
700.20048	5265.025
704.13626	5319.425
708.06928	5202.525
711.99952	5160.125
715.927	5245.225
719.85171	5490.225
723.77365	5675.225
727.69284	5500.525
731.60928	5324.525
735.52295	5250.025
739.43388	5320.625
743.34206	5381.025
747.24749	5371.125
751.15017	5415.625
755.05012	5807.225
758.94733	7391.425
762.8418	10941.225
766.73354	15473.625
770.62254	17753.625
774.50882	16858.125
778.39237	15016.825
782.27321	12255.125
786.15132	8864.925
790.02671	6655.325
793.89938	5657.125
797.76935	5330.625
801.6366	5157.525
805.50115	5070.325
809.36299	5007.325
813.22213	4983.725
817.07857	4976.025
820.93231	5042.025
824.78336	5168.825
828.63172	5306.825
832.47738	5342.925
836.32036	5231.625
840.16066	4969.525
843.99827	4793.525
847.8332	4747.425
851.66546	4761.425
855.49504	4752.325
859.32195	4727.025
863.1462	4676.725
866.96777	4644.525
870.78668	4652.525
874.60293	4691.825
878.41652	4790.825
882.22745	4953.125
886.03573	5061.825
889.84136	5018.025
893.64433	4991.725
897.44466	5014.925
901.24235	5013.525
905.0374	4904.325
908.8298	4709.325
912.61957	4573.925
916.40671	4462.025
920.19121	4542.425
923.97308	4772.925
927.75233	5248.925
931.52895	5755.525
935.30295	5472.925
939.07433	4769.025
942.84309	4323.025
946.60924	4139.625
950.37278	4070.625
954.13371	4044.325
957.89203	4054.725
961.64774	4062.125
965.40086	4036.025
969.15137	3988.025
972.89929	4026.425
976.64461	3974.325
980.38733	3986.825
984.12747	3968.225
987.86502	3984.325
991.59999	4008.925
995.33237	4106.625
999.06217	4215.425
1002.78939	4453.725
1006.51404	4809.925
1010.23611	4961.425
1013.95561	4791.425
1017.67255	4546.925
1021.38692	4363.525
1025.09872	4211.225
1028.80796	4104.925
1032.51465	4165.625
1036.21877	4185.025
1039.92035	4305.525
1043.61937	4371.125
1047.31584	4455.325
1051.00976	4465.625
1054.70114	4373.225
1058.38998	4316.225
1062.07627	4278.725
1065.76003	4290.825
1069.44126	4337.325
1073.11995	4467.025
1076.79611	4806.525
1080.46974	5372.325
1084.14085	6223.125
1087.80943	6932.025
1091.47549	6851.825
1095.13903	6148.525
1098.80005	5413.425
1102.45857	5021.225
1106.11456	4978.425
1109.76805	5140.525
1113.41903	5623.125
1117.06751	6388.825
1120.71348	7612.525
1124.35696	9466.725
1127.99793	10649.625
1131.63641	9698.125
1135.2724	7776.825
1138.90589	6491.625
1142.5369	5763.825
1146.16542	5329.125
1149.79145	5058.025
1153.415	4992.225
1157.03607	5070.925
1160.65467	5321.425
1164.27079	5815.325
1167.88443	6510.625
1171.49561	7708.225
1175.10432	9742.525
1178.71056	12517.425
1182.31434	14369.925
1185.91565	14020.625
1189.51451	12210.525
1193.11091	10323.525
1196.70485	9094.425
1200.29634	8618.325
1203.88538	8024.725
1207.47197	6887.525
1211.05612	5838.025
1214.63782	5153.225
1218.21708	4863.125
1221.79391	4751.525
1225.36829	4734.425
1228.94024	4755.525
1232.50976	4736.725
1236.07685	4733.025
1239.6415	4823.225
1243.20374	4948.125
1246.76355	5153.825
1250.32093	5414.825
1253.8759	5761.425
1257.42845	6378.325
1260.97859	7161.525
1264.52631	7894.025
1268.07163	8246.625
1271.61453	8232.125
1275.15503	7926.525
1278.69312	7651.725
1282.22882	7869.825
1285.76211	8916.925
1289.29301	10360.125
1292.82151	11267.625
1296.34761	11671.725
1299.87133	12651.225
1303.39266	15077.225
1306.9116	19636.125
1310.42815	25239.125
1313.94233	27336.825
1317.45412	23192.625
1320.96354	16929.025
1324.47058	12186.325
1327.97525	9302.225
1331.47754	7868.825
1334.97747	7397.025
1338.47502	7606.025
1341.97022	8722.925
1345.46305	11137.225
1348.95352	14588.125
1352.44163	18179.525
1355.92738	22728.925
1359.41078	30625.025
1362.89183	38833.525
1366.37053	36640.025
1369.84688	24906.925
1373.32088	15510.825
1376.79254	11456.825
1380.26186	9640.725
1383.72883	8212.625
1387.19347	6927.125
1390.65578	5976.525
1394.11575	5443.725
1397.57339	5196.625
1401.0287	5012.325
1404.48168	4830.725
1407.93234	4750.025
1411.38068	4853.725
1414.82669	5291.825
1418.27039	5761.825
1421.71177	5866.025
1425.15083	5638.225
1428.58758	5742.125
1432.02203	6381.825
1435.45416	6837.925
1438.88399	6516.025
1442.31151	6073.425
1445.73673	5992.025
1449.15965	5927.725
1452.58027	5776.725
1455.9986	5565.625
1459.41463	5379.725
1462.82837	5394.925
1466.23982	5652.425
1469.64898	6040.925
1473.05586	6119.725
1476.46045	6093.425
1479.86276	6129.625
1483.26279	6442.425
1486.66054	7134.825
1490.05602	8236.425
1493.44922	10026.325
1496.84016	12833.825
1500.22882	17207.025
1503.61521	23333.325
1506.99934	31316.125
1510.38121	39383.525
1513.76081	42817.025
1517.13816	38208.125
1520.51324	28600.725
1523.88607	19678.925
1527.25665	13867.925
1530.62498	10607.325
1533.99105	8678.425
1537.35488	7458.325
1540.71647	6787.025
1544.07581	6489.025
1547.4329	6503.925
1550.78776	6698.725
1554.14038	7055.225
1557.49077	7701.125
1560.83892	8806.725
1564.18484	10531.225
1567.52853	12329.325
1570.86999	13371.525
1574.20922	13441.925
1577.54624	12652.125
1580.88103	10511.525
1584.2136	7949.125
1587.54395	6490.525
1590.87208	6136.825
1594.19801	6595.525
1597.52172	7406.125
1600.84321	7440.225
1604.16251	6564.725
1607.47959	5693.525
1610.79447	5210.625
1614.10715	4814.625
1617.41763	4534.025
1620.7259	4409.425
1624.03199	4482.325
1627.33587	4696.825
1630.63757	5132.525
1633.93707	5955.025
1637.23439	7375.225
1640.52951	10009.825
1643.82246	14536.225
1647.11321	20644.625
1650.40179	25451.525
1653.68819	24950.825
1656.97241	19234.125
1660.25446	12806.125
1663.53433	8405.825
1666.81203	6054.925
1670.08756	4846.725
1673.36092	4181.525
1676.63211	3777.225
1679.90115	3526.725
1683.16801	3340.025
1686.43272	3208.825
1689.69527	3120.825
1692.95567	3035.825
1696.2139	2992.425
1699.46999	2904.925
1702.72392	2916.725
1705.97571	2901.025
1709.22535	2891.225
1712.47284	2948.925
1715.71819	2976.625
1718.96139	2986.125
1722.20246	2954.425
1725.44139	2877.425
1728.67818	2806.525
1731.91284	2720.725
1735.14537	2653.525
1738.37576	2610.325
1741.60403	2597.225
1744.83017	2542.825
1748.05418	2541.125
1751.27607	2514.125
1754.49584	2451.925
1757.71349	2392.525
1760.92903	2375.625
1764.14244	2285.525
1767.35375	2257.125
1770.56294	2215.425
1773.77002	2165.925
1776.97499	2152.825
1780.17785	2105.225
1783.37861	2072.325
1786.57727	2073.625
1789.77382	2006.725
1792.96828	2045.225
1796.16064	2045.825
1799.3509	2019.925
1802.53907	2042.225
1805.72514	2004.725
1808.90913	1977.925
1812.09102	1975.425
1815.27083	1964.525
1818.44856	1960.325
1821.6242	1952.025
1824.79776	1921.825
1827.96924	1920.325
1831.13864	1876.725
1834.30597	1877.925
1837.47122	1843.525
1840.6344	1813.025
1843.7955	1785.625
1846.95454	1765.125
1850.11151	1777.325
1853.26642	1739.525
1856.41926	1743.625
1859.57004	1751.925
1862.71876	1754.225
1865.86542	1765.725
1869.01003	1771.425
1872.15258	1756.925
1875.29308	1774.625
1878.43152	1789.225
1881.56792	1766.625
1884.70227	1737.525
1887.83457	1744.725
1890.96482	1703.625
1894.09304	1713.425
1897.21921	1703.625
1900.34335	1711.725
1903.46544	1685.925
1906.58551	1709.525
1909.70353	1701.325
1912.81953	1691.025
1915.93349	1677.225
1919.04543	1664.925
1922.15534	1658.525
1925.26322	1639.925
1928.36908	1605.425
1931.47292	1602.225
1934.57473	1585.125
1937.67453	1534.125
1940.77232	1502.425
1943.86808	1485.925
1946.96184	1493.725
1950.05358	1475.525
1953.14331	1463.125
1956.23103	1484.425
1959.31675	1466.525
1962.40046	1440.825
1965.48217	1489.025
1968.56188	1507.425
1971.63959	1522.125
1974.7153	1532.025
1977.78901	1508.925
1980.86073	1486.825
1983.93046	1428.525
1986.99819	1345.025
1990.06394	1352.925
1993.1277	1372.125
1996.18947	1346.625
1999.24925	1321.725
2002.30706	1329.425
2005.36288	1326.125
2008.41672	1305.225
2011.46859	1283.725
2014.51848	1274.325
2017.56639	1261.625
2020.61233	1257.025
2023.6563	1262.625
2026.6983	1217.425
2029.73833	1233.225
2032.7764	1243.825
2035.8125	1197.825
2038.84664	1215.925
2041.87881	1200.825
2044.90903	1225.825
2047.93729	1213.025
2050.96359	1185.325
2053.98794	1199.125
2057.01034	1184.625
2060.03078	1153.725
2063.04927	1146.025
2066.06582	1137.325
2069.08042	1113.525
2072.09307	1127.425
2075.10378	1120.925
2078.11255	1119.725
2081.11938	1116.625
2084.12426	1122.625
2087.12722	1110.225
2090.12824	1098.725
2093.12732	1114.225
2096.12447	1123.225
2099.11969	1111.925
2102.11299	1100.325
2105.10435	1127.625
2108.09379	1123.125
2111.08131	1111.025
2114.0669	1127.325
2117.05057	1137.925
2120.03233	1138.925
2123.01216	1173.025
2125.99008	1185.925
2128.96609	1182.625
2131.94018	1198.525
2134.91236	1170.825
2137.88263	1145.625
2140.851	1128.725
2143.81746	1128.925
2146.78201	1094.125
2149.74466	1072.525
2152.7054	1068.925
2155.66425	1049.825
2158.6212	1036.125
2161.57625	1004.725
2164.52941	986.725
2167.48067	1006.425
2170.43004	1011.725
2173.37752	1041.625
2176.32311	1035.425
2179.26681	1044.225
2182.20863	1054.725
2185.14856	1049.025
2188.08661	1033.525
2191.02278	1031.825
2193.95707	1007.725
2196.88948	981.525
2199.82001	1001.725
2202.74867	973.025
2205.67545	986.425
2208.60037	992.325
2211.52341	983.125
2214.44458	983.225
2217.36388	974.525
2220.28132	963.625
2223.1969	952.825
2226.11061	951.225
2229.02246	946.425
2231.93245	938.425
2234.84058	933.125
2237.74686	921.325
2240.65128	921.225
2243.55385	935.725
2246.45456	925.525
2249.35343	952.925
2252.25044	956.325
2255.14561	996.925
2258.03893	1027.025
2260.93041	1047.425
2263.82004	1050.825
2266.70783	1060.025
2269.59378	1050.425
2272.4779	1031.425
2275.36017	1040.125
2278.24061	1023.325
2281.11922	998.325
2283.996	1006.025
2286.87094	982.825
2289.74405	968.325
2292.61534	958.325
2295.4848	942.525
2298.35243	924.925
2301.21824	912.525
2304.08223	908.125
2306.94439	917.425
2309.80474	919.025
2312.66327	915.525
2315.51999	906.125
2318.37489	901.125
2321.22797	885.225
2324.07925	882.125
2326.92871	890.325
2329.77637	869.625
2332.62222	886.325
2335.46626	863.625
2338.3085	876.525
2341.14893	893.925
2343.98756	902.825
2346.8244	892.925
2349.65943	894.525
2352.49267	913.225
2355.32411	934.325
2358.15376	941.625
2360.98161	972.125
2363.80768	966.325
2366.63195	993.525
2369.45444	1013.925
2372.27514	1016.225
2375.09405	1031.825
2377.91118	987.925
2380.72652	977.525
2383.54009	971.425
2386.35187	957.825
2389.16188	924.725
2391.97011	921.225
2394.77657	899.925
2397.58125	895.625
2400.38416	882.225
2403.18529	864.525
2405.98466	852.725
2408.78226	858.825
2411.57809	850.425
2414.37216	845.325
2417.16446	848.425
2419.955	835.125
2422.74378	853.125
2425.5308	842.025
2428.31606	851.525
2431.09956	873.025
2433.88131	864.025
2436.6613	876.325
2439.43954	881.825
2442.21603	883.325
2444.99077	888.225
2447.76377	909.725
2450.53501	911.025
2453.30451	912.325
2456.07226	925.025
2458.83827	918.725
2461.60254	876.125
2464.36507	908.325
2467.12586	900.125
2469.88492	905.025
2472.64224	903.625
2475.39782	899.825
2478.15167	927.325
2480.90379	938.525
2483.65417	978.425
2486.40283	994.025
2489.14976	1021.525
2491.89497	1007.525
2494.63845	1010.825
2497.3802	1001.325
2500.12024	988.325
2502.85855	970.825
2505.59514	958.425
2508.33002	925.325
2511.06318	878.225
2513.79462	874.525
2516.52435	818.025
2519.25237	778.725
2521.97867	768.625
2524.70327	759.825
2527.42616	751.125
2530.14734	761.825
2532.86681	741.525
2535.58458	744.125
2538.30065	745.125
2541.01501	770.425
2543.72768	757.625
2546.43864	772.725
2549.14791	778.325
2551.85548	776.925
2554.56136	779.825
2557.26554	799.825
2559.96803	801.125
2562.66883	810.425
2565.36794	801.225
2568.06536	780.325
2570.7611	811.925
2573.45514	793.425
2576.14751	791.725
2578.83819	781.225
2581.52719	768.425
2584.21451	767.925
2586.90015	745.125
2589.58411	738.525
2592.2664	744.525
2594.94701	746.825
2597.62594	762.525
2600.30321	692.525
2602.9788	728.925
2605.65273	725.625
2608.32498	737.825
2610.99557	759.625
2613.66449	733.625
2616.33175	760.425
2618.99734	756.525
2621.66128	771.225
2624.32355	748.925
2626.98416	732.425
2629.64311	721.325
2632.30041	713.025
2634.95605	692.125
2637.61004	677.425
2640.26238	655.325
2642.91306	660.925
2645.56209	684.725
2648.20948	674.825
2650.85521	659.125
2653.4993	687.825
2656.14175	681.425
2658.78255	681.125
2661.42171	660.825
2664.05923	700.325
2666.6951	717.225
2669.32934	728.625
2671.96194	741.525
2674.59291	723.625
2677.22224	733.025
2679.84993	731.125
2682.476	715.325
2685.10043	711.525
2687.72324	698.625
2690.34441	696.125
2692.96396	688.825
2695.58188	708.525
2698.19818	695.825
2700.81285	678.425
2703.4259	669.425
2706.03733	647.925
2708.64714	657.125
2711.25533	690.825
2713.86191	701.225
2716.46687	693.025
2719.07021	700.525
2721.67194	695.325
2724.27206	710.925
2726.87057	682.825
2729.46747	669.125
2732.06276	670.425
2734.65644	646.425
2737.24852	646.925
2739.83899	623.825
2742.42786	632.125
2745.01513	641.625
2747.60079	616.125
2750.18486	599.425
2752.76733	604.025
2755.3482	589.325
2757.92747	592.825
2760.50515	572.925
2763.08123	563.725
2765.65573	568.325
2768.22863	560.925
2770.79994	556.325
2773.36967	558.825
2775.9378	560.525
2778.50435	559.625
2781.06932	556.925
2783.6327	556.125
2786.1945	580.625
2788.75471	563.625
2791.31335	576.225
2793.87041	584.425
2796.42589	574.625
2798.97979	585.225
2801.53212	602.325
2804.08288	616.825
2806.63206	617.325
2809.17967	623.325
2811.72571	656.325
2814.27018	661.625
2816.81308	677.825
2819.35442	660.825
2821.89419	702.825
2824.43239	706.525
2826.96904	735.825
2829.50412	711.325
2832.03763	713.325
2834.56959	699.125
2837.1	681.125
2839.62884	676.225
2842.15613	668.925
2844.68186	677.925
2847.20604	655.425
2849.72867	662.225
2852.24974	687.925
2854.76927	672.625
2857.28724	655.125
2859.80367	722.525
2862.31855	743.625
2864.83189	756.825
2867.34368	783.825
2869.85393	806.425
2872.36264	793.625
2874.8698	807.625
2877.37543	802.925
2879.87952	789.625
2882.38207	759.725
2884.88308	752.125
2887.38256	739.225
2889.88051	721.125
2892.37692	707.725
2894.8718	691.725
2897.36515	710.525
2899.85698	711.225
2902.34727	715.325
2904.83604	730.825
2907.32328	757.825
2909.809	774.625
2912.29319	783.325
2914.77587	800.825
2917.25702	809.125
2919.73665	797.725
2922.21476	779.425
2924.69136	758.225
2927.16644	719.825
2929.64	702.825
2932.11205	687.825
2934.58258	689.125
2937.05161	670.225
2939.51912	678.025
2941.98513	690.225
2944.44962	673.025
2946.91261	658.425
2949.37409	663.925
2951.83407	668.025
2954.29254	677.925
2956.74951	679.725
2959.20498	666.925
2961.65895	674.425
2964.11142	661.225
2966.56239	656.825
2969.01186	654.125
2971.45984	653.825
2973.90632	650.125
2976.35131	666.725
2978.7948	652.025
2981.23681	653.225
2983.67732	657.925
2986.11635	657.625
2988.55388	642.725
2990.98993	655.025
2993.4245	652.625
2995.85758	654.525
2998.28917	663.725
3000.71928	655.925
3003.14791	668.925
3005.57506	654.225
3008.00073	641.025
3010.42493	590.925
3012.84764	654.125
3015.26888	648.225
3017.68865	645.325
3020.10694	603.225
3022.52376	618.125
3024.9391	615.625
3027.35298	602.125
3029.76539	577.425
3032.17632	574.325
3034.5858	555.925
3036.9938	550.925
3039.40034	542.825
3041.80542	513.725
3044.20903	495.525
3046.61118	483.825
3049.01187	500.525
3051.4111	488.225
3053.80888	482.225
3056.20519	477.625
3058.60005	465.925
3060.99345	492.925
3063.3854	469.725
3065.7759	460.125
3068.16494	456.525
3070.55254	443.825
3072.93868	463.825
3075.32338	453.325
3077.70662	445.225
3080.08842	440.325
3082.46878	424.925
3084.84769	445.525
3087.22515	427.825
3089.60118	438.325
3091.97576	427.625
3094.3489	431.525
3096.72061	426.225
3099.09087	407.425
3101.4597	423.125
3103.82709	411.125
3106.19305	402.025
3108.55757	408.825
3110.92066	404.425
3113.28232	421.625
3115.64255	419.025
3118.00134	423.125
3120.35871	409.525
3122.71466	398.525
3125.06917	409.725
3127.42226	410.125
3129.77393	397.825
3132.12417	414.025
3134.47299	423.025
3136.82039	406.525
3139.16636	384.225
3141.51092	408.525
3143.85406	420.625
3146.19579	405.325
3148.53609	405.125
3150.87499	415.925
3153.21246	409.325
3155.54853	418.925
3157.88318	427.325
3160.21642	426.525
3162.54826	421.625
3164.87868	421.125
3167.2077	384.425
3169.5353	399.625
3171.86151	402.625
3174.18631	384.925
3176.5097	376.725
3178.83169	372.725
3181.15228	372.225
3183.47147	349.325
3185.78926	330.825
3188.10565	345.125
3190.42065	326.425
3192.73424	339.725
3195.04645	332.325
3197.35725	326.625
3199.66667	344.325
3201.97469	340.225
3204.28132	334.525
3206.58656	350.225
3208.8904	359.325
3211.19287	357.525
3213.49394	349.725
3215.79363	347.025
3218.09193	367.625
3220.38884	354.725
3222.68438	359.925
3224.97853	341.025
3227.2713	358.525
3229.56269	345.425
3231.8527	345.125
3234.14133	333.525
3236.42858	333.825
3238.71446	314.225
3240.99896	339.025
3243.28209	319.125
3245.56384	332.225
3247.84423	319.825
3250.12324	331.125
3252.40088	326.725
3254.67715	318.125
3256.95205	312.025
3259.22558	324.625
3261.49775	324.425
3263.76855	320.925
3266.03799	326.425
3268.30606	332.625
3270.57277	339.225
3272.83812	323.925
3275.10211	333.625
3277.36474	357.025
3279.62601	360.025
3281.88593	348.725
3284.14448	340.125
3286.40168	371.525
3288.65753	373.625
3290.91202	383.925
3293.16516	384.625
3295.41695	415.925
3297.66738	429.825
3299.91647	424.225
3302.16421	443.225
3304.4106	415.625
3306.65564	450.625
3308.89933	428.625
3311.14169	435.325
3313.38269	438.225
3315.62236	439.425
3317.86068	441.625
3320.09766	457.725
3322.3333	439.925
3324.5676	457.325
3326.80056	455.225
3329.03219	468.125
3331.26248	0.125
3333.49143	-0.175
3335.71905	0.825
