Data from AgNPs_UA_20uM_CRN_500uM_SU_RamanShift__43__13-43-40-299.txt Node

Date: Thu Aug 04 13:43:40 BST 2022
User: TCL
Spectrometer: QEP01345
Trigger mode: 4
Integration Time (sec): 1.000000E0
Scans to average: 10
Electric dark correction enabled: true
Nonlinearity correction enabled: false
Boxcar width: 0
XAxis mode: Raman Shifts
Number of Pixels in Spectrum: 1044
>>>>>Begin Spectral Data<<<<<
46.04893	-1.5625
50.45542	-0.3625
54.85868	0.0375
59.25871	0.4375
63.6555	19.6375
68.04907	14.9375
72.43941	20.4375
76.82654	20.0375
81.21044	19.3375
85.59113	20.5375
89.96862	21.1375
94.34289	21.4375
98.71396	24.2375
103.08183	25.7375
107.4465	21.5375
111.80798	28.0375
116.16626	26.4375
120.52136	31.1375
124.87327	26.7375
129.222	32.4375
133.56755	32.2375
137.90993	34.9375
142.24913	40.6375
146.58517	45.2375
150.91804	54.8375
155.24774	67.5375
159.57429	81.9375
163.89768	103.5375
168.21792	147.0375
172.53501	198.6375
176.84895	278.3375
181.15975	393.7375
185.46741	558.9375
189.77193	773.8375
194.07331	1039.5375
198.37157	1345.9375
202.6667	1664.8375
206.9587	1993.9375
211.24758	2299.2375
215.53334	2633.1375
219.81599	2963.9375
224.09553	3354.0375
228.37195	3772.6375
232.64527	4245.1375
236.91549	4676.7375
241.18261	5107.4375
245.44663	5460.3375
249.70755	5750.7375
253.96539	6013.3375
258.22014	6206.7375
262.4718	6394.1375
266.72039	6540.8375
270.96589	6584.5375
275.20832	6535.6375
279.44768	6451.0375
283.68397	6348.9375
287.91719	6274.1375
292.14735	6274.4375
296.37445	6355.2375
300.59849	6516.9375
304.81948	6726.1375
309.03742	6910.1375
313.25231	7002.8375
317.46415	6937.9375
321.67296	6698.8375
325.87872	6464.7375
330.08145	6334.8375
334.28114	6347.1375
338.47781	6433.7375
342.67145	6544.3375
346.86207	6724.5375
351.04966	6952.5375
355.23424	7218.5375
359.4158	7390.1375
363.59435	7508.7375
367.76989	7565.2375
371.94243	7550.7375
376.11196	7545.2375
380.27849	7562.6375
384.44203	7573.7375
388.60257	7611.9375
392.76012	7679.7375
396.91468	7775.6375
401.06626	7879.9375
405.21485	7924.9375
409.36047	7834.4375
413.50311	7624.8375
417.64277	7414.3375
421.77947	7284.8375
425.9132	7228.7375
430.04396	7227.7375
434.17176	7269.3375
438.2966	7341.8375
442.41849	7471.8375
446.53742	7654.4375
450.6534	7839.3375
454.76644	7943.4375
458.87653	7972.2375
462.98368	7967.0375
467.08789	7910.2375
471.18916	7789.9375
475.2875	7627.2375
479.38291	7500.3375
483.4754	7410.4375
487.56496	7369.4375
491.6516	7327.2375
495.73531	7324.3375
499.81612	7329.4375
503.89401	7412.6375
507.96899	7443.6375
512.04106	7503.3375
516.11023	7543.8375
520.1765	7592.4375
524.23987	7596.1375
528.30034	7573.3375
532.35792	7551.5375
536.41261	7505.8375
540.46441	7427.8375
544.51333	7392.8375
548.55936	7442.3375
552.60252	7541.9375
556.64279	7661.6375
560.6802	7751.2375
564.71473	7821.6375
568.7464	7895.2375
572.7752	7877.0375
576.80114	7691.6375
580.82422	7578.1375
584.84444	7497.6375
588.86181	7543.0375
592.87633	7621.9375
596.888	7769.5375
600.89682	8122.3375
604.9028	8947.2375
608.90594	10646.1375
612.90624	12314.4375
616.90371	11382.7375
620.89834	9050.5375
624.89015	8119.3375
628.87913	8010.5375
632.86528	8142.6375
636.84862	8174.1375
640.82913	7997.3375
644.80683	7739.8375
648.78172	7559.4375
652.75379	7583.7375
656.72306	7806.6375
660.68952	8067.3375
664.65319	8011.8375
668.61405	7878.5375
672.57211	7898.0375
676.52738	7923.3375
680.47986	7800.0375
684.42955	7660.7375
688.37646	7606.8375
692.32058	7672.5375
696.26192	7815.7375
700.20048	7954.6375
704.13626	7978.9375
708.06928	7906.1375
711.99952	7815.3375
715.927	7829.3375
719.85171	7829.7375
723.77365	7844.8375
727.69284	7812.7375
731.60928	7751.0375
735.52295	7744.5375
739.43388	7749.8375
743.34206	7795.6375
747.24749	7826.8375
751.15017	7832.6375
755.05012	7903.1375
758.94733	8160.9375
762.8418	8753.5375
766.73354	9648.9375
770.62254	10418.1375
774.50882	10587.7375
778.39237	10256.8375
782.27321	9576.2375
786.15132	8826.3375
790.02671	8283.1375
793.89938	8016.6375
797.76935	7914.3375
801.6366	7846.8375
805.50115	7783.2375
809.36299	7759.7375
813.22213	7771.5375
817.07857	7739.7375
820.93231	7761.1375
824.78336	7786.1375
828.63172	7808.4375
832.47738	7781.6375
836.32036	7795.0375
840.16066	7770.1375
843.99827	7788.0375
847.8332	7803.5375
851.66546	7791.3375
855.49504	7797.8375
859.32195	7789.9375
863.1462	7810.0375
866.96777	7817.9375
870.78668	7798.8375
874.60293	7807.4375
878.41652	7840.3375
882.22745	7883.0375
886.03573	7925.9375
889.84136	7934.3375
893.64433	7899.5375
897.44466	7861.1375
901.24235	7863.3375
905.0374	7825.1375
908.8298	7802.7375
912.61957	7782.7375
916.40671	7791.6375
920.19121	7837.7375
923.97308	7888.4375
927.75233	7966.0375
931.52895	8026.6375
935.30295	7993.1375
939.07433	7876.7375
942.84309	7755.5375
946.60924	7722.1375
950.37278	7711.8375
954.13371	7692.3375
957.89203	7676.8375
961.64774	7682.2375
965.40086	7679.2375
969.15137	7658.0375
972.89929	7656.3375
976.64461	7667.1375
980.38733	7667.9375
984.12747	7681.8375
987.86502	7713.0375
991.59999	7792.5375
995.33237	7853.9375
999.06217	7951.4375
1002.78939	8105.8375
1006.51404	8227.2375
1010.23611	8336.2375
1013.95561	8394.4375
1017.67255	8456.0375
1021.38692	8427.0375
1025.09872	8385.7375
1028.80796	8373.6375
1032.51465	8401.3375
1036.21877	8456.5375
1039.92035	8491.8375
1043.61937	8451.3375
1047.31584	8399.2375
1051.00976	8352.6375
1054.70114	8347.3375
1058.38998	8372.8375
1062.07627	8396.4375
1065.76003	8454.9375
1069.44126	8543.6375
1073.11995	8665.3375
1076.79611	8829.4375
1080.46974	8906.1375
1084.14085	9003.1375
1087.80943	9075.4375
1091.47549	9134.4375
1095.13903	9096.3375
1098.80005	9048.7375
1102.45857	9039.6375
1106.11456	9015.1375
1109.76805	8919.3375
1113.41903	8934.1375
1117.06751	9016.9375
1120.71348	9170.4375
1124.35696	9336.5375
1127.99793	9427.6375
1131.63641	9321.1375
1135.2724	9042.8375
1138.90589	8878.0375
1142.5369	8718.6375
1146.16542	8661.0375
1149.79145	8576.6375
1153.415	8515.0375
1157.03607	8502.3375
1160.65467	8559.3375
1164.27079	8737.4375
1167.88443	8987.6375
1171.49561	9351.1375
1175.10432	9918.6375
1178.71056	10682.3375
1182.31434	11366.8375
1185.91565	11635.1375
1189.51451	11632.1375
1193.11091	11395.5375
1196.70485	11098.7375
1200.29634	10795.1375
1203.88538	10443.0375
1207.47197	10060.1375
1211.05612	9674.9375
1214.63782	9399.1375
1218.21708	9238.6375
1221.79391	9119.7375
1225.36829	9122.8375
1228.94024	9130.9375
1232.50976	9072.9375
1236.07685	9088.6375
1239.6415	9119.6375
1243.20374	9154.3375
1246.76355	9207.5375
1250.32093	9306.9375
1253.8759	9441.7375
1257.42845	9698.8375
1260.97859	9955.3375
1264.52631	10189.6375
1268.07163	10331.7375
1271.61453	10451.2375
1275.15503	10527.9375
1278.69312	10577.1375
1282.22882	10612.5375
1285.76211	10707.1375
1289.29301	10861.0375
1292.82151	11041.8375
1296.34761	11291.0375
1299.87133	11644.2375
1303.39266	12254.7375
1306.9116	13084.4375
1310.42815	14011.3375
1313.94233	14307.0375
1317.45412	13926.8375
1320.96354	13188.1375
1324.47058	12451.7375
1327.97525	11899.9375
1331.47754	11526.1375
1334.97747	11487.1375
1338.47502	11668.5375
1341.97022	12075.0375
1345.46305	12669.9375
1348.95352	13470.4375
1352.44163	14282.9375
1355.92738	15150.6375
1359.41078	16178.1375
1362.89183	16959.2375
1366.37053	16180.0375
1369.84688	14169.8375
1373.32088	12298.9375
1376.79254	11245.8375
1380.26186	10706.6375
1383.72883	10407.9375
1387.19347	10141.6375
1390.65578	9874.9375
1394.11575	9626.8375
1397.57339	9409.5375
1401.0287	9339.0375
1404.48168	9323.3375
1407.93234	9379.7375
1411.38068	9551.8375
1414.82669	9675.1375
1418.27039	9730.2375
1421.71177	9690.3375
1425.15083	9599.4375
1428.58758	9575.6375
1432.02203	9664.5375
1435.45416	9716.6375
1438.88399	9732.1375
1442.31151	9706.4375
1445.73673	9645.4375
1449.15965	9667.1375
1452.58027	9578.9375
1455.9986	9516.3375
1459.41463	9521.2375
1462.82837	9557.1375
1466.23982	9720.9375
1469.64898	9880.6375
1473.05586	10025.5375
1476.46045	10129.1375
1479.86276	10235.6375
1483.26279	10380.6375
1486.66054	10551.1375
1490.05602	10847.9375
1493.44922	11300.0375
1496.84016	11948.3375
1500.22882	12920.8375
1503.61521	14039.2375
1506.99934	15102.7375
1510.38121	15698.3375
1513.76081	15431.3375
1517.13816	14364.7375
1520.51324	12985.3375
1523.88607	11874.1375
1527.25665	11178.8375
1530.62498	10827.6375
1533.99105	10642.1375
1537.35488	10519.3375
1540.71647	10451.2375
1544.07581	10358.8375
1547.4329	10253.2375
1550.78776	10172.2375
1554.14038	10092.7375
1557.49077	10096.2375
1560.83892	10193.5375
1564.18484	10395.8375
1567.52853	10611.3375
1570.86999	10755.1375
1574.20922	10793.3375
1577.54624	10644.7375
1580.88103	10278.3375
1584.2136	9856.5375
1587.54395	9650.0375
1590.87208	9737.9375
1594.19801	10071.7375
1597.52172	10543.3375
1600.84321	10795.0375
1604.16251	10756.3375
1607.47959	10480.5375
1610.79447	10091.8375
1614.10715	9576.8375
1617.41763	9142.1375
1620.7259	8817.4375
1624.03199	8648.6375
1627.33587	8614.6375
1630.63757	8741.1375
1633.93707	9024.2375
1637.23439	9550.4375
1640.52951	10312.7375
1643.82246	11309.9375
1647.11321	12281.0375
1650.40179	12606.5375
1653.68819	11957.6375
1656.97241	10680.5375
1660.25446	9447.5375
1663.53433	8631.3375
1666.81203	8141.4375
1670.08756	7868.8375
1673.36092	7693.9375
1676.63211	7577.0375
1679.90115	7485.4375
1683.16801	7430.4375
1686.43272	7357.1375
1689.69527	7324.2375
1692.95567	7291.8375
1696.2139	7282.8375
1699.46999	7230.5375
1702.72392	7239.4375
1705.97571	7244.3375
1709.22535	7232.7375
1712.47284	7238.6375
1715.71819	7221.2375
1718.96139	7196.4375
1722.20246	7200.5375
1725.44139	7151.8375
1728.67818	7141.2375
1731.91284	7111.2375
1735.14537	7047.5375
1738.37576	7054.1375
1741.60403	7022.0375
1744.83017	7003.4375
1748.05418	7000.8375
1751.27607	6987.1375
1754.49584	6971.3375
1757.71349	6949.0375
1760.92903	6936.5375
1764.14244	6921.7375
1767.35375	6932.2375
1770.56294	6917.2375
1773.77002	6912.4375
1776.97499	6890.0375
1780.17785	6872.1375
1783.37861	6846.1375
1786.57727	6832.3375
1789.77382	6831.3375
1792.96828	6803.2375
1796.16064	6806.9375
1799.3509	6793.9375
1802.53907	6772.4375
1805.72514	6770.8375
1808.90913	6753.8375
1812.09102	6742.8375
1815.27083	6744.4375
1818.44856	6704.1375
1821.6242	6706.7375
1824.79776	6673.7375
1827.96924	6685.2375
1831.13864	6662.7375
1834.30597	6655.5375
1837.47122	6640.5375
1840.6344	6619.1375
1843.7955	6613.2375
1846.95454	6615.8375
1850.11151	6619.4375
1853.26642	6591.1375
1856.41926	6607.2375
1859.57004	6603.9375
1862.71876	6577.4375
1865.86542	6580.3375
1869.01003	6550.8375
1872.15258	6546.9375
1875.29308	6566.0375
1878.43152	6540.3375
1881.56792	6520.9375
1884.70227	6522.7375
1887.83457	6533.4375
1890.96482	6532.0375
1894.09304	6506.5375
1897.21921	6487.4375
1900.34335	6453.8375
1903.46544	6481.6375
1906.58551	6473.3375
1909.70353	6474.6375
1912.81953	6452.1375
1915.93349	6452.0375
1919.04543	6430.4375
1922.15534	6416.4375
1925.26322	6424.1375
1928.36908	6373.2375
1931.47292	6390.5375
1934.57473	6382.3375
1937.67453	6378.5375
1940.77232	6356.5375
1943.86808	6334.0375
1946.96184	6308.7375
1950.05358	6298.1375
1953.14331	6273.7375
1956.23103	6244.6375
1959.31675	6224.1375
1962.40046	6223.9375
1965.48217	6208.9375
1968.56188	6181.1375
1971.63959	6165.7375
1974.7153	6164.6375
1977.78901	6136.8375
1980.86073	6111.6375
1983.93046	6086.4375
1986.99819	6076.1375
1990.06394	6019.6375
1993.1277	6019.2375
1996.18947	6007.2375
1999.24925	5993.5375
2002.30706	5971.3375
2005.36288	5942.8375
2008.41672	5916.3375
2011.46859	5923.9375
2014.51848	5898.3375
2017.56639	5877.2375
2020.61233	5863.1375
2023.6563	5852.7375
2026.6983	5831.6375
2029.73833	5819.2375
2032.7764	5805.1375
2035.8125	5784.6375
2038.84664	5784.3375
2041.87881	5791.5375
2044.90903	5776.0375
2047.93729	5729.2375
2050.96359	5754.0375
2053.98794	5738.4375
2057.01034	5722.6375
2060.03078	5709.7375
2063.04927	5697.1375
2066.06582	5697.2375
2069.08042	5689.3375
2072.09307	5676.1375
2075.10378	5674.0375
2078.11255	5663.0375
2081.11938	5649.2375
2084.12426	5656.8375
2087.12722	5655.6375
2090.12824	5650.7375
2093.12732	5658.8375
2096.12447	5664.9375
2099.11969	5661.6375
2102.11299	5655.7375
2105.10435	5656.3375
2108.09379	5651.4375
2111.08131	5651.2375
2114.0669	5647.9375
2117.05057	5674.4375
2120.03233	5650.0375
2123.01216	5663.4375
2125.99008	5682.1375
2128.96609	5684.6375
2131.94018	5685.0375
2134.91236	5702.0375
2137.88263	5657.4375
2140.851	5659.6375
2143.81746	5666.4375
2146.78201	5672.5375
2149.74466	5668.5375
2152.7054	5677.2375
2155.66425	5644.0375
2158.6212	5676.2375
2161.57625	5670.8375
2164.52941	5662.1375
2167.48067	5646.1375
2170.43004	5644.6375
2173.37752	5645.7375
2176.32311	5652.1375
2179.26681	5641.8375
2182.20863	5662.7375
2185.14856	5639.7375
2188.08661	5662.5375
2191.02278	5656.7375
2193.95707	5658.7375
2196.88948	5626.7375
2199.82001	5646.4375
2202.74867	5626.3375
2205.67545	5633.0375
2208.60037	5631.5375
2211.52341	5616.6375
2214.44458	5592.3375
2217.36388	5576.5375
2220.28132	5557.8375
2223.1969	5533.0375
2226.11061	5537.6375
2229.02246	5509.9375
2231.93245	5514.7375
2234.84058	5492.7375
2237.74686	5475.7375
2240.65128	5496.9375
2243.55385	5493.3375
2246.45456	5474.3375
2249.35343	5473.7375
2252.25044	5449.8375
2255.14561	5456.7375
2258.03893	5442.1375
2260.93041	5438.4375
2263.82004	5415.6375
2266.70783	5410.7375
2269.59378	5396.9375
2272.4779	5382.1375
2275.36017	5368.3375
2278.24061	5350.3375
2281.11922	5345.1375
2283.996	5322.0375
2286.87094	5313.1375
2289.74405	5298.3375
2292.61534	5301.7375
2295.4848	5284.4375
2298.35243	5295.5375
2301.21824	5284.9375
2304.08223	5292.4375
2306.94439	5281.8375
2309.80474	5291.2375
2312.66327	5270.3375
2315.51999	5277.5375
2318.37489	5263.7375
2321.22797	5245.6375
2324.07925	5242.2375
2326.92871	5236.0375
2329.77637	5237.0375
2332.62222	5220.3375
2335.46626	5217.7375
2338.3085	5207.9375
2341.14893	5215.8375
2343.98756	5197.5375
2346.8244	5200.8375
2349.65943	5207.1375
2352.49267	5192.4375
2355.32411	5192.6375
2358.15376	5169.5375
2360.98161	5180.2375
2363.80768	5190.0375
2366.63195	5170.5375
2369.45444	5169.9375
2372.27514	5150.6375
2375.09405	5157.4375
2377.91118	5152.0375
2380.72652	5147.1375
2383.54009	5114.0375
2386.35187	5104.8375
2389.16188	5084.8375
2391.97011	5078.7375
2394.77657	5066.7375
2397.58125	5060.9375
2400.38416	5045.5375
2403.18529	5025.7375
2405.98466	5042.4375
2408.78226	5041.8375
2411.57809	5013.2375
2414.37216	5018.1375
2417.16446	5009.6375
2419.955	4985.9375
2422.74378	4982.7375
2425.5308	4971.7375
2428.31606	4959.2375
2431.09956	4961.6375
2433.88131	4962.1375
2436.6613	4972.9375
2439.43954	4966.0375
2442.21603	4975.1375
2444.99077	4961.1375
2447.76377	4972.6375
2450.53501	4930.2375
2453.30451	4945.8375
2456.07226	4932.1375
2458.83827	4927.6375
2461.60254	4919.0375
2464.36507	4908.1375
2467.12586	4907.7375
2469.88492	4902.8375
2472.64224	4919.3375
2475.39782	4891.2375
2478.15167	4901.9375
2480.90379	4903.2375
2483.65417	4891.2375
2486.40283	4907.6375
2489.14976	4898.6375
2491.89497	4874.2375
2494.63845	4894.8375
2497.3802	4885.9375
2500.12024	4876.6375
2502.85855	4872.9375
2505.59514	4849.2375
2508.33002	4841.3375
2511.06318	4832.1375
2513.79462	4813.4375
2516.52435	4814.4375
2519.25237	4800.1375
2521.97867	4793.9375
2524.70327	4788.9375
2527.42616	4779.3375
2530.14734	4775.8375
2532.86681	4785.6375
2535.58458	4774.4375
2538.30065	4767.4375
2541.01501	4757.1375
2543.72768	4757.3375
2546.43864	4754.8375
2549.14791	4745.5375
2551.85548	4744.1375
2554.56136	4744.5375
2557.26554	4744.3375
2559.96803	4718.8375
2562.66883	4697.1375
2565.36794	4699.7375
2568.06536	4679.4375
2570.7611	4663.4375
2573.45514	4673.2375
2576.14751	4666.8375
2578.83819	4666.4375
2581.52719	4648.9375
2584.21451	4637.7375
2586.90015	4620.9375
2589.58411	4603.2375
2592.2664	4603.9375
2594.94701	4616.4375
2597.62594	4604.0375
2600.30321	4604.1375
2602.9788	4584.3375
2605.65273	4582.0375
2608.32498	4562.4375
2610.99557	4560.0375
2613.66449	4563.2375
2616.33175	4534.6375
2618.99734	4543.2375
2621.66128	4539.1375
2624.32355	4538.0375
2626.98416	4543.2375
2629.64311	4532.0375
2632.30041	4515.1375
2634.95605	4521.2375
2637.61004	4498.2375
2640.26238	4495.2375
2642.91306	4490.3375
2645.56209	4485.4375
2648.20948	4482.5375
2650.85521	4489.1375
2653.4993	4484.8375
2656.14175	4461.1375
2658.78255	4475.6375
2661.42171	4468.7375
2664.05923	4485.4375
2666.6951	4491.3375
2669.32934	4491.0375
2671.96194	4477.3375
2674.59291	4488.8375
2677.22224	4466.9375
2679.84993	4487.6375
2682.476	4476.7375
2685.10043	4462.1375
2687.72324	4446.5375
2690.34441	4462.5375
2692.96396	4457.7375
2695.58188	4452.8375
2698.19818	4449.0375
2700.81285	4449.7375
2703.4259	4462.9375
2706.03733	4447.4375
2708.64714	4432.9375
2711.25533	4427.1375
2713.86191	4435.4375
2716.46687	4430.2375
2719.07021	4439.2375
2721.67194	4453.6375
2724.27206	4435.5375
2726.87057	4457.7375
2729.46747	4446.3375
2732.06276	4428.8375
2734.65644	4409.6375
2737.24852	4404.6375
2739.83899	4417.7375
2742.42786	4420.0375
2745.01513	4416.8375
2747.60079	4404.4375
2750.18486	4408.0375
2752.76733	4404.4375
2755.3482	4367.4375
2757.92747	4362.2375
2760.50515	4373.0375
2763.08123	4361.9375
2765.65573	4349.4375
2768.22863	4346.0375
2770.79994	4330.3375
2773.36967	4342.9375
2775.9378	4335.0375
2778.50435	4319.8375
2781.06932	4319.7375
2783.6327	4319.7375
2786.1945	4312.9375
2788.75471	4292.7375
2791.31335	4294.9375
2793.87041	4279.8375
2796.42589	4280.6375
2798.97979	4262.1375
2801.53212	4254.6375
2804.08288	4256.6375
2806.63206	4253.1375
2809.17967	4225.6375
2811.72571	4239.2375
2814.27018	4232.4375
2816.81308	4211.1375
2819.35442	4203.8375
2821.89419	4183.2375
2824.43239	4180.0375
2826.96904	4197.1375
2829.50412	4179.0375
2832.03763	4176.3375
2834.56959	4155.5375
2837.1	4147.5375
2839.62884	4155.4375
2842.15613	4155.8375
2844.68186	4153.2375
2847.20604	4140.4375
2849.72867	4130.6375
2852.24974	4109.1375
2854.76927	4107.2375
2857.28724	4091.8375
2859.80367	4078.6375
2862.31855	4085.2375
2864.83189	4102.5375
2867.34368	4069.3375
2869.85393	4086.8375
2872.36264	4066.1375
2874.8698	4074.3375
2877.37543	4064.2375
2879.87952	4053.1375
2882.38207	4056.0375
2884.88308	4041.1375
2887.38256	4042.4375
2889.88051	4049.5375
2892.37692	4044.4375
2894.8718	4023.4375
2897.36515	4021.9375
2899.85698	4047.4375
2902.34727	4036.4375
2904.83604	4028.5375
2907.32328	4032.9375
2909.809	4033.3375
2912.29319	4049.9375
2914.77587	4044.7375
2917.25702	4033.2375
2919.73665	4038.9375
2922.21476	4035.2375
2924.69136	4047.0375
2927.16644	4041.5375
2929.64	4013.8375
2932.11205	4013.4375
2934.58258	3990.8375
2937.05161	3994.1375
2939.51912	4002.8375
2941.98513	3987.2375
2944.44962	3974.2375
2946.91261	3964.9375
2949.37409	3982.5375
2951.83407	3987.3375
2954.29254	3984.0375
2956.74951	3964.7375
2959.20498	3978.1375
2961.65895	3953.1375
2964.11142	3969.6375
2966.56239	3960.3375
2969.01186	3951.3375
2971.45984	3943.1375
2973.90632	3959.1375
2976.35131	3938.9375
2978.7948	3923.3375
2981.23681	3913.2375
2983.67732	3902.3375
2986.11635	3905.2375
2988.55388	3899.7375
2990.98993	3889.6375
2993.4245	3888.8375
2995.85758	3880.6375
2998.28917	3861.7375
3000.71928	3855.5375
3003.14791	3840.5375
3005.57506	3842.7375
3008.00073	3834.1375
3010.42493	3805.5375
3012.84764	3793.6375
3015.26888	3788.5375
3017.68865	3789.4375
3020.10694	3780.0375
3022.52376	3763.2375
3024.9391	3770.5375
3027.35298	3758.6375
3029.76539	3739.3375
3032.17632	3734.2375
3034.5858	3739.3375
3036.9938	3740.6375
3039.40034	3710.6375
3041.80542	3699.2375
3044.20903	3694.6375
3046.61118	3694.7375
3049.01187	3685.1375
3051.4111	3675.4375
3053.80888	3681.4375
3056.20519	3646.6375
3058.60005	3637.1375
3060.99345	3646.4375
3063.3854	3648.0375
3065.7759	3627.8375
3068.16494	3618.1375
3070.55254	3614.5375
3072.93868	3595.2375
3075.32338	3588.6375
3077.70662	3573.8375
3080.08842	3566.5375
3082.46878	3560.2375
3084.84769	3538.8375
3087.22515	3544.9375
3089.60118	3551.6375
3091.97576	3536.3375
3094.3489	3546.3375
3096.72061	3528.3375
3099.09087	3530.8375
3101.4597	3529.6375
3103.82709	3533.2375
3106.19305	3507.7375
3108.55757	3513.9375
3110.92066	3512.9375
3113.28232	3492.7375
3115.64255	3483.4375
3118.00134	3473.6375
3120.35871	3469.2375
3122.71466	3461.4375
3125.06917	3469.3375
3127.42226	3455.2375
3129.77393	3438.4375
3132.12417	3444.7375
3134.47299	3435.1375
3136.82039	3428.7375
3139.16636	3431.9375
3141.51092	3413.8375
3143.85406	3412.1375
3146.19579	3421.9375
3148.53609	3409.4375
3150.87499	3421.4375
3153.21246	3414.3375
3155.54853	3422.7375
3157.88318	3401.4375
3160.21642	3417.6375
3162.54826	3416.3375
3164.87868	3402.8375
3167.2077	3403.4375
3169.5353	3380.8375
3171.86151	3402.0375
3174.18631	3373.7375
3176.5097	3376.0375
3178.83169	3378.7375
3181.15228	3367.7375
3183.47147	3356.6375
3185.78926	3353.2375
3188.10565	3340.8375
3190.42065	3338.7375
3192.73424	3346.2375
3195.04645	3317.5375
3197.35725	3319.2375
3199.66667	3289.7375
3201.97469	3312.8375
3204.28132	3302.9375
3206.58656	3319.8375
3208.8904	3305.2375
3211.19287	3317.9375
3213.49394	3317.9375
3215.79363	3309.2375
3218.09193	3318.1375
3220.38884	3295.7375
3222.68438	3304.4375
3224.97853	3289.9375
3227.2713	3305.7375
3229.56269	3287.4375
3231.8527	3295.4375
3234.14133	3283.9375
3236.42858	3278.1375
3238.71446	3263.0375
3240.99896	3244.8375
3243.28209	3246.9375
3245.56384	3244.2375
3247.84423	3238.8375
3250.12324	3249.2375
3252.40088	3236.9375
3254.67715	3224.1375
3256.95205	3222.8375
3259.22558	3214.8375
3261.49775	3204.4375
3263.76855	3225.8375
3266.03799	3207.8375
3268.30606	3218.0375
3270.57277	3223.7375
3272.83812	3210.8375
3275.10211	3199.3375
3277.36474	3190.6375
3279.62601	3176.6375
3281.88593	3166.6375
3284.14448	3150.9375
3286.40168	3169.2375
3288.65753	3167.3375
3290.91202	3160.7375
3293.16516	3139.9375
3295.41695	3140.2375
3297.66738	3127.0375
3299.91647	3092.9375
3302.16421	3085.8375
3304.4106	3080.5375
3306.65564	3051.4375
3308.89933	3031.6375
3311.14169	2999.7375
3313.38269	2982.2375
3315.62236	2963.5375
3317.86068	2933.7375
3320.09766	2912.3375
3322.3333	2888.8375
3324.5676	2862.3375
3326.80056	2826.4375
3329.03219	2805.3375
3331.26248	2.2375
3333.49143	-1.2625
3335.71905	-0.6625
