Data from AgNPs_UA_50uM_CRN_500uM_SU_RamanShift__36__14-01-50-321.txt Node

Date: Thu Aug 04 14:01:50 BST 2022
User: TCL
Spectrometer: QEP01345
Trigger mode: 4
Integration Time (sec): 1.000000E0
Scans to average: 10
Electric dark correction enabled: true
Nonlinearity correction enabled: false
Boxcar width: 0
XAxis mode: Raman Shifts
Number of Pixels in Spectrum: 1044
>>>>>Begin Spectral Data<<<<<
46.04893	2.2125
50.45542	-0.6875
54.85868	-0.3875
59.25871	0.1125
63.6555	13.8125
68.04907	12.4125
72.43941	15.2125
76.82654	15.9125
81.21044	15.3125
85.59113	18.7125
89.96862	18.1125
94.34289	19.2125
98.71396	19.5125
103.08183	18.5125
107.4465	19.0125
111.80798	18.4125
116.16626	21.4125
120.52136	23.6125
124.87327	23.4125
129.222	24.2125
133.56755	27.6125
137.90993	29.4125
142.24913	30.3125
146.58517	34.6125
150.91804	40.0125
155.24774	49.4125
159.57429	63.3125
163.89768	82.3125
168.21792	109.7125
172.53501	145.6125
176.84895	211.1125
181.15975	302.6125
185.46741	421.7125
189.77193	595.1125
194.07331	789.4125
198.37157	1031.1125
202.6667	1265.2125
206.9587	1517.2125
211.24758	1778.2125
215.53334	2029.3125
219.81599	2299.2125
224.09553	2597.2125
228.37195	2941.3125
232.64527	3300.4125
236.91549	3654.2125
241.18261	3972.1125
245.44663	4222.7125
249.70755	4425.2125
253.96539	4598.8125
258.22014	4734.2125
262.4718	4863.4125
266.72039	4946.6125
270.96589	4979.2125
275.20832	4944.2125
279.44768	4861.4125
283.68397	4799.2125
287.91719	4727.3125
292.14735	4726.0125
296.37445	4818.2125
300.59849	4972.9125
304.81948	5152.1125
309.03742	5354.1125
313.25231	5477.3125
317.46415	5395.7125
321.67296	5187.2125
325.87872	4939.1125
330.08145	4825.2125
334.28114	4818.8125
338.47781	4893.8125
342.67145	5001.8125
346.86207	5147.1125
351.04966	5345.2125
355.23424	5574.2125
359.4158	5733.2125
363.59435	5791.7125
367.76989	5808.7125
371.94243	5777.6125
376.11196	5747.1125
380.27849	5706.5125
384.44203	5714.5125
388.60257	5703.0125
392.76012	5746.1125
396.91468	5812.0125
401.06626	5904.9125
405.21485	5926.6125
409.36047	5826.9125
413.50311	5657.1125
417.64277	5461.1125
421.77947	5349.0125
425.9132	5291.9125
430.04396	5309.6125
434.17176	5332.2125
438.2966	5397.9125
442.41849	5487.8125
446.53742	5563.6125
450.6534	5674.5125
454.76644	5737.9125
458.87653	5742.2125
462.98368	5744.2125
467.08789	5716.1125
471.18916	5642.6125
475.2875	5553.0125
479.38291	5436.7125
483.4754	5374.8125
487.56496	5361.2125
491.6516	5345.5125
495.73531	5346.5125
499.81612	5365.0125
503.89401	5414.5125
507.96899	5452.0125
512.04106	5492.4125
516.11023	5560.8125
520.1765	5589.7125
524.23987	5613.4125
528.30034	5600.1125
532.35792	5578.7125
536.41261	5527.7125
540.46441	5443.4125
544.51333	5422.0125
548.55936	5461.0125
552.60252	5548.5125
556.64279	5638.0125
560.6802	5703.9125
564.71473	5758.4125
568.7464	5850.0125
572.7752	5850.4125
576.80114	5690.7125
580.82422	5574.8125
584.84444	5497.4125
588.86181	5494.6125
592.87633	5531.1125
596.888	5612.5125
600.89682	5897.2125
604.9028	6554.8125
608.90594	7943.4125
612.90624	9406.8125
616.90371	8697.7125
620.89834	6703.2125
624.89015	5863.8125
628.87913	5751.8125
632.86528	5889.1125
636.84862	5991.3125
640.82913	5869.1125
644.80683	5662.0125
648.78172	5553.7125
652.75379	5563.3125
656.72306	5739.5125
660.68952	5905.3125
664.65319	5867.4125
668.61405	5724.4125
672.57211	5725.1125
676.52738	5744.1125
680.47986	5647.0125
684.42955	5560.9125
688.37646	5543.7125
692.32058	5577.3125
696.26192	5656.0125
700.20048	5749.8125
704.13626	5751.3125
708.06928	5719.6125
711.99952	5686.7125
715.927	5679.0125
719.85171	5696.8125
723.77365	5726.8125
727.69284	5693.2125
731.60928	5653.7125
735.52295	5628.9125
739.43388	5647.4125
743.34206	5659.2125
747.24749	5682.9125
751.15017	5674.0125
755.05012	5734.4125
758.94733	5955.0125
762.8418	6483.5125
766.73354	7286.4125
770.62254	7909.0125
774.50882	8026.1125
778.39237	7711.2125
782.27321	7109.2125
786.15132	6483.7125
790.02671	6053.2125
793.89938	5831.3125
797.76935	5732.7125
801.6366	5675.3125
805.50115	5659.7125
809.36299	5636.7125
813.22213	5609.2125
817.07857	5615.3125
820.93231	5630.0125
824.78336	5636.0125
828.63172	5676.3125
832.47738	5671.4125
836.32036	5645.8125
840.16066	5621.2125
843.99827	5616.4125
847.8332	5611.4125
851.66546	5637.6125
855.49504	5616.1125
859.32195	5659.5125
863.1462	5637.6125
866.96777	5660.4125
870.78668	5660.2125
874.60293	5667.3125
878.41652	5678.8125
882.22745	5717.9125
886.03573	5766.8125
889.84136	5745.2125
893.64433	5733.1125
897.44466	5717.9125
901.24235	5720.8125
905.0374	5694.8125
908.8298	5659.8125
912.61957	5658.1125
916.40671	5653.7125
920.19121	5672.8125
923.97308	5726.4125
927.75233	5775.3125
931.52895	5797.4125
935.30295	5764.1125
939.07433	5674.0125
942.84309	5604.1125
946.60924	5582.2125
950.37278	5573.4125
954.13371	5562.6125
957.89203	5545.3125
961.64774	5557.0125
965.40086	5551.8125
969.15137	5534.2125
972.89929	5549.9125
976.64461	5545.6125
980.38733	5535.6125
984.12747	5553.2125
987.86502	5556.6125
991.59999	5604.7125
995.33237	5618.5125
999.06217	5657.6125
1002.78939	5742.8125
1006.51404	5834.6125
1010.23611	5919.2125
1013.95561	5961.5125
1017.67255	5956.0125
1021.38692	5914.7125
1025.09872	5862.1125
1028.80796	5809.2125
1032.51465	5794.3125
1036.21877	5795.5125
1039.92035	5818.3125
1043.61937	5846.1125
1047.31584	5861.5125
1051.00976	5887.3125
1054.70114	5889.6125
1058.38998	5889.4125
1062.07627	5921.9125
1065.76003	5964.7125
1069.44126	6031.3125
1073.11995	6130.8125
1076.79611	6240.1125
1080.46974	6339.8125
1084.14085	6433.5125
1087.80943	6496.2125
1091.47549	6520.1125
1095.13903	6497.5125
1098.80005	6445.1125
1102.45857	6433.3125
1106.11456	6395.8125
1109.76805	6335.4125
1113.41903	6358.5125
1117.06751	6429.7125
1120.71348	6558.9125
1124.35696	6742.0125
1127.99793	6859.4125
1131.63641	6758.3125
1135.2724	6540.0125
1138.90589	6375.4125
1142.5369	6262.1125
1146.16542	6230.1125
1149.79145	6187.4125
1153.415	6126.3125
1157.03607	6095.7125
1160.65467	6110.2125
1164.27079	6236.4125
1167.88443	6386.7125
1171.49561	6662.3125
1175.10432	7074.0125
1178.71056	7680.0125
1182.31434	8167.2125
1185.91565	8297.6125
1189.51451	8169.3125
1193.11091	7948.4125
1196.70485	7756.7125
1200.29634	7593.8125
1203.88538	7417.1125
1207.47197	7144.2125
1211.05612	6923.9125
1214.63782	6720.3125
1218.21708	6547.5125
1221.79391	6453.6125
1225.36829	6400.6125
1228.94024	6363.6125
1232.50976	6378.8125
1236.07685	6389.3125
1239.6415	6423.3125
1243.20374	6436.6125
1246.76355	6474.7125
1250.32093	6527.6125
1253.8759	6630.0125
1257.42845	6794.5125
1260.97859	6948.8125
1264.52631	7119.8125
1268.07163	7248.8125
1271.61453	7289.6125
1275.15503	7317.7125
1278.69312	7315.5125
1282.22882	7303.2125
1285.76211	7370.3125
1289.29301	7534.3125
1292.82151	7643.8125
1296.34761	7788.2125
1299.87133	8031.7125
1303.39266	8472.8125
1306.9116	9113.1125
1310.42815	9830.2125
1313.94233	10006.0125
1317.45412	9615.4125
1320.96354	8990.7125
1324.47058	8434.3125
1327.97525	7964.4125
1331.47754	7682.9125
1334.97747	7617.9125
1338.47502	7708.9125
1341.97022	7967.9125
1345.46305	8428.2125
1348.95352	9100.8125
1352.44163	9839.6125
1355.92738	10618.3125
1359.41078	11574.8125
1362.89183	12363.5125
1366.37053	11874.3125
1369.84688	10236.3125
1373.32088	8705.0125
1376.79254	7839.7125
1380.26186	7422.3125
1383.72883	7206.9125
1387.19347	6987.5125
1390.65578	6770.8125
1394.11575	6568.3125
1397.57339	6447.0125
1401.0287	6385.2125
1404.48168	6337.6125
1407.93234	6344.4125
1411.38068	6408.5125
1414.82669	6485.0125
1418.27039	6524.3125
1421.71177	6503.3125
1425.15083	6463.2125
1428.58758	6410.5125
1432.02203	6416.4125
1435.45416	6458.5125
1438.88399	6461.1125
1442.31151	6463.4125
1445.73673	6495.4125
1449.15965	6522.5125
1452.58027	6496.6125
1455.9986	6435.2125
1459.41463	6422.2125
1462.82837	6480.2125
1466.23982	6597.7125
1469.64898	6706.0125
1473.05586	6813.6125
1476.46045	6852.9125
1479.86276	6925.1125
1483.26279	7021.8125
1486.66054	7181.3125
1490.05602	7400.1125
1493.44922	7716.0125
1496.84016	8245.8125
1500.22882	9045.6125
1503.61521	10051.5125
1506.99934	11054.3125
1510.38121	11593.6125
1513.76081	11423.1125
1517.13816	10511.1125
1520.51324	9341.0125
1523.88607	8377.5125
1527.25665	7780.8125
1530.62498	7471.5125
1533.99105	7335.6125
1537.35488	7247.2125
1540.71647	7181.6125
1544.07581	7136.3125
1547.4329	7064.8125
1550.78776	7018.2125
1554.14038	6963.5125
1557.49077	7001.0125
1560.83892	7062.4125
1564.18484	7235.3125
1567.52853	7491.9125
1570.86999	7659.8125
1574.20922	7711.6125
1577.54624	7610.4125
1580.88103	7277.6125
1584.2136	6901.5125
1587.54395	6680.0125
1590.87208	6625.2125
1594.19801	6792.7125
1597.52172	6988.7125
1600.84321	7082.1125
1604.16251	7043.9125
1607.47959	6897.1125
1610.79447	6733.3125
1614.10715	6465.7125
1617.41763	6237.4125
1620.7259	6067.4125
1624.03199	5961.6125
1627.33587	5930.5125
1630.63757	5996.7125
1633.93707	6114.9125
1637.23439	6419.5125
1640.52951	6869.2125
1643.82246	7563.1125
1647.11321	8340.2125
1650.40179	8753.9125
1653.68819	8506.1125
1656.97241	7662.1125
1660.25446	6778.5125
1663.53433	6185.7125
1666.81203	5795.2125
1670.08756	5596.0125
1673.36092	5456.8125
1676.63211	5370.5125
1679.90115	5319.0125
1683.16801	5258.5125
1686.43272	5211.5125
1689.69527	5183.2125
1692.95567	5141.7125
1696.2139	5134.1125
1699.46999	5138.2125
1702.72392	5115.8125
1705.97571	5120.3125
1709.22535	5102.9125
1712.47284	5121.5125
1715.71819	5119.2125
1718.96139	5116.1125
1722.20246	5112.4125
1725.44139	5065.7125
1728.67818	5046.1125
1731.91284	5029.9125
1735.14537	5009.1125
1738.37576	4998.2125
1741.60403	4972.6125
1744.83017	4968.0125
1748.05418	4967.2125
1751.27607	4959.5125
1754.49584	4919.3125
1757.71349	4924.9125
1760.92903	4932.7125
1764.14244	4930.2125
1767.35375	4915.2125
1770.56294	4905.7125
1773.77002	4900.9125
1776.97499	4888.3125
1780.17785	4857.5125
1783.37861	4842.2125
1786.57727	4851.1125
1789.77382	4824.0125
1792.96828	4816.5125
1796.16064	4814.2125
1799.3509	4798.8125
1802.53907	4796.1125
1805.72514	4786.3125
1808.90913	4775.7125
1812.09102	4753.2125
1815.27083	4750.9125
1818.44856	4735.0125
1821.6242	4726.7125
1824.79776	4729.3125
1827.96924	4718.8125
1831.13864	4685.0125
1834.30597	4680.8125
1837.47122	4672.0125
1840.6344	4680.8125
1843.7955	4670.8125
1846.95454	4665.2125
1850.11151	4672.7125
1853.26642	4681.7125
1856.41926	4668.3125
1859.57004	4666.9125
1862.71876	4672.9125
1865.86542	4656.6125
1869.01003	4638.6125
1872.15258	4644.1125
1875.29308	4630.3125
1878.43152	4636.4125
1881.56792	4640.4125
1884.70227	4623.2125
1887.83457	4598.5125
1890.96482	4610.0125
1894.09304	4576.7125
1897.21921	4583.6125
1900.34335	4573.1125
1903.46544	4565.1125
1906.58551	4568.0125
1909.70353	4551.1125
1912.81953	4541.7125
1915.93349	4545.0125
1919.04543	4529.3125
1922.15534	4514.7125
1925.26322	4519.7125
1928.36908	4520.4125
1931.47292	4502.9125
1934.57473	4491.0125
1937.67453	4484.1125
1940.77232	4455.0125
1943.86808	4447.4125
1946.96184	4443.0125
1950.05358	4426.4125
1953.14331	4405.6125
1956.23103	4398.6125
1959.31675	4384.7125
1962.40046	4373.7125
1965.48217	4366.7125
1968.56188	4353.8125
1971.63959	4348.7125
1974.7153	4335.6125
1977.78901	4310.8125
1980.86073	4313.6125
1983.93046	4298.3125
1986.99819	4267.8125
1990.06394	4255.1125
1993.1277	4249.0125
1996.18947	4246.3125
1999.24925	4227.6125
2002.30706	4204.0125
2005.36288	4176.7125
2008.41672	4172.9125
2011.46859	4155.8125
2014.51848	4151.4125
2017.56639	4144.3125
2020.61233	4126.8125
2023.6563	4104.9125
2026.6983	4090.2125
2029.73833	4070.7125
2032.7764	4057.5125
2035.8125	4059.7125
2038.84664	4049.5125
2041.87881	4052.1125
2044.90903	4029.7125
2047.93729	4031.1125
2050.96359	4030.0125
2053.98794	4013.5125
2057.01034	4024.9125
2060.03078	4012.8125
2063.04927	4017.2125
2066.06582	4009.1125
2069.08042	3991.0125
2072.09307	3980.3125
2075.10378	3983.2125
2078.11255	3979.4125
2081.11938	3970.7125
2084.12426	3975.0125
2087.12722	3976.8125
2090.12824	3987.8125
2093.12732	3975.9125
2096.12447	3976.0125
2099.11969	3982.3125
2102.11299	3967.4125
2105.10435	3983.6125
2108.09379	3982.2125
2111.08131	3971.8125
2114.0669	3982.3125
2117.05057	3970.9125
2120.03233	3984.2125
2123.01216	3981.1125
2125.99008	3977.6125
2128.96609	3996.8125
2131.94018	3996.2125
2134.91236	3979.0125
2137.88263	3990.1125
2140.851	3980.6125
2143.81746	3992.3125
2146.78201	3978.2125
2149.74466	4003.9125
2152.7054	3975.9125
2155.66425	3986.0125
2158.6212	3981.2125
2161.57625	3988.6125
2164.52941	3968.5125
2167.48067	3976.5125
2170.43004	3972.3125
2173.37752	3954.5125
2176.32311	3965.4125
2179.26681	3965.4125
2182.20863	3976.9125
2185.14856	3971.9125
2188.08661	3966.4125
2191.02278	3945.6125
2193.95707	3956.9125
2196.88948	3949.0125
2199.82001	3938.3125
2202.74867	3934.1125
2205.67545	3941.6125
2208.60037	3926.5125
2211.52341	3930.9125
2214.44458	3931.0125
2217.36388	3911.3125
2220.28132	3906.3125
2223.1969	3875.4125
2226.11061	3870.0125
2229.02246	3859.0125
2231.93245	3865.4125
2234.84058	3847.7125
2237.74686	3840.3125
2240.65128	3846.0125
2243.55385	3819.3125
2246.45456	3819.3125
2249.35343	3827.7125
2252.25044	3832.6125
2255.14561	3810.1125
2258.03893	3817.7125
2260.93041	3814.5125
2263.82004	3809.6125
2266.70783	3798.9125
2269.59378	3792.5125
2272.4779	3773.6125
2275.36017	3754.4125
2278.24061	3749.8125
2281.11922	3732.0125
2283.996	3722.6125
2286.87094	3726.3125
2289.74405	3723.1125
2292.61534	3715.5125
2295.4848	3714.4125
2298.35243	3713.4125
2301.21824	3711.4125
2304.08223	3711.4125
2306.94439	3709.1125
2309.80474	3695.0125
2312.66327	3694.0125
2315.51999	3694.5125
2318.37489	3689.4125
2321.22797	3670.7125
2324.07925	3673.1125
2326.92871	3641.8125
2329.77637	3651.6125
2332.62222	3656.7125
2335.46626	3636.3125
2338.3085	3632.3125
2341.14893	3635.7125
2343.98756	3621.1125
2346.8244	3618.4125
2349.65943	3607.0125
2352.49267	3612.0125
2355.32411	3607.8125
2358.15376	3604.1125
2360.98161	3611.8125
2363.80768	3604.9125
2366.63195	3609.2125
2369.45444	3613.9125
2372.27514	3606.5125
2375.09405	3597.8125
2377.91118	3580.2125
2380.72652	3589.0125
2383.54009	3561.5125
2386.35187	3567.3125
2389.16188	3552.5125
2391.97011	3532.8125
2394.77657	3537.4125
2397.58125	3509.6125
2400.38416	3505.5125
2403.18529	3505.3125
2405.98466	3514.1125
2408.78226	3501.7125
2411.57809	3486.9125
2414.37216	3485.4125
2417.16446	3475.6125
2419.955	3478.4125
2422.74378	3474.6125
2425.5308	3465.6125
2428.31606	3467.6125
2431.09956	3460.6125
2433.88131	3462.5125
2436.6613	3459.3125
2439.43954	3456.8125
2442.21603	3473.0125
2444.99077	3450.9125
2447.76377	3456.8125
2450.53501	3443.8125
2453.30451	3456.4125
2456.07226	3446.4125
2458.83827	3437.2125
2461.60254	3429.6125
2464.36507	3414.9125
2467.12586	3421.0125
2469.88492	3415.6125
2472.64224	3417.0125
2475.39782	3412.1125
2478.15167	3425.0125
2480.90379	3417.8125
2483.65417	3403.6125
2486.40283	3409.2125
2489.14976	3409.9125
2491.89497	3408.4125
2494.63845	3399.0125
2497.3802	3396.5125
2500.12024	3392.7125
2502.85855	3378.7125
2505.59514	3373.5125
2508.33002	3369.0125
2511.06318	3363.9125
2513.79462	3359.1125
2516.52435	3337.9125
2519.25237	3348.8125
2521.97867	3323.3125
2524.70327	3330.1125
2527.42616	3311.3125
2530.14734	3306.9125
2532.86681	3300.7125
2535.58458	3327.6125
2538.30065	3301.0125
2541.01501	3316.9125
2543.72768	3299.1125
2546.43864	3303.5125
2549.14791	3288.9125
2551.85548	3289.8125
2554.56136	3266.2125
2557.26554	3273.6125
2559.96803	3261.1125
2562.66883	3257.7125
2565.36794	3247.5125
2568.06536	3237.0125
2570.7611	3225.4125
2573.45514	3229.2125
2576.14751	3224.5125
2578.83819	3210.0125
2581.52719	3204.7125
2584.21451	3208.4125
2586.90015	3198.8125
2589.58411	3198.1125
2592.2664	3182.3125
2594.94701	3178.0125
2597.62594	3170.4125
2600.30321	3167.4125
2602.9788	3174.0125
2605.65273	3153.8125
2608.32498	3156.8125
2610.99557	3157.7125
2613.66449	3147.0125
2616.33175	3152.3125
2618.99734	3138.0125
2621.66128	3127.8125
2624.32355	3111.0125
2626.98416	3116.4125
2629.64311	3106.9125
2632.30041	3098.4125
2634.95605	3086.4125
2637.61004	3071.7125
2640.26238	3062.9125
2642.91306	3075.3125
2645.56209	3063.1125
2648.20948	3058.4125
2650.85521	3065.6125
2653.4993	3068.5125
2656.14175	3069.9125
2658.78255	3064.5125
2661.42171	3066.5125
2664.05923	3068.8125
2666.6951	3074.1125
2669.32934	3064.2125
2671.96194	3052.6125
2674.59291	3062.4125
2677.22224	3051.6125
2679.84993	3062.3125
2682.476	3058.7125
2685.10043	3036.0125
2687.72324	3050.1125
2690.34441	3043.7125
2692.96396	3047.1125
2695.58188	3040.7125
2698.19818	3042.6125
2700.81285	3041.1125
2703.4259	3045.5125
2706.03733	3045.0125
2708.64714	3035.1125
2711.25533	3037.1125
2713.86191	3031.2125
2716.46687	3025.5125
2719.07021	3031.5125
2721.67194	3026.4125
2724.27206	3025.3125
2726.87057	3023.8125
2729.46747	3025.9125
2732.06276	3031.2125
2734.65644	3013.9125
2737.24852	2998.3125
2739.83899	3008.6125
2742.42786	3003.2125
2745.01513	3020.4125
2747.60079	2994.0125
2750.18486	2989.4125
2752.76733	3001.3125
2755.3482	2976.5125
2757.92747	2971.2125
2760.50515	2966.8125
2763.08123	2959.0125
2765.65573	2948.8125
2768.22863	2948.5125
2770.79994	2927.9125
2773.36967	2940.8125
2775.9378	2930.3125
2778.50435	2942.2125
2781.06932	2937.3125
2783.6327	2932.4125
2786.1945	2925.0125
2788.75471	2920.3125
2791.31335	2912.2125
2793.87041	2910.6125
2796.42589	2904.4125
2798.97979	2896.2125
2801.53212	2888.6125
2804.08288	2891.5125
2806.63206	2891.8125
2809.17967	2871.6125
2811.72571	2855.8125
2814.27018	2855.7125
2816.81308	2850.2125
2819.35442	2847.5125
2821.89419	2844.9125
2824.43239	2824.7125
2826.96904	2813.8125
2829.50412	2824.5125
2832.03763	2807.1125
2834.56959	2818.0125
2837.1	2794.4125
2839.62884	2810.1125
2842.15613	2780.3125
2844.68186	2787.0125
2847.20604	2780.3125
2849.72867	2783.9125
2852.24974	2774.9125
2854.76927	2783.6125
2857.28724	2762.5125
2859.80367	2763.9125
2862.31855	2756.1125
2864.83189	2763.0125
2867.34368	2768.5125
2869.85393	2765.7125
2872.36264	2754.2125
2874.8698	2751.6125
2877.37543	2750.5125
2879.87952	2744.7125
2882.38207	2743.8125
2884.88308	2729.6125
2887.38256	2739.9125
2889.88051	2719.0125
2892.37692	2715.3125
2894.8718	2707.1125
2897.36515	2716.7125
2899.85698	2717.0125
2902.34727	2711.5125
2904.83604	2715.7125
2907.32328	2735.4125
2909.809	2735.8125
2912.29319	2725.0125
2914.77587	2729.7125
2917.25702	2726.6125
2919.73665	2732.9125
2922.21476	2719.3125
2924.69136	2715.2125
2927.16644	2712.0125
2929.64	2712.4125
2932.11205	2710.3125
2934.58258	2692.2125
2937.05161	2690.8125
2939.51912	2693.3125
2941.98513	2701.8125
2944.44962	2681.7125
2946.91261	2676.7125
2949.37409	2683.2125
2951.83407	2676.9125
2954.29254	2678.3125
2956.74951	2682.4125
2959.20498	2687.1125
2961.65895	2665.0125
2964.11142	2665.6125
2966.56239	2655.0125
2969.01186	2632.5125
2971.45984	2660.5125
2973.90632	2653.5125
2976.35131	2654.9125
2978.7948	2645.4125
2981.23681	2640.6125
2983.67732	2649.0125
2986.11635	2627.2125
2988.55388	2623.3125
2990.98993	2619.0125
2993.4245	2613.9125
2995.85758	2612.0125
2998.28917	2601.3125
3000.71928	2600.1125
3003.14791	2588.8125
3005.57506	2590.8125
3008.00073	2580.3125
3010.42493	2580.6125
3012.84764	2567.1125
3015.26888	2571.7125
3017.68865	2561.8125
3020.10694	2555.2125
3022.52376	2541.7125
3024.9391	2534.8125
3027.35298	2532.1125
3029.76539	2522.8125
3032.17632	2528.0125
3034.5858	2517.6125
3036.9938	2510.8125
3039.40034	2504.8125
3041.80542	2508.5125
3044.20903	2491.1125
3046.61118	2492.9125
3049.01187	2481.4125
3051.4111	2479.2125
3053.80888	2465.5125
3056.20519	2475.8125
3058.60005	2477.5125
3060.99345	2467.0125
3063.3854	2453.4125
3065.7759	2457.1125
3068.16494	2449.0125
3070.55254	2444.9125
3072.93868	2426.6125
3075.32338	2425.1125
3077.70662	2428.0125
3080.08842	2422.6125
3082.46878	2406.2125
3084.84769	2392.2125
3087.22515	2391.7125
3089.60118	2403.9125
3091.97576	2395.0125
3094.3489	2382.3125
3096.72061	2396.8125
3099.09087	2396.3125
3101.4597	2390.2125
3103.82709	2392.8125
3106.19305	2370.2125
3108.55757	2375.9125
3110.92066	2367.9125
3113.28232	2370.1125
3115.64255	2378.0125
3118.00134	2360.5125
3120.35871	2350.3125
3122.71466	2352.2125
3125.06917	2345.4125
3127.42226	2329.1125
3129.77393	2332.9125
3132.12417	2331.2125
3134.47299	2331.6125
3136.82039	2322.2125
3139.16636	2325.9125
3141.51092	2322.3125
3143.85406	2318.3125
3146.19579	2310.2125
3148.53609	2311.0125
3150.87499	2315.6125
3153.21246	2311.6125
3155.54853	2320.5125
3157.88318	2308.2125
3160.21642	2314.9125
3162.54826	2306.4125
3164.87868	2310.9125
3167.2077	2303.1125
3169.5353	2307.3125
3171.86151	2299.8125
3174.18631	2304.7125
3176.5097	2294.1125
3178.83169	2289.0125
3181.15228	2293.8125
3183.47147	2291.3125
3185.78926	2289.0125
3188.10565	2261.8125
3190.42065	2261.5125
3192.73424	2268.1125
3195.04645	2267.8125
3197.35725	2255.4125
3199.66667	2250.0125
3201.97469	2258.3125
3204.28132	2255.0125
3206.58656	2260.2125
3208.8904	2254.1125
3211.19287	2258.8125
3213.49394	2254.1125
3215.79363	2257.2125
3218.09193	2244.6125
3220.38884	2252.8125
3222.68438	2252.2125
3224.97853	2235.7125
3227.2713	2236.4125
3229.56269	2238.3125
3231.8527	2234.6125
3234.14133	2223.1125
3236.42858	2224.5125
3238.71446	2223.9125
3240.99896	2210.0125
3243.28209	2201.9125
3245.56384	2206.4125
3247.84423	2210.8125
3250.12324	2206.0125
3252.40088	2194.2125
3254.67715	2193.7125
3256.95205	2189.4125
3259.22558	2183.2125
3261.49775	2182.9125
3263.76855	2178.0125
3266.03799	2188.0125
3268.30606	2188.9125
3270.57277	2191.2125
3272.83812	2167.7125
3275.10211	2160.5125
3277.36474	2154.3125
3279.62601	2159.8125
3281.88593	2156.7125
3284.14448	2152.3125
3286.40168	2151.2125
3288.65753	2148.5125
3290.91202	2149.3125
3293.16516	2144.9125
3295.41695	2136.6125
3297.66738	2117.7125
3299.91647	2110.3125
3302.16421	2092.7125
3304.4106	2080.6125
3306.65564	2080.1125
3308.89933	2057.3125
3311.14169	2037.8125
3313.38269	2021.4125
3315.62236	2009.2125
3317.86068	1999.4125
3320.09766	1987.4125
3322.3333	1966.5125
3324.5676	1942.2125
3326.80056	1920.4125
3329.03219	1906.0125
3331.26248	-0.6875
3333.49143	-0.0875
3335.71905	-0.8875
