Data from AgNPs_UA_5uM_CRN_500uM_SU_RamanShift__32__11-34-43-145.txt Node

Date: Thu Aug 04 11:34:43 BST 2022
User: TCL
Spectrometer: QEP01345
Trigger mode: 4
Integration Time (sec): 1.000000E0
Scans to average: 10
Electric dark correction enabled: true
Nonlinearity correction enabled: false
Boxcar width: 0
XAxis mode: Raman Shifts
Number of Pixels in Spectrum: 1044
>>>>>Begin Spectral Data<<<<<
46.04893	-0.2
50.45542	0.3
54.85868	-0.3
59.25871	-0.8
63.6555	-53.9
68.04907	-33.3
72.43941	-67.3
76.82654	-51.2
81.21044	-52.2
85.59113	-43
89.96862	-69.3
94.34289	-51.2
98.71396	-70.3
103.08183	-52.2
107.4465	-42
111.80798	-48.1
116.16626	-37.1
120.52136	-64.2
124.87327	-38.7
129.222	-49.2
133.56755	-32
137.90993	-43.4
142.24913	-27.7
146.58517	-18.7
150.91804	-7
155.24774	12.3
159.57429	43.5
163.89768	69.7
168.21792	145.8
172.53501	210.2
176.84895	351.7
181.15975	583.2
185.46741	863.5
189.77193	1213.5
194.07331	1718.3
198.37157	2241.5
202.6667	2806.5
206.9587	3427.4
211.24758	4075.5
215.53334	4800.4
219.81599	5650.7
224.09553	6601
228.37195	7601.1
232.64527	8549.7
236.91549	9318.1
241.18261	9712.7
245.44663	9838.6
249.70755	9781
253.96539	9819.6
258.22014	9887.5
262.4718	9995.4
266.72039	9995
270.96589	9708.1
275.20832	9307.4
279.44768	8884.7
283.68397	8559.4
287.91719	8473.9
292.14735	8680
296.37445	9347.1
300.59849	10490.5
304.81948	12113.6
309.03742	13928.5
313.25231	15264.1
317.46415	15074.5
321.67296	13222.3
325.87872	11059.7
330.08145	9788.2
334.28114	9543.7
338.47781	9871.4
342.67145	10579.6
346.86207	11710.2
351.04966	13442.1
355.23424	15107.2
359.4158	15716.4
363.59435	15104.1
367.76989	14064.4
371.94243	13067.5
376.11196	12235.7
380.27849	11640.6
384.44203	11141.4
388.60257	10887
392.76012	10933.3
396.91468	11299.6
401.06626	11746
405.21485	11770.1
409.36047	10984.9
413.50311	9660.5
417.64277	8440.3
421.77947	7654.7
425.9132	7296.9
430.04396	7124.2
434.17176	7095.5
438.2966	7250.9
442.41849	7524.8
446.53742	7775.9
450.6534	7928.3
454.76644	7884.9
458.87653	7751.6
462.98368	7589.4
467.08789	7403.1
471.18916	7124.3
475.2875	6754.8
479.38291	6479.4
483.4754	6313
487.56496	6212.8
491.6516	6127.3
495.73531	6095.5
499.81612	6174.3
503.89401	6391.2
507.96899	6622.7
512.04106	6918.7
516.11023	7252
520.1765	7497.6
524.23987	7635
528.30034	7606.4
532.35792	7441.6
536.41261	7283.1
540.46441	7011.7
544.51333	6827.6
548.55936	6809.3
552.60252	6996.1
556.64279	7278.2
560.6802	7800.3
564.71473	9004
568.7464	10599.6
572.7752	10522.2
576.80114	8527.7
580.82422	6906.6
584.84444	6203.7
588.86181	5977.8
592.87633	5977.2
596.888	6219.8
600.89682	7177.4
604.9028	10408.8
608.90594	18657.6
612.90624	28625.7
616.90371	25813.6
620.89834	13518.8
624.89015	8123.7
628.87913	7556.6
632.86528	8336.4
636.84862	8613.9
640.82913	7584.4
644.80683	6299.2
648.78172	5738.6
652.75379	5937
656.72306	6894.3
660.68952	7839.4
664.65319	7296.8
668.61405	6030.1
672.57211	5500.2
676.52738	5498.8
680.47986	5432.3
684.42955	5261.9
688.37646	5161.7
692.32058	5157.6
696.26192	5266.6
700.20048	5432.7
704.13626	5473.6
708.06928	5379
711.99952	5326
715.927	5406.3
719.85171	5677.8
723.77365	5869.7
727.69284	5661.3
731.60928	5480.3
735.52295	5397.9
739.43388	5486.2
743.34206	5555
747.24749	5544
751.15017	5565.2
755.05012	5989
758.94733	7622.1
762.8418	11287.4
766.73354	15994
770.62254	18350.7
774.50882	17403.6
778.39237	15447.7
782.27321	12626.6
786.15132	9141.4
790.02671	6844.2
793.89938	5815.4
797.76935	5489.3
801.6366	5318
805.50115	5216.1
809.36299	5160.5
813.22213	5116.2
817.07857	5155.5
820.93231	5189.8
824.78336	5322.1
828.63172	5449.8
832.47738	5531.9
836.32036	5399.4
840.16066	5131.7
843.99827	4961.3
847.8332	4900.8
851.66546	4885.3
855.49504	4885.7
859.32195	4877.2
863.1462	4803.4
866.96777	4788.7
870.78668	4779.7
874.60293	4851.4
878.41652	4925.5
882.22745	5109.9
886.03573	5223.1
889.84136	5176.6
893.64433	5150.8
897.44466	5141.5
901.24235	5171.5
905.0374	5073.9
908.8298	4864.5
912.61957	4717.2
916.40671	4602.7
920.19121	4684.2
923.97308	4920.5
927.75233	5429.7
931.52895	5959.8
935.30295	5669.2
939.07433	4912.2
942.84309	4440.9
946.60924	4273.9
950.37278	4186.7
954.13371	4181.6
957.89203	4175.1
961.64774	4180
965.40086	4156.6
969.15137	4125.7
972.89929	4148.6
976.64461	4111.6
980.38733	4089.8
984.12747	4094.8
987.86502	4109.5
991.59999	4156.5
995.33237	4236.3
999.06217	4350.5
1002.78939	4594.3
1006.51404	4961
1010.23611	5150.5
1013.95561	4955.4
1017.67255	4691.6
1021.38692	4512.2
1025.09872	4341.3
1028.80796	4234.7
1032.51465	4283
1036.21877	4356.8
1039.92035	4422
1043.61937	4513.2
1047.31584	4582.8
1051.00976	4611.8
1054.70114	4523.7
1058.38998	4449.4
1062.07627	4436.5
1065.76003	4422.8
1069.44126	4477.5
1073.11995	4611.3
1076.79611	4952.9
1080.46974	5572.1
1084.14085	6446.2
1087.80943	7164.2
1091.47549	7106.6
1095.13903	6362.3
1098.80005	5597.2
1102.45857	5185.2
1106.11456	5157.7
1109.76805	5297
1113.41903	5782
1117.06751	6602
1120.71348	7854.1
1124.35696	9737.6
1127.99793	11017.3
1131.63641	10011.1
1135.2724	8025.1
1138.90589	6694.7
1142.5369	5970.9
1146.16542	5507
1149.79145	5207.7
1153.415	5159.1
1157.03607	5223.8
1160.65467	5513.6
1164.27079	6025.4
1167.88443	6741.3
1171.49561	7975.2
1175.10432	10057.2
1178.71056	12904.6
1182.31434	14845.2
1185.91565	14443.6
1189.51451	12592.8
1193.11091	10656.4
1196.70485	9420
1200.29634	8918.2
1203.88538	8307.3
1207.47197	7133.5
1211.05612	6064.2
1214.63782	5363.3
1218.21708	5040.6
1221.79391	4909.8
1225.36829	4899.3
1228.94024	4894.6
1232.50976	4899.3
1236.07685	4899.7
1239.6415	4983.3
1243.20374	5140.7
1246.76355	5328.1
1250.32093	5612.3
1253.8759	5984.2
1257.42845	6623.5
1260.97859	7448.8
1264.52631	8221.9
1268.07163	8556.9
1271.61453	8534.3
1275.15503	8217.3
1278.69312	7916.6
1282.22882	8144.8
1285.76211	9262.1
1289.29301	10738.1
1292.82151	11702.9
1296.34761	12113
1299.87133	13073.3
1303.39266	15553.2
1306.9116	20243.6
1310.42815	26061.3
1313.94233	28301
1317.45412	24016
1320.96354	17525.6
1324.47058	12646.3
1327.97525	9659.6
1331.47754	8170.7
1334.97747	7703.4
1338.47502	7918.4
1341.97022	9036.5
1345.46305	11551.9
1348.95352	15130.8
1352.44163	18800.8
1355.92738	23525.1
1359.41078	31677.2
1362.89183	40116.4
1366.37053	37878.2
1369.84688	25852.2
1373.32088	16101.6
1376.79254	11918
1380.26186	9995.5
1383.72883	8529.4
1387.19347	7210.1
1390.65578	6192.3
1394.11575	5683
1397.57339	5403.6
1401.0287	5204.5
1404.48168	5010.9
1407.93234	4947.5
1411.38068	5055.1
1414.82669	5492.5
1418.27039	5995.2
1421.71177	6081.5
1425.15083	5854.6
1428.58758	5975.1
1432.02203	6645.8
1435.45416	7142.2
1438.88399	6812.1
1442.31151	6344.9
1445.73673	6252.8
1449.15965	6186.7
1452.58027	6020.6
1455.9986	5780.9
1459.41463	5596.2
1462.82837	5586.5
1466.23982	5856.9
1469.64898	6251.5
1473.05586	6357
1476.46045	6322.7
1479.86276	6357.6
1483.26279	6679.7
1486.66054	7408.5
1490.05602	8546
1493.44922	10423.2
1496.84016	13294.4
1500.22882	17777.6
1503.61521	24080.9
1506.99934	32308.3
1510.38121	40620.6
1513.76081	44290.8
1517.13816	39608
1520.51324	29617.2
1523.88607	20389.3
1527.25665	14433.8
1530.62498	11020.1
1533.99105	9016.5
1537.35488	7774.4
1540.71647	7040.3
1544.07581	6719.6
1547.4329	6728
1550.78776	6940.3
1554.14038	7314.1
1557.49077	7946.2
1560.83892	9124.9
1564.18484	10917.5
1567.52853	12791.4
1570.86999	13841.8
1574.20922	13845.1
1577.54624	13038.6
1580.88103	10857.7
1584.2136	8238.7
1587.54395	6720.7
1590.87208	6358.3
1594.19801	6843.2
1597.52172	7693.8
1600.84321	7727.2
1604.16251	6805.1
1607.47959	5931.4
1610.79447	5410.2
1614.10715	4988.4
1617.41763	4699.2
1620.7259	4571.4
1624.03199	4651.5
1627.33587	4898
1630.63757	5339.8
1633.93707	6177.7
1637.23439	7684.5
1640.52951	10448.6
1643.82246	15115.1
1647.11321	21473.7
1650.40179	26535.8
1653.68819	25948.7
1656.97241	20025.9
1660.25446	13263.9
1663.53433	8729.8
1666.81203	6285.1
1670.08756	5032.2
1673.36092	4342.9
1676.63211	3907.6
1679.90115	3669.7
1683.16801	3476.7
1686.43272	3326.7
1689.69527	3244.8
1692.95567	3140.3
1696.2139	3114.3
1699.46999	3038.2
1702.72392	3004.9
1705.97571	3020.1
1709.22535	3006.2
1712.47284	3059.6
1715.71819	3088.7
1718.96139	3088.3
1722.20246	3042.3
1725.44139	2974.3
1728.67818	2910.8
1731.91284	2814.5
1735.14537	2742.1
1738.37576	2706.2
1741.60403	2679.2
1744.83017	2631.7
1748.05418	2637.3
1751.27607	2596.9
1754.49584	2542.5
1757.71349	2479.1
1760.92903	2445.3
1764.14244	2364.7
1767.35375	2336.6
1770.56294	2288.8
1773.77002	2235.4
1776.97499	2217.6
1780.17785	2166.2
1783.37861	2132.3
1786.57727	2141.4
1789.77382	2069.2
1792.96828	2100.6
1796.16064	2113.5
1799.3509	2100.8
1802.53907	2092.3
1805.72514	2065.6
1808.90913	2042.8
1812.09102	2043.3
1815.27083	2028.3
1818.44856	2021.9
1821.6242	2011.2
1824.79776	1991.9
1827.96924	1975.9
1831.13864	1939.6
1834.30597	1945.2
1837.47122	1902.3
1840.6344	1878
1843.7955	1839.5
1846.95454	1823.7
1850.11151	1843.2
1853.26642	1799.9
1856.41926	1811.5
1859.57004	1818.1
1862.71876	1809.8
1865.86542	1828.2
1869.01003	1823.6
1872.15258	1812.6
1875.29308	1851.7
1878.43152	1828.5
1881.56792	1830.7
1884.70227	1791.3
1887.83457	1802.1
1890.96482	1759.8
1894.09304	1768.4
1897.21921	1755.1
1900.34335	1769.7
1903.46544	1748.2
1906.58551	1756.8
1909.70353	1756.4
1912.81953	1743.4
1915.93349	1738
1919.04543	1721.7
1922.15534	1707.4
1925.26322	1691.2
1928.36908	1659.5
1931.47292	1647.1
1934.57473	1623.1
1937.67453	1578.6
1940.77232	1546.8
1943.86808	1540.2
1946.96184	1533.8
1950.05358	1516.6
1953.14331	1503.6
1956.23103	1524.7
1959.31675	1508.4
1962.40046	1490.1
1965.48217	1537.6
1968.56188	1564.5
1971.63959	1567
1974.7153	1580.7
1977.78901	1558.5
1980.86073	1525.8
1983.93046	1467.5
1986.99819	1388.7
1990.06394	1399.9
1993.1277	1424.3
1996.18947	1387.2
1999.24925	1357.1
2002.30706	1361.2
2005.36288	1366.5
2008.41672	1342.6
2011.46859	1318.3
2014.51848	1315.4
2017.56639	1298.3
2020.61233	1294.8
2023.6563	1300
2026.6983	1261.4
2029.73833	1268.4
2032.7764	1289.3
2035.8125	1235.9
2038.84664	1253.8
2041.87881	1232.5
2044.90903	1253.1
2047.93729	1252.4
2050.96359	1216.6
2053.98794	1222.5
2057.01034	1218.7
2060.03078	1186.4
2063.04927	1183.3
2066.06582	1166.6
2069.08042	1149.2
2072.09307	1156.4
2075.10378	1163.2
2078.11255	1138.8
2081.11938	1149.4
2084.12426	1141.8
2087.12722	1147
2090.12824	1141.1
2093.12732	1139
2096.12447	1148.5
2099.11969	1139.3
2102.11299	1136.2
2105.10435	1153.7
2108.09379	1142.6
2111.08131	1135.9
2114.0669	1161.5
2117.05057	1166
2120.03233	1158.4
2123.01216	1206.7
2125.99008	1222
2128.96609	1219.2
2131.94018	1223
2134.91236	1202.1
2137.88263	1173.5
2140.851	1159.1
2143.81746	1161
2146.78201	1134
2149.74466	1102.2
2152.7054	1097.7
2155.66425	1077.2
2158.6212	1056.8
2161.57625	1038.5
2164.52941	1023.5
2167.48067	1038.8
2170.43004	1040.2
2173.37752	1064.9
2176.32311	1058.6
2179.26681	1067.6
2182.20863	1077.6
2185.14856	1073.4
2188.08661	1061.3
2191.02278	1066.9
2193.95707	1029.7
2196.88948	1008.4
2199.82001	1018
2202.74867	996.8
2205.67545	1011.6
2208.60037	1019.5
2211.52341	1002.3
2214.44458	1005.9
2217.36388	995.5
2220.28132	989.6
2223.1969	972.4
2226.11061	967.7
2229.02246	966.2
2231.93245	970.9
2234.84058	941.9
2237.74686	946.1
2240.65128	945.4
2243.55385	963.5
2246.45456	949.8
2249.35343	986.1
2252.25044	989.5
2255.14561	1025.8
2258.03893	1051.7
2260.93041	1065.5
2263.82004	1084.8
2266.70783	1095.8
2269.59378	1074.4
2272.4779	1055.2
2275.36017	1079.4
2278.24061	1054.6
2281.11922	1025.4
2283.996	1031.6
2286.87094	999.5
2289.74405	999.9
2292.61534	979.7
2295.4848	961.6
2298.35243	947.9
2301.21824	930.1
2304.08223	929.5
2306.94439	934.8
2309.80474	936.8
2312.66327	938.5
2315.51999	924.6
2318.37489	926.4
2321.22797	912.2
2324.07925	907.1
2326.92871	908.5
2329.77637	898.7
2332.62222	898.4
2335.46626	886.5
2338.3085	897.1
2341.14893	908.8
2343.98756	925.9
2346.8244	924.2
2349.65943	914
2352.49267	936
2355.32411	963.4
2358.15376	960.8
2360.98161	987.8
2363.80768	984.1
2366.63195	1015.5
2369.45444	1037
2372.27514	1039.4
2375.09405	1060.7
2377.91118	1015.2
2380.72652	1002.5
2383.54009	983.9
2386.35187	984
2389.16188	946.3
2391.97011	940.4
2394.77657	927.5
2397.58125	921.4
2400.38416	902.4
2403.18529	889.3
2405.98466	871.4
2408.78226	871.7
2411.57809	867.4
2414.37216	861
2417.16446	872.5
2419.955	850.6
2422.74378	871.8
2425.5308	862.5
2428.31606	878.5
2431.09956	886.9
2433.88131	879.3
2436.6613	903.5
2439.43954	905.8
2442.21603	913.4
2444.99077	914.8
2447.76377	931.9
2450.53501	932.9
2453.30451	934.2
2456.07226	948.1
2458.83827	942.2
2461.60254	900.5
2464.36507	930.7
2467.12586	909.2
2469.88492	930.8
2472.64224	932.2
2475.39782	921.9
2478.15167	951.4
2480.90379	965.6
2483.65417	1003.1
2486.40283	1021.9
2489.14976	1045.1
2491.89497	1035.7
2494.63845	1046.6
2497.3802	1033.3
2500.12024	1020
2502.85855	1004.5
2505.59514	976.5
2508.33002	951.3
2511.06318	909.6
2513.79462	887.7
2516.52435	832.4
2519.25237	796.1
2521.97867	785.9
2524.70327	786.1
2527.42616	774.1
2530.14734	783.3
2532.86681	763.9
2535.58458	767
2538.30065	761.5
2541.01501	785.3
2543.72768	775.2
2546.43864	790.9
2549.14791	797.9
2551.85548	787.2
2554.56136	799.7
2557.26554	821.9
2559.96803	821.4
2562.66883	830.8
2565.36794	821.8
2568.06536	795
2570.7611	834.4
2573.45514	816.8
2576.14751	806.7
2578.83819	800.4
2581.52719	790.2
2584.21451	786.7
2586.90015	766.9
2589.58411	758.5
2592.2664	764.2
2594.94701	765.7
2597.62594	771.7
2600.30321	720.2
2602.9788	746.8
2605.65273	750.6
2608.32498	754.6
2610.99557	782.3
2613.66449	757.7
2616.33175	775
2618.99734	782.5
2621.66128	787.4
2624.32355	775.1
2626.98416	749.8
2629.64311	743.4
2632.30041	734
2634.95605	706
2637.61004	695.8
2640.26238	680.7
2642.91306	672.9
2645.56209	701.6
2648.20948	685.9
2650.85521	678.6
2653.4993	705.6
2656.14175	698.4
2658.78255	703.5
2661.42171	675.6
2664.05923	715
2666.6951	734.5
2669.32934	739.5
2671.96194	762.3
2674.59291	754.4
2677.22224	760.5
2679.84993	748.3
2682.476	738.6
2685.10043	736.2
2687.72324	717.9
2690.34441	710.8
2692.96396	712.5
2695.58188	721.7
2698.19818	710
2700.81285	702.3
2703.4259	691.6
2706.03733	669.7
2708.64714	672
2711.25533	710.7
2713.86191	720.1
2716.46687	708.6
2719.07021	715
2721.67194	721.6
2724.27206	735.7
2726.87057	698.3
2729.46747	689.3
2732.06276	686.8
2734.65644	666.2
2737.24852	667.3
2739.83899	642.6
2742.42786	650.6
2745.01513	656.7
2747.60079	631.7
2750.18486	610.6
2752.76733	616.9
2755.3482	603.2
2757.92747	609.2
2760.50515	585.8
2763.08123	577.5
2765.65573	578.9
2768.22863	579.1
2770.79994	573.2
2773.36967	568.4
2775.9378	577.6
2778.50435	573.1
2781.06932	571
2783.6327	568.3
2786.1945	595.4
2788.75471	586
2791.31335	594.9
2793.87041	600.6
2796.42589	590
2798.97979	587.1
2801.53212	615
2804.08288	636.3
2806.63206	635.1
2809.17967	631.6
2811.72571	666.5
2814.27018	680.9
2816.81308	695.8
2819.35442	681.2
2821.89419	727.9
2824.43239	726.9
2826.96904	758.2
2829.50412	734.9
2832.03763	731
2834.56959	724
2837.1	710.3
2839.62884	700.5
2842.15613	688.6
2844.68186	705.7
2847.20604	680.7
2849.72867	685.2
2852.24974	707.4
2854.76927	696.7
2857.28724	668.5
2859.80367	755.1
2862.31855	771.4
2864.83189	776.1
2867.34368	806.6
2869.85393	830.2
2872.36264	814.1
2874.8698	827.9
2877.37543	827.4
2879.87952	813.9
2882.38207	786
2884.88308	781.5
2887.38256	762.5
2889.88051	747.2
2892.37692	744.2
2894.8718	714.3
2897.36515	729.8
2899.85698	729.5
2902.34727	736.3
2904.83604	758.9
2907.32328	780.6
2909.809	806.6
2912.29319	813.5
2914.77587	825.9
2917.25702	834.5
2919.73665	822.9
2922.21476	803.2
2924.69136	783
2927.16644	741.9
2929.64	726.4
2932.11205	702.2
2934.58258	716.5
2937.05161	694
2939.51912	697.1
2941.98513	712.5
2944.44962	704.7
2946.91261	673.9
2949.37409	694.8
2951.83407	688.1
2954.29254	696.7
2956.74951	704.1
2959.20498	689.9
2961.65895	692
2964.11142	687.1
2966.56239	682.3
2969.01186	680.9
2971.45984	669.7
2973.90632	660
2976.35131	690.6
2978.7948	678.2
2981.23681	672.8
2983.67732	674.6
2986.11635	688.4
2988.55388	664.6
2990.98993	679.4
2993.4245	675.3
2995.85758	669.1
2998.28917	673.9
3000.71928	676.4
3003.14791	680.5
3005.57506	676.4
3008.00073	667.1
3010.42493	610.2
3012.84764	672.8
3015.26888	667.7
3017.68865	662
3020.10694	623.2
3022.52376	642.1
3024.9391	633.2
3027.35298	622.9
3029.76539	593.8
3032.17632	592.1
3034.5858	577.2
3036.9938	571.3
3039.40034	548.6
3041.80542	531.5
3044.20903	514.6
3046.61118	499.8
3049.01187	509.9
3051.4111	495.7
3053.80888	493.2
3056.20519	491.7
3058.60005	477.5
3060.99345	506.7
3063.3854	487.1
3065.7759	469.6
3068.16494	468.3
3070.55254	458
3072.93868	470.2
3075.32338	464.2
3077.70662	456.9
3080.08842	455.6
3082.46878	439.8
3084.84769	462.3
3087.22515	436
3089.60118	449.3
3091.97576	430.7
3094.3489	441.7
3096.72061	434.4
3099.09087	420.6
3101.4597	431.4
3103.82709	430.2
3106.19305	411.3
3108.55757	416.6
3110.92066	419.2
3113.28232	429
3115.64255	431.2
3118.00134	431.5
3120.35871	411.4
3122.71466	415.1
3125.06917	425.7
3127.42226	418.8
3129.77393	413.5
3132.12417	424.2
3134.47299	430.8
3136.82039	415.6
3139.16636	388.7
3141.51092	422.9
3143.85406	429.6
3146.19579	411.6
3148.53609	416.7
3150.87499	428.4
3153.21246	420.9
3155.54853	428.3
3157.88318	438.4
3160.21642	436.2
3162.54826	427.4
3164.87868	430.3
3167.2077	395
3169.5353	411.1
3171.86151	418.3
3174.18631	395.7
3176.5097	382.8
3178.83169	385.1
3181.15228	384.1
3183.47147	356.5
3185.78926	339.2
3188.10565	357.6
3190.42065	330.9
3192.73424	349.6
3195.04645	342.5
3197.35725	333.1
3199.66667	346.7
3201.97469	342.8
3204.28132	337.9
3206.58656	352.6
3208.8904	368.6
3211.19287	356.7
3213.49394	355.5
3215.79363	358.6
3218.09193	372.8
3220.38884	362.4
3222.68438	361
3224.97853	350.5
3227.2713	370.4
3229.56269	353.6
3231.8527	350.6
3234.14133	339.3
3236.42858	338.8
3238.71446	322
3240.99896	342.6
3243.28209	323.4
3245.56384	338.5
3247.84423	324.5
3250.12324	336.1
3252.40088	335.9
3254.67715	325.5
3256.95205	314
3259.22558	329.3
3261.49775	331.1
3263.76855	325.4
3266.03799	336.6
3268.30606	336.5
3270.57277	341.6
3272.83812	335.5
3275.10211	341.5
3277.36474	365.1
3279.62601	368.8
3281.88593	355.8
3284.14448	346.5
3286.40168	382.6
3288.65753	384.2
3290.91202	400.1
3293.16516	390.5
3295.41695	429.1
3297.66738	447.3
3299.91647	439.6
3302.16421	460.2
3304.4106	429.5
3306.65564	466
3308.89933	443.1
3311.14169	453.2
3313.38269	459
3315.62236	455.9
3317.86068	458
3320.09766	469.1
3322.3333	461.4
3324.5676	472.9
3326.80056	469.8
3329.03219	486.1
3331.26248	-1.8
3333.49143	0.6
3335.71905	0.8
