Data from AgNPs_UA_50uM_CRN_500uM_SU_RamanShift__56__14-05-10-324.txt Node

Date: Thu Aug 04 14:05:10 BST 2022
User: TCL
Spectrometer: QEP01345
Trigger mode: 4
Integration Time (sec): 1.000000E0
Scans to average: 10
Electric dark correction enabled: true
Nonlinearity correction enabled: false
Boxcar width: 0
XAxis mode: Raman Shifts
Number of Pixels in Spectrum: 1044
>>>>>Begin Spectral Data<<<<<
46.04893	1.4875
50.45542	0.1875
54.85868	-0.3125
59.25871	-1.3125
63.6555	20.0875
68.04907	17.4875
72.43941	19.7875
76.82654	21.5875
81.21044	21.1875
85.59113	22.3875
89.96862	21.6875
94.34289	22.6875
98.71396	22.0875
103.08183	25.3875
107.4465	24.3875
111.80798	24.7875
116.16626	24.9875
120.52136	29.2875
124.87327	30.8875
129.222	32.9875
133.56755	35.1875
137.90993	37.3875
142.24913	39.3875
146.58517	45.7875
150.91804	57.3875
155.24774	67.8875
159.57429	86.6875
163.89768	111.9875
168.21792	152.7875
172.53501	207.2875
176.84895	298.5875
181.15975	421.6875
185.46741	602.5875
189.77193	828.2875
194.07331	1104.0875
198.37157	1441.6875
202.6667	1786.0875
206.9587	2141.3875
211.24758	2469.8875
215.53334	2848.3875
219.81599	3217.6875
224.09553	3659.8875
228.37195	4137.3875
232.64527	4647.2875
236.91549	5116.4875
241.18261	5525.7875
245.44663	5863.8875
249.70755	6102.8875
253.96539	6338.7875
258.22014	6541.9875
262.4718	6696.1875
266.72039	6811.4875
270.96589	6863.2875
275.20832	6810.7875
279.44768	6698.1875
283.68397	6582.7875
287.91719	6520.3875
292.14735	6531.4875
296.37445	6663.2875
300.59849	6916.8875
304.81948	7234.0875
309.03742	7551.9875
313.25231	7727.9875
317.46415	7622.7875
321.67296	7255.4875
325.87872	6877.7875
330.08145	6675.7875
334.28114	6673.1875
338.47781	6754.0875
342.67145	6910.8875
346.86207	7138.5875
351.04966	7487.2875
355.23424	7799.7875
359.4158	8027.0875
363.59435	8134.1875
367.76989	8110.9875
371.94243	8055.7875
376.11196	7998.3875
380.27849	7964.0875
384.44203	7944.8875
388.60257	7937.1875
392.76012	8012.4875
396.91468	8099.7875
401.06626	8235.5875
405.21485	8274.8875
409.36047	8100.6875
413.50311	7803.6875
417.64277	7488.8875
421.77947	7300.3875
425.9132	7209.4875
430.04396	7196.0875
434.17176	7224.3875
438.2966	7321.2875
442.41849	7472.9875
446.53742	7648.1875
450.6534	7785.9875
454.76644	7911.2875
458.87653	7943.1875
462.98368	7919.1875
467.08789	7841.5875
471.18916	7713.3875
475.2875	7544.0875
479.38291	7348.7875
483.4754	7277.4875
487.56496	7223.0875
491.6516	7175.0875
495.73531	7154.7875
499.81612	7175.8875
503.89401	7221.3875
507.96899	7303.8875
512.04106	7343.8875
516.11023	7424.5875
520.1765	7478.5875
524.23987	7496.1875
528.30034	7488.5875
532.35792	7429.3875
536.41261	7373.7875
540.46441	7272.8875
544.51333	7232.2875
548.55936	7269.1875
552.60252	7394.8875
556.64279	7529.9875
560.6802	7645.4875
564.71473	7754.9875
568.7464	7921.1875
572.7752	7907.5875
576.80114	7615.6875
580.82422	7373.6875
584.84444	7299.3875
588.86181	7287.6875
592.87633	7355.5875
596.888	7507.2875
600.89682	7918.0875
604.9028	9003.4875
608.90594	11342.2875
612.90624	13641.6875
616.90371	12452.0875
620.89834	9223.1875
624.89015	7931.1875
628.87913	7774.0875
632.86528	7964.0875
636.84862	8003.3875
640.82913	7784.3875
644.80683	7401.6875
648.78172	7191.5875
652.75379	7250.0875
656.72306	7526.0875
660.68952	7824.7875
664.65319	7744.6875
668.61405	7551.2875
672.57211	7576.5875
676.52738	7564.0875
680.47986	7385.1875
684.42955	7218.6875
688.37646	7172.8875
692.32058	7258.7875
696.26192	7387.1875
700.20048	7541.7875
704.13626	7547.8875
708.06928	7436.0875
711.99952	7380.8875
715.927	7371.7875
719.85171	7399.4875
723.77365	7430.2875
727.69284	7346.7875
731.60928	7268.2875
735.52295	7252.7875
739.43388	7255.8875
743.34206	7316.0875
747.24749	7336.4875
751.15017	7332.5875
755.05012	7428.0875
758.94733	7783.8875
762.8418	8629.6875
766.73354	9866.0875
770.62254	10845.2875
774.50882	10984.9875
778.39237	10490.4875
782.27321	9568.0875
786.15132	8568.3875
790.02671	7879.0875
793.89938	7527.5875
797.76935	7387.8875
801.6366	7295.6875
805.50115	7246.1875
809.36299	7196.6875
813.22213	7179.9875
817.07857	7182.6875
820.93231	7193.8875
824.78336	7211.3875
828.63172	7230.2875
832.47738	7249.7875
836.32036	7211.8875
840.16066	7203.0875
843.99827	7186.5875
847.8332	7150.7875
851.66546	7163.4875
855.49504	7172.5875
859.32195	7203.8875
863.1462	7167.0875
866.96777	7149.4875
870.78668	7151.8875
874.60293	7187.4875
878.41652	7191.6875
882.22745	7275.4875
886.03573	7287.1875
889.84136	7279.5875
893.64433	7251.0875
897.44466	7238.1875
901.24235	7218.9875
905.0374	7200.0875
908.8298	7159.7875
912.61957	7124.9875
916.40671	7146.9875
920.19121	7180.5875
923.97308	7262.8875
927.75233	7358.7875
931.52895	7412.8875
935.30295	7339.1875
939.07433	7192.3875
942.84309	7056.1875
946.60924	7003.2875
950.37278	7011.7875
954.13371	7001.9875
957.89203	6980.8875
961.64774	6954.2875
965.40086	6935.7875
969.15137	6939.0875
972.89929	6915.0875
976.64461	6915.0875
980.38733	6932.4875
984.12747	6950.1875
987.86502	6979.4875
991.59999	7034.6875
995.33237	7112.1875
999.06217	7212.5875
1002.78939	7376.0875
1006.51404	7522.2875
1010.23611	7619.8875
1013.95561	7687.3875
1017.67255	7731.1875
1021.38692	7690.0875
1025.09872	7589.8875
1028.80796	7572.2875
1032.51465	7632.7875
1036.21877	7685.9875
1039.92035	7688.7875
1043.61937	7709.7875
1047.31584	7660.8875
1051.00976	7610.1875
1054.70114	7596.8875
1058.38998	7604.9875
1062.07627	7618.9875
1065.76003	7682.1875
1069.44126	7760.9875
1073.11995	7906.5875
1076.79611	8051.6875
1080.46974	8187.8875
1084.14085	8344.9875
1087.80943	8452.0875
1091.47549	8470.9875
1095.13903	8402.5875
1098.80005	8334.4875
1102.45857	8321.5875
1106.11456	8297.0875
1109.76805	8217.3875
1113.41903	8250.4875
1117.06751	8396.2875
1120.71348	8621.4875
1124.35696	8883.1875
1127.99793	9074.2875
1131.63641	8884.7875
1135.2724	8501.0875
1138.90589	8220.3875
1142.5369	8032.5875
1146.16542	7954.4875
1149.79145	7862.7875
1153.415	7803.5875
1157.03607	7765.8875
1160.65467	7855.0875
1164.27079	8052.1875
1167.88443	8327.0875
1171.49561	8800.0875
1175.10432	9503.1875
1178.71056	10449.7875
1182.31434	11237.1875
1185.91565	11480.4875
1189.51451	11302.8875
1193.11091	10914.8875
1196.70485	10493.8875
1200.29634	10148.4875
1203.88538	9799.6875
1207.47197	9340.6875
1211.05612	8931.0875
1214.63782	8608.5875
1218.21708	8434.3875
1221.79391	8313.0875
1225.36829	8259.6875
1228.94024	8284.7875
1232.50976	8235.9875
1236.07685	8249.9875
1239.6415	8260.0875
1243.20374	8310.1875
1246.76355	8355.9875
1250.32093	8469.4875
1253.8759	8611.8875
1257.42845	8881.2875
1260.97859	9193.4875
1264.52631	9479.4875
1268.07163	9699.0875
1271.61453	9786.5875
1275.15503	9839.2875
1278.69312	9869.0875
1282.22882	9918.1875
1285.76211	10079.5875
1289.29301	10295.5875
1292.82151	10530.2875
1296.34761	10768.3875
1299.87133	11213.8875
1303.39266	11987.7875
1306.9116	13123.5875
1310.42815	14345.5875
1313.94233	14770.2875
1317.45412	14102.6875
1320.96354	13038.4875
1324.47058	12103.5875
1327.97525	11272.8875
1331.47754	10811.3875
1334.97747	10677.2875
1338.47502	10799.0875
1341.97022	11222.1875
1345.46305	11959.6875
1348.95352	12904.9875
1352.44163	14041.0875
1355.92738	15306.5875
1359.41078	16917.2875
1362.89183	18082.1875
1366.37053	17124.1875
1369.84688	14447.5875
1373.32088	12101.5875
1376.79254	10775.8875
1380.26186	10144.4875
1383.72883	9769.7875
1387.19347	9418.3875
1390.65578	9059.7875
1394.11575	8753.0875
1397.57339	8540.0875
1401.0287	8446.8875
1404.48168	8415.0875
1407.93234	8477.4875
1411.38068	8642.5875
1414.82669	8802.0875
1418.27039	8883.5875
1421.71177	8859.2875
1425.15083	8784.1875
1428.58758	8757.2875
1432.02203	8831.3875
1435.45416	8931.4875
1438.88399	8896.0875
1442.31151	8846.9875
1445.73673	8836.2875
1449.15965	8835.9875
1452.58027	8760.0875
1455.9986	8638.9875
1459.41463	8609.1875
1462.82837	8672.9875
1466.23982	8828.4875
1469.64898	9003.5875
1473.05586	9154.8875
1476.46045	9281.8875
1479.86276	9370.4875
1483.26279	9544.9875
1486.66054	9748.1875
1490.05602	10123.4875
1493.44922	10651.1875
1496.84016	11497.3875
1500.22882	12714.1875
1503.61521	14255.8875
1506.99934	15774.9875
1510.38121	16773.9875
1513.76081	16578.9875
1517.13816	15202.0875
1520.51324	13302.8875
1523.88607	11699.5875
1527.25665	10694.4875
1530.62498	10176.1875
1533.99105	9895.7875
1537.35488	9724.0875
1540.71647	9599.2875
1544.07581	9474.2875
1547.4329	9363.0875
1550.78776	9274.7875
1554.14038	9252.3875
1557.49077	9362.6875
1560.83892	9513.4875
1564.18484	9830.1875
1567.52853	10172.1875
1570.86999	10361.8875
1574.20922	10404.0875
1577.54624	10224.4875
1580.88103	9673.0875
1584.2136	9115.1875
1587.54395	8804.3875
1590.87208	8856.1875
1594.19801	9242.0875
1597.52172	9682.0875
1600.84321	9870.1875
1604.16251	9711.0875
1607.47959	9453.0875
1610.79447	9093.0875
1614.10715	8605.5875
1617.41763	8164.1875
1620.7259	7865.7875
1624.03199	7698.9875
1627.33587	7678.9875
1630.63757	7819.6875
1633.93707	8170.2875
1637.23439	8755.8875
1640.52951	9690.4875
1643.82246	10984.5875
1647.11321	12310.4875
1650.40179	12905.6875
1653.68819	12223.6875
1656.97241	10604.3875
1660.25446	9059.4875
1663.53433	7999.6875
1666.81203	7389.0875
1670.08756	7019.8875
1673.36092	6790.5875
1676.63211	6668.8875
1679.90115	6550.7875
1683.16801	6485.7875
1686.43272	6428.2875
1689.69527	6382.9875
1692.95567	6327.7875
1696.2139	6320.2875
1699.46999	6301.2875
1702.72392	6290.6875
1705.97571	6289.0875
1709.22535	6291.9875
1712.47284	6298.7875
1715.71819	6283.4875
1718.96139	6275.6875
1722.20246	6261.8875
1725.44139	6223.3875
1728.67818	6179.0875
1731.91284	6135.3875
1735.14537	6113.3875
1738.37576	6081.5875
1741.60403	6067.1875
1744.83017	6056.6875
1748.05418	6035.1875
1751.27607	6013.5875
1754.49584	5990.2875
1757.71349	5992.6875
1760.92903	5971.1875
1764.14244	5972.8875
1767.35375	5953.1875
1770.56294	5947.4875
1773.77002	5922.8875
1776.97499	5891.9875
1780.17785	5873.4875
1783.37861	5870.6875
1786.57727	5843.3875
1789.77382	5832.6875
1792.96828	5837.0875
1796.16064	5815.0875
1799.3509	5810.7875
1802.53907	5790.2875
1805.72514	5765.5875
1808.90913	5776.9875
1812.09102	5764.0875
1815.27083	5730.9875
1818.44856	5731.7875
1821.6242	5689.4875
1824.79776	5687.4875
1827.96924	5664.1875
1831.13864	5638.1875
1834.30597	5651.3875
1837.47122	5632.7875
1840.6344	5633.1875
1843.7955	5629.7875
1846.95454	5611.2875
1850.11151	5631.6875
1853.26642	5609.1875
1856.41926	5597.3875
1859.57004	5619.6875
1862.71876	5580.9875
1865.86542	5592.5875
1869.01003	5586.7875
1872.15258	5579.5875
1875.29308	5589.1875
1878.43152	5573.3875
1881.56792	5551.9875
1884.70227	5543.7875
1887.83457	5544.8875
1890.96482	5528.7875
1894.09304	5525.5875
1897.21921	5509.3875
1900.34335	5485.0875
1903.46544	5473.3875
1906.58551	5486.2875
1909.70353	5457.2875
1912.81953	5437.4875
1915.93349	5450.8875
1919.04543	5441.4875
1922.15534	5432.4875
1925.26322	5405.1875
1928.36908	5415.9875
1931.47292	5403.8875
1934.57473	5386.8875
1937.67453	5361.0875
1940.77232	5339.7875
1943.86808	5321.0875
1946.96184	5332.5875
1950.05358	5302.1875
1953.14331	5266.6875
1956.23103	5253.1875
1959.31675	5238.7875
1962.40046	5228.3875
1965.48217	5221.5875
1968.56188	5204.5875
1971.63959	5205.8875
1974.7153	5191.4875
1977.78901	5149.2875
1980.86073	5177.5875
1983.93046	5142.5875
1986.99819	5108.9875
1990.06394	5109.1875
1993.1277	5070.8875
1996.18947	5054.2875
1999.24925	5045.9875
2002.30706	5023.5875
2005.36288	4983.9875
2008.41672	4974.9875
2011.46859	4970.9875
2014.51848	4950.5875
2017.56639	4940.8875
2020.61233	4927.6875
2023.6563	4902.9875
2026.6983	4891.6875
2029.73833	4857.7875
2032.7764	4868.6875
2035.8125	4845.1875
2038.84664	4854.3875
2041.87881	4842.5875
2044.90903	4817.0875
2047.93729	4804.4875
2050.96359	4799.5875
2053.98794	4768.0875
2057.01034	4787.5875
2060.03078	4788.2875
2063.04927	4782.5875
2066.06582	4777.6875
2069.08042	4769.4875
2072.09307	4753.3875
2075.10378	4753.8875
2078.11255	4741.4875
2081.11938	4738.5875
2084.12426	4739.1875
2087.12722	4743.3875
2090.12824	4739.5875
2093.12732	4734.3875
2096.12447	4725.6875
2099.11969	4732.8875
2102.11299	4738.7875
2105.10435	4748.5875
2108.09379	4743.8875
2111.08131	4723.9875
2114.0669	4719.4875
2117.05057	4751.9875
2120.03233	4735.3875
2123.01216	4745.0875
2125.99008	4749.0875
2128.96609	4753.5875
2131.94018	4748.1875
2134.91236	4748.6875
2137.88263	4731.8875
2140.851	4755.3875
2143.81746	4737.5875
2146.78201	4748.0875
2149.74466	4739.5875
2152.7054	4737.5875
2155.66425	4724.4875
2158.6212	4728.4875
2161.57625	4726.6875
2164.52941	4708.6875
2167.48067	4712.8875
2170.43004	4706.0875
2173.37752	4699.1875
2176.32311	4707.3875
2179.26681	4713.0875
2182.20863	4710.6875
2185.14856	4713.2875
2188.08661	4692.7875
2191.02278	4703.3875
2193.95707	4683.6875
2196.88948	4681.5875
2199.82001	4682.8875
2202.74867	4660.7875
2205.67545	4676.6875
2208.60037	4662.4875
2211.52341	4661.2875
2214.44458	4642.8875
2217.36388	4644.2875
2220.28132	4631.7875
2223.1969	4610.0875
2226.11061	4586.3875
2229.02246	4593.9875
2231.93245	4583.6875
2234.84058	4574.8875
2237.74686	4568.6875
2240.65128	4554.7875
2243.55385	4534.5875
2246.45456	4544.5875
2249.35343	4547.2875
2252.25044	4541.4875
2255.14561	4526.3875
2258.03893	4531.6875
2260.93041	4521.8875
2263.82004	4518.3875
2266.70783	4504.8875
2269.59378	4498.9875
2272.4779	4484.3875
2275.36017	4437.1875
2278.24061	4444.3875
2281.11922	4440.5875
2283.996	4419.9875
2286.87094	4425.5875
2289.74405	4412.2875
2292.61534	4410.7875
2295.4848	4411.4875
2298.35243	4407.1875
2301.21824	4405.0875
2304.08223	4386.6875
2306.94439	4387.3875
2309.80474	4394.2875
2312.66327	4385.8875
2315.51999	4378.6875
2318.37489	4390.8875
2321.22797	4369.2875
2324.07925	4347.7875
2326.92871	4364.3875
2329.77637	4338.6875
2332.62222	4328.6875
2335.46626	4328.2875
2338.3085	4322.7875
2341.14893	4327.0875
2343.98756	4312.1875
2346.8244	4316.3875
2349.65943	4305.0875
2352.49267	4298.9875
2355.32411	4300.1875
2358.15376	4316.7875
2360.98161	4294.3875
2363.80768	4303.1875
2366.63195	4295.2875
2369.45444	4301.7875
2372.27514	4280.1875
2375.09405	4288.4875
2377.91118	4265.7875
2380.72652	4249.8875
2383.54009	4258.7875
2386.35187	4222.9875
2389.16188	4223.1875
2391.97011	4222.7875
2394.77657	4213.3875
2397.58125	4199.8875
2400.38416	4163.6875
2403.18529	4171.2875
2405.98466	4180.5875
2408.78226	4172.1875
2411.57809	4151.9875
2414.37216	4135.3875
2417.16446	4147.5875
2419.955	4130.8875
2422.74378	4134.8875
2425.5308	4129.3875
2428.31606	4124.4875
2431.09956	4135.1875
2433.88131	4112.9875
2436.6613	4122.6875
2439.43954	4114.4875
2442.21603	4121.5875
2444.99077	4109.8875
2447.76377	4098.9875
2450.53501	4101.1875
2453.30451	4122.5875
2456.07226	4096.8875
2458.83827	4089.7875
2461.60254	4080.6875
2464.36507	4086.2875
2467.12586	4081.4875
2469.88492	4070.3875
2472.64224	4063.2875
2475.39782	4069.7875
2478.15167	4072.8875
2480.90379	4057.1875
2483.65417	4064.4875
2486.40283	4066.3875
2489.14976	4088.1875
2491.89497	4065.3875
2494.63845	4074.4875
2497.3802	4060.1875
2500.12024	4045.5875
2502.85855	4036.1875
2505.59514	4055.6875
2508.33002	4028.9875
2511.06318	4026.4875
2513.79462	4013.7875
2516.52435	3970.4875
2519.25237	3979.9875
2521.97867	3975.6875
2524.70327	3971.9875
2527.42616	3971.0875
2530.14734	3961.1875
2532.86681	3967.7875
2535.58458	3974.7875
2538.30065	3963.0875
2541.01501	3960.0875
2543.72768	3957.9875
2546.43864	3935.0875
2549.14791	3936.0875
2551.85548	3937.1875
2554.56136	3939.9875
2557.26554	3927.9875
2559.96803	3913.0875
2562.66883	3893.9875
2565.36794	3890.8875
2568.06536	3892.5875
2570.7611	3871.7875
2573.45514	3874.6875
2576.14751	3849.4875
2578.83819	3852.9875
2581.52719	3843.0875
2584.21451	3834.3875
2586.90015	3836.6875
2589.58411	3828.9875
2592.2664	3817.2875
2594.94701	3804.3875
2597.62594	3816.2875
2600.30321	3816.5875
2602.9788	3811.1875
2605.65273	3804.1875
2608.32498	3798.6875
2610.99557	3786.1875
2613.66449	3789.2875
2616.33175	3781.9875
2618.99734	3780.6875
2621.66128	3766.8875
2624.32355	3766.3875
2626.98416	3757.5875
2629.64311	3745.5875
2632.30041	3755.6875
2634.95605	3748.7875
2637.61004	3728.4875
2640.26238	3722.9875
2642.91306	3714.6875
2645.56209	3723.7875
2648.20948	3716.5875
2650.85521	3728.1875
2653.4993	3708.3875
2656.14175	3710.6875
2658.78255	3713.6875
2661.42171	3707.4875
2664.05923	3715.9875
2666.6951	3711.4875
2669.32934	3701.8875
2671.96194	3709.2875
2674.59291	3712.5875
2677.22224	3712.8875
2679.84993	3702.5875
2682.476	3700.3875
2685.10043	3696.6875
2687.72324	3699.8875
2690.34441	3698.5875
2692.96396	3684.5875
2695.58188	3686.9875
2698.19818	3687.2875
2700.81285	3680.2875
2703.4259	3683.3875
2706.03733	3689.2875
2708.64714	3680.3875
2711.25533	3678.6875
2713.86191	3667.1875
2716.46687	3680.8875
2719.07021	3686.9875
2721.67194	3686.4875
2724.27206	3678.5875
2726.87057	3662.0875
2729.46747	3668.1875
2732.06276	3662.2875
2734.65644	3658.2875
2737.24852	3650.1875
2739.83899	3650.4875
2742.42786	3641.5875
2745.01513	3625.2875
2747.60079	3640.9875
2750.18486	3626.3875
2752.76733	3627.7875
2755.3482	3608.0875
2757.92747	3603.2875
2760.50515	3579.6875
2763.08123	3613.2875
2765.65573	3582.6875
2768.22863	3585.8875
2770.79994	3567.9875
2773.36967	3565.3875
2775.9378	3575.5875
2778.50435	3575.7875
2781.06932	3575.4875
2783.6327	3563.7875
2786.1945	3565.2875
2788.75471	3556.1875
2791.31335	3545.5875
2793.87041	3545.9875
2796.42589	3533.3875
2798.97979	3524.3875
2801.53212	3531.3875
2804.08288	3514.2875
2806.63206	3512.2875
2809.17967	3493.1875
2811.72571	3487.2875
2814.27018	3487.2875
2816.81308	3484.4875
2819.35442	3470.5875
2821.89419	3480.4875
2824.43239	3462.9875
2826.96904	3456.0875
2829.50412	3448.4875
2832.03763	3441.3875
2834.56959	3444.3875
2837.1	3430.4875
2839.62884	3432.8875
2842.15613	3426.7875
2844.68186	3422.6875
2847.20604	3415.7875
2849.72867	3405.3875
2852.24974	3401.9875
2854.76927	3384.4875
2857.28724	3382.2875
2859.80367	3406.7875
2862.31855	3390.3875
2864.83189	3383.6875
2867.34368	3394.3875
2869.85393	3383.8875
2872.36264	3375.2875
2874.8698	3368.9875
2877.37543	3362.4875
2879.87952	3368.6875
2882.38207	3370.5875
2884.88308	3360.2875
2887.38256	3353.6875
2889.88051	3344.0875
2892.37692	3336.8875
2894.8718	3336.0875
2897.36515	3342.9875
2899.85698	3325.7875
2902.34727	3332.8875
2904.83604	3342.3875
2907.32328	3341.3875
2909.809	3345.0875
2912.29319	3345.5875
2914.77587	3351.9875
2917.25702	3369.8875
2919.73665	3356.2875
2922.21476	3350.6875
2924.69136	3343.7875
2927.16644	3336.3875
2929.64	3325.5875
2932.11205	3316.8875
2934.58258	3296.6875
2937.05161	3322.5875
2939.51912	3311.4875
2941.98513	3295.4875
2944.44962	3289.6875
2946.91261	3280.4875
2949.37409	3291.4875
2951.83407	3286.0875
2954.29254	3288.6875
2956.74951	3291.9875
2959.20498	3276.0875
2961.65895	3278.9875
2964.11142	3260.1875
2966.56239	3261.8875
2969.01186	3261.3875
2971.45984	3260.6875
2973.90632	3255.5875
2976.35131	3236.1875
2978.7948	3257.0875
2981.23681	3237.1875
2983.67732	3223.4875
2986.11635	3222.4875
2988.55388	3216.2875
2990.98993	3215.7875
2993.4245	3210.3875
2995.85758	3206.5875
2998.28917	3191.1875
3000.71928	3185.7875
3003.14791	3179.6875
3005.57506	3165.9875
3008.00073	3159.9875
3010.42493	3162.6875
3012.84764	3146.1875
3015.26888	3148.6875
3017.68865	3136.9875
3020.10694	3127.6875
3022.52376	3121.0875
3024.9391	3110.2875
3027.35298	3099.0875
3029.76539	3090.7875
3032.17632	3077.2875
3034.5858	3068.8875
3036.9938	3067.1875
3039.40034	3053.7875
3041.80542	3069.8875
3044.20903	3045.4875
3046.61118	3058.9875
3049.01187	3026.8875
3051.4111	3034.9875
3053.80888	3017.8875
3056.20519	3018.0875
3058.60005	3007.1875
3060.99345	3014.6875
3063.3854	2998.3875
3065.7759	2987.7875
3068.16494	2980.9875
3070.55254	2974.6875
3072.93868	2970.5875
3075.32338	2953.2875
3077.70662	2936.9875
3080.08842	2935.8875
3082.46878	2931.2875
3084.84769	2920.8875
3087.22515	2924.1875
3089.60118	2925.6875
3091.97576	2917.6875
3094.3489	2922.3875
3096.72061	2918.7875
3099.09087	2917.0875
3101.4597	2897.7875
3103.82709	2898.6875
3106.19305	2887.8875
3108.55757	2898.8875
3110.92066	2884.5875
3113.28232	2892.1875
3115.64255	2876.8875
3118.00134	2864.2875
3120.35871	2865.2875
3122.71466	2854.2875
3125.06917	2843.2875
3127.42226	2830.0875
3129.77393	2844.5875
3132.12417	2837.5875
3134.47299	2833.4875
3136.82039	2842.2875
3139.16636	2832.4875
3141.51092	2828.0875
3143.85406	2815.5875
3146.19579	2813.3875
3148.53609	2815.3875
3150.87499	2830.2875
3153.21246	2818.4875
3155.54853	2824.0875
3157.88318	2818.9875
3160.21642	2822.9875
3162.54826	2817.1875
3164.87868	2810.2875
3167.2077	2811.8875
3169.5353	2799.1875
3171.86151	2792.2875
3174.18631	2800.0875
3176.5097	2799.7875
3178.83169	2787.5875
3181.15228	2779.4875
3183.47147	2768.4875
3185.78926	2759.7875
3188.10565	2748.7875
3190.42065	2751.9875
3192.73424	2733.5875
3195.04645	2744.2875
3197.35725	2736.2875
3199.66667	2732.8875
3201.97469	2744.1875
3204.28132	2729.9875
3206.58656	2738.7875
3208.8904	2741.9875
3211.19287	2741.3875
3213.49394	2740.4875
3215.79363	2740.3875
3218.09193	2740.2875
3220.38884	2738.2875
3222.68438	2733.5875
3224.97853	2736.5875
3227.2713	2723.2875
3229.56269	2713.9875
3231.8527	2716.5875
3234.14133	2701.2875
3236.42858	2692.1875
3238.71446	2684.1875
3240.99896	2678.0875
3243.28209	2673.4875
3245.56384	2670.5875
3247.84423	2669.8875
3250.12324	2668.6875
3252.40088	2682.6875
3254.67715	2664.3875
3256.95205	2646.9875
3259.22558	2663.8875
3261.49775	2657.5875
3263.76855	2649.3875
3266.03799	2650.5875
3268.30606	2653.8875
3270.57277	2649.0875
3272.83812	2638.8875
3275.10211	2616.6875
3277.36474	2617.1875
3279.62601	2610.0875
3281.88593	2608.5875
3284.14448	2608.5875
3286.40168	2617.4875
3288.65753	2608.7875
3290.91202	2596.7875
3293.16516	2594.2875
3295.41695	2600.1875
3297.66738	2586.7875
3299.91647	2573.5875
3302.16421	2564.3875
3304.4106	2540.3875
3306.65564	2529.8875
3308.89933	2507.8875
3311.14169	2496.5875
3313.38269	2474.8875
3315.62236	2458.6875
3317.86068	2436.5875
3320.09766	2421.9875
3322.3333	2394.1875
3324.5676	2385.3875
3326.80056	2344.1875
3329.03219	2324.5875
3331.26248	0.4875
3333.49143	0.6875
3335.71905	-1.2125
