Data from AgNPs_UA_10uM_CRN_500uM_SU_RamanShift__111__13-23-50-275.txt Node

Date: Thu Aug 04 13:23:50 BST 2022
User: TCL
Spectrometer: QEP01345
Trigger mode: 4
Integration Time (sec): 1.000000E0
Scans to average: 10
Electric dark correction enabled: true
Nonlinearity correction enabled: false
Boxcar width: 0
XAxis mode: Raman Shifts
Number of Pixels in Spectrum: 1044
>>>>>Begin Spectral Data<<<<<
46.04893	0.4
50.45542	-0.3
54.85868	1.4
59.25871	-0.3
63.6555	21.8
68.04907	20.5
72.43941	22.3
76.82654	24.1
81.21044	23.5
85.59113	25.1
89.96862	25
94.34289	27.5
98.71396	24.4
103.08183	28.8
107.4465	27.6
111.80798	30.3
116.16626	31.3
120.52136	33
124.87327	34.3
129.222	36.3
133.56755	36.9
137.90993	42.3
142.24913	47.5
146.58517	54.7
150.91804	61
155.24774	77
159.57429	99.6
163.89768	129
168.21792	171.4
172.53501	236.4
176.84895	330.1
181.15975	469.2
185.46741	663.5
189.77193	919.8
194.07331	1240.9
198.37157	1598.4
202.6667	1976.1
206.9587	2362.6
211.24758	2747.1
215.53334	3136.1
219.81599	3540.7
224.09553	4008.6
228.37195	4533.1
232.64527	5066.2
236.91549	5601.8
241.18261	6110.5
245.44663	6481.5
249.70755	6814.7
253.96539	7095.7
258.22014	7351.2
262.4718	7559.7
266.72039	7705.7
270.96589	7753.1
275.20832	7694
279.44768	7595.3
283.68397	7488.5
287.91719	7420.7
292.14735	7410.3
296.37445	7527.3
300.59849	7723.6
304.81948	7989.9
309.03742	8238.6
313.25231	8385.7
317.46415	8296.4
321.67296	8022
325.87872	7720
330.08145	7544.6
334.28114	7545.7
338.47781	7622.2
342.67145	7769.2
346.86207	7997
351.04966	8278.3
355.23424	8601.5
359.4158	8824.3
363.59435	8927.2
367.76989	8978
371.94243	8954.9
376.11196	8947.3
380.27849	8920.9
384.44203	8953.8
388.60257	9002.5
392.76012	9073.1
396.91468	9190
401.06626	9341.5
405.21485	9390.9
409.36047	9270
413.50311	9011.1
417.64277	8753
421.77947	8586.9
425.9132	8493.2
430.04396	8498.2
434.17176	8541.2
438.2966	8652.1
442.41849	8825.7
446.53742	9030.9
450.6534	9225.5
454.76644	9344.3
458.87653	9383.2
462.98368	9380.3
467.08789	9306.7
471.18916	9156.3
475.2875	8997.4
479.38291	8829.3
483.4754	8719.6
487.56496	8645
491.6516	8603.3
495.73531	8583.9
499.81612	8620.5
503.89401	8715.1
507.96899	8755.9
512.04106	8793.5
516.11023	8838
520.1765	8891.4
524.23987	8931.1
528.30034	8915.3
532.35792	8915.4
536.41261	8842.6
540.46441	8721.6
544.51333	8677.9
548.55936	8750.7
552.60252	8876.2
556.64279	9032.6
560.6802	9144.8
564.71473	9266.4
568.7464	9353.9
572.7752	9318.9
576.80114	9097.2
580.82422	8936.6
584.84444	8873.7
588.86181	8929.8
592.87633	9017.8
596.888	9203.7
600.89682	9606.4
604.9028	10666.9
608.90594	12793.4
612.90624	14864.2
616.90371	13680.1
620.89834	10756.4
624.89015	9604.3
628.87913	9521.2
632.86528	9642
636.84862	9685.5
640.82913	9432
644.80683	9100.3
648.78172	8910.6
652.75379	8922.6
656.72306	9203.3
660.68952	9465.4
664.65319	9414
668.61405	9263.9
672.57211	9344.2
676.52738	9325.4
680.47986	9127.1
684.42955	8928.6
688.37646	8926.2
692.32058	8999.2
696.26192	9183.1
700.20048	9333.8
704.13626	9366.7
708.06928	9245.2
711.99952	9142.6
715.927	9135
719.85171	9204.2
723.77365	9194.1
727.69284	9133.8
731.60928	9058
735.52295	9041.1
739.43388	9092.3
743.34206	9150
747.24749	9150.6
751.15017	9146.6
755.05012	9277.4
758.94733	9565
762.8418	10356.5
766.73354	11514.5
770.62254	12468.5
774.50882	12638.2
778.39237	12181.9
782.27321	11385.5
786.15132	10474.9
790.02671	9785.7
793.89938	9465
797.76935	9301.2
801.6366	9207.2
805.50115	9161.9
809.36299	9121
813.22213	9089.6
817.07857	9114.2
820.93231	9088.1
824.78336	9090.1
828.63172	9095.6
832.47738	9119.1
836.32036	9100.3
840.16066	9099.2
843.99827	9143
847.8332	9104
851.66546	9122.5
855.49504	9116.8
859.32195	9145.4
863.1462	9135.6
866.96777	9123
870.78668	9137.9
874.60293	9140.6
878.41652	9205.2
882.22745	9260.4
886.03573	9310.6
889.84136	9296.6
893.64433	9263.9
897.44466	9222.9
901.24235	9213.9
905.0374	9186.7
908.8298	9160.2
912.61957	9130.7
916.40671	9168.4
920.19121	9196.2
923.97308	9284.7
927.75233	9383.8
931.52895	9464
935.30295	9398.5
939.07433	9224.3
942.84309	9123.4
946.60924	9112.8
950.37278	9070.4
954.13371	9067.5
957.89203	9015.6
961.64774	9037.1
965.40086	9005.5
969.15137	8985
972.89929	8992.3
976.64461	9005.7
980.38733	9020.4
984.12747	9044.4
987.86502	9106.6
991.59999	9204.3
995.33237	9290.8
999.06217	9456.8
1002.78939	9642.8
1006.51404	9838.1
1010.23611	9982.4
1013.95561	10060.3
1017.67255	10116.5
1021.38692	10104.7
1025.09872	10057.3
1028.80796	10072
1032.51465	10148.4
1036.21877	10243.6
1039.92035	10252.6
1043.61937	10201.7
1047.31584	10129.4
1051.00976	10015.2
1054.70114	9967.4
1058.38998	9966.9
1062.07627	9999.6
1065.76003	10042.2
1069.44126	10146.2
1073.11995	10352.5
1076.79611	10537
1080.46974	10677.9
1084.14085	10810.2
1087.80943	10893.8
1091.47549	10959.9
1095.13903	10927.5
1098.80005	10895.4
1102.45857	10896.5
1106.11456	10802
1109.76805	10689.8
1113.41903	10688.9
1117.06751	10789.3
1120.71348	10987.6
1124.35696	11181.5
1127.99793	11313.6
1131.63641	11179.1
1135.2724	10876.7
1138.90589	10623.3
1142.5369	10449.4
1146.16542	10408.3
1149.79145	10332.3
1153.415	10241.3
1157.03607	10195.4
1160.65467	10266.9
1164.27079	10478.4
1167.88443	10808.7
1171.49561	11291.2
1175.10432	12063.8
1178.71056	13105.5
1182.31434	13986.9
1185.91565	14367.9
1189.51451	14293.5
1193.11091	13963.5
1196.70485	13621.1
1200.29634	13230.5
1203.88538	12801.2
1207.47197	12369.6
1211.05612	11925.5
1214.63782	11594.6
1218.21708	11352.5
1221.79391	11223.2
1225.36829	11178.3
1228.94024	11116.8
1232.50976	11066.1
1236.07685	11008
1239.6415	11022.7
1243.20374	11062.4
1246.76355	11148.9
1250.32093	11296.1
1253.8759	11526.5
1257.42845	11855.3
1260.97859	12196.3
1264.52631	12523.9
1268.07163	12765.3
1271.61453	12955
1275.15503	13055.4
1278.69312	13123.6
1282.22882	13210.1
1285.76211	13301.8
1289.29301	13458.4
1292.82151	13697.2
1296.34761	13999.5
1299.87133	14463.9
1303.39266	15309.5
1306.9116	16556.5
1310.42815	17774.1
1313.94233	18347.2
1317.45412	17869.5
1320.96354	16865.7
1324.47058	15858.5
1327.97525	15046.8
1331.47754	14497.4
1334.97747	14319.9
1338.47502	14451.9
1341.97022	14879.3
1345.46305	15663.4
1348.95352	16697.6
1352.44163	17871.9
1355.92738	19020.5
1359.41078	20430.2
1362.89183	21393.2
1366.37053	20364.1
1369.84688	17714.2
1373.32088	15285.5
1376.79254	13928.7
1380.26186	13264.9
1383.72883	12923.7
1387.19347	12566.4
1390.65578	12169.8
1394.11575	11844.1
1397.57339	11606.7
1401.0287	11507.4
1404.48168	11522.7
1407.93234	11607.7
1411.38068	11784.3
1414.82669	11932.1
1418.27039	11960.7
1421.71177	11916.1
1425.15083	11859.1
1428.58758	11794.6
1432.02203	11908.1
1435.45416	11986
1438.88399	12015.9
1442.31151	11988.6
1445.73673	11975.6
1449.15965	11960.7
1452.58027	11922.3
1455.9986	11861.1
1459.41463	11834.1
1462.82837	11931.5
1466.23982	12123.1
1469.64898	12311.2
1473.05586	12497.2
1476.46045	12614.2
1479.86276	12727.7
1483.26279	12880.3
1486.66054	13070.6
1490.05602	13377.3
1493.44922	13917.9
1496.84016	14710.8
1500.22882	15838.9
1503.61521	17255.4
1506.99934	18658
1510.38121	19439.2
1513.76081	19166.8
1517.13816	17826.6
1520.51324	16093.6
1523.88607	14690.5
1527.25665	13852
1530.62498	13458.9
1533.99105	13209.3
1537.35488	13100.7
1540.71647	12994.5
1544.07581	12910.3
1547.4329	12810.6
1550.78776	12674.5
1554.14038	12529.6
1557.49077	12497.3
1560.83892	12619.9
1564.18484	12826.8
1567.52853	13123.3
1570.86999	13324.7
1574.20922	13351
1577.54624	13171.2
1580.88103	12639.6
1584.2136	12135.8
1587.54395	11892.8
1590.87208	12080.6
1594.19801	12575.7
1597.52172	13209.4
1600.84321	13507.5
1604.16251	13389.7
1607.47959	13066.5
1610.79447	12566
1614.10715	11916.8
1617.41763	11263
1620.7259	10841.7
1624.03199	10595.4
1627.33587	10546.3
1630.63757	10724.5
1633.93707	11144.7
1637.23439	11876.5
1640.52951	12925.7
1643.82246	14253.1
1647.11321	15447.6
1650.40179	15875.1
1653.68819	15027.1
1656.97241	13333.9
1660.25446	11680.5
1663.53433	10581.4
1666.81203	9939.2
1670.08756	9572.2
1673.36092	9333.8
1676.63211	9188.4
1679.90115	9068.2
1683.16801	8955.5
1686.43272	8880.7
1689.69527	8809.2
1692.95567	8767.5
1696.2139	8744.4
1699.46999	8716.6
1702.72392	8695.5
1705.97571	8705.7
1709.22535	8680.6
1712.47284	8705.8
1715.71819	8703.5
1718.96139	8694.4
1722.20246	8681.2
1725.44139	8649.9
1728.67818	8580.8
1731.91284	8557.1
1735.14537	8516.1
1738.37576	8486.5
1741.60403	8431.1
1744.83017	8435
1748.05418	8426.8
1751.27607	8410.6
1754.49584	8371
1757.71349	8380.8
1760.92903	8376.5
1764.14244	8333.1
1767.35375	8318.7
1770.56294	8319.1
1773.77002	8304.2
1776.97499	8264.8
1780.17785	8242.6
1783.37861	8213.6
1786.57727	8197.9
1789.77382	8193.8
1792.96828	8181.4
1796.16064	8172.9
1799.3509	8159
1802.53907	8166.7
1805.72514	8142.2
1808.90913	8110.1
1812.09102	8101
1815.27083	8067.3
1818.44856	8051.8
1821.6242	8046.5
1824.79776	8015.7
1827.96924	8016.3
1831.13864	8023.3
1834.30597	8013.9
1837.47122	7965.2
1840.6344	7957.6
1843.7955	7966.7
1846.95454	7952.9
1850.11151	7956.3
1853.26642	7954.2
1856.41926	7939.3
1859.57004	7934.4
1862.71876	7951.2
1865.86542	7937.3
1869.01003	7925.3
1872.15258	7902.5
1875.29308	7879.3
1878.43152	7886.6
1881.56792	7871.5
1884.70227	7858.7
1887.83457	7846.7
1890.96482	7827.2
1894.09304	7790
1897.21921	7804.3
1900.34335	7792.5
1903.46544	7805.5
1906.58551	7788.6
1909.70353	7777.4
1912.81953	7777.4
1915.93349	7757.2
1919.04543	7751.1
1922.15534	7714.6
1925.26322	7726.4
1928.36908	7690.6
1931.47292	7678.6
1934.57473	7652
1937.67453	7632.6
1940.77232	7648.2
1943.86808	7602.1
1946.96184	7572
1950.05358	7556.3
1953.14331	7548.7
1956.23103	7517.3
1959.31675	7504.3
1962.40046	7479.6
1965.48217	7455.6
1968.56188	7420.3
1971.63959	7419.6
1974.7153	7423.2
1977.78901	7402.8
1980.86073	7368.5
1983.93046	7327.8
1986.99819	7307.8
1990.06394	7304.7
1993.1277	7279.2
1996.18947	7243.8
1999.24925	7209.1
2002.30706	7190.1
2005.36288	7143.3
2008.41672	7149.1
2011.46859	7127
2014.51848	7078.1
2017.56639	7075.2
2020.61233	7054.4
2023.6563	7058.2
2026.6983	7029.3
2029.73833	7017.2
2032.7764	6978
2035.8125	6978.7
2038.84664	6953.2
2041.87881	6930.4
2044.90903	6931
2047.93729	6926.6
2050.96359	6904.7
2053.98794	6883.1
2057.01034	6922.9
2060.03078	6893.9
2063.04927	6866.1
2066.06582	6849
2069.08042	6842.7
2072.09307	6852.1
2075.10378	6850.1
2078.11255	6826.3
2081.11938	6821.2
2084.12426	6807.4
2087.12722	6820.9
2090.12824	6810.3
2093.12732	6799.6
2096.12447	6815.3
2099.11969	6832.6
2102.11299	6822.6
2105.10435	6829.8
2108.09379	6820.4
2111.08131	6846.7
2114.0669	6832.9
2117.05057	6837.5
2120.03233	6857.7
2123.01216	6858.1
2125.99008	6860.6
2128.96609	6857.7
2131.94018	6860.2
2134.91236	6850.3
2137.88263	6856.4
2140.851	6858.1
2143.81746	6868.9
2146.78201	6842
2149.74466	6847.9
2152.7054	6861.7
2155.66425	6855.2
2158.6212	6851
2161.57625	6831
2164.52941	6829.8
2167.48067	6847.8
2170.43004	6831.8
2173.37752	6819.5
2176.32311	6798.3
2179.26681	6812
2182.20863	6816.1
2185.14856	6845.8
2188.08661	6833.7
2191.02278	6810.6
2193.95707	6816.7
2196.88948	6810.6
2199.82001	6807.2
2202.74867	6795.4
2205.67545	6809.4
2208.60037	6799.8
2211.52341	6780.4
2214.44458	6786.2
2217.36388	6741.5
2220.28132	6737.6
2223.1969	6700.1
2226.11061	6684.4
2229.02246	6680.6
2231.93245	6676.5
2234.84058	6667.1
2237.74686	6642.3
2240.65128	6629.1
2243.55385	6622.5
2246.45456	6634.7
2249.35343	6608.4
2252.25044	6599.2
2255.14561	6606.3
2258.03893	6602.6
2260.93041	6599.2
2263.82004	6570.6
2266.70783	6546.4
2269.59378	6533.2
2272.4779	6520.4
2275.36017	6498.7
2278.24061	6501.1
2281.11922	6466.5
2283.996	6458.7
2286.87094	6453.5
2289.74405	6443.2
2292.61534	6443.2
2295.4848	6441.4
2298.35243	6410.9
2301.21824	6412.4
2304.08223	6410.2
2306.94439	6419.7
2309.80474	6410.3
2312.66327	6415.6
2315.51999	6394.1
2318.37489	6388.9
2321.22797	6378.5
2324.07925	6384.4
2326.92871	6366.4
2329.77637	6352.7
2332.62222	6341.7
2335.46626	6323.4
2338.3085	6339.7
2341.14893	6339.4
2343.98756	6323.6
2346.8244	6333.5
2349.65943	6314.4
2352.49267	6302.5
2355.32411	6304.8
2358.15376	6305.8
2360.98161	6297.9
2363.80768	6310.9
2366.63195	6297.3
2369.45444	6286.7
2372.27514	6284.1
2375.09405	6268.8
2377.91118	6252.8
2380.72652	6246.5
2383.54009	6213.8
2386.35187	6207.3
2389.16188	6211.4
2391.97011	6175
2394.77657	6168.3
2397.58125	6156.1
2400.38416	6131.4
2403.18529	6125.1
2405.98466	6130.3
2408.78226	6097.8
2411.57809	6109
2414.37216	6090.6
2417.16446	6086.1
2419.955	6077.2
2422.74378	6083.9
2425.5308	6053.6
2428.31606	6075.1
2431.09956	6059.9
2433.88131	6040.4
2436.6613	6043.8
2439.43954	6052.7
2442.21603	6028.6
2444.99077	6036.5
2447.76377	6047.4
2450.53501	6036.6
2453.30451	6037.9
2456.07226	6007.6
2458.83827	6000.7
2461.60254	5980.7
2464.36507	5970.8
2467.12586	5976.1
2469.88492	5953.7
2472.64224	5966.1
2475.39782	5981.9
2478.15167	5983.8
2480.90379	5950.1
2483.65417	5944.2
2486.40283	5951.5
2489.14976	5975.5
2491.89497	5955.2
2494.63845	5968.4
2497.3802	5945
2500.12024	5950.8
2502.85855	5936.6
2505.59514	5937.7
2508.33002	5905.9
2511.06318	5902.7
2513.79462	5902.1
2516.52435	5895
2519.25237	5870.2
2521.97867	5865.9
2524.70327	5863.2
2527.42616	5847.9
2530.14734	5833
2532.86681	5819.1
2535.58458	5859.1
2538.30065	5853.6
2541.01501	5834.8
2543.72768	5839.1
2546.43864	5827
2549.14791	5805.7
2551.85548	5819.1
2554.56136	5810.3
2557.26554	5795.7
2559.96803	5786.6
2562.66883	5790.4
2565.36794	5753
2568.06536	5733
2570.7611	5704.1
2573.45514	5722.5
2576.14751	5709.7
2578.83819	5694.7
2581.52719	5692.4
2584.21451	5682.3
2586.90015	5685.4
2589.58411	5673.7
2592.2664	5663.4
2594.94701	5651.1
2597.62594	5648
2600.30321	5646.1
2602.9788	5632.6
2605.65273	5632.9
2608.32498	5635.4
2610.99557	5615.9
2613.66449	5611.2
2616.33175	5593.6
2618.99734	5605
2621.66128	5613.7
2624.32355	5594.4
2626.98416	5570.3
2629.64311	5575.5
2632.30041	5571.3
2634.95605	5569.6
2637.61004	5546.3
2640.26238	5531.8
2642.91306	5539
2645.56209	5532.8
2648.20948	5526.6
2650.85521	5534.3
2653.4993	5535.5
2656.14175	5512.9
2658.78255	5519.3
2661.42171	5503.3
2664.05923	5504.3
2666.6951	5526.3
2669.32934	5523.9
2671.96194	5541.1
2674.59291	5528.4
2677.22224	5512.2
2679.84993	5515.4
2682.476	5516
2685.10043	5522.3
2687.72324	5510.6
2690.34441	5510
2692.96396	5496.8
2695.58188	5504
2698.19818	5489.3
2700.81285	5498.7
2703.4259	5470.6
2706.03733	5463.1
2708.64714	5468.5
2711.25533	5461.4
2713.86191	5455
2716.46687	5470.3
2719.07021	5462.2
2721.67194	5451.5
2724.27206	5455.7
2726.87057	5461
2729.46747	5458.5
2732.06276	5458.1
2734.65644	5464.8
2737.24852	5444.1
2739.83899	5443.6
2742.42786	5439.8
2745.01513	5414.2
2747.60079	5403.4
2750.18486	5421.3
2752.76733	5407.4
2755.3482	5387.3
2757.92747	5379.7
2760.50515	5369
2763.08123	5354
2765.65573	5355.9
2768.22863	5348
2770.79994	5339.4
2773.36967	5336.1
2775.9378	5317.4
2778.50435	5314.6
2781.06932	5335.4
2783.6327	5316.4
2786.1945	5325.2
2788.75471	5293.4
2791.31335	5286.4
2793.87041	5289.7
2796.42589	5254.6
2798.97979	5247.6
2801.53212	5223.5
2804.08288	5233.6
2806.63206	5206.8
2809.17967	5228.1
2811.72571	5201.5
2814.27018	5207.6
2816.81308	5196.9
2819.35442	5181.6
2821.89419	5180.3
2824.43239	5167
2826.96904	5154.8
2829.50412	5148.2
2832.03763	5116.3
2834.56959	5131.3
2837.1	5113.8
2839.62884	5078
2842.15613	5096
2844.68186	5109.6
2847.20604	5104.8
2849.72867	5087.6
2852.24974	5075.8
2854.76927	5063.4
2857.28724	5041.4
2859.80367	5057.5
2862.31855	5058.7
2864.83189	5033.8
2867.34368	5033.1
2869.85393	5025.1
2872.36264	5032.6
2874.8698	5016.2
2877.37543	5033.7
2879.87952	5004.2
2882.38207	5017.9
2884.88308	5004.2
2887.38256	4999.5
2889.88051	4979.3
2892.37692	4983.5
2894.8718	4986.9
2897.36515	4992.9
2899.85698	4971.7
2902.34727	5000.5
2904.83604	4990.3
2907.32328	5004.2
2909.809	4993.4
2912.29319	5028.4
2914.77587	5011.8
2917.25702	5023.3
2919.73665	4992.5
2922.21476	5016.1
2924.69136	4988.9
2927.16644	4982.2
2929.64	4981.2
2932.11205	4974.4
2934.58258	4934.9
2937.05161	4949.4
2939.51912	4945.9
2941.98513	4957.8
2944.44962	4932.3
2946.91261	4914.3
2949.37409	4933.4
2951.83407	4917.1
2954.29254	4912.3
2956.74951	4914.2
2959.20498	4916.4
2961.65895	4908.7
2964.11142	4906.2
2966.56239	4890.6
2969.01186	4909.3
2971.45984	4895
2973.90632	4892.6
2976.35131	4884.4
2978.7948	4857.5
2981.23681	4852.5
2983.67732	4854.5
2986.11635	4826.7
2988.55388	4827.6
2990.98993	4789.5
2993.4245	4798
2995.85758	4785.5
2998.28917	4772
3000.71928	4759.7
3003.14791	4750.3
3005.57506	4741.2
3008.00073	4731.7
3010.42493	4726
3012.84764	4701
3015.26888	4700.6
3017.68865	4700.6
3020.10694	4685.2
3022.52376	4665.3
3024.9391	4647.2
3027.35298	4640.7
3029.76539	4620.8
3032.17632	4628.9
3034.5858	4624.5
3036.9938	4611
3039.40034	4597.9
3041.80542	4592.9
3044.20903	4571.5
3046.61118	4570.7
3049.01187	4555.7
3051.4111	4564.6
3053.80888	4527.5
3056.20519	4529.5
3058.60005	4522.1
3060.99345	4497.8
3063.3854	4492.3
3065.7759	4488.8
3068.16494	4469.1
3070.55254	4453.4
3072.93868	4432.7
3075.32338	4426.1
3077.70662	4423.9
3080.08842	4418
3082.46878	4411.6
3084.84769	4381.8
3087.22515	4374
3089.60118	4386
3091.97576	4372.9
3094.3489	4375.2
3096.72061	4372.9
3099.09087	4357.7
3101.4597	4383.8
3103.82709	4370.1
3106.19305	4372.3
3108.55757	4361.6
3110.92066	4339.8
3113.28232	4341.8
3115.64255	4331.6
3118.00134	4313.6
3120.35871	4311.6
3122.71466	4292
3125.06917	4312.8
3127.42226	4278.7
3129.77393	4277.9
3132.12417	4252.2
3134.47299	4236.3
3136.82039	4248.8
3139.16636	4247.2
3141.51092	4245.9
3143.85406	4253.8
3146.19579	4240.3
3148.53609	4239.7
3150.87499	4220.4
3153.21246	4240.4
3155.54853	4240.9
3157.88318	4211.7
3160.21642	4214
3162.54826	4234.4
3164.87868	4222.3
3167.2077	4211.3
3169.5353	4203.5
3171.86151	4188.2
3174.18631	4185
3176.5097	4181.6
3178.83169	4167.9
3181.15228	4164.5
3183.47147	4148.9
3185.78926	4147.2
3188.10565	4134.7
3190.42065	4125.6
3192.73424	4123.9
3195.04645	4123.4
3197.35725	4105.1
3199.66667	4102.7
3201.97469	4115.4
3204.28132	4111.3
3206.58656	4121.4
3208.8904	4109.9
3211.19287	4114.6
3213.49394	4100.7
3215.79363	4102.8
3218.09193	4113.5
3220.38884	4094.8
3222.68438	4102.6
3224.97853	4096.4
3227.2713	4081.3
3229.56269	4086.6
3231.8527	4079.3
3234.14133	4055
3236.42858	4056.6
3238.71446	4048.7
3240.99896	4035.5
3243.28209	4022.9
3245.56384	4021.9
3247.84423	4005.7
3250.12324	3995.4
3252.40088	4004.6
3254.67715	3997.3
3256.95205	3990.1
3259.22558	3993
3261.49775	3987.5
3263.76855	3991.2
3266.03799	3980.5
3268.30606	3973.2
3270.57277	3986.3
3272.83812	3973.9
3275.10211	3957.1
3277.36474	3949.7
3279.62601	3930.6
3281.88593	3932.5
3284.14448	3936.3
3286.40168	3933.8
3288.65753	3915.2
3290.91202	3926.9
3293.16516	3906.7
3295.41695	3905.2
3297.66738	3883.6
3299.91647	3883.4
3302.16421	3852.7
3304.4106	3818.5
3306.65564	3811.3
3308.89933	3780.7
3311.14169	3752.5
3313.38269	3711.6
3315.62236	3702.4
3317.86068	3659.6
3320.09766	3639.9
3322.3333	3614.9
3324.5676	3589.9
3326.80056	3528.8
3329.03219	3508.2
3331.26248	0.6
3333.49143	-0.8
3335.71905	0.3
