Data from AgNPs_UA_5uM_CRN_500uM_SU_RamanShift__166__11-57-03-173.txt Node

Date: Thu Aug 04 11:57:03 BST 2022
User: TCL
Spectrometer: QEP01345
Trigger mode: 4
Integration Time (sec): 1.000000E0
Scans to average: 10
Electric dark correction enabled: true
Nonlinearity correction enabled: false
Boxcar width: 0
XAxis mode: Raman Shifts
Number of Pixels in Spectrum: 1044
>>>>>Begin Spectral Data<<<<<
46.04893	-0.0875
50.45542	0.8125
54.85868	0.0125
59.25871	0.0125
63.6555	-57.4875
68.04907	-39.0875
72.43941	-69.9875
76.82654	-56.5875
81.21044	-54.5875
85.59113	-48.6875
89.96862	-75.0875
94.34289	-55.6875
98.71396	-76.9875
103.08183	-58.9875
107.4465	-48.5875
111.80798	-55.2875
116.16626	-42.2875
120.52136	-74.1875
124.87327	-48.3875
129.222	-62.6875
133.56755	-50.1875
137.90993	-60.8875
142.24913	-50.3875
146.58517	-42.5875
150.91804	-41.7875
155.24774	-29.0875
159.57429	-8.5875
163.89768	-4.7875
168.21792	41.4125
172.53501	60.2125
176.84895	143.7125
181.15975	283.8125
185.46741	431.2125
189.77193	612.1125
194.07331	912.6125
198.37157	1197.5125
202.6667	1497.8125
206.9587	1811.9125
211.24758	2141.0125
215.53334	2470.4125
219.81599	2820.9125
224.09553	3240.8125
228.37195	3670.7125
232.64527	4160.9125
236.91549	4629.0125
241.18261	4999.9125
245.44663	5287.2125
249.70755	5472.8125
253.96539	5610.7125
258.22014	5712.4125
262.4718	5778.5125
266.72039	5824.7125
270.96589	5769.3125
275.20832	5691.3125
279.44768	5565.4125
283.68397	5461.1125
287.91719	5407.4125
292.14735	5439.3125
296.37445	5605.5125
300.59849	5864.4125
304.81948	6208.4125
309.03742	6593.6125
313.25231	6820.6125
317.46415	6770.0125
321.67296	6364.9125
325.87872	5961.1125
330.08145	5764.8125
334.28114	5735.5125
338.47781	5812.7125
342.67145	5950.4125
346.86207	6185.5125
351.04966	6563.9125
355.23424	6970.7125
359.4158	7254.1125
363.59435	7289.4125
367.76989	7189.0125
371.94243	7052.7125
376.11196	6972.6125
380.27849	6883.8125
384.44203	6813.6125
388.60257	6757.4125
392.76012	6770.1125
396.91468	6909.1125
401.06626	7070.6125
405.21485	7094.4125
409.36047	6937.5125
413.50311	6604.5125
417.64277	6325.2125
421.77947	6122.6125
425.9132	6049.1125
430.04396	6044.3125
434.17176	6081.8125
438.2966	6179.7125
442.41849	6264.2125
446.53742	6398.5125
450.6534	6474.2125
454.76644	6561.1125
458.87653	6581.0125
462.98368	6538.6125
467.08789	6467.6125
471.18916	6403.2125
475.2875	6286.3125
479.38291	6178.7125
483.4754	6105.5125
487.56496	6045.0125
491.6516	5991.5125
495.73531	6009.2125
499.81612	6025.9125
503.89401	6111.3125
507.96899	6167.9125
512.04106	6285.0125
516.11023	6362.1125
520.1765	6450.7125
524.23987	6500.2125
528.30034	6489.5125
532.35792	6406.4125
536.41261	6366.8125
540.46441	6273.9125
544.51333	6208.1125
548.55936	6251.6125
552.60252	6390.7125
556.64279	6479.8125
560.6802	6607.3125
564.71473	6750.0125
568.7464	6937.4125
572.7752	6916.5125
576.80114	6590.2125
580.82422	6341.8125
584.84444	6242.6125
588.86181	6227.7125
592.87633	6258.4125
596.888	6387.2125
600.89682	6756.3125
604.9028	7733.7125
608.90594	9783.3125
612.90624	12147.1125
616.90371	11265.7125
620.89834	8200.5125
624.89015	6924.2125
628.87913	6730.4125
632.86528	6865.6125
636.84862	7029.2125
640.82913	6895.2125
644.80683	6550.7125
648.78172	6373.9125
652.75379	6406.7125
656.72306	6643.7125
660.68952	6884.6125
664.65319	6805.3125
668.61405	6567.5125
672.57211	6494.1125
676.52738	6499.8125
680.47986	6413.0125
684.42955	6303.8125
688.37646	6262.7125
692.32058	6281.1125
696.26192	6345.5125
700.20048	6435.7125
704.13626	6482.0125
708.06928	6427.9125
711.99952	6402.9125
715.927	6381.0125
719.85171	6420.3125
723.77365	6472.6125
727.69284	6452.4125
731.60928	6424.0125
735.52295	6408.9125
739.43388	6436.0125
743.34206	6468.8125
747.24749	6478.6125
751.15017	6492.0125
755.05012	6572.6125
758.94733	6941.2125
762.8418	7764.4125
766.73354	9099.2125
770.62254	10047.7125
774.50882	10153.5125
778.39237	9628.3125
782.27321	8769.2125
786.15132	7715.4125
790.02671	7015.2125
793.89938	6674.3125
797.76935	6545.7125
801.6366	6463.1125
805.50115	6415.6125
809.36299	6409.4125
813.22213	6418.3125
817.07857	6404.9125
820.93231	6420.5125
824.78336	6424.8125
828.63172	6456.0125
832.47738	6449.2125
836.32036	6465.5125
840.16066	6423.5125
843.99827	6420.2125
847.8332	6390.1125
851.66546	6438.9125
855.49504	6419.4125
859.32195	6467.8125
863.1462	6448.9125
866.96777	6439.1125
870.78668	6396.2125
874.60293	6457.2125
878.41652	6482.2125
882.22745	6556.9125
886.03573	6588.7125
889.84136	6573.0125
893.64433	6596.3125
897.44466	6566.1125
901.24235	6571.9125
905.0374	6565.2125
908.8298	6505.1125
912.61957	6464.5125
916.40671	6415.6125
920.19121	6477.8125
923.97308	6550.2125
927.75233	6627.2125
931.52895	6691.1125
935.30295	6673.0125
939.07433	6510.8125
942.84309	6391.1125
946.60924	6358.0125
950.37278	6324.6125
954.13371	6342.2125
957.89203	6336.6125
961.64774	6342.4125
965.40086	6302.9125
969.15137	6288.2125
972.89929	6323.1125
976.64461	6308.8125
980.38733	6340.0125
984.12747	6353.9125
987.86502	6360.8125
991.59999	6392.7125
995.33237	6454.6125
999.06217	6523.2125
1002.78939	6614.6125
1006.51404	6747.6125
1010.23611	6865.0125
1013.95561	6927.2125
1017.67255	6916.5125
1021.38692	6909.7125
1025.09872	6804.6125
1028.80796	6753.9125
1032.51465	6759.3125
1036.21877	6736.7125
1039.92035	6768.9125
1043.61937	6813.9125
1047.31584	6878.9125
1051.00976	6882.2125
1054.70114	6879.2125
1058.38998	6897.7125
1062.07627	6903.4125
1065.76003	6946.3125
1069.44126	7001.8125
1073.11995	7105.9125
1076.79611	7222.7125
1080.46974	7375.0125
1084.14085	7530.7125
1087.80943	7675.3125
1091.47549	7697.0125
1095.13903	7636.6125
1098.80005	7505.1125
1102.45857	7396.9125
1106.11456	7372.5125
1109.76805	7284.5125
1113.41903	7418.3125
1117.06751	7593.9125
1120.71348	7832.9125
1124.35696	8226.6125
1127.99793	8492.1125
1131.63641	8314.5125
1135.2724	7926.7125
1138.90589	7621.9125
1142.5369	7454.9125
1146.16542	7340.1125
1149.79145	7232.1125
1153.415	7184.2125
1157.03607	7171.4125
1160.65467	7258.4125
1164.27079	7471.7125
1167.88443	7713.2125
1171.49561	8122.4125
1175.10432	8702.6125
1178.71056	9595.1125
1182.31434	10351.5125
1185.91565	10620.6125
1189.51451	10472.1125
1193.11091	10200.4125
1196.70485	9972.3125
1200.29634	9764.7125
1203.88538	9505.6125
1207.47197	9053.9125
1211.05612	8633.6125
1214.63782	8246.8125
1218.21708	7994.7125
1221.79391	7848.3125
1225.36829	7772.0125
1228.94024	7749.9125
1232.50976	7741.4125
1236.07685	7779.0125
1239.6415	7804.6125
1243.20374	7827.4125
1246.76355	7866.9125
1250.32093	7958.2125
1253.8759	8028.4125
1257.42845	8211.6125
1260.97859	8411.9125
1264.52631	8661.7125
1268.07163	8784.2125
1271.61453	8935.9125
1275.15503	8976.6125
1278.69312	8957.4125
1282.22882	9020.0125
1285.76211	9243.6125
1289.29301	9473.3125
1292.82151	9750.5125
1296.34761	9955.7125
1299.87133	10363.7125
1303.39266	11042.5125
1306.9116	12154.7125
1310.42815	13397.5125
1313.94233	13813.1125
1317.45412	13026.5125
1320.96354	11883.6125
1324.47058	10904.8125
1327.97525	10154.4125
1331.47754	9768.9125
1334.97747	9688.2125
1338.47502	9802.5125
1341.97022	10144.6125
1345.46305	10878.0125
1348.95352	11901.8125
1352.44163	13165.7125
1355.92738	14473.9125
1359.41078	16050.6125
1362.89183	17551.0125
1366.37053	16889.7125
1369.84688	14107.8125
1373.32088	11474.2125
1376.79254	10141.2125
1380.26186	9509.8125
1383.72883	9111.2125
1387.19347	8731.3125
1390.65578	8381.3125
1394.11575	8131.6125
1397.57339	7986.9125
1401.0287	7905.3125
1404.48168	7832.5125
1407.93234	7859.4125
1411.38068	7872.5125
1414.82669	7956.8125
1418.27039	8043.1125
1421.71177	8030.3125
1425.15083	7949.2125
1428.58758	7866.2125
1432.02203	7913.3125
1435.45416	7963.0125
1438.88399	7971.5125
1442.31151	8001.3125
1445.73673	8035.2125
1449.15965	8098.4125
1452.58027	8123.5125
1455.9986	8087.6125
1459.41463	8108.1125
1462.82837	8208.4125
1466.23982	8407.2125
1469.64898	8597.6125
1473.05586	8750.2125
1476.46045	8833.8125
1479.86276	8887.5125
1483.26279	8998.2125
1486.66054	9179.0125
1490.05602	9435.0125
1493.44922	9943.5125
1496.84016	10801.2125
1500.22882	12154.0125
1503.61521	13837.7125
1506.99934	15573.4125
1510.38121	16757.1125
1513.76081	16635.5125
1517.13816	15129.6125
1520.51324	13005.1125
1523.88607	11348.1125
1527.25665	10356.3125
1530.62498	9851.4125
1533.99105	9644.7125
1537.35488	9527.1125
1540.71647	9446.8125
1544.07581	9341.0125
1547.4329	9221.2125
1550.78776	9096.3125
1554.14038	9035.5125
1557.49077	8980.1125
1560.83892	9081.0125
1564.18484	9301.7125
1567.52853	9632.7125
1570.86999	9943.3125
1574.20922	10051.1125
1577.54624	9962.5125
1580.88103	9456.3125
1584.2136	8789.6125
1587.54395	8452.6125
1590.87208	8385.6125
1594.19801	8537.0125
1597.52172	8921.1125
1600.84321	9068.3125
1604.16251	8925.9125
1607.47959	8755.0125
1610.79447	8551.2125
1614.10715	8267.3125
1617.41763	7969.4125
1620.7259	7711.5125
1624.03199	7525.1125
1627.33587	7468.5125
1630.63757	7524.6125
1633.93707	7740.1125
1637.23439	8180.6125
1640.52951	8845.4125
1643.82246	9808.6125
1647.11321	10960.9125
1650.40179	11666.0125
1653.68819	11287.4125
1656.97241	10078.2125
1660.25446	8721.6125
1663.53433	7731.2125
1666.81203	7139.5125
1670.08756	6813.1125
1673.36092	6647.9125
1676.63211	6489.1125
1679.90115	6399.1125
1683.16801	6308.3125
1686.43272	6233.2125
1689.69527	6185.3125
1692.95567	6110.3125
1696.2139	6104.2125
1699.46999	6044.4125
1702.72392	6055.8125
1705.97571	6061.3125
1709.22535	6046.5125
1712.47284	6079.9125
1715.71819	6083.5125
1718.96139	6063.5125
1722.20246	6063.2125
1725.44139	6027.8125
1728.67818	6013.0125
1731.91284	5946.1125
1735.14537	5931.8125
1738.37576	5895.4125
1741.60403	5873.3125
1744.83017	5863.5125
1748.05418	5861.8125
1751.27607	5865.2125
1754.49584	5801.0125
1757.71349	5777.9125
1760.92903	5788.2125
1764.14244	5734.3125
1767.35375	5748.3125
1770.56294	5729.5125
1773.77002	5699.1125
1776.97499	5735.0125
1780.17785	5686.9125
1783.37861	5698.0125
1786.57727	5706.4125
1789.77382	5626.2125
1792.96828	5670.9125
1796.16064	5668.8125
1799.3509	5644.8125
1802.53907	5673.0125
1805.72514	5631.7125
1808.90913	5617.0125
1812.09102	5616.7125
1815.27083	5602.3125
1818.44856	5586.0125
1821.6242	5569.1125
1824.79776	5535.1125
1827.96924	5550.4125
1831.13864	5527.4125
1834.30597	5535.9125
1837.47122	5512.3125
1840.6344	5507.8125
1843.7955	5478.9125
1846.95454	5482.9125
1850.11151	5527.0125
1853.26642	5453.8125
1856.41926	5483.4125
1859.57004	5464.3125
1862.71876	5452.9125
1865.86542	5448.3125
1869.01003	5447.0125
1872.15258	5422.0125
1875.29308	5450.2125
1878.43152	5442.8125
1881.56792	5420.9125
1884.70227	5398.4125
1887.83457	5395.7125
1890.96482	5387.3125
1894.09304	5381.1125
1897.21921	5368.9125
1900.34335	5379.5125
1903.46544	5338.0125
1906.58551	5361.2125
1909.70353	5357.9125
1912.81953	5349.7125
1915.93349	5329.9125
1919.04543	5338.4125
1922.15534	5284.5125
1925.26322	5295.4125
1928.36908	5288.0125
1931.47292	5272.5125
1934.57473	5291.5125
1937.67453	5258.6125
1940.77232	5231.1125
1943.86808	5235.9125
1946.96184	5218.1125
1950.05358	5198.5125
1953.14331	5146.9125
1956.23103	5167.4125
1959.31675	5142.6125
1962.40046	5101.4125
1965.48217	5121.3125
1968.56188	5112.6125
1971.63959	5104.6125
1974.7153	5080.7125
1977.78901	5069.2125
1980.86073	5057.1125
1983.93046	5029.5125
1986.99819	4948.6125
1990.06394	4965.8125
1993.1277	4984.2125
1996.18947	4964.3125
1999.24925	4923.0125
2002.30706	4927.5125
2005.36288	4908.7125
2008.41672	4888.5125
2011.46859	4869.2125
2014.51848	4858.8125
2017.56639	4844.6125
2020.61233	4809.1125
2023.6563	4819.6125
2026.6983	4775.7125
2029.73833	4769.6125
2032.7764	4782.7125
2035.8125	4734.9125
2038.84664	4733.9125
2041.87881	4747.5125
2044.90903	4739.9125
2047.93729	4725.9125
2050.96359	4691.8125
2053.98794	4707.0125
2057.01034	4705.1125
2060.03078	4663.5125
2063.04927	4668.9125
2066.06582	4691.0125
2069.08042	4660.9125
2072.09307	4669.7125
2075.10378	4671.7125
2078.11255	4656.0125
2081.11938	4664.3125
2084.12426	4640.3125
2087.12722	4639.1125
2090.12824	4632.5125
2093.12732	4620.6125
2096.12447	4638.6125
2099.11969	4629.8125
2102.11299	4626.0125
2105.10435	4661.0125
2108.09379	4646.6125
2111.08131	4637.7125
2114.0669	4637.9125
2117.05057	4637.1125
2120.03233	4636.9125
2123.01216	4653.4125
2125.99008	4650.0125
2128.96609	4632.8125
2131.94018	4669.1125
2134.91236	4659.8125
2137.88263	4652.0125
2140.851	4658.0125
2143.81746	4680.0125
2146.78201	4661.5125
2149.74466	4647.8125
2152.7054	4656.6125
2155.66425	4642.9125
2158.6212	4639.4125
2161.57625	4612.9125
2164.52941	4591.9125
2167.48067	4614.1125
2170.43004	4622.3125
2173.37752	4627.1125
2176.32311	4610.9125
2179.26681	4612.9125
2182.20863	4614.2125
2185.14856	4618.5125
2188.08661	4608.7125
2191.02278	4619.3125
2193.95707	4597.8125
2196.88948	4571.6125
2199.82001	4586.0125
2202.74867	4583.4125
2205.67545	4581.7125
2208.60037	4585.4125
2211.52341	4565.8125
2214.44458	4548.8125
2217.36388	4543.2125
2220.28132	4521.2125
2223.1969	4504.3125
2226.11061	4495.2125
2229.02246	4490.2125
2231.93245	4496.6125
2234.84058	4475.3125
2237.74686	4462.1125
2240.65128	4458.5125
2243.55385	4452.4125
2246.45456	4440.9125
2249.35343	4442.8125
2252.25044	4439.5125
2255.14561	4437.2125
2258.03893	4437.0125
2260.93041	4413.5125
2263.82004	4400.5125
2266.70783	4407.0125
2269.59378	4387.7125
2272.4779	4372.9125
2275.36017	4365.2125
2278.24061	4356.8125
2281.11922	4322.5125
2283.996	4334.2125
2286.87094	4309.1125
2289.74405	4321.7125
2292.61534	4306.4125
2295.4848	4316.9125
2298.35243	4304.7125
2301.21824	4276.5125
2304.08223	4288.4125
2306.94439	4289.9125
2309.80474	4284.0125
2312.66327	4283.8125
2315.51999	4261.5125
2318.37489	4249.6125
2321.22797	4234.7125
2324.07925	4238.4125
2326.92871	4232.3125
2329.77637	4202.7125
2332.62222	4199.0125
2335.46626	4184.9125
2338.3085	4186.1125
2341.14893	4194.2125
2343.98756	4197.4125
2346.8244	4159.3125
2349.65943	4165.2125
2352.49267	4173.7125
2355.32411	4171.2125
2358.15376	4172.4125
2360.98161	4187.9125
2363.80768	4147.4125
2366.63195	4172.4125
2369.45444	4168.8125
2372.27514	4162.3125
2375.09405	4154.2125
2377.91118	4136.3125
2380.72652	4124.6125
2383.54009	4125.8125
2386.35187	4122.2125
2389.16188	4106.8125
2391.97011	4100.7125
2394.77657	4090.3125
2397.58125	4091.5125
2400.38416	4070.5125
2403.18529	4050.9125
2405.98466	4038.2125
2408.78226	4041.5125
2411.57809	4023.0125
2414.37216	4017.6125
2417.16446	4031.4125
2419.955	3987.7125
2422.74378	4007.3125
2425.5308	3998.9125
2428.31606	3986.8125
2431.09956	3996.4125
2433.88131	3954.9125
2436.6613	3992.8125
2439.43954	3966.4125
2442.21603	3981.4125
2444.99077	3946.6125
2447.76377	3957.8125
2450.53501	3952.2125
2453.30451	3951.5125
2456.07226	3952.0125
2458.83827	3931.2125
2461.60254	3895.8125
2464.36507	3926.7125
2467.12586	3913.7125
2469.88492	3918.5125
2472.64224	3915.4125
2475.39782	3910.7125
2478.15167	3921.1125
2480.90379	3898.9125
2483.65417	3922.7125
2486.40283	3920.1125
2489.14976	3914.3125
2491.89497	3905.9125
2494.63845	3904.5125
2497.3802	3900.1125
2500.12024	3882.9125
2502.85855	3891.8125
2505.59514	3875.6125
2508.33002	3898.0125
2511.06318	3837.9125
2513.79462	3847.9125
2516.52435	3818.0125
2519.25237	3783.3125
2521.97867	3799.6125
2524.70327	3794.3125
2527.42616	3794.4125
2530.14734	3803.5125
2532.86681	3762.8125
2535.58458	3774.6125
2538.30065	3768.8125
2541.01501	3798.7125
2543.72768	3768.3125
2546.43864	3757.5125
2549.14791	3760.9125
2551.85548	3745.9125
2554.56136	3742.1125
2557.26554	3746.0125
2559.96803	3730.7125
2562.66883	3742.0125
2565.36794	3703.0125
2568.06536	3662.6125
2570.7611	3716.2125
2573.45514	3691.7125
2576.14751	3688.8125
2578.83819	3656.0125
2581.52719	3660.9125
2584.21451	3654.8125
2586.90015	3641.0125
2589.58411	3617.3125
2592.2664	3625.6125
2594.94701	3623.0125
2597.62594	3624.5125
2600.30321	3557.5125
2602.9788	3586.1125
2605.65273	3576.0125
2608.32498	3568.1125
2610.99557	3596.2125
2613.66449	3566.2125
2616.33175	3570.3125
2618.99734	3567.4125
2621.66128	3579.4125
2624.32355	3543.0125
2626.98416	3532.2125
2629.64311	3518.2125
2632.30041	3522.4125
2634.95605	3515.2125
2637.61004	3497.9125
2640.26238	3467.6125
2642.91306	3479.5125
2645.56209	3489.1125
2648.20948	3498.5125
2650.85521	3475.6125
2653.4993	3488.3125
2656.14175	3485.3125
2658.78255	3472.3125
2661.42171	3454.9125
2664.05923	3491.7125
2666.6951	3490.1125
2669.32934	3480.9125
2671.96194	3510.3125
2674.59291	3492.6125
2677.22224	3483.3125
2679.84993	3469.1125
2682.476	3466.5125
2685.10043	3475.8125
2687.72324	3457.7125
2690.34441	3445.5125
2692.96396	3458.3125
2695.58188	3469.2125
2698.19818	3451.0125
2700.81285	3452.1125
2703.4259	3429.7125
2706.03733	3414.3125
2708.64714	3422.4125
2711.25533	3450.0125
2713.86191	3447.7125
2716.46687	3445.2125
2719.07021	3438.9125
2721.67194	3429.1125
2724.27206	3454.0125
2726.87057	3447.0125
2729.46747	3419.7125
2732.06276	3438.0125
2734.65644	3406.2125
2737.24852	3416.0125
2739.83899	3396.6125
2742.42786	3395.4125
2745.01513	3406.4125
2747.60079	3393.1125
2750.18486	3383.0125
2752.76733	3384.4125
2755.3482	3372.2125
2757.92747	3378.2125
2760.50515	3362.0125
2763.08123	3343.0125
2765.65573	3345.4125
2768.22863	3331.7125
2770.79994	3325.8125
2773.36967	3329.2125
2775.9378	3315.3125
2778.50435	3298.6125
2781.06932	3304.4125
2783.6327	3283.5125
2786.1945	3323.9125
2788.75471	3312.2125
2791.31335	3293.8125
2793.87041	3297.8125
2796.42589	3274.1125
2798.97979	3260.6125
2801.53212	3253.6125
2804.08288	3263.3125
2806.63206	3232.2125
2809.17967	3234.3125
2811.72571	3244.3125
2814.27018	3227.2125
2816.81308	3224.3125
2819.35442	3190.1125
2821.89419	3197.3125
2824.43239	3196.8125
2826.96904	3214.7125
2829.50412	3183.9125
2832.03763	3204.1125
2834.56959	3195.4125
2837.1	3182.2125
2839.62884	3179.0125
2842.15613	3180.4125
2844.68186	3176.6125
2847.20604	3147.2125
2849.72867	3163.0125
2852.24974	3155.9125
2854.76927	3127.1125
2857.28724	3082.8125
2859.80367	3129.8125
2862.31855	3145.1125
2864.83189	3122.6125
2867.34368	3144.1125
2869.85393	3131.1125
2872.36264	3101.0125
2874.8698	3106.9125
2877.37543	3122.0125
2879.87952	3105.8125
2882.38207	3089.7125
2884.88308	3099.1125
2887.38256	3093.8125
2889.88051	3091.0125
2892.37692	3089.1125
2894.8718	3069.9125
2897.36515	3090.3125
2899.85698	3079.7125
2902.34727	3081.7125
2904.83604	3077.8125
2907.32328	3082.3125
2909.809	3097.3125
2912.29319	3076.0125
2914.77587	3105.6125
2917.25702	3107.8125
2919.73665	3106.1125
2922.21476	3111.8125
2924.69136	3106.8125
2927.16644	3078.3125
2929.64	3086.6125
2932.11205	3081.1125
2934.58258	3072.6125
2937.05161	3064.4125
2939.51912	3072.5125
2941.98513	3078.0125
2944.44962	3057.5125
2946.91261	3027.2125
2949.37409	3042.2125
2951.83407	3025.8125
2954.29254	3036.0125
2956.74951	3023.1125
2959.20498	3020.8125
2961.65895	3017.1125
2964.11142	2997.2125
2966.56239	3007.2125
2969.01186	3005.2125
2971.45984	2998.1125
2973.90632	2989.3125
2976.35131	2993.6125
2978.7948	2989.3125
2981.23681	2979.1125
2983.67732	2982.2125
2986.11635	2960.7125
2988.55388	2941.6125
2990.98993	2943.6125
2993.4245	2932.1125
2995.85758	2919.8125
2998.28917	2925.2125
3000.71928	2906.7125
3003.14791	2910.4125
3005.57506	2880.4125
3008.00073	2868.2125
3010.42493	2808.9125
3012.84764	2876.3125
3015.26888	2886.8125
3017.68865	2863.1125
3020.10694	2826.4125
3022.52376	2830.7125
3024.9391	2824.5125
3027.35298	2804.3125
3029.76539	2805.1125
3032.17632	2804.8125
3034.5858	2801.8125
3036.9938	2800.7125
3039.40034	2793.4125
3041.80542	2787.9125
3044.20903	2770.5125
3046.61118	2760.9125
3049.01187	2771.6125
3051.4111	2749.8125
3053.80888	2752.9125
3056.20519	2752.5125
3058.60005	2715.5125
3060.99345	2742.6125
3063.3854	2728.9125
3065.7759	2711.4125
3068.16494	2683.4125
3070.55254	2686.1125
3072.93868	2692.1125
3075.32338	2688.8125
3077.70662	2678.8125
3080.08842	2656.9125
3082.46878	2650.5125
3084.84769	2677.5125
3087.22515	2643.9125
3089.60118	2663.6125
3091.97576	2637.0125
3094.3489	2662.1125
3096.72061	2648.5125
3099.09087	2631.0125
3101.4597	2648.1125
3103.82709	2626.6125
3106.19305	2624.8125
3108.55757	2629.2125
3110.92066	2608.9125
3113.28232	2615.5125
3115.64255	2604.2125
3118.00134	2612.7125
3120.35871	2594.6125
3122.71466	2582.9125
3125.06917	2584.6125
3127.42226	2557.4125
3129.77393	2554.1125
3132.12417	2564.0125
3134.47299	2573.4125
3136.82039	2543.6125
3139.16636	2525.9125
3141.51092	2540.7125
3143.85406	2551.7125
3146.19579	2531.0125
3148.53609	2529.9125
3150.87499	2532.4125
3153.21246	2529.9125
3155.54853	2516.5125
3157.88318	2533.5125
3160.21642	2536.4125
3162.54826	2529.6125
3164.87868	2524.3125
3167.2077	2486.6125
3169.5353	2509.3125
3171.86151	2521.1125
3174.18631	2506.5125
3176.5097	2502.0125
3178.83169	2502.9125
3181.15228	2504.5125
3183.47147	2484.0125
3185.78926	2453.5125
3188.10565	2467.8125
3190.42065	2444.3125
3192.73424	2463.3125
3195.04645	2450.7125
3197.35725	2434.5125
3199.66667	2436.0125
3201.97469	2433.0125
3204.28132	2425.4125
3206.58656	2442.8125
3208.8904	2437.2125
3211.19287	2438.6125
3213.49394	2429.3125
3215.79363	2417.0125
3218.09193	2436.0125
3220.38884	2424.9125
3222.68438	2421.6125
3224.97853	2408.6125
3227.2713	2430.9125
3229.56269	2401.9125
3231.8527	2404.0125
3234.14133	2388.8125
3236.42858	2398.0125
3238.71446	2355.8125
3240.99896	2384.2125
3243.28209	2365.5125
3245.56384	2373.3125
3247.84423	2353.4125
3250.12324	2358.3125
3252.40088	2367.5125
3254.67715	2344.9125
3256.95205	2344.8125
3259.22558	2354.5125
3261.49775	2357.3125
3263.76855	2349.5125
3266.03799	2343.6125
3268.30606	2352.2125
3270.57277	2335.9125
3272.83812	2311.7125
3275.10211	2328.5125
3277.36474	2321.5125
3279.62601	2323.4125
3281.88593	2288.9125
3284.14448	2274.7125
3286.40168	2306.2125
3288.65753	2286.4125
3290.91202	2289.3125
3293.16516	2275.7125
3295.41695	2287.3125
3297.66738	2283.6125
3299.91647	2256.3125
3302.16421	2255.6125
3304.4106	2216.9125
3306.65564	2234.3125
3308.89933	2204.5125
3311.14169	2184.2125
3313.38269	2186.5125
3315.62236	2153.9125
3317.86068	2145.9125
3320.09766	2150.1125
3322.3333	2094.7125
3324.5676	2086.4125
3326.80056	2053.0125
3329.03219	2060.8125
3331.26248	-0.3875
3333.49143	-0.0875
3335.71905	0.1125
