Data from AgNPs_UA_10uM_CRN_500uM_SU_RamanShift__17__13-08-10-257.txt Node

Date: Thu Aug 04 13:08:10 BST 2022
User: TCL
Spectrometer: QEP01345
Trigger mode: 4
Integration Time (sec): 1.000000E0
Scans to average: 10
Electric dark correction enabled: true
Nonlinearity correction enabled: false
Boxcar width: 0
XAxis mode: Raman Shifts
Number of Pixels in Spectrum: 1044
>>>>>Begin Spectral Data<<<<<
46.04893	0.1375
50.45542	-1.0625
54.85868	1.1375
59.25871	0.2375
63.6555	18.9375
68.04907	18.2375
72.43941	19.9375
76.82654	19.9375
81.21044	19.3375
85.59113	19.8375
89.96862	21.6375
94.34289	21.5375
98.71396	22.9375
103.08183	25.5375
107.4465	24.5375
111.80798	25.9375
116.16626	25.3375
120.52136	27.0375
124.87327	30.2375
129.222	29.9375
133.56755	32.5375
137.90993	32.7375
142.24913	39.2375
146.58517	44.9375
150.91804	51.7375
155.24774	65.0375
159.57429	78.6375
163.89768	105.6375
168.21792	138.9375
172.53501	189.4375
176.84895	271.2375
181.15975	385.9375
185.46741	551.7375
189.77193	763.8375
194.07331	1024.1375
198.37157	1321.3375
202.6667	1641.1375
206.9587	1966.7375
211.24758	2274.1375
215.53334	2597.5375
219.81599	2946.8375
224.09553	3349.4375
228.37195	3774.2375
232.64527	4231.1375
236.91549	4680.9375
241.18261	5074.2375
245.44663	5389.6375
249.70755	5629.6375
253.96539	5836.2375
258.22014	6019.4375
262.4718	6153.3375
266.72039	6261.2375
270.96589	6269.7375
275.20832	6214.2375
279.44768	6122.6375
283.68397	6021.9375
287.91719	5965.4375
292.14735	5984.2375
296.37445	6091.0375
300.59849	6287.2375
304.81948	6537.0375
309.03742	6812.3375
313.25231	6983.9375
317.46415	6929.1375
321.67296	6641.3375
325.87872	6361.0375
330.08145	6192.4375
334.28114	6175.6375
338.47781	6234.5375
342.67145	6356.4375
346.86207	6558.0375
351.04966	6848.0375
355.23424	7139.9375
359.4158	7352.8375
363.59435	7396.4375
367.76989	7381.7375
371.94243	7339.1375
376.11196	7284.1375
380.27849	7282.8375
384.44203	7291.1375
388.60257	7306.7375
392.76012	7359.1375
396.91468	7452.9375
401.06626	7576.6375
405.21485	7605.2375
409.36047	7507.4375
413.50311	7265.5375
417.64277	7048.6375
421.77947	6900.1375
425.9132	6809.8375
430.04396	6796.0375
434.17176	6835.9375
438.2966	6883.0375
442.41849	6996.9375
446.53742	7151.3375
450.6534	7265.2375
454.76644	7375.9375
458.87653	7439.2375
462.98368	7417.1375
467.08789	7391.2375
471.18916	7262.9375
475.2875	7119.2375
479.38291	6980.3375
483.4754	6874.5375
487.56496	6832.1375
491.6516	6818.5375
495.73531	6818.2375
499.81612	6863.7375
503.89401	6940.8375
507.96899	6949.6375
512.04106	7013.9375
516.11023	7071.6375
520.1765	7114.4375
524.23987	7129.3375
528.30034	7111.7375
532.35792	7090.6375
536.41261	7027.8375
540.46441	6960.6375
544.51333	6949.7375
548.55936	6968.6375
552.60252	7090.2375
556.64279	7197.9375
560.6802	7292.8375
564.71473	7416.1375
568.7464	7509.6375
572.7752	7461.5375
576.80114	7210.6375
580.82422	7033.6375
584.84444	6982.1375
588.86181	6959.8375
592.87633	6976.7375
596.888	7100.9375
600.89682	7447.6375
604.9028	8362.5375
608.90594	10250.0375
612.90624	12130.8375
616.90371	11185.6375
620.89834	8623.9375
624.89015	7543.8375
628.87913	7429.8375
632.86528	7596.4375
636.84862	7698.3375
640.82913	7504.9375
644.80683	7221.8375
648.78172	7043.3375
652.75379	7061.4375
656.72306	7260.7375
660.68952	7517.0375
664.65319	7473.8375
668.61405	7319.0375
672.57211	7383.9375
676.52738	7369.6375
680.47986	7197.0375
684.42955	7028.0375
688.37646	6980.7375
692.32058	7027.8375
696.26192	7168.1375
700.20048	7303.2375
704.13626	7323.3375
708.06928	7259.4375
711.99952	7162.7375
715.927	7156.8375
719.85171	7197.6375
723.77365	7222.0375
727.69284	7175.4375
731.60928	7111.7375
735.52295	7122.2375
739.43388	7147.3375
743.34206	7166.4375
747.24749	7153.0375
751.15017	7180.9375
755.05012	7237.0375
758.94733	7522.8375
762.8418	8278.0375
766.73354	9306.4375
770.62254	10110.9375
774.50882	10242.1375
778.39237	9891.0375
782.27321	9214.9375
786.15132	8357.7375
790.02671	7760.7375
793.89938	7442.0375
797.76935	7275.6375
801.6366	7194.2375
805.50115	7140.3375
809.36299	7096.4375
813.22213	7105.1375
817.07857	7140.2375
820.93231	7112.6375
824.78336	7104.3375
828.63172	7142.7375
832.47738	7138.8375
836.32036	7106.6375
840.16066	7096.0375
843.99827	7093.7375
847.8332	7099.6375
851.66546	7107.0375
855.49504	7113.5375
859.32195	7131.1375
863.1462	7123.4375
866.96777	7110.1375
870.78668	7119.9375
874.60293	7137.2375
878.41652	7174.8375
882.22745	7238.0375
886.03573	7263.3375
889.84136	7267.4375
893.64433	7246.7375
897.44466	7222.9375
901.24235	7223.2375
905.0374	7211.9375
908.8298	7161.2375
912.61957	7154.3375
916.40671	7154.3375
920.19121	7172.2375
923.97308	7211.1375
927.75233	7296.4375
931.52895	7353.7375
935.30295	7283.4375
939.07433	7154.9375
942.84309	7095.1375
946.60924	7073.2375
950.37278	7042.1375
954.13371	7039.0375
957.89203	7025.6375
961.64774	7026.3375
965.40086	7037.5375
969.15137	7018.9375
972.89929	7010.4375
976.64461	7017.7375
980.38733	7016.8375
984.12747	7028.7375
987.86502	7063.9375
991.59999	7099.0375
995.33237	7152.3375
999.06217	7189.4375
1002.78939	7276.7375
1006.51404	7423.5375
1010.23611	7538.7375
1013.95561	7600.6375
1017.67255	7627.5375
1021.38692	7606.3375
1025.09872	7548.8375
1028.80796	7479.7375
1032.51465	7457.1375
1036.21877	7461.8375
1039.92035	7477.0375
1043.61937	7526.1375
1047.31584	7568.0375
1051.00976	7604.4375
1054.70114	7597.8375
1058.38998	7619.9375
1062.07627	7664.9375
1065.76003	7707.1375
1069.44126	7781.1375
1073.11995	7933.7375
1076.79611	8130.1375
1080.46974	8229.7375
1084.14085	8326.6375
1087.80943	8425.1375
1091.47549	8461.7375
1095.13903	8456.7375
1098.80005	8472.1375
1102.45857	8557.6375
1106.11456	8524.8375
1109.76805	8402.3375
1113.41903	8367.3375
1117.06751	8455.1375
1120.71348	8647.8375
1124.35696	8824.4375
1127.99793	8992.9375
1131.63641	8827.1375
1135.2724	8503.3375
1138.90589	8263.3375
1142.5369	8142.3375
1146.16542	8080.7375
1149.79145	7976.2375
1153.415	7924.6375
1157.03607	7907.0375
1160.65467	7977.9375
1164.27079	8156.3375
1167.88443	8403.4375
1171.49561	8785.3375
1175.10432	9384.2375
1178.71056	10134.9375
1182.31434	10791.2375
1185.91565	11043.9375
1189.51451	11036.9375
1193.11091	10917.8375
1196.70485	10746.1375
1200.29634	10537.8375
1203.88538	10215.6375
1207.47197	9836.3375
1211.05612	9396.9375
1214.63782	9015.5375
1218.21708	8739.7375
1221.79391	8559.7375
1225.36829	8473.3375
1228.94024	8464.8375
1232.50976	8492.1375
1236.07685	8520.4375
1239.6415	8564.8375
1243.20374	8614.7375
1246.76355	8642.6375
1250.32093	8728.6375
1253.8759	8845.2375
1257.42845	9068.4375
1260.97859	9326.9375
1264.52631	9562.1375
1268.07163	9726.7375
1271.61453	9841.9375
1275.15503	9830.1375
1278.69312	9791.5375
1282.22882	9804.0375
1285.76211	9902.8375
1289.29301	10079.6375
1292.82151	10286.3375
1296.34761	10481.9375
1299.87133	10791.2375
1303.39266	11373.9375
1306.9116	12279.0375
1310.42815	13236.7375
1313.94233	13613.9375
1317.45412	13132.1375
1320.96354	12318.2375
1324.47058	11624.4375
1327.97525	11013.9375
1331.47754	10622.6375
1334.97747	10507.8375
1338.47502	10652.7375
1341.97022	11000.2375
1345.46305	11732.8375
1348.95352	12799.0375
1352.44163	13985.6375
1355.92738	15148.1375
1359.41078	16393.6375
1362.89183	17267.5375
1366.37053	16397.7375
1369.84688	13990.1375
1373.32088	11849.7375
1376.79254	10675.9375
1380.26186	10085.8375
1383.72883	9726.8375
1387.19347	9356.2375
1390.65578	9071.4375
1394.11575	8804.8375
1397.57339	8604.2375
1401.0287	8512.7375
1404.48168	8517.2375
1407.93234	8562.3375
1411.38068	8669.7375
1414.82669	8832.0375
1418.27039	8890.0375
1421.71177	8879.5375
1425.15083	8798.5375
1428.58758	8687.2375
1432.02203	8664.2375
1435.45416	8678.6375
1438.88399	8649.9375
1442.31151	8640.7375
1445.73673	8666.3375
1449.15965	8709.3375
1452.58027	8719.4375
1455.9986	8704.9375
1459.41463	8690.9375
1462.82837	8776.7375
1466.23982	8955.4375
1469.64898	9149.0375
1473.05586	9267.8375
1476.46045	9388.3375
1479.86276	9529.7375
1483.26279	9635.0375
1486.66054	9821.2375
1490.05602	10131.4375
1493.44922	10653.7375
1496.84016	11432.5375
1500.22882	12546.4375
1503.61521	13890.3375
1506.99934	15200.6375
1510.38121	16000.4375
1513.76081	15831.5375
1517.13816	14588.8375
1520.51324	12973.3375
1523.88607	11617.9375
1527.25665	10812.3375
1530.62498	10401.0375
1533.99105	10208.2375
1537.35488	10099.1375
1540.71647	10005.6375
1544.07581	9890.0375
1547.4329	9753.6375
1550.78776	9622.3375
1554.14038	9524.4375
1557.49077	9518.7375
1560.83892	9613.8375
1564.18484	9845.0375
1567.52853	10149.9375
1570.86999	10321.9375
1574.20922	10396.7375
1577.54624	10280.9375
1580.88103	9849.1375
1584.2136	9299.1375
1587.54395	9020.0375
1590.87208	8981.7375
1594.19801	9196.5375
1597.52172	9531.4375
1600.84321	9681.3375
1604.16251	9572.3375
1607.47959	9426.6375
1610.79447	9211.1375
1614.10715	8887.5375
1617.41763	8530.8375
1620.7259	8244.1375
1624.03199	8073.1375
1627.33587	8009.0375
1630.63757	8055.3375
1633.93707	8317.7375
1637.23439	8745.3375
1640.52951	9485.0375
1643.82246	10541.0375
1647.11321	11615.7375
1650.40179	12177.9375
1653.68819	11669.4375
1656.97241	10386.2375
1660.25446	9105.9375
1663.53433	8184.5375
1666.81203	7638.4375
1670.08756	7317.0375
1673.36092	7111.5375
1676.63211	7012.3375
1679.90115	6895.6375
1683.16801	6822.5375
1686.43272	6774.0375
1689.69527	6723.5375
1692.95567	6706.6375
1696.2139	6662.0375
1699.46999	6635.5375
1702.72392	6607.1375
1705.97571	6613.6375
1709.22535	6631.6375
1712.47284	6607.0375
1715.71819	6625.5375
1718.96139	6619.7375
1722.20246	6608.7375
1725.44139	6587.5375
1728.67818	6532.0375
1731.91284	6514.2375
1735.14537	6455.1375
1738.37576	6449.3375
1741.60403	6405.5375
1744.83017	6410.4375
1748.05418	6374.9375
1751.27607	6357.3375
1754.49584	6362.2375
1757.71349	6350.7375
1760.92903	6352.0375
1764.14244	6302.2375
1767.35375	6275.3375
1770.56294	6290.5375
1773.77002	6266.7375
1776.97499	6267.5375
1780.17785	6221.5375
1783.37861	6209.6375
1786.57727	6208.8375
1789.77382	6195.6375
1792.96828	6183.3375
1796.16064	6184.1375
1799.3509	6162.9375
1802.53907	6156.6375
1805.72514	6144.2375
1808.90913	6133.5375
1812.09102	6121.9375
1815.27083	6086.5375
1818.44856	6077.6375
1821.6242	6064.9375
1824.79776	6043.3375
1827.96924	6042.8375
1831.13864	6025.0375
1834.30597	6010.1375
1837.47122	5977.5375
1840.6344	5995.7375
1843.7955	5983.7375
1846.95454	6001.5375
1850.11151	5968.3375
1853.26642	5978.0375
1856.41926	5953.5375
1859.57004	5956.6375
1862.71876	5975.0375
1865.86542	5949.1375
1869.01003	5944.0375
1872.15258	5929.6375
1875.29308	5922.1375
1878.43152	5902.3375
1881.56792	5915.3375
1884.70227	5892.8375
1887.83457	5887.8375
1890.96482	5874.9375
1894.09304	5843.8375
1897.21921	5838.9375
1900.34335	5852.9375
1903.46544	5828.9375
1906.58551	5832.2375
1909.70353	5815.0375
1912.81953	5804.6375
1915.93349	5809.7375
1919.04543	5770.9375
1922.15534	5780.2375
1925.26322	5761.6375
1928.36908	5739.8375
1931.47292	5725.7375
1934.57473	5728.7375
1937.67453	5701.6375
1940.77232	5683.9375
1943.86808	5675.8375
1946.96184	5650.7375
1950.05358	5642.4375
1953.14331	5634.4375
1956.23103	5605.7375
1959.31675	5592.8375
1962.40046	5575.3375
1965.48217	5532.8375
1968.56188	5547.3375
1971.63959	5523.8375
1974.7153	5510.6375
1977.78901	5523.5375
1980.86073	5475.5375
1983.93046	5462.9375
1986.99819	5434.2375
1990.06394	5423.4375
1993.1277	5409.4375
1996.18947	5368.5375
1999.24925	5353.5375
2002.30706	5330.0375
2005.36288	5294.1375
2008.41672	5292.4375
2011.46859	5276.5375
2014.51848	5268.3375
2017.56639	5234.7375
2020.61233	5242.9375
2023.6563	5200.1375
2026.6983	5201.0375
2029.73833	5180.2375
2032.7764	5175.1375
2035.8125	5149.7375
2038.84664	5138.2375
2041.87881	5123.0375
2044.90903	5114.6375
2047.93729	5100.4375
2050.96359	5096.5375
2053.98794	5100.5375
2057.01034	5096.6375
2060.03078	5072.3375
2063.04927	5058.5375
2066.06582	5055.0375
2069.08042	5046.8375
2072.09307	5039.7375
2075.10378	5045.9375
2078.11255	5022.1375
2081.11938	5028.2375
2084.12426	5014.1375
2087.12722	5014.4375
2090.12824	5018.9375
2093.12732	5016.5375
2096.12447	5002.9375
2099.11969	5033.9375
2102.11299	5025.1375
2105.10435	5011.2375
2108.09379	5011.5375
2111.08131	5009.0375
2114.0669	5014.4375
2117.05057	5021.0375
2120.03233	5026.3375
2123.01216	5003.9375
2125.99008	5018.3375
2128.96609	5028.1375
2131.94018	5041.5375
2134.91236	5015.8375
2137.88263	5019.0375
2140.851	5025.9375
2143.81746	5024.0375
2146.78201	5015.5375
2149.74466	5023.5375
2152.7054	5002.0375
2155.66425	5006.1375
2158.6212	5003.8375
2161.57625	4986.1375
2164.52941	4995.5375
2167.48067	4988.6375
2170.43004	4981.6375
2173.37752	4972.8375
2176.32311	4992.8375
2179.26681	4973.4375
2182.20863	4976.5375
2185.14856	4965.4375
2188.08661	4983.0375
2191.02278	4960.1375
2193.95707	4990.4375
2196.88948	4969.1375
2199.82001	4956.7375
2202.74867	4939.0375
2205.67545	4949.8375
2208.60037	4944.0375
2211.52341	4926.2375
2214.44458	4910.3375
2217.36388	4882.8375
2220.28132	4875.4375
2223.1969	4856.2375
2226.11061	4847.0375
2229.02246	4826.1375
2231.93245	4827.2375
2234.84058	4816.8375
2237.74686	4806.2375
2240.65128	4816.2375
2243.55385	4800.3375
2246.45456	4784.2375
2249.35343	4771.5375
2252.25044	4783.3375
2255.14561	4765.8375
2258.03893	4772.7375
2260.93041	4764.0375
2263.82004	4756.6375
2266.70783	4749.4375
2269.59378	4730.1375
2272.4779	4719.0375
2275.36017	4697.4375
2278.24061	4686.9375
2281.11922	4672.8375
2283.996	4667.0375
2286.87094	4654.5375
2289.74405	4666.0375
2292.61534	4650.2375
2295.4848	4626.2375
2298.35243	4623.3375
2301.21824	4617.6375
2304.08223	4612.6375
2306.94439	4594.5375
2309.80474	4600.1375
2312.66327	4604.0375
2315.51999	4595.9375
2318.37489	4588.6375
2321.22797	4557.1375
2324.07925	4550.4375
2326.92871	4555.4375
2329.77637	4531.1375
2332.62222	4518.9375
2335.46626	4527.8375
2338.3085	4510.1375
2341.14893	4507.7375
2343.98756	4518.2375
2346.8244	4503.1375
2349.65943	4487.9375
2352.49267	4486.2375
2355.32411	4486.6375
2358.15376	4476.5375
2360.98161	4496.6375
2363.80768	4482.5375
2366.63195	4478.0375
2369.45444	4479.2375
2372.27514	4477.9375
2375.09405	4474.0375
2377.91118	4462.0375
2380.72652	4442.4375
2383.54009	4436.4375
2386.35187	4431.1375
2389.16188	4419.7375
2391.97011	4412.3375
2394.77657	4380.6375
2397.58125	4382.0375
2400.38416	4369.6375
2403.18529	4352.5375
2405.98466	4346.4375
2408.78226	4340.8375
2411.57809	4334.8375
2414.37216	4311.0375
2417.16446	4301.5375
2419.955	4315.3375
2422.74378	4305.2375
2425.5308	4296.5375
2428.31606	4303.9375
2431.09956	4307.4375
2433.88131	4291.1375
2436.6613	4274.7375
2439.43954	4275.3375
2442.21603	4270.3375
2444.99077	4270.0375
2447.76377	4274.1375
2450.53501	4262.1375
2453.30451	4264.3375
2456.07226	4260.0375
2458.83827	4256.9375
2461.60254	4231.2375
2464.36507	4233.7375
2467.12586	4216.2375
2469.88492	4223.2375
2472.64224	4213.2375
2475.39782	4215.4375
2478.15167	4221.7375
2480.90379	4202.3375
2483.65417	4209.1375
2486.40283	4195.6375
2489.14976	4219.5375
2491.89497	4192.9375
2494.63845	4216.2375
2497.3802	4184.6375
2500.12024	4179.3375
2502.85855	4163.9375
2505.59514	4167.7375
2508.33002	4169.6375
2511.06318	4141.6375
2513.79462	4142.9375
2516.52435	4134.2375
2519.25237	4118.1375
2521.97867	4107.1375
2524.70327	4094.5375
2527.42616	4098.0375
2530.14734	4078.6375
2532.86681	4074.3375
2535.58458	4079.3375
2538.30065	4072.7375
2541.01501	4079.3375
2543.72768	4048.0375
2546.43864	4056.9375
2549.14791	4044.4375
2551.85548	4047.7375
2554.56136	4038.6375
2557.26554	4037.2375
2559.96803	4016.9375
2562.66883	4001.1375
2565.36794	4000.8375
2568.06536	3983.3375
2570.7611	3972.5375
2573.45514	3956.1375
2576.14751	3968.3375
2578.83819	3971.2375
2581.52719	3951.6375
2584.21451	3939.1375
2586.90015	3934.2375
2589.58411	3916.9375
2592.2664	3924.5375
2594.94701	3904.7375
2597.62594	3899.7375
2600.30321	3894.2375
2602.9788	3895.7375
2605.65273	3902.9375
2608.32498	3876.6375
2610.99557	3869.2375
2613.66449	3864.7375
2616.33175	3851.4375
2618.99734	3855.3375
2621.66128	3845.0375
2624.32355	3835.1375
2626.98416	3818.1375
2629.64311	3810.0375
2632.30041	3809.1375
2634.95605	3801.6375
2637.61004	3788.6375
2640.26238	3774.6375
2642.91306	3791.6375
2645.56209	3759.6375
2648.20948	3763.0375
2650.85521	3761.1375
2653.4993	3748.4375
2656.14175	3766.1375
2658.78255	3760.8375
2661.42171	3733.4375
2664.05923	3759.2375
2666.6951	3758.9375
2669.32934	3757.1375
2671.96194	3759.4375
2674.59291	3762.9375
2677.22224	3764.8375
2679.84993	3773.0375
2682.476	3752.3375
2685.10043	3747.0375
2687.72324	3750.9375
2690.34441	3751.2375
2692.96396	3745.6375
2695.58188	3750.9375
2698.19818	3733.8375
2700.81285	3723.2375
2703.4259	3719.1375
2706.03733	3732.0375
2708.64714	3720.2375
2711.25533	3720.0375
2713.86191	3731.0375
2716.46687	3728.4375
2719.07021	3717.4375
2721.67194	3713.4375
2724.27206	3723.7375
2726.87057	3723.1375
2729.46747	3719.9375
2732.06276	3717.6375
2734.65644	3708.5375
2737.24852	3705.8375
2739.83899	3696.8375
2742.42786	3688.9375
2745.01513	3676.6375
2747.60079	3664.0375
2750.18486	3664.7375
2752.76733	3674.0375
2755.3482	3650.0375
2757.92747	3636.0375
2760.50515	3639.6375
2763.08123	3635.8375
2765.65573	3630.4375
2768.22863	3612.8375
2770.79994	3610.4375
2773.36967	3596.6375
2775.9378	3584.9375
2778.50435	3592.6375
2781.06932	3587.5375
2783.6327	3587.7375
2786.1945	3580.4375
2788.75471	3578.6375
2791.31335	3562.2375
2793.87041	3551.2375
2796.42589	3543.3375
2798.97979	3519.9375
2801.53212	3525.7375
2804.08288	3517.8375
2806.63206	3512.2375
2809.17967	3514.8375
2811.72571	3521.9375
2814.27018	3506.9375
2816.81308	3475.4375
2819.35442	3491.9375
2821.89419	3485.8375
2824.43239	3466.4375
2826.96904	3476.1375
2829.50412	3470.6375
2832.03763	3448.1375
2834.56959	3443.0375
2837.1	3426.8375
2839.62884	3419.7375
2842.15613	3425.2375
2844.68186	3428.5375
2847.20604	3421.7375
2849.72867	3430.3375
2852.24974	3400.1375
2854.76927	3390.0375
2857.28724	3392.8375
2859.80367	3370.9375
2862.31855	3392.3375
2864.83189	3381.8375
2867.34368	3373.2375
2869.85393	3365.3375
2872.36264	3370.8375
2874.8698	3364.3375
2877.37543	3363.0375
2879.87952	3360.3375
2882.38207	3340.1375
2884.88308	3337.6375
2887.38256	3349.1375
2889.88051	3343.3375
2892.37692	3326.4375
2894.8718	3332.9375
2897.36515	3329.5375
2899.85698	3319.5375
2902.34727	3333.4375
2904.83604	3337.0375
2907.32328	3340.8375
2909.809	3326.8375
2912.29319	3339.1375
2914.77587	3344.3375
2917.25702	3340.0375
2919.73665	3354.5375
2922.21476	3345.4375
2924.69136	3325.7375
2927.16644	3337.6375
2929.64	3318.4375
2932.11205	3306.1375
2934.58258	3285.7375
2937.05161	3296.8375
2939.51912	3298.6375
2941.98513	3289.2375
2944.44962	3288.5375
2946.91261	3266.3375
2949.37409	3266.7375
2951.83407	3267.6375
2954.29254	3260.2375
2956.74951	3256.8375
2959.20498	3269.3375
2961.65895	3261.0375
2964.11142	3255.2375
2966.56239	3244.6375
2969.01186	3243.3375
2971.45984	3244.3375
2973.90632	3234.6375
2976.35131	3230.2375
2978.7948	3226.9375
2981.23681	3223.9375
2983.67732	3217.8375
2986.11635	3194.8375
2988.55388	3199.7375
2990.98993	3184.0375
2993.4245	3178.9375
2995.85758	3178.7375
2998.28917	3165.5375
3000.71928	3154.9375
3003.14791	3154.2375
3005.57506	3133.1375
3008.00073	3112.9375
3010.42493	3113.9375
3012.84764	3122.8375
3015.26888	3112.0375
3017.68865	3118.4375
3020.10694	3092.4375
3022.52376	3090.5375
3024.9391	3057.0375
3027.35298	3069.0375
3029.76539	3052.4375
3032.17632	3051.7375
3034.5858	3039.5375
3036.9938	3048.1375
3039.40034	3021.3375
3041.80542	3014.1375
3044.20903	3013.9375
3046.61118	3015.1375
3049.01187	2991.4375
3051.4111	2987.8375
3053.80888	2986.6375
3056.20519	2976.0375
3058.60005	2970.1375
3060.99345	2979.6375
3063.3854	2961.3375
3065.7759	2945.1375
3068.16494	2938.5375
3070.55254	2943.8375
3072.93868	2924.0375
3075.32338	2920.6375
3077.70662	2907.3375
3080.08842	2906.4375
3082.46878	2890.8375
3084.84769	2885.5375
3087.22515	2876.7375
3089.60118	2874.7375
3091.97576	2876.1375
3094.3489	2865.7375
3096.72061	2870.9375
3099.09087	2859.4375
3101.4597	2863.9375
3103.82709	2860.6375
3106.19305	2856.0375
3108.55757	2856.6375
3110.92066	2831.4375
3113.28232	2835.7375
3115.64255	2825.3375
3118.00134	2826.5375
3120.35871	2817.8375
3122.71466	2820.0375
3125.06917	2803.9375
3127.42226	2791.0375
3129.77393	2789.5375
3132.12417	2788.9375
3134.47299	2776.9375
3136.82039	2779.0375
3139.16636	2778.1375
3141.51092	2778.6375
3143.85406	2772.8375
3146.19579	2770.3375
3148.53609	2769.0375
3150.87499	2767.3375
3153.21246	2751.3375
3155.54853	2770.7375
3157.88318	2758.9375
3160.21642	2760.2375
3162.54826	2750.2375
3164.87868	2761.1375
3167.2077	2745.3375
3169.5353	2741.5375
3171.86151	2727.3375
3174.18631	2728.4375
3176.5097	2713.9375
3178.83169	2707.7375
3181.15228	2717.0375
3183.47147	2697.0375
3185.78926	2703.0375
3188.10565	2685.8375
3190.42065	2674.2375
3192.73424	2680.6375
3195.04645	2666.2375
3197.35725	2672.2375
3199.66667	2667.3375
3201.97469	2655.2375
3204.28132	2661.8375
3206.58656	2668.2375
3208.8904	2658.4375
3211.19287	2666.4375
3213.49394	2661.4375
3215.79363	2665.5375
3218.09193	2661.6375
3220.38884	2654.7375
3222.68438	2656.6375
3224.97853	2646.8375
3227.2713	2654.2375
3229.56269	2630.9375
3231.8527	2640.6375
3234.14133	2632.2375
3236.42858	2621.9375
3238.71446	2610.7375
3240.99896	2602.1375
3243.28209	2602.5375
3245.56384	2594.7375
3247.84423	2572.4375
3250.12324	2578.7375
3252.40088	2581.6375
3254.67715	2569.8375
3256.95205	2574.7375
3259.22558	2566.0375
3261.49775	2561.5375
3263.76855	2568.7375
3266.03799	2573.2375
3268.30606	2563.9375
3270.57277	2561.8375
3272.83812	2564.7375
3275.10211	2531.0375
3277.36474	2539.1375
3279.62601	2535.1375
3281.88593	2525.2375
3284.14448	2516.7375
3286.40168	2525.2375
3288.65753	2502.5375
3290.91202	2510.3375
3293.16516	2509.7375
3295.41695	2499.7375
3297.66738	2499.8375
3299.91647	2491.7375
3302.16421	2464.7375
3304.4106	2455.8375
3306.65564	2434.0375
3308.89933	2424.0375
3311.14169	2391.3375
3313.38269	2366.7375
3315.62236	2356.4375
3317.86068	2337.9375
3320.09766	2327.0375
3322.3333	2306.7375
3324.5676	2289.7375
3326.80056	2246.7375
3329.03219	2240.6375
3331.26248	0.4375
3333.49143	-1.6625
3335.71905	-0.0625
