Data from AgNPs_UA_5uM_CRN_500uM_SU_RamanShift__227__12-07-13-185.txt Node

Date: Thu Aug 04 12:07:13 BST 2022
User: TCL
Spectrometer: QEP01345
Trigger mode: 4
Integration Time (sec): 1.000000E0
Scans to average: 10
Electric dark correction enabled: true
Nonlinearity correction enabled: false
Boxcar width: 0
XAxis mode: Raman Shifts
Number of Pixels in Spectrum: 1044
>>>>>Begin Spectral Data<<<<<
46.04893	0.2875
50.45542	0.5875
54.85868	0.5875
59.25871	-2.0125
63.6555	-57.8125
68.04907	-39.6125
72.43941	-72.7125
76.82654	-58.0125
81.21044	-56.9125
85.59113	-49.7125
89.96862	-74.7125
94.34289	-56.2125
98.71396	-76.3125
103.08183	-57.5125
107.4465	-50.9125
111.80798	-59.2125
116.16626	-44.9125
120.52136	-76.0125
124.87327	-50.0125
129.222	-61.8125
133.56755	-51.9125
137.90993	-62.0125
142.24913	-50.4125
146.58517	-43.2125
150.91804	-41.5125
155.24774	-29.6125
159.57429	-10.0125
163.89768	-6.5125
168.21792	35.9875
172.53501	59.1875
176.84895	136.9875
181.15975	264.1875
185.46741	416.2875
189.77193	595.1875
194.07331	874.3875
198.37157	1154.7875
202.6667	1433.8875
206.9587	1753.9875
211.24758	2054.4875
215.53334	2377.7875
219.81599	2734.2875
224.09553	3129.4875
228.37195	3554.5875
232.64527	4016.1875
236.91549	4483.8875
241.18261	4835.5875
245.44663	5102.1875
249.70755	5266.3875
253.96539	5381.3875
258.22014	5499.1875
262.4718	5570.7875
266.72039	5614.8875
270.96589	5576.1875
275.20832	5478.6875
279.44768	5375.5875
283.68397	5247.1875
287.91719	5222.4875
292.14735	5245.1875
296.37445	5430.6875
300.59849	5694.4875
304.81948	6041.6875
309.03742	6392.1875
313.25231	6660.7875
317.46415	6601.2875
321.67296	6216.8875
325.87872	5823.6875
330.08145	5631.6875
334.28114	5574.3875
338.47781	5627.9875
342.67145	5774.3875
346.86207	5991.1875
351.04966	6369.9875
355.23424	6726.9875
359.4158	7005.1875
363.59435	7059.1875
367.76989	6988.2875
371.94243	6842.1875
376.11196	6733.2875
380.27849	6660.4875
384.44203	6585.7875
388.60257	6547.7875
392.76012	6561.8875
396.91468	6667.8875
401.06626	6824.1875
405.21485	6871.8875
409.36047	6708.6875
413.50311	6381.5875
417.64277	6083.6875
421.77947	5876.8875
425.9132	5812.8875
430.04396	5802.0875
434.17176	5831.2875
438.2966	5930.4875
442.41849	6013.7875
446.53742	6134.8875
450.6534	6224.1875
454.76644	6313.5875
458.87653	6308.0875
462.98368	6264.4875
467.08789	6197.1875
471.18916	6112.0875
475.2875	5985.7875
479.38291	5885.1875
483.4754	5795.4875
487.56496	5751.0875
491.6516	5719.8875
495.73531	5731.0875
499.81612	5756.0875
503.89401	5831.9875
507.96899	5898.0875
512.04106	5977.5875
516.11023	6075.9875
520.1765	6134.7875
524.23987	6194.1875
528.30034	6183.0875
532.35792	6113.2875
536.41261	6053.2875
540.46441	5959.4875
544.51333	5902.2875
548.55936	5956.0875
552.60252	6068.5875
556.64279	6160.2875
560.6802	6305.3875
564.71473	6424.4875
568.7464	6604.2875
572.7752	6590.4875
576.80114	6297.9875
580.82422	6067.5875
584.84444	5966.9875
588.86181	5942.7875
592.87633	5974.0875
596.888	6077.7875
600.89682	6452.4875
604.9028	7420.3875
608.90594	9498.2875
612.90624	11865.9875
616.90371	11018.8875
620.89834	7934.9875
624.89015	6579.9875
628.87913	6373.6875
632.86528	6532.6875
636.84862	6676.8875
640.82913	6564.9875
644.80683	6221.6875
648.78172	6043.4875
652.75379	6036.3875
656.72306	6299.4875
660.68952	6542.7875
664.65319	6450.4875
668.61405	6203.5875
672.57211	6129.7875
676.52738	6145.9875
680.47986	6040.6875
684.42955	5946.5875
688.37646	5895.5875
692.32058	5905.2875
696.26192	5991.0875
700.20048	6054.0875
704.13626	6106.4875
708.06928	6084.3875
711.99952	6051.6875
715.927	6024.8875
719.85171	6053.8875
723.77365	6109.3875
727.69284	6086.3875
731.60928	6054.5875
735.52295	6024.3875
739.43388	6076.8875
743.34206	6094.6875
747.24749	6105.1875
751.15017	6123.9875
755.05012	6210.9875
758.94733	6575.8875
762.8418	7430.6875
766.73354	8778.1875
770.62254	9768.5875
774.50882	9848.5875
778.39237	9328.5875
782.27321	8416.2875
786.15132	7356.2875
790.02671	6674.0875
793.89938	6270.9875
797.76935	6188.0875
801.6366	6079.7875
805.50115	6043.2875
809.36299	6008.8875
813.22213	6024.9875
817.07857	6013.6875
820.93231	6032.4875
824.78336	6040.2875
828.63172	6062.9875
832.47738	6064.2875
836.32036	6063.3875
840.16066	6034.9875
843.99827	6002.3875
847.8332	6003.4875
851.66546	6011.3875
855.49504	6021.6875
859.32195	6050.9875
863.1462	6030.4875
866.96777	6037.0875
870.78668	6010.6875
874.60293	6058.1875
878.41652	6078.0875
882.22745	6149.7875
886.03573	6162.3875
889.84136	6156.2875
893.64433	6181.9875
897.44466	6151.9875
901.24235	6155.5875
905.0374	6129.9875
908.8298	6086.0875
912.61957	6044.1875
916.40671	6007.5875
920.19121	6074.0875
923.97308	6166.8875
927.75233	6208.2875
931.52895	6286.1875
935.30295	6246.2875
939.07433	6110.4875
942.84309	5981.9875
946.60924	5946.0875
950.37278	5905.8875
954.13371	5899.9875
957.89203	5896.2875
961.64774	5925.7875
965.40086	5895.2875
969.15137	5875.1875
972.89929	5919.2875
976.64461	5909.6875
980.38733	5919.3875
984.12747	5909.9875
987.86502	5944.7875
991.59999	5963.3875
995.33237	6026.6875
999.06217	6092.7875
1002.78939	6166.0875
1006.51404	6310.0875
1010.23611	6425.9875
1013.95561	6468.1875
1017.67255	6452.7875
1021.38692	6434.2875
1025.09872	6365.4875
1028.80796	6299.9875
1032.51465	6308.3875
1036.21877	6279.5875
1039.92035	6319.4875
1043.61937	6364.9875
1047.31584	6432.3875
1051.00976	6450.8875
1054.70114	6451.2875
1058.38998	6462.4875
1062.07627	6458.2875
1065.76003	6491.8875
1069.44126	6553.0875
1073.11995	6626.1875
1076.79611	6770.4875
1080.46974	6916.2875
1084.14085	7101.4875
1087.80943	7216.9875
1091.47549	7260.2875
1095.13903	7178.3875
1098.80005	7039.9875
1102.45857	6943.9875
1106.11456	6905.7875
1109.76805	6877.5875
1113.41903	6992.2875
1117.06751	7158.0875
1120.71348	7412.8875
1124.35696	7798.7875
1127.99793	8089.3875
1131.63641	7909.9875
1135.2724	7498.9875
1138.90589	7230.8875
1142.5369	7003.9875
1146.16542	6909.2875
1149.79145	6786.0875
1153.415	6755.5875
1157.03607	6771.2875
1160.65467	6846.7875
1164.27079	7059.0875
1167.88443	7297.0875
1171.49561	7732.9875
1175.10432	8336.3875
1178.71056	9267.4875
1182.31434	10066.1875
1185.91565	10314.2875
1189.51451	10186.5875
1193.11091	9916.3875
1196.70485	9677.6875
1200.29634	9450.5875
1203.88538	9162.5875
1207.47197	8694.5875
1211.05612	8210.9875
1214.63782	7807.8875
1218.21708	7536.4875
1221.79391	7392.3875
1225.36829	7317.5875
1228.94024	7309.1875
1232.50976	7331.7875
1236.07685	7352.3875
1239.6415	7397.1875
1243.20374	7413.2875
1246.76355	7424.8875
1250.32093	7505.6875
1253.8759	7587.3875
1257.42845	7762.0875
1260.97859	7957.0875
1264.52631	8204.9875
1268.07163	8343.9875
1271.61453	8498.9875
1275.15503	8530.0875
1278.69312	8535.6875
1282.22882	8612.1875
1285.76211	8802.7875
1289.29301	9043.8875
1292.82151	9353.6875
1296.34761	9534.0875
1299.87133	9942.2875
1303.39266	10633.6875
1306.9116	11791.8875
1310.42815	13032.0875
1313.94233	13477.1875
1317.45412	12683.1875
1320.96354	11547.8875
1324.47058	10503.4875
1327.97525	9772.9875
1331.47754	9385.9875
1334.97747	9243.9875
1338.47502	9369.0875
1341.97022	9746.8875
1345.46305	10482.2875
1348.95352	11554.8875
1352.44163	12863.8875
1355.92738	14209.5875
1359.41078	15911.2875
1362.89183	17415.0875
1366.37053	16810.4875
1369.84688	13961.7875
1373.32088	11234.2875
1376.79254	9813.1875
1380.26186	9134.0875
1383.72883	8716.9875
1387.19347	8332.2875
1390.65578	7971.1875
1394.11575	7725.8875
1397.57339	7553.3875
1401.0287	7442.7875
1404.48168	7413.6875
1407.93234	7428.1875
1411.38068	7444.9875
1414.82669	7511.7875
1418.27039	7606.1875
1421.71177	7601.6875
1425.15083	7487.8875
1428.58758	7404.8875
1432.02203	7440.4875
1435.45416	7515.1875
1438.88399	7513.7875
1442.31151	7500.5875
1445.73673	7584.2875
1449.15965	7611.6875
1452.58027	7636.5875
1455.9986	7636.1875
1459.41463	7642.7875
1462.82837	7758.5875
1466.23982	7923.4875
1469.64898	8123.2875
1473.05586	8289.0875
1476.46045	8383.0875
1479.86276	8480.3875
1483.26279	8562.5875
1486.66054	8770.5875
1490.05602	9048.3875
1493.44922	9622.4875
1496.84016	10472.5875
1500.22882	11874.1875
1503.61521	13620.9875
1506.99934	15400.5875
1510.38121	16608.7875
1513.76081	16456.6875
1517.13816	14890.6875
1520.51324	12759.7875
1523.88607	11032.1875
1527.25665	10039.3875
1530.62498	9529.8875
1533.99105	9322.2875
1537.35488	9184.7875
1540.71647	9105.3875
1544.07581	8971.0875
1547.4329	8803.1875
1550.78776	8706.7875
1554.14038	8621.4875
1557.49077	8568.0875
1560.83892	8690.4875
1564.18484	8914.1875
1567.52853	9255.0875
1570.86999	9586.9875
1574.20922	9726.7875
1577.54624	9628.0875
1580.88103	9092.6875
1584.2136	8408.4875
1587.54395	8038.6875
1590.87208	7970.8875
1594.19801	8111.6875
1597.52172	8491.7875
1600.84321	8633.1875
1604.16251	8486.4875
1607.47959	8280.8875
1610.79447	8092.1875
1614.10715	7804.4875
1617.41763	7509.5875
1620.7259	7246.1875
1624.03199	7094.0875
1627.33587	7003.2875
1630.63757	7085.9875
1633.93707	7297.5875
1637.23439	7720.4875
1640.52951	8407.7875
1643.82246	9362.0875
1647.11321	10563.4875
1650.40179	11283.2875
1653.68819	11003.1875
1656.97241	9721.5875
1660.25446	8335.7875
1663.53433	7320.2875
1666.81203	6696.2875
1670.08756	6354.7875
1673.36092	6174.7875
1676.63211	6037.7875
1679.90115	5946.6875
1683.16801	5854.7875
1686.43272	5771.5875
1689.69527	5733.7875
1692.95567	5677.7875
1696.2139	5645.7875
1699.46999	5603.5875
1702.72392	5592.9875
1705.97571	5607.8875
1709.22535	5589.4875
1712.47284	5621.5875
1715.71819	5633.8875
1718.96139	5623.0875
1722.20246	5607.3875
1725.44139	5579.1875
1728.67818	5553.0875
1731.91284	5501.3875
1735.14537	5482.1875
1738.37576	5448.1875
1741.60403	5423.3875
1744.83017	5403.3875
1748.05418	5415.5875
1751.27607	5402.4875
1754.49584	5364.0875
1757.71349	5326.0875
1760.92903	5332.1875
1764.14244	5290.4875
1767.35375	5299.2875
1770.56294	5285.3875
1773.77002	5265.1875
1776.97499	5273.8875
1780.17785	5245.9875
1783.37861	5242.0875
1786.57727	5239.8875
1789.77382	5173.9875
1792.96828	5210.0875
1796.16064	5219.7875
1799.3509	5187.0875
1802.53907	5203.6875
1805.72514	5179.6875
1808.90913	5134.7875
1812.09102	5153.5875
1815.27083	5140.7875
1818.44856	5128.2875
1821.6242	5122.7875
1824.79776	5107.7875
1827.96924	5104.8875
1831.13864	5061.3875
1834.30597	5089.7875
1837.47122	5060.9875
1840.6344	5051.7875
1843.7955	5031.6875
1846.95454	5015.6875
1850.11151	5055.2875
1853.26642	5001.8875
1856.41926	5006.5875
1859.57004	5006.7875
1862.71876	5016.5875
1865.86542	5011.9875
1869.01003	5005.4875
1872.15258	4975.5875
1875.29308	4992.8875
1878.43152	5000.2875
1881.56792	4976.2875
1884.70227	4953.5875
1887.83457	4953.9875
1890.96482	4914.5875
1894.09304	4935.4875
1897.21921	4928.3875
1900.34335	4925.9875
1903.46544	4915.0875
1906.58551	4920.6875
1909.70353	4908.8875
1912.81953	4905.6875
1915.93349	4898.3875
1919.04543	4884.5875
1922.15534	4864.3875
1925.26322	4867.7875
1928.36908	4852.1875
1931.47292	4850.2875
1934.57473	4846.5875
1937.67453	4824.0875
1940.77232	4789.0875
1943.86808	4794.9875
1946.96184	4771.3875
1950.05358	4760.0875
1953.14331	4738.9875
1956.23103	4742.5875
1959.31675	4720.4875
1962.40046	4665.3875
1965.48217	4693.6875
1968.56188	4684.7875
1971.63959	4656.5875
1974.7153	4674.2875
1977.78901	4647.2875
1980.86073	4626.2875
1983.93046	4591.3875
1986.99819	4511.3875
1990.06394	4539.1875
1993.1277	4552.6875
1996.18947	4524.9875
1999.24925	4508.3875
2002.30706	4522.3875
2005.36288	4498.3875
2008.41672	4453.9875
2011.46859	4441.8875
2014.51848	4437.3875
2017.56639	4430.6875
2020.61233	4396.9875
2023.6563	4403.4875
2026.6983	4373.1875
2029.73833	4367.7875
2032.7764	4365.1875
2035.8125	4329.3875
2038.84664	4323.0875
2041.87881	4312.7875
2044.90903	4324.7875
2047.93729	4301.9875
2050.96359	4278.9875
2053.98794	4289.9875
2057.01034	4286.3875
2060.03078	4264.9875
2063.04927	4260.2875
2066.06582	4274.3875
2069.08042	4256.6875
2072.09307	4267.1875
2075.10378	4251.5875
2078.11255	4250.8875
2081.11938	4251.8875
2084.12426	4240.6875
2087.12722	4237.8875
2090.12824	4244.5875
2093.12732	4243.7875
2096.12447	4238.8875
2099.11969	4235.6875
2102.11299	4236.0875
2105.10435	4244.1875
2108.09379	4226.1875
2111.08131	4228.7875
2114.0669	4225.7875
2117.05057	4248.1875
2120.03233	4201.5875
2123.01216	4251.3875
2125.99008	4235.6875
2128.96609	4231.3875
2131.94018	4261.7875
2134.91236	4244.6875
2137.88263	4237.3875
2140.851	4250.1875
2143.81746	4257.6875
2146.78201	4257.8875
2149.74466	4229.8875
2152.7054	4245.3875
2155.66425	4231.6875
2158.6212	4238.3875
2161.57625	4198.3875
2164.52941	4177.4875
2167.48067	4194.1875
2170.43004	4200.8875
2173.37752	4209.8875
2176.32311	4196.1875
2179.26681	4202.8875
2182.20863	4203.5875
2185.14856	4190.2875
2188.08661	4186.5875
2191.02278	4184.5875
2193.95707	4183.6875
2196.88948	4166.2875
2199.82001	4175.7875
2202.74867	4159.4875
2205.67545	4165.0875
2208.60037	4184.0875
2211.52341	4155.4875
2214.44458	4145.0875
2217.36388	4139.0875
2220.28132	4107.7875
2223.1969	4089.8875
2226.11061	4097.2875
2229.02246	4090.0875
2231.93245	4094.1875
2234.84058	4065.4875
2237.74686	4055.7875
2240.65128	4057.5875
2243.55385	4057.8875
2246.45456	4011.8875
2249.35343	4041.5875
2252.25044	4030.5875
2255.14561	4032.6875
2258.03893	4024.4875
2260.93041	4033.3875
2263.82004	4027.0875
2266.70783	4018.9875
2269.59378	3981.1875
2272.4779	3966.2875
2275.36017	3980.6875
2278.24061	3959.2875
2281.11922	3924.0875
2283.996	3932.4875
2286.87094	3922.3875
2289.74405	3931.1875
2292.61534	3924.8875
2295.4848	3910.5875
2298.35243	3906.8875
2301.21824	3887.8875
2304.08223	3880.1875
2306.94439	3907.5875
2309.80474	3882.0875
2312.66327	3881.5875
2315.51999	3877.3875
2318.37489	3856.7875
2321.22797	3844.8875
2324.07925	3862.7875
2326.92871	3848.4875
2329.77637	3831.4875
2332.62222	3812.3875
2335.46626	3804.3875
2338.3085	3799.3875
2341.14893	3819.8875
2343.98756	3808.6875
2346.8244	3793.9875
2349.65943	3776.9875
2352.49267	3774.4875
2355.32411	3798.9875
2358.15376	3782.3875
2360.98161	3780.1875
2363.80768	3760.8875
2366.63195	3782.3875
2369.45444	3795.4875
2372.27514	3796.5875
2375.09405	3797.3875
2377.91118	3743.1875
2380.72652	3754.4875
2383.54009	3739.6875
2386.35187	3755.0875
2389.16188	3711.5875
2391.97011	3712.0875
2394.77657	3709.5875
2397.58125	3705.2875
2400.38416	3680.7875
2403.18529	3672.3875
2405.98466	3667.8875
2408.78226	3662.4875
2411.57809	3659.3875
2414.37216	3645.5875
2417.16446	3653.1875
2419.955	3625.4875
2422.74378	3643.0875
2425.5308	3625.8875
2428.31606	3637.3875
2431.09956	3624.1875
2433.88131	3591.4875
2436.6613	3630.5875
2439.43954	3603.0875
2442.21603	3602.0875
2444.99077	3592.0875
2447.76377	3597.7875
2450.53501	3593.3875
2453.30451	3592.4875
2456.07226	3594.2875
2458.83827	3581.0875
2461.60254	3540.0875
2464.36507	3569.8875
2467.12586	3549.9875
2469.88492	3561.0875
2472.64224	3562.9875
2475.39782	3535.3875
2478.15167	3543.8875
2480.90379	3551.1875
2483.65417	3550.6875
2486.40283	3566.5875
2489.14976	3569.3875
2491.89497	3556.6875
2494.63845	3562.0875
2497.3802	3541.5875
2500.12024	3553.8875
2502.85855	3525.0875
2505.59514	3543.9875
2508.33002	3520.4875
2511.06318	3500.7875
2513.79462	3498.4875
2516.52435	3466.8875
2519.25237	3441.6875
2521.97867	3444.1875
2524.70327	3452.1875
2527.42616	3449.8875
2530.14734	3464.4875
2532.86681	3425.6875
2535.58458	3435.0875
2538.30065	3419.1875
2541.01501	3434.2875
2543.72768	3407.2875
2546.43864	3407.6875
2549.14791	3400.9875
2551.85548	3390.7875
2554.56136	3386.0875
2557.26554	3391.5875
2559.96803	3385.4875
2562.66883	3394.1875
2565.36794	3354.2875
2568.06536	3344.5875
2570.7611	3362.7875
2573.45514	3332.3875
2576.14751	3340.8875
2578.83819	3312.0875
2581.52719	3304.1875
2584.21451	3314.0875
2586.90015	3299.0875
2589.58411	3274.6875
2592.2664	3280.1875
2594.94701	3283.1875
2597.62594	3286.0875
2600.30321	3226.0875
2602.9788	3242.4875
2605.65273	3244.9875
2608.32498	3240.0875
2610.99557	3269.6875
2613.66449	3224.9875
2616.33175	3225.2875
2618.99734	3233.2875
2621.66128	3231.3875
2624.32355	3220.4875
2626.98416	3211.4875
2629.64311	3183.1875
2632.30041	3199.5875
2634.95605	3174.3875
2637.61004	3157.6875
2640.26238	3153.6875
2642.91306	3153.5875
2645.56209	3165.1875
2648.20948	3169.0875
2650.85521	3146.2875
2653.4993	3161.8875
2656.14175	3156.1875
2658.78255	3135.1875
2661.42171	3109.9875
2664.05923	3146.0875
2666.6951	3155.1875
2669.32934	3159.2875
2671.96194	3168.8875
2674.59291	3149.1875
2677.22224	3157.9875
2679.84993	3167.0875
2682.476	3142.7875
2685.10043	3137.6875
2687.72324	3130.2875
2690.34441	3117.4875
2692.96396	3118.7875
2695.58188	3148.1875
2698.19818	3132.7875
2700.81285	3113.2875
2703.4259	3116.3875
2706.03733	3086.5875
2708.64714	3089.3875
2711.25533	3115.2875
2713.86191	3130.6875
2716.46687	3112.2875
2719.07021	3106.5875
2721.67194	3111.2875
2724.27206	3125.2875
2726.87057	3108.3875
2729.46747	3096.9875
2732.06276	3107.3875
2734.65644	3089.1875
2737.24852	3083.7875
2739.83899	3068.2875
2742.42786	3085.6875
2745.01513	3094.9875
2747.60079	3079.6875
2750.18486	3054.2875
2752.76733	3065.9875
2755.3482	3062.9875
2757.92747	3052.9875
2760.50515	3020.9875
2763.08123	3025.2875
2765.65573	3037.3875
2768.22863	3017.5875
2770.79994	3001.5875
2773.36967	3005.8875
2775.9378	3002.6875
2778.50435	2995.9875
2781.06932	2979.6875
2783.6327	2983.9875
2786.1945	3007.9875
2788.75471	2984.0875
2791.31335	2970.4875
2793.87041	2982.4875
2796.42589	2951.3875
2798.97979	2939.1875
2801.53212	2940.7875
2804.08288	2959.9875
2806.63206	2945.1875
2809.17967	2923.5875
2811.72571	2931.9875
2814.27018	2935.8875
2816.81308	2913.2875
2819.35442	2888.3875
2821.89419	2902.2875
2824.43239	2882.3875
2826.96904	2915.3875
2829.50412	2892.5875
2832.03763	2897.0875
2834.56959	2895.6875
2837.1	2875.7875
2839.62884	2876.0875
2842.15613	2870.7875
2844.68186	2864.8875
2847.20604	2858.8875
2849.72867	2860.2875
2852.24974	2858.2875
2854.76927	2823.5875
2857.28724	2791.9875
2859.80367	2848.2875
2862.31855	2853.8875
2864.83189	2827.1875
2867.34368	2832.4875
2869.85393	2846.2875
2872.36264	2819.4875
2874.8698	2826.2875
2877.37543	2823.5875
2879.87952	2816.9875
2882.38207	2814.2875
2884.88308	2807.3875
2887.38256	2814.6875
2889.88051	2808.5875
2892.37692	2799.4875
2894.8718	2789.6875
2897.36515	2795.9875
2899.85698	2808.1875
2902.34727	2788.5875
2904.83604	2800.2875
2907.32328	2807.5875
2909.809	2805.7875
2912.29319	2805.0875
2914.77587	2813.4875
2917.25702	2830.9875
2919.73665	2822.5875
2922.21476	2823.5875
2924.69136	2824.8875
2927.16644	2808.2875
2929.64	2801.9875
2932.11205	2799.3875
2934.58258	2791.0875
2937.05161	2782.5875
2939.51912	2771.1875
2941.98513	2801.2875
2944.44962	2777.2875
2946.91261	2738.1875
2949.37409	2760.1875
2951.83407	2750.7875
2954.29254	2743.1875
2956.74951	2744.0875
2959.20498	2735.2875
2961.65895	2731.8875
2964.11142	2711.1875
2966.56239	2725.4875
2969.01186	2726.0875
2971.45984	2713.8875
2973.90632	2694.7875
2976.35131	2716.9875
2978.7948	2719.1875
2981.23681	2696.9875
2983.67732	2706.7875
2986.11635	2700.5875
2988.55388	2659.1875
2990.98993	2673.8875
2993.4245	2654.8875
2995.85758	2656.4875
2998.28917	2646.6875
3000.71928	2634.0875
3003.14791	2633.9875
3005.57506	2626.4875
3008.00073	2609.8875
3010.42493	2549.9875
3012.84764	2610.7875
3015.26888	2606.4875
3017.68865	2587.0875
3020.10694	2553.5875
3022.52376	2569.0875
3024.9391	2561.1875
3027.35298	2552.0875
3029.76539	2543.2875
3032.17632	2545.9875
3034.5858	2541.6875
3036.9938	2543.7875
3039.40034	2544.7875
3041.80542	2523.8875
3044.20903	2501.4875
3046.61118	2508.1875
3049.01187	2507.1875
3051.4111	2494.3875
3053.80888	2484.0875
3056.20519	2483.8875
3058.60005	2459.5875
3060.99345	2483.5875
3063.3854	2461.7875
3065.7759	2457.2875
3068.16494	2443.1875
3070.55254	2430.6875
3072.93868	2440.3875
3075.32338	2434.8875
3077.70662	2421.6875
3080.08842	2419.2875
3082.46878	2398.6875
3084.84769	2419.8875
3087.22515	2391.6875
3089.60118	2410.8875
3091.97576	2395.2875
3094.3489	2397.9875
3096.72061	2388.6875
3099.09087	2385.7875
3101.4597	2400.2875
3103.82709	2373.9875
3106.19305	2375.9875
3108.55757	2380.0875
3110.92066	2360.0875
3113.28232	2369.8875
3115.64255	2368.2875
3118.00134	2365.6875
3120.35871	2347.5875
3122.71466	2333.9875
3125.06917	2334.6875
3127.42226	2328.8875
3129.77393	2298.9875
3132.12417	2326.0875
3134.47299	2333.5875
3136.82039	2305.1875
3139.16636	2285.2875
3141.51092	2294.1875
3143.85406	2309.6875
3146.19579	2298.9875
3148.53609	2291.2875
3150.87499	2295.7875
3153.21246	2288.8875
3155.54853	2289.5875
3157.88318	2294.9875
3160.21642	2296.3875
3162.54826	2284.7875
3164.87868	2289.8875
3167.2077	2245.5875
3169.5353	2278.0875
3171.86151	2288.2875
3174.18631	2270.0875
3176.5097	2256.4875
3178.83169	2255.9875
3181.15228	2267.1875
3183.47147	2231.6875
3185.78926	2213.7875
3188.10565	2230.0875
3190.42065	2203.4875
3192.73424	2222.7875
3195.04645	2218.1875
3197.35725	2196.1875
3199.66667	2217.7875
3201.97469	2203.1875
3204.28132	2191.9875
3206.58656	2213.4875
3208.8904	2210.6875
3211.19287	2203.9875
3213.49394	2186.3875
3215.79363	2181.2875
3218.09193	2206.7875
3220.38884	2203.7875
3222.68438	2193.3875
3224.97853	2167.2875
3227.2713	2196.9875
3229.56269	2177.3875
3231.8527	2173.9875
3234.14133	2168.5875
3236.42858	2170.2875
3238.71446	2139.4875
3240.99896	2158.5875
3243.28209	2147.0875
3245.56384	2156.2875
3247.84423	2130.6875
3250.12324	2142.7875
3252.40088	2144.5875
3254.67715	2119.8875
3256.95205	2114.5875
3259.22558	2134.9875
3261.49775	2127.5875
3263.76855	2114.1875
3266.03799	2132.7875
3268.30606	2126.5875
3270.57277	2122.6875
3272.83812	2100.2875
3275.10211	2104.1875
3277.36474	2118.8875
3279.62601	2109.1875
3281.88593	2072.9875
3284.14448	2055.7875
3286.40168	2081.5875
3288.65753	2070.8875
3290.91202	2078.0875
3293.16516	2060.6875
3295.41695	2086.5875
3297.66738	2065.5875
3299.91647	2045.3875
3302.16421	2049.8875
3304.4106	2002.6875
3306.65564	2025.1875
3308.89933	1984.2875
3311.14169	1983.7875
3313.38269	1982.1875
3315.62236	1965.3875
3317.86068	1935.8875
3320.09766	1941.3875
3322.3333	1906.4875
3324.5676	1895.5875
3326.80056	1870.9875
3329.03219	1862.7875
3331.26248	-1.0125
3333.49143	0.2875
3335.71905	0.7875
