Data from AgNPs_UA_10uM_CRN_500uM_SU_RamanShift__143__13-29-10-282.txt Node

Date: Thu Aug 04 13:29:10 BST 2022
User: TCL
Spectrometer: QEP01345
Trigger mode: 4
Integration Time (sec): 1.000000E0
Scans to average: 10
Electric dark correction enabled: true
Nonlinearity correction enabled: false
Boxcar width: 0
XAxis mode: Raman Shifts
Number of Pixels in Spectrum: 1044
>>>>>Begin Spectral Data<<<<<
46.04893	0.8
50.45542	-1.2
54.85868	-0.7
59.25871	-0.7
63.6555	20.5
68.04907	20.5
72.43941	21.7
76.82654	21.5
81.21044	22.8
85.59113	24.9
89.96862	27
94.34289	26.5
98.71396	24.9
103.08183	27.9
107.4465	28.2
111.80798	27.2
116.16626	29.4
120.52136	32.6
124.87327	32.7
129.222	34.2
133.56755	35.8
137.90993	40.8
142.24913	44.4
146.58517	49.3
150.91804	59.3
155.24774	73.2
159.57429	90
163.89768	118.3
168.21792	155.1
172.53501	213
176.84895	299.9
181.15975	429.3
185.46741	601.4
189.77193	826.6
194.07331	1105.9
198.37157	1430.5
202.6667	1770.5
206.9587	2109
211.24758	2427.4
215.53334	2775
219.81599	3118.5
224.09553	3532.9
228.37195	3963.2
232.64527	4428.9
236.91549	4918.8
241.18261	5387.9
245.44663	5750.1
249.70755	6074.1
253.96539	6337.7
258.22014	6613.7
262.4718	6814.5
266.72039	6956.8
270.96589	7021.7
275.20832	6996
279.44768	6902.6
283.68397	6804.1
287.91719	6722.6
292.14735	6746.1
296.37445	6799.1
300.59849	6950.2
304.81948	7150.5
309.03742	7297.2
313.25231	7364.5
317.46415	7260.4
321.67296	7031.5
325.87872	6844
330.08145	6765.2
334.28114	6781.5
338.47781	6865.2
342.67145	6991.4
346.86207	7178.1
351.04966	7416.1
355.23424	7666
359.4158	7886.7
363.59435	8026.2
367.76989	8092.8
371.94243	8150.2
376.11196	8160.4
380.27849	8208.1
384.44203	8225.4
388.60257	8277.9
392.76012	8298.3
396.91468	8420.6
401.06626	8567.8
405.21485	8643.4
409.36047	8562.7
413.50311	8343.7
417.64277	8116.5
421.77947	8017.1
425.9132	7941.5
430.04396	7983.9
434.17176	8092.8
438.2966	8242.5
442.41849	8478.9
446.53742	8771.6
450.6534	9017.1
454.76644	9181
458.87653	9189.2
462.98368	9096.7
467.08789	8913.9
471.18916	8687.2
475.2875	8457.5
479.38291	8261.2
483.4754	8141.5
487.56496	8065.9
491.6516	8001.9
495.73531	7987.5
499.81612	7989.1
503.89401	8067.5
507.96899	8104.5
512.04106	8148
516.11023	8205.9
520.1765	8263.5
524.23987	8294.4
528.30034	8307.4
532.35792	8241.5
536.41261	8171.2
540.46441	8037.4
544.51333	8026.4
548.55936	8096.5
552.60252	8209.6
556.64279	8342.3
560.6802	8398
564.71473	8446.7
568.7464	8519.2
572.7752	8522.3
576.80114	8414.6
580.82422	8378.3
584.84444	8414.5
588.86181	8590.6
592.87633	8803.5
596.888	8997.6
600.89682	9312.5
604.9028	10213
608.90594	12019.3
612.90624	13615.3
616.90371	12450.3
620.89834	10077.2
624.89015	9212.3
628.87913	9151
632.86528	9093.7
636.84862	8948.4
640.82913	8687.9
644.80683	8362.6
648.78172	8214.4
652.75379	8261.8
656.72306	8511.5
660.68952	8732
664.65319	8712.2
668.61405	8607.3
672.57211	8592.7
676.52738	8565.3
680.47986	8454.4
684.42955	8328.5
688.37646	8348.5
692.32058	8425.9
696.26192	8556.7
700.20048	8674.2
704.13626	8695.9
708.06928	8562.7
711.99952	8477.2
715.927	8483.7
719.85171	8526.6
723.77365	8533
727.69284	8445
731.60928	8382.2
735.52295	8412.2
739.43388	8479.9
743.34206	8557.9
747.24749	8571.4
751.15017	8596.2
755.05012	8692.5
758.94733	8997.8
762.8418	9647
766.73354	10619.8
770.62254	11447.5
774.50882	11698.9
778.39237	11251.2
782.27321	10403.3
786.15132	9577.4
790.02671	9024.5
793.89938	8796.4
797.76935	8688.2
801.6366	8616.1
805.50115	8579.7
809.36299	8531.5
813.22213	8513.7
817.07857	8508.6
820.93231	8480.1
824.78336	8471.5
828.63172	8483.6
832.47738	8529.1
836.32036	8566.4
840.16066	8603.8
843.99827	8619.6
847.8332	8623.9
851.66546	8580
855.49504	8593.1
859.32195	8583.4
863.1462	8549.2
866.96777	8522.4
870.78668	8530.4
874.60293	8536.1
878.41652	8549.6
882.22745	8616.9
886.03573	8683.5
889.84136	8684.2
893.64433	8647.7
897.44466	8590.8
901.24235	8582.3
905.0374	8558.5
908.8298	8526.7
912.61957	8545
916.40671	8572.2
920.19121	8661.5
923.97308	8769.2
927.75233	8891.5
931.52895	8945.9
935.30295	8886.8
939.07433	8717
942.84309	8590
946.60924	8542.1
950.37278	8558.1
954.13371	8461.5
957.89203	8425.4
961.64774	8398.7
965.40086	8391.9
969.15137	8340.7
972.89929	8338
976.64461	8384.2
980.38733	8394.7
984.12747	8431.5
987.86502	8501.6
991.59999	8611.7
995.33237	8827
999.06217	9156.9
1002.78939	9507.1
1006.51404	9618.3
1010.23611	9664.1
1013.95561	9777.3
1017.67255	9861.3
1021.38692	9878.1
1025.09872	9896
1028.80796	10099.2
1032.51465	10415.5
1036.21877	10611.2
1039.92035	10584.7
1043.61937	10368.4
1047.31584	10030.9
1051.00976	9737.2
1054.70114	9580.5
1058.38998	9565.6
1062.07627	9572.5
1065.76003	9553.1
1069.44126	9582.8
1073.11995	9645.7
1076.79611	9782.5
1080.46974	9930.8
1084.14085	10022.2
1087.80943	10089.7
1091.47549	10090.8
1095.13903	9973
1098.80005	9847.5
1102.45857	9817.8
1106.11456	9804.5
1109.76805	9832.1
1113.41903	9880.1
1117.06751	10023.4
1120.71348	10195.1
1124.35696	10387.8
1127.99793	10472.4
1131.63641	10350.1
1135.2724	10099.3
1138.90589	9906.8
1142.5369	9751.3
1146.16542	9621.1
1149.79145	9541.2
1153.415	9550.1
1157.03607	9600.2
1160.65467	9732.9
1164.27079	9977.9
1167.88443	10380.4
1171.49561	10952.3
1175.10432	11817.9
1178.71056	12922.7
1182.31434	13928.5
1185.91565	14450
1189.51451	14385.2
1193.11091	13895.9
1196.70485	13243.4
1200.29634	12625.6
1203.88538	12108.1
1207.47197	11623.7
1211.05612	11186.2
1214.63782	10934.2
1218.21708	10891.1
1221.79391	10954.3
1225.36829	11073.2
1228.94024	11044.5
1232.50976	10888.6
1236.07685	10753.1
1239.6415	10731.5
1243.20374	10760.9
1246.76355	10876.1
1250.32093	10993.7
1253.8759	11247.9
1257.42845	11579.8
1260.97859	11921.4
1264.52631	12194.1
1268.07163	12475.2
1271.61453	12731.2
1275.15503	12957.8
1278.69312	13241
1282.22882	13489.1
1285.76211	13673.7
1289.29301	13819.7
1292.82151	14023.3
1296.34761	14368.9
1299.87133	14925.5
1303.39266	15897.5
1306.9116	17235.7
1310.42815	18631.2
1313.94233	19296.8
1317.45412	18908.6
1320.96354	17874.8
1324.47058	16764.8
1327.97525	15904.7
1331.47754	15461.2
1334.97747	15450.6
1338.47502	15670.7
1341.97022	16078.7
1345.46305	16620.3
1348.95352	17327.2
1352.44163	18096.6
1355.92738	19072.1
1359.41078	20391
1362.89183	21117.3
1366.37053	20012.3
1369.84688	17567.7
1373.32088	15337.3
1376.79254	14039.7
1380.26186	13473.8
1383.72883	13135.5
1387.19347	12788.7
1390.65578	12439.1
1394.11575	12159.2
1397.57339	12012.8
1401.0287	12058.7
1404.48168	12198
1407.93234	12401.6
1411.38068	12606.8
1414.82669	12732.6
1418.27039	12647.7
1421.71177	12486
1425.15083	12376.6
1428.58758	12400
1432.02203	12585
1435.45416	12749.1
1438.88399	12777.9
1442.31151	12722.5
1445.73673	12694.4
1449.15965	12636.3
1452.58027	12536.8
1455.9986	12420.1
1459.41463	12367.3
1462.82837	12497.9
1466.23982	12707.8
1469.64898	12980.8
1473.05586	13159.1
1476.46045	13280.9
1479.86276	13403.6
1483.26279	13533.6
1486.66054	13672.3
1490.05602	13929.6
1493.44922	14321.4
1496.84016	14884.4
1500.22882	15662.8
1503.61521	16677.6
1506.99934	17659.8
1510.38121	18212.2
1513.76081	17929.5
1517.13816	16844.7
1520.51324	15512.3
1523.88607	14553
1527.25665	13948.6
1530.62498	13662.8
1533.99105	13526.8
1537.35488	13446.6
1540.71647	13391.8
1544.07581	13298
1547.4329	13180.1
1550.78776	13008.9
1554.14038	12814.1
1557.49077	12731.8
1560.83892	12754.8
1564.18484	12843.8
1567.52853	13002.3
1570.86999	13033
1574.20922	13026.6
1577.54624	12857.9
1580.88103	12483.1
1584.2136	12125.1
1587.54395	12129.3
1590.87208	12597.4
1594.19801	13498.3
1597.52172	14566.2
1600.84321	15132.5
1604.16251	14944.9
1607.47959	14183.6
1610.79447	13230.3
1614.10715	12274.4
1617.41763	11442.6
1620.7259	10893
1624.03199	10649.5
1627.33587	10682.3
1630.63757	10965.2
1633.93707	11569
1637.23439	12469.9
1640.52951	13606.7
1643.82246	14791.5
1647.11321	15643.8
1650.40179	15556.2
1653.68819	14356.7
1656.97241	12610.3
1660.25446	11114.7
1663.53433	10148.7
1666.81203	9569.3
1670.08756	9199.8
1673.36092	8974.1
1676.63211	8833.8
1679.90115	8686.6
1683.16801	8595.7
1686.43272	8533.6
1689.69527	8464.7
1692.95567	8453.3
1696.2139	8413.1
1699.46999	8408.7
1702.72392	8397.7
1705.97571	8364.4
1709.22535	8359.8
1712.47284	8370
1715.71819	8380.2
1718.96139	8339.7
1722.20246	8349
1725.44139	8307.8
1728.67818	8269.5
1731.91284	8215.4
1735.14537	8187.3
1738.37576	8159.8
1741.60403	8123.2
1744.83017	8100.3
1748.05418	8093.4
1751.27607	8079.5
1754.49584	8055.2
1757.71349	8070.1
1760.92903	8056
1764.14244	8061
1767.35375	8016.9
1770.56294	8025.7
1773.77002	7994.6
1776.97499	7956.8
1780.17785	7946.4
1783.37861	7943.4
1786.57727	7972.1
1789.77382	7943.5
1792.96828	7928.8
1796.16064	7916.7
1799.3509	7905.9
1802.53907	7902.4
1805.72514	7916
1808.90913	7856.5
1812.09102	7873.3
1815.27083	7848.6
1818.44856	7819.7
1821.6242	7779.8
1824.79776	7775.7
1827.96924	7802.5
1831.13864	7769.6
1834.30597	7776.5
1837.47122	7750.3
1840.6344	7730
1843.7955	7745.8
1846.95454	7719.5
1850.11151	7731.6
1853.26642	7736.2
1856.41926	7759.3
1859.57004	7757.7
1862.71876	7757.8
1865.86542	7742.3
1869.01003	7739.5
1872.15258	7716.9
1875.29308	7716.5
1878.43152	7698.4
1881.56792	7691.9
1884.70227	7689.7
1887.83457	7669
1890.96482	7661.4
1894.09304	7657.5
1897.21921	7648.2
1900.34335	7632.5
1903.46544	7621.2
1906.58551	7635.7
1909.70353	7622.5
1912.81953	7636.7
1915.93349	7637.9
1919.04543	7616.4
1922.15534	7576.5
1925.26322	7606.2
1928.36908	7576.6
1931.47292	7562.5
1934.57473	7553.8
1937.67453	7565.9
1940.77232	7553.5
1943.86808	7508.1
1946.96184	7488.7
1950.05358	7486.1
1953.14331	7465.9
1956.23103	7426.8
1959.31675	7404.4
1962.40046	7398.5
1965.48217	7343.4
1968.56188	7329.5
1971.63959	7314.1
1974.7153	7299.4
1977.78901	7315.7
1980.86073	7294.6
1983.93046	7241.3
1986.99819	7230.6
1990.06394	7215.3
1993.1277	7189.5
1996.18947	7159.5
1999.24925	7115.7
2002.30706	7119.4
2005.36288	7072
2008.41672	7079.1
2011.46859	7035.6
2014.51848	7023.3
2017.56639	7011.4
2020.61233	6954.4
2023.6563	6986.5
2026.6983	6962.7
2029.73833	6949.7
2032.7764	6920.1
2035.8125	6913.6
2038.84664	6909.9
2041.87881	6909.1
2044.90903	6892
2047.93729	6886.3
2050.96359	6856.9
2053.98794	6862.8
2057.01034	6876
2060.03078	6863.4
2063.04927	6870.5
2066.06582	6838.6
2069.08042	6836.5
2072.09307	6816.6
2075.10378	6812.4
2078.11255	6796.2
2081.11938	6793.1
2084.12426	6787.7
2087.12722	6772.9
2090.12824	6789.8
2093.12732	6781
2096.12447	6789.6
2099.11969	6795.9
2102.11299	6790
2105.10435	6785.6
2108.09379	6801
2111.08131	6764.8
2114.0669	6810.6
2117.05057	6820.7
2120.03233	6819
2123.01216	6820.1
2125.99008	6806.9
2128.96609	6831.8
2131.94018	6826.3
2134.91236	6799.7
2137.88263	6821.2
2140.851	6826.9
2143.81746	6826.3
2146.78201	6823.4
2149.74466	6823.2
2152.7054	6818.9
2155.66425	6835.7
2158.6212	6826.2
2161.57625	6803.6
2164.52941	6816.7
2167.48067	6809.5
2170.43004	6777.4
2173.37752	6786.8
2176.32311	6795.5
2179.26681	6825.5
2182.20863	6809
2185.14856	6815.4
2188.08661	6836.5
2191.02278	6811.5
2193.95707	6821.6
2196.88948	6811
2199.82001	6814.8
2202.74867	6826.1
2205.67545	6822.1
2208.60037	6824.6
2211.52341	6795
2214.44458	6802.4
2217.36388	6766.7
2220.28132	6788.5
2223.1969	6739.6
2226.11061	6741.7
2229.02246	6740.2
2231.93245	6718.6
2234.84058	6701.4
2237.74686	6691.2
2240.65128	6682.3
2243.55385	6696.4
2246.45456	6674.5
2249.35343	6650.6
2252.25044	6643.7
2255.14561	6653.2
2258.03893	6634.9
2260.93041	6635.2
2263.82004	6629.2
2266.70783	6580.4
2269.59378	6605.7
2272.4779	6558.4
2275.36017	6544.2
2278.24061	6527.1
2281.11922	6525.3
2283.996	6496.7
2286.87094	6502.1
2289.74405	6506.2
2292.61534	6500.4
2295.4848	6479.7
2298.35243	6482.9
2301.21824	6456.2
2304.08223	6470.5
2306.94439	6473
2309.80474	6486.7
2312.66327	6489.6
2315.51999	6457.7
2318.37489	6491.9
2321.22797	6461.6
2324.07925	6462.3
2326.92871	6476.4
2329.77637	6470.6
2332.62222	6441.5
2335.46626	6461.4
2338.3085	6454.6
2341.14893	6470.2
2343.98756	6464.2
2346.8244	6499.8
2349.65943	6481
2352.49267	6457.2
2355.32411	6462.3
2358.15376	6444.5
2360.98161	6462.8
2363.80768	6450.2
2366.63195	6428.1
2369.45444	6425.5
2372.27514	6397.6
2375.09405	6393.6
2377.91118	6374.4
2380.72652	6379
2383.54009	6359.2
2386.35187	6339.8
2389.16188	6329.1
2391.97011	6304.1
2394.77657	6303.1
2397.58125	6274.2
2400.38416	6285.6
2403.18529	6283.9
2405.98466	6250.2
2408.78226	6255.9
2411.57809	6223.9
2414.37216	6210.5
2417.16446	6208.8
2419.955	6208.5
2422.74378	6185.3
2425.5308	6184.3
2428.31606	6178.2
2431.09956	6177.2
2433.88131	6164.8
2436.6613	6171.1
2439.43954	6150.4
2442.21603	6146.3
2444.99077	6149.3
2447.76377	6161.7
2450.53501	6166.4
2453.30451	6154.8
2456.07226	6151.4
2458.83827	6127.8
2461.60254	6112.4
2464.36507	6109.4
2467.12586	6100.2
2469.88492	6114.5
2472.64224	6134.9
2475.39782	6111.7
2478.15167	6093.1
2480.90379	6095.9
2483.65417	6089.5
2486.40283	6111.2
2489.14976	6137.8
2491.89497	6137.7
2494.63845	6132.7
2497.3802	6140.6
2500.12024	6116.2
2502.85855	6108.2
2505.59514	6105.9
2508.33002	6115.3
2511.06318	6094.3
2513.79462	6077.2
2516.52435	6066.4
2519.25237	6068.2
2521.97867	6036.3
2524.70327	6042.8
2527.42616	6046.8
2530.14734	6032.6
2532.86681	6033.6
2535.58458	6049.7
2538.30065	6041.5
2541.01501	6040.2
2543.72768	6028.5
2546.43864	6015.7
2549.14791	6016.1
2551.85548	6011.5
2554.56136	6019.5
2557.26554	6006.4
2559.96803	6000.5
2562.66883	5972.4
2565.36794	5949.2
2568.06536	5957.6
2570.7611	5928.3
2573.45514	5939.5
2576.14751	5925.1
2578.83819	5912.2
2581.52719	5925.5
2584.21451	5911.5
2586.90015	5936.7
2589.58411	5916.7
2592.2664	5913.9
2594.94701	5916
2597.62594	5914.5
2600.30321	5901.8
2602.9788	5902.9
2605.65273	5897.8
2608.32498	5893.8
2610.99557	5889.2
2613.66449	5888.5
2616.33175	5879.5
2618.99734	5902.8
2621.66128	5887.6
2624.32355	5888.9
2626.98416	5887
2629.64311	5897.9
2632.30041	5876.2
2634.95605	5895
2637.61004	5870.5
2640.26238	5857.3
2642.91306	5851.4
2645.56209	5861.4
2648.20948	5827.9
2650.85521	5837.4
2653.4993	5826.1
2656.14175	5832.7
2658.78255	5809.4
2661.42171	5795
2664.05923	5823
2666.6951	5843.3
2669.32934	5854.8
2671.96194	5837.5
2674.59291	5853.8
2677.22224	5849.9
2679.84993	5825.1
2682.476	5823.1
2685.10043	5834.2
2687.72324	5826.2
2690.34441	5821.8
2692.96396	5814.8
2695.58188	5817
2698.19818	5801.7
2700.81285	5780.8
2703.4259	5749.6
2706.03733	5783
2708.64714	5772.1
2711.25533	5768.1
2713.86191	5783.2
2716.46687	5794.1
2719.07021	5790.2
2721.67194	5793.9
2724.27206	5790
2726.87057	5797.4
2729.46747	5802.1
2732.06276	5784.7
2734.65644	5795.7
2737.24852	5767.6
2739.83899	5763.4
2742.42786	5771
2745.01513	5740.7
2747.60079	5752.6
2750.18486	5729.3
2752.76733	5731.1
2755.3482	5741.6
2757.92747	5725.1
2760.50515	5717.8
2763.08123	5712.9
2765.65573	5710.3
2768.22863	5693.1
2770.79994	5715
2773.36967	5708.9
2775.9378	5704.5
2778.50435	5692.7
2781.06932	5693.8
2783.6327	5696.8
2786.1945	5714.1
2788.75471	5702
2791.31335	5663
2793.87041	5662.5
2796.42589	5649.6
2798.97979	5639.2
2801.53212	5628.9
2804.08288	5608.1
2806.63206	5607.8
2809.17967	5606
2811.72571	5597.4
2814.27018	5608
2816.81308	5569.3
2819.35442	5553.9
2821.89419	5574.1
2824.43239	5545.2
2826.96904	5567.4
2829.50412	5553
2832.03763	5547.1
2834.56959	5530.2
2837.1	5504.5
2839.62884	5507.6
2842.15613	5491.8
2844.68186	5501
2847.20604	5499.3
2849.72867	5495.8
2852.24974	5466.8
2854.76927	5470.9
2857.28724	5472.5
2859.80367	5457
2862.31855	5432.6
2864.83189	5450.5
2867.34368	5450.8
2869.85393	5456.6
2872.36264	5416.5
2874.8698	5425.4
2877.37543	5420.5
2879.87952	5413.3
2882.38207	5412.4
2884.88308	5400.4
2887.38256	5412
2889.88051	5415.8
2892.37692	5423.3
2894.8718	5409.4
2897.36515	5409.3
2899.85698	5384.7
2902.34727	5420.7
2904.83604	5423.7
2907.32328	5432.7
2909.809	5428.5
2912.29319	5437.4
2914.77587	5437.7
2917.25702	5446
2919.73665	5444.6
2922.21476	5448.2
2924.69136	5424.8
2927.16644	5412.8
2929.64	5388.3
2932.11205	5387.5
2934.58258	5342.9
2937.05161	5375.3
2939.51912	5379.7
2941.98513	5385.3
2944.44962	5359.6
2946.91261	5336.6
2949.37409	5365.5
2951.83407	5354.7
2954.29254	5336.5
2956.74951	5334.1
2959.20498	5341.8
2961.65895	5325.9
2964.11142	5334.8
2966.56239	5333.6
2969.01186	5325.5
2971.45984	5318
2973.90632	5303.7
2976.35131	5287.9
2978.7948	5292.8
2981.23681	5269.1
2983.67732	5262.4
2986.11635	5244.9
2988.55388	5233.3
2990.98993	5208
2993.4245	5181.9
2995.85758	5191.8
2998.28917	5175.7
3000.71928	5157.8
3003.14791	5152.7
3005.57506	5140.5
3008.00073	5138.5
3010.42493	5110.4
3012.84764	5092
3015.26888	5108.7
3017.68865	5099.8
3020.10694	5095.7
3022.52376	5051.8
3024.9391	5035.2
3027.35298	5030.1
3029.76539	5017.2
3032.17632	5011.4
3034.5858	5027.7
3036.9938	5028.3
3039.40034	5001.2
3041.80542	4991.5
3044.20903	4981.5
3046.61118	4971.6
3049.01187	4949.5
3051.4111	4963.2
3053.80888	4941.5
3056.20519	4937.9
3058.60005	4911.3
3060.99345	4904.5
3063.3854	4902.4
3065.7759	4873.8
3068.16494	4851
3070.55254	4835.6
3072.93868	4827.8
3075.32338	4813.1
3077.70662	4812.5
3080.08842	4815.6
3082.46878	4783.7
3084.84769	4777
3087.22515	4786.9
3089.60118	4776.4
3091.97576	4760.5
3094.3489	4758.6
3096.72061	4761.4
3099.09087	4750.9
3101.4597	4743.3
3103.82709	4753.6
3106.19305	4739.3
3108.55757	4750.9
3110.92066	4725.2
3113.28232	4710.4
3115.64255	4717.5
3118.00134	4693.1
3120.35871	4694.7
3122.71466	4666.6
3125.06917	4679.7
3127.42226	4663.4
3129.77393	4653.3
3132.12417	4631.4
3134.47299	4626.6
3136.82039	4626.8
3139.16636	4620.3
3141.51092	4646
3143.85406	4627.8
3146.19579	4620.4
3148.53609	4640.3
3150.87499	4632.4
3153.21246	4605.5
3155.54853	4603.1
3157.88318	4595.8
3160.21642	4612.4
3162.54826	4603
3164.87868	4605.5
3167.2077	4588.9
3169.5353	4587.3
3171.86151	4581.8
3174.18631	4573.8
3176.5097	4562.7
3178.83169	4546.2
3181.15228	4545.9
3183.47147	4534
3185.78926	4530.4
3188.10565	4520.2
3190.42065	4499.5
3192.73424	4505.2
3195.04645	4496.2
3197.35725	4507.1
3199.66667	4499.9
3201.97469	4507.8
3204.28132	4501
3206.58656	4503.6
3208.8904	4491.6
3211.19287	4497.4
3213.49394	4499.1
3215.79363	4478.3
3218.09193	4500
3220.38884	4487.9
3222.68438	4494.9
3224.97853	4477.3
3227.2713	4473.5
3229.56269	4480.9
3231.8527	4490.2
3234.14133	4455.7
3236.42858	4450
3238.71446	4441.1
3240.99896	4437.8
3243.28209	4422
3245.56384	4416.6
3247.84423	4421
3250.12324	4390.7
3252.40088	4390.6
3254.67715	4399.2
3256.95205	4389.6
3259.22558	4391.1
3261.49775	4376.1
3263.76855	4395.9
3266.03799	4376.2
3268.30606	4394.2
3270.57277	4365.1
3272.83812	4380.8
3275.10211	4353
3277.36474	4345.1
3279.62601	4345
3281.88593	4324.9
3284.14448	4316.3
3286.40168	4326.2
3288.65753	4317.7
3290.91202	4327.2
3293.16516	4309.7
3295.41695	4299.5
3297.66738	4293.1
3299.91647	4282.9
3302.16421	4247
3304.4106	4224.5
3306.65564	4191.9
3308.89933	4155.6
3311.14169	4127.9
3313.38269	4086.2
3315.62236	4065.7
3317.86068	4027.7
3320.09766	4009
3322.3333	3995.7
3324.5676	3969.9
3326.80056	3886
3329.03219	3865.7
3331.26248	1.4
3333.49143	0.6
3335.71905	0.5
