Data from AgNPs_UA_5uM_CRN_500uM_SU_RamanShift__65__11-40-13-152.txt Node

Date: Thu Aug 04 11:40:13 BST 2022
User: TCL
Spectrometer: QEP01345
Trigger mode: 4
Integration Time (sec): 1.000000E0
Scans to average: 10
Electric dark correction enabled: true
Nonlinearity correction enabled: false
Boxcar width: 0
XAxis mode: Raman Shifts
Number of Pixels in Spectrum: 1044
>>>>>Begin Spectral Data<<<<<
46.04893	0.4875
50.45542	0.4875
54.85868	0.2875
59.25871	-1.2125
63.6555	-56.1125
68.04907	-37.8125
72.43941	-70.3125
76.82654	-54.9125
81.21044	-54.3125
85.59113	-47.1125
89.96862	-74.2125
94.34289	-52.7125
98.71396	-74.1125
103.08183	-57.6125
107.4465	-46.2125
111.80798	-52.9125
116.16626	-40.9125
120.52136	-71.2125
124.87327	-47.0125
129.222	-60.0125
133.56755	-44.5125
137.90993	-55.4125
142.24913	-43.8125
146.58517	-34.9125
150.91804	-28.7125
155.24774	-13.8125
159.57429	9.8875
163.89768	22.7875
168.21792	76.4875
172.53501	114.9875
176.84895	221.6875
181.15975	386.6875
185.46741	585.8875
189.77193	826.5875
194.07331	1199.1875
198.37157	1577.0875
202.6667	1968.1875
206.9587	2406.7875
211.24758	2864.9875
215.53334	3352.3875
219.81599	3909.4875
224.09553	4546.3875
228.37195	5228.0875
232.64527	5851.9875
236.91549	6424.9875
241.18261	6770.4875
245.44663	6922.9875
249.70755	6993.5875
253.96539	7060.3875
258.22014	7174.2875
262.4718	7273.5875
266.72039	7333.9875
270.96589	7203.2875
275.20832	6995.4875
279.44768	6770.2875
283.68397	6565.8875
287.91719	6486.1875
292.14735	6609.0875
296.37445	6943.0875
300.59849	7597.1875
304.81948	8488.8875
309.03742	9484.9875
313.25231	10238.2875
317.46415	10148.3875
321.67296	9075.1875
325.87872	7873.3875
330.08145	7200.4875
334.28114	7049.9875
338.47781	7245.6875
342.67145	7618.9875
346.86207	8257.6875
351.04966	9236.8875
355.23424	10238.9875
359.4158	10684.1875
363.59435	10384.5875
367.76989	9853.5875
371.94243	9288.6875
376.11196	8854.1875
380.27849	8556.5875
384.44203	8310.1875
388.60257	8200.1875
392.76012	8242.4875
396.91468	8465.4875
401.06626	8751.0875
405.21485	8795.6875
409.36047	8379.6875
413.50311	7647.9875
417.64277	6974.3875
421.77947	6525.2875
425.9132	6333.0875
430.04396	6220.4875
434.17176	6208.1875
438.2966	6298.7875
442.41849	6463.5875
446.53742	6635.6875
450.6534	6743.4875
454.76644	6798.3875
458.87653	6767.8875
462.98368	6699.7875
467.08789	6595.2875
471.18916	6419.6875
475.2875	6213.8875
479.38291	6044.6875
483.4754	5922.1875
487.56496	5877.7875
491.6516	5831.1875
495.73531	5819.0875
499.81612	5863.9875
503.89401	6012.4875
507.96899	6137.1875
512.04106	6324.3875
516.11023	6487.8875
520.1765	6654.9875
524.23987	6709.9875
528.30034	6683.0875
532.35792	6585.6875
536.41261	6482.0875
540.46441	6312.1875
544.51333	6180.6875
548.55936	6207.1875
552.60252	6334.1875
556.64279	6510.4875
560.6802	6798.1875
564.71473	7443.4875
568.7464	8249.6875
572.7752	8191.1875
576.80114	7106.2875
580.82422	6255.2875
584.84444	5888.0875
588.86181	5767.2875
592.87633	5789.6875
596.888	5958.3875
600.89682	6565.3875
604.9028	8461.8875
608.90594	13166.4875
612.90624	18796.4875
616.90371	17145.8875
620.89834	10120.6875
624.89015	7062.2875
628.87913	6750.3875
632.86528	7209.2875
636.84862	7417.5875
640.82913	6894.0875
644.80683	6133.4875
648.78172	5807.7875
652.75379	5912.9875
656.72306	6461.9875
660.68952	7008.4875
664.65319	6748.4875
668.61405	6100.8875
672.57211	5870.6875
676.52738	5877.4875
680.47986	5747.9875
684.42955	5598.7875
688.37646	5554.6875
692.32058	5574.7875
696.26192	5685.1875
700.20048	5835.7875
704.13626	5857.0875
708.06928	5766.9875
711.99952	5709.0875
715.927	5746.6875
719.85171	5885.6875
723.77365	5977.2875
727.69284	5866.2875
731.60928	5754.9875
735.52295	5721.5875
739.43388	5768.0875
743.34206	5823.5875
747.24749	5824.5875
751.15017	5845.0875
755.05012	6050.1875
758.94733	6959.6875
762.8418	8956.6875
766.73354	11649.2875
770.62254	13031.9875
774.50882	12583.4875
778.39237	11639.7875
782.27321	10125.0875
786.15132	8147.2875
790.02671	6753.7875
793.89938	6077.0875
797.76935	5868.1875
801.6366	5732.8875
805.50115	5688.0875
809.36299	5656.1875
813.22213	5647.7875
817.07857	5644.0875
820.93231	5654.3875
824.78336	5739.2875
828.63172	5819.7875
832.47738	5840.8875
836.32036	5781.4875
840.16066	5641.8875
843.99827	5577.2875
847.8332	5559.9875
851.66546	5538.0875
855.49504	5509.9875
859.32195	5520.9875
863.1462	5491.9875
866.96777	5486.5875
870.78668	5473.7875
874.60293	5518.3875
878.41652	5562.1875
882.22745	5688.0875
886.03573	5770.1875
889.84136	5704.0875
893.64433	5702.6875
897.44466	5694.5875
901.24235	5707.7875
905.0374	5660.2875
908.8298	5532.5875
912.61957	5448.8875
916.40671	5365.6875
920.19121	5407.2875
923.97308	5565.3875
927.75233	5823.9875
931.52895	6090.4875
935.30295	5970.3875
939.07433	5557.8875
942.84309	5279.2875
946.60924	5196.5875
950.37278	5122.4875
954.13371	5148.3875
957.89203	5121.7875
961.64774	5140.8875
965.40086	5113.4875
969.15137	5082.9875
972.89929	5123.4875
976.64461	5092.5875
980.38733	5110.3875
984.12747	5089.5875
987.86502	5109.1875
991.59999	5131.1875
995.33237	5203.9875
999.06217	5270.7875
1002.78939	5389.4875
1006.51404	5629.6875
1010.23611	5746.4875
1013.95561	5676.4875
1017.67255	5570.6875
1021.38692	5452.2875
1025.09872	5351.7875
1028.80796	5268.9875
1032.51465	5296.5875
1036.21877	5319.5875
1039.92035	5390.7875
1043.61937	5440.7875
1047.31584	5495.5875
1051.00976	5529.3875
1054.70114	5483.9875
1058.38998	5465.8875
1062.07627	5465.7875
1065.76003	5472.8875
1069.44126	5537.2875
1073.11995	5655.2875
1076.79611	5887.9875
1080.46974	6229.8875
1084.14085	6735.9875
1087.80943	7128.8875
1091.47549	7129.5875
1095.13903	6749.6875
1098.80005	6405.0875
1102.45857	6257.7875
1106.11456	6226.7875
1109.76805	6213.9875
1113.41903	6467.4875
1117.06751	6870.8875
1120.71348	7539.3875
1124.35696	8563.5875
1127.99793	9269.0875
1131.63641	8713.8875
1135.2724	7598.7875
1138.90589	6841.9875
1142.5369	6406.1875
1146.16542	6128.3875
1149.79145	5954.0875
1153.415	5872.8875
1157.03607	5903.2875
1160.65467	6037.5875
1164.27079	6340.2875
1167.88443	6752.0875
1171.49561	7450.2875
1175.10432	8687.0875
1178.71056	10411.0875
1182.31434	11613.7875
1185.91565	11539.4875
1189.51451	10481.7875
1193.11091	9381.3875
1196.70485	8681.6875
1200.29634	8358.8875
1203.88538	7985.0875
1207.47197	7271.6875
1211.05612	6607.6875
1214.63782	6155.7875
1218.21708	5930.8875
1221.79391	5847.5875
1225.36829	5797.8875
1228.94024	5807.1875
1232.50976	5813.5875
1236.07685	5829.4875
1239.6415	5873.7875
1243.20374	5935.2875
1246.76355	6081.6875
1250.32093	6210.7875
1253.8759	6400.4875
1257.42845	6768.4875
1260.97859	7241.5875
1264.52631	7729.2875
1268.07163	7974.1875
1271.61453	8011.7875
1275.15503	7889.7875
1278.69312	7685.3875
1282.22882	7812.3875
1285.76211	8418.1875
1289.29301	9219.1875
1292.82151	9771.1875
1296.34761	10035.9875
1299.87133	10596.1875
1303.39266	11981.7875
1306.9116	14693.8875
1310.42815	17935.4875
1313.94233	19018.3875
1317.45412	16617.8875
1320.96354	13137.1875
1324.47058	10491.3875
1327.97525	8846.4875
1331.47754	7968.8875
1334.97747	7649.0875
1338.47502	7777.4875
1341.97022	8476.3875
1345.46305	9992.9875
1348.95352	12095.1875
1352.44163	14282.2875
1355.92738	16803.8875
1359.41078	21151.3875
1362.89183	25833.3875
1366.37053	24757.1875
1369.84688	18032.6875
1373.32088	12369.6875
1376.79254	9904.7875
1380.26186	8789.6875
1383.72883	7939.3875
1387.19347	7134.7875
1390.65578	6516.6875
1394.11575	6159.6875
1397.57339	5967.6875
1401.0287	5846.0875
1404.48168	5754.1875
1407.93234	5742.1875
1411.38068	5819.3875
1414.82669	6107.5875
1418.27039	6407.9875
1421.71177	6473.9875
1425.15083	6345.9875
1428.58758	6307.7875
1432.02203	6563.8875
1435.45416	6801.8875
1438.88399	6593.8875
1442.31151	6358.2875
1445.73673	6316.3875
1449.15965	6308.7875
1452.58027	6211.0875
1455.9986	6100.6875
1459.41463	6014.6875
1462.82837	6036.8875
1466.23982	6182.6875
1469.64898	6451.6875
1473.05586	6544.4875
1476.46045	6567.3875
1479.86276	6620.2875
1483.26279	6819.2875
1486.66054	7268.4875
1490.05602	7947.0875
1493.44922	9068.5875
1496.84016	10840.6875
1500.22882	13516.7875
1503.61521	17200.6875
1506.99934	21863.8875
1510.38121	26279.4875
1513.76081	27779.2875
1517.13816	24724.5875
1520.51324	19051.5875
1523.88607	14029.7875
1527.25665	10842.6875
1530.62498	9061.8875
1533.99105	8035.6875
1537.35488	7372.4875
1540.71647	6983.0875
1544.07581	6838.7875
1547.4329	6808.6875
1550.78776	6933.8875
1554.14038	7148.8875
1557.49077	7475.4875
1560.83892	8098.1875
1564.18484	9053.4875
1567.52853	10075.9875
1570.86999	10766.4875
1574.20922	10886.4875
1577.54624	10468.3875
1580.88103	9225.6875
1584.2136	7704.8875
1587.54395	6813.3875
1590.87208	6596.7875
1594.19801	6867.1875
1597.52172	7382.5875
1600.84321	7414.1875
1604.16251	6882.5875
1607.47959	6373.1875
1610.79447	6054.6875
1614.10715	5786.9875
1617.41763	5559.5875
1620.7259	5426.5875
1624.03199	5432.0875
1627.33587	5511.4875
1630.63757	5762.8875
1633.93707	6216.2875
1637.23439	7046.3875
1640.52951	8562.6875
1643.82246	11127.0875
1647.11321	14521.1875
1650.40179	17213.2875
1653.68819	16893.0875
1656.97241	13703.3875
1660.25446	10056.8875
1663.53433	7566.4875
1666.81203	6195.1875
1670.08756	5497.1875
1673.36092	5137.1875
1676.63211	4876.5875
1679.90115	4724.7875
1683.16801	4612.2875
1686.43272	4515.6875
1689.69527	4468.1875
1692.95567	4394.7875
1696.2139	4371.3875
1699.46999	4314.7875
1702.72392	4309.4875
1705.97571	4325.9875
1709.22535	4288.3875
1712.47284	4348.0875
1715.71819	4379.3875
1718.96139	4385.3875
1722.20246	4353.5875
1725.44139	4324.5875
1728.67818	4258.0875
1731.91284	4205.1875
1735.14537	4165.9875
1738.37576	4135.1875
1741.60403	4116.4875
1744.83017	4085.8875
1748.05418	4085.7875
1751.27607	4073.5875
1754.49584	4037.4875
1757.71349	3965.0875
1760.92903	3963.2875
1764.14244	3910.5875
1767.35375	3887.3875
1770.56294	3854.5875
1773.77002	3838.9875
1776.97499	3828.4875
1780.17785	3803.6875
1783.37861	3784.3875
1786.57727	3791.8875
1789.77382	3730.2875
1792.96828	3758.4875
1796.16064	3759.7875
1799.3509	3753.2875
1802.53907	3772.1875
1805.72514	3722.2875
1808.90913	3704.0875
1812.09102	3709.2875
1815.27083	3690.6875
1818.44856	3668.8875
1821.6242	3662.8875
1824.79776	3656.2875
1827.96924	3635.9875
1831.13864	3609.2875
1834.30597	3627.1875
1837.47122	3595.2875
1840.6344	3565.6875
1843.7955	3544.1875
1846.95454	3532.3875
1850.11151	3549.1875
1853.26642	3507.1875
1856.41926	3523.3875
1859.57004	3522.9875
1862.71876	3519.2875
1865.86542	3525.4875
1869.01003	3530.3875
1872.15258	3505.0875
1875.29308	3531.7875
1878.43152	3520.2875
1881.56792	3505.5875
1884.70227	3484.0875
1887.83457	3490.3875
1890.96482	3453.2875
1894.09304	3454.1875
1897.21921	3454.8875
1900.34335	3458.7875
1903.46544	3429.1875
1906.58551	3454.5875
1909.70353	3440.1875
1912.81953	3438.5875
1915.93349	3419.5875
1919.04543	3410.1875
1922.15534	3391.6875
1925.26322	3387.1875
1928.36908	3365.0875
1931.47292	3363.3875
1934.57473	3335.8875
1937.67453	3308.4875
1940.77232	3282.6875
1943.86808	3275.1875
1946.96184	3268.8875
1950.05358	3241.3875
1953.14331	3226.8875
1956.23103	3236.3875
1959.31675	3220.0875
1962.40046	3166.1875
1965.48217	3224.3875
1968.56188	3222.4875
1971.63959	3213.0875
1974.7153	3212.4875
1977.78901	3203.2875
1980.86073	3190.7875
1983.93046	3151.8875
1986.99819	3053.9875
1990.06394	3077.7875
1993.1277	3094.3875
1996.18947	3067.8875
1999.24925	3042.8875
2002.30706	3044.6875
2005.36288	3025.2875
2008.41672	3019.8875
2011.46859	2997.8875
2014.51848	2976.9875
2017.56639	2964.9875
2020.61233	2951.6875
2023.6563	2955.9875
2026.6983	2915.0875
2029.73833	2921.1875
2032.7764	2940.3875
2035.8125	2899.7875
2038.84664	2895.9875
2041.87881	2882.8875
2044.90903	2889.6875
2047.93729	2883.6875
2050.96359	2857.5875
2053.98794	2855.1875
2057.01034	2860.7875
2060.03078	2843.8875
2063.04927	2826.4875
2066.06582	2829.0875
2069.08042	2816.3875
2072.09307	2812.2875
2075.10378	2818.0875
2078.11255	2808.6875
2081.11938	2808.6875
2084.12426	2806.0875
2087.12722	2799.4875
2090.12824	2794.5875
2093.12732	2795.6875
2096.12447	2792.5875
2099.11969	2788.4875
2102.11299	2801.5875
2105.10435	2813.4875
2108.09379	2795.0875
2111.08131	2791.6875
2114.0669	2788.1875
2117.05057	2800.3875
2120.03233	2784.9875
2123.01216	2831.4875
2125.99008	2829.9875
2128.96609	2834.4875
2131.94018	2841.8875
2134.91236	2829.1875
2137.88263	2811.8875
2140.851	2800.9875
2143.81746	2818.6875
2146.78201	2790.5875
2149.74466	2768.8875
2152.7054	2793.4875
2155.66425	2767.1875
2158.6212	2760.6875
2161.57625	2729.2875
2164.52941	2715.7875
2167.48067	2719.0875
2170.43004	2730.8875
2173.37752	2739.0875
2176.32311	2743.2875
2179.26681	2754.0875
2182.20863	2754.8875
2185.14856	2758.9875
2188.08661	2739.3875
2191.02278	2753.3875
2193.95707	2716.5875
2196.88948	2701.3875
2199.82001	2717.4875
2202.74867	2686.4875
2205.67545	2708.6875
2208.60037	2711.5875
2211.52341	2692.8875
2214.44458	2679.2875
2217.36388	2680.3875
2220.28132	2670.0875
2223.1969	2645.0875
2226.11061	2651.6875
2229.02246	2636.2875
2231.93245	2640.3875
2234.84058	2614.2875
2237.74686	2624.7875
2240.65128	2596.5875
2243.55385	2614.2875
2246.45456	2608.2875
2249.35343	2619.4875
2252.25044	2617.5875
2255.14561	2633.5875
2258.03893	2640.3875
2260.93041	2660.8875
2263.82004	2642.1875
2266.70783	2653.2875
2269.59378	2626.9875
2272.4779	2614.3875
2275.36017	2634.8875
2278.24061	2602.0875
2281.11922	2580.6875
2283.996	2592.5875
2286.87094	2559.7875
2289.74405	2563.7875
2292.61534	2554.4875
2295.4848	2539.5875
2298.35243	2534.6875
2301.21824	2524.5875
2304.08223	2513.7875
2306.94439	2525.9875
2309.80474	2533.8875
2312.66327	2519.3875
2315.51999	2497.3875
2318.37489	2504.8875
2321.22797	2477.6875
2324.07925	2481.3875
2326.92871	2468.6875
2329.77637	2465.3875
2332.62222	2469.5875
2335.46626	2441.4875
2338.3085	2451.6875
2341.14893	2459.6875
2343.98756	2469.3875
2346.8244	2458.7875
2349.65943	2444.3875
2352.49267	2454.3875
2355.32411	2472.6875
2358.15376	2473.2875
2360.98161	2481.0875
2363.80768	2476.4875
2366.63195	2498.4875
2369.45444	2505.1875
2372.27514	2507.7875
2375.09405	2514.1875
2377.91118	2474.3875
2380.72652	2478.2875
2383.54009	2458.1875
2386.35187	2463.8875
2389.16188	2429.0875
2391.97011	2426.9875
2394.77657	2405.4875
2397.58125	2400.9875
2400.38416	2393.4875
2403.18529	2381.8875
2405.98466	2364.2875
2408.78226	2362.5875
2411.57809	2354.8875
2414.37216	2348.4875
2417.16446	2351.2875
2419.955	2327.6875
2422.74378	2349.1875
2425.5308	2341.9875
2428.31606	2348.2875
2431.09956	2355.2875
2433.88131	2329.0875
2436.6613	2354.9875
2439.43954	2352.0875
2442.21603	2343.3875
2444.99077	2342.5875
2447.76377	2367.4875
2450.53501	2356.1875
2453.30451	2347.5875
2456.07226	2360.4875
2458.83827	2351.4875
2461.60254	2310.1875
2464.36507	2345.1875
2467.12586	2313.5875
2469.88492	2316.7875
2472.64224	2332.7875
2475.39782	2311.0875
2478.15167	2330.3875
2480.90379	2342.2875
2483.65417	2356.9875
2486.40283	2380.9875
2489.14976	2384.5875
2491.89497	2369.0875
2494.63845	2375.3875
2497.3802	2364.0875
2500.12024	2355.5875
2502.85855	2341.1875
2505.59514	2328.8875
2508.33002	2309.0875
2511.06318	2272.0875
2513.79462	2272.6875
2516.52435	2226.8875
2519.25237	2198.7875
2521.97867	2198.4875
2524.70327	2190.4875
2527.42616	2188.2875
2530.14734	2204.2875
2532.86681	2173.5875
2535.58458	2177.3875
2538.30065	2168.5875
2541.01501	2197.6875
2543.72768	2170.3875
2546.43864	2177.7875
2549.14791	2166.8875
2551.85548	2152.2875
2554.56136	2169.6875
2557.26554	2172.7875
2559.96803	2178.6875
2562.66883	2182.2875
2565.36794	2161.6875
2568.06536	2140.6875
2570.7611	2162.5875
2573.45514	2153.3875
2576.14751	2141.3875
2578.83819	2136.8875
2581.52719	2110.6875
2584.21451	2128.1875
2586.90015	2096.5875
2589.58411	2088.5875
2592.2664	2103.4875
2594.94701	2100.1875
2597.62594	2102.1875
2600.30321	2037.9875
2602.9788	2059.4875
2605.65273	2053.9875
2608.32498	2076.9875
2610.99557	2079.0875
2613.66449	2053.0875
2616.33175	2071.1875
2618.99734	2065.2875
2621.66128	2065.1875
2624.32355	2060.4875
2626.98416	2042.5875
2629.64311	2035.1875
2632.30041	2022.5875
2634.95605	2000.4875
2637.61004	1993.7875
2640.26238	1964.4875
2642.91306	1971.8875
2645.56209	1990.2875
2648.20948	1982.5875
2650.85521	1967.1875
2653.4993	1996.3875
2656.14175	1974.5875
2658.78255	1967.6875
2661.42171	1945.1875
2664.05923	1990.5875
2666.6951	2006.6875
2669.32934	2007.6875
2671.96194	2019.6875
2674.59291	1999.1875
2677.22224	2001.9875
2679.84993	2007.4875
2682.476	1995.9875
2685.10043	1981.5875
2687.72324	1983.1875
2690.34441	1981.7875
2692.96396	1960.7875
2695.58188	1982.6875
2698.19818	1961.8875
2700.81285	1967.2875
2703.4259	1949.4875
2706.03733	1928.8875
2708.64714	1935.5875
2711.25533	1960.6875
2713.86191	1969.5875
2716.46687	1964.3875
2719.07021	1962.3875
2721.67194	1961.8875
2724.27206	1973.1875
2726.87057	1952.8875
2729.46747	1947.7875
2732.06276	1942.3875
2734.65644	1922.9875
2737.24852	1927.2875
2739.83899	1906.5875
2742.42786	1905.7875
2745.01513	1906.3875
2747.60079	1884.8875
2750.18486	1874.8875
2752.76733	1894.5875
2755.3482	1868.8875
2757.92747	1878.8875
2760.50515	1857.9875
2763.08123	1854.6875
2765.65573	1848.7875
2768.22863	1847.5875
2770.79994	1828.8875
2773.36967	1820.8875
2775.9378	1820.0875
2778.50435	1830.2875
2781.06932	1824.4875
2783.6327	1813.6875
2786.1945	1841.0875
2788.75471	1822.3875
2791.31335	1826.7875
2793.87041	1820.3875
2796.42589	1811.5875
2798.97979	1811.6875
2801.53212	1814.4875
2804.08288	1834.8875
2806.63206	1821.4875
2809.17967	1808.4875
2811.72571	1833.0875
2814.27018	1842.4875
2816.81308	1827.8875
2819.35442	1798.5875
2821.89419	1837.3875
2824.43239	1822.7875
2826.96904	1865.6875
2829.50412	1832.8875
2832.03763	1830.3875
2834.56959	1833.2875
2837.1	1818.0875
2839.62884	1802.4875
2842.15613	1799.3875
2844.68186	1814.0875
2847.20604	1788.3875
2849.72867	1794.1875
2852.24974	1795.4875
2854.76927	1781.6875
2857.28724	1739.4875
2859.80367	1813.3875
2862.31855	1817.9875
2864.83189	1818.2875
2867.34368	1837.1875
2869.85393	1845.4875
2872.36264	1825.3875
2874.8698	1834.6875
2877.37543	1838.4875
2879.87952	1821.5875
2882.38207	1784.8875
2884.88308	1800.8875
2887.38256	1801.9875
2889.88051	1778.0875
2892.37692	1773.1875
2894.8718	1758.1875
2897.36515	1775.6875
2899.85698	1770.1875
2902.34727	1758.5875
2904.83604	1782.5875
2907.32328	1796.5875
2909.809	1808.0875
2912.29319	1798.1875
2914.77587	1815.5875
2917.25702	1826.5875
2919.73665	1824.8875
2922.21476	1809.2875
2924.69136	1805.5875
2927.16644	1774.7875
2929.64	1768.4875
2932.11205	1748.7875
2934.58258	1743.7875
2937.05161	1724.9875
2939.51912	1742.7875
2941.98513	1741.8875
2944.44962	1733.6875
2946.91261	1709.6875
2949.37409	1723.4875
2951.83407	1723.4875
2954.29254	1726.3875
2956.74951	1729.8875
2959.20498	1717.0875
2961.65895	1705.6875
2964.11142	1710.7875
2966.56239	1709.7875
2969.01186	1708.0875
2971.45984	1707.7875
2973.90632	1693.0875
2976.35131	1712.3875
2978.7948	1708.7875
2981.23681	1697.1875
2983.67732	1709.3875
2986.11635	1707.0875
2988.55388	1675.3875
2990.98993	1695.5875
2993.4245	1685.9875
2995.85758	1683.4875
2998.28917	1682.7875
3000.71928	1678.5875
3003.14791	1667.9875
3005.57506	1658.9875
3008.00073	1651.9875
3010.42493	1595.2875
3012.84764	1650.7875
3015.26888	1656.2875
3017.68865	1634.5875
3020.10694	1602.9875
3022.52376	1625.7875
3024.9391	1624.3875
3027.35298	1604.1875
3029.76539	1587.6875
3032.17632	1589.3875
3034.5858	1572.5875
3036.9938	1577.9875
3039.40034	1564.8875
3041.80542	1541.2875
3044.20903	1530.2875
3046.61118	1521.0875
3049.01187	1533.7875
3051.4111	1504.2875
3053.80888	1510.9875
3056.20519	1503.5875
3058.60005	1496.6875
3060.99345	1505.7875
3063.3854	1487.4875
3065.7759	1488.4875
3068.16494	1469.8875
3070.55254	1460.5875
3072.93868	1481.2875
3075.32338	1472.6875
3077.70662	1458.6875
3080.08842	1455.8875
3082.46878	1448.8875
3084.84769	1470.6875
3087.22515	1441.4875
3089.60118	1453.2875
3091.97576	1445.2875
3094.3489	1445.8875
3096.72061	1435.6875
3099.09087	1430.4875
3101.4597	1438.3875
3103.82709	1426.1875
3106.19305	1415.2875
3108.55757	1425.0875
3110.92066	1407.5875
3113.28232	1431.2875
3115.64255	1428.1875
3118.00134	1432.9875
3120.35871	1410.1875
3122.71466	1401.1875
3125.06917	1403.4875
3127.42226	1396.7875
3129.77393	1382.3875
3132.12417	1399.1875
3134.47299	1400.5875
3136.82039	1383.5875
3139.16636	1368.3875
3141.51092	1387.0875
3143.85406	1395.2875
3146.19579	1378.2875
3148.53609	1381.9875
3150.87499	1385.8875
3153.21246	1390.3875
3155.54853	1392.5875
3157.88318	1388.1875
3160.21642	1392.5875
3162.54826	1380.0875
3164.87868	1386.5875
3167.2077	1346.5875
3169.5353	1362.2875
3171.86151	1378.5875
3174.18631	1359.3875
3176.5097	1352.4875
3178.83169	1354.1875
3181.15228	1355.4875
3183.47147	1331.0875
3185.78926	1311.9875
3188.10565	1330.0875
3190.42065	1311.7875
3192.73424	1322.2875
3195.04645	1312.8875
3197.35725	1299.6875
3199.66667	1313.1875
3201.97469	1313.4875
3204.28132	1297.9875
3206.58656	1315.2875
3208.8904	1328.2875
3211.19287	1319.6875
3213.49394	1306.9875
3215.79363	1312.4875
3218.09193	1324.6875
3220.38884	1317.2875
3222.68438	1305.0875
3224.97853	1298.9875
3227.2713	1315.8875
3229.56269	1292.5875
3231.8527	1299.7875
3234.14133	1287.8875
3236.42858	1287.9875
3238.71446	1261.3875
3240.99896	1290.1875
3243.28209	1265.0875
3245.56384	1277.1875
3247.84423	1265.1875
3250.12324	1278.0875
3252.40088	1270.2875
3254.67715	1256.0875
3256.95205	1249.6875
3259.22558	1264.9875
3261.49775	1257.2875
3263.76855	1256.4875
3266.03799	1263.5875
3268.30606	1262.8875
3270.57277	1268.2875
3272.83812	1250.4875
3275.10211	1245.8875
3277.36474	1272.0875
3279.62601	1267.1875
3281.88593	1241.5875
3284.14448	1229.2875
3286.40168	1254.3875
3288.65753	1244.3875
3290.91202	1251.8875
3293.16516	1244.0875
3295.41695	1272.0875
3297.66738	1278.9875
3299.91647	1260.9875
3302.16421	1260.8875
3304.4106	1222.5875
3306.65564	1256.6875
3308.89933	1225.0875
3311.14169	1228.4875
3313.38269	1222.2875
3315.62236	1208.2875
3317.86068	1200.0875
3320.09766	1212.0875
3322.3333	1183.3875
3324.5676	1184.9875
3326.80056	1162.4875
3329.03219	1173.9875
3331.26248	0.4875
3333.49143	-0.7125
3335.71905	-0.5125
