Data from AgNPs_UA_5uM_CRN_500uM_SU_RamanShift__217__12-05-33-183.txt Node

Date: Thu Aug 04 12:05:33 BST 2022
User: TCL
Spectrometer: QEP01345
Trigger mode: 4
Integration Time (sec): 1.000000E0
Scans to average: 10
Electric dark correction enabled: true
Nonlinearity correction enabled: false
Boxcar width: 0
XAxis mode: Raman Shifts
Number of Pixels in Spectrum: 1044
>>>>>Begin Spectral Data<<<<<
46.04893	0.3875
50.45542	-0.1125
54.85868	0.6875
59.25871	-1.7125
63.6555	-59.2125
68.04907	-39.2125
72.43941	-70.7125
76.82654	-56.0125
81.21044	-57.6125
85.59113	-48.2125
89.96862	-75.4125
94.34289	-56.2125
98.71396	-77.9125
103.08183	-58.0125
107.4465	-49.7125
111.80798	-56.6125
116.16626	-43.0125
120.52136	-75.1125
124.87327	-49.2125
129.222	-63.0125
133.56755	-51.7125
137.90993	-62.7125
142.24913	-51.8125
146.58517	-43.8125
150.91804	-42.2125
155.24774	-27.5125
159.57429	-10.8125
163.89768	-8.7125
168.21792	35.2875
172.53501	54.8875
176.84895	133.7875
181.15975	264.8875
185.46741	408.6875
189.77193	591.9875
194.07331	875.5875
198.37157	1146.5875
202.6667	1435.8875
206.9587	1738.2875
211.24758	2048.3875
215.53334	2357.4875
219.81599	2711.5875
224.09553	3117.8875
228.37195	3548.6875
232.64527	3992.4875
236.91549	4449.1875
241.18261	4802.5875
245.44663	5070.5875
249.70755	5233.2875
253.96539	5358.6875
258.22014	5466.7875
262.4718	5523.9875
266.72039	5558.4875
270.96589	5540.4875
275.20832	5448.4875
279.44768	5330.1875
283.68397	5229.9875
287.91719	5195.6875
292.14735	5218.0875
296.37445	5391.9875
300.59849	5681.7875
304.81948	6020.7875
309.03742	6390.2875
313.25231	6607.5875
317.46415	6560.5875
321.67296	6177.9875
325.87872	5785.4875
330.08145	5584.2875
334.28114	5554.9875
338.47781	5609.2875
342.67145	5751.5875
346.86207	5963.0875
351.04966	6332.1875
355.23424	6710.8875
359.4158	6983.8875
363.59435	7019.6875
367.76989	6949.9875
371.94243	6816.5875
376.11196	6685.8875
380.27849	6629.3875
384.44203	6562.6875
388.60257	6534.0875
392.76012	6512.6875
396.91468	6645.3875
401.06626	6793.9875
405.21485	6822.7875
409.36047	6694.6875
413.50311	6363.7875
417.64277	6063.2875
421.77947	5864.1875
425.9132	5778.0875
430.04396	5773.0875
434.17176	5820.0875
438.2966	5903.3875
442.41849	5984.7875
446.53742	6103.8875
450.6534	6212.1875
454.76644	6273.6875
458.87653	6293.9875
462.98368	6247.1875
467.08789	6172.1875
471.18916	6096.5875
475.2875	5972.1875
479.38291	5878.6875
483.4754	5794.2875
487.56496	5738.3875
491.6516	5695.1875
495.73531	5690.3875
499.81612	5743.3875
503.89401	5827.1875
507.96899	5874.3875
512.04106	5969.5875
516.11023	6055.5875
520.1765	6154.9875
524.23987	6172.7875
528.30034	6167.0875
532.35792	6084.3875
536.41261	6040.6875
540.46441	5947.6875
544.51333	5891.1875
548.55936	5917.1875
552.60252	6078.9875
556.64279	6151.0875
560.6802	6278.5875
564.71473	6431.5875
568.7464	6600.3875
572.7752	6569.0875
576.80114	6270.4875
580.82422	6042.2875
584.84444	5955.7875
588.86181	5914.7875
592.87633	5963.8875
596.888	6072.8875
600.89682	6450.7875
604.9028	7386.0875
608.90594	9453.3875
612.90624	11778.7875
616.90371	10926.0875
620.89834	7885.9875
624.89015	6571.8875
628.87913	6344.4875
632.86528	6500.3875
636.84862	6674.5875
640.82913	6547.6875
644.80683	6215.2875
648.78172	6020.1875
652.75379	6051.7875
656.72306	6277.9875
660.68952	6520.3875
664.65319	6442.1875
668.61405	6198.9875
672.57211	6131.3875
676.52738	6126.8875
680.47986	6026.2875
684.42955	5940.0875
688.37646	5886.2875
692.32058	5891.7875
696.26192	5962.0875
700.20048	6076.8875
704.13626	6117.8875
708.06928	6055.9875
711.99952	6037.7875
715.927	5994.8875
719.85171	6058.4875
723.77365	6093.5875
727.69284	6070.3875
731.60928	6043.1875
735.52295	6024.1875
739.43388	6057.6875
743.34206	6096.4875
747.24749	6107.7875
751.15017	6119.6875
755.05012	6182.5875
758.94733	6569.3875
762.8418	7406.1875
766.73354	8720.6875
770.62254	9728.7875
774.50882	9805.5875
778.39237	9274.6875
782.27321	8354.1875
786.15132	7331.6875
790.02671	6629.7875
793.89938	6269.3875
797.76935	6149.4875
801.6366	6063.1875
805.50115	6020.7875
809.36299	6010.1875
813.22213	6016.8875
817.07857	6011.3875
820.93231	5994.5875
824.78336	6039.5875
828.63172	6045.6875
832.47738	6038.5875
836.32036	6058.4875
840.16066	6015.1875
843.99827	5985.7875
847.8332	5983.9875
851.66546	6017.4875
855.49504	6018.4875
859.32195	6043.9875
863.1462	6025.9875
866.96777	6035.6875
870.78668	6021.1875
874.60293	6050.9875
878.41652	6081.4875
882.22745	6147.9875
886.03573	6150.3875
889.84136	6170.0875
893.64433	6158.7875
897.44466	6130.0875
901.24235	6140.3875
905.0374	6144.4875
908.8298	6090.3875
912.61957	6034.5875
916.40671	5992.0875
920.19121	6055.9875
923.97308	6147.1875
927.75233	6203.0875
931.52895	6249.4875
935.30295	6237.2875
939.07433	6098.9875
942.84309	5964.0875
946.60924	5951.5875
950.37278	5903.3875
954.13371	5946.2875
957.89203	5896.7875
961.64774	5915.6875
965.40086	5891.1875
969.15137	5884.4875
972.89929	5909.1875
976.64461	5896.6875
980.38733	5932.9875
984.12747	5907.2875
987.86502	5937.4875
991.59999	5957.2875
995.33237	6029.5875
999.06217	6099.0875
1002.78939	6154.1875
1006.51404	6304.7875
1010.23611	6410.1875
1013.95561	6443.8875
1017.67255	6453.1875
1021.38692	6443.2875
1025.09872	6376.8875
1028.80796	6290.1875
1032.51465	6301.0875
1036.21877	6283.0875
1039.92035	6328.0875
1043.61937	6373.0875
1047.31584	6402.6875
1051.00976	6460.0875
1054.70114	6463.2875
1058.38998	6448.9875
1062.07627	6450.2875
1065.76003	6497.5875
1069.44126	6568.5875
1073.11995	6640.2875
1076.79611	6769.9875
1080.46974	6924.2875
1084.14085	7062.8875
1087.80943	7188.4875
1091.47549	7257.2875
1095.13903	7159.0875
1098.80005	7027.7875
1102.45857	6935.9875
1106.11456	6909.2875
1109.76805	6841.9875
1113.41903	6968.7875
1117.06751	7126.5875
1120.71348	7385.0875
1124.35696	7765.6875
1127.99793	8030.8875
1131.63641	7896.4875
1135.2724	7484.0875
1138.90589	7184.9875
1142.5369	6994.7875
1146.16542	6890.9875
1149.79145	6770.6875
1153.415	6744.2875
1157.03607	6748.7875
1160.65467	6819.5875
1164.27079	7043.5875
1167.88443	7284.7875
1171.49561	7734.1875
1175.10432	8323.8875
1178.71056	9207.3875
1182.31434	9991.0875
1185.91565	10259.4875
1189.51451	10112.3875
1193.11091	9854.8875
1196.70485	9600.3875
1200.29634	9357.7875
1203.88538	9086.2875
1207.47197	8658.2875
1211.05612	8191.1875
1214.63782	7769.9875
1218.21708	7522.1875
1221.79391	7386.9875
1225.36829	7306.2875
1228.94024	7301.7875
1232.50976	7322.4875
1236.07685	7351.3875
1239.6415	7373.5875
1243.20374	7378.1875
1246.76355	7425.8875
1250.32093	7502.5875
1253.8759	7577.7875
1257.42845	7714.8875
1260.97859	7925.7875
1264.52631	8178.1875
1268.07163	8311.4875
1271.61453	8459.9875
1275.15503	8495.7875
1278.69312	8491.7875
1282.22882	8573.8875
1285.76211	8770.7875
1289.29301	9016.9875
1292.82151	9275.7875
1296.34761	9496.5875
1299.87133	9908.1875
1303.39266	10583.1875
1306.9116	11707.8875
1310.42815	12955.1875
1313.94233	13374.7875
1317.45412	12596.2875
1320.96354	11457.2875
1324.47058	10455.4875
1327.97525	9713.9875
1331.47754	9307.9875
1334.97747	9212.8875
1338.47502	9330.2875
1341.97022	9667.3875
1345.46305	10396.3875
1348.95352	11485.6875
1352.44163	12772.7875
1355.92738	14110.0875
1359.41078	15750.8875
1362.89183	17274.3875
1366.37053	16626.9875
1369.84688	13845.5875
1373.32088	11151.4875
1376.79254	9770.5875
1380.26186	9072.2875
1383.72883	8685.3875
1387.19347	8307.6875
1390.65578	7914.1875
1394.11575	7689.8875
1397.57339	7530.3875
1401.0287	7418.7875
1404.48168	7374.3875
1407.93234	7405.7875
1411.38068	7416.3875
1414.82669	7493.5875
1418.27039	7557.6875
1421.71177	7584.7875
1425.15083	7480.6875
1428.58758	7398.2875
1432.02203	7415.5875
1435.45416	7493.3875
1438.88399	7508.6875
1442.31151	7481.4875
1445.73673	7554.1875
1449.15965	7597.7875
1452.58027	7609.5875
1455.9986	7615.9875
1459.41463	7630.6875
1462.82837	7738.1875
1466.23982	7895.3875
1469.64898	8106.7875
1473.05586	8270.6875
1476.46045	8346.1875
1479.86276	8430.5875
1483.26279	8535.8875
1486.66054	8706.2875
1490.05602	8995.1875
1493.44922	9562.0875
1496.84016	10414.5875
1500.22882	11792.9875
1503.61521	13480.9875
1506.99934	15263.3875
1510.38121	16457.2875
1513.76081	16337.2875
1517.13816	14759.2875
1520.51324	12653.2875
1523.88607	10968.2875
1527.25665	9980.1875
1530.62498	9461.6875
1533.99105	9272.9875
1537.35488	9150.4875
1540.71647	9025.9875
1544.07581	8920.5875
1547.4329	8792.4875
1550.78776	8669.0875
1554.14038	8577.2875
1557.49077	8528.3875
1560.83892	8642.5875
1564.18484	8870.7875
1567.52853	9212.4875
1570.86999	9529.4875
1574.20922	9649.7875
1577.54624	9544.0875
1580.88103	9037.8875
1584.2136	8370.4875
1587.54395	8001.1875
1590.87208	7918.8875
1594.19801	8080.6875
1597.52172	8442.3875
1600.84321	8574.1875
1604.16251	8422.1875
1607.47959	8258.1875
1610.79447	8083.6875
1614.10715	7770.7875
1617.41763	7499.3875
1620.7259	7214.9875
1624.03199	7077.1875
1627.33587	7006.5875
1630.63757	7039.0875
1633.93707	7290.4875
1637.23439	7676.0875
1640.52951	8369.2875
1643.82246	9333.0875
1647.11321	10482.0875
1650.40179	11182.3875
1653.68819	10904.4875
1656.97241	9644.4875
1660.25446	8277.2875
1663.53433	7263.7875
1666.81203	6670.8875
1670.08756	6356.5875
1673.36092	6192.5875
1676.63211	6009.1875
1679.90115	5945.1875
1683.16801	5830.5875
1686.43272	5751.9875
1689.69527	5716.8875
1692.95567	5651.6875
1696.2139	5643.6875
1699.46999	5597.5875
1702.72392	5591.4875
1705.97571	5600.7875
1709.22535	5578.7875
1712.47284	5600.7875
1715.71819	5638.2875
1718.96139	5631.0875
1722.20246	5599.9875
1725.44139	5566.7875
1728.67818	5551.3875
1731.91284	5506.7875
1735.14537	5478.0875
1738.37576	5438.1875
1741.60403	5420.1875
1744.83017	5391.1875
1748.05418	5399.8875
1751.27607	5412.6875
1754.49584	5357.4875
1757.71349	5326.7875
1760.92903	5331.1875
1764.14244	5262.8875
1767.35375	5287.4875
1770.56294	5267.3875
1773.77002	5257.5875
1776.97499	5262.2875
1780.17785	5246.6875
1783.37861	5225.9875
1786.57727	5257.8875
1789.77382	5165.2875
1792.96828	5210.8875
1796.16064	5214.0875
1799.3509	5193.6875
1802.53907	5200.0875
1805.72514	5178.1875
1808.90913	5147.2875
1812.09102	5147.2875
1815.27083	5130.7875
1818.44856	5117.6875
1821.6242	5125.8875
1824.79776	5107.7875
1827.96924	5092.3875
1831.13864	5083.7875
1834.30597	5081.7875
1837.47122	5055.1875
1840.6344	5056.0875
1843.7955	5032.4875
1846.95454	5022.4875
1850.11151	5042.8875
1853.26642	5000.9875
1856.41926	5005.9875
1859.57004	5011.6875
1862.71876	4998.8875
1865.86542	5005.2875
1869.01003	5001.9875
1872.15258	4970.8875
1875.29308	4989.8875
1878.43152	5001.9875
1881.56792	4968.0875
1884.70227	4963.4875
1887.83457	4958.4875
1890.96482	4925.2875
1894.09304	4922.6875
1897.21921	4929.8875
1900.34335	4923.7875
1903.46544	4911.4875
1906.58551	4920.9875
1909.70353	4908.1875
1912.81953	4890.9875
1915.93349	4880.8875
1919.04543	4874.9875
1922.15534	4850.5875
1925.26322	4863.5875
1928.36908	4849.7875
1931.47292	4844.8875
1934.57473	4851.8875
1937.67453	4810.1875
1940.77232	4803.9875
1943.86808	4788.8875
1946.96184	4782.3875
1950.05358	4761.9875
1953.14331	4739.0875
1956.23103	4743.4875
1959.31675	4702.7875
1962.40046	4675.4875
1965.48217	4685.8875
1968.56188	4663.4875
1971.63959	4672.9875
1974.7153	4655.1875
1977.78901	4646.5875
1980.86073	4632.3875
1983.93046	4583.0875
1986.99819	4521.4875
1990.06394	4537.3875
1993.1277	4549.5875
1996.18947	4542.1875
1999.24925	4494.8875
2002.30706	4506.6875
2005.36288	4502.9875
2008.41672	4469.9875
2011.46859	4451.4875
2014.51848	4441.4875
2017.56639	4423.8875
2020.61233	4408.1875
2023.6563	4404.7875
2026.6983	4344.6875
2029.73833	4367.3875
2032.7764	4378.4875
2035.8125	4322.3875
2038.84664	4340.9875
2041.87881	4315.1875
2044.90903	4322.3875
2047.93729	4307.5875
2050.96359	4297.3875
2053.98794	4301.2875
2057.01034	4301.0875
2060.03078	4271.0875
2063.04927	4269.4875
2066.06582	4261.9875
2069.08042	4249.8875
2072.09307	4275.3875
2075.10378	4261.1875
2078.11255	4245.8875
2081.11938	4251.5875
2084.12426	4240.3875
2087.12722	4235.3875
2090.12824	4232.0875
2093.12732	4246.3875
2096.12447	4239.4875
2099.11969	4232.0875
2102.11299	4217.2875
2105.10435	4247.1875
2108.09379	4248.1875
2111.08131	4229.5875
2114.0669	4233.1875
2117.05057	4224.0875
2120.03233	4222.3875
2123.01216	4248.1875
2125.99008	4260.8875
2128.96609	4235.6875
2131.94018	4260.5875
2134.91236	4256.1875
2137.88263	4229.1875
2140.851	4253.6875
2143.81746	4272.8875
2146.78201	4252.3875
2149.74466	4243.3875
2152.7054	4257.0875
2155.66425	4236.8875
2158.6212	4236.0875
2161.57625	4200.0875
2164.52941	4183.7875
2167.48067	4198.9875
2170.43004	4202.2875
2173.37752	4219.4875
2176.32311	4202.9875
2179.26681	4207.3875
2182.20863	4221.0875
2185.14856	4205.4875
2188.08661	4216.2875
2191.02278	4215.8875
2193.95707	4190.4875
2196.88948	4184.3875
2199.82001	4177.3875
2202.74867	4179.8875
2205.67545	4168.1875
2208.60037	4174.6875
2211.52341	4180.5875
2214.44458	4145.3875
2217.36388	4137.1875
2220.28132	4120.3875
2223.1969	4101.5875
2226.11061	4109.4875
2229.02246	4096.4875
2231.93245	4096.0875
2234.84058	4081.2875
2237.74686	4065.0875
2240.65128	4065.5875
2243.55385	4044.4875
2246.45456	4031.9875
2249.35343	4055.7875
2252.25044	4029.1875
2255.14561	4050.2875
2258.03893	4032.4875
2260.93041	4010.3875
2263.82004	4016.4875
2266.70783	4023.7875
2269.59378	4002.3875
2272.4779	3980.3875
2275.36017	3976.9875
2278.24061	3959.3875
2281.11922	3929.8875
2283.996	3965.4875
2286.87094	3927.7875
2289.74405	3945.3875
2292.61534	3924.8875
2295.4848	3923.2875
2298.35243	3913.8875
2301.21824	3899.0875
2304.08223	3904.8875
2306.94439	3893.1875
2309.80474	3914.2875
2312.66327	3893.9875
2315.51999	3885.3875
2318.37489	3875.5875
2321.22797	3854.0875
2324.07925	3859.1875
2326.92871	3840.2875
2329.77637	3824.8875
2332.62222	3821.7875
2335.46626	3792.6875
2338.3085	3807.6875
2341.14893	3817.2875
2343.98756	3812.6875
2346.8244	3804.0875
2349.65943	3793.9875
2352.49267	3799.2875
2355.32411	3798.5875
2358.15376	3792.6875
2360.98161	3802.3875
2363.80768	3786.7875
2366.63195	3800.5875
2369.45444	3798.6875
2372.27514	3799.9875
2375.09405	3786.1875
2377.91118	3752.2875
2380.72652	3761.9875
2383.54009	3761.7875
2386.35187	3770.4875
2389.16188	3725.6875
2391.97011	3724.9875
2394.77657	3720.6875
2397.58125	3720.2875
2400.38416	3699.1875
2403.18529	3700.9875
2405.98466	3674.0875
2408.78226	3670.6875
2411.57809	3676.6875
2414.37216	3645.9875
2417.16446	3652.5875
2419.955	3640.0875
2422.74378	3650.6875
2425.5308	3631.6875
2428.31606	3621.8875
2431.09956	3651.1875
2433.88131	3603.6875
2436.6613	3618.0875
2439.43954	3608.2875
2442.21603	3610.3875
2444.99077	3595.7875
2447.76377	3606.2875
2450.53501	3593.1875
2453.30451	3596.4875
2456.07226	3597.1875
2458.83827	3582.6875
2461.60254	3546.8875
2464.36507	3571.4875
2467.12586	3551.5875
2469.88492	3556.9875
2472.64224	3556.8875
2475.39782	3539.4875
2478.15167	3557.4875
2480.90379	3545.7875
2483.65417	3569.1875
2486.40283	3567.5875
2489.14976	3573.8875
2491.89497	3551.5875
2494.63845	3562.0875
2497.3802	3549.8875
2500.12024	3544.9875
2502.85855	3544.4875
2505.59514	3536.2875
2508.33002	3527.0875
2511.06318	3500.2875
2513.79462	3505.0875
2516.52435	3473.6875
2519.25237	3447.9875
2521.97867	3447.0875
2524.70327	3455.1875
2527.42616	3442.6875
2530.14734	3457.3875
2532.86681	3444.6875
2535.58458	3434.5875
2538.30065	3427.7875
2541.01501	3440.2875
2543.72768	3423.2875
2546.43864	3411.7875
2549.14791	3408.0875
2551.85548	3392.8875
2554.56136	3390.2875
2557.26554	3401.3875
2559.96803	3386.5875
2562.66883	3390.8875
2565.36794	3371.0875
2568.06536	3342.0875
2570.7611	3362.4875
2573.45514	3355.0875
2576.14751	3339.4875
2578.83819	3330.5875
2581.52719	3308.9875
2584.21451	3307.0875
2586.90015	3293.5875
2589.58411	3296.4875
2592.2664	3289.8875
2594.94701	3285.3875
2597.62594	3293.5875
2600.30321	3228.1875
2602.9788	3239.9875
2605.65273	3242.4875
2608.32498	3253.4875
2610.99557	3264.6875
2613.66449	3238.1875
2616.33175	3245.3875
2618.99734	3239.0875
2621.66128	3248.4875
2624.32355	3231.9875
2626.98416	3214.9875
2629.64311	3204.7875
2632.30041	3200.6875
2634.95605	3181.1875
2637.61004	3175.7875
2640.26238	3160.6875
2642.91306	3174.8875
2645.56209	3185.1875
2648.20948	3176.0875
2650.85521	3146.5875
2653.4993	3176.4875
2656.14175	3155.4875
2658.78255	3156.2875
2661.42171	3130.4875
2664.05923	3163.0875
2666.6951	3178.2875
2669.32934	3175.9875
2671.96194	3174.1875
2674.59291	3166.8875
2677.22224	3167.2875
2679.84993	3158.4875
2682.476	3150.6875
2685.10043	3148.4875
2687.72324	3144.5875
2690.34441	3146.6875
2692.96396	3127.0875
2695.58188	3147.4875
2698.19818	3148.7875
2700.81285	3138.4875
2703.4259	3118.8875
2706.03733	3092.5875
2708.64714	3097.2875
2711.25533	3125.6875
2713.86191	3126.8875
2716.46687	3132.3875
2719.07021	3117.0875
2721.67194	3115.9875
2724.27206	3135.4875
2726.87057	3122.5875
2729.46747	3104.0875
2732.06276	3112.9875
2734.65644	3100.5875
2737.24852	3093.0875
2739.83899	3086.9875
2742.42786	3086.7875
2745.01513	3088.1875
2747.60079	3070.9875
2750.18486	3049.1875
2752.76733	3068.0875
2755.3482	3058.7875
2757.92747	3058.1875
2760.50515	3020.9875
2763.08123	3027.2875
2765.65573	3044.7875
2768.22863	3030.9875
2770.79994	3016.0875
2773.36967	3021.0875
2775.9378	3013.0875
2778.50435	3003.8875
2781.06932	2997.7875
2783.6327	2988.0875
2786.1945	3014.0875
2788.75471	2986.7875
2791.31335	2987.2875
2793.87041	2984.2875
2796.42589	2958.7875
2798.97979	2951.0875
2801.53212	2953.1875
2804.08288	2970.9875
2806.63206	2950.0875
2809.17967	2931.9875
2811.72571	2943.9875
2814.27018	2938.0875
2816.81308	2924.0875
2819.35442	2885.8875
2821.89419	2908.3875
2824.43239	2890.1875
2826.96904	2926.2875
2829.50412	2895.5875
2832.03763	2907.0875
2834.56959	2897.5875
2837.1	2886.6875
2839.62884	2884.8875
2842.15613	2893.6875
2844.68186	2891.3875
2847.20604	2862.3875
2849.72867	2859.8875
2852.24974	2852.9875
2854.76927	2829.3875
2857.28724	2785.3875
2859.80367	2854.5875
2862.31855	2849.9875
2864.83189	2859.0875
2867.34368	2847.3875
2869.85393	2858.5875
2872.36264	2819.9875
2874.8698	2821.5875
2877.37543	2830.5875
2879.87952	2820.6875
2882.38207	2801.9875
2884.88308	2817.9875
2887.38256	2815.0875
2889.88051	2808.5875
2892.37692	2797.1875
2894.8718	2795.1875
2897.36515	2810.2875
2899.85698	2788.9875
2902.34727	2803.4875
2904.83604	2805.5875
2907.32328	2824.0875
2909.809	2816.7875
2912.29319	2821.4875
2914.77587	2824.7875
2917.25702	2839.0875
2919.73665	2829.9875
2922.21476	2836.5875
2924.69136	2821.9875
2927.16644	2813.1875
2929.64	2813.4875
2932.11205	2802.6875
2934.58258	2805.5875
2937.05161	2785.7875
2939.51912	2796.7875
2941.98513	2798.0875
2944.44962	2787.4875
2946.91261	2757.0875
2949.37409	2771.1875
2951.83407	2753.5875
2954.29254	2763.5875
2956.74951	2765.2875
2959.20498	2741.2875
2961.65895	2742.5875
2964.11142	2721.9875
2966.56239	2728.8875
2969.01186	2730.4875
2971.45984	2725.1875
2973.90632	2717.7875
2976.35131	2736.5875
2978.7948	2716.9875
2981.23681	2700.2875
2983.67732	2702.9875
2986.11635	2702.9875
2988.55388	2690.8875
2990.98993	2687.5875
2993.4245	2666.9875
2995.85758	2658.9875
2998.28917	2648.9875
3000.71928	2652.2875
3003.14791	2631.6875
3005.57506	2623.0875
3008.00073	2610.8875
3010.42493	2555.1875
3012.84764	2600.9875
3015.26888	2614.1875
3017.68865	2595.4875
3020.10694	2556.6875
3022.52376	2570.7875
3024.9391	2564.7875
3027.35298	2557.0875
3029.76539	2535.8875
3032.17632	2544.6875
3034.5858	2539.5875
3036.9938	2547.1875
3039.40034	2535.8875
3041.80542	2523.7875
3044.20903	2514.7875
3046.61118	2505.4875
3049.01187	2511.1875
3051.4111	2496.2875
3053.80888	2488.4875
3056.20519	2486.2875
3058.60005	2476.2875
3060.99345	2481.5875
3063.3854	2457.9875
3065.7759	2459.7875
3068.16494	2444.8875
3070.55254	2439.3875
3072.93868	2445.5875
3075.32338	2434.6875
3077.70662	2442.7875
3080.08842	2425.4875
3082.46878	2411.4875
3084.84769	2434.5875
3087.22515	2412.4875
3089.60118	2418.6875
3091.97576	2404.5875
3094.3489	2405.2875
3096.72061	2397.8875
3099.09087	2397.1875
3101.4597	2392.0875
3103.82709	2399.7875
3106.19305	2382.6875
3108.55757	2375.4875
3110.92066	2372.1875
3113.28232	2383.0875
3115.64255	2369.5875
3118.00134	2371.9875
3120.35871	2346.4875
3122.71466	2319.0875
3125.06917	2334.7875
3127.42226	2320.5875
3129.77393	2318.5875
3132.12417	2333.8875
3134.47299	2333.4875
3136.82039	2306.5875
3139.16636	2293.3875
3141.51092	2304.3875
3143.85406	2325.2875
3146.19579	2299.6875
3148.53609	2286.8875
3150.87499	2291.0875
3153.21246	2299.5875
3155.54853	2297.0875
3157.88318	2294.9875
3160.21642	2305.1875
3162.54826	2292.6875
3164.87868	2295.3875
3167.2077	2252.1875
3169.5353	2289.2875
3171.86151	2287.5875
3174.18631	2261.8875
3176.5097	2271.0875
3178.83169	2266.5875
3181.15228	2270.3875
3183.47147	2232.4875
3185.78926	2230.5875
3188.10565	2237.6875
3190.42065	2223.3875
3192.73424	2242.9875
3195.04645	2225.1875
3197.35725	2205.9875
3199.66667	2211.3875
3201.97469	2203.8875
3204.28132	2203.8875
3206.58656	2207.4875
3208.8904	2216.0875
3211.19287	2218.4875
3213.49394	2191.3875
3215.79363	2193.7875
3218.09193	2214.7875
3220.38884	2202.2875
3222.68438	2190.2875
3224.97853	2179.4875
3227.2713	2191.5875
3229.56269	2169.6875
3231.8527	2182.5875
3234.14133	2175.7875
3236.42858	2173.5875
3238.71446	2145.6875
3240.99896	2163.8875
3243.28209	2156.2875
3245.56384	2154.6875
3247.84423	2132.8875
3250.12324	2155.9875
3252.40088	2139.1875
3254.67715	2127.4875
3256.95205	2115.8875
3259.22558	2138.0875
3261.49775	2128.7875
3263.76855	2123.2875
3266.03799	2122.9875
3268.30606	2123.3875
3270.57277	2129.6875
3272.83812	2108.4875
3275.10211	2103.8875
3277.36474	2115.1875
3279.62601	2106.7875
3281.88593	2082.5875
3284.14448	2061.4875
3286.40168	2081.1875
3288.65753	2069.5875
3290.91202	2086.4875
3293.16516	2057.4875
3295.41695	2079.6875
3297.66738	2084.5875
3299.91647	2062.6875
3302.16421	2049.7875
3304.4106	2006.0875
3306.65564	2029.7875
3308.89933	1997.9875
3311.14169	1994.2875
3313.38269	1979.4875
3315.62236	1954.1875
3317.86068	1951.6875
3320.09766	1953.5875
3322.3333	1905.5875
3324.5676	1894.2875
3326.80056	1872.6875
3329.03219	1880.2875
3331.26248	-0.6125
3333.49143	-0.3125
3335.71905	0.8875
