Data from AgNPs_APTES_FTO_UA_100uM_CRN_0uM_R6G_10uM_Scan_RamanShift__20__12-27-23-527.txt Node

Date: Thu Jun 23 12:27:23 BST 2022
User: TCL
Spectrometer: QEP01345
Trigger mode: 4
Integration Time (sec): 7.000000E0
Scans to average: 10
Electric dark correction enabled: true
Nonlinearity correction enabled: false
Boxcar width: 0
XAxis mode: Raman Shifts
Number of Pixels in Spectrum: 1044
>>>>>Begin Spectral Data<<<<<
46.04893	-1.1125
50.45542	1.0875
54.85868	-1.0125
59.25871	-0.0125
63.6555	25.2875
68.04907	28.5875
72.43941	36.2875
76.82654	39.2875
81.21044	38.3875
85.59113	41.3875
89.96862	42.8875
94.34289	46.7875
98.71396	47.0875
103.08183	45.1875
107.4465	48.9875
111.80798	45.4875
116.16626	48.8875
120.52136	48.4875
124.87327	47.3875
129.222	44.5875
133.56755	48.3875
137.90993	46.1875
142.24913	47.4875
146.58517	43.3875
150.91804	46.3875
155.24774	53.1875
159.57429	53.7875
163.89768	63.0875
168.21792	72.1875
172.53501	87.6875
176.84895	108.2875
181.15975	145.3875
185.46741	199.6875
189.77193	256.6875
194.07331	336.6875
198.37157	431.5875
202.6667	528.0875
206.9587	635.0875
211.24758	732.9875
215.53334	818.7875
219.81599	927.1875
224.09553	1042.9875
228.37195	1149.6875
232.64527	1280.7875
236.91549	1415.7875
241.18261	1540.5875
245.44663	1653.6875
249.70755	1752.1875
253.96539	1824.1875
258.22014	1890.0875
262.4718	1931.8875
266.72039	1965.4875
270.96589	1977.2875
275.20832	1945.3875
279.44768	1919.1875
283.68397	1867.0875
287.91719	1826.7875
292.14735	1791.6875
296.37445	1788.0875
300.59849	1808.8875
304.81948	1818.2875
309.03742	1822.7875
313.25231	1822.0875
317.46415	1790.8875
321.67296	1725.5875
325.87872	1675.2875
330.08145	1652.3875
334.28114	1642.5875
338.47781	1645.2875
342.67145	1662.9875
346.86207	1689.5875
351.04966	1728.8875
355.23424	1782.2875
359.4158	1822.2875
363.59435	1841.9875
367.76989	1867.2875
371.94243	1874.8875
376.11196	1877.2875
380.27849	1889.0875
384.44203	1883.5875
388.60257	1876.4875
392.76012	1895.9875
396.91468	1905.4875
401.06626	1926.7875
405.21485	1934.4875
409.36047	1920.6875
413.50311	1869.4875
417.64277	1836.1875
421.77947	1802.6875
425.9132	1790.6875
430.04396	1790.4875
434.17176	1793.1875
438.2966	1822.3875
442.41849	1834.6875
446.53742	1871.5875
450.6534	1888.3875
454.76644	1909.9875
458.87653	1917.5875
462.98368	1902.6875
467.08789	1907.8875
471.18916	1895.4875
475.2875	1884.7875
479.38291	1872.9875
483.4754	1871.1875
487.56496	1882.4875
491.6516	1914.7875
495.73531	1925.9875
499.81612	1925.7875
503.89401	1926.8875
507.96899	1926.1875
512.04106	1939.1875
516.11023	1934.2875
520.1765	1937.2875
524.23987	1947.5875
528.30034	1945.3875
532.35792	1935.7875
536.41261	1925.6875
540.46441	1888.8875
544.51333	1864.4875
548.55936	1862.2875
552.60252	1874.3875
556.64279	1871.6875
560.6802	1881.8875
564.71473	1896.9875
568.7464	1904.6875
572.7752	1915.6875
576.80114	1908.0875
580.82422	1877.6875
584.84444	1905.8875
588.86181	1932.1875
592.87633	1945.6875
596.888	1972.9875
600.89682	2014.9875
604.9028	2133.7875
608.90594	2438.1875
612.90624	2828.1875
616.90371	2772.2875
620.89834	2352.3875
624.89015	2153.1875
628.87913	2147.0875
632.86528	2207.6875
636.84862	2241.5875
640.82913	2204.5875
644.80683	2110.4875
648.78172	2036.7875
652.75379	1984.1875
656.72306	1974.5875
660.68952	1989.9875
664.65319	1976.4875
668.61405	1934.2875
672.57211	1931.6875
676.52738	1955.8875
680.47986	1988.2875
684.42955	2028.2875
688.37646	2038.7875
692.32058	2014.3875
696.26192	1967.1875
700.20048	1930.8875
704.13626	1916.4875
708.06928	1890.4875
711.99952	1898.0875
715.927	1891.2875
719.85171	1909.6875
723.77365	1909.8875
727.69284	1918.3875
731.60928	1908.2875
735.52295	1903.4875
739.43388	1878.7875
743.34206	1879.7875
747.24749	1878.8875
751.15017	1875.4875
755.05012	1885.6875
758.94733	1913.7875
762.8418	1999.4875
766.73354	2162.7875
770.62254	2335.6875
774.50882	2433.4875
778.39237	2390.3875
782.27321	2215.5875
786.15132	2059.3875
790.02671	1963.4875
793.89938	1923.8875
797.76935	1918.8875
801.6366	1920.2875
805.50115	1952.1875
809.36299	1984.0875
813.22213	1982.3875
817.07857	1970.7875
820.93231	1928.8875
824.78336	1889.5875
828.63172	1865.4875
832.47738	1867.3875
836.32036	1858.7875
840.16066	1845.1875
843.99827	1858.8875
847.8332	1858.3875
851.66546	1851.8875
855.49504	1852.4875
859.32195	1856.0875
863.1462	1853.7875
866.96777	1861.8875
870.78668	1881.0875
874.60293	1905.3875
878.41652	1941.7875
882.22745	1981.7875
886.03573	2013.0875
889.84136	2021.5875
893.64433	2021.9875
897.44466	2000.4875
901.24235	1973.7875
905.0374	1959.5875
908.8298	1952.0875
912.61957	1966.5875
916.40671	1992.0875
920.19121	2032.9875
923.97308	2073.0875
927.75233	2101.1875
931.52895	2114.1875
935.30295	2075.3875
939.07433	2025.5875
942.84309	1969.0875
946.60924	1917.3875
950.37278	1881.4875
954.13371	1840.0875
957.89203	1811.6875
961.64774	1773.0875
965.40086	1757.7875
969.15137	1726.3875
972.89929	1709.6875
976.64461	1703.9875
980.38733	1679.2875
984.12747	1678.8875
987.86502	1672.6875
991.59999	1680.5875
995.33237	1676.8875
999.06217	1692.4875
1002.78939	1708.8875
1006.51404	1739.0875
1010.23611	1757.8875
1013.95561	1780.1875
1017.67255	1790.0875
1021.38692	1780.7875
1025.09872	1762.9875
1028.80796	1750.8875
1032.51465	1733.2875
1036.21877	1716.6875
1039.92035	1713.7875
1043.61937	1703.6875
1047.31584	1702.4875
1051.00976	1685.3875
1054.70114	1697.5875
1058.38998	1691.2875
1062.07627	1690.0875
1065.76003	1693.4875
1069.44126	1696.1875
1073.11995	1698.6875
1076.79611	1711.7875
1080.46974	1715.7875
1084.14085	1723.0875
1087.80943	1720.6875
1091.47549	1729.7875
1095.13903	1714.6875
1098.80005	1678.1875
1102.45857	1649.8875
1106.11456	1637.8875
1109.76805	1648.6875
1113.41903	1668.1875
1117.06751	1717.7875
1120.71348	1771.0875
1124.35696	1864.9875
1127.99793	1949.1875
1131.63641	2014.8875
1135.2724	2014.1875
1138.90589	1980.1875
1142.5369	1914.4875
1146.16542	1827.7875
1149.79145	1763.5875
1153.415	1711.8875
1157.03607	1681.6875
1160.65467	1665.2875
1164.27079	1679.5875
1167.88443	1713.2875
1171.49561	1770.7875
1175.10432	1875.8875
1178.71056	2017.2875
1182.31434	2140.6875
1185.91565	2184.4875
1189.51451	2141.4875
1193.11091	2081.2875
1196.70485	2016.3875
1200.29634	1981.2875
1203.88538	1936.6875
1207.47197	1872.4875
1211.05612	1804.2875
1214.63782	1745.8875
1218.21708	1710.7875
1221.79391	1689.2875
1225.36829	1682.5875
1228.94024	1671.7875
1232.50976	1666.4875
1236.07685	1667.7875
1239.6415	1659.9875
1243.20374	1662.5875
1246.76355	1667.7875
1250.32093	1678.9875
1253.8759	1684.1875
1257.42845	1709.1875
1260.97859	1733.7875
1264.52631	1764.2875
1268.07163	1802.2875
1271.61453	1835.4875
1275.15503	1859.3875
1278.69312	1876.9875
1282.22882	1886.0875
1285.76211	1884.2875
1289.29301	1937.3875
1292.82151	1990.6875
1296.34761	2035.1875
1299.87133	2112.7875
1303.39266	2219.1875
1306.9116	2371.0875
1310.42815	2523.5875
1313.94233	2615.9875
1317.45412	2560.0875
1320.96354	2442.1875
1324.47058	2305.9875
1327.97525	2193.0875
1331.47754	2116.7875
1334.97747	2081.9875
1338.47502	2096.9875
1341.97022	2125.5875
1345.46305	2202.1875
1348.95352	2354.5875
1352.44163	2524.5875
1355.92738	2727.4875
1359.41078	3006.7875
1362.89183	3254.5875
1366.37053	3257.1875
1369.84688	2955.0875
1373.32088	2608.4875
1376.79254	2397.8875
1380.26186	2261.0875
1383.72883	2176.4875
1387.19347	2110.4875
1390.65578	2060.3875
1394.11575	2032.3875
1397.57339	1992.1875
1401.0287	1965.1875
1404.48168	1937.1875
1407.93234	1894.1875
1411.38068	1855.1875
1414.82669	1836.5875
1418.27039	1804.7875
1421.71177	1787.3875
1425.15083	1751.0875
1428.58758	1725.0875
1432.02203	1709.6875
1435.45416	1693.9875
1438.88399	1694.5875
1442.31151	1668.4875
1445.73673	1653.0875
1449.15965	1650.0875
1452.58027	1663.8875
1455.9986	1649.2875
1459.41463	1639.9875
1462.82837	1660.5875
1466.23982	1667.4875
1469.64898	1679.8875
1473.05586	1697.1875
1476.46045	1700.3875
1479.86276	1713.5875
1483.26279	1730.8875
1486.66054	1756.1875
1490.05602	1791.9875
1493.44922	1849.2875
1496.84016	1924.5875
1500.22882	2058.0875
1503.61521	2256.3875
1506.99934	2483.7875
1510.38121	2665.9875
1513.76081	2735.1875
1517.13816	2631.5875
1520.51324	2375.6875
1523.88607	2127.6875
1527.25665	1961.0875
1530.62498	1855.7875
1533.99105	1804.4875
1537.35488	1759.0875
1540.71647	1748.4875
1544.07581	1737.6875
1547.4329	1745.0875
1550.78776	1745.5875
1554.14038	1760.7875
1557.49077	1774.5875
1560.83892	1787.7875
1564.18484	1812.4875
1567.52853	1849.4875
1570.86999	1888.7875
1574.20922	1908.0875
1577.54624	1914.3875
1580.88103	1854.5875
1584.2136	1768.4875
1587.54395	1678.3875
1590.87208	1646.2875
1594.19801	1656.5875
1597.52172	1691.6875
1600.84321	1720.4875
1604.16251	1702.9875
1607.47959	1659.3875
1610.79447	1616.0875
1614.10715	1572.0875
1617.41763	1538.7875
1620.7259	1525.4875
1624.03199	1511.5875
1627.33587	1510.2875
1630.63757	1503.9875
1633.93707	1524.4875
1637.23439	1566.9875
1640.52951	1623.8875
1643.82246	1739.5875
1647.11321	1880.6875
1650.40179	1977.7875
1653.68819	1976.6875
1656.97241	1827.5875
1660.25446	1644.7875
1663.53433	1489.4875
1666.81203	1394.3875
1670.08756	1336.5875
1673.36092	1311.5875
1676.63211	1302.0875
1679.90115	1289.8875
1683.16801	1270.4875
1686.43272	1262.6875
1689.69527	1249.5875
1692.95567	1216.0875
1696.2139	1184.1875
1699.46999	1143.1875
1702.72392	1111.8875
1705.97571	1116.9875
1709.22535	1123.3875
1712.47284	1123.8875
1715.71819	1111.3875
1718.96139	1101.0875
1722.20246	1084.8875
1725.44139	1069.8875
1728.67818	1053.3875
1731.91284	1038.0875
1735.14537	1029.8875
1738.37576	1014.9875
1741.60403	1002.1875
1744.83017	994.4875
1748.05418	984.3875
1751.27607	968.7875
1754.49584	951.7875
1757.71349	926.4875
1760.92903	906.0875
1764.14244	905.0875
1767.35375	897.6875
1770.56294	891.8875
1773.77002	896.7875
1776.97499	912.9875
1780.17785	933.3875
1783.37861	931.4875
1786.57727	940.6875
1789.77382	946.7875
1792.96828	928.4875
1796.16064	940.0875
1799.3509	932.4875
1802.53907	928.5875
1805.72514	922.9875
1808.90913	918.2875
1812.09102	902.7875
1815.27083	914.1875
1818.44856	911.0875
1821.6242	910.5875
1824.79776	913.6875
1827.96924	901.3875
1831.13864	906.5875
1834.30597	895.5875
1837.47122	895.2875
1840.6344	896.3875
1843.7955	894.6875
1846.95454	890.5875
1850.11151	887.7875
1853.26642	890.6875
1856.41926	883.8875
1859.57004	882.9875
1862.71876	881.7875
1865.86542	886.6875
1869.01003	870.7875
1872.15258	873.4875
1875.29308	871.6875
1878.43152	865.9875
1881.56792	860.6875
1884.70227	853.1875
1887.83457	854.9875
1890.96482	863.6875
1894.09304	850.9875
1897.21921	847.8875
1900.34335	847.1875
1903.46544	841.4875
1906.58551	846.2875
1909.70353	838.8875
1912.81953	839.5875
1915.93349	835.6875
1919.04543	840.7875
1922.15534	839.8875
1925.26322	830.0875
1928.36908	824.9875
1931.47292	822.2875
1934.57473	812.4875
1937.67453	816.7875
1940.77232	817.8875
1943.86808	807.8875
1946.96184	812.6875
1950.05358	803.7875
1953.14331	794.8875
1956.23103	798.7875
1959.31675	789.7875
1962.40046	787.7875
1965.48217	785.6875
1968.56188	782.3875
1971.63959	777.3875
1974.7153	771.8875
1977.78901	777.4875
1980.86073	772.5875
1983.93046	772.0875
1986.99819	768.1875
1990.06394	767.6875
1993.1277	763.6875
1996.18947	750.6875
1999.24925	756.6875
2002.30706	745.7875
2005.36288	747.4875
2008.41672	745.5875
2011.46859	742.5875
2014.51848	746.9875
2017.56639	732.3875
2020.61233	742.7875
2023.6563	733.2875
2026.6983	733.8875
2029.73833	720.4875
2032.7764	721.3875
2035.8125	719.4875
2038.84664	719.2875
2041.87881	721.6875
2044.90903	716.4875
2047.93729	713.7875
2050.96359	712.3875
2053.98794	711.1875
2057.01034	703.5875
2060.03078	712.5875
2063.04927	709.2875
2066.06582	706.9875
2069.08042	705.9875
2072.09307	703.9875
2075.10378	708.3875
2078.11255	705.1875
2081.11938	704.0875
2084.12426	703.1875
2087.12722	702.3875
2090.12824	696.8875
2093.12732	699.4875
2096.12447	692.3875
2099.11969	700.3875
2102.11299	695.0875
2105.10435	694.9875
2108.09379	700.6875
2111.08131	690.6875
2114.0669	699.2875
2117.05057	696.9875
2120.03233	691.5875
2123.01216	698.3875
2125.99008	691.6875
2128.96609	694.8875
2131.94018	693.0875
2134.91236	684.5875
2137.88263	690.0875
2140.851	682.9875
2143.81746	686.8875
2146.78201	682.8875
2149.74466	681.0875
2152.7054	672.4875
2155.66425	682.4875
2158.6212	678.3875
2161.57625	677.9875
2164.52941	672.5875
2167.48067	672.8875
2170.43004	672.0875
2173.37752	670.0875
2176.32311	669.0875
2179.26681	669.0875
2182.20863	662.8875
2185.14856	665.7875
2188.08661	660.2875
2191.02278	670.5875
2193.95707	667.1875
2196.88948	663.0875
2199.82001	657.7875
2202.74867	656.9875
2205.67545	654.7875
2208.60037	646.6875
2211.52341	649.3875
2214.44458	648.9875
2217.36388	646.1875
2220.28132	643.0875
2223.1969	635.6875
2226.11061	639.8875
2229.02246	635.1875
2231.93245	634.1875
2234.84058	627.2875
2237.74686	629.4875
2240.65128	628.5875
2243.55385	631.4875
2246.45456	625.6875
2249.35343	628.8875
2252.25044	618.8875
2255.14561	627.2875
2258.03893	621.1875
2260.93041	604.7875
2263.82004	604.4875
2266.70783	610.7875
2269.59378	613.4875
2272.4779	605.7875
2275.36017	611.2875
2278.24061	610.7875
2281.11922	607.8875
2283.996	607.0875
2286.87094	602.6875
2289.74405	590.9875
2292.61534	601.9875
2295.4848	592.8875
2298.35243	594.1875
2301.21824	595.0875
2304.08223	587.6875
2306.94439	593.8875
2309.80474	585.9875
2312.66327	593.7875
2315.51999	590.8875
2318.37489	581.1875
2321.22797	587.7875
2324.07925	584.5875
2326.92871	581.1875
2329.77637	580.4875
2332.62222	584.1875
2335.46626	567.2875
2338.3085	571.1875
2341.14893	568.2875
2343.98756	568.8875
2346.8244	568.4875
2349.65943	562.7875
2352.49267	564.2875
2355.32411	561.8875
2358.15376	561.7875
2360.98161	562.5875
2363.80768	569.0875
2366.63195	560.3875
2369.45444	570.6875
2372.27514	567.9875
2375.09405	559.7875
2377.91118	563.3875
2380.72652	561.4875
2383.54009	557.6875
2386.35187	553.5875
2389.16188	551.7875
2391.97011	545.3875
2394.77657	550.4875
2397.58125	546.8875
2400.38416	540.1875
2403.18529	539.0875
2405.98466	539.1875
2408.78226	535.4875
2411.57809	529.0875
2414.37216	535.4875
2417.16446	529.3875
2419.955	531.1875
2422.74378	526.0875
2425.5308	532.0875
2428.31606	523.6875
2431.09956	526.9875
2433.88131	522.9875
2436.6613	525.2875
2439.43954	528.9875
2442.21603	520.6875
2444.99077	521.4875
2447.76377	521.7875
2450.53501	523.4875
2453.30451	522.8875
2456.07226	519.5875
2458.83827	518.7875
2461.60254	515.5875
2464.36507	514.0875
2467.12586	515.0875
2469.88492	516.0875
2472.64224	510.4875
2475.39782	504.9875
2478.15167	500.1875
2480.90379	504.3875
2483.65417	505.6875
2486.40283	507.1875
2489.14976	508.5875
2491.89497	506.5875
2494.63845	504.6875
2497.3802	497.4875
2500.12024	498.4875
2502.85855	499.6875
2505.59514	497.0875
2508.33002	502.5875
2511.06318	498.0875
2513.79462	496.0875
2516.52435	501.0875
2519.25237	488.0875
2521.97867	495.1875
2524.70327	490.1875
2527.42616	489.2875
2530.14734	484.0875
2532.86681	484.8875
2535.58458	485.9875
2538.30065	482.8875
2541.01501	479.4875
2543.72768	483.1875
2546.43864	484.6875
2549.14791	480.6875
2551.85548	482.0875
2554.56136	478.7875
2557.26554	476.6875
2559.96803	473.9875
2562.66883	469.5875
2565.36794	476.5875
2568.06536	468.4875
2570.7611	470.1875
2573.45514	465.7875
2576.14751	469.6875
2578.83819	462.9875
2581.52719	463.3875
2584.21451	465.7875
2586.90015	463.4875
2589.58411	456.6875
2592.2664	458.2875
2594.94701	464.8875
2597.62594	454.3875
2600.30321	455.9875
2602.9788	456.5875
2605.65273	454.3875
2608.32498	457.1875
2610.99557	451.1875
2613.66449	449.1875
2616.33175	455.5875
2618.99734	451.0875
2621.66128	451.4875
2624.32355	445.1875
2626.98416	444.9875
2629.64311	443.4875
2632.30041	441.9875
2634.95605	443.0875
2637.61004	445.1875
2640.26238	439.5875
2642.91306	445.8875
2645.56209	436.9875
2648.20948	435.1875
2650.85521	443.3875
2653.4993	438.8875
2656.14175	438.9875
2658.78255	434.5875
2661.42171	440.4875
2664.05923	442.3875
2666.6951	441.5875
2669.32934	437.3875
2671.96194	439.8875
2674.59291	432.3875
2677.22224	440.5875
2679.84993	431.8875
2682.476	437.7875
2685.10043	437.6875
2687.72324	438.0875
2690.34441	433.2875
2692.96396	436.4875
2695.58188	432.8875
2698.19818	437.6875
2700.81285	432.8875
2703.4259	412.7875
2706.03733	370.4875
2708.64714	400.7875
2711.25533	416.9875
2713.86191	420.1875
2716.46687	424.7875
2719.07021	423.8875
2721.67194	428.8875
2724.27206	427.6875
2726.87057	430.2875
2729.46747	435.1875
2732.06276	434.4875
2734.65644	433.9875
2737.24852	430.6875
2739.83899	432.1875
2742.42786	430.0875
2745.01513	424.4875
2747.60079	428.2875
2750.18486	425.7875
2752.76733	431.1875
2755.3482	426.8875
2757.92747	428.3875
2760.50515	421.5875
2763.08123	426.3875
2765.65573	423.4875
2768.22863	428.6875
2770.79994	420.2875
2773.36967	422.0875
2775.9378	421.5875
2778.50435	417.5875
2781.06932	417.1875
2783.6327	421.4875
2786.1945	426.2875
2788.75471	425.6875
2791.31335	416.1875
2793.87041	419.0875
2796.42589	418.1875
2798.97979	418.7875
2801.53212	412.0875
2804.08288	416.8875
2806.63206	412.7875
2809.17967	412.0875
2811.72571	406.2875
2814.27018	417.6875
2816.81308	409.2875
2819.35442	411.5875
2821.89419	409.8875
2824.43239	409.3875
2826.96904	406.9875
2829.50412	411.7875
2832.03763	408.0875
2834.56959	406.2875
2837.1	412.4875
2839.62884	412.7875
2842.15613	406.3875
2844.68186	406.5875
2847.20604	415.0875
2849.72867	414.6875
2852.24974	422.7875
2854.76927	414.1875
2857.28724	395.1875
2859.80367	409.5875
2862.31855	409.2875
2864.83189	418.6875
2867.34368	415.5875
2869.85393	416.7875
2872.36264	417.0875
2874.8698	419.1875
2877.37543	423.7875
2879.87952	425.4875
2882.38207	422.3875
2884.88308	419.3875
2887.38256	416.6875
2889.88051	423.4875
2892.37692	421.7875
2894.8718	429.6875
2897.36515	426.7875
2899.85698	428.6875
2902.34727	432.5875
2904.83604	439.4875
2907.32328	440.9875
2909.809	444.5875
2912.29319	444.3875
2914.77587	448.0875
2917.25702	455.9875
2919.73665	454.8875
2922.21476	455.0875
2924.69136	452.9875
2927.16644	451.1875
2929.64	458.0875
2932.11205	456.9875
2934.58258	458.1875
2937.05161	452.6875
2939.51912	447.4875
2941.98513	448.2875
2944.44962	447.9875
2946.91261	444.4875
2949.37409	442.2875
2951.83407	441.3875
2954.29254	437.9875
2956.74951	436.8875
2959.20498	432.0875
2961.65895	425.7875
2964.11142	427.6875
2966.56239	424.5875
2969.01186	422.5875
2971.45984	430.1875
2973.90632	422.9875
2976.35131	421.5875
2978.7948	418.6875
2981.23681	420.4875
2983.67732	422.0875
2986.11635	420.1875
2988.55388	418.2875
2990.98993	416.6875
2993.4245	418.9875
2995.85758	416.0875
2998.28917	417.3875
3000.71928	415.6875
3003.14791	418.0875
3005.57506	420.8875
3008.00073	417.2875
3010.42493	428.0875
3012.84764	417.2875
3015.26888	428.0875
3017.68865	422.6875
3020.10694	425.0875
3022.52376	427.0875
3024.9391	427.5875
3027.35298	428.6875
3029.76539	423.5875
3032.17632	429.0875
3034.5858	429.1875
3036.9938	435.4875
3039.40034	438.1875
3041.80542	438.4875
3044.20903	434.0875
3046.61118	438.9875
3049.01187	442.6875
3051.4111	441.5875
3053.80888	450.5875
3056.20519	452.1875
3058.60005	447.0875
3060.99345	451.3875
3063.3854	453.3875
3065.7759	451.3875
3068.16494	461.0875
3070.55254	458.7875
3072.93868	463.2875
3075.32338	464.4875
3077.70662	467.2875
3080.08842	466.3875
3082.46878	471.2875
3084.84769	473.4875
3087.22515	483.3875
3089.60118	480.5875
3091.97576	486.5875
3094.3489	491.1875
3096.72061	490.0875
3099.09087	495.9875
3101.4597	507.2875
3103.82709	503.2875
3106.19305	512.3875
3108.55757	514.3875
3110.92066	515.8875
3113.28232	520.6875
3115.64255	525.8875
3118.00134	535.5875
3120.35871	534.6875
3122.71466	541.9875
3125.06917	546.0875
3127.42226	545.1875
3129.77393	548.1875
3132.12417	550.0875
3134.47299	560.4875
3136.82039	567.9875
3139.16636	579.9875
3141.51092	574.8875
3143.85406	584.2875
3146.19579	587.1875
3148.53609	596.0875
3150.87499	599.8875
3153.21246	604.8875
3155.54853	619.2875
3157.88318	625.9875
3160.21642	626.5875
3162.54826	632.2875
3164.87868	642.5875
3167.2077	650.9875
3169.5353	646.4875
3171.86151	661.4875
3174.18631	661.6875
3176.5097	663.8875
3178.83169	672.2875
3181.15228	682.2875
3183.47147	678.3875
3185.78926	684.5875
3188.10565	685.2875
3190.42065	693.1875
3192.73424	700.4875
3195.04645	698.5875
3197.35725	713.0875
3199.66667	714.8875
3201.97469	715.4875
3204.28132	715.6875
3206.58656	725.7875
3208.8904	728.5875
3211.19287	732.7875
3213.49394	734.3875
3215.79363	739.1875
3218.09193	735.7875
3220.38884	733.6875
3222.68438	724.9875
3224.97853	733.8875
3227.2713	748.0875
3229.56269	749.5875
3231.8527	750.1875
3234.14133	752.0875
3236.42858	755.2875
3238.71446	759.1875
3240.99896	763.1875
3243.28209	763.1875
3245.56384	758.1875
3247.84423	765.2875
3250.12324	757.8875
3252.40088	760.4875
3254.67715	771.9875
3256.95205	756.9875
3259.22558	765.7875
3261.49775	765.9875
3263.76855	766.7875
3266.03799	768.9875
3268.30606	761.6875
3270.57277	766.0875
3272.83812	766.1875
3275.10211	760.8875
3277.36474	761.4875
3279.62601	764.5875
3281.88593	755.8875
3284.14448	769.5875
3286.40168	757.1875
3288.65753	762.4875
3290.91202	765.4875
3293.16516	763.8875
3295.41695	763.1875
3297.66738	760.0875
3299.91647	762.9875
3302.16421	752.8875
3304.4106	748.7875
3306.65564	747.1875
3308.89933	746.6875
3311.14169	734.5875
3313.38269	727.2875
3315.62236	727.3875
3317.86068	725.4875
3320.09766	719.1875
3322.3333	720.4875
3324.5676	705.8875
3326.80056	681.5875
3329.03219	684.3875
3331.26248	-0.8125
3333.49143	0.4875
3335.71905	1.0875
