Data from AgNPs_APTES_FTO_UA_100uM_CRN_0uM_R6G_10uM_Scan_RamanShift__17__12-23-53-523.txt Node

Date: Thu Jun 23 12:23:53 BST 2022
User: TCL
Spectrometer: QEP01345
Trigger mode: 4
Integration Time (sec): 7.000000E0
Scans to average: 10
Electric dark correction enabled: true
Nonlinearity correction enabled: false
Boxcar width: 0
XAxis mode: Raman Shifts
Number of Pixels in Spectrum: 1044
>>>>>Begin Spectral Data<<<<<
46.04893	0.2
50.45542	-0.6
54.85868	-0.8
59.25871	-1.4
63.6555	28.6
68.04907	32.2
72.43941	33.9
76.82654	42.9
81.21044	41.3
85.59113	42
89.96862	48.2
94.34289	47.4
98.71396	49.7
103.08183	49.1
107.4465	51
111.80798	48.3
116.16626	48.9
120.52136	51.3
124.87327	49.8
129.222	50.5
133.56755	50.4
137.90993	51.5
142.24913	48.7
146.58517	47.3
150.91804	49.9
155.24774	56.4
159.57429	60.8
163.89768	69
168.21792	78.9
172.53501	98.8
176.84895	121.7
181.15975	159.7
185.46741	214.4
189.77193	284.2
194.07331	371
198.37157	479.3
202.6667	586.4
206.9587	700.3
211.24758	800
215.53334	908.1
219.81599	1037
224.09553	1157.7
228.37195	1294.5
232.64527	1452
236.91549	1592.6
241.18261	1740.5
245.44663	1874.1
249.70755	1981.8
253.96539	2066.5
258.22014	2131.7
262.4718	2185.4
266.72039	2202.5
270.96589	2207.5
275.20832	2172.6
279.44768	2132.7
283.68397	2079.7
287.91719	2039.9
292.14735	2007.7
296.37445	2000.1
300.59849	2011
304.81948	2034.1
309.03742	2053.4
313.25231	2065.8
317.46415	2016.9
321.67296	1947.3
325.87872	1877.3
330.08145	1835.2
334.28114	1821
338.47781	1836.3
342.67145	1849.7
346.86207	1884
351.04966	1945.6
355.23424	2006.8
359.4158	2057.8
363.59435	2077.3
367.76989	2079.8
371.94243	2088.2
376.11196	2086.6
380.27849	2088.1
384.44203	2077.5
388.60257	2075.7
392.76012	2080.8
396.91468	2111.5
401.06626	2127.4
405.21485	2142.5
409.36047	2111.3
413.50311	2052.7
417.64277	1994.7
421.77947	1969.1
425.9132	1955.5
430.04396	1950.3
434.17176	1967
438.2966	1987.7
442.41849	2010.1
446.53742	2056.6
450.6534	2076.7
454.76644	2101.3
458.87653	2103.5
462.98368	2098.6
467.08789	2081.8
471.18916	2064
475.2875	2056.3
479.38291	2047.8
483.4754	2036.7
487.56496	2047.4
491.6516	2069.1
495.73531	2095.7
499.81612	2087.4
503.89401	2103
507.96899	2094.9
512.04106	2116.8
516.11023	2119.5
520.1765	2111.4
524.23987	2126.2
528.30034	2122.5
532.35792	2106.4
536.41261	2082.2
540.46441	2052.6
544.51333	2032.9
548.55936	2034.6
552.60252	2054.3
556.64279	2066.2
560.6802	2064.4
564.71473	2076.5
568.7464	2101.8
572.7752	2118.7
576.80114	2089.1
580.82422	2070.7
584.84444	2084.7
588.86181	2108.3
592.87633	2124.9
596.888	2154.2
600.89682	2206.2
604.9028	2370.3
608.90594	2763
612.90624	3247.3
616.90371	3183
620.89834	2633.7
624.89015	2349.7
628.87913	2300.9
632.86528	2338.5
636.84862	2384.9
640.82913	2331.9
644.80683	2247.1
648.78172	2161
652.75379	2133.7
656.72306	2142.6
660.68952	2176.1
664.65319	2159.2
668.61405	2092.9
672.57211	2085.9
676.52738	2126.3
680.47986	2179.4
684.42955	2220.1
688.37646	2239.6
692.32058	2211.3
696.26192	2148.4
700.20048	2112.1
704.13626	2100.9
708.06928	2073.3
711.99952	2063.5
715.927	2064.6
719.85171	2074
723.77365	2090.7
727.69284	2083.4
731.60928	2069.6
735.52295	2063.1
739.43388	2055.4
743.34206	2058.4
747.24749	2059.2
751.15017	2050.5
755.05012	2051.5
758.94733	2090.5
762.8418	2226.4
766.73354	2415
770.62254	2624.1
774.50882	2741.3
778.39237	2665.7
782.27321	2458.7
786.15132	2266.5
790.02671	2157.3
793.89938	2096.6
797.76935	2093.4
801.6366	2096.4
805.50115	2115.7
809.36299	2141
813.22213	2148.4
817.07857	2132
820.93231	2082
824.78336	2059.8
828.63172	2043.9
832.47738	2043.1
836.32036	2037.2
840.16066	2036
843.99827	2027.9
847.8332	2027.5
851.66546	2021.2
855.49504	2027.4
859.32195	2031.6
863.1462	2023.8
866.96777	2034.9
870.78668	2052.7
874.60293	2081.3
878.41652	2115.7
882.22745	2157.7
886.03573	2191.4
889.84136	2220.4
893.64433	2216.8
897.44466	2211.7
901.24235	2206.8
905.0374	2174.6
908.8298	2193.4
912.61957	2204.3
916.40671	2255.1
920.19121	2315.2
923.97308	2369.4
927.75233	2400
931.52895	2414.3
935.30295	2370.7
939.07433	2288.4
942.84309	2219.8
946.60924	2160.1
950.37278	2095.1
954.13371	2042.5
957.89203	2012.7
961.64774	1970.9
965.40086	1942.7
969.15137	1914.2
972.89929	1893
976.64461	1871.4
980.38733	1859
984.12747	1839.5
987.86502	1839.6
991.59999	1830.3
995.33237	1851.6
999.06217	1856.2
1002.78939	1884.6
1006.51404	1899.2
1010.23611	1921.6
1013.95561	1941.1
1017.67255	1950.5
1021.38692	1942.7
1025.09872	1934.2
1028.80796	1904.7
1032.51465	1899.1
1036.21877	1888.9
1039.92035	1885
1043.61937	1875.5
1047.31584	1869.1
1051.00976	1859
1054.70114	1862.9
1058.38998	1849.2
1062.07627	1850.8
1065.76003	1849.2
1069.44126	1859.2
1073.11995	1861.4
1076.79611	1872.8
1080.46974	1881.7
1084.14085	1890.9
1087.80943	1904.5
1091.47549	1908.2
1095.13903	1878.8
1098.80005	1841.3
1102.45857	1811.6
1106.11456	1800.5
1109.76805	1814.1
1113.41903	1834.3
1117.06751	1882.4
1120.71348	1951.6
1124.35696	2034.5
1127.99793	2138.1
1131.63641	2183.6
1135.2724	2164.2
1138.90589	2113.4
1142.5369	2061.1
1146.16542	1978.4
1149.79145	1913.4
1153.415	1858.4
1157.03607	1839.2
1160.65467	1834.9
1164.27079	1849.4
1167.88443	1892.1
1171.49561	1964.6
1175.10432	2095.9
1178.71056	2278.7
1182.31434	2434
1185.91565	2484.6
1189.51451	2425.4
1193.11091	2329.1
1196.70485	2236.6
1200.29634	2170.7
1203.88538	2122
1207.47197	2041
1211.05612	1950.9
1214.63782	1892.1
1218.21708	1855.9
1221.79391	1845.1
1225.36829	1841.5
1228.94024	1846.3
1232.50976	1839.8
1236.07685	1841.6
1239.6415	1837.6
1243.20374	1845.1
1246.76355	1850.6
1250.32093	1865.9
1253.8759	1879
1257.42845	1911.8
1260.97859	1937.8
1264.52631	1976.4
1268.07163	2022
1271.61453	2071.7
1275.15503	2097.9
1278.69312	2103.3
1282.22882	2109.7
1285.76211	2134.5
1289.29301	2197.3
1292.82151	2254.3
1296.34761	2329
1299.87133	2403.6
1303.39266	2540.2
1306.9116	2732.8
1310.42815	2938.8
1313.94233	3063.8
1317.45412	3005.6
1320.96354	2843.7
1324.47058	2661.5
1327.97525	2485.4
1331.47754	2395.1
1334.97747	2344
1338.47502	2342.3
1341.97022	2386.5
1345.46305	2495.3
1348.95352	2659.6
1352.44163	2866.9
1355.92738	3129.4
1359.41078	3471.8
1362.89183	3830
1366.37053	3844
1369.84688	3442.6
1373.32088	3001.9
1376.79254	2719.2
1380.26186	2567.1
1383.72883	2469.5
1387.19347	2413.1
1390.65578	2358.4
1394.11575	2307.8
1397.57339	2280.2
1401.0287	2260.8
1404.48168	2232.6
1407.93234	2182.2
1411.38068	2147.3
1414.82669	2119.5
1418.27039	2082
1421.71177	2049.2
1425.15083	2025.2
1428.58758	1982.9
1432.02203	1970
1435.45416	1957
1438.88399	1937.9
1442.31151	1927.7
1445.73673	1902.6
1449.15965	1899.7
1452.58027	1891.4
1455.9986	1876.3
1459.41463	1872.9
1462.82837	1880.9
1466.23982	1890.3
1469.64898	1910.9
1473.05586	1931.4
1476.46045	1945.8
1479.86276	1961.3
1483.26279	1982.5
1486.66054	2011.2
1490.05602	2051.8
1493.44922	2130.4
1496.84016	2231.8
1500.22882	2390.8
1503.61521	2611.5
1506.99934	2906.6
1510.38121	3165.2
1513.76081	3277.5
1517.13816	3124.5
1520.51324	2817.9
1523.88607	2492.9
1527.25665	2267.2
1530.62498	2141.1
1533.99105	2054.8
1537.35488	2011.7
1540.71647	1977.6
1544.07581	1952.2
1547.4329	1953.6
1550.78776	1951.9
1554.14038	1958.4
1557.49077	1978.9
1560.83892	2007.5
1564.18484	2036.6
1567.52853	2087.1
1570.86999	2142.1
1574.20922	2179.4
1577.54624	2184.2
1580.88103	2111.7
1584.2136	1978.7
1587.54395	1877.9
1590.87208	1848.9
1594.19801	1849.5
1597.52172	1890.6
1600.84321	1905.5
1604.16251	1892.7
1607.47959	1836.3
1610.79447	1797
1614.10715	1726.5
1617.41763	1691.3
1620.7259	1658.8
1624.03199	1639.9
1627.33587	1644.6
1630.63757	1648.1
1633.93707	1680.3
1637.23439	1717.4
1640.52951	1799.1
1643.82246	1949.4
1647.11321	2146.1
1650.40179	2286.4
1653.68819	2274.2
1656.97241	2097.7
1660.25446	1863.1
1663.53433	1659.1
1666.81203	1536.2
1670.08756	1465.2
1673.36092	1430.6
1676.63211	1413.2
1679.90115	1396.2
1683.16801	1374.4
1686.43272	1373.6
1689.69527	1341.9
1692.95567	1323
1696.2139	1284.2
1699.46999	1250.3
1702.72392	1220
1705.97571	1227
1709.22535	1226.3
1712.47284	1230.1
1715.71819	1221.1
1718.96139	1210
1722.20246	1188.6
1725.44139	1166.9
1728.67818	1147.5
1731.91284	1138.9
1735.14537	1123.4
1738.37576	1113.7
1741.60403	1107.4
1744.83017	1089.3
1748.05418	1073.4
1751.27607	1060.9
1754.49584	1044.8
1757.71349	1015.2
1760.92903	993.8
1764.14244	987.7
1767.35375	992.7
1770.56294	989.5
1773.77002	986.6
1776.97499	1008.6
1780.17785	1026.8
1783.37861	1019.8
1786.57727	1025.8
1789.77382	1032.8
1792.96828	1026
1796.16064	1020.6
1799.3509	1016
1802.53907	1014
1805.72514	1008.3
1808.90913	1008.3
1812.09102	1005.1
1815.27083	996.4
1818.44856	1009.7
1821.6242	995.8
1824.79776	992.8
1827.96924	994.5
1831.13864	986.6
1834.30597	987.7
1837.47122	980.4
1840.6344	978.3
1843.7955	981.6
1846.95454	980.9
1850.11151	969.5
1853.26642	966.3
1856.41926	975.2
1859.57004	962.8
1862.71876	960.4
1865.86542	954.2
1869.01003	954
1872.15258	950.8
1875.29308	953.2
1878.43152	949
1881.56792	946.7
1884.70227	937.4
1887.83457	941.9
1890.96482	934.8
1894.09304	932.7
1897.21921	934.9
1900.34335	926.4
1903.46544	931.2
1906.58551	924.9
1909.70353	917.8
1912.81953	916.4
1915.93349	909.1
1919.04543	918.7
1922.15534	910.3
1925.26322	911.4
1928.36908	908.5
1931.47292	901.3
1934.57473	896.5
1937.67453	886.1
1940.77232	895.7
1943.86808	880.9
1946.96184	885.6
1950.05358	876.1
1953.14331	881.7
1956.23103	871
1959.31675	874.7
1962.40046	861.5
1965.48217	861
1968.56188	862.9
1971.63959	862.4
1974.7153	860.5
1977.78901	860
1980.86073	853.7
1983.93046	845.9
1986.99819	840.1
1990.06394	834.8
1993.1277	832
1996.18947	823.7
1999.24925	817.3
2002.30706	824.2
2005.36288	818.6
2008.41672	810.5
2011.46859	808.8
2014.51848	815.2
2017.56639	808.2
2020.61233	808.5
2023.6563	795.9
2026.6983	795.6
2029.73833	793.8
2032.7764	792.4
2035.8125	794
2038.84664	788.9
2041.87881	785.7
2044.90903	790
2047.93729	783.1
2050.96359	775.2
2053.98794	780.4
2057.01034	778.4
2060.03078	778.4
2063.04927	778.5
2066.06582	779.3
2069.08042	778.3
2072.09307	774.2
2075.10378	768.8
2078.11255	767
2081.11938	776.1
2084.12426	770.6
2087.12722	771.4
2090.12824	774.9
2093.12732	770.9
2096.12447	774.2
2099.11969	774.7
2102.11299	761.1
2105.10435	770.6
2108.09379	765.6
2111.08131	766.8
2114.0669	760.1
2117.05057	761.5
2120.03233	764.5
2123.01216	760.2
2125.99008	754.7
2128.96609	761.3
2131.94018	758.6
2134.91236	753.6
2137.88263	748.6
2140.851	751.5
2143.81746	753.2
2146.78201	749.6
2149.74466	750.5
2152.7054	747.5
2155.66425	741.2
2158.6212	739.1
2161.57625	737.3
2164.52941	737.3
2167.48067	735
2170.43004	728.8
2173.37752	734.3
2176.32311	731.7
2179.26681	729.4
2182.20863	729.9
2185.14856	729.7
2188.08661	727.2
2191.02278	721.3
2193.95707	730.3
2196.88948	722.3
2199.82001	725.8
2202.74867	719.5
2205.67545	725.7
2208.60037	715.2
2211.52341	712.5
2214.44458	708.4
2217.36388	703.7
2220.28132	704.4
2223.1969	700.2
2226.11061	695.6
2229.02246	697.5
2231.93245	694.3
2234.84058	694.7
2237.74686	686
2240.65128	691.7
2243.55385	683.8
2246.45456	685.8
2249.35343	683.1
2252.25044	679.8
2255.14561	680.2
2258.03893	675.2
2260.93041	675.2
2263.82004	673.1
2266.70783	675.4
2269.59378	665.4
2272.4779	667.8
2275.36017	669
2278.24061	659.7
2281.11922	664.6
2283.996	660.5
2286.87094	656.2
2289.74405	657.8
2292.61534	658.6
2295.4848	659.9
2298.35243	656.7
2301.21824	646.7
2304.08223	646.6
2306.94439	653
2309.80474	640.4
2312.66327	652
2315.51999	639.9
2318.37489	642.8
2321.22797	640.7
2324.07925	638.1
2326.92871	636.9
2329.77637	633.5
2332.62222	636.6
2335.46626	634.5
2338.3085	624.3
2341.14893	621.9
2343.98756	618.9
2346.8244	618.4
2349.65943	621.4
2352.49267	619.9
2355.32411	620.2
2358.15376	619.6
2360.98161	624.6
2363.80768	616.9
2366.63195	620.2
2369.45444	620.1
2372.27514	626.3
2375.09405	614
2377.91118	620
2380.72652	616
2383.54009	607.9
2386.35187	603.7
2389.16188	606.8
2391.97011	597.6
2394.77657	602.7
2397.58125	595.8
2400.38416	595.9
2403.18529	595.3
2405.98466	594.9
2408.78226	588.8
2411.57809	586.1
2414.37216	581.2
2417.16446	589.8
2419.955	579.6
2422.74378	587.7
2425.5308	578.9
2428.31606	575.7
2431.09956	584.4
2433.88131	576.3
2436.6613	579.4
2439.43954	576.2
2442.21603	574.1
2444.99077	578.6
2447.76377	574.3
2450.53501	571
2453.30451	576.2
2456.07226	573
2458.83827	563.8
2461.60254	558.1
2464.36507	566.9
2467.12586	560.9
2469.88492	560.7
2472.64224	553.6
2475.39782	555.3
2478.15167	551.9
2480.90379	556.6
2483.65417	555.1
2486.40283	559.9
2489.14976	557.8
2491.89497	557.2
2494.63845	550
2497.3802	547.1
2500.12024	549.9
2502.85855	550.7
2505.59514	547.7
2508.33002	551.3
2511.06318	550.3
2513.79462	540.2
2516.52435	549.1
2519.25237	544.5
2521.97867	539.5
2524.70327	535.5
2527.42616	534.4
2530.14734	529.6
2532.86681	537.4
2535.58458	529.5
2538.30065	530.8
2541.01501	530
2543.72768	531.9
2546.43864	524.2
2549.14791	523.7
2551.85548	522.7
2554.56136	520.1
2557.26554	522.7
2559.96803	522.5
2562.66883	518.2
2565.36794	517.9
2568.06536	520.4
2570.7611	520.2
2573.45514	512.3
2576.14751	517.2
2578.83819	507
2581.52719	510.9
2584.21451	511.6
2586.90015	505.2
2589.58411	508.6
2592.2664	507.1
2594.94701	501.4
2597.62594	500.7
2600.30321	502.6
2602.9788	501.1
2605.65273	497.5
2608.32498	505.3
2610.99557	498.5
2613.66449	497.1
2616.33175	495.8
2618.99734	492.2
2621.66128	497.8
2624.32355	494.3
2626.98416	488.6
2629.64311	489.4
2632.30041	493.8
2634.95605	486.5
2637.61004	483
2640.26238	487.9
2642.91306	493.6
2645.56209	484.3
2648.20948	481.1
2650.85521	484
2653.4993	480.7
2656.14175	481.4
2658.78255	479.5
2661.42171	486.2
2664.05923	481
2666.6951	480.9
2669.32934	484.6
2671.96194	480.3
2674.59291	486.9
2677.22224	479.4
2679.84993	478.4
2682.476	482.8
2685.10043	482.1
2687.72324	477.7
2690.34441	480
2692.96396	479.7
2695.58188	483.1
2698.19818	478.3
2700.81285	481.8
2703.4259	458.7
2706.03733	416.7
2708.64714	444.5
2711.25533	462.8
2713.86191	461.7
2716.46687	466
2719.07021	470
2721.67194	475.3
2724.27206	482.1
2726.87057	477.3
2729.46747	479.1
2732.06276	477.2
2734.65644	478.1
2737.24852	473.1
2739.83899	473.9
2742.42786	473.5
2745.01513	468.3
2747.60079	465.5
2750.18486	471.9
2752.76733	469.3
2755.3482	464.7
2757.92747	473.5
2760.50515	465.6
2763.08123	474
2765.65573	467
2768.22863	466.1
2770.79994	458.4
2773.36967	465.5
2775.9378	465.6
2778.50435	458.7
2781.06932	463.2
2783.6327	458.3
2786.1945	462.3
2788.75471	455.3
2791.31335	458.1
2793.87041	457.5
2796.42589	460.2
2798.97979	454.4
2801.53212	456.1
2804.08288	453.1
2806.63206	450.8
2809.17967	454.6
2811.72571	452
2814.27018	453.5
2816.81308	455
2819.35442	453.8
2821.89419	452.7
2824.43239	447.9
2826.96904	448.4
2829.50412	446.7
2832.03763	450.5
2834.56959	448.7
2837.1	452.8
2839.62884	452.9
2842.15613	445.3
2844.68186	452.2
2847.20604	452.7
2849.72867	455.4
2852.24974	456.4
2854.76927	455.6
2857.28724	434.2
2859.80367	448.6
2862.31855	450.4
2864.83189	458.8
2867.34368	457.8
2869.85393	459
2872.36264	460.5
2874.8698	465
2877.37543	460.4
2879.87952	466.9
2882.38207	458.9
2884.88308	462
2887.38256	456.4
2889.88051	462.9
2892.37692	464.1
2894.8718	468.6
2897.36515	466.3
2899.85698	474.4
2902.34727	469.3
2904.83604	482
2907.32328	485.6
2909.809	488.2
2912.29319	484.4
2914.77587	492.6
2917.25702	500.4
2919.73665	497.3
2922.21476	497.6
2924.69136	497.7
2927.16644	503.1
2929.64	501.3
2932.11205	503.1
2934.58258	500.2
2937.05161	497.1
2939.51912	494.3
2941.98513	497
2944.44962	488.5
2946.91261	487.3
2949.37409	482.3
2951.83407	480.9
2954.29254	478.7
2956.74951	476
2959.20498	473.7
2961.65895	463.8
2964.11142	472.9
2966.56239	468.4
2969.01186	469.3
2971.45984	466.7
2973.90632	463.5
2976.35131	460.7
2978.7948	458.7
2981.23681	456.6
2983.67732	460
2986.11635	455.5
2988.55388	456.9
2990.98993	457.9
2993.4245	451.8
2995.85758	447.7
2998.28917	457.8
3000.71928	452.4
3003.14791	450.9
3005.57506	457.8
3008.00073	453.4
3010.42493	457.3
3012.84764	453.2
3015.26888	450.3
3017.68865	453.8
3020.10694	451.4
3022.52376	462.2
3024.9391	456.6
3027.35298	465.6
3029.76539	460.7
3032.17632	460.4
3034.5858	460.2
3036.9938	465.7
3039.40034	471.8
3041.80542	465.5
3044.20903	469.4
3046.61118	472.3
3049.01187	472.9
3051.4111	478.7
3053.80888	476.6
3056.20519	484.1
3058.60005	476.9
3060.99345	482
3063.3854	485.2
3065.7759	485
3068.16494	486.7
3070.55254	488.9
3072.93868	490.2
3075.32338	496.1
3077.70662	495.2
3080.08842	504.5
3082.46878	503.9
3084.84769	511.3
3087.22515	508.9
3089.60118	508.4
3091.97576	518.5
3094.3489	519
3096.72061	522.7
3099.09087	528.2
3101.4597	529.7
3103.82709	538.7
3106.19305	537.8
3108.55757	547.8
3110.92066	548.2
3113.28232	552.1
3115.64255	558.9
3118.00134	560.3
3120.35871	562
3122.71466	565.5
3125.06917	568.2
3127.42226	572.3
3129.77393	582.4
3132.12417	580.9
3134.47299	592.6
3136.82039	600.4
3139.16636	603
3141.51092	600.5
3143.85406	613.5
3146.19579	613.1
3148.53609	621.6
3150.87499	631.7
3153.21246	632.7
3155.54853	646.6
3157.88318	649.3
3160.21642	659.4
3162.54826	664.8
3164.87868	661.1
3167.2077	673.8
3169.5353	683.5
3171.86151	681.3
3174.18631	688.1
3176.5097	696.2
3178.83169	696.1
3181.15228	701
3183.47147	710
3185.78926	712.5
3188.10565	716.5
3190.42065	713.8
3192.73424	719.9
3195.04645	731.6
3197.35725	725.6
3199.66667	742.9
3201.97469	747.5
3204.28132	744.6
3206.58656	755.7
3208.8904	753
3211.19287	756.8
3213.49394	752.7
3215.79363	763.9
3218.09193	767.7
3220.38884	761.2
3222.68438	748.7
3224.97853	767.5
3227.2713	774.3
3229.56269	776.3
3231.8527	783.1
3234.14133	778.9
3236.42858	778.3
3238.71446	786
3240.99896	787.2
3243.28209	781.1
3245.56384	783.6
3247.84423	780.9
3250.12324	788.4
3252.40088	791.3
3254.67715	791.5
3256.95205	783.9
3259.22558	788
3261.49775	790.5
3263.76855	795.1
3266.03799	790.6
3268.30606	791.5
3270.57277	787.2
3272.83812	789.7
3275.10211	785.4
3277.36474	787.8
3279.62601	787.3
3281.88593	787.7
3284.14448	792.9
3286.40168	786.6
3288.65753	788
3290.91202	784.2
3293.16516	784.5
3295.41695	790.6
3297.66738	784.3
3299.91647	783.1
3302.16421	783.4
3304.4106	771.6
3306.65564	768.8
3308.89933	768.7
3311.14169	756.1
3313.38269	743.6
3315.62236	752.2
3317.86068	745.8
3320.09766	744.7
3322.3333	738.4
3324.5676	730.1
3326.80056	702.2
3329.03219	711.8
3331.26248	-0.4
3333.49143	1
3335.71905	-0.2
