Data from AgNPs_APTES_FTO_UA_100uM_CRN_0uM_R6G_10uM_Scan_RamanShift__4__12-08-43-505.txt Node

Date: Thu Jun 23 12:08:43 BST 2022
User: TCL
Spectrometer: QEP01345
Trigger mode: 4
Integration Time (sec): 7.000000E0
Scans to average: 10
Electric dark correction enabled: true
Nonlinearity correction enabled: false
Boxcar width: 0
XAxis mode: Raman Shifts
Number of Pixels in Spectrum: 1044
>>>>>Begin Spectral Data<<<<<
46.04893	0.4375
50.45542	0.2375
54.85868	-1.2625
59.25871	-0.6625
63.6555	31.8375
68.04907	35.8375
72.43941	40.5375
76.82654	42.5375
81.21044	44.8375
85.59113	45.6375
89.96862	54.2375
94.34289	56.4375
98.71396	55.2375
103.08183	55.2375
107.4465	55.3375
111.80798	52.5375
116.16626	57.8375
120.52136	58.3375
124.87327	57.0375
129.222	57.9375
133.56755	59.2375
137.90993	57.6375
142.24913	58.1375
146.58517	59.7375
150.91804	58.8375
155.24774	69.2375
159.57429	73.8375
163.89768	89.6375
168.21792	105.7375
172.53501	125.0375
176.84895	160.6375
181.15975	220.2375
185.46741	297.1375
189.77193	409.5375
194.07331	543.3375
198.37157	702.3375
202.6667	880.4375
206.9587	1058.5375
211.24758	1246.7375
215.53334	1422.9375
219.81599	1623.7375
224.09553	1829.4375
228.37195	2073.4375
232.64527	2319.8375
236.91549	2597.4375
241.18261	2873.4375
245.44663	3136.3375
249.70755	3366.6375
253.96539	3555.8375
258.22014	3688.6375
262.4718	3762.1375
266.72039	3772.2375
270.96589	3709.1375
275.20832	3594.6375
279.44768	3426.7375
283.68397	3250.8375
287.91719	3063.7375
292.14735	2890.4375
296.37445	2742.6375
300.59849	2645.0375
304.81948	2599.1375
309.03742	2537.1375
313.25231	2490.5375
317.46415	2397.6375
321.67296	2273.6375
325.87872	2167.4375
330.08145	2105.4375
334.28114	2085.8375
338.47781	2087.3375
342.67145	2101.5375
346.86207	2122.5375
351.04966	2179.1375
355.23424	2236.1375
359.4158	2255.5375
363.59435	2248.7375
367.76989	2240.6375
371.94243	2218.1375
376.11196	2194.2375
380.27849	2171.8375
384.44203	2163.4375
388.60257	2158.9375
392.76012	2152.9375
396.91468	2154.6375
401.06626	2191.8375
405.21485	2196.2375
409.36047	2167.4375
413.50311	2139.4375
417.64277	2087.6375
421.77947	2057.5375
425.9132	2063.6375
430.04396	2069.6375
434.17176	2098.3375
438.2966	2112.5375
442.41849	2146.9375
446.53742	2174.3375
450.6534	2200.3375
454.76644	2213.2375
458.87653	2201.9375
462.98368	2207.8375
467.08789	2213.6375
471.18916	2201.4375
475.2875	2184.8375
479.38291	2171.1375
483.4754	2170.2375
487.56496	2166.4375
491.6516	2161.7375
495.73531	2149.8375
499.81612	2161.2375
503.89401	2166.3375
507.96899	2168.5375
512.04106	2178.8375
516.11023	2187.0375
520.1765	2211.4375
524.23987	2210.0375
528.30034	2190.4375
532.35792	2181.6375
536.41261	2166.0375
540.46441	2154.0375
544.51333	2144.6375
548.55936	2144.2375
552.60252	2162.3375
556.64279	2176.7375
560.6802	2186.4375
564.71473	2217.7375
568.7464	2267.7375
572.7752	2281.5375
576.80114	2241.8375
580.82422	2203.5375
584.84444	2211.1375
588.86181	2234.0375
592.87633	2287.0375
596.888	2363.2375
600.89682	2497.3375
604.9028	2733.1375
608.90594	3184.8375
612.90624	3731.5375
616.90371	3758.2375
620.89834	3295.6375
624.89015	3040.9375
628.87913	2876.3375
632.86528	2754.5375
636.84862	2620.8375
640.82913	2481.3375
644.80683	2369.3375
648.78172	2297.4375
652.75379	2293.4375
656.72306	2339.1375
660.68952	2409.2375
664.65319	2438.3375
668.61405	2442.0375
672.57211	2492.6375
676.52738	2546.5375
680.47986	2618.7375
684.42955	2658.1375
688.37646	2691.2375
692.32058	2689.4375
696.26192	2658.4375
700.20048	2647.0375
704.13626	2633.7375
708.06928	2627.2375
711.99952	2546.6375
715.927	2515.6375
719.85171	2472.3375
723.77365	2440.7375
727.69284	2412.0375
731.60928	2383.1375
735.52295	2358.0375
739.43388	2347.1375
743.34206	2344.8375
747.24749	2340.7375
751.15017	2331.5375
755.05012	2329.6375
758.94733	2384.8375
762.8418	2498.1375
766.73354	2694.5375
770.62254	2863.7375
774.50882	2946.0375
778.39237	2874.1375
782.27321	2716.1375
786.15132	2563.7375
790.02671	2457.6375
793.89938	2428.7375
797.76935	2418.3375
801.6366	2420.1375
805.50115	2439.3375
809.36299	2463.4375
813.22213	2483.8375
817.07857	2489.9375
820.93231	2476.8375
824.78336	2480.0375
828.63172	2458.8375
832.47738	2466.4375
836.32036	2458.0375
840.16066	2466.7375
843.99827	2460.1375
847.8332	2451.3375
851.66546	2456.0375
855.49504	2456.2375
859.32195	2462.1375
863.1462	2475.9375
866.96777	2535.3375
870.78668	2549.3375
874.60293	2584.6375
878.41652	2638.1375
882.22745	2711.9375
886.03573	2795.8375
889.84136	2863.6375
893.64433	2974.8375
897.44466	3037.5375
901.24235	3098.8375
905.0374	3154.4375
908.8298	3220.4375
912.61957	3293.2375
916.40671	3360.3375
920.19121	3459.9375
923.97308	3535.9375
927.75233	3588.5375
931.52895	3594.0375
935.30295	3514.4375
939.07433	3403.6375
942.84309	3252.1375
946.60924	3141.5375
950.37278	3014.2375
954.13371	2937.7375
957.89203	2856.0375
961.64774	2796.5375
965.40086	2724.0375
969.15137	2682.7375
972.89929	2626.7375
976.64461	2599.4375
980.38733	2563.8375
984.12747	2544.2375
987.86502	2537.5375
991.59999	2493.2375
995.33237	2510.6375
999.06217	2507.9375
1002.78939	2503.7375
1006.51404	2493.9375
1010.23611	2503.0375
1013.95561	2505.4375
1017.67255	2511.4375
1021.38692	2506.9375
1025.09872	2496.0375
1028.80796	2510.8375
1032.51465	2516.6375
1036.21877	2536.1375
1039.92035	2578.6375
1043.61937	2614.8375
1047.31584	2631.0375
1051.00976	2667.2375
1054.70114	2637.9375
1058.38998	2606.4375
1062.07627	2548.7375
1065.76003	2508.3375
1069.44126	2451.5375
1073.11995	2413.3375
1076.79611	2400.0375
1080.46974	2389.1375
1084.14085	2392.9375
1087.80943	2409.2375
1091.47549	2421.0375
1095.13903	2371.3375
1098.80005	2336.8375
1102.45857	2304.2375
1106.11456	2293.1375
1109.76805	2308.1375
1113.41903	2324.3375
1117.06751	2352.2375
1120.71348	2407.3375
1124.35696	2473.1375
1127.99793	2541.6375
1131.63641	2545.5375
1135.2724	2490.6375
1138.90589	2458.7375
1142.5369	2406.7375
1146.16542	2384.1375
1149.79145	2353.1375
1153.415	2340.9375
1157.03607	2340.7375
1160.65467	2341.5375
1164.27079	2353.3375
1167.88443	2409.3375
1171.49561	2448.0375
1175.10432	2563.5375
1178.71056	2729.8375
1182.31434	2856.5375
1185.91565	2855.4375
1189.51451	2791.3375
1193.11091	2692.4375
1196.70485	2610.2375
1200.29634	2542.1375
1203.88538	2516.0375
1207.47197	2460.9375
1211.05612	2412.5375
1214.63782	2391.5375
1218.21708	2373.6375
1221.79391	2382.8375
1225.36829	2375.4375
1228.94024	2393.0375
1232.50976	2412.2375
1236.07685	2425.2375
1239.6415	2452.7375
1243.20374	2464.0375
1246.76355	2484.1375
1250.32093	2511.8375
1253.8759	2537.3375
1257.42845	2560.5375
1260.97859	2607.2375
1264.52631	2655.1375
1268.07163	2699.7375
1271.61453	2735.9375
1275.15503	2767.1375
1278.69312	2787.2375
1282.22882	2788.6375
1285.76211	2837.2375
1289.29301	2907.0375
1292.82151	2959.1375
1296.34761	3029.5375
1299.87133	3101.0375
1303.39266	3239.9375
1306.9116	3440.2375
1310.42815	3663.9375
1313.94233	3783.0375
1317.45412	3675.3375
1320.96354	3494.8375
1324.47058	3321.8375
1327.97525	3177.2375
1331.47754	3092.2375
1334.97747	3077.3375
1338.47502	3071.0375
1341.97022	3133.6375
1345.46305	3236.5375
1348.95352	3411.8375
1352.44163	3613.0375
1355.92738	3833.5375
1359.41078	4173.9375
1362.89183	4552.4375
1366.37053	4616.1375
1369.84688	4208.7375
1373.32088	3792.2375
1376.79254	3564.0375
1380.26186	3465.0375
1383.72883	3398.7375
1387.19347	3356.2375
1390.65578	3330.2375
1394.11575	3301.1375
1397.57339	3284.8375
1401.0287	3264.5375
1404.48168	3230.2375
1407.93234	3201.3375
1411.38068	3180.0375
1414.82669	3164.9375
1418.27039	3135.2375
1421.71177	3111.6375
1425.15083	3092.5375
1428.58758	3047.7375
1432.02203	3013.9375
1435.45416	2990.7375
1438.88399	2951.8375
1442.31151	2905.4375
1445.73673	2870.4375
1449.15965	2854.7375
1452.58027	2834.3375
1455.9986	2808.9375
1459.41463	2799.5375
1462.82837	2795.8375
1466.23982	2812.6375
1469.64898	2821.2375
1473.05586	2844.8375
1476.46045	2854.5375
1479.86276	2869.5375
1483.26279	2898.4375
1486.66054	2911.9375
1490.05602	2960.6375
1493.44922	3010.6375
1496.84016	3115.3375
1500.22882	3280.5375
1503.61521	3524.4375
1506.99934	3824.5375
1510.38121	4107.1375
1513.76081	4200.6375
1517.13816	4036.9375
1520.51324	3676.2375
1523.88607	3324.2375
1527.25665	3078.9375
1530.62498	2940.3375
1533.99105	2857.5375
1537.35488	2804.4375
1540.71647	2756.8375
1544.07581	2732.8375
1547.4329	2722.5375
1550.78776	2734.0375
1554.14038	2740.6375
1557.49077	2737.5375
1560.83892	2751.7375
1564.18484	2775.5375
1567.52853	2823.5375
1570.86999	2875.9375
1574.20922	2905.4375
1577.54624	2876.6375
1580.88103	2800.6375
1584.2136	2659.5375
1587.54395	2563.9375
1590.87208	2523.6375
1594.19801	2504.5375
1597.52172	2537.1375
1600.84321	2542.3375
1604.16251	2504.0375
1607.47959	2467.2375
1610.79447	2440.8375
1614.10715	2402.1375
1617.41763	2380.9375
1620.7259	2367.7375
1624.03199	2368.5375
1627.33587	2370.3375
1630.63757	2380.5375
1633.93707	2396.8375
1637.23439	2428.0375
1640.52951	2497.8375
1643.82246	2594.2375
1647.11321	2758.0375
1650.40179	2916.6375
1653.68819	2912.5375
1656.97241	2751.1375
1660.25446	2510.4375
1663.53433	2327.3375
1666.81203	2215.7375
1670.08756	2137.8375
1673.36092	2093.5375
1676.63211	2067.1375
1679.90115	2029.1375
1683.16801	2008.9375
1686.43272	1996.8375
1689.69527	1986.6375
1692.95567	1942.4375
1696.2139	1947.9375
1699.46999	1929.7375
1702.72392	1915.0375
1705.97571	1917.1375
1709.22535	1906.6375
1712.47284	1905.9375
1715.71819	1888.3375
1718.96139	1895.6375
1722.20246	1882.9375
1725.44139	1873.1375
1728.67818	1861.7375
1731.91284	1855.2375
1735.14537	1839.7375
1738.37576	1834.6375
1741.60403	1824.8375
1744.83017	1816.4375
1748.05418	1796.4375
1751.27607	1802.7375
1754.49584	1796.4375
1757.71349	1791.8375
1760.92903	1780.7375
1764.14244	1781.7375
1767.35375	1783.7375
1770.56294	1771.7375
1773.77002	1772.3375
1776.97499	1771.1375
1780.17785	1774.6375
1783.37861	1767.4375
1786.57727	1765.4375
1789.77382	1760.8375
1792.96828	1760.5375
1796.16064	1752.8375
1799.3509	1747.1375
1802.53907	1750.2375
1805.72514	1739.7375
1808.90913	1735.1375
1812.09102	1730.7375
1815.27083	1728.7375
1818.44856	1724.5375
1821.6242	1724.9375
1824.79776	1723.3375
1827.96924	1716.4375
1831.13864	1706.4375
1834.30597	1717.9375
1837.47122	1705.3375
1840.6344	1708.6375
1843.7955	1702.7375
1846.95454	1706.5375
1850.11151	1707.7375
1853.26642	1707.4375
1856.41926	1701.9375
1859.57004	1693.9375
1862.71876	1689.4375
1865.86542	1692.4375
1869.01003	1688.7375
1872.15258	1683.3375
1875.29308	1684.6375
1878.43152	1683.7375
1881.56792	1679.5375
1884.70227	1674.8375
1887.83457	1678.4375
1890.96482	1664.4375
1894.09304	1660.4375
1897.21921	1659.9375
1900.34335	1668.6375
1903.46544	1657.0375
1906.58551	1655.0375
1909.70353	1646.1375
1912.81953	1652.3375
1915.93349	1658.8375
1919.04543	1659.5375
1922.15534	1648.4375
1925.26322	1640.3375
1928.36908	1649.4375
1931.47292	1641.1375
1934.57473	1632.0375
1937.67453	1627.7375
1940.77232	1619.6375
1943.86808	1626.6375
1946.96184	1623.6375
1950.05358	1615.9375
1953.14331	1606.6375
1956.23103	1611.2375
1959.31675	1599.3375
1962.40046	1591.1375
1965.48217	1584.9375
1968.56188	1586.8375
1971.63959	1582.1375
1974.7153	1581.3375
1977.78901	1574.3375
1980.86073	1567.7375
1983.93046	1564.6375
1986.99819	1549.5375
1990.06394	1564.3375
1993.1277	1552.2375
1996.18947	1536.7375
1999.24925	1532.7375
2002.30706	1533.9375
2005.36288	1531.6375
2008.41672	1523.2375
2011.46859	1520.6375
2014.51848	1524.5375
2017.56639	1521.1375
2020.61233	1527.8375
2023.6563	1519.5375
2026.6983	1512.1375
2029.73833	1503.0375
2032.7764	1507.0375
2035.8125	1510.9375
2038.84664	1506.2375
2041.87881	1520.8375
2044.90903	1525.9375
2047.93729	1525.1375
2050.96359	1524.4375
2053.98794	1538.0375
2057.01034	1539.1375
2060.03078	1554.5375
2063.04927	1570.8375
2066.06582	1582.3375
2069.08042	1601.1375
2072.09307	1601.7375
2075.10378	1613.5375
2078.11255	1628.9375
2081.11938	1653.8375
2084.12426	1666.5375
2087.12722	1675.3375
2090.12824	1676.1375
2093.12732	1672.1375
2096.12447	1686.6375
2099.11969	1684.6375
2102.11299	1685.9375
2105.10435	1676.1375
2108.09379	1672.7375
2111.08131	1670.0375
2114.0669	1648.8375
2117.05057	1641.8375
2120.03233	1630.5375
2123.01216	1610.1375
2125.99008	1602.9375
2128.96609	1590.0375
2131.94018	1583.6375
2134.91236	1577.7375
2137.88263	1544.2375
2140.851	1551.8375
2143.81746	1541.5375
2146.78201	1529.7375
2149.74466	1517.6375
2152.7054	1503.7375
2155.66425	1508.3375
2158.6212	1496.4375
2161.57625	1488.8375
2164.52941	1475.2375
2167.48067	1481.0375
2170.43004	1469.1375
2173.37752	1463.5375
2176.32311	1464.7375
2179.26681	1465.2375
2182.20863	1458.8375
2185.14856	1461.7375
2188.08661	1451.6375
2191.02278	1457.2375
2193.95707	1447.4375
2196.88948	1441.7375
2199.82001	1444.3375
2202.74867	1442.4375
2205.67545	1438.7375
2208.60037	1441.6375
2211.52341	1436.9375
2214.44458	1430.6375
2217.36388	1426.9375
2220.28132	1423.2375
2223.1969	1410.5375
2226.11061	1415.2375
2229.02246	1404.7375
2231.93245	1411.8375
2234.84058	1409.9375
2237.74686	1406.5375
2240.65128	1404.2375
2243.55385	1392.8375
2246.45456	1388.6375
2249.35343	1396.0375
2252.25044	1391.4375
2255.14561	1390.3375
2258.03893	1388.1375
2260.93041	1389.5375
2263.82004	1392.4375
2266.70783	1376.8375
2269.59378	1376.2375
2272.4779	1374.0375
2275.36017	1372.7375
2278.24061	1372.7375
2281.11922	1366.0375
2283.996	1379.1375
2286.87094	1360.3375
2289.74405	1362.7375
2292.61534	1362.5375
2295.4848	1363.1375
2298.35243	1356.4375
2301.21824	1355.8375
2304.08223	1353.4375
2306.94439	1353.4375
2309.80474	1350.3375
2312.66327	1350.9375
2315.51999	1344.5375
2318.37489	1343.8375
2321.22797	1342.9375
2324.07925	1338.5375
2326.92871	1339.2375
2329.77637	1336.0375
2332.62222	1342.4375
2335.46626	1331.9375
2338.3085	1327.8375
2341.14893	1327.3375
2343.98756	1316.9375
2346.8244	1317.8375
2349.65943	1319.3375
2352.49267	1320.9375
2355.32411	1321.9375
2358.15376	1322.1375
2360.98161	1316.7375
2363.80768	1311.9375
2366.63195	1321.1375
2369.45444	1313.6375
2372.27514	1315.8375
2375.09405	1307.1375
2377.91118	1310.5375
2380.72652	1293.8375
2383.54009	1301.3375
2386.35187	1297.1375
2389.16188	1299.9375
2391.97011	1290.6375
2394.77657	1285.3375
2397.58125	1289.7375
2400.38416	1281.2375
2403.18529	1274.1375
2405.98466	1271.3375
2408.78226	1274.4375
2411.57809	1261.3375
2414.37216	1274.2375
2417.16446	1265.8375
2419.955	1262.0375
2422.74378	1261.8375
2425.5308	1258.2375
2428.31606	1262.7375
2431.09956	1260.2375
2433.88131	1264.0375
2436.6613	1255.8375
2439.43954	1256.9375
2442.21603	1259.9375
2444.99077	1248.6375
2447.76377	1255.9375
2450.53501	1257.1375
2453.30451	1253.6375
2456.07226	1246.8375
2458.83827	1244.2375
2461.60254	1236.0375
2464.36507	1238.0375
2467.12586	1238.1375
2469.88492	1245.9375
2472.64224	1240.9375
2475.39782	1242.5375
2478.15167	1235.0375
2480.90379	1238.2375
2483.65417	1238.7375
2486.40283	1240.5375
2489.14976	1230.9375
2491.89497	1238.4375
2494.63845	1241.7375
2497.3802	1232.0375
2500.12024	1225.9375
2502.85855	1233.3375
2505.59514	1222.3375
2508.33002	1225.4375
2511.06318	1224.9375
2513.79462	1219.8375
2516.52435	1214.7375
2519.25237	1209.2375
2521.97867	1219.4375
2524.70327	1204.7375
2527.42616	1206.5375
2530.14734	1203.4375
2532.86681	1198.3375
2535.58458	1198.6375
2538.30065	1197.5375
2541.01501	1197.8375
2543.72768	1195.2375
2546.43864	1197.7375
2549.14791	1194.2375
2551.85548	1189.3375
2554.56136	1190.0375
2557.26554	1186.7375
2559.96803	1178.6375
2562.66883	1179.9375
2565.36794	1182.9375
2568.06536	1181.6375
2570.7611	1169.7375
2573.45514	1172.7375
2576.14751	1169.5375
2578.83819	1159.2375
2581.52719	1163.9375
2584.21451	1157.9375
2586.90015	1164.6375
2589.58411	1159.1375
2592.2664	1167.6375
2594.94701	1154.7375
2597.62594	1149.5375
2600.30321	1155.4375
2602.9788	1145.1375
2605.65273	1145.6375
2608.32498	1146.7375
2610.99557	1144.9375
2613.66449	1141.6375
2616.33175	1139.0375
2618.99734	1136.6375
2621.66128	1140.0375
2624.32355	1136.2375
2626.98416	1135.4375
2629.64311	1136.6375
2632.30041	1128.7375
2634.95605	1124.8375
2637.61004	1128.6375
2640.26238	1123.4375
2642.91306	1114.9375
2645.56209	1127.5375
2648.20948	1118.0375
2650.85521	1115.1375
2653.4993	1117.9375
2656.14175	1118.8375
2658.78255	1115.7375
2661.42171	1111.0375
2664.05923	1112.3375
2666.6951	1118.1375
2669.32934	1115.0375
2671.96194	1110.6375
2674.59291	1115.8375
2677.22224	1127.0375
2679.84993	1114.9375
2682.476	1112.3375
2685.10043	1114.2375
2687.72324	1119.4375
2690.34441	1116.8375
2692.96396	1115.9375
2695.58188	1121.2375
2698.19818	1116.8375
2700.81285	1113.7375
2703.4259	1113.4375
2706.03733	1097.8375
2708.64714	1105.9375
2711.25533	1112.6375
2713.86191	1109.1375
2716.46687	1122.1375
2719.07021	1119.2375
2721.67194	1124.9375
2724.27206	1117.7375
2726.87057	1110.9375
2729.46747	1116.8375
2732.06276	1120.5375
2734.65644	1115.8375
2737.24852	1119.8375
2739.83899	1111.3375
2742.42786	1111.5375
2745.01513	1104.7375
2747.60079	1109.8375
2750.18486	1115.7375
2752.76733	1108.5375
2755.3482	1101.8375
2757.92747	1107.9375
2760.50515	1105.7375
2763.08123	1104.7375
2765.65573	1095.4375
2768.22863	1098.5375
2770.79994	1100.0375
2773.36967	1103.8375
2775.9378	1097.8375
2778.50435	1093.2375
2781.06932	1094.6375
2783.6327	1094.5375
2786.1945	1093.8375
2788.75471	1089.7375
2791.31335	1091.0375
2793.87041	1084.7375
2796.42589	1084.3375
2798.97979	1075.0375
2801.53212	1076.6375
2804.08288	1071.9375
2806.63206	1079.1375
2809.17967	1070.0375
2811.72571	1066.2375
2814.27018	1069.5375
2816.81308	1062.3375
2819.35442	1066.9375
2821.89419	1067.7375
2824.43239	1056.4375
2826.96904	1047.0375
2829.50412	1063.1375
2832.03763	1052.0375
2834.56959	1050.5375
2837.1	1049.8375
2839.62884	1051.4375
2842.15613	1053.6375
2844.68186	1053.4375
2847.20604	1052.8375
2849.72867	1068.9375
2852.24974	1061.9375
2854.76927	1063.2375
2857.28724	1047.5375
2859.80367	1055.1375
2862.31855	1048.7375
2864.83189	1047.2375
2867.34368	1049.8375
2869.85393	1053.9375
2872.36264	1055.4375
2874.8698	1056.3375
2877.37543	1058.1375
2879.87952	1061.6375
2882.38207	1058.9375
2884.88308	1057.8375
2887.38256	1050.2375
2889.88051	1064.1375
2892.37692	1063.5375
2894.8718	1061.9375
2897.36515	1064.3375
2899.85698	1077.6375
2902.34727	1073.8375
2904.83604	1082.6375
2907.32328	1087.7375
2909.809	1104.8375
2912.29319	1100.2375
2914.77587	1118.7375
2917.25702	1107.7375
2919.73665	1116.2375
2922.21476	1119.2375
2924.69136	1115.2375
2927.16644	1121.5375
2929.64	1128.4375
2932.11205	1117.3375
2934.58258	1119.4375
2937.05161	1114.8375
2939.51912	1109.0375
2941.98513	1116.1375
2944.44962	1102.1375
2946.91261	1085.4375
2949.37409	1082.2375
2951.83407	1090.0375
2954.29254	1086.8375
2956.74951	1082.3375
2959.20498	1076.6375
2961.65895	1069.7375
2964.11142	1064.5375
2966.56239	1065.0375
2969.01186	1063.6375
2971.45984	1062.2375
2973.90632	1055.2375
2976.35131	1058.2375
2978.7948	1054.3375
2981.23681	1055.7375
2983.67732	1050.1375
2986.11635	1044.2375
2988.55388	1039.6375
2990.98993	1042.6375
2993.4245	1038.9375
2995.85758	1036.7375
2998.28917	1037.7375
3000.71928	1042.1375
3003.14791	1043.5375
3005.57506	1037.4375
3008.00073	1034.7375
3010.42493	1037.6375
3012.84764	1034.8375
3015.26888	1039.3375
3017.68865	1037.5375
3020.10694	1036.3375
3022.52376	1032.8375
3024.9391	1028.8375
3027.35298	1040.7375
3029.76539	1031.4375
3032.17632	1040.8375
3034.5858	1033.7375
3036.9938	1038.0375
3039.40034	1043.5375
3041.80542	1036.5375
3044.20903	1041.0375
3046.61118	1044.1375
3049.01187	1034.8375
3051.4111	1043.9375
3053.80888	1042.2375
3056.20519	1047.2375
3058.60005	1038.4375
3060.99345	1041.2375
3063.3854	1041.8375
3065.7759	1044.5375
3068.16494	1051.2375
3070.55254	1043.4375
3072.93868	1044.2375
3075.32338	1047.1375
3077.70662	1046.1375
3080.08842	1050.1375
3082.46878	1045.0375
3084.84769	1057.5375
3087.22515	1059.4375
3089.60118	1059.1375
3091.97576	1071.3375
3094.3489	1064.8375
3096.72061	1069.9375
3099.09087	1082.3375
3101.4597	1078.3375
3103.82709	1089.1375
3106.19305	1089.7375
3108.55757	1090.5375
3110.92066	1090.3375
3113.28232	1090.7375
3115.64255	1103.5375
3118.00134	1107.6375
3120.35871	1110.1375
3122.71466	1111.1375
3125.06917	1111.0375
3127.42226	1111.2375
3129.77393	1120.5375
3132.12417	1119.6375
3134.47299	1131.1375
3136.82039	1132.4375
3139.16636	1139.5375
3141.51092	1142.0375
3143.85406	1153.1375
3146.19579	1151.8375
3148.53609	1157.7375
3150.87499	1168.8375
3153.21246	1176.3375
3155.54853	1181.5375
3157.88318	1186.8375
3160.21642	1191.9375
3162.54826	1197.7375
3164.87868	1202.4375
3167.2077	1213.2375
3169.5353	1216.7375
3171.86151	1224.1375
3174.18631	1237.8375
3176.5097	1236.2375
3178.83169	1238.0375
3181.15228	1236.3375
3183.47147	1239.8375
3185.78926	1245.0375
3188.10565	1248.5375
3190.42065	1256.7375
3192.73424	1258.3375
3195.04645	1255.5375
3197.35725	1263.6375
3199.66667	1268.5375
3201.97469	1269.3375
3204.28132	1277.9375
3206.58656	1269.3375
3208.8904	1282.6375
3211.19287	1282.7375
3213.49394	1285.8375
3215.79363	1297.5375
3218.09193	1312.5375
3220.38884	1296.4375
3222.68438	1299.0375
3224.97853	1303.0375
3227.2713	1311.6375
3229.56269	1313.4375
3231.8527	1310.6375
3234.14133	1309.6375
3236.42858	1304.3375
3238.71446	1312.6375
3240.99896	1308.8375
3243.28209	1309.1375
3245.56384	1306.4375
3247.84423	1298.8375
3250.12324	1304.7375
3252.40088	1311.1375
3254.67715	1321.7375
3256.95205	1307.3375
3259.22558	1310.3375
3261.49775	1314.5375
3263.76855	1310.4375
3266.03799	1313.1375
3268.30606	1309.1375
3270.57277	1319.3375
3272.83812	1309.2375
3275.10211	1305.2375
3277.36474	1308.4375
3279.62601	1310.0375
3281.88593	1300.0375
3284.14448	1303.7375
3286.40168	1309.4375
3288.65753	1298.2375
3290.91202	1299.8375
3293.16516	1303.1375
3295.41695	1304.5375
3297.66738	1291.5375
3299.91647	1296.7375
3302.16421	1280.3375
3304.4106	1280.0375
3306.65564	1275.3375
3308.89933	1264.6375
3311.14169	1263.7375
3313.38269	1242.3375
3315.62236	1245.8375
3317.86068	1238.0375
3320.09766	1229.5375
3322.3333	1223.6375
3324.5676	1202.9375
3326.80056	1184.7375
3329.03219	1183.5375
3331.26248	0.4375
3333.49143	0.4375
3335.71905	-0.3625
