Data from AgNPs_APTES_FTO_UA_100uM_CRN_0uM_R6G_10uM_Scan_RamanShift__13__12-19-13-518.txt Node

Date: Thu Jun 23 12:19:13 BST 2022
User: TCL
Spectrometer: QEP01345
Trigger mode: 4
Integration Time (sec): 7.000000E0
Scans to average: 10
Electric dark correction enabled: true
Nonlinearity correction enabled: false
Boxcar width: 0
XAxis mode: Raman Shifts
Number of Pixels in Spectrum: 1044
>>>>>Begin Spectral Data<<<<<
46.04893	0.7
50.45542	0.3
54.85868	-0.9
59.25871	-0.7
63.6555	32.3
68.04907	31.6
72.43941	38.9
76.82654	41.6
81.21044	41.3
85.59113	44.5
89.96862	51.6
94.34289	48.8
98.71396	49.4
103.08183	49.8
107.4465	50.8
111.80798	50.9
116.16626	52.3
120.52136	55.2
124.87327	50.1
129.222	51.7
133.56755	53.7
137.90993	52.5
142.24913	50
146.58517	53.3
150.91804	54.5
155.24774	64.2
159.57429	62
163.89768	72.6
168.21792	88.6
172.53501	108.3
176.84895	135.5
181.15975	177.1
185.46741	242.5
189.77193	358.3
194.07331	430.4
198.37157	553.1
202.6667	671.6
206.9587	806.2
211.24758	928.5
215.53334	1061.4
219.81599	1205.9
224.09553	1357.7
228.37195	1516.2
232.64527	1700
236.91549	1880
241.18261	2042.3
245.44663	2199.9
249.70755	2323.9
253.96539	2428.3
258.22014	2490
262.4718	2550.2
266.72039	2577.2
270.96589	2572.9
275.20832	2541.5
279.44768	2483.2
283.68397	2414
287.91719	2351.7
292.14735	2314
296.37445	2320.6
300.59849	2349.5
304.81948	2394.2
309.03742	2450.4
313.25231	2461
317.46415	2414.3
321.67296	2298.3
325.87872	2195.6
330.08145	2137.3
334.28114	2115.8
338.47781	2141
342.67145	2177
346.86207	2241.2
351.04966	2300.4
355.23424	2401.7
359.4158	2460.3
363.59435	2477.9
367.76989	2477.6
371.94243	2463.8
376.11196	2440.8
380.27849	2438.5
384.44203	2427
388.60257	2406.3
392.76012	2425.5
396.91468	2432.7
401.06626	2475.4
405.21485	2486.1
409.36047	2450.4
413.50311	2365.6
417.64277	2288.5
421.77947	2254.7
425.9132	2228.8
430.04396	2232.4
434.17176	2243
438.2966	2269.7
442.41849	2305
446.53742	2346.5
450.6534	2373.7
454.76644	2403.5
458.87653	2393.6
462.98368	2385.2
467.08789	2373.3
471.18916	2355.5
475.2875	2325.9
479.38291	2322.2
483.4754	2321.1
487.56496	2313.4
491.6516	2328.3
495.73531	2332.8
499.81612	2347
503.89401	2358.4
507.96899	2366.1
512.04106	2381.2
516.11023	2404.8
520.1765	2405.7
524.23987	2419.3
528.30034	2396.7
532.35792	2384.5
536.41261	2360.9
540.46441	2316.3
544.51333	2296.8
548.55936	2290.9
552.60252	2308.7
556.64279	2330.9
560.6802	2361.9
564.71473	2372.4
568.7464	2432.4
572.7752	2452.6
576.80114	2393.7
580.82422	2340.3
584.84444	2341.9
588.86181	2370.1
592.87633	2401.8
596.888	2435.7
600.89682	2497.9
604.9028	2725.1
608.90594	3300.9
612.90624	4018.6
616.90371	3919
620.89834	3093.5
624.89015	2664.6
628.87913	2573.3
632.86528	2598
636.84862	2606.6
640.82913	2558.6
644.80683	2469.3
648.78172	2383.2
652.75379	2359.1
656.72306	2404
660.68952	2460.9
664.65319	2434.8
668.61405	2385.3
672.57211	2349.1
676.52738	2387
680.47986	2445
684.42955	2506.7
688.37646	2524.9
692.32058	2496.8
696.26192	2439.2
700.20048	2405.4
704.13626	2391.4
708.06928	2361.9
711.99952	2353.4
715.927	2332.6
719.85171	2354.6
723.77365	2351.3
727.69284	2349.3
731.60928	2334.6
735.52295	2329
739.43388	2321.1
743.34206	2317.3
747.24749	2314.7
751.15017	2307.7
755.05012	2331.2
758.94733	2379.2
762.8418	2556.1
766.73354	2860.8
770.62254	3145.4
774.50882	3266.1
778.39237	3162
782.27321	2896
786.15132	2619.1
790.02671	2457.1
793.89938	2387.7
797.76935	2365
801.6366	2354.4
805.50115	2371.2
809.36299	2390.7
813.22213	2395.2
817.07857	2379.6
820.93231	2358.5
824.78336	2329.6
828.63172	2312.4
832.47738	2309.8
836.32036	2298
840.16066	2309.7
843.99827	2294
847.8332	2303.8
851.66546	2300.1
855.49504	2284.1
859.32195	2281.5
863.1462	2282.6
866.96777	2298.4
870.78668	2305.9
874.60293	2339.7
878.41652	2378.9
882.22745	2435.2
886.03573	2469.7
889.84136	2514.1
893.64433	2520
897.44466	2517
901.24235	2520.3
905.0374	2506.2
908.8298	2514
912.61957	2545.3
916.40671	2600.2
920.19121	2669.9
923.97308	2722.2
927.75233	2789
931.52895	2818
935.30295	2762.1
939.07433	2663.5
942.84309	2565.7
946.60924	2468.8
950.37278	2404.4
954.13371	2338.3
957.89203	2294.8
961.64774	2246.2
965.40086	2214.6
969.15137	2180.7
972.89929	2162.7
976.64461	2124.6
980.38733	2122.3
984.12747	2103.3
987.86502	2103.2
991.59999	2084.5
995.33237	2100.7
999.06217	2104.6
1002.78939	2125.7
1006.51404	2148.6
1010.23611	2187.8
1013.95561	2188.3
1017.67255	2201.5
1021.38692	2191.7
1025.09872	2170.9
1028.80796	2166
1032.51465	2142.3
1036.21877	2142.5
1039.92035	2134.4
1043.61937	2139.4
1047.31584	2127.9
1051.00976	2129.6
1054.70114	2120.7
1058.38998	2108.4
1062.07627	2099.1
1065.76003	2100.8
1069.44126	2098.7
1073.11995	2098
1076.79611	2115.3
1080.46974	2145.2
1084.14085	2171.7
1087.80943	2205.5
1091.47549	2208.3
1095.13903	2160.8
1098.80005	2108.9
1102.45857	2070.8
1106.11456	2041.8
1109.76805	2060
1113.41903	2100.4
1117.06751	2147.4
1120.71348	2230.3
1124.35696	2343.1
1127.99793	2447
1131.63641	2501.1
1135.2724	2455
1138.90589	2348.9
1142.5369	2282.4
1146.16542	2205.4
1149.79145	2144.1
1153.415	2114.2
1157.03607	2086.7
1160.65467	2105.4
1164.27079	2120.9
1167.88443	2182.7
1171.49561	2285.4
1175.10432	2460.5
1178.71056	2728.1
1182.31434	2934.8
1185.91565	2991.4
1189.51451	2895.5
1193.11091	2731.1
1196.70485	2598.9
1200.29634	2489.9
1203.88538	2422.3
1207.47197	2307.5
1211.05612	2202.2
1214.63782	2142.2
1218.21708	2102.3
1221.79391	2092.1
1225.36829	2100.5
1228.94024	2099
1232.50976	2099.9
1236.07685	2104.8
1239.6415	2095.2
1243.20374	2109.7
1246.76355	2126.3
1250.32093	2144.5
1253.8759	2169.8
1257.42845	2194.8
1260.97859	2262.4
1264.52631	2312.6
1268.07163	2361.7
1271.61453	2427
1275.15503	2453.6
1278.69312	2464.9
1282.22882	2468.6
1285.76211	2502.1
1289.29301	2589.1
1292.82151	2679.2
1296.34761	2758.5
1299.87133	2871.5
1303.39266	3066.1
1306.9116	3316.7
1310.42815	3643.3
1313.94233	3841.5
1317.45412	3749.6
1320.96354	3481.8
1324.47058	3185.5
1327.97525	2960.2
1331.47754	2785
1334.97747	2708.5
1338.47502	2702.9
1341.97022	2766.2
1345.46305	2910.8
1348.95352	3147.4
1352.44163	3428.1
1355.92738	3811.6
1359.41078	4283.3
1362.89183	4837.4
1366.37053	4896.5
1369.84688	4312.2
1373.32088	3625.7
1376.79254	3214.5
1380.26186	3004.2
1383.72883	2903.9
1387.19347	2804
1390.65578	2740.2
1394.11575	2691
1397.57339	2647.5
1401.0287	2609.8
1404.48168	2569.1
1407.93234	2526
1411.38068	2486.9
1414.82669	2457.4
1418.27039	2443.2
1421.71177	2420
1425.15083	2383.1
1428.58758	2333.7
1432.02203	2314.9
1435.45416	2302.9
1438.88399	2282.6
1442.31151	2254.3
1445.73673	2234.9
1449.15965	2230.3
1452.58027	2215.7
1455.9986	2195.3
1459.41463	2186.2
1462.82837	2194.6
1466.23982	2216.9
1469.64898	2239
1473.05586	2267.4
1476.46045	2283.9
1479.86276	2291.1
1483.26279	2331.1
1486.66054	2383.5
1490.05602	2431.9
1493.44922	2530.2
1496.84016	2683.4
1500.22882	2917.7
1503.61521	3262
1506.99934	3704.1
1510.38121	4119
1513.76081	4312.7
1517.13816	4108.8
1520.51324	3654.1
1523.88607	3134.8
1527.25665	2784.3
1530.62498	2573.2
1533.99105	2453.7
1537.35488	2363.3
1540.71647	2308.9
1544.07581	2274.9
1547.4329	2268.6
1550.78776	2274.5
1554.14038	2281.4
1557.49077	2309.4
1560.83892	2347.7
1564.18484	2412.2
1567.52853	2500.8
1570.86999	2575.6
1574.20922	2629.7
1577.54624	2624.2
1580.88103	2520.2
1584.2136	2327.8
1587.54395	2184.1
1590.87208	2115.9
1594.19801	2144.4
1597.52172	2205.6
1600.84321	2226.6
1604.16251	2187.4
1607.47959	2099
1610.79447	2034.4
1614.10715	1971.7
1617.41763	1911.7
1620.7259	1874.8
1624.03199	1854.3
1627.33587	1869.8
1630.63757	1870
1633.93707	1901.1
1637.23439	1981
1640.52951	2107.8
1643.82246	2308
1647.11321	2592.2
1650.40179	2849.3
1653.68819	2857.5
1656.97241	2607.9
1660.25446	2249.4
1663.53433	1955
1666.81203	1777.3
1670.08756	1686.7
1673.36092	1631.7
1676.63211	1595.9
1679.90115	1567.6
1683.16801	1557.3
1686.43272	1537.5
1689.69527	1518.2
1692.95567	1476.9
1696.2139	1449.7
1699.46999	1410.2
1702.72392	1381.2
1705.97571	1396.5
1709.22535	1396.8
1712.47284	1396.7
1715.71819	1395.3
1718.96139	1373
1722.20246	1358.3
1725.44139	1331.7
1728.67818	1321.8
1731.91284	1296.2
1735.14537	1289.9
1738.37576	1271.3
1741.60403	1268
1744.83017	1245
1748.05418	1230.4
1751.27607	1209.7
1754.49584	1202.6
1757.71349	1176.6
1760.92903	1155.7
1764.14244	1148
1767.35375	1151.6
1770.56294	1151.8
1773.77002	1147.2
1776.97499	1153.2
1780.17785	1169.1
1783.37861	1161.3
1786.57727	1174
1789.77382	1168.5
1792.96828	1176.7
1796.16064	1172.8
1799.3509	1158.4
1802.53907	1156.3
1805.72514	1153.7
1808.90913	1159.2
1812.09102	1144.3
1815.27083	1130.1
1818.44856	1136.3
1821.6242	1131.2
1824.79776	1135.9
1827.96924	1126.4
1831.13864	1121.2
1834.30597	1125.3
1837.47122	1112.9
1840.6344	1114.6
1843.7955	1117.7
1846.95454	1118.7
1850.11151	1108.8
1853.26642	1101.1
1856.41926	1101.7
1859.57004	1103
1862.71876	1097.2
1865.86542	1085.5
1869.01003	1086.7
1872.15258	1084.1
1875.29308	1085.4
1878.43152	1085.9
1881.56792	1076.2
1884.70227	1069.2
1887.83457	1074.1
1890.96482	1068.5
1894.09304	1060.9
1897.21921	1061
1900.34335	1058.2
1903.46544	1054.4
1906.58551	1059.6
1909.70353	1051.8
1912.81953	1042.6
1915.93349	1044.9
1919.04543	1052.1
1922.15534	1034
1925.26322	1037.4
1928.36908	1030.3
1931.47292	1028.1
1934.57473	1017.4
1937.67453	1015.1
1940.77232	1012.2
1943.86808	1012.5
1946.96184	1008.3
1950.05358	995
1953.14331	997.6
1956.23103	998.7
1959.31675	985.5
1962.40046	992.7
1965.48217	989.5
1968.56188	981.5
1971.63959	978.5
1974.7153	976.3
1977.78901	969.7
1980.86073	968.3
1983.93046	960.6
1986.99819	951.3
1990.06394	952.1
1993.1277	953.1
1996.18947	937
1999.24925	938.4
2002.30706	936
2005.36288	929.5
2008.41672	925.6
2011.46859	928.5
2014.51848	928.4
2017.56639	914.3
2020.61233	922.6
2023.6563	908.6
2026.6983	913.9
2029.73833	904.7
2032.7764	905.4
2035.8125	898.8
2038.84664	893.6
2041.87881	904
2044.90903	896.4
2047.93729	895.5
2050.96359	896.5
2053.98794	893.4
2057.01034	888.3
2060.03078	895.1
2063.04927	898.2
2066.06582	894.2
2069.08042	895
2072.09307	891.5
2075.10378	894.7
2078.11255	881.8
2081.11938	896.2
2084.12426	883.5
2087.12722	880.3
2090.12824	890
2093.12732	892.3
2096.12447	884.7
2099.11969	881.4
2102.11299	885.3
2105.10435	891.9
2108.09379	886.7
2111.08131	885.1
2114.0669	885.3
2117.05057	882
2120.03233	886.8
2123.01216	875.1
2125.99008	869.8
2128.96609	885.8
2131.94018	870.3
2134.91236	873
2137.88263	864.7
2140.851	868.6
2143.81746	863.7
2146.78201	856.5
2149.74466	855.3
2152.7054	854
2155.66425	853.7
2158.6212	845.4
2161.57625	845.3
2164.52941	843
2167.48067	841.7
2170.43004	835.5
2173.37752	838.6
2176.32311	828.2
2179.26681	840
2182.20863	830.8
2185.14856	831.9
2188.08661	819.6
2191.02278	829.3
2193.95707	828.3
2196.88948	825.3
2199.82001	819
2202.74867	817.9
2205.67545	815.6
2208.60037	812.6
2211.52341	808.1
2214.44458	813.3
2217.36388	802.3
2220.28132	804.4
2223.1969	795.3
2226.11061	803.7
2229.02246	795
2231.93245	784.7
2234.84058	785.4
2237.74686	786.8
2240.65128	787.6
2243.55385	787.5
2246.45456	784.7
2249.35343	780.9
2252.25044	780.5
2255.14561	772.6
2258.03893	770.9
2260.93041	770.1
2263.82004	770.8
2266.70783	770.7
2269.59378	770.4
2272.4779	766.8
2275.36017	764.4
2278.24061	766.3
2281.11922	765.7
2283.996	757.4
2286.87094	750.7
2289.74405	750.8
2292.61534	753.5
2295.4848	744.4
2298.35243	748.6
2301.21824	749.1
2304.08223	736.7
2306.94439	751.8
2309.80474	731.9
2312.66327	740.7
2315.51999	733
2318.37489	735
2321.22797	728.3
2324.07925	725
2326.92871	731.1
2329.77637	729.3
2332.62222	730.7
2335.46626	715.3
2338.3085	714.7
2341.14893	712.6
2343.98756	716.2
2346.8244	713
2349.65943	712.6
2352.49267	711.7
2355.32411	714.4
2358.15376	709.8
2360.98161	711.9
2363.80768	709.6
2366.63195	712.1
2369.45444	712.8
2372.27514	715.9
2375.09405	713.3
2377.91118	707.2
2380.72652	698.9
2383.54009	700.4
2386.35187	694.5
2389.16188	687.7
2391.97011	694.3
2394.77657	691
2397.58125	684.6
2400.38416	681.9
2403.18529	683.1
2405.98466	674.8
2408.78226	674.5
2411.57809	669.3
2414.37216	671.1
2417.16446	672.3
2419.955	664.8
2422.74378	666.1
2425.5308	664.6
2428.31606	662.5
2431.09956	664.5
2433.88131	663.8
2436.6613	663.7
2439.43954	660.9
2442.21603	654.9
2444.99077	653.9
2447.76377	655.5
2450.53501	655.5
2453.30451	658.7
2456.07226	661.2
2458.83827	649.9
2461.60254	646.1
2464.36507	643.7
2467.12586	646.4
2469.88492	651.5
2472.64224	648.8
2475.39782	640.6
2478.15167	639.4
2480.90379	640.1
2483.65417	646.4
2486.40283	640.9
2489.14976	648.4
2491.89497	643.1
2494.63845	641.2
2497.3802	631.4
2500.12024	633.8
2502.85855	633.9
2505.59514	636
2508.33002	632.5
2511.06318	637.1
2513.79462	628
2516.52435	629.9
2519.25237	621.8
2521.97867	616.8
2524.70327	615
2527.42616	605.3
2530.14734	616.1
2532.86681	610.1
2535.58458	606.3
2538.30065	605.7
2541.01501	609.7
2543.72768	606.9
2546.43864	608.8
2549.14791	606.6
2551.85548	607.3
2554.56136	602
2557.26554	605.4
2559.96803	595.2
2562.66883	593.1
2565.36794	598.3
2568.06536	594.8
2570.7611	598.6
2573.45514	591.2
2576.14751	594.1
2578.83819	589.9
2581.52719	588.8
2584.21451	586.6
2586.90015	581.7
2589.58411	578.9
2592.2664	581
2594.94701	578
2597.62594	577.1
2600.30321	571.4
2602.9788	572.5
2605.65273	572.6
2608.32498	570.2
2610.99557	571.5
2613.66449	568.1
2616.33175	570.9
2618.99734	565.3
2621.66128	568.6
2624.32355	566.4
2626.98416	566.2
2629.64311	562.8
2632.30041	566.9
2634.95605	561.9
2637.61004	556.6
2640.26238	559.1
2642.91306	557.1
2645.56209	555.7
2648.20948	552.1
2650.85521	555.4
2653.4993	555.4
2656.14175	547.8
2658.78255	551.4
2661.42171	556.1
2664.05923	550.1
2666.6951	555.7
2669.32934	554.4
2671.96194	551.4
2674.59291	552.6
2677.22224	553.3
2679.84993	551.7
2682.476	548.8
2685.10043	549.2
2687.72324	551.2
2690.34441	551.1
2692.96396	555.4
2695.58188	549.5
2698.19818	557.5
2700.81285	550.9
2703.4259	532.4
2706.03733	488.9
2708.64714	516.3
2711.25533	531
2713.86191	537.3
2716.46687	544.7
2719.07021	541.6
2721.67194	545.1
2724.27206	542.4
2726.87057	544.9
2729.46747	548
2732.06276	549.9
2734.65644	545.6
2737.24852	546.2
2739.83899	542.7
2742.42786	549.5
2745.01513	536.2
2747.60079	544.6
2750.18486	543.6
2752.76733	539.5
2755.3482	539.2
2757.92747	544.6
2760.50515	532.8
2763.08123	535.2
2765.65573	538
2768.22863	538.2
2770.79994	531.7
2773.36967	528.7
2775.9378	534.8
2778.50435	528.2
2781.06932	527.5
2783.6327	524.2
2786.1945	526.2
2788.75471	524.9
2791.31335	522.6
2793.87041	527.2
2796.42589	524.6
2798.97979	519.3
2801.53212	517.6
2804.08288	518.3
2806.63206	522.6
2809.17967	517.3
2811.72571	521.5
2814.27018	519.7
2816.81308	516.8
2819.35442	514.1
2821.89419	518.5
2824.43239	515
2826.96904	515.3
2829.50412	514.1
2832.03763	512.3
2834.56959	516.6
2837.1	518.3
2839.62884	516.9
2842.15613	516.9
2844.68186	521.5
2847.20604	520.9
2849.72867	523.4
2852.24974	528.4
2854.76927	520.2
2857.28724	507
2859.80367	513.7
2862.31855	519
2864.83189	522.1
2867.34368	518.9
2869.85393	521.2
2872.36264	531.3
2874.8698	528.2
2877.37543	527.9
2879.87952	529.4
2882.38207	529.8
2884.88308	529.7
2887.38256	528.4
2889.88051	531.3
2892.37692	532.1
2894.8718	536.5
2897.36515	529.8
2899.85698	534.2
2902.34727	537.9
2904.83604	548.9
2907.32328	551.9
2909.809	557.3
2912.29319	556.7
2914.77587	563.9
2917.25702	571.1
2919.73665	569.3
2922.21476	566.1
2924.69136	571.4
2927.16644	579
2929.64	571.7
2932.11205	570.2
2934.58258	570.2
2937.05161	573.6
2939.51912	565.9
2941.98513	565.1
2944.44962	564.5
2946.91261	549.2
2949.37409	549.5
2951.83407	547
2954.29254	544.5
2956.74951	537.8
2959.20498	537.6
2961.65895	531
2964.11142	528.8
2966.56239	530.6
2969.01186	525.3
2971.45984	526
2973.90632	525.2
2976.35131	519.2
2978.7948	519.1
2981.23681	518.9
2983.67732	516.1
2986.11635	512
2988.55388	516.8
2990.98993	517.3
2993.4245	513.8
2995.85758	515.3
2998.28917	514.5
3000.71928	512.4
3003.14791	509.1
3005.57506	510.2
3008.00073	511.4
3010.42493	513
3012.84764	514.6
3015.26888	514.2
3017.68865	519
3020.10694	509.6
3022.52376	516.5
3024.9391	514.7
3027.35298	522.2
3029.76539	517.7
3032.17632	513.1
3034.5858	519.3
3036.9938	527.2
3039.40034	522.2
3041.80542	524.4
3044.20903	527.3
3046.61118	529.9
3049.01187	525.7
3051.4111	531.5
3053.80888	532.5
3056.20519	539
3058.60005	529.4
3060.99345	540.8
3063.3854	537.6
3065.7759	541
3068.16494	541.2
3070.55254	541.8
3072.93868	540.4
3075.32338	548.1
3077.70662	548.3
3080.08842	546.6
3082.46878	549.5
3084.84769	559.7
3087.22515	555.3
3089.60118	556.9
3091.97576	567.4
3094.3489	568.7
3096.72061	565
3099.09087	575.2
3101.4597	581.2
3103.82709	580.7
3106.19305	584.9
3108.55757	587.7
3110.92066	599.9
3113.28232	593.1
3115.64255	595.2
3118.00134	601.3
3120.35871	613.5
3122.71466	617.4
3125.06917	615.4
3127.42226	622.7
3129.77393	623.5
3132.12417	630.5
3134.47299	634.3
3136.82039	640.7
3139.16636	644.1
3141.51092	648.1
3143.85406	662.3
3146.19579	665
3148.53609	662
3150.87499	677.7
3153.21246	680
3155.54853	680
3157.88318	698.8
3160.21642	698
3162.54826	702
3164.87868	704.4
3167.2077	721.2
3169.5353	724.9
3171.86151	726.2
3174.18631	733
3176.5097	741.1
3178.83169	742.4
3181.15228	751
3183.47147	748
3185.78926	753.5
3188.10565	755.2
3190.42065	755.8
3192.73424	766.3
3195.04645	766.6
3197.35725	767.5
3199.66667	777.4
3201.97469	779.6
3204.28132	783
3206.58656	787.5
3208.8904	797.7
3211.19287	798
3213.49394	796.3
3215.79363	799.6
3218.09193	809.9
3220.38884	802.2
3222.68438	795.9
3224.97853	805.3
3227.2713	811.5
3229.56269	814.4
3231.8527	815.7
3234.14133	816.5
3236.42858	822.1
3238.71446	821.2
3240.99896	830.7
3243.28209	826.7
3245.56384	822.6
3247.84423	816.3
3250.12324	821.8
3252.40088	826.2
3254.67715	824.4
3256.95205	829.9
3259.22558	828.5
3261.49775	837.7
3263.76855	829.5
3266.03799	837.7
3268.30606	826.6
3270.57277	827.9
3272.83812	824.5
3275.10211	818.7
3277.36474	822.4
3279.62601	823.5
3281.88593	821.1
3284.14448	827.6
3286.40168	817.9
3288.65753	824.3
3290.91202	824.7
3293.16516	820
3295.41695	825.5
3297.66738	821.7
3299.91647	816.8
3302.16421	820.9
3304.4106	811.9
3306.65564	806.3
3308.89933	792.5
3311.14169	795.5
3313.38269	783.2
3315.62236	785.9
3317.86068	788.6
3320.09766	778.6
3322.3333	778.2
3324.5676	762.2
3326.80056	732.3
3329.03219	744.9
3331.26248	-1
3333.49143	0.4
3335.71905	0.7
