Data from CRN_Powder_RamanShift__2__16-06-58-868.txt Node

Date: Wed Aug 10 16:06:58 BST 2022
User: TCL
Spectrometer: QEP01345
Trigger mode: 4
Integration Time (sec): 4.000000E0
Scans to average: 10
Electric dark correction enabled: true
Nonlinearity correction enabled: false
Boxcar width: 0
XAxis mode: Raman Shifts
Number of Pixels in Spectrum: 1044
>>>>>Begin Spectral Data<<<<<
46.04893	-0.3125
50.45542	-0.3125
54.85868	0.7875
59.25871	-0.4125
63.6555	11.6875
68.04907	17.1875
72.43941	17.6875
76.82654	22.0875
81.21044	23.2875
85.59113	24.8875
89.96862	22.1875
94.34289	22.5875
98.71396	24.9875
103.08183	24.8875
107.4465	25.7875
111.80798	24.4875
116.16626	28.3875
120.52136	25.4875
124.87327	27.5875
129.222	24.9875
133.56755	21.9875
137.90993	23.0875
142.24913	26.8875
146.58517	27.0875
150.91804	24.3875
155.24774	29.5875
159.57429	31.6875
163.89768	35.9875
168.21792	37.8875
172.53501	48.6875
176.84895	55.0875
181.15975	70.8875
185.46741	88.9875
189.77193	119.6875
194.07331	152.6875
198.37157	190.1875
202.6667	228.9875
206.9587	269.7875
211.24758	307.3875
215.53334	351.1875
219.81599	394.6875
224.09553	461.8875
228.37195	531.4875
232.64527	624.3875
236.91549	703.9875
241.18261	768.0875
245.44663	833.9875
249.70755	877.1875
253.96539	893.7875
258.22014	894.5875
262.4718	909.8875
266.72039	903.5875
270.96589	908.9875
275.20832	911.5875
279.44768	908.1875
283.68397	896.2875
287.91719	884.9875
292.14735	881.2875
296.37445	884.5875
300.59849	899.0875
304.81948	914.8875
309.03742	949.1875
313.25231	1021.0875
317.46415	1133.4875
321.67296	1321.2875
325.87872	1530.5875
330.08145	1651.2875
334.28114	1553.9875
338.47781	1256.9875
342.67145	1043.1875
346.86207	932.5875
351.04966	902.0875
355.23424	894.6875
359.4158	899.4875
363.59435	897.5875
367.76989	909.1875
371.94243	923.3875
376.11196	931.3875
380.27849	950.0875
384.44203	977.1875
388.60257	1009.6875
392.76012	1096.2875
396.91468	1185.9875
401.06626	1210.2875
405.21485	1183.4875
409.36047	1235.8875
413.50311	1324.6875
417.64277	1254.0875
421.77947	1111.4875
425.9132	1049.4875
430.04396	1035.5875
434.17176	1046.5875
438.2966	1061.2875
442.41849	1066.6875
446.53742	1082.3875
450.6534	1084.8875
454.76644	1088.4875
458.87653	1104.3875
462.98368	1091.3875
467.08789	1094.5875
471.18916	1084.3875
475.2875	1078.0875
479.38291	1079.8875
483.4754	1079.0875
487.56496	1087.7875
491.6516	1092.5875
495.73531	1094.2875
499.81612	1089.4875
503.89401	1088.2875
507.96899	1084.5875
512.04106	1088.2875
516.11023	1089.0875
520.1765	1097.9875
524.23987	1093.3875
528.30034	1100.6875
532.35792	1108.4875
536.41261	1105.0875
540.46441	1110.0875
544.51333	1116.2875
548.55936	1131.9875
552.60252	1122.8875
556.64279	1147.0875
560.6802	1165.9875
564.71473	1201.0875
568.7464	1322.4875
572.7752	1596.6875
576.80114	1923.6875
580.82422	1944.5875
584.84444	1732.3875
588.86181	1491.8875
592.87633	1408.6875
596.888	1632.5875
600.89682	2441.3875
604.9028	3873.8875
608.90594	4281.4875
612.90624	2486.5875
616.90371	1451.5875
620.89834	1259.2875
624.89015	1213.7875
628.87913	1213.1875
632.86528	1206.0875
636.84862	1210.0875
640.82913	1222.8875
644.80683	1236.8875
648.78172	1269.0875
652.75379	1321.1875
656.72306	1416.8875
660.68952	1643.5875
664.65319	2201.3875
668.61405	3186.5875
672.57211	4199.3875
676.52738	4451.4875
680.47986	4098.1875
684.42955	3687.6875
688.37646	3211.7875
692.32058	2601.4875
696.26192	2024.9875
700.20048	1674.0875
704.13626	1478.1875
708.06928	1396.1875
711.99952	1322.5875
715.927	1308.9875
719.85171	1298.7875
723.77365	1284.1875
727.69284	1291.4875
731.60928	1287.0875
735.52295	1278.5875
739.43388	1281.5875
743.34206	1270.3875
747.24749	1282.9875
751.15017	1312.8875
755.05012	1322.8875
758.94733	1306.1875
762.8418	1274.7875
766.73354	1253.0875
770.62254	1245.1875
774.50882	1264.5875
778.39237	1260.7875
782.27321	1271.1875
786.15132	1279.2875
790.02671	1320.5875
793.89938	1360.1875
797.76935	1419.5875
801.6366	1441.3875
805.50115	1463.1875
809.36299	1469.9875
813.22213	1481.3875
817.07857	1536.1875
820.93231	1624.2875
824.78336	1723.4875
828.63172	1855.7875
832.47738	2115.8875
836.32036	2591.8875
840.16066	2832.7875
843.99827	2300.0875
847.8332	1696.3875
851.66546	1433.8875
855.49504	1360.4875
859.32195	1322.5875
863.1462	1315.3875
866.96777	1307.9875
870.78668	1310.0875
874.60293	1314.6875
878.41652	1320.7875
882.22745	1324.3875
886.03573	1364.2875
889.84136	1436.5875
893.64433	1627.3875
897.44466	2044.9875
901.24235	2754.2875
905.0374	3104.4875
908.8298	2577.5875
912.61957	1888.3875
916.40671	1527.9875
920.19121	1387.5875
923.97308	1318.5875
927.75233	1290.6875
931.52895	1273.3875
935.30295	1269.1875
939.07433	1249.5875
942.84309	1244.7875
946.60924	1232.1875
950.37278	1236.7875
954.13371	1225.4875
957.89203	1217.8875
961.64774	1225.4875
965.40086	1223.0875
969.15137	1223.9875
972.89929	1229.1875
976.64461	1228.2875
980.38733	1228.4875
984.12747	1227.9875
987.86502	1242.4875
991.59999	1291.9875
995.33237	1324.8875
999.06217	1273.5875
1002.78939	1231.1875
1006.51404	1231.1875
1010.23611	1221.3875
1013.95561	1230.3875
1017.67255	1228.7875
1021.38692	1239.0875
1025.09872	1252.9875
1028.80796	1266.6875
1032.51465	1312.2875
1036.21877	1371.9875
1039.92035	1393.6875
1043.61937	1326.8875
1047.31584	1273.0875
1051.00976	1240.6875
1054.70114	1230.3875
1058.38998	1230.1875
1062.07627	1232.4875
1065.76003	1224.0875
1069.44126	1234.3875
1073.11995	1229.2875
1076.79611	1230.3875
1080.46974	1224.9875
1084.14085	1236.5875
1087.80943	1226.9875
1091.47549	1235.4875
1095.13903	1241.2875
1098.80005	1256.5875
1102.45857	1287.0875
1106.11456	1350.7875
1109.76805	1427.5875
1113.41903	1437.1875
1117.06751	1382.1875
1120.71348	1336.1875
1124.35696	1317.5875
1127.99793	1334.0875
1131.63641	1411.2875
1135.2724	1534.9875
1138.90589	1545.3875
1142.5369	1447.5875
1146.16542	1401.4875
1149.79145	1371.6875
1153.415	1350.3875
1157.03607	1336.9875
1160.65467	1318.6875
1164.27079	1320.2875
1167.88443	1299.8875
1171.49561	1356.6875
1175.10432	1487.0875
1178.71056	1676.0875
1182.31434	1631.5875
1185.91565	1467.5875
1189.51451	1364.7875
1193.11091	1321.6875
1196.70485	1321.9875
1200.29634	1377.8875
1203.88538	1531.9875
1207.47197	1626.8875
1211.05612	1595.7875
1214.63782	1534.5875
1218.21708	1447.8875
1221.79391	1389.8875
1225.36829	1354.2875
1228.94024	1356.4875
1232.50976	1377.0875
1236.07685	1454.1875
1239.6415	1629.9875
1243.20374	1935.8875
1246.76355	2142.2875
1250.32093	1945.4875
1253.8759	1585.7875
1257.42845	1388.4875
1260.97859	1317.8875
1264.52631	1301.1875
1268.07163	1322.9875
1271.61453	1333.3875
1275.15503	1310.4875
1278.69312	1259.0875
1282.22882	1236.7875
1285.76211	1218.3875
1289.29301	1214.9875
1292.82151	1208.1875
1296.34761	1213.3875
1299.87133	1219.2875
1303.39266	1226.3875
1306.9116	1229.7875
1310.42815	1240.4875
1313.94233	1247.3875
1317.45412	1252.6875
1320.96354	1266.4875
1324.47058	1266.1875
1327.97525	1283.6875
1331.47754	1284.6875
1334.97747	1291.6875
1338.47502	1300.5875
1341.97022	1274.2875
1345.46305	1254.0875
1348.95352	1224.2875
1352.44163	1221.9875
1355.92738	1213.7875
1359.41078	1214.5875
1362.89183	1200.1875
1366.37053	1204.7875
1369.84688	1195.6875
1373.32088	1193.8875
1376.79254	1188.9875
1380.26186	1174.0875
1383.72883	1170.3875
1387.19347	1170.0875
1390.65578	1164.4875
1394.11575	1179.3875
1397.57339	1186.2875
1401.0287	1205.4875
1404.48168	1242.6875
1407.93234	1331.0875
1411.38068	1561.7875
1414.82669	1921.4875
1418.27039	2022.8875
1421.71177	1785.0875
1425.15083	1689.7875
1428.58758	1774.8875
1432.02203	1741.3875
1435.45416	1556.6875
1438.88399	1381.5875
1442.31151	1318.5875
1445.73673	1315.2875
1449.15965	1334.3875
1452.58027	1367.5875
1455.9986	1413.3875
1459.41463	1444.5875
1462.82837	1479.5875
1466.23982	1505.8875
1469.64898	1548.4875
1473.05586	1612.8875
1476.46045	1647.6875
1479.86276	1659.4875
1483.26279	1609.7875
1486.66054	1566.7875
1490.05602	1561.0875
1493.44922	1502.5875
1496.84016	1409.0875
1500.22882	1342.3875
1503.61521	1296.9875
1506.99934	1277.8875
1510.38121	1252.1875
1513.76081	1214.1875
1517.13816	1188.5875
1520.51324	1165.8875
1523.88607	1163.7875
1527.25665	1160.8875
1530.62498	1158.9875
1533.99105	1164.9875
1537.35488	1166.8875
1540.71647	1168.0875
1544.07581	1163.4875
1547.4329	1171.1875
1550.78776	1176.6875
1554.14038	1178.7875
1557.49077	1183.0875
1560.83892	1191.7875
1564.18484	1223.9875
1567.52853	1265.2875
1570.86999	1276.4875
1574.20922	1252.8875
1577.54624	1224.9875
1580.88103	1218.3875
1584.2136	1239.3875
1587.54395	1299.3875
1590.87208	1379.4875
1594.19801	1460.0875
1597.52172	1502.3875
1600.84321	1490.6875
1604.16251	1442.3875
1607.47959	1410.5875
1610.79447	1391.1875
1614.10715	1383.8875
1617.41763	1392.6875
1620.7259	1408.5875
1624.03199	1418.6875
1627.33587	1449.2875
1630.63757	1479.0875
1633.93707	1524.9875
1637.23439	1602.3875
1640.52951	1694.3875
1643.82246	1836.4875
1647.11321	2053.6875
1650.40179	2365.9875
1653.68819	2737.4875
1656.97241	3011.2875
1660.25446	3012.1875
1663.53433	2740.6875
1666.81203	2393.8875
1670.08756	2072.3875
1673.36092	1790.8875
1676.63211	1588.6875
1679.90115	1446.8875
1683.16801	1362.2875
1686.43272	1308.3875
1689.69527	1279.6875
1692.95567	1274.6875
1696.2139	1296.0875
1699.46999	1343.7875
1702.72392	1470.0875
1705.97571	1702.2875
1709.22535	2071.3875
1712.47284	2374.0875
1715.71819	2247.5875
1718.96139	1861.5875
1722.20246	1545.0875
1725.44139	1333.9875
1728.67818	1207.4875
1731.91284	1129.3875
1735.14537	1071.4875
1738.37576	1042.9875
1741.60403	1028.0875
1744.83017	1014.1875
1748.05418	1003.3875
1751.27607	994.8875
1754.49584	982.2875
1757.71349	980.0875
1760.92903	973.2875
1764.14244	974.0875
1767.35375	967.0875
1770.56294	960.6875
1773.77002	959.8875
1776.97499	950.0875
1780.17785	951.1875
1783.37861	952.3875
1786.57727	947.6875
1789.77382	951.0875
1792.96828	959.6875
1796.16064	953.1875
1799.3509	949.2875
1802.53907	961.2875
1805.72514	960.7875
1808.90913	966.7875
1812.09102	959.8875
1815.27083	948.3875
1818.44856	947.1875
1821.6242	941.0875
1824.79776	936.4875
1827.96924	928.9875
1831.13864	924.7875
1834.30597	915.0875
1837.47122	916.5875
1840.6344	908.7875
1843.7955	898.0875
1846.95454	899.6875
1850.11151	901.2875
1853.26642	900.3875
1856.41926	894.4875
1859.57004	894.0875
1862.71876	895.4875
1865.86542	891.8875
1869.01003	884.5875
1872.15258	889.1875
1875.29308	887.6875
1878.43152	886.3875
1881.56792	878.6875
1884.70227	874.0875
1887.83457	867.8875
1890.96482	873.0875
1894.09304	864.2875
1897.21921	868.4875
1900.34335	874.6875
1903.46544	856.7875
1906.58551	866.5875
1909.70353	851.8875
1912.81953	860.6875
1915.93349	854.9875
1919.04543	860.5875
1922.15534	850.1875
1925.26322	850.4875
1928.36908	851.9875
1931.47292	850.0875
1934.57473	842.3875
1937.67453	838.0875
1940.77232	842.3875
1943.86808	840.4875
1946.96184	832.5875
1950.05358	830.8875
1953.14331	826.0875
1956.23103	830.5875
1959.31675	820.4875
1962.40046	817.0875
1965.48217	814.9875
1968.56188	820.1875
1971.63959	809.5875
1974.7153	802.4875
1977.78901	802.9875
1980.86073	806.6875
1983.93046	806.4875
1986.99819	804.8875
1990.06394	794.8875
1993.1277	793.2875
1996.18947	785.2875
1999.24925	790.7875
2002.30706	785.3875
2005.36288	782.6875
2008.41672	780.4875
2011.46859	779.0875
2014.51848	780.6875
2017.56639	768.2875
2020.61233	760.7875
2023.6563	756.2875
2026.6983	759.7875
2029.73833	746.4875
2032.7764	751.9875
2035.8125	748.7875
2038.84664	743.8875
2041.87881	742.6875
2044.90903	742.1875
2047.93729	736.2875
2050.96359	736.6875
2053.98794	735.2875
2057.01034	733.3875
2060.03078	727.8875
2063.04927	727.4875
2066.06582	732.4875
2069.08042	727.4875
2072.09307	725.0875
2075.10378	728.8875
2078.11255	725.9875
2081.11938	720.4875
2084.12426	724.9875
2087.12722	719.8875
2090.12824	717.8875
2093.12732	719.3875
2096.12447	716.8875
2099.11969	716.1875
2102.11299	716.2875
2105.10435	718.2875
2108.09379	719.1875
2111.08131	723.3875
2114.0669	709.3875
2117.05057	716.0875
2120.03233	708.9875
2123.01216	710.5875
2125.99008	716.5875
2128.96609	710.2875
2131.94018	715.1875
2134.91236	706.8875
2137.88263	711.0875
2140.851	711.3875
2143.81746	712.7875
2146.78201	710.5875
2149.74466	708.9875
2152.7054	707.7875
2155.66425	706.0875
2158.6212	705.8875
2161.57625	702.8875
2164.52941	707.6875
2167.48067	711.9875
2170.43004	709.9875
2173.37752	707.7875
2176.32311	702.5875
2179.26681	700.9875
2182.20863	702.2875
2185.14856	695.3875
2188.08661	699.7875
2191.02278	693.6875
2193.95707	691.8875
2196.88948	696.2875
2199.82001	692.4875
2202.74867	692.1875
2205.67545	686.4875
2208.60037	685.5875
2211.52341	684.4875
2214.44458	680.8875
2217.36388	676.8875
2220.28132	676.9875
2223.1969	678.1875
2226.11061	676.2875
2229.02246	673.8875
2231.93245	671.8875
2234.84058	676.8875
2237.74686	668.4875
2240.65128	667.6875
2243.55385	666.5875
2246.45456	668.0875
2249.35343	668.0875
2252.25044	658.3875
2255.14561	660.3875
2258.03893	659.5875
2260.93041	659.5875
2263.82004	659.4875
2266.70783	654.5875
2269.59378	647.3875
2272.4779	654.4875
2275.36017	648.6875
2278.24061	643.8875
2281.11922	650.6875
2283.996	646.0875
2286.87094	643.7875
2289.74405	645.6875
2292.61534	639.5875
2295.4848	636.1875
2298.35243	634.6875
2301.21824	636.0875
2304.08223	626.0875
2306.94439	637.3875
2309.80474	633.5875
2312.66327	629.0875
2315.51999	628.6875
2318.37489	627.4875
2321.22797	626.4875
2324.07925	620.7875
2326.92871	629.6875
2329.77637	630.0875
2332.62222	626.8875
2335.46626	618.6875
2338.3085	614.7875
2341.14893	618.1875
2343.98756	615.4875
2346.8244	606.3875
2349.65943	608.9875
2352.49267	605.7875
2355.32411	605.0875
2358.15376	602.7875
2360.98161	602.7875
2363.80768	606.0875
2366.63195	597.2875
2369.45444	599.5875
2372.27514	593.8875
2375.09405	593.6875
2377.91118	594.7875
2380.72652	597.0875
2383.54009	595.2875
2386.35187	594.5875
2389.16188	590.8875
2391.97011	590.4875
2394.77657	588.6875
2397.58125	584.2875
2400.38416	586.4875
2403.18529	592.5875
2405.98466	587.0875
2408.78226	600.7875
2411.57809	593.5875
2414.37216	582.1875
2417.16446	595.9875
2419.955	584.2875
2422.74378	586.8875
2425.5308	585.1875
2428.31606	580.8875
2431.09956	573.8875
2433.88131	569.9875
2436.6613	569.0875
2439.43954	567.9875
2442.21603	560.5875
2444.99077	565.4875
2447.76377	567.8875
2450.53501	564.1875
2453.30451	571.4875
2456.07226	565.5875
2458.83827	566.0875
2461.60254	555.7875
2464.36507	561.4875
2467.12586	559.9875
2469.88492	550.8875
2472.64224	557.7875
2475.39782	555.1875
2478.15167	552.8875
2480.90379	550.3875
2483.65417	553.8875
2486.40283	552.6875
2489.14976	549.0875
2491.89497	545.5875
2494.63845	546.9875
2497.3802	552.6875
2500.12024	544.8875
2502.85855	547.4875
2505.59514	549.2875
2508.33002	543.4875
2511.06318	541.8875
2513.79462	545.4875
2516.52435	545.5875
2519.25237	539.0875
2521.97867	540.0875
2524.70327	540.7875
2527.42616	542.3875
2530.14734	538.6875
2532.86681	538.9875
2535.58458	533.0875
2538.30065	533.2875
2541.01501	531.7875
2543.72768	529.2875
2546.43864	533.2875
2549.14791	530.1875
2551.85548	526.2875
2554.56136	527.9875
2557.26554	525.5875
2559.96803	519.7875
2562.66883	519.6875
2565.36794	517.5875
2568.06536	519.5875
2570.7611	522.0875
2573.45514	517.9875
2576.14751	511.9875
2578.83819	518.3875
2581.52719	510.3875
2584.21451	506.6875
2586.90015	507.0875
2589.58411	506.7875
2592.2664	503.6875
2594.94701	499.4875
2597.62594	502.0875
2600.30321	497.3875
2602.9788	503.6875
2605.65273	500.0875
2608.32498	504.7875
2610.99557	494.2875
2613.66449	496.0875
2616.33175	496.7875
2618.99734	490.2875
2621.66128	487.3875
2624.32355	486.1875
2626.98416	488.7875
2629.64311	480.3875
2632.30041	483.5875
2634.95605	475.6875
2637.61004	484.1875
2640.26238	482.7875
2642.91306	478.5875
2645.56209	475.8875
2648.20948	478.9875
2650.85521	478.4875
2653.4993	482.9875
2656.14175	477.2875
2658.78255	480.8875
2661.42171	480.8875
2664.05923	479.9875
2666.6951	475.7875
2669.32934	480.3875
2671.96194	481.0875
2674.59291	479.5875
2677.22224	483.4875
2679.84993	482.7875
2682.476	480.0875
2685.10043	489.1875
2687.72324	482.0875
2690.34441	482.8875
2692.96396	485.5875
2695.58188	478.7875
2698.19818	482.3875
2700.81285	481.8875
2703.4259	490.5875
2706.03733	487.5875
2708.64714	482.5875
2711.25533	481.7875
2713.86191	486.0875
2716.46687	482.2875
2719.07021	491.0875
2721.67194	489.3875
2724.27206	492.6875
2726.87057	489.5875
2729.46747	493.8875
2732.06276	494.2875
2734.65644	500.0875
2737.24852	495.0875
2739.83899	497.4875
2742.42786	503.8875
2745.01513	505.2875
2747.60079	499.6875
2750.18486	507.4875
2752.76733	504.9875
2755.3482	512.0875
2757.92747	507.9875
2760.50515	511.8875
2763.08123	515.2875
2765.65573	523.5875
2768.22863	520.2875
2770.79994	523.0875
2773.36967	529.5875
2775.9378	528.9875
2778.50435	531.3875
2781.06932	537.5875
2783.6327	537.0875
2786.1945	540.3875
2788.75471	541.0875
2791.31335	544.0875
2793.87041	547.1875
2796.42589	538.7875
2798.97979	553.3875
2801.53212	564.4875
2804.08288	583.0875
2806.63206	616.5875
2809.17967	655.5875
2811.72571	738.4875
2814.27018	839.3875
2816.81308	905.4875
2819.35442	894.4875
2821.89419	833.7875
2824.43239	782.6875
2826.96904	739.6875
2829.50412	713.7875
2832.03763	703.3875
2834.56959	707.2875
2837.1	730.1875
2839.62884	739.2875
2842.15613	748.4875
2844.68186	754.4875
2847.20604	756.7875
2849.72867	768.1875
2852.24974	782.6875
2854.76927	789.0875
2857.28724	796.0875
2859.80367	777.2875
2862.31855	762.5875
2864.83189	750.2875
2867.34368	737.2875
2869.85393	730.9875
2872.36264	729.7875
2874.8698	735.0875
2877.37543	740.5875
2879.87952	764.9875
2882.38207	781.8875
2884.88308	826.8875
2887.38256	874.8875
2889.88051	926.4875
2892.37692	982.8875
2894.8718	1046.3875
2897.36515	1106.5875
2899.85698	1165.1875
2902.34727	1239.6875
2904.83604	1337.4875
2907.32328	1481.6875
2909.809	1651.6875
2912.29319	1895.5875
2914.77587	2128.5875
2917.25702	2325.7875
2919.73665	2438.6875
2922.21476	2418.9875
2924.69136	2308.1875
2927.16644	2168.7875
2929.64	2020.7875
2932.11205	1900.9875
2934.58258	1818.4875
2937.05161	1772.7875
2939.51912	1750.8875
2941.98513	1764.7875
2944.44962	1788.7875
2946.91261	1870.9875
2949.37409	2102.1875
2951.83407	2547.8875
2954.29254	2988.4875
2956.74951	2852.4875
2959.20498	2416.3875
2961.65895	2087.0875
2964.11142	1888.4875
2966.56239	1737.3875
2969.01186	1603.0875
2971.45984	1466.6875
2973.90632	1345.0875
2976.35131	1250.7875
2978.7948	1172.7875
2981.23681	1110.6875
2983.67732	1063.8875
2986.11635	1028.7875
2988.55388	1001.5875
2990.98993	991.4875
2993.4245	987.7875
2995.85758	994.8875
2998.28917	1017.8875
3000.71928	1050.5875
3003.14791	1085.6875
3005.57506	1103.1875
3008.00073	1100.1875
3010.42493	1075.9875
3012.84764	1030.4875
3015.26888	989.5875
3017.68865	941.8875
3020.10694	901.6875
3022.52376	853.2875
3024.9391	821.2875
3027.35298	787.2875
3029.76539	765.0875
3032.17632	736.8875
3034.5858	725.8875
3036.9938	703.3875
3039.40034	693.6875
3041.80542	684.4875
3044.20903	670.8875
3046.61118	662.9875
3049.01187	652.9875
3051.4111	644.6875
3053.80888	633.2875
3056.20519	633.9875
3058.60005	621.9875
3060.99345	623.5875
3063.3854	611.4875
3065.7759	607.7875
3068.16494	604.9875
3070.55254	596.7875
3072.93868	594.3875
3075.32338	593.5875
3077.70662	579.4875
3080.08842	574.4875
3082.46878	569.7875
3084.84769	564.9875
3087.22515	561.0875
3089.60118	558.8875
3091.97576	552.7875
3094.3489	553.3875
3096.72061	546.2875
3099.09087	546.6875
3101.4597	537.8875
3103.82709	543.2875
3106.19305	540.6875
3108.55757	538.6875
3110.92066	534.2875
3113.28232	534.8875
3115.64255	525.8875
3118.00134	529.6875
3120.35871	525.5875
3122.71466	530.6875
3125.06917	532.3875
3127.42226	523.3875
3129.77393	527.4875
3132.12417	524.7875
3134.47299	523.2875
3136.82039	522.2875
3139.16636	520.5875
3141.51092	514.2875
3143.85406	509.1875
3146.19579	509.2875
3148.53609	513.0875
3150.87499	505.4875
3153.21246	504.0875
3155.54853	499.3875
3157.88318	505.6875
3160.21642	503.8875
3162.54826	505.3875
3164.87868	511.3875
3167.2077	509.5875
3169.5353	510.8875
3171.86151	516.2875
3174.18631	513.2875
3176.5097	521.0875
3178.83169	524.5875
3181.15228	525.2875
3183.47147	520.1875
3185.78926	528.8875
3188.10565	528.5875
3190.42065	527.9875
3192.73424	527.6875
3195.04645	532.9875
3197.35725	534.5875
3199.66667	529.6875
3201.97469	525.1875
3204.28132	535.3875
3206.58656	537.8875
3208.8904	531.8875
3211.19287	537.4875
3213.49394	541.7875
3215.79363	542.3875
3218.09193	553.5875
3220.38884	558.5875
3222.68438	562.7875
3224.97853	572.5875
3227.2713	594.5875
3229.56269	596.9875
3231.8527	612.3875
3234.14133	625.3875
3236.42858	631.4875
3238.71446	647.2875
3240.99896	655.6875
3243.28209	663.9875
3245.56384	665.2875
3247.84423	667.4875
3250.12324	674.4875
3252.40088	664.3875
3254.67715	658.6875
3256.95205	651.6875
3259.22558	643.1875
3261.49775	633.5875
3263.76855	623.4875
3266.03799	604.8875
3268.30606	594.0875
3270.57277	582.1875
3272.83812	565.3875
3275.10211	542.8875
3277.36474	530.8875
3279.62601	519.1875
3281.88593	499.8875
3284.14448	487.8875
3286.40168	478.2875
3288.65753	462.3875
3290.91202	457.7875
3293.16516	439.1875
3295.41695	432.3875
3297.66738	423.6875
3299.91647	411.9875
3302.16421	401.3875
3304.4106	390.1875
3306.65564	382.8875
3308.89933	374.7875
3311.14169	362.9875
3313.38269	355.1875
3315.62236	351.0875
3317.86068	349.0875
3320.09766	339.1875
3322.3333	332.4875
3324.5676	323.4875
3326.80056	317.6875
3329.03219	308.8875
3331.26248	1.8875
3333.49143	-0.5125
3335.71905	0.2875
