Data from AgNPs_UA_50uM_CRN_0uM_R6G_0uM_Pure_RamanShift__10__14-41-11-673.txt Node

Date: Tue Aug 23 14:41:11 BST 2022
User: TCL
Spectrometer: QEP01345
Trigger mode: 4
Integration Time (sec): 7.000000E0
Scans to average: 10
Electric dark correction enabled: true
Nonlinearity correction enabled: false
Boxcar width: 0
XAxis mode: Raman Shifts
Number of Pixels in Spectrum: 1044
>>>>>Begin Spectral Data<<<<<
46.04893	-0.7125
50.45542	1.2875
54.85868	1.2875
59.25871	-0.8125
63.6555	27.1875
68.04907	26.2875
72.43941	34.2875
76.82654	38.1875
81.21044	34.8875
85.59113	42.5875
89.96862	40.4875
94.34289	43.0875
98.71396	44.5875
103.08183	47.6875
107.4465	45.9875
111.80798	46.9875
116.16626	48.9875
120.52136	43.6875
124.87327	45.7875
129.222	41.1875
133.56755	43.3875
137.90993	46.3875
142.24913	46.6875
146.58517	49.9875
150.91804	47.4875
155.24774	52.6875
159.57429	56.5875
163.89768	70.9875
168.21792	71.8875
172.53501	87.5875
176.84895	113.2875
181.15975	150.5875
185.46741	200.9875
189.77193	269.1875
194.07331	357.0875
198.37157	456.5875
202.6667	567.6875
206.9587	671.7875
211.24758	774.6875
215.53334	869.3875
219.81599	959.3875
224.09553	1058.5875
228.37195	1179.4875
232.64527	1300.1875
236.91549	1428.2875
241.18261	1564.2875
245.44663	1684.5875
249.70755	1793.9875
253.96539	1877.2875
258.22014	1923.3875
262.4718	1942.0875
266.72039	1919.2875
270.96589	1857.9875
275.20832	1805.0875
279.44768	1746.2875
283.68397	1690.0875
287.91719	1652.6875
292.14735	1622.5875
296.37445	1595.8875
300.59849	1581.5875
304.81948	1574.4875
309.03742	1554.4875
313.25231	1545.7875
317.46415	1543.0875
321.67296	1511.1875
325.87872	1506.2875
330.08145	1500.6875
334.28114	1508.1875
338.47781	1516.0875
342.67145	1537.5875
346.86207	1556.6875
351.04966	1575.5875
355.23424	1589.6875
359.4158	1619.2875
363.59435	1635.5875
367.76989	1662.2875
371.94243	1655.2875
376.11196	1666.7875
380.27849	1691.0875
384.44203	1708.1875
388.60257	1721.0875
392.76012	1731.9875
396.91468	1743.0875
401.06626	1775.5875
405.21485	1783.9875
409.36047	1805.0875
413.50311	1814.5875
417.64277	1827.3875
421.77947	1834.1875
425.9132	1845.3875
430.04396	1859.0875
434.17176	1870.5875
438.2966	1882.9875
442.41849	1927.9875
446.53742	1951.1875
450.6534	1978.5875
454.76644	2023.4875
458.87653	2043.1875
462.98368	2052.9875
467.08789	2049.2875
471.18916	2057.6875
475.2875	2024.6875
479.38291	2010.2875
483.4754	1993.3875
487.56496	1988.3875
491.6516	1991.8875
495.73531	1995.5875
499.81612	1990.9875
503.89401	1988.0875
507.96899	1972.2875
512.04106	1945.8875
516.11023	1932.9875
520.1765	1907.3875
524.23987	1897.6875
528.30034	1901.1875
532.35792	1906.3875
536.41261	1890.6875
540.46441	1889.0875
544.51333	1888.5875
548.55936	1890.3875
552.60252	1893.1875
556.64279	1901.1875
560.6802	1909.6875
564.71473	1927.9875
568.7464	1961.6875
572.7752	1999.6875
576.80114	2020.8875
580.82422	2009.2875
584.84444	1990.4875
588.86181	1985.0875
592.87633	1969.8875
596.888	1975.3875
600.89682	1973.6875
604.9028	2025.4875
608.90594	2096.3875
612.90624	2135.4875
616.90371	2112.0875
620.89834	2031.1875
624.89015	2039.1875
628.87913	2051.7875
632.86528	2074.3875
636.84862	2076.6875
640.82913	2060.3875
644.80683	2036.7875
648.78172	2030.9875
652.75379	2027.0875
656.72306	2034.3875
660.68952	2074.0875
664.65319	2116.9875
668.61405	2190.3875
672.57211	2306.4875
676.52738	2484.0875
680.47986	2658.5875
684.42955	2743.3875
688.37646	2694.8875
692.32058	2576.2875
696.26192	2407.8875
700.20048	2259.8875
704.13626	2162.5875
708.06928	2091.7875
711.99952	2055.5875
715.927	2062.4875
719.85171	2103.2875
723.77365	2211.7875
727.69284	2344.6875
731.60928	2422.8875
735.52295	2344.0875
739.43388	2208.9875
743.34206	2141.0875
747.24749	2121.3875
751.15017	2115.1875
755.05012	2146.4875
758.94733	2159.0875
762.8418	2190.8875
766.73354	2174.0875
770.62254	2154.7875
774.50882	2121.6875
778.39237	2078.1875
782.27321	2035.3875
786.15132	1993.0875
790.02671	1980.9875
793.89938	1974.3875
797.76935	1969.7875
801.6366	1990.7875
805.50115	2010.1875
809.36299	2034.4875
813.22213	2007.3875
817.07857	1992.4875
820.93231	1968.7875
824.78336	1957.6875
828.63172	1968.4875
832.47738	1973.7875
836.32036	1974.4875
840.16066	1972.8875
843.99827	1966.6875
847.8332	1958.2875
851.66546	1962.4875
855.49504	1957.8875
859.32195	1966.1875
863.1462	1946.6875
866.96777	1940.4875
870.78668	1928.6875
874.60293	1913.6875
878.41652	1922.3875
882.22745	1924.6875
886.03573	1921.4875
889.84136	1921.6875
893.64433	1909.7875
897.44466	1894.1875
901.24235	1886.7875
905.0374	1881.2875
908.8298	1862.0875
912.61957	1855.2875
916.40671	1861.6875
920.19121	1868.2875
923.97308	1866.6875
927.75233	1857.5875
931.52895	1865.8875
935.30295	1862.9875
939.07433	1849.8875
942.84309	1842.2875
946.60924	1848.8875
950.37278	1865.6875
954.13371	1879.3875
957.89203	1897.3875
961.64774	1899.9875
965.40086	1885.0875
969.15137	1877.2875
972.89929	1855.5875
976.64461	1842.1875
980.38733	1844.9875
984.12747	1830.4875
987.86502	1837.1875
991.59999	1829.7875
995.33237	1839.5875
999.06217	1862.6875
1002.78939	1884.6875
1006.51404	1918.9875
1010.23611	1942.1875
1013.95561	1962.3875
1017.67255	1967.4875
1021.38692	1973.2875
1025.09872	1960.2875
1028.80796	1946.0875
1032.51465	1944.5875
1036.21877	1948.0875
1039.92035	1959.9875
1043.61937	1975.3875
1047.31584	2005.4875
1051.00976	2012.6875
1054.70114	2022.5875
1058.38998	2008.0875
1062.07627	1981.0875
1065.76003	1966.7875
1069.44126	1952.9875
1073.11995	1942.3875
1076.79611	1928.0875
1080.46974	1899.4875
1084.14085	1899.5875
1087.80943	1899.5875
1091.47549	1903.2875
1095.13903	1899.2875
1098.80005	1900.3875
1102.45857	1890.9875
1106.11456	1889.5875
1109.76805	1894.4875
1113.41903	1899.0875
1117.06751	1918.7875
1120.71348	1950.5875
1124.35696	1977.4875
1127.99793	2016.5875
1131.63641	2036.8875
1135.2724	2054.8875
1138.90589	2066.8875
1142.5369	2057.0875
1146.16542	2019.5875
1149.79145	2000.6875
1153.415	1992.3875
1157.03607	1972.5875
1160.65467	1981.8875
1164.27079	1975.1875
1167.88443	2003.6875
1171.49561	2030.1875
1175.10432	2070.4875
1178.71056	2121.6875
1182.31434	2185.5875
1185.91565	2242.2875
1189.51451	2289.7875
1193.11091	2298.6875
1196.70485	2297.0875
1200.29634	2264.7875
1203.88538	2212.9875
1207.47197	2168.3875
1211.05612	2133.1875
1214.63782	2110.6875
1218.21708	2095.7875
1221.79391	2088.6875
1225.36829	2111.4875
1228.94024	2117.1875
1232.50976	2130.5875
1236.07685	2154.6875
1239.6415	2176.0875
1243.20374	2199.4875
1246.76355	2207.1875
1250.32093	2233.7875
1253.8759	2244.4875
1257.42845	2270.1875
1260.97859	2288.5875
1264.52631	2290.5875
1268.07163	2276.8875
1271.61453	2282.3875
1275.15503	2297.2875
1278.69312	2295.9875
1282.22882	2315.0875
1285.76211	2333.7875
1289.29301	2375.9875
1292.82151	2405.0875
1296.34761	2464.3875
1299.87133	2526.6875
1303.39266	2607.0875
1306.9116	2686.6875
1310.42815	2787.0875
1313.94233	2860.4875
1317.45412	2934.7875
1320.96354	3008.2875
1324.47058	3094.3875
1327.97525	3170.4875
1331.47754	3211.8875
1334.97747	3205.8875
1338.47502	3181.8875
1341.97022	3173.5875
1345.46305	3191.5875
1348.95352	3191.7875
1352.44163	3222.4875
1355.92738	3255.2875
1359.41078	3271.2875
1362.89183	3271.0875
1366.37053	3226.8875
1369.84688	3134.2875
1373.32088	3025.9875
1376.79254	2913.9875
1380.26186	2801.1875
1383.72883	2676.3875
1387.19347	2613.7875
1390.65578	2542.7875
1394.11575	2477.9875
1397.57339	2445.1875
1401.0287	2422.9875
1404.48168	2423.8875
1407.93234	2428.3875
1411.38068	2426.6875
1414.82669	2397.8875
1418.27039	2348.9875
1421.71177	2299.4875
1425.15083	2281.7875
1428.58758	2284.7875
1432.02203	2280.5875
1435.45416	2301.7875
1438.88399	2315.2875
1442.31151	2324.7875
1445.73673	2341.2875
1449.15965	2344.8875
1452.58027	2334.3875
1455.9986	2329.4875
1459.41463	2321.8875
1462.82837	2312.0875
1466.23982	2313.8875
1469.64898	2318.4875
1473.05586	2320.3875
1476.46045	2300.2875
1479.86276	2292.5875
1483.26279	2293.6875
1486.66054	2313.4875
1490.05602	2306.7875
1493.44922	2338.4875
1496.84016	2347.1875
1500.22882	2368.4875
1503.61521	2380.0875
1506.99934	2387.6875
1510.38121	2401.0875
1513.76081	2394.4875
1517.13816	2353.6875
1520.51324	2325.1875
1523.88607	2311.6875
1527.25665	2309.3875
1530.62498	2311.9875
1533.99105	2299.0875
1537.35488	2328.8875
1540.71647	2335.5875
1544.07581	2325.9875
1547.4329	2312.8875
1550.78776	2317.7875
1554.14038	2308.6875
1557.49077	2321.9875
1560.83892	2325.7875
1564.18484	2333.5875
1567.52853	2314.7875
1570.86999	2315.4875
1574.20922	2324.2875
1577.54624	2349.9875
1580.88103	2343.4875
1584.2136	2358.3875
1587.54395	2378.5875
1590.87208	2421.7875
1594.19801	2475.1875
1597.52172	2517.5875
1600.84321	2547.2875
1604.16251	2522.5875
1607.47959	2480.9875
1610.79447	2410.6875
1614.10715	2342.2875
1617.41763	2271.4875
1620.7259	2234.3875
1624.03199	2182.3875
1627.33587	2171.0875
1630.63757	2175.4875
1633.93707	2208.5875
1637.23439	2250.9875
1640.52951	2315.4875
1643.82246	2385.1875
1647.11321	2430.2875
1650.40179	2424.3875
1653.68819	2383.4875
1656.97241	2294.5875
1660.25446	2231.9875
1663.53433	2178.1875
1666.81203	2128.1875
1670.08756	2099.0875
1673.36092	2065.6875
1676.63211	2018.2875
1679.90115	1982.5875
1683.16801	1927.5875
1686.43272	1875.4875
1689.69527	1840.2875
1692.95567	1778.2875
1696.2139	1760.1875
1699.46999	1732.4875
1702.72392	1707.4875
1705.97571	1687.7875
1709.22535	1672.1875
1712.47284	1687.1875
1715.71819	1672.9875
1718.96139	1661.1875
1722.20246	1651.5875
1725.44139	1657.8875
1728.67818	1650.7875
1731.91284	1642.0875
1735.14537	1615.7875
1738.37576	1605.8875
1741.60403	1611.9875
1744.83017	1606.8875
1748.05418	1605.4875
1751.27607	1623.2875
1754.49584	1621.9875
1757.71349	1607.6875
1760.92903	1574.3875
1764.14244	1528.7875
1767.35375	1492.1875
1770.56294	1450.3875
1773.77002	1411.4875
1776.97499	1382.0875
1780.17785	1363.9875
1783.37861	1359.5875
1786.57727	1344.9875
1789.77382	1329.7875
1792.96828	1319.5875
1796.16064	1315.0875
1799.3509	1304.2875
1802.53907	1291.1875
1805.72514	1285.5875
1808.90913	1282.3875
1812.09102	1277.7875
1815.27083	1269.6875
1818.44856	1260.0875
1821.6242	1264.4875
1824.79776	1255.2875
1827.96924	1244.9875
1831.13864	1240.1875
1834.30597	1248.2875
1837.47122	1245.6875
1840.6344	1241.0875
1843.7955	1244.0875
1846.95454	1237.6875
1850.11151	1236.4875
1853.26642	1234.4875
1856.41926	1221.7875
1859.57004	1227.5875
1862.71876	1232.7875
1865.86542	1217.0875
1869.01003	1222.5875
1872.15258	1217.5875
1875.29308	1211.3875
1878.43152	1213.3875
1881.56792	1214.0875
1884.70227	1196.3875
1887.83457	1196.9875
1890.96482	1206.5875
1894.09304	1200.3875
1897.21921	1205.1875
1900.34335	1201.6875
1903.46544	1198.0875
1906.58551	1187.8875
1909.70353	1189.8875
1912.81953	1193.2875
1915.93349	1176.8875
1919.04543	1181.3875
1922.15534	1179.6875
1925.26322	1178.3875
1928.36908	1179.9875
1931.47292	1172.8875
1934.57473	1168.2875
1937.67453	1171.3875
1940.77232	1162.0875
1943.86808	1160.9875
1946.96184	1155.8875
1950.05358	1153.1875
1953.14331	1151.1875
1956.23103	1146.0875
1959.31675	1131.1875
1962.40046	1140.2875
1965.48217	1122.4875
1968.56188	1134.4875
1971.63959	1125.5875
1974.7153	1113.0875
1977.78901	1115.3875
1980.86073	1104.1875
1983.93046	1101.9875
1986.99819	1105.3875
1990.06394	1095.4875
1993.1277	1099.1875
1996.18947	1092.3875
1999.24925	1087.4875
2002.30706	1087.9875
2005.36288	1084.9875
2008.41672	1078.2875
2011.46859	1081.4875
2014.51848	1079.7875
2017.56639	1077.3875
2020.61233	1080.8875
2023.6563	1068.0875
2026.6983	1071.6875
2029.73833	1066.5875
2032.7764	1070.5875
2035.8125	1056.7875
2038.84664	1057.6875
2041.87881	1062.1875
2044.90903	1052.5875
2047.93729	1048.7875
2050.96359	1049.6875
2053.98794	1039.5875
2057.01034	1037.3875
2060.03078	1041.1875
2063.04927	1039.6875
2066.06582	1044.9875
2069.08042	1042.6875
2072.09307	1043.5875
2075.10378	1046.2875
2078.11255	1042.8875
2081.11938	1044.8875
2084.12426	1044.3875
2087.12722	1050.9875
2090.12824	1050.8875
2093.12732	1057.0875
2096.12447	1046.7875
2099.11969	1061.5875
2102.11299	1064.3875
2105.10435	1069.5875
2108.09379	1068.2875
2111.08131	1057.2875
2114.0669	1063.5875
2117.05057	1060.3875
2120.03233	1050.7875
2123.01216	1049.3875
2125.99008	1049.6875
2128.96609	1040.4875
2131.94018	1041.3875
2134.91236	1034.3875
2137.88263	1032.9875
2140.851	1027.1875
2143.81746	1030.8875
2146.78201	1027.2875
2149.74466	1022.7875
2152.7054	1023.8875
2155.66425	1024.3875
2158.6212	1024.9875
2161.57625	1011.2875
2164.52941	1012.2875
2167.48067	1018.6875
2170.43004	1025.7875
2173.37752	1018.0875
2176.32311	1010.9875
2179.26681	1013.5875
2182.20863	1002.7875
2185.14856	1012.0875
2188.08661	1012.6875
2191.02278	1010.4875
2193.95707	1009.5875
2196.88948	1000.9875
2199.82001	1005.8875
2202.74867	1012.8875
2205.67545	1008.9875
2208.60037	993.8875
2211.52341	999.4875
2214.44458	997.2875
2217.36388	990.9875
2220.28132	989.6875
2223.1969	981.7875
2226.11061	986.8875
2229.02246	976.9875
2231.93245	977.2875
2234.84058	973.5875
2237.74686	975.6875
2240.65128	975.2875
2243.55385	970.2875
2246.45456	970.5875
2249.35343	968.5875
2252.25044	968.8875
2255.14561	969.7875
2258.03893	958.1875
2260.93041	964.2875
2263.82004	952.3875
2266.70783	955.3875
2269.59378	954.9875
2272.4779	953.2875
2275.36017	939.1875
2278.24061	945.2875
2281.11922	938.7875
2283.996	935.1875
2286.87094	932.4875
2289.74405	928.9875
2292.61534	929.7875
2295.4848	928.9875
2298.35243	928.0875
2301.21824	925.1875
2304.08223	925.1875
2306.94439	917.6875
2309.80474	927.5875
2312.66327	923.3875
2315.51999	923.5875
2318.37489	925.5875
2321.22797	919.9875
2324.07925	916.3875
2326.92871	923.3875
2329.77637	920.0875
2332.62222	921.7875
2335.46626	910.8875
2338.3085	917.9875
2341.14893	907.5875
2343.98756	906.9875
2346.8244	912.8875
2349.65943	912.4875
2352.49267	904.8875
2355.32411	913.6875
2358.15376	905.9875
2360.98161	901.4875
2363.80768	906.3875
2366.63195	904.9875
2369.45444	900.2875
2372.27514	897.0875
2375.09405	898.0875
2377.91118	894.9875
2380.72652	899.6875
2383.54009	887.3875
2386.35187	890.8875
2389.16188	886.8875
2391.97011	887.4875
2394.77657	878.4875
2397.58125	883.7875
2400.38416	877.8875
2403.18529	880.9875
2405.98466	871.0875
2408.78226	874.7875
2411.57809	873.6875
2414.37216	874.6875
2417.16446	878.2875
2419.955	869.6875
2422.74378	872.6875
2425.5308	866.6875
2428.31606	864.6875
2431.09956	864.0875
2433.88131	863.1875
2436.6613	858.2875
2439.43954	863.1875
2442.21603	844.6875
2444.99077	849.8875
2447.76377	852.8875
2450.53501	851.8875
2453.30451	855.2875
2456.07226	851.6875
2458.83827	843.9875
2461.60254	852.4875
2464.36507	843.9875
2467.12586	841.7875
2469.88492	840.4875
2472.64224	842.4875
2475.39782	840.0875
2478.15167	840.0875
2480.90379	838.6875
2483.65417	833.6875
2486.40283	836.3875
2489.14976	837.6875
2491.89497	843.4875
2494.63845	831.8875
2497.3802	843.8875
2500.12024	835.2875
2502.85855	830.7875
2505.59514	830.6875
2508.33002	834.9875
2511.06318	829.5875
2513.79462	831.2875
2516.52435	815.4875
2519.25237	819.7875
2521.97867	816.6875
2524.70327	827.2875
2527.42616	825.6875
2530.14734	820.2875
2532.86681	819.0875
2535.58458	817.5875
2538.30065	818.8875
2541.01501	815.2875
2543.72768	817.2875
2546.43864	809.0875
2549.14791	816.7875
2551.85548	808.3875
2554.56136	804.5875
2557.26554	805.3875
2559.96803	804.2875
2562.66883	803.8875
2565.36794	805.6875
2568.06536	809.3875
2570.7611	802.8875
2573.45514	801.5875
2576.14751	788.8875
2578.83819	794.7875
2581.52719	798.3875
2584.21451	795.5875
2586.90015	787.5875
2589.58411	791.6875
2592.2664	787.9875
2594.94701	789.4875
2597.62594	786.1875
2600.30321	781.6875
2602.9788	788.2875
2605.65273	790.8875
2608.32498	783.8875
2610.99557	781.2875
2613.66449	787.3875
2616.33175	785.6875
2618.99734	774.5875
2621.66128	778.9875
2624.32355	784.6875
2626.98416	773.8875
2629.64311	780.8875
2632.30041	778.8875
2634.95605	771.2875
2637.61004	778.4875
2640.26238	776.5875
2642.91306	778.5875
2645.56209	778.6875
2648.20948	777.7875
2650.85521	769.1875
2653.4993	771.5875
2656.14175	775.8875
2658.78255	771.1875
2661.42171	775.4875
2664.05923	773.3875
2666.6951	770.0875
2669.32934	776.0875
2671.96194	774.1875
2674.59291	782.9875
2677.22224	777.1875
2679.84993	776.2875
2682.476	781.5875
2685.10043	774.8875
2687.72324	773.8875
2690.34441	774.8875
2692.96396	769.0875
2695.58188	780.3875
2698.19818	780.0875
2700.81285	773.9875
2703.4259	778.7875
2706.03733	782.8875
2708.64714	776.0875
2711.25533	782.8875
2713.86191	775.9875
2716.46687	777.3875
2719.07021	783.7875
2721.67194	782.8875
2724.27206	778.0875
2726.87057	783.9875
2729.46747	785.3875
2732.06276	780.6875
2734.65644	784.4875
2737.24852	784.1875
2739.83899	775.4875
2742.42786	781.7875
2745.01513	776.6875
2747.60079	771.4875
2750.18486	771.8875
2752.76733	774.5875
2755.3482	776.0875
2757.92747	774.4875
2760.50515	770.2875
2763.08123	771.5875
2765.65573	767.8875
2768.22863	769.0875
2770.79994	769.0875
2773.36967	771.6875
2775.9378	762.7875
2778.50435	772.4875
2781.06932	771.9875
2783.6327	777.8875
2786.1945	776.3875
2788.75471	772.8875
2791.31335	777.2875
2793.87041	775.0875
2796.42589	771.2875
2798.97979	775.9875
2801.53212	774.5875
2804.08288	768.5875
2806.63206	770.0875
2809.17967	772.6875
2811.72571	764.1875
2814.27018	770.8875
2816.81308	768.2875
2819.35442	764.5875
2821.89419	765.3875
2824.43239	779.0875
2826.96904	768.5875
2829.50412	767.2875
2832.03763	769.3875
2834.56959	767.7875
2837.1	765.3875
2839.62884	770.2875
2842.15613	768.5875
2844.68186	773.4875
2847.20604	781.4875
2849.72867	778.7875
2852.24974	778.7875
2854.76927	779.6875
2857.28724	780.1875
2859.80367	782.0875
2862.31855	776.1875
2864.83189	776.0875
2867.34368	787.1875
2869.85393	779.2875
2872.36264	781.2875
2874.8698	778.0875
2877.37543	780.3875
2879.87952	783.2875
2882.38207	788.1875
2884.88308	793.5875
2887.38256	791.8875
2889.88051	795.7875
2892.37692	796.3875
2894.8718	804.4875
2897.36515	803.1875
2899.85698	810.1875
2902.34727	809.8875
2904.83604	816.5875
2907.32328	811.1875
2909.809	821.2875
2912.29319	825.5875
2914.77587	832.0875
2917.25702	830.6875
2919.73665	836.3875
2922.21476	830.1875
2924.69136	839.5875
2927.16644	835.2875
2929.64	836.2875
2932.11205	834.9875
2934.58258	833.8875
2937.05161	835.4875
2939.51912	842.5875
2941.98513	840.1875
2944.44962	844.0875
2946.91261	850.0875
2949.37409	853.3875
2951.83407	858.2875
2954.29254	853.8875
2956.74951	851.0875
2959.20498	843.5875
2961.65895	843.4875
2964.11142	831.7875
2966.56239	823.2875
2969.01186	816.2875
2971.45984	808.6875
2973.90632	805.6875
2976.35131	805.2875
2978.7948	798.0875
2981.23681	786.5875
2983.67732	788.6875
2986.11635	787.0875
2988.55388	783.3875
2990.98993	781.7875
2993.4245	784.7875
2995.85758	782.8875
2998.28917	781.9875
3000.71928	784.6875
3003.14791	784.6875
3005.57506	782.2875
3008.00073	786.1875
3010.42493	788.1875
3012.84764	789.1875
3015.26888	792.9875
3017.68865	789.3875
3020.10694	784.9875
3022.52376	785.3875
3024.9391	792.0875
3027.35298	791.2875
3029.76539	784.6875
3032.17632	786.6875
3034.5858	790.4875
3036.9938	789.7875
3039.40034	788.2875
3041.80542	787.6875
3044.20903	788.9875
3046.61118	794.6875
3049.01187	792.8875
3051.4111	788.6875
3053.80888	786.4875
3056.20519	799.1875
3058.60005	797.3875
3060.99345	796.8875
3063.3854	798.3875
3065.7759	799.8875
3068.16494	801.8875
3070.55254	802.2875
3072.93868	803.7875
3075.32338	798.6875
3077.70662	810.7875
3080.08842	805.3875
3082.46878	810.4875
3084.84769	819.3875
3087.22515	815.0875
3089.60118	820.0875
3091.97576	824.8875
3094.3489	828.9875
3096.72061	833.4875
3099.09087	848.3875
3101.4597	848.8875
3103.82709	848.7875
3106.19305	857.3875
3108.55757	860.6875
3110.92066	850.1875
3113.28232	829.8875
3115.64255	869.9875
3118.00134	879.3875
3120.35871	881.8875
3122.71466	886.1875
3125.06917	894.1875
3127.42226	893.4875
3129.77393	902.6875
3132.12417	900.2875
3134.47299	909.3875
3136.82039	915.4875
3139.16636	921.5875
3141.51092	928.3875
3143.85406	934.5875
3146.19579	942.8875
3148.53609	950.3875
3150.87499	947.8875
3153.21246	961.6875
3155.54853	974.3875
3157.88318	987.3875
3160.21642	981.7875
3162.54826	985.1875
3164.87868	1007.1875
3167.2077	1006.1875
3169.5353	1011.3875
3171.86151	1020.8875
3174.18631	1027.0875
3176.5097	1033.5875
3178.83169	1034.6875
3181.15228	1042.2875
3183.47147	1047.7875
3185.78926	1057.8875
3188.10565	1054.8875
3190.42065	1059.8875
3192.73424	1069.3875
3195.04645	1072.9875
3197.35725	1077.1875
3199.66667	1080.8875
3201.97469	1087.4875
3204.28132	1093.0875
3206.58656	1090.1875
3208.8904	1107.6875
3211.19287	1103.4875
3213.49394	1111.7875
3215.79363	1113.4875
3218.09193	1119.7875
3220.38884	1130.8875
3222.68438	1129.8875
3224.97853	1130.2875
3227.2713	1134.5875
3229.56269	1141.1875
3231.8527	1140.3875
3234.14133	1144.0875
3236.42858	1141.4875
3238.71446	1132.7875
3240.99896	1140.8875
3243.28209	1141.4875
3245.56384	1144.8875
3247.84423	1137.4875
3250.12324	1138.3875
3252.40088	1134.4875
3254.67715	1147.0875
3256.95205	1146.6875
3259.22558	1145.6875
3261.49775	1153.6875
3263.76855	1152.3875
3266.03799	1159.3875
3268.30606	1149.9875
3270.57277	1153.2875
3272.83812	1157.6875
3275.10211	1146.6875
3277.36474	1144.0875
3279.62601	1144.5875
3281.88593	1149.9875
3284.14448	1146.7875
3286.40168	1141.3875
3288.65753	1153.9875
3290.91202	1145.8875
3293.16516	1147.7875
3295.41695	1149.2875
3297.66738	1144.6875
3299.91647	1130.3875
3302.16421	1062.7875
3304.4106	1127.5875
3306.65564	1122.5875
3308.89933	1111.9875
3311.14169	1110.4875
3313.38269	1101.8875
3315.62236	1097.2875
3317.86068	1089.1875
3320.09766	1079.3875
3322.3333	1072.9875
3324.5676	1076.1875
3326.80056	1062.3875
3329.03219	1052.0875
3331.26248	0.9875
3333.49143	-1.1125
3335.71905	0.1875
