Data from UA_Powder_RamanShift__3__15-52-18-852.txt Node

Date: Wed Aug 10 15:52:18 BST 2022
User: TCL
Spectrometer: QEP01345
Trigger mode: 4
Integration Time (sec): 4.000000E0
Scans to average: 10
Electric dark correction enabled: true
Nonlinearity correction enabled: false
Boxcar width: 0
XAxis mode: Raman Shifts
Number of Pixels in Spectrum: 1044
>>>>>Begin Spectral Data<<<<<
46.04893	-2.5125
50.45542	-0.2125
54.85868	-1.4125
59.25871	-1.8125
63.6555	189.3875
68.04907	200.0875
72.43941	190.2875
76.82654	206.9875
81.21044	210.0875
85.59113	221.3875
89.96862	216.1875
94.34289	235.1875
98.71396	225.6875
103.08183	253.1875
107.4465	263.0875
111.80798	271.3875
116.16626	287.7875
120.52136	294.4875
124.87327	319.8875
129.222	341.5875
133.56755	376.1875
137.90993	409.8875
142.24913	458.3875
146.58517	534.3875
150.91804	623.8875
155.24774	751.7875
159.57429	961.2875
163.89768	1240.6875
168.21792	1681.2875
172.53501	2324.4875
176.84895	3292.9875
181.15975	4745.7875
185.46741	6768.7875
189.77193	9443.2875
194.07331	12760.2875
198.37157	16434.8875
202.6667	20337.5875
206.9587	24213.7875
211.24758	27981.8875
215.53334	31651.4875
219.81599	35539.9875
224.09553	39670.6875
228.37195	44310.9875
232.64527	49464.3875
236.91549	55098.6875
241.18261	61126.4875
245.44663	67398.4875
249.70755	73453.0875
253.96539	79134.4875
258.22014	83804.2875
262.4718	87595.8875
266.72039	90255.6875
270.96589	91748.1875
275.20832	92495.9875
279.44768	92446.0875
283.68397	91758.3875
287.91719	90943.7875
292.14735	90223.1875
296.37445	89638.5875
300.59849	89188.8875
304.81948	88826.4875
309.03742	88638.5875
313.25231	88815.3875
317.46415	89201.8875
321.67296	89808.1875
325.87872	90541.2875
330.08145	91452.6875
334.28114	92429.1875
338.47781	93579.7875
342.67145	94804.8875
346.86207	96073.8875
351.04966	97260.0875
355.23424	98606.0875
359.4158	99911.0875
363.59435	101294.9875
367.76989	102746.2875
371.94243	104029.6875
376.11196	105295.7875
380.27849	106622.3875
384.44203	107870.9875
388.60257	109013.3875
392.76012	110084.8875
396.91468	111037.5875
401.06626	112167.5875
405.21485	113188.9875
409.36047	114173.9875
413.50311	115388.1875
417.64277	116366.4875
421.77947	117445.9875
425.9132	118482.1875
430.04396	119458.7875
434.17176	120526.1875
438.2966	121625.3875
442.41849	122414.3875
446.53742	123360.5875
450.6534	124255.2875
454.76644	125242.1875
458.87653	126003.0875
462.98368	126867.5875
467.08789	127833.5875
471.18916	128864.3875
475.2875	129406.9875
479.38291	129692.3875
483.4754	130210.7875
487.56496	130593.2875
491.6516	131049.6875
495.73531	131529.2875
499.81612	131874.4875
503.89401	132612.7875
507.96899	132709.1875
512.04106	132955.0875
516.11023	133314.4875
520.1765	133479.2875
524.23987	133820.9875
528.30034	134222.3875
532.35792	134491.9875
536.41261	134762.0875
540.46441	135048.7875
544.51333	135542.9875
548.55936	135781.7875
552.60252	136183.9875
556.64279	136614.0875
560.6802	137034.6875
564.71473	137274.3875
568.7464	137260.9875
572.7752	137269.8875
576.80114	137326.2875
580.82422	137574.1875
584.84444	137819.5875
588.86181	138189.9875
592.87633	138271.6875
596.888	138561.4875
600.89682	138783.2875
604.9028	139118.6875
608.90594	139439.5875
612.90624	139948.0875
616.90371	140756.5875
620.89834	141590.7875
624.89015	142356.1875
628.87913	142454.4875
632.86528	141835.8875
636.84862	141439.0875
640.82913	141329.1875
644.80683	141306.6875
648.78172	141438.6875
652.75379	141732.5875
656.72306	141902.7875
660.68952	142104.0875
664.65319	142235.6875
668.61405	142367.2875
672.57211	142490.0875
676.52738	142465.2875
680.47986	142692.3875
684.42955	142721.2875
688.37646	142989.3875
692.32058	143178.9875
696.26192	143242.7875
700.20048	143417.4875
704.13626	143590.5875
708.06928	143789.2875
711.99952	143597.8875
715.927	143340.2875
719.85171	143094.2875
723.77365	143019.3875
727.69284	142951.6875
731.60928	142862.5875
735.52295	142651.4875
739.43388	142579.4875
743.34206	142541.6875
747.24749	142351.0875
751.15017	142114.9875
755.05012	141913.3875
758.94733	141838.1875
762.8418	141676.1875
766.73354	141614.3875
770.62254	141407.5875
774.50882	141278.2875
778.39237	141063.4875
782.27321	140790.1875
786.15132	140505.2875
790.02671	140228.3875
793.89938	139713.0875
797.76935	139334.8875
801.6366	139025.2875
805.50115	138587.9875
809.36299	138401.1875
813.22213	138228.7875
817.07857	138090.1875
820.93231	138024.0875
824.78336	137825.5875
828.63172	137793.4875
832.47738	137536.9875
836.32036	137202.5875
840.16066	137072.3875
843.99827	136951.8875
847.8332	136687.1875
851.66546	136484.7875
855.49504	136288.7875
859.32195	136122.0875
863.1462	135909.8875
866.96777	135906.2875
870.78668	135862.3875
874.60293	135772.2875
878.41652	135580.5875
882.22745	135441.2875
886.03573	135137.0875
889.84136	134675.3875
893.64433	134263.9875
897.44466	133805.4875
901.24235	133257.8875
905.0374	132873.3875
908.8298	132377.2875
912.61957	131908.1875
916.40671	131488.4875
920.19121	131046.7875
923.97308	130718.3875
927.75233	130059.2875
931.52895	129702.8875
935.30295	129374.5875
939.07433	128859.9875
942.84309	128353.4875
946.60924	127984.4875
950.37278	127503.1875
954.13371	127006.4875
957.89203	126580.5875
961.64774	126112.7875
965.40086	125598.6875
969.15137	125078.4875
972.89929	124575.2875
976.64461	124186.4875
980.38733	123834.6875
984.12747	123552.6875
987.86502	123442.1875
991.59999	123402.1875
995.33237	123847.9875
999.06217	124304.9875
1002.78939	123463.8875
1006.51404	122547.7875
1010.23611	122063.2875
1013.95561	121646.7875
1017.67255	121449.8875
1021.38692	121084.1875
1025.09872	120993.1875
1028.80796	120926.4875
1032.51465	121410.6875
1036.21877	122443.6875
1039.92035	122567.8875
1043.61937	121024.6875
1047.31584	119725.9875
1051.00976	119117.1875
1054.70114	118777.4875
1058.38998	118515.3875
1062.07627	118191.8875
1065.76003	118026.8875
1069.44126	117860.7875
1073.11995	117446.2875
1076.79611	117155.8875
1080.46974	116840.0875
1084.14085	116328.4875
1087.80943	115862.0875
1091.47549	115501.0875
1095.13903	115090.9875
1098.80005	114699.5875
1102.45857	114392.1875
1106.11456	114078.2875
1109.76805	113922.0875
1113.41903	113894.2875
1117.06751	113920.3875
1120.71348	114183.7875
1124.35696	113834.4875
1127.99793	113126.9875
1131.63641	112519.1875
1135.2724	111907.9875
1138.90589	111358.9875
1142.5369	110876.7875
1146.16542	110494.4875
1149.79145	110093.4875
1153.415	109711.8875
1157.03607	109239.3875
1160.65467	108976.0875
1164.27079	108841.0875
1167.88443	108407.5875
1171.49561	108261.1875
1175.10432	108191.9875
1178.71056	108181.7875
1182.31434	108174.2875
1185.91565	108006.6875
1189.51451	107926.7875
1193.11091	107740.3875
1196.70485	107493.5875
1200.29634	107218.5875
1203.88538	106871.0875
1207.47197	106697.6875
1211.05612	106513.8875
1214.63782	106282.4875
1218.21708	106123.7875
1221.79391	106003.4875
1225.36829	105894.7875
1228.94024	106113.2875
1232.50976	106623.4875
1236.07685	106506.2875
1239.6415	106121.8875
1243.20374	105790.6875
1246.76355	105600.6875
1250.32093	105346.2875
1253.8759	105135.9875
1257.42845	105093.1875
1260.97859	104953.2875
1264.52631	104659.4875
1268.07163	104432.5875
1271.61453	104239.5875
1275.15503	103952.7875
1278.69312	104020.8875
1282.22882	104107.6875
1285.76211	104457.1875
1289.29301	104331.8875
1292.82151	103716.6875
1296.34761	103156.8875
1299.87133	103022.9875
1303.39266	102965.0875
1306.9116	102900.2875
1310.42815	102761.4875
1313.94233	102502.8875
1317.45412	102090.5875
1320.96354	101761.5875
1324.47058	101333.2875
1327.97525	100814.7875
1331.47754	100379.9875
1334.97747	100095.2875
1338.47502	99651.3875
1341.97022	99358.3875
1345.46305	99031.8875
1348.95352	98859.4875
1352.44163	98792.6875
1355.92738	98762.4875
1359.41078	98453.4875
1362.89183	98080.3875
1366.37053	97567.1875
1369.84688	97151.1875
1373.32088	96778.0875
1376.79254	96416.7875
1380.26186	95956.3875
1383.72883	95470.5875
1387.19347	95167.3875
1390.65578	94895.9875
1394.11575	94826.6875
1397.57339	94841.7875
1401.0287	94987.6875
1404.48168	95092.7875
1407.93234	94893.7875
1411.38068	94375.9875
1414.82669	93819.0875
1418.27039	93271.4875
1421.71177	92858.3875
1425.15083	92405.6875
1428.58758	91814.1875
1432.02203	91429.1875
1435.45416	91103.5875
1438.88399	90832.2875
1442.31151	90563.2875
1445.73673	90349.4875
1449.15965	90203.4875
1452.58027	89931.4875
1455.9986	89503.7875
1459.41463	89288.1875
1462.82837	89116.6875
1466.23982	88974.0875
1469.64898	89076.9875
1473.05586	89189.6875
1476.46045	89253.3875
1479.86276	89435.3875
1483.26279	89653.5875
1486.66054	89900.8875
1490.05602	90081.9875
1493.44922	90371.2875
1496.84016	90583.0875
1500.22882	90628.2875
1503.61521	90465.5875
1506.99934	90287.7875
1510.38121	89967.9875
1513.76081	89679.6875
1517.13816	89543.8875
1520.51324	89481.6875
1523.88607	89440.2875
1527.25665	89559.1875
1530.62498	89686.8875
1533.99105	89759.4875
1537.35488	89919.7875
1540.71647	90017.5875
1544.07581	90055.0875
1547.4329	90070.6875
1550.78776	90003.9875
1554.14038	89966.7875
1557.49077	89961.9875
1560.83892	89927.2875
1564.18484	89783.8875
1567.52853	89750.9875
1570.86999	89645.1875
1574.20922	89571.3875
1577.54624	89421.5875
1580.88103	89363.7875
1584.2136	89462.4875
1587.54395	89504.3875
1590.87208	89584.6875
1594.19801	89598.4875
1597.52172	89463.6875
1600.84321	89209.2875
1604.16251	88949.6875
1607.47959	88688.7875
1610.79447	88368.1875
1614.10715	88108.6875
1617.41763	87863.8875
1620.7259	87635.4875
1624.03199	87508.2875
1627.33587	87358.4875
1630.63757	87396.3875
1633.93707	87352.1875
1637.23439	87483.0875
1640.52951	87717.7875
1643.82246	87934.9875
1647.11321	88287.2875
1650.40179	88413.1875
1653.68819	88180.5875
1656.97241	87482.5875
1660.25446	86622.2875
1663.53433	86154.0875
1666.81203	85790.9875
1670.08756	85451.6875
1673.36092	85193.7875
1676.63211	84959.1875
1679.90115	84811.9875
1683.16801	84599.2875
1686.43272	84327.0875
1689.69527	84059.5875
1692.95567	83790.1875
1696.2139	83522.3875
1699.46999	83202.2875
1702.72392	82954.7875
1705.97571	82865.1875
1709.22535	82729.9875
1712.47284	82579.1875
1715.71819	82474.1875
1718.96139	82242.3875
1722.20246	82085.0875
1725.44139	81861.0875
1728.67818	81637.2875
1731.91284	81448.5875
1735.14537	81251.6875
1738.37576	81044.6875
1741.60403	80767.9875
1744.83017	80557.5875
1748.05418	80375.2875
1751.27607	80225.8875
1754.49584	79971.2875
1757.71349	79854.1875
1760.92903	79683.6875
1764.14244	79482.4875
1767.35375	79436.1875
1770.56294	79228.6875
1773.77002	79125.4875
1776.97499	78999.5875
1780.17785	78806.8875
1783.37861	78640.3875
1786.57727	78409.3875
1789.77382	78200.2875
1792.96828	78010.5875
1796.16064	77754.5875
1799.3509	77513.4875
1802.53907	77278.6875
1805.72514	77060.6875
1808.90913	76775.8875
1812.09102	76550.4875
1815.27083	76307.0875
1818.44856	76095.9875
1821.6242	75877.7875
1824.79776	75650.9875
1827.96924	75436.2875
1831.13864	75253.6875
1834.30597	75130.2875
1837.47122	74858.7875
1840.6344	74606.9875
1843.7955	74384.7875
1846.95454	74323.2875
1850.11151	74134.9875
1853.26642	73844.9875
1856.41926	73661.3875
1859.57004	73523.9875
1862.71876	73332.1875
1865.86542	73169.1875
1869.01003	72927.1875
1872.15258	72684.1875
1875.29308	72552.2875
1878.43152	72266.9875
1881.56792	72046.4875
1884.70227	71778.3875
1887.83457	71591.9875
1890.96482	71348.6875
1894.09304	71110.9875
1897.21921	70872.1875
1900.34335	70631.5875
1903.46544	70363.4875
1906.58551	70245.5875
1909.70353	69969.1875
1912.81953	69711.2875
1915.93349	69534.6875
1919.04543	69346.2875
1922.15534	69034.3875
1925.26322	68712.6875
1928.36908	68526.2875
1931.47292	68218.2875
1934.57473	67962.7875
1937.67453	67732.1875
1940.77232	67451.9875
1943.86808	67167.8875
1946.96184	66932.0875
1950.05358	66497.2875
1953.14331	66168.5875
1956.23103	65877.3875
1959.31675	65480.1875
1962.40046	65192.7875
1965.48217	64945.1875
1968.56188	64547.7875
1971.63959	64204.8875
1974.7153	63871.5875
1977.78901	63493.4875
1980.86073	63185.4875
1983.93046	62886.5875
1986.99819	62526.6875
1990.06394	62237.0875
1993.1277	62055.9875
1996.18947	61680.0875
1999.24925	61321.1875
2002.30706	61042.0875
2005.36288	60800.6875
2008.41672	60451.1875
2011.46859	60196.2875
2014.51848	59790.1875
2017.56639	59528.6875
2020.61233	59180.5875
2023.6563	58930.3875
2026.6983	58627.8875
2029.73833	58345.0875
2032.7764	58070.0875
2035.8125	57765.3875
2038.84664	57481.9875
2041.87881	57260.1875
2044.90903	56996.7875
2047.93729	56761.4875
2050.96359	56557.3875
2053.98794	56296.8875
2057.01034	56209.5875
2060.03078	55963.0875
2063.04927	55725.2875
2066.06582	55566.0875
2069.08042	55393.1875
2072.09307	55232.8875
2075.10378	55106.2875
2078.11255	54952.1875
2081.11938	54859.5875
2084.12426	54616.6875
2087.12722	54372.8875
2090.12824	54230.2875
2093.12732	54136.6875
2096.12447	54015.3875
2099.11969	53824.4875
2102.11299	53645.9875
2105.10435	53588.9875
2108.09379	53390.3875
2111.08131	53345.7875
2114.0669	53202.7875
2117.05057	53055.3875
2120.03233	52922.5875
2123.01216	52842.0875
2125.99008	52819.9875
2128.96609	52657.0875
2131.94018	52588.8875
2134.91236	52486.2875
2137.88263	52361.0875
2140.851	52271.3875
2143.81746	52253.2875
2146.78201	52092.0875
2149.74466	51990.5875
2152.7054	51870.8875
2155.66425	51596.2875
2158.6212	51472.9875
2161.57625	51341.1875
2164.52941	51191.9875
2167.48067	50998.0875
2170.43004	50829.9875
2173.37752	50691.9875
2176.32311	50517.5875
2179.26681	50381.7875
2182.20863	50216.8875
2185.14856	50146.8875
2188.08661	49974.9875
2191.02278	49895.6875
2193.95707	49663.0875
2196.88948	49451.2875
2199.82001	49284.1875
2202.74867	49083.0875
2205.67545	48914.6875
2208.60037	48684.4875
2211.52341	48481.5875
2214.44458	48288.1875
2217.36388	48016.7875
2220.28132	47785.9875
2223.1969	47527.4875
2226.11061	47357.0875
2229.02246	47093.0875
2231.93245	46911.6875
2234.84058	46697.3875
2237.74686	46469.1875
2240.65128	46398.7875
2243.55385	46155.0875
2246.45456	45943.8875
2249.35343	45783.2875
2252.25044	45588.5875
2255.14561	45432.2875
2258.03893	45173.4875
2260.93041	45017.4875
2263.82004	44791.7875
2266.70783	44550.6875
2269.59378	44274.5875
2272.4779	44080.4875
2275.36017	43824.8875
2278.24061	43633.5875
2281.11922	43363.6875
2283.996	43246.9875
2286.87094	42991.4875
2289.74405	42822.5875
2292.61534	42674.9875
2295.4848	42462.1875
2298.35243	42341.5875
2301.21824	42124.4875
2304.08223	42008.0875
2306.94439	41883.4875
2309.80474	41675.7875
2312.66327	41608.1875
2315.51999	41336.5875
2318.37489	41197.4875
2321.22797	40967.5875
2324.07925	40763.6875
2326.92871	40615.3875
2329.77637	40468.5875
2332.62222	40234.9875
2335.46626	40030.2875
2338.3085	39809.5875
2341.14893	39661.4875
2343.98756	39528.8875
2346.8244	39337.4875
2349.65943	39177.6875
2352.49267	39034.8875
2355.32411	38894.2875
2358.15376	38757.2875
2360.98161	38530.7875
2363.80768	38431.5875
2366.63195	38288.0875
2369.45444	38164.3875
2372.27514	37999.5875
2375.09405	37873.3875
2377.91118	37727.9875
2380.72652	37463.1875
2383.54009	37320.9875
2386.35187	37147.5875
2389.16188	36991.4875
2391.97011	36825.8875
2394.77657	36662.2875
2397.58125	36453.1875
2400.38416	36336.2875
2403.18529	36174.5875
2405.98466	35997.3875
2408.78226	35848.1875
2411.57809	35662.7875
2414.37216	35497.9875
2417.16446	35407.2875
2419.955	35231.2875
2422.74378	35150.5875
2425.5308	34985.4875
2428.31606	34851.3875
2431.09956	34718.4875
2433.88131	34559.1875
2436.6613	34489.1875
2439.43954	34355.9875
2442.21603	34203.6875
2444.99077	34026.3875
2447.76377	33906.8875
2450.53501	33780.8875
2453.30451	33626.3875
2456.07226	33478.0875
2458.83827	33340.3875
2461.60254	33139.8875
2464.36507	33037.8875
2467.12586	32896.1875
2469.88492	32786.0875
2472.64224	32675.3875
2475.39782	32539.8875
2478.15167	32441.2875
2480.90379	32259.2875
2483.65417	32215.7875
2486.40283	32129.9875
2489.14976	31965.1875
2491.89497	31881.6875
2494.63845	31791.7875
2497.3802	31609.6875
2500.12024	31502.8875
2502.85855	31392.3875
2505.59514	31261.1875
2508.33002	31125.5875
2511.06318	30992.8875
2513.79462	30879.3875
2516.52435	30761.5875
2519.25237	30611.6875
2521.97867	30495.6875
2524.70327	30424.2875
2527.42616	30302.0875
2530.14734	30219.3875
2532.86681	30043.2875
2535.58458	29899.5875
2538.30065	29761.9875
2541.01501	29665.0875
2543.72768	29515.7875
2546.43864	29408.6875
2549.14791	29280.4875
2551.85548	29146.6875
2554.56136	29012.0875
2557.26554	28857.8875
2559.96803	28737.9875
2562.66883	28620.8875
2565.36794	28507.5875
2568.06536	28382.9875
2570.7611	28285.9875
2573.45514	28091.9875
2576.14751	28013.4875
2578.83819	27852.9875
2581.52719	27705.8875
2584.21451	27622.1875
2586.90015	27491.1875
2589.58411	27376.6875
2592.2664	27300.1875
2594.94701	27169.7875
2597.62594	27083.4875
2600.30321	26901.2875
2602.9788	26781.0875
2605.65273	26698.0875
2608.32498	26646.1875
2610.99557	26496.6875
2613.66449	26417.2875
2616.33175	26293.7875
2618.99734	26152.3875
2621.66128	26053.2875
2624.32355	25961.4875
2626.98416	25801.2875
2629.64311	25700.6875
2632.30041	25583.0875
2634.95605	25512.8875
2637.61004	25389.7875
2640.26238	25324.1875
2642.91306	25206.2875
2645.56209	25121.6875
2648.20948	25027.4875
2650.85521	24972.1875
2653.4993	24915.3875
2656.14175	24794.2875
2658.78255	24764.4875
2661.42171	24690.1875
2664.05923	24668.4875
2666.6951	24578.3875
2669.32934	24540.8875
2671.96194	24462.2875
2674.59291	24381.4875
2677.22224	24279.8875
2679.84993	24242.7875
2682.476	24143.8875
2685.10043	24093.9875
2687.72324	23996.3875
2690.34441	23933.9875
2692.96396	23856.5875
2695.58188	23849.2875
2698.19818	23738.4875
2700.81285	23681.3875
2703.4259	23629.5875
2706.03733	23593.3875
2708.64714	23484.6875
2711.25533	23457.7875
2713.86191	23362.8875
2716.46687	23326.3875
2719.07021	23267.4875
2721.67194	23235.5875
2724.27206	23159.1875
2726.87057	23120.6875
2729.46747	23038.1875
2732.06276	22955.8875
2734.65644	22888.1875
2737.24852	22870.0875
2739.83899	22768.0875
2742.42786	22738.6875
2745.01513	22649.9875
2747.60079	22519.8875
2750.18486	22430.9875
2752.76733	22370.1875
2755.3482	22268.5875
2757.92747	22192.9875
2760.50515	22082.5875
2763.08123	22025.5875
2765.65573	21917.5875
2768.22863	21900.4875
2770.79994	21805.9875
2773.36967	21739.0875
2775.9378	21664.1875
2778.50435	21588.6875
2781.06932	21506.9875
2783.6327	21450.0875
2786.1945	21420.2875
2788.75471	21309.9875
2791.31335	21235.0875
2793.87041	21150.5875
2796.42589	21030.0875
2798.97979	20969.8875
2801.53212	20838.8875
2804.08288	20787.6875
2806.63206	20660.9875
2809.17967	20558.9875
2811.72571	20477.6875
2814.27018	20410.5875
2816.81308	20265.8875
2819.35442	20198.6875
2821.89419	20095.6875
2824.43239	20032.7875
2826.96904	19978.9875
2829.50412	19867.7875
2832.03763	19770.7875
2834.56959	19706.8875
2837.1	19621.5875
2839.62884	19567.8875
2842.15613	19533.7875
2844.68186	19453.2875
2847.20604	19335.4875
2849.72867	19287.7875
2852.24974	19240.2875
2854.76927	19179.5875
2857.28724	19110.3875
2859.80367	19072.6875
2862.31855	19008.4875
2864.83189	18883.3875
2867.34368	18822.0875
2869.85393	18759.3875
2872.36264	18656.6875
2874.8698	18580.9875
2877.37543	18555.3875
2879.87952	18494.8875
2882.38207	18439.5875
2884.88308	18432.2875
2887.38256	18374.7875
2889.88051	18331.4875
2892.37692	18315.1875
2894.8718	18242.1875
2897.36515	18232.2875
2899.85698	18173.4875
2902.34727	18155.7875
2904.83604	18106.4875
2907.32328	18102.6875
2909.809	18013.9875
2912.29319	17995.1875
2914.77587	17943.9875
2917.25702	17901.4875
2919.73665	17868.3875
2922.21476	17842.5875
2924.69136	17764.4875
2927.16644	17740.3875
2929.64	17668.8875
2932.11205	17622.1875
2934.58258	17535.3875
2937.05161	17492.1875
2939.51912	17493.8875
2941.98513	17407.3875
2944.44962	17347.1875
2946.91261	17261.5875
2949.37409	17265.7875
2951.83407	17240.0875
2954.29254	17193.8875
2956.74951	17155.9875
2959.20498	17134.2875
2961.65895	17078.5875
2964.11142	17052.1875
2966.56239	17004.2875
2969.01186	17005.1875
2971.45984	16920.7875
2973.90632	16897.4875
2976.35131	16846.6875
2978.7948	16766.5875
2981.23681	16715.5875
2983.67732	16643.2875
2986.11635	16639.1875
2988.55388	16545.9875
2990.98993	16508.0875
2993.4245	16424.4875
2995.85758	16336.6875
2998.28917	16278.7875
3000.71928	16225.5875
3003.14791	16192.1875
3005.57506	16147.5875
3008.00073	16060.9875
3010.42493	15981.2875
3012.84764	15955.4875
3015.26888	15889.0875
3017.68865	15810.5875
3020.10694	15749.8875
3022.52376	15694.2875
3024.9391	15654.3875
3027.35298	15599.0875
3029.76539	15555.7875
3032.17632	15544.3875
3034.5858	15481.7875
3036.9938	15413.1875
3039.40034	15321.4875
3041.80542	15274.1875
3044.20903	15218.4875
3046.61118	15146.1875
3049.01187	15104.8875
3051.4111	15058.8875
3053.80888	14980.6875
3056.20519	14930.6875
3058.60005	14822.5875
3060.99345	14796.5875
3063.3854	14726.7875
3065.7759	14669.6875
3068.16494	14569.2875
3070.55254	14513.8875
3072.93868	14465.9875
3075.32338	14383.1875
3077.70662	14343.6875
3080.08842	14265.5875
3082.46878	14182.7875
3084.84769	14122.8875
3087.22515	14117.7875
3089.60118	14057.1875
3091.97576	14058.4875
3094.3489	14009.2875
3096.72061	13986.9875
3099.09087	13987.5875
3101.4597	13928.1875
3103.82709	13887.7875
3106.19305	13808.7875
3108.55757	13784.4875
3110.92066	13703.6875
3113.28232	13683.4875
3115.64255	13592.8875
3118.00134	13567.3875
3120.35871	13464.4875
3122.71466	13431.3875
3125.06917	13377.7875
3127.42226	13311.3875
3129.77393	13262.5875
3132.12417	13227.3875
3134.47299	13196.3875
3136.82039	13142.7875
3139.16636	13085.8875
3141.51092	13048.5875
3143.85406	13012.3875
3146.19579	12963.1875
3148.53609	12957.0875
3150.87499	12916.3875
3153.21246	12869.4875
3155.54853	12824.9875
3157.88318	12820.0875
3160.21642	12799.9875
3162.54826	12769.0875
3164.87868	12720.1875
3167.2077	12690.9875
3169.5353	12674.2875
3171.86151	12623.7875
3174.18631	12566.5875
3176.5097	12539.3875
3178.83169	12491.3875
3181.15228	12434.9875
3183.47147	12375.5875
3185.78926	12321.8875
3188.10565	12279.8875
3190.42065	12216.9875
3192.73424	12150.3875
3195.04645	12143.9875
3197.35725	12067.5875
3199.66667	12029.6875
3201.97469	12007.1875
3204.28132	11947.8875
3206.58656	11940.9875
3208.8904	11891.4875
3211.19287	11868.4875
3213.49394	11835.4875
3215.79363	11767.3875
3218.09193	11783.2875
3220.38884	11769.7875
3222.68438	11744.5875
3224.97853	11669.6875
3227.2713	11653.0875
3229.56269	11612.1875
3231.8527	11578.5875
3234.14133	11536.5875
3236.42858	11474.3875
3238.71446	11395.2875
3240.99896	11334.7875
3243.28209	11301.8875
3245.56384	11293.2875
3247.84423	11232.0875
3250.12324	11203.7875
3252.40088	11159.7875
3254.67715	11132.0875
3256.95205	11078.3875
3259.22558	11097.6875
3261.49775	11019.2875
3263.76855	11007.3875
3266.03799	10964.1875
3268.30606	10944.6875
3270.57277	10892.7875
3272.83812	10848.5875
3275.10211	10776.3875
3277.36474	10772.8875
3279.62601	10699.4875
3281.88593	10637.6875
3284.14448	10620.4875
3286.40168	10597.6875
3288.65753	10549.9875
3290.91202	10519.8875
3293.16516	10457.2875
3295.41695	10416.0875
3297.66738	10323.8875
3299.91647	10250.2875
3302.16421	10134.8875
3304.4106	10085.8875
3306.65564	9984.2875
3308.89933	9880.6875
3311.14169	9818.9875
3313.38269	9680.4875
3315.62236	9595.5875
3317.86068	9490.9875
3320.09766	9409.2875
3322.3333	9299.3875
3324.5676	9206.9875
3326.80056	9080.5875
3329.03219	9000.8875
3331.26248	3.2875
3333.49143	0.6875
3335.71905	1.0875
