Data from AgNPs_FTO_APTES_UA_1uM_CRN_100uM_R6G_10uM_NaF_0.1M_Addition_RamanShift__35__17-01-29-809.txt Node

Date: Thu Jan 27 17:01:29 GMT 2022
User: TCL
Spectrometer: QEP01345
Trigger mode: 4
Integration Time (sec): 7.000000E0
Scans to average: 10
Electric dark correction enabled: true
Nonlinearity correction enabled: false
Boxcar width: 0
XAxis mode: Raman Shifts
Number of Pixels in Spectrum: 1044
>>>>>Begin Spectral Data<<<<<
46.04893	0.2375
50.45542	0.7375
54.85868	-0.7625
59.25871	-0.7625
63.6555	43.9375
68.04907	44.3375
72.43941	47.5375
76.82654	51.7375
81.21044	53.5375
85.59113	52.1375
89.96862	54.1375
94.34289	56.2375
98.71396	60.5375
103.08183	57.8375
107.4465	63.6375
111.80798	65.1375
116.16626	63.9375
120.52136	69.1375
124.87327	68.3375
129.222	66.0375
133.56755	71.4375
137.90993	73.4375
142.24913	83.8375
146.58517	91.4375
150.91804	102.9375
155.24774	120.4375
159.57429	141.5375
163.89768	180.5375
168.21792	240.1375
172.53501	315.1375
176.84895	434.1375
181.15975	607.9375
185.46741	849.3375
189.77193	1170.4375
194.07331	1564.6375
198.37157	2008.3375
202.6667	2495.6375
206.9587	2973.3375
211.24758	3437.6375
215.53334	3905.0375
219.81599	4384.9375
224.09553	4911.6375
228.37195	5524.2375
232.64527	6153.8375
236.91549	6863.4375
241.18261	7537.6375
245.44663	8191.3375
249.70755	8807.8375
253.96539	9339.0375
258.22014	9767.6375
262.4718	10150.0375
266.72039	10406.6375
270.96589	10558.7375
275.20832	10586.9375
279.44768	10500.7375
283.68397	10403.1375
287.91719	10290.7375
292.14735	10199.0375
296.37445	10172.6375
300.59849	10162.6375
304.81948	10208.2375
309.03742	10192.0375
313.25231	10148.2375
317.46415	9981.8375
321.67296	9785.8375
325.87872	9646.2375
330.08145	9583.6375
334.28114	9600.0375
338.47781	9705.3375
342.67145	9793.3375
346.86207	9935.0375
351.04966	10139.3375
355.23424	10321.0375
359.4158	10473.3375
363.59435	10620.0375
367.76989	10712.4375
371.94243	10772.1375
376.11196	10860.1375
380.27849	10927.9375
384.44203	10998.2375
388.60257	11076.7375
392.76012	11174.0375
396.91468	11277.1375
401.06626	11424.8375
405.21485	11561.8375
409.36047	11545.8375
413.50311	11417.8375
417.64277	11315.3375
421.77947	11263.2375
425.9132	11312.0375
430.04396	11350.0375
434.17176	11450.1375
438.2966	11572.8375
442.41849	11815.9375
446.53742	12152.8375
450.6534	12508.2375
454.76644	12788.4375
458.87653	12887.8375
462.98368	12796.8375
467.08789	12644.6375
471.18916	12503.1375
475.2875	12356.4375
479.38291	12266.1375
483.4754	12175.8375
487.56496	12071.4375
491.6516	11910.1375
495.73531	11772.8375
499.81612	11703.0375
503.89401	11702.8375
507.96899	11690.0375
512.04106	11677.7375
516.11023	11637.2375
520.1765	11616.2375
524.23987	11614.2375
528.30034	11569.6375
532.35792	11517.3375
536.41261	11409.6375
540.46441	11299.2375
544.51333	11268.6375
548.55936	11329.7375
552.60252	11526.8375
556.64279	11714.8375
560.6802	11835.6375
564.71473	11956.9375
568.7464	12089.5375
572.7752	12254.9375
576.80114	12375.8375
580.82422	12469.6375
584.84444	12656.2375
588.86181	12996.6375
592.87633	13412.6375
596.888	13660.3375
600.89682	13652.2375
604.9028	13818.2375
608.90594	14548.1375
612.90624	15327.8375
616.90371	14651.1375
620.89834	12871.0375
624.89015	12085.6375
628.87913	12041.4375
632.86528	12019.6375
636.84862	11931.1375
640.82913	11739.5375
644.80683	11533.2375
648.78172	11362.5375
652.75379	11336.8375
656.72306	11443.9375
660.68952	11583.7375
664.65319	11556.4375
668.61405	11425.7375
672.57211	11391.9375
676.52738	11414.0375
680.47986	11379.9375
684.42955	11353.0375
688.37646	11311.0375
692.32058	11393.1375
696.26192	11498.2375
700.20048	11598.9375
704.13626	11664.5375
708.06928	11594.4375
711.99952	11525.1375
715.927	11528.0375
719.85171	11579.6375
723.77365	11540.0375
727.69284	11447.7375
731.60928	11381.6375
735.52295	11348.5375
739.43388	11359.7375
743.34206	11375.1375
747.24749	11436.5375
751.15017	11489.8375
755.05012	11612.5375
758.94733	11869.2375
762.8418	12253.9375
766.73354	12904.3375
770.62254	13539.8375
774.50882	13771.5375
778.39237	13380.1375
782.27321	12691.2375
786.15132	12078.2375
790.02671	11697.7375
793.89938	11546.6375
797.76935	11491.8375
801.6366	11468.7375
805.50115	11430.8375
809.36299	11386.4375
813.22213	11328.1375
817.07857	11319.2375
820.93231	11309.8375
824.78336	11319.9375
828.63172	11307.3375
832.47738	11336.7375
836.32036	11390.2375
840.16066	11502.8375
843.99827	11586.9375
847.8332	11502.5375
851.66546	11428.3375
855.49504	11396.5375
859.32195	11390.7375
863.1462	11370.4375
866.96777	11332.9375
870.78668	11263.2375
874.60293	11276.1375
878.41652	11261.1375
882.22745	11299.3375
886.03573	11374.7375
889.84136	11354.7375
893.64433	11292.5375
897.44466	11253.0375
901.24235	11211.2375
905.0374	11178.2375
908.8298	11189.1375
912.61957	11201.9375
916.40671	11298.6375
920.19121	11453.9375
923.97308	11575.7375
927.75233	11654.8375
931.52895	11641.6375
935.30295	11538.4375
939.07433	11394.6375
942.84309	11293.9375
946.60924	11236.0375
950.37278	11171.6375
954.13371	11140.0375
957.89203	11052.0375
961.64774	11034.1375
965.40086	11014.1375
969.15137	10972.0375
972.89929	10959.0375
976.64461	10966.1375
980.38733	10996.9375
984.12747	11051.0375
987.86502	11152.3375
991.59999	11320.6375
995.33237	11529.7375
999.06217	11897.2375
1002.78939	12330.7375
1006.51404	12472.3375
1010.23611	12474.8375
1013.95561	12474.0375
1017.67255	12459.1375
1021.38692	12375.5375
1025.09872	12327.8375
1028.80796	12561.9375
1032.51465	13128.2375
1036.21877	13646.7375
1039.92035	13775.7375
1043.61937	13494.2375
1047.31584	13028.3375
1051.00976	12581.3375
1054.70114	12273.9375
1058.38998	12173.8375
1062.07627	12118.0375
1065.76003	12122.4375
1069.44126	12145.3375
1073.11995	12164.2375
1076.79611	12304.9375
1080.46974	12379.5375
1084.14085	12453.4375
1087.80943	12505.1375
1091.47549	12522.1375
1095.13903	12499.7375
1098.80005	12390.0375
1102.45857	12246.3375
1106.11456	12151.0375
1109.76805	12159.4375
1113.41903	12176.9375
1117.06751	12230.6375
1120.71348	12302.4375
1124.35696	12402.3375
1127.99793	12489.3375
1131.63641	12565.3375
1135.2724	12489.5375
1138.90589	12362.1375
1142.5369	12329.5375
1146.16542	12353.6375
1149.79145	12383.4375
1153.415	12486.8375
1157.03607	12599.4375
1160.65467	12826.0375
1164.27079	13204.4375
1167.88443	13709.9375
1171.49561	14366.0375
1175.10432	15167.5375
1178.71056	16205.6375
1182.31434	17186.1375
1185.91565	17710.2375
1189.51451	17617.3375
1193.11091	17057.7375
1196.70485	16455.4375
1200.29634	15934.7375
1203.88538	15604.9375
1207.47197	15390.8375
1211.05612	15089.6375
1214.63782	14808.7375
1218.21708	14681.3375
1221.79391	14630.7375
1225.36829	14574.4375
1228.94024	14397.5375
1232.50976	14083.3375
1236.07685	13865.7375
1239.6415	13708.5375
1243.20374	13733.6375
1246.76355	13889.9375
1250.32093	14081.0375
1253.8759	14353.4375
1257.42845	14678.2375
1260.97859	14978.3375
1264.52631	15273.0375
1268.07163	15617.6375
1271.61453	16029.9375
1275.15503	16508.2375
1278.69312	17003.8375
1282.22882	17306.4375
1285.76211	17591.9375
1289.29301	18016.2375
1292.82151	18605.6375
1296.34761	19417.7375
1299.87133	20486.2375
1303.39266	21778.0375
1306.9116	23102.9375
1310.42815	24042.6375
1313.94233	24413.0375
1317.45412	24045.4375
1320.96354	23344.0375
1324.47058	22576.8375
1327.97525	21867.9375
1331.47754	21330.1375
1334.97747	21040.6375
1338.47502	20808.6375
1341.97022	20533.4375
1345.46305	20237.9375
1348.95352	20113.0375
1352.44163	20319.7375
1355.92738	20975.6375
1359.41078	22074.8375
1362.89183	22972.8375
1366.37053	22712.8375
1369.84688	21062.1375
1373.32088	19057.6375
1376.79254	17656.0375
1380.26186	17115.0375
1383.72883	17073.0375
1387.19347	17085.7375
1390.65578	16945.5375
1394.11575	16822.3375
1397.57339	17001.8375
1401.0287	17247.4375
1404.48168	17497.1375
1407.93234	17502.2375
1411.38068	17260.1375
1414.82669	16803.3375
1418.27039	16278.6375
1421.71177	15719.7375
1425.15083	15277.1375
1428.58758	15066.1375
1432.02203	15151.5375
1435.45416	15412.1375
1438.88399	15750.9375
1442.31151	16024.8375
1445.73673	16204.9375
1449.15965	16382.3375
1452.58027	16448.2375
1455.9986	16399.0375
1459.41463	16352.2375
1462.82837	16463.3375
1466.23982	16672.9375
1469.64898	16974.7375
1473.05586	17207.7375
1476.46045	17273.8375
1479.86276	17300.7375
1483.26279	17174.5375
1486.66054	17095.6375
1490.05602	17065.7375
1493.44922	17118.7375
1496.84016	17219.6375
1500.22882	17269.3375
1503.61521	17524.6375
1506.99934	17938.0375
1510.38121	18346.0375
1513.76081	18546.7375
1517.13816	18297.0375
1520.51324	17795.0375
1523.88607	17356.0375
1527.25665	17084.6375
1530.62498	17020.7375
1533.99105	17019.1375
1537.35488	16931.1375
1540.71647	16759.4375
1544.07581	16474.5375
1547.4329	16240.6375
1550.78776	15967.2375
1554.14038	15799.7375
1557.49077	15728.3375
1560.83892	15604.1375
1564.18484	15536.0375
1567.52853	15586.0375
1570.86999	15713.1375
1574.20922	15931.2375
1577.54624	16137.7375
1580.88103	16256.0375
1584.2136	16353.8375
1587.54395	16833.8375
1590.87208	17603.3375
1594.19801	18553.6375
1597.52172	19401.6375
1600.84321	19668.1375
1604.16251	18924.9375
1607.47959	17569.7375
1610.79447	16161.8375
1614.10715	14966.0375
1617.41763	14109.6375
1620.7259	13591.8375
1624.03199	13374.4375
1627.33587	13469.4375
1630.63757	13807.2375
1633.93707	14400.4375
1637.23439	15307.2375
1640.52951	16545.8375
1643.82246	18069.5375
1647.11321	19311.6375
1650.40179	19511.3375
1653.68819	18359.2375
1656.97241	16414.9375
1660.25446	14554.8375
1663.53433	13201.1375
1666.81203	12387.3375
1670.08756	11894.6375
1673.36092	11575.8375
1676.63211	11367.4375
1679.90115	11228.5375
1683.16801	11098.3375
1686.43272	10989.1375
1689.69527	10901.8375
1692.95567	10862.3375
1696.2139	10801.7375
1699.46999	10739.8375
1702.72392	10708.0375
1705.97571	10707.5375
1709.22535	10761.2375
1712.47284	10761.4375
1715.71819	10794.7375
1718.96139	10787.7375
1722.20246	10783.1375
1725.44139	10727.7375
1728.67818	10709.4375
1731.91284	10649.3375
1735.14537	10620.8375
1738.37576	10594.3375
1741.60403	10556.1375
1744.83017	10525.5375
1748.05418	10506.5375
1751.27607	10469.2375
1754.49584	10463.2375
1757.71349	10467.9375
1760.92903	10433.8375
1764.14244	10422.5375
1767.35375	10425.0375
1770.56294	10398.6375
1773.77002	10382.3375
1776.97499	10413.5375
1780.17785	10416.0375
1783.37861	10426.9375
1786.57727	10422.9375
1789.77382	10397.6375
1792.96828	10382.4375
1796.16064	10377.0375
1799.3509	10379.4375
1802.53907	10363.7375
1805.72514	10344.6375
1808.90913	10328.0375
1812.09102	10293.3375
1815.27083	10295.9375
1818.44856	10276.1375
1821.6242	10257.5375
1824.79776	10243.7375
1827.96924	10250.4375
1831.13864	10237.9375
1834.30597	10238.9375
1837.47122	10217.2375
1840.6344	10223.8375
1843.7955	10209.3375
1846.95454	10213.2375
1850.11151	10214.5375
1853.26642	10200.8375
1856.41926	10226.7375
1859.57004	10221.7375
1862.71876	10198.4375
1865.86542	10194.2375
1869.01003	10192.0375
1872.15258	10194.8375
1875.29308	10184.5375
1878.43152	10178.5375
1881.56792	10193.7375
1884.70227	10184.0375
1887.83457	10157.6375
1890.96482	10180.5375
1894.09304	10163.5375
1897.21921	10147.9375
1900.34335	10145.4375
1903.46544	10147.2375
1906.58551	10141.7375
1909.70353	10111.1375
1912.81953	10109.6375
1915.93349	10108.9375
1919.04543	10105.5375
1922.15534	10088.4375
1925.26322	10085.9375
1928.36908	10067.9375
1931.47292	10060.6375
1934.57473	10061.8375
1937.67453	10030.8375
1940.77232	10013.7375
1943.86808	9966.0375
1946.96184	9923.7375
1950.05358	9909.9375
1953.14331	9897.7375
1956.23103	9855.4375
1959.31675	9829.7375
1962.40046	9820.7375
1965.48217	9804.5375
1968.56188	9787.7375
1971.63959	9746.1375
1974.7153	9727.1375
1977.78901	9702.9375
1980.86073	9673.3375
1983.93046	9654.8375
1986.99819	9620.3375
1990.06394	9592.0375
1993.1277	9562.8375
1996.18947	9549.2375
1999.24925	9541.7375
2002.30706	9526.4375
2005.36288	9496.9375
2008.41672	9464.8375
2011.46859	9454.1375
2014.51848	9449.5375
2017.56639	9423.7375
2020.61233	9389.1375
2023.6563	9390.1375
2026.6983	9358.7375
2029.73833	9360.7375
2032.7764	9359.4375
2035.8125	9339.0375
2038.84664	9313.6375
2041.87881	9297.7375
2044.90903	9304.7375
2047.93729	9293.3375
2050.96359	9265.4375
2053.98794	9264.9375
2057.01034	9281.2375
2060.03078	9271.7375
2063.04927	9267.5375
2066.06582	9266.6375
2069.08042	9244.0375
2072.09307	9228.4375
2075.10378	9241.6375
2078.11255	9245.4375
2081.11938	9234.2375
2084.12426	9234.0375
2087.12722	9220.8375
2090.12824	9232.4375
2093.12732	9247.8375
2096.12447	9241.6375
2099.11969	9223.1375
2102.11299	9218.3375
2105.10435	9252.0375
2108.09379	9241.0375
2111.08131	9254.3375
2114.0669	9284.9375
2117.05057	9304.8375
2120.03233	9305.3375
2123.01216	9302.3375
2125.99008	9340.5375
2128.96609	9344.5375
2131.94018	9360.9375
2134.91236	9354.4375
2137.88263	9346.6375
2140.851	9368.1375
2143.81746	9394.8375
2146.78201	9410.2375
2149.74466	9410.9375
2152.7054	9387.2375
2155.66425	9409.7375
2158.6212	9383.8375
2161.57625	9368.7375
2164.52941	9420.2375
2167.48067	9405.1375
2170.43004	9394.6375
2173.37752	9392.1375
2176.32311	9425.7375
2179.26681	9413.1375
2182.20863	9400.7375
2185.14856	9437.9375
2188.08661	9431.2375
2191.02278	9447.7375
2193.95707	9445.5375
2196.88948	9444.1375
2199.82001	9432.2375
2202.74867	9446.7375
2205.67545	9429.8375
2208.60037	9433.9375
2211.52341	9414.4375
2214.44458	9410.2375
2217.36388	9413.5375
2220.28132	9427.5375
2223.1969	9418.4375
2226.11061	9392.7375
2229.02246	9356.8375
2231.93245	9359.7375
2234.84058	9336.9375
2237.74686	9329.3375
2240.65128	9340.5375
2243.55385	9329.4375
2246.45456	9296.9375
2249.35343	9293.1375
2252.25044	9244.8375
2255.14561	9265.7375
2258.03893	9257.7375
2260.93041	9243.7375
2263.82004	9229.0375
2266.70783	9218.5375
2269.59378	9202.7375
2272.4779	9170.1375
2275.36017	9152.8375
2278.24061	9178.4375
2281.11922	9178.5375
2283.996	9157.3375
2286.87094	9146.9375
2289.74405	9123.8375
2292.61534	9104.7375
2295.4848	9133.2375
2298.35243	9143.8375
2301.21824	9160.1375
2304.08223	9173.2375
2306.94439	9177.1375
2309.80474	9202.1375
2312.66327	9189.1375
2315.51999	9175.6375
2318.37489	9166.2375
2321.22797	9178.2375
2324.07925	9146.5375
2326.92871	9150.4375
2329.77637	9142.6375
2332.62222	9123.4375
2335.46626	9138.3375
2338.3085	9130.4375
2341.14893	9139.9375
2343.98756	9132.9375
2346.8244	9153.1375
2349.65943	9133.3375
2352.49267	9116.3375
2355.32411	9112.4375
2358.15376	9113.7375
2360.98161	9113.5375
2363.80768	9098.9375
2366.63195	9095.9375
2369.45444	9074.8375
2372.27514	9054.9375
2375.09405	9063.2375
2377.91118	9075.5375
2380.72652	9030.5375
2383.54009	9001.8375
2386.35187	9009.2375
2389.16188	8981.3375
2391.97011	9004.1375
2394.77657	8985.3375
2397.58125	8954.3375
2400.38416	8955.3375
2403.18529	8966.4375
2405.98466	8954.8375
2408.78226	8930.4375
2411.57809	8910.5375
2414.37216	8899.3375
2417.16446	8908.5375
2419.955	8890.1375
2422.74378	8882.1375
2425.5308	8878.9375
2428.31606	8881.4375
2431.09956	8901.6375
2433.88131	8867.6375
2436.6613	8886.8375
2439.43954	8892.8375
2442.21603	8866.6375
2444.99077	8884.8375
2447.76377	8864.2375
2450.53501	8881.7375
2453.30451	8906.8375
2456.07226	8852.2375
2458.83827	8866.6375
2461.60254	8870.0375
2464.36507	8879.7375
2467.12586	8874.5375
2469.88492	8849.2375
2472.64224	8883.6375
2475.39782	8887.0375
2478.15167	8878.6375
2480.90379	8873.8375
2483.65417	8895.3375
2486.40283	8899.6375
2489.14976	8912.9375
2491.89497	8904.1375
2494.63845	8917.0375
2497.3802	8897.7375
2500.12024	8917.6375
2502.85855	8904.7375
2505.59514	8909.4375
2508.33002	8899.0375
2511.06318	8886.3375
2513.79462	8901.4375
2516.52435	8879.5375
2519.25237	8878.0375
2521.97867	8873.9375
2524.70327	8872.9375
2527.42616	8876.6375
2530.14734	8857.1375
2532.86681	8865.6375
2535.58458	8849.7375
2538.30065	8840.8375
2541.01501	8856.2375
2543.72768	8835.5375
2546.43864	8832.3375
2549.14791	8831.8375
2551.85548	8824.1375
2554.56136	8806.0375
2557.26554	8793.1375
2559.96803	8812.0375
2562.66883	8808.9375
2565.36794	8818.4375
2568.06536	8803.5375
2570.7611	8816.3375
2573.45514	8790.7375
2576.14751	8780.8375
2578.83819	8801.8375
2581.52719	8794.4375
2584.21451	8794.6375
2586.90015	8778.0375
2589.58411	8768.7375
2592.2664	8776.7375
2594.94701	8761.1375
2597.62594	8747.5375
2600.30321	8738.9375
2602.9788	8757.9375
2605.65273	8772.3375
2608.32498	8776.6375
2610.99557	8736.5375
2613.66449	8748.6375
2616.33175	8731.3375
2618.99734	8736.7375
2621.66128	8735.8375
2624.32355	8741.5375
2626.98416	8759.4375
2629.64311	8744.1375
2632.30041	8734.6375
2634.95605	8717.6375
2637.61004	8709.9375
2640.26238	8721.0375
2642.91306	8715.6375
2645.56209	8691.6375
2648.20948	8689.5375
2650.85521	8678.5375
2653.4993	8684.8375
2656.14175	8697.4375
2658.78255	8710.2375
2661.42171	8700.6375
2664.05923	8722.9375
2666.6951	8733.7375
2669.32934	8737.3375
2671.96194	8719.1375
2674.59291	8719.2375
2677.22224	8725.0375
2679.84993	8725.4375
2682.476	8704.2375
2685.10043	8709.5375
2687.72324	8723.3375
2690.34441	8697.9375
2692.96396	8708.7375
2695.58188	8729.7375
2698.19818	8710.6375
2700.81285	8722.0375
2703.4259	8691.5375
2706.03733	8698.0375
2708.64714	8687.8375
2711.25533	8740.7375
2713.86191	8753.0375
2716.46687	8761.0375
2719.07021	8748.3375
2721.67194	8783.1375
2724.27206	8769.0375
2726.87057	8772.7375
2729.46747	8776.4375
2732.06276	8795.0375
2734.65644	8791.3375
2737.24852	8779.2375
2739.83899	8784.3375
2742.42786	8780.4375
2745.01513	8777.8375
2747.60079	8777.5375
2750.18486	8760.0375
2752.76733	8776.0375
2755.3482	8771.8375
2757.92747	8768.2375
2760.50515	8746.8375
2763.08123	8763.3375
2765.65573	8790.4375
2768.22863	8753.0375
2770.79994	8771.2375
2773.36967	8763.1375
2775.9378	8769.0375
2778.50435	8780.9375
2781.06932	8737.4375
2783.6327	8747.1375
2786.1945	8741.1375
2788.75471	8751.8375
2791.31335	8731.0375
2793.87041	8733.1375
2796.42589	8715.1375
2798.97979	8708.9375
2801.53212	8708.2375
2804.08288	8700.8375
2806.63206	8674.6375
2809.17967	8654.0375
2811.72571	8643.9375
2814.27018	8635.1375
2816.81308	8630.9375
2819.35442	8604.3375
2821.89419	8612.6375
2824.43239	8614.4375
2826.96904	8602.1375
2829.50412	8605.9375
2832.03763	8601.2375
2834.56959	8615.6375
2837.1	8601.4375
2839.62884	8626.8375
2842.15613	8625.3375
2844.68186	8645.0375
2847.20604	8659.7375
2849.72867	8665.4375
2852.24974	8673.6375
2854.76927	8656.9375
2857.28724	8647.2375
2859.80367	8640.9375
2862.31855	8622.8375
2864.83189	8633.8375
2867.34368	8594.0375
2869.85393	8634.4375
2872.36264	8598.4375
2874.8698	8606.1375
2877.37543	8611.5375
2879.87952	8617.4375
2882.38207	8602.6375
2884.88308	8593.5375
2887.38256	8625.6375
2889.88051	8619.3375
2892.37692	8629.1375
2894.8718	8650.3375
2897.36515	8669.9375
2899.85698	8661.9375
2902.34727	8672.8375
2904.83604	8703.8375
2907.32328	8708.2375
2909.809	8714.7375
2912.29319	8699.2375
2914.77587	8715.7375
2917.25702	8702.7375
2919.73665	8702.7375
2922.21476	8706.2375
2924.69136	8701.3375
2927.16644	8698.2375
2929.64	8696.0375
2932.11205	8698.2375
2934.58258	8668.6375
2937.05161	8680.5375
2939.51912	8683.6375
2941.98513	8672.8375
2944.44962	8676.2375
2946.91261	8626.6375
2949.37409	8652.8375
2951.83407	8641.3375
2954.29254	8645.7375
2956.74951	8636.0375
2959.20498	8660.8375
2961.65895	8626.8375
2964.11142	8644.0375
2966.56239	8608.4375
2969.01186	8607.6375
2971.45984	8610.7375
2973.90632	8583.8375
2976.35131	8576.7375
2978.7948	8594.0375
2981.23681	8566.0375
2983.67732	8561.9375
2986.11635	8539.9375
2988.55388	8530.4375
2990.98993	8544.7375
2993.4245	8513.6375
2995.85758	8507.1375
2998.28917	8491.9375
3000.71928	8501.7375
3003.14791	8466.5375
3005.57506	8468.5375
3008.00073	8433.3375
3010.42493	8415.9375
3012.84764	8438.7375
3015.26888	8440.6375
3017.68865	8413.6375
3020.10694	8410.8375
3022.52376	8403.2375
3024.9391	8412.0375
3027.35298	8398.8375
3029.76539	8410.6375
3032.17632	8393.9375
3034.5858	8397.0375
3036.9938	8394.7375
3039.40034	8397.2375
3041.80542	8393.6375
3044.20903	8354.1375
3046.61118	8372.3375
3049.01187	8368.7375
3051.4111	8362.7375
3053.80888	8363.0375
3056.20519	8372.3375
3058.60005	8320.6375
3060.99345	8316.7375
3063.3854	8310.0375
3065.7759	8282.1375
3068.16494	8289.6375
3070.55254	8258.7375
3072.93868	8255.9375
3075.32338	8247.3375
3077.70662	8242.8375
3080.08842	8211.1375
3082.46878	8218.4375
3084.84769	8223.0375
3087.22515	8235.1375
3089.60118	8229.8375
3091.97576	8211.6375
3094.3489	8246.2375
3096.72061	8236.5375
3099.09087	8247.5375
3101.4597	8247.9375
3103.82709	8253.3375
3106.19305	8242.3375
3108.55757	8242.8375
3110.92066	8236.1375
3113.28232	8289.9375
3115.64255	8279.6375
3118.00134	8204.3375
3120.35871	8207.6375
3122.71466	8184.2375
3125.06917	8182.6375
3127.42226	8158.3375
3129.77393	8174.5375
3132.12417	8146.1375
3134.47299	8170.1375
3136.82039	8165.8375
3139.16636	8188.0375
3141.51092	8191.0375
3143.85406	8206.0375
3146.19579	8220.7375
3148.53609	8209.4375
3150.87499	8219.6375
3153.21246	8243.3375
3155.54853	8252.7375
3157.88318	8241.9375
3160.21642	8260.9375
3162.54826	8294.0375
3164.87868	8247.6375
3167.2077	8262.2375
3169.5353	8274.9375
3171.86151	8267.7375
3174.18631	8263.8375
3176.5097	8280.1375
3178.83169	8258.8375
3181.15228	8289.4375
3183.47147	8259.1375
3185.78926	8261.6375
3188.10565	8233.7375
3190.42065	8241.4375
3192.73424	8244.7375
3195.04645	8246.7375
3197.35725	8260.4375
3199.66667	8237.5375
3201.97469	8268.0375
3204.28132	8261.4375
3206.58656	8292.6375
3208.8904	8264.4375
3211.19287	8289.8375
3213.49394	8295.7375
3215.79363	8303.5375
3218.09193	8309.8375
3220.38884	8308.6375
3222.68438	8301.9375
3224.97853	8316.2375
3227.2713	8302.3375
3229.56269	8307.7375
3231.8527	8311.3375
3234.14133	8303.2375
3236.42858	8285.0375
3238.71446	8285.7375
3240.99896	8256.4375
3243.28209	8264.2375
3245.56384	8263.5375
3247.84423	8268.4375
3250.12324	8221.3375
3252.40088	8250.9375
3254.67715	8250.5375
3256.95205	8251.9375
3259.22558	8258.1375
3261.49775	8230.7375
3263.76855	8240.2375
3266.03799	8216.4375
3268.30606	8210.3375
3270.57277	8204.8375
3272.83812	8200.6375
3275.10211	8174.1375
3277.36474	8172.8375
3279.62601	8185.8375
3281.88593	8155.0375
3284.14448	8181.7375
3286.40168	8189.2375
3288.65753	8185.9375
3290.91202	8201.7375
3293.16516	8140.4375
3295.41695	8137.0375
3297.66738	8111.6375
3299.91647	8060.3375
3302.16421	8051.2375
3304.4106	7991.7375
3306.65564	7972.7375
3308.89933	7925.1375
3311.14169	7874.7375
3313.38269	7817.3375
3315.62236	7786.6375
3317.86068	7705.3375
3320.09766	7656.8375
3322.3333	7617.9375
3324.5676	7608.4375
3326.80056	7480.0375
3329.03219	7442.2375
3331.26248	2.5375
3333.49143	-0.1625
3335.71905	-1.1625
