Data from AgNPs_FTO_APTES_UA_1uM_CRN_5uM_R6G_10uM_NaF_0.1M_Addition_RamanShift__30__14-11-09-614.txt Node

Date: Thu Jan 27 14:11:09 GMT 2022
User: TCL
Spectrometer: QEP01345
Trigger mode: 4
Integration Time (sec): 7.000000E0
Scans to average: 10
Electric dark correction enabled: true
Nonlinearity correction enabled: false
Boxcar width: 0
XAxis mode: Raman Shifts
Number of Pixels in Spectrum: 1044
>>>>>Begin Spectral Data<<<<<
46.04893	1.625
50.45542	0.925
54.85868	-1.175
59.25871	-1.775
63.6555	32.725
68.04907	35.025
72.43941	36.025
76.82654	37.425
81.21044	43.225
85.59113	41.225
89.96862	46.525
94.34289	46.125
98.71396	49.025
103.08183	48.025
107.4465	51.925
111.80798	52.625
116.16626	50.625
120.52136	56.025
124.87327	54.625
129.222	53.225
133.56755	56.025
137.90993	50.825
142.24913	56.925
146.58517	63.225
150.91804	71.025
155.24774	76.625
159.57429	86.725
163.89768	107.525
168.21792	134.125
172.53501	179.225
176.84895	237.425
181.15975	320.825
185.46741	441.225
189.77193	599.725
194.07331	803.425
198.37157	1033.425
202.6667	1275.725
206.9587	1512.325
211.24758	1754.025
215.53334	2017.125
219.81599	2304.425
224.09553	2628.425
228.37195	2976.425
232.64527	3366.625
236.91549	3757.425
241.18261	4096.225
245.44663	4343.725
249.70755	4552.725
253.96539	4722.525
258.22014	4890.525
262.4718	5043.825
266.72039	5167.225
270.96589	5247.825
275.20832	5292.825
279.44768	5231.925
283.68397	5166.325
287.91719	5128.425
292.14735	5164.425
296.37445	5270.625
300.59849	5530.425
304.81948	5791.825
309.03742	6028.225
313.25231	6017.825
317.46415	5696.125
321.67296	5183.225
325.87872	4761.925
330.08145	4553.425
334.28114	4531.725
338.47781	4612.025
342.67145	4774.025
346.86207	5002.425
351.04966	5380.425
355.23424	5744.125
359.4158	6080.725
363.59435	6226.025
367.76989	6263.725
371.94243	6243.425
376.11196	6159.325
380.27849	6107.925
384.44203	6008.325
388.60257	5892.725
392.76012	5839.725
396.91468	5866.325
401.06626	6061.625
405.21485	6212.325
409.36047	6098.325
413.50311	5714.525
417.64277	5375.325
421.77947	5144.525
425.9132	5059.125
430.04396	5026.825
434.17176	5053.425
438.2966	5117.725
442.41849	5240.925
446.53742	5397.325
450.6534	5567.625
454.76644	5677.825
458.87653	5671.625
462.98368	5618.425
467.08789	5532.325
471.18916	5387.025
475.2875	5235.425
479.38291	5135.825
483.4754	5042.625
487.56496	4984.625
491.6516	4937.325
495.73531	4920.525
499.81612	4956.425
503.89401	5017.525
507.96899	5101.125
512.04106	5188.925
516.11023	5302.625
520.1765	5373.025
524.23987	5333.325
528.30034	5221.625
532.35792	5065.325
536.41261	4945.825
540.46441	4804.525
544.51333	4750.625
548.55936	4785.825
552.60252	4885.525
556.64279	5032.925
560.6802	5107.225
564.71473	5197.325
568.7464	5460.725
572.7752	5618.225
576.80114	5460.425
580.82422	5228.725
584.84444	5157.625
588.86181	5088.925
592.87633	5073.725
596.888	5133.925
600.89682	5347.925
604.9028	6059.325
608.90594	7935.725
612.90624	10582.325
616.90371	10375.725
620.89834	7016.725
624.89015	5331.925
628.87913	4997.425
632.86528	5019.725
636.84862	5116.225
640.82913	5062.225
644.80683	4837.225
648.78172	4672.225
652.75379	4699.625
656.72306	4930.725
660.68952	5253.725
664.65319	5210.225
668.61405	4902.825
672.57211	4718.025
676.52738	4707.125
680.47986	4703.725
684.42955	4660.325
688.37646	4640.125
692.32058	4643.725
696.26192	4682.425
700.20048	4756.925
704.13626	4820.925
708.06928	4806.325
711.99952	4765.325
715.927	4741.425
719.85171	4752.025
723.77365	4762.425
727.69284	4703.525
731.60928	4655.025
735.52295	4648.425
739.43388	4670.725
743.34206	4687.225
747.24749	4723.925
751.15017	4769.325
755.05012	4860.925
758.94733	5116.025
762.8418	5732.625
766.73354	6808.325
770.62254	7964.925
774.50882	8593.425
778.39237	8229.225
782.27321	7076.625
786.15132	5907.725
790.02671	5215.425
793.89938	4905.325
797.76935	4774.325
801.6366	4708.325
805.50115	4670.425
809.36299	4635.225
813.22213	4610.925
817.07857	4615.825
820.93231	4615.425
824.78336	4623.525
828.63172	4649.325
832.47738	4677.625
836.32036	4660.925
840.16066	4627.725
843.99827	4580.825
847.8332	4574.925
851.66546	4561.025
855.49504	4574.225
859.32195	4548.125
863.1462	4542.325
866.96777	4517.825
870.78668	4510.025
874.60293	4527.725
878.41652	4533.625
882.22745	4566.225
886.03573	4608.325
889.84136	4588.025
893.64433	4540.625
897.44466	4531.925
901.24235	4554.625
905.0374	4539.625
908.8298	4496.325
912.61957	4499.125
916.40671	4541.425
920.19121	4566.425
923.97308	4621.725
927.75233	4666.225
931.52895	4725.325
935.30295	4678.525
939.07433	4538.225
942.84309	4402.925
946.60924	4318.325
950.37278	4282.325
954.13371	4256.625
957.89203	4223.425
961.64774	4222.925
965.40086	4222.725
969.15137	4200.625
972.89929	4173.525
976.64461	4176.225
980.38733	4174.925
984.12747	4172.225
987.86502	4200.625
991.59999	4216.225
995.33237	4271.525
999.06217	4333.625
1002.78939	4445.525
1006.51404	4564.325
1010.23611	4685.725
1013.95561	4760.025
1017.67255	4747.425
1021.38692	4685.725
1025.09872	4582.125
1028.80796	4530.725
1032.51465	4533.425
1036.21877	4584.625
1039.92035	4636.125
1043.61937	4674.625
1047.31584	4637.725
1051.00976	4635.125
1054.70114	4623.025
1058.38998	4613.425
1062.07627	4628.025
1065.76003	4662.025
1069.44126	4703.225
1073.11995	4740.125
1076.79611	4827.825
1080.46974	4893.725
1084.14085	5043.825
1087.80943	5175.125
1091.47549	5248.625
1095.13903	5175.925
1098.80005	4965.425
1102.45857	4778.325
1106.11456	4691.525
1109.76805	4705.225
1113.41903	4819.525
1117.06751	4980.125
1120.71348	5216.225
1124.35696	5454.625
1127.99793	5722.525
1131.63641	5716.025
1135.2724	5418.825
1138.90589	5107.525
1142.5369	4952.525
1146.16542	4817.025
1149.79145	4756.625
1153.415	4748.225
1157.03607	4796.625
1160.65467	4917.425
1164.27079	5094.425
1167.88443	5341.925
1171.49561	5826.725
1175.10432	6612.925
1178.71056	7695.525
1182.31434	8447.325
1185.91565	8573.825
1189.51451	8332.225
1193.11091	7734.225
1196.70485	7021.725
1200.29634	6525.025
1203.88538	6182.225
1207.47197	5779.125
1211.05612	5428.825
1214.63782	5218.825
1218.21708	5151.125
1221.79391	5161.125
1225.36829	5212.325
1228.94024	5277.125
1232.50976	5333.225
1236.07685	5375.325
1239.6415	5392.825
1243.20374	5378.925
1246.76355	5387.625
1250.32093	5448.225
1253.8759	5544.725
1257.42845	5712.625
1260.97859	5890.625
1264.52631	6096.025
1268.07163	6287.225
1271.61453	6468.325
1275.15503	6576.125
1278.69312	6655.725
1282.22882	6671.425
1285.76211	6815.425
1289.29301	7011.725
1292.82151	7256.225
1296.34761	7474.625
1299.87133	7794.025
1303.39266	8379.225
1306.9116	9384.325
1310.42815	10615.925
1313.94233	11485.925
1317.45412	11341.825
1320.96354	10574.925
1324.47058	9621.525
1327.97525	8821.325
1331.47754	8344.925
1334.97747	8129.225
1338.47502	8125.825
1341.97022	8253.825
1345.46305	8529.425
1348.95352	9038.625
1352.44163	9779.225
1355.92738	10797.125
1359.41078	12462.925
1362.89183	14264.725
1366.37053	14133.625
1369.84688	11905.325
1373.32088	9572.425
1376.79254	8095.525
1380.26186	7404.825
1383.72883	7067.325
1387.19347	6786.425
1390.65578	6473.825
1394.11575	6221.025
1397.57339	6070.025
1401.0287	6082.525
1404.48168	6147.925
1407.93234	6283.525
1411.38068	6356.925
1414.82669	6371.625
1418.27039	6312.025
1421.71177	6167.125
1425.15083	6078.625
1428.58758	5994.925
1432.02203	5971.525
1435.45416	6008.425
1438.88399	6038.025
1442.31151	6013.125
1445.73673	6032.525
1449.15965	6075.025
1452.58027	6061.825
1455.9986	6018.025
1459.41463	5970.825
1462.82837	6006.125
1466.23982	6110.925
1469.64898	6259.925
1473.05586	6357.625
1476.46045	6445.725
1479.86276	6567.825
1483.26279	6730.225
1486.66054	6926.725
1490.05602	7155.225
1493.44922	7546.025
1496.84016	8097.725
1500.22882	8963.925
1503.61521	10127.025
1506.99934	11437.425
1510.38121	12786.325
1513.76081	13614.625
1517.13816	13157.925
1520.51324	11526.725
1523.88607	9754.525
1527.25665	8456.725
1530.62498	7723.325
1533.99105	7253.425
1537.35488	6980.525
1540.71647	6780.725
1544.07581	6687.525
1547.4329	6648.425
1550.78776	6619.225
1554.14038	6624.125
1557.49077	6714.725
1560.83892	6874.725
1564.18484	7098.425
1567.52853	7339.425
1570.86999	7543.225
1574.20922	7678.625
1577.54624	7650.525
1580.88103	7261.325
1584.2136	6727.125
1587.54395	6417.625
1590.87208	6461.425
1594.19801	6783.325
1597.52172	7255.825
1600.84321	7486.325
1604.16251	7232.425
1607.47959	6765.425
1610.79447	6277.025
1614.10715	5805.425
1617.41763	5403.325
1620.7259	5156.125
1624.03199	5056.425
1627.33587	5047.025
1630.63757	5173.825
1633.93707	5429.625
1637.23439	5812.225
1640.52951	6350.625
1643.82246	7112.525
1647.11321	8053.925
1650.40179	8870.425
1653.68819	8800.925
1656.97241	7713.525
1660.25446	6366.625
1663.53433	5362.225
1666.81203	4795.825
1670.08756	4462.025
1673.36092	4279.625
1676.63211	4142.425
1679.90115	4073.925
1683.16801	4017.625
1686.43272	3957.225
1689.69527	3931.225
1692.95567	3890.125
1696.2139	3853.725
1699.46999	3803.925
1702.72392	3796.625
1705.97571	3806.625
1709.22535	3804.825
1712.47284	3852.125
1715.71819	3870.425
1718.96139	3871.325
1722.20246	3867.525
1725.44139	3865.525
1728.67818	3830.225
1731.91284	3788.925
1735.14537	3764.625
1738.37576	3726.625
1741.60403	3717.025
1744.83017	3699.725
1748.05418	3667.225
1751.27607	3650.225
1754.49584	3644.825
1757.71349	3609.525
1760.92903	3607.525
1764.14244	3601.225
1767.35375	3609.825
1770.56294	3563.125
1773.77002	3590.225
1776.97499	3574.325
1780.17785	3586.125
1783.37861	3588.525
1786.57727	3580.125
1789.77382	3581.525
1792.96828	3578.125
1796.16064	3556.325
1799.3509	3563.325
1802.53907	3562.625
1805.72514	3554.725
1808.90913	3529.225
1812.09102	3526.325
1815.27083	3518.525
1818.44856	3508.025
1821.6242	3488.225
1824.79776	3496.125
1827.96924	3497.125
1831.13864	3493.325
1834.30597	3491.325
1837.47122	3479.525
1840.6344	3470.325
1843.7955	3461.025
1846.95454	3467.425
1850.11151	3468.325
1853.26642	3466.525
1856.41926	3467.525
1859.57004	3488.925
1862.71876	3489.125
1865.86542	3471.525
1869.01003	3478.625
1872.15258	3482.525
1875.29308	3480.025
1878.43152	3485.025
1881.56792	3503.325
1884.70227	3484.125
1887.83457	3494.425
1890.96482	3486.625
1894.09304	3501.125
1897.21921	3492.625
1900.34335	3489.725
1903.46544	3485.825
1906.58551	3480.225
1909.70353	3486.625
1912.81953	3487.925
1915.93349	3467.425
1919.04543	3480.525
1922.15534	3453.325
1925.26322	3464.425
1928.36908	3441.825
1931.47292	3430.725
1934.57473	3417.425
1937.67453	3398.925
1940.77232	3384.825
1943.86808	3369.625
1946.96184	3324.625
1950.05358	3316.925
1953.14331	3312.625
1956.23103	3295.525
1959.31675	3280.925
1962.40046	3270.325
1965.48217	3256.725
1968.56188	3254.625
1971.63959	3249.925
1974.7153	3230.725
1977.78901	3218.025
1980.86073	3212.225
1983.93046	3197.225
1986.99819	3177.625
1990.06394	3179.425
1993.1277	3162.425
1996.18947	3158.225
1999.24925	3142.625
2002.30706	3124.525
2005.36288	3120.925
2008.41672	3124.825
2011.46859	3106.125
2014.51848	3096.425
2017.56639	3088.525
2020.61233	3079.525
2023.6563	3068.625
2026.6983	3063.925
2029.73833	3050.725
2032.7764	3044.725
2035.8125	3045.525
2038.84664	3022.025
2041.87881	3022.025
2044.90903	3017.725
2047.93729	3004.025
2050.96359	3005.325
2053.98794	3003.325
2057.01034	2977.925
2060.03078	2987.325
2063.04927	2983.525
2066.06582	2986.625
2069.08042	2977.625
2072.09307	2968.325
2075.10378	2966.725
2078.11255	2964.425
2081.11938	2966.025
2084.12426	2964.325
2087.12722	2972.425
2090.12824	2975.625
2093.12732	2964.425
2096.12447	2958.525
2099.11969	2958.325
2102.11299	2957.225
2105.10435	2961.325
2108.09379	2959.525
2111.08131	2960.925
2114.0669	2959.225
2117.05057	2957.925
2120.03233	2948.625
2123.01216	2958.725
2125.99008	2969.025
2128.96609	2963.825
2131.94018	2964.625
2134.91236	2966.725
2137.88263	2961.725
2140.851	2960.025
2143.81746	2966.325
2146.78201	2965.925
2149.74466	2967.425
2152.7054	2974.025
2155.66425	2953.725
2158.6212	2954.025
2161.57625	2947.025
2164.52941	2957.625
2167.48067	2949.725
2170.43004	2946.525
2173.37752	2951.325
2176.32311	2942.225
2179.26681	2935.525
2182.20863	2937.225
2185.14856	2938.625
2188.08661	2932.825
2191.02278	2943.125
2193.95707	2938.925
2196.88948	2925.925
2199.82001	2921.025
2202.74867	2923.625
2205.67545	2923.725
2208.60037	2923.425
2211.52341	2901.325
2214.44458	2912.825
2217.36388	2897.325
2220.28132	2885.325
2223.1969	2885.925
2226.11061	2878.925
2229.02246	2860.225
2231.93245	2863.625
2234.84058	2852.225
2237.74686	2847.225
2240.65128	2853.525
2243.55385	2853.525
2246.45456	2845.325
2249.35343	2842.125
2252.25044	2831.425
2255.14561	2841.125
2258.03893	2829.925
2260.93041	2822.825
2263.82004	2820.425
2266.70783	2819.325
2269.59378	2807.325
2272.4779	2795.425
2275.36017	2802.925
2278.24061	2791.625
2281.11922	2786.725
2283.996	2773.325
2286.87094	2788.025
2289.74405	2764.025
2292.61534	2742.525
2295.4848	2747.625
2298.35243	2751.225
2301.21824	2753.325
2304.08223	2742.525
2306.94439	2736.625
2309.80474	2735.725
2312.66327	2739.625
2315.51999	2733.825
2318.37489	2724.425
2321.22797	2737.325
2324.07925	2733.325
2326.92871	2714.525
2329.77637	2705.825
2332.62222	2714.825
2335.46626	2712.825
2338.3085	2698.925
2341.14893	2697.825
2343.98756	2701.525
2346.8244	2708.525
2349.65943	2706.925
2352.49267	2703.325
2355.32411	2710.725
2358.15376	2704.125
2360.98161	2713.525
2363.80768	2724.125
2366.63195	2713.025
2369.45444	2724.025
2372.27514	2719.425
2375.09405	2715.425
2377.91118	2713.925
2380.72652	2702.125
2383.54009	2675.325
2386.35187	2670.725
2389.16188	2656.425
2391.97011	2630.925
2394.77657	2652.725
2397.58125	2621.825
2400.38416	2622.225
2403.18529	2622.625
2405.98466	2607.425
2408.78226	2607.625
2411.57809	2594.025
2414.37216	2594.225
2417.16446	2598.025
2419.955	2589.625
2422.74378	2586.225
2425.5308	2588.425
2428.31606	2583.925
2431.09956	2583.625
2433.88131	2579.125
2436.6613	2584.525
2439.43954	2570.825
2442.21603	2589.025
2444.99077	2580.925
2447.76377	2578.225
2450.53501	2579.725
2453.30451	2581.025
2456.07226	2578.225
2458.83827	2572.425
2461.60254	2562.625
2464.36507	2578.425
2467.12586	2564.825
2469.88492	2569.925
2472.64224	2570.325
2475.39782	2573.525
2478.15167	2562.625
2480.90379	2571.625
2483.65417	2585.725
2486.40283	2584.725
2489.14976	2593.325
2491.89497	2597.725
2494.63845	2612.625
2497.3802	2589.725
2500.12024	2575.925
2502.85855	2570.625
2505.59514	2583.025
2508.33002	2563.925
2511.06318	2553.525
2513.79462	2539.625
2516.52435	2540.125
2519.25237	2525.725
2521.97867	2511.125
2524.70327	2510.925
2527.42616	2505.125
2530.14734	2497.325
2532.86681	2487.425
2535.58458	2494.225
2538.30065	2490.825
2541.01501	2500.225
2543.72768	2481.925
2546.43864	2485.325
2549.14791	2481.425
2551.85548	2481.925
2554.56136	2474.525
2557.26554	2483.525
2559.96803	2472.925
2562.66883	2477.025
2565.36794	2473.525
2568.06536	2456.825
2570.7611	2471.825
2573.45514	2453.325
2576.14751	2444.725
2578.83819	2433.925
2581.52719	2439.325
2584.21451	2437.625
2586.90015	2432.225
2589.58411	2431.925
2592.2664	2431.525
2594.94701	2425.925
2597.62594	2422.725
2600.30321	2417.425
2602.9788	2418.525
2605.65273	2415.425
2608.32498	2401.325
2610.99557	2411.325
2613.66449	2411.025
2616.33175	2409.225
2618.99734	2413.625
2621.66128	2421.825
2624.32355	2406.425
2626.98416	2401.325
2629.64311	2402.525
2632.30041	2382.225
2634.95605	2383.925
2637.61004	2381.525
2640.26238	2370.825
2642.91306	2382.725
2645.56209	2368.025
2648.20948	2372.525
2650.85521	2371.025
2653.4993	2364.925
2656.14175	2363.425
2658.78255	2366.625
2661.42171	2378.725
2664.05923	2368.525
2666.6951	2383.825
2669.32934	2383.025
2671.96194	2379.725
2674.59291	2393.525
2677.22224	2383.225
2679.84993	2379.725
2682.476	2378.425
2685.10043	2390.825
2687.72324	2365.725
2690.34441	2377.325
2692.96396	2380.225
2695.58188	2373.325
2698.19818	2371.025
2700.81285	2385.425
2703.4259	2375.925
2706.03733	2377.825
2708.64714	2356.425
2711.25533	2375.825
2713.86191	2365.425
2716.46687	2386.825
2719.07021	2380.625
2721.67194	2385.325
2724.27206	2393.025
2726.87057	2377.425
2729.46747	2398.625
2732.06276	2392.625
2734.65644	2386.425
2737.24852	2371.225
2739.83899	2378.725
2742.42786	2374.425
2745.01513	2358.225
2747.60079	2364.625
2750.18486	2354.725
2752.76733	2351.825
2755.3482	2338.825
2757.92747	2350.125
2760.50515	2340.425
2763.08123	2338.325
2765.65573	2347.125
2768.22863	2335.925
2770.79994	2335.425
2773.36967	2337.825
2775.9378	2324.025
2778.50435	2338.925
2781.06932	2335.025
2783.6327	2329.125
2786.1945	2318.725
2788.75471	2319.625
2791.31335	2325.025
2793.87041	2311.025
2796.42589	2311.425
2798.97979	2311.725
2801.53212	2302.725
2804.08288	2300.825
2806.63206	2305.825
2809.17967	2310.225
2811.72571	2304.025
2814.27018	2303.225
2816.81308	2303.025
2819.35442	2317.525
2821.89419	2317.225
2824.43239	2319.325
2826.96904	2316.125
2829.50412	2320.225
2832.03763	2317.925
2834.56959	2326.825
2837.1	2335.225
2839.62884	2332.725
2842.15613	2355.225
2844.68186	2377.025
2847.20604	2403.225
2849.72867	2426.425
2852.24974	2439.625
2854.76927	2444.325
2857.28724	2425.425
2859.80367	2425.625
2862.31855	2404.325
2864.83189	2405.625
2867.34368	2406.925
2869.85393	2397.125
2872.36264	2384.025
2874.8698	2403.625
2877.37543	2394.225
2879.87952	2395.325
2882.38207	2392.525
2884.88308	2381.625
2887.38256	2379.325
2889.88051	2368.125
2892.37692	2378.125
2894.8718	2377.325
2897.36515	2378.225
2899.85698	2382.025
2902.34727	2380.025
2904.83604	2391.225
2907.32328	2389.325
2909.809	2382.425
2912.29319	2378.725
2914.77587	2396.725
2917.25702	2370.825
2919.73665	2379.225
2922.21476	2384.225
2924.69136	2374.025
2927.16644	2376.025
2929.64	2373.825
2932.11205	2375.625
2934.58258	2360.125
2937.05161	2350.825
2939.51912	2349.125
2941.98513	2328.725
2944.44962	2303.125
2946.91261	2278.725
2949.37409	2291.025
2951.83407	2279.425
2954.29254	2255.825
2956.74951	2261.425
2959.20498	2251.425
2961.65895	2254.125
2964.11142	2251.125
2966.56239	2230.725
2969.01186	2222.525
2971.45984	2233.025
2973.90632	2210.125
2976.35131	2205.825
2978.7948	2212.225
2981.23681	2200.225
2983.67732	2192.025
2986.11635	2187.525
2988.55388	2181.025
2990.98993	2170.525
2993.4245	2173.125
2995.85758	2162.025
2998.28917	2171.625
3000.71928	2145.425
3003.14791	2153.425
3005.57506	2146.525
3008.00073	2141.625
3010.42493	2143.625
3012.84764	2143.725
3015.26888	2135.725
3017.68865	2127.025
3020.10694	2135.025
3022.52376	2119.325
3024.9391	2129.125
3027.35298	2122.725
3029.76539	2127.125
3032.17632	2127.025
3034.5858	2123.225
3036.9938	2119.225
3039.40034	2120.625
3041.80542	2122.325
3044.20903	2119.625
3046.61118	2111.425
3049.01187	2106.525
3051.4111	2109.225
3053.80888	2105.625
3056.20519	2104.725
3058.60005	2099.125
3060.99345	2088.225
3063.3854	2093.625
3065.7759	2089.125
3068.16494	2083.625
3070.55254	2079.425
3072.93868	2075.925
3075.32338	2073.425
3077.70662	2070.425
3080.08842	2065.525
3082.46878	2070.125
3084.84769	2059.125
3087.22515	2059.525
3089.60118	2062.625
3091.97576	2059.825
3094.3489	2058.925
3096.72061	2065.025
3099.09087	2065.225
3101.4597	2064.525
3103.82709	2061.825
3106.19305	2066.925
3108.55757	2064.725
3110.92066	2063.625
3113.28232	2061.725
3115.64255	2055.225
3118.00134	2052.625
3120.35871	2060.625
3122.71466	2055.825
3125.06917	2050.125
3127.42226	2050.825
3129.77393	2069.725
3132.12417	2057.425
3134.47299	2066.125
3136.82039	2064.825
3139.16636	2067.425
3141.51092	2084.325
3143.85406	2086.425
3146.19579	2088.425
3148.53609	2082.225
3150.87499	2096.025
3153.21246	2098.925
3155.54853	2104.925
3157.88318	2115.125
3160.21642	2118.125
3162.54826	2122.125
3164.87868	2112.525
3167.2077	2122.825
3169.5353	2123.625
3171.86151	2110.025
3174.18631	2124.125
3176.5097	2131.325
3178.83169	2136.525
3181.15228	2136.225
3183.47147	2136.725
3185.78926	2138.125
3188.10565	2133.125
3190.42065	2146.025
3192.73424	2145.425
3195.04645	2139.625
3197.35725	2144.525
3199.66667	2141.125
3201.97469	2154.525
3204.28132	2167.325
3206.58656	2174.025
3208.8904	2168.925
3211.19287	2172.525
3213.49394	2179.325
3215.79363	2179.825
3218.09193	2189.125
3220.38884	2183.925
3222.68438	2192.725
3224.97853	2177.125
3227.2713	2181.025
3229.56269	2170.025
3231.8527	2179.825
3234.14133	2177.025
3236.42858	2178.825
3238.71446	2186.925
3240.99896	2179.325
3243.28209	2170.925
3245.56384	2174.525
3247.84423	2176.225
3250.12324	2165.325
3252.40088	2169.225
3254.67715	2160.925
3256.95205	2172.425
3259.22558	2165.925
3261.49775	2155.425
3263.76855	2160.025
3266.03799	2158.225
3268.30606	2154.625
3270.57277	2151.525
3272.83812	2145.825
3275.10211	2157.225
3277.36474	2141.825
3279.62601	2141.825
3281.88593	2132.625
3284.14448	2129.325
3286.40168	2144.625
3288.65753	2138.925
3290.91202	2134.925
3293.16516	2121.225
3295.41695	2127.725
3297.66738	2114.125
3299.91647	2101.825
3302.16421	2089.225
3304.4106	2088.825
3306.65564	2076.025
3308.89933	2065.525
3311.14169	2049.025
3313.38269	2025.225
3315.62236	2015.325
3317.86068	2000.125
3320.09766	1988.225
3322.3333	1969.025
3324.5676	1953.325
3326.80056	1926.425
3329.03219	1915.225
3331.26248	1.725
3333.49143	0.225
3335.71905	-1.375
