Data from AgNPs_FTO_APTES_UA_1uM_CRN_1000uM_R6G_10uM_NaF_0.1M_Addition_RamanShift__6__18-40-39-922.txt Node

Date: Thu Jan 27 18:40:39 GMT 2022
User: TCL
Spectrometer: QEP01345
Trigger mode: 4
Integration Time (sec): 7.000000E0
Scans to average: 10
Electric dark correction enabled: true
Nonlinearity correction enabled: false
Boxcar width: 0
XAxis mode: Raman Shifts
Number of Pixels in Spectrum: 1044
>>>>>Begin Spectral Data<<<<<
46.04893	2.1
50.45542	0.4
54.85868	-0.3
59.25871	-1.9
63.6555	43.8
68.04907	46.8
72.43941	48.7
76.82654	53.1
81.21044	55.3
85.59113	50.7
89.96862	59.3
94.34289	59
98.71396	62.9
103.08183	63.7
107.4465	67.3
111.80798	69.3
116.16626	67.4
120.52136	72.6
124.87327	73.9
129.222	73.8
133.56755	76.5
137.90993	82.6
142.24913	87.5
146.58517	98
150.91804	115
155.24774	128.5
159.57429	159.7
163.89768	197.4
168.21792	261.9
172.53501	347.9
176.84895	485.5
181.15975	680.2
185.46741	953.4
189.77193	1311.1
194.07331	1760.4
198.37157	2279.3
202.6667	2824.7
206.9587	3382.5
211.24758	3906.7
215.53334	4443
219.81599	5015.4
224.09553	5618.5
228.37195	6276.3
232.64527	7008.5
236.91549	7775
241.18261	8556.4
245.44663	9256.4
249.70755	9973.4
253.96539	10538.3
258.22014	10997.6
262.4718	11376.1
266.72039	11654.5
270.96589	11750.4
275.20832	11732.3
279.44768	11627.4
283.68397	11433.7
287.91719	11279.7
292.14735	11165.3
296.37445	11082.7
300.59849	11086.3
304.81948	11141.8
309.03742	11124
313.25231	11042.3
317.46415	10904.6
321.67296	10681.4
325.87872	10485
330.08145	10397.2
334.28114	10381.3
338.47781	10476.7
342.67145	10580.3
346.86207	10753.1
351.04966	10939.4
355.23424	11127.8
359.4158	11310.6
363.59435	11428.4
367.76989	11530.9
371.94243	11587.2
376.11196	11651.8
380.27849	11704.8
384.44203	11763.6
388.60257	11843.5
392.76012	11907.4
396.91468	12019.3
401.06626	12197.6
405.21485	12318.1
409.36047	12280.6
413.50311	12128
417.64277	12003.9
421.77947	12000.2
425.9132	12041.4
430.04396	12068
434.17176	12147.2
438.2966	12182.8
442.41849	12297.4
446.53742	12466.2
450.6534	12723.7
454.76644	12861.3
458.87653	12874.3
462.98368	12810
467.08789	12676.5
471.18916	12555.2
475.2875	12420.9
479.38291	12284.3
483.4754	12226.7
487.56496	12103.4
491.6516	12031.2
495.73531	11985.7
499.81612	11992.1
503.89401	12056.6
507.96899	12153
512.04106	12170.4
516.11023	12141.7
520.1765	12129.8
524.23987	12067.4
528.30034	11990.6
532.35792	11906.9
536.41261	11787
540.46441	11686.2
544.51333	11620.4
548.55936	11704.2
552.60252	11841.2
556.64279	12052.7
560.6802	12189.5
564.71473	12236.3
568.7464	12294.7
572.7752	12481.5
576.80114	12657.6
580.82422	12931.3
584.84444	13313.1
588.86181	13857.7
592.87633	14340.5
596.888	14294.7
600.89682	13792.3
604.9028	13600.5
608.90594	14316.7
612.90624	15398.6
616.90371	14930.8
620.89834	12960.9
624.89015	11950.4
628.87913	11792.8
632.86528	11851.4
636.84862	11948.5
640.82913	11881.9
644.80683	11726.4
648.78172	11631.3
652.75379	11630.1
656.72306	11678.5
660.68952	11815.7
664.65319	11780.8
668.61405	11638.3
672.57211	11630.4
676.52738	11737.2
680.47986	11858.3
684.42955	11799.1
688.37646	11705.5
692.32058	11618.3
696.26192	11650.3
700.20048	11710.7
704.13626	11750.5
708.06928	11745.3
711.99952	11751.1
715.927	11720.2
719.85171	11717.4
723.77365	11705
727.69284	11635.3
731.60928	11571.3
735.52295	11528.8
739.43388	11527.2
743.34206	11560.6
747.24749	11600
751.15017	11652.2
755.05012	11743.8
758.94733	11962.6
762.8418	12323.1
766.73354	13004.2
770.62254	13772.7
774.50882	14125.3
778.39237	13815.6
782.27321	13000.2
786.15132	12271.7
790.02671	11744.3
793.89938	11543.2
797.76935	11467.1
801.6366	11418.9
805.50115	11399.6
809.36299	11313.6
813.22213	11263.5
817.07857	11226.3
820.93231	11191.9
824.78336	11159.4
828.63172	11115.8
832.47738	11152.5
836.32036	11132.2
840.16066	11109.5
843.99827	11113.9
847.8332	11107.4
851.66546	11093.7
855.49504	11116.4
859.32195	11088.8
863.1462	11086.4
866.96777	11104.1
870.78668	11090.7
874.60293	11124.2
878.41652	11097
882.22745	11109.9
886.03573	11172.5
889.84136	11178
893.64433	11155.1
897.44466	11128.5
901.24235	11083.7
905.0374	11012.2
908.8298	10977.2
912.61957	10985.2
916.40671	10998.3
920.19121	11113.8
923.97308	11176.5
927.75233	11199.7
931.52895	11163
935.30295	11073.3
939.07433	10944.8
942.84309	10820.5
946.60924	10691.4
950.37278	10667.6
954.13371	10635.7
957.89203	10599
961.64774	10600.4
965.40086	10566.9
969.15137	10516.2
972.89929	10494.6
976.64461	10458.2
980.38733	10435.2
984.12747	10423.6
987.86502	10448.4
991.59999	10458.2
995.33237	10499.4
999.06217	10601.1
1002.78939	10697.4
1006.51404	10832.1
1010.23611	10958.8
1013.95561	11083.1
1017.67255	11123
1021.38692	11095.7
1025.09872	10966.2
1028.80796	10831
1032.51465	10770.4
1036.21877	10735.7
1039.92035	10782
1043.61937	10817.4
1047.31584	10861.1
1051.00976	10928.1
1054.70114	10967.4
1058.38998	11001.1
1062.07627	11088.1
1065.76003	11160
1069.44126	11267.8
1073.11995	11441.2
1076.79611	11556.9
1080.46974	11570.7
1084.14085	11494
1087.80943	11516.6
1091.47549	11551.4
1095.13903	11560.5
1098.80005	11471.5
1102.45857	11293
1106.11456	11140.3
1109.76805	11031.5
1113.41903	11050
1117.06751	11107.5
1120.71348	11265.2
1124.35696	11401.6
1127.99793	11615.6
1131.63641	11769.1
1135.2724	11609.6
1138.90589	11420.6
1142.5369	11353.8
1146.16542	11326.4
1149.79145	11311.5
1153.415	11321.4
1157.03607	11378.2
1160.65467	11555.7
1164.27079	11936.4
1167.88443	12370.1
1171.49561	12891.7
1175.10432	13578.4
1178.71056	14429.2
1182.31434	15271.6
1185.91565	15667.7
1189.51451	15548.7
1193.11091	15113.6
1196.70485	14602.8
1200.29634	14058.4
1203.88538	13638.1
1207.47197	13324.9
1211.05612	13045.1
1214.63782	12788.7
1218.21708	12576.7
1221.79391	12410.9
1225.36829	12299.7
1228.94024	12290.3
1232.50976	12223.7
1236.07685	12121.5
1239.6415	12017.1
1243.20374	11979.6
1246.76355	11984.4
1250.32093	12054.7
1253.8759	12184.5
1257.42845	12401.9
1260.97859	12622.5
1264.52631	12859.5
1268.07163	13089.1
1271.61453	13337.9
1275.15503	13552.4
1278.69312	13818.9
1282.22882	14099.2
1285.76211	14418
1289.29301	14828.9
1292.82151	15387.9
1296.34761	15991.3
1299.87133	16747
1303.39266	17586.9
1306.9116	18410.5
1310.42815	19190.8
1313.94233	19682.7
1317.45412	19511.5
1320.96354	18970.2
1324.47058	18303.3
1327.97525	17797.5
1331.47754	17385
1334.97747	17175.2
1338.47502	17065.7
1341.97022	17002.3
1345.46305	17001.1
1348.95352	17193.8
1352.44163	17709.1
1355.92738	18467.3
1359.41078	19529.7
1362.89183	20412.9
1366.37053	20362.7
1369.84688	18857.9
1373.32088	16712.2
1376.79254	15193.8
1380.26186	14472.5
1383.72883	14191.2
1387.19347	14017.3
1390.65578	13747.6
1394.11575	13599.6
1397.57339	13637.5
1401.0287	13824.2
1404.48168	13996.6
1407.93234	14036.8
1411.38068	13930.4
1414.82669	13691.2
1418.27039	13385.8
1421.71177	13063.4
1425.15083	12748.8
1428.58758	12559.4
1432.02203	12603.4
1435.45416	12769.9
1438.88399	13023.1
1442.31151	13137.3
1445.73673	13205.1
1449.15965	13253.4
1452.58027	13239.2
1455.9986	13194.7
1459.41463	13216
1462.82837	13361.3
1466.23982	13595.3
1469.64898	13799.3
1473.05586	13978.4
1476.46045	14094.2
1479.86276	14097.5
1483.26279	14063.4
1486.66054	14093
1490.05602	14211.7
1493.44922	14484.1
1496.84016	14814.2
1500.22882	15262.2
1503.61521	15929.9
1506.99934	16697.1
1510.38121	17314.7
1513.76081	17418.2
1517.13816	16796.7
1520.51324	15913
1523.88607	15155.2
1527.25665	14642.5
1530.62498	14417.5
1533.99105	14244.3
1537.35488	14064.8
1540.71647	13873
1544.07581	13643.5
1547.4329	13451.8
1550.78776	13193.8
1554.14038	13031
1557.49077	12867.2
1560.83892	12850
1564.18484	12871.8
1567.52853	12980
1570.86999	13184.2
1574.20922	13434.4
1577.54624	13647
1580.88103	13566.1
1584.2136	13361.8
1587.54395	13327.7
1590.87208	13603.3
1594.19801	14163.2
1597.52172	14900.2
1600.84321	15307.4
1604.16251	15078
1607.47959	14335.1
1610.79447	13358
1614.10715	12463.5
1617.41763	11705.3
1620.7259	11161.3
1624.03199	10840.5
1627.33587	10766.2
1630.63757	10897.2
1633.93707	11281
1637.23439	12001.5
1640.52951	13209.7
1643.82246	14813.4
1647.11321	16330.7
1650.40179	16963.3
1653.68819	16099.3
1656.97241	14348
1660.25446	12541.8
1663.53433	11215.5
1666.81203	10436.6
1670.08756	9978.3
1673.36092	9692
1676.63211	9526.2
1679.90115	9376.4
1683.16801	9264.8
1686.43272	9181.6
1689.69527	9105.1
1692.95567	9054.3
1696.2139	8990.9
1699.46999	8939.2
1702.72392	8895.3
1705.97571	8864.8
1709.22535	8904.3
1712.47284	8911
1715.71819	8935.2
1718.96139	8908.5
1722.20246	8890.9
1725.44139	8886.1
1728.67818	8829.3
1731.91284	8787.6
1735.14537	8768.6
1738.37576	8734.7
1741.60403	8710
1744.83017	8696.9
1748.05418	8663.7
1751.27607	8675.6
1754.49584	8700.7
1757.71349	8689.9
1760.92903	8677.3
1764.14244	8651.2
1767.35375	8599.1
1770.56294	8567.5
1773.77002	8510.1
1776.97499	8510.3
1780.17785	8487.1
1783.37861	8494.3
1786.57727	8446.6
1789.77382	8449.1
1792.96828	8427.4
1796.16064	8396.1
1799.3509	8377.6
1802.53907	8352.2
1805.72514	8321.5
1808.90913	8307.7
1812.09102	8282
1815.27083	8269.3
1818.44856	8254.1
1821.6242	8244.7
1824.79776	8218.6
1827.96924	8203.2
1831.13864	8214.1
1834.30597	8204.1
1837.47122	8205.5
1840.6344	8185.6
1843.7955	8177.1
1846.95454	8151.7
1850.11151	8154.7
1853.26642	8160.8
1856.41926	8141.4
1859.57004	8136.7
1862.71876	8132.2
1865.86542	8131.8
1869.01003	8118.6
1872.15258	8104.6
1875.29308	8089.3
1878.43152	8077.7
1881.56792	8064.9
1884.70227	8017.2
1887.83457	8027.2
1890.96482	8023.3
1894.09304	8023.9
1897.21921	8011.3
1900.34335	7993.9
1903.46544	7973.9
1906.58551	7982.7
1909.70353	7972.1
1912.81953	7935.1
1915.93349	7935.9
1919.04543	7916.2
1922.15534	7892.3
1925.26322	7904
1928.36908	7869.2
1931.47292	7839.1
1934.57473	7813.9
1937.67453	7795.1
1940.77232	7798.5
1943.86808	7744.6
1946.96184	7739.5
1950.05358	7707.1
1953.14331	7717.7
1956.23103	7678.7
1959.31675	7664.7
1962.40046	7642.3
1965.48217	7591.1
1968.56188	7575.4
1971.63959	7559.5
1974.7153	7532.7
1977.78901	7492.9
1980.86073	7494.2
1983.93046	7457.2
1986.99819	7437.3
1990.06394	7427
1993.1277	7388.8
1996.18947	7359.7
1999.24925	7359.9
2002.30706	7328.3
2005.36288	7308.1
2008.41672	7286.8
2011.46859	7277.2
2014.51848	7267.4
2017.56639	7228.2
2020.61233	7196.2
2023.6563	7204.9
2026.6983	7167.1
2029.73833	7163.6
2032.7764	7135.4
2035.8125	7123
2038.84664	7086.5
2041.87881	7058
2044.90903	7064.2
2047.93729	7048.8
2050.96359	7028
2053.98794	7015
2057.01034	7003.7
2060.03078	7030.2
2063.04927	7008.2
2066.06582	7017.9
2069.08042	6981.1
2072.09307	7013.1
2075.10378	6993
2078.11255	6984.9
2081.11938	6986.7
2084.12426	6964.5
2087.12722	6959.5
2090.12824	6963.7
2093.12732	6972.3
2096.12447	6956.4
2099.11969	6967.6
2102.11299	6957
2105.10435	6965.5
2108.09379	6972
2111.08131	6954.6
2114.0669	6965
2117.05057	6983.1
2120.03233	6995.6
2123.01216	6977.3
2125.99008	6997.2
2128.96609	7000.2
2131.94018	6991
2134.91236	6995.3
2137.88263	6999.2
2140.851	6992.1
2143.81746	7009.4
2146.78201	6981.1
2149.74466	6997.7
2152.7054	6986.5
2155.66425	6985.2
2158.6212	6967.6
2161.57625	6961.1
2164.52941	6959.3
2167.48067	6959.4
2170.43004	6964.3
2173.37752	6955
2176.32311	6962.1
2179.26681	6945.7
2182.20863	6935
2185.14856	6959
2188.08661	6942.9
2191.02278	6945.9
2193.95707	6935.4
2196.88948	6929.7
2199.82001	6919.9
2202.74867	6890.7
2205.67545	6888.9
2208.60037	6872.1
2211.52341	6874
2214.44458	6846.2
2217.36388	6838.4
2220.28132	6836.2
2223.1969	6812.7
2226.11061	6811.8
2229.02246	6795.1
2231.93245	6769
2234.84058	6750.9
2237.74686	6755.8
2240.65128	6742
2243.55385	6729
2246.45456	6728.3
2249.35343	6699.1
2252.25044	6696.2
2255.14561	6684.4
2258.03893	6671.5
2260.93041	6646.8
2263.82004	6641.7
2266.70783	6637
2269.59378	6599.9
2272.4779	6598.3
2275.36017	6586.3
2278.24061	6577.6
2281.11922	6556.7
2283.996	6547.4
2286.87094	6521.9
2289.74405	6527
2292.61534	6516.8
2295.4848	6494.6
2298.35243	6514.4
2301.21824	6486.1
2304.08223	6482.1
2306.94439	6471.4
2309.80474	6481.3
2312.66327	6474.7
2315.51999	6436.1
2318.37489	6431.4
2321.22797	6444.9
2324.07925	6429.1
2326.92871	6401.7
2329.77637	6405.1
2332.62222	6394.7
2335.46626	6393.2
2338.3085	6376
2341.14893	6360.8
2343.98756	6373.7
2346.8244	6326.7
2349.65943	6336.5
2352.49267	6339.2
2355.32411	6346.5
2358.15376	6321.1
2360.98161	6342.4
2363.80768	6333.8
2366.63195	6327.4
2369.45444	6323.7
2372.27514	6307.3
2375.09405	6320.1
2377.91118	6305.9
2380.72652	6270.5
2383.54009	6247
2386.35187	6259.7
2389.16188	6236.6
2391.97011	6234.3
2394.77657	6191.1
2397.58125	6179.5
2400.38416	6180.6
2403.18529	6170.4
2405.98466	6138.9
2408.78226	6136.4
2411.57809	6136.2
2414.37216	6135.6
2417.16446	6117
2419.955	6112.2
2422.74378	6125.2
2425.5308	6114.2
2428.31606	6107.6
2431.09956	6090.8
2433.88131	6097.7
2436.6613	6074.1
2439.43954	6064.1
2442.21603	6101
2444.99077	6068.1
2447.76377	6058
2450.53501	6044.9
2453.30451	6053.1
2456.07226	6042.7
2458.83827	6029.6
2461.60254	6041.9
2464.36507	6029.2
2467.12586	6035.3
2469.88492	5999.4
2472.64224	6014.9
2475.39782	5978
2478.15167	5994.3
2480.90379	5988.2
2483.65417	5992.1
2486.40283	5981.5
2489.14976	5974.7
2491.89497	5976.6
2494.63845	5958.2
2497.3802	5956.2
2500.12024	5951
2502.85855	5948.2
2505.59514	5944.3
2508.33002	5929.9
2511.06318	5923.2
2513.79462	5917.4
2516.52435	5907.8
2519.25237	5896.1
2521.97867	5876.8
2524.70327	5891.2
2527.42616	5871
2530.14734	5852.4
2532.86681	5852.8
2535.58458	5859.5
2538.30065	5830
2541.01501	5855.8
2543.72768	5823.6
2546.43864	5812
2549.14791	5802.7
2551.85548	5797.3
2554.56136	5784.2
2557.26554	5765.4
2559.96803	5771.2
2562.66883	5758.3
2565.36794	5756.4
2568.06536	5764.4
2570.7611	5738.8
2573.45514	5720.3
2576.14751	5716.9
2578.83819	5680.9
2581.52719	5697.6
2584.21451	5672.9
2586.90015	5661.9
2589.58411	5649.7
2592.2664	5660.7
2594.94701	5633.9
2597.62594	5635
2600.30321	5599.6
2602.9788	5617.1
2605.65273	5607.2
2608.32498	5594.3
2610.99557	5584.6
2613.66449	5596.4
2616.33175	5567.6
2618.99734	5583.7
2621.66128	5579
2624.32355	5552.3
2626.98416	5551.3
2629.64311	5538.2
2632.30041	5539.4
2634.95605	5502.3
2637.61004	5504.7
2640.26238	5505.2
2642.91306	5499.1
2645.56209	5485.6
2648.20948	5484.3
2650.85521	5472.2
2653.4993	5485.8
2656.14175	5482.2
2658.78255	5501
2661.42171	5488.6
2664.05923	5499.8
2666.6951	5500.1
2669.32934	5495.9
2671.96194	5508.4
2674.59291	5476.4
2677.22224	5479.8
2679.84993	5485.1
2682.476	5481.5
2685.10043	5480.1
2687.72324	5460
2690.34441	5475.9
2692.96396	5458
2695.58188	5478.2
2698.19818	5473.5
2700.81285	5466.9
2703.4259	5450.7
2706.03733	5456.6
2708.64714	5434.3
2711.25533	5446
2713.86191	5455.5
2716.46687	5461.6
2719.07021	5454.2
2721.67194	5464.8
2724.27206	5464.6
2726.87057	5470.4
2729.46747	5474.6
2732.06276	5472.7
2734.65644	5452
2737.24852	5457.2
2739.83899	5460.7
2742.42786	5448.8
2745.01513	5437.5
2747.60079	5416.9
2750.18486	5425.3
2752.76733	5420.1
2755.3482	5397.8
2757.92747	5401.6
2760.50515	5394.1
2763.08123	5390.9
2765.65573	5401.5
2768.22863	5383.9
2770.79994	5369.1
2773.36967	5360
2775.9378	5350.1
2778.50435	5360.5
2781.06932	5358.1
2783.6327	5359
2786.1945	5339.8
2788.75471	5321.7
2791.31335	5324.9
2793.87041	5306
2796.42589	5305.9
2798.97979	5294.5
2801.53212	5292.1
2804.08288	5300.3
2806.63206	5263.2
2809.17967	5242.3
2811.72571	5245.2
2814.27018	5248.9
2816.81308	5225.4
2819.35442	5223.3
2821.89419	5224.2
2824.43239	5222.9
2826.96904	5206.3
2829.50412	5195.6
2832.03763	5203.2
2834.56959	5193.7
2837.1	5211.9
2839.62884	5223.9
2842.15613	5250.6
2844.68186	5286.8
2847.20604	5316
2849.72867	5335.1
2852.24974	5323.8
2854.76927	5311.3
2857.28724	5304.2
2859.80367	5297.9
2862.31855	5299.7
2864.83189	5294.3
2867.34368	5284.1
2869.85393	5271.7
2872.36264	5274.3
2874.8698	5281.7
2877.37543	5264.4
2879.87952	5271.4
2882.38207	5258
2884.88308	5247.4
2887.38256	5258.1
2889.88051	5243.6
2892.37692	5250.3
2894.8718	5276.8
2897.36515	5272.1
2899.85698	5284.1
2902.34727	5291.1
2904.83604	5295.7
2907.32328	5298.3
2909.809	5265.1
2912.29319	5291.9
2914.77587	5296.9
2917.25702	5300.6
2919.73665	5305.1
2922.21476	5303.9
2924.69136	5310.6
2927.16644	5312.4
2929.64	5304.9
2932.11205	5306.5
2934.58258	5303.4
2937.05161	5300.5
2939.51912	5308.5
2941.98513	5293.8
2944.44962	5265.2
2946.91261	5246.8
2949.37409	5231.3
2951.83407	5214.4
2954.29254	5209.6
2956.74951	5184.9
2959.20498	5196.1
2961.65895	5182.4
2964.11142	5170.6
2966.56239	5141.2
2969.01186	5131.4
2971.45984	5107.9
2973.90632	5096
2976.35131	5069.6
2978.7948	5060.1
2981.23681	5039.5
2983.67732	5020.9
2986.11635	5025.2
2988.55388	5013.2
2990.98993	4982.7
2993.4245	4975
2995.85758	4977.6
2998.28917	4960.2
3000.71928	4937.6
3003.14791	4914.7
3005.57506	4921.8
3008.00073	4922.2
3010.42493	4911.5
3012.84764	4911.7
3015.26888	4902.1
3017.68865	4895.7
3020.10694	4891.2
3022.52376	4870.4
3024.9391	4852.6
3027.35298	4841.4
3029.76539	4846.3
3032.17632	4835.4
3034.5858	4809
3036.9938	4827.9
3039.40034	4815.4
3041.80542	4808.2
3044.20903	4791.1
3046.61118	4812.8
3049.01187	4789.4
3051.4111	4798.6
3053.80888	4791.2
3056.20519	4770.9
3058.60005	4755.4
3060.99345	4753.9
3063.3854	4740.2
3065.7759	4720.9
3068.16494	4735.1
3070.55254	4722.6
3072.93868	4714.9
3075.32338	4696.5
3077.70662	4722.7
3080.08842	4679.4
3082.46878	4697.7
3084.84769	4691.3
3087.22515	4694.9
3089.60118	4673.3
3091.97576	4684.3
3094.3489	4703.6
3096.72061	4704.1
3099.09087	4713.2
3101.4597	4697.5
3103.82709	4712.4
3106.19305	4695.4
3108.55757	4683.5
3110.92066	4683.5
3113.28232	4690.6
3115.64255	4660.2
3118.00134	4660.7
3120.35871	4659.7
3122.71466	4676.5
3125.06917	4651.1
3127.42226	4641.4
3129.77393	4654.2
3132.12417	4653.8
3134.47299	4652.4
3136.82039	4651.5
3139.16636	4663.7
3141.51092	4661.2
3143.85406	4673.4
3146.19579	4674.6
3148.53609	4689.4
3150.87499	4682
3153.21246	4713.8
3155.54853	4699.5
3157.88318	4700.6
3160.21642	4707.3
3162.54826	4739.5
3164.87868	4719.8
3167.2077	4727.7
3169.5353	4736.7
3171.86151	4723.7
3174.18631	4716.4
3176.5097	4738.5
3178.83169	4741.4
3181.15228	4718.7
3183.47147	4707.3
3185.78926	4721
3188.10565	4727.8
3190.42065	4723
3192.73424	4711.8
3195.04645	4710.7
3197.35725	4716.5
3199.66667	4719.4
3201.97469	4729.6
3204.28132	4744.3
3206.58656	4726
3208.8904	4723.1
3211.19287	4728.5
3213.49394	4745.9
3215.79363	4755
3218.09193	4735.9
3220.38884	4731.4
3222.68438	4741.3
3224.97853	4732.6
3227.2713	4744.7
3229.56269	4732.5
3231.8527	4764.4
3234.14133	4728.3
3236.42858	4728.5
3238.71446	4714
3240.99896	4704.9
3243.28209	4724.7
3245.56384	4701.8
3247.84423	4702.4
3250.12324	4681.2
3252.40088	4704.1
3254.67715	4693.9
3256.95205	4699.9
3259.22558	4692.9
3261.49775	4685.8
3263.76855	4668.5
3266.03799	4673.7
3268.30606	4653.2
3270.57277	4665
3272.83812	4645.8
3275.10211	4637.9
3277.36474	4624.2
3279.62601	4620.3
3281.88593	4619.3
3284.14448	4623.8
3286.40168	4624.4
3288.65753	4630.4
3290.91202	4624
3293.16516	4607.6
3295.41695	4583.5
3297.66738	4562
3299.91647	4553.7
3302.16421	4513.7
3304.4106	4500.2
3306.65564	4485.4
3308.89933	4452.6
3311.14169	4440.1
3313.38269	4387.4
3315.62236	4367.4
3317.86068	4312.8
3320.09766	4292.6
3322.3333	4263.3
3324.5676	4251.7
3326.80056	4180
3329.03219	4167.5
3331.26248	1.7
3333.49143	0
3335.71905	-1.9
