Data from AgNPs_FTO_APTES_UA_1uM_CRN_10uM_R6G_10uM_NaF_0.1M_Addition_RamanShift__17__14-35-39-642.txt Node

Date: Thu Jan 27 14:35:39 GMT 2022
User: TCL
Spectrometer: QEP01345
Trigger mode: 4
Integration Time (sec): 7.000000E0
Scans to average: 10
Electric dark correction enabled: true
Nonlinearity correction enabled: false
Boxcar width: 0
XAxis mode: Raman Shifts
Number of Pixels in Spectrum: 1044
>>>>>Begin Spectral Data<<<<<
46.04893	1.7625
50.45542	-0.5375
54.85868	0.4625
59.25871	-1.1375
63.6555	44.2625
68.04907	49.5625
72.43941	47.2625
76.82654	55.0625
81.21044	55.7625
85.59113	54.9625
89.96862	55.7625
94.34289	58.8625
98.71396	61.8625
103.08183	57.6625
107.4465	67.8625
111.80798	66.2625
116.16626	67.9625
120.52136	70.4625
124.87327	72.8625
129.222	75.8625
133.56755	78.4625
137.90993	79.1625
142.24913	90.3625
146.58517	97.0625
150.91804	111.4625
155.24774	130.7625
159.57429	157.1625
163.89768	197.7625
168.21792	261.8625
172.53501	354.5625
176.84895	483.1625
181.15975	674.2625
185.46741	942.7625
189.77193	1292.8625
194.07331	1739.5625
198.37157	2241.0625
202.6667	2768.2625
206.9587	3286.3625
211.24758	3790.8625
215.53334	4303.9625
219.81599	4845.6625
224.09553	5431.0625
228.37195	6105.2625
232.64527	6829.5625
236.91549	7602.7625
241.18261	8366.3625
245.44663	9079.8625
249.70755	9749.1625
253.96539	10320.4625
258.22014	10801.4625
262.4718	11211.9625
266.72039	11513.5625
270.96589	11682.1625
275.20832	11729.0625
279.44768	11654.8625
283.68397	11567.8625
287.91719	11489.4625
292.14735	11457.8625
296.37445	11465.5625
300.59849	11538.0625
304.81948	11559.0625
309.03742	11512.0625
313.25231	11386.8625
317.46415	11088.6625
321.67296	10774.3625
325.87872	10494.0625
330.08145	10333.7625
334.28114	10321.7625
338.47781	10379.0625
342.67145	10515.7625
346.86207	10682.5625
351.04966	10919.9625
355.23424	11133.0625
359.4158	11342.3625
363.59435	11440.6625
367.76989	11565.4625
371.94243	11655.8625
376.11196	11710.5625
380.27849	11780.6625
384.44203	11858.7625
388.60257	11927.0625
392.76012	12033.3625
396.91468	12180.0625
401.06626	12349.3625
405.21485	12458.9625
409.36047	12435.4625
413.50311	12189.7625
417.64277	12051.6625
421.77947	12003.6625
425.9132	12017.7625
430.04396	12091.4625
434.17176	12163.3625
438.2966	12280.9625
442.41849	12397.9625
446.53742	12690.2625
450.6534	13010.4625
454.76644	13305.4625
458.87653	13411.9625
462.98368	13366.0625
467.08789	13266.7625
471.18916	13130.7625
475.2875	12980.8625
479.38291	12913.2625
483.4754	12854.7625
487.56496	12692.1625
491.6516	12509.2625
495.73531	12338.3625
499.81612	12260.5625
503.89401	12334.7625
507.96899	12393.5625
512.04106	12380.8625
516.11023	12316.2625
520.1765	12218.6625
524.23987	12127.8625
528.30034	12009.6625
532.35792	11889.5625
536.41261	11752.3625
540.46441	11636.0625
544.51333	11660.7625
548.55936	11794.2625
552.60252	12049.1625
556.64279	12317.7625
560.6802	12472.6625
564.71473	12537.6625
568.7464	12676.9625
572.7752	12912.9625
576.80114	13146.9625
580.82422	13364.1625
584.84444	13548.0625
588.86181	13630.1625
592.87633	13755.3625
596.888	13808.4625
600.89682	13825.5625
604.9028	14221.0625
608.90594	15397.4625
612.90624	16660.1625
616.90371	15791.0625
620.89834	13351.0625
624.89015	12335.0625
628.87913	12307.1625
632.86528	12315.6625
636.84862	12217.6625
640.82913	12019.0625
644.80683	11737.2625
648.78172	11475.1625
652.75379	11394.0625
656.72306	11503.7625
660.68952	11685.6625
664.65319	11662.3625
668.61405	11471.4625
672.57211	11367.4625
676.52738	11386.1625
680.47986	11384.1625
684.42955	11339.9625
688.37646	11289.7625
692.32058	11335.1625
696.26192	11446.3625
700.20048	11567.1625
704.13626	11632.6625
708.06928	11607.5625
711.99952	11542.1625
715.927	11510.3625
719.85171	11536.8625
723.77365	11516.8625
727.69284	11417.9625
731.60928	11291.6625
735.52295	11259.5625
739.43388	11282.0625
743.34206	11282.2625
747.24749	11341.6625
751.15017	11454.0625
755.05012	11615.6625
758.94733	11966.2625
762.8418	12512.1625
766.73354	13406.2625
770.62254	14323.6625
774.50882	14593.7625
778.39237	13940.0625
782.27321	12948.2625
786.15132	12135.6625
790.02671	11644.7625
793.89938	11459.6625
797.76935	11374.9625
801.6366	11338.1625
805.50115	11284.6625
809.36299	11242.7625
813.22213	11159.4625
817.07857	11095.6625
820.93231	11076.1625
824.78336	11023.4625
828.63172	11011.3625
832.47738	11006.9625
836.32036	11039.1625
840.16066	11080.5625
843.99827	11117.4625
847.8332	11121.4625
851.66546	11026.3625
855.49504	10966.9625
859.32195	10978.5625
863.1462	10971.1625
866.96777	10920.0625
870.78668	10886.8625
874.60293	10870.3625
878.41652	10876.8625
882.22745	10899.0625
886.03573	10952.1625
889.84136	10945.2625
893.64433	10902.2625
897.44466	10849.8625
901.24235	10788.3625
905.0374	10772.6625
908.8298	10752.0625
912.61957	10761.7625
916.40671	10880.4625
920.19121	11014.5625
923.97308	11185.5625
927.75233	11211.7625
931.52895	11208.3625
935.30295	11084.1625
939.07433	10870.6625
942.84309	10668.9625
946.60924	10615.2625
950.37278	10612.0625
954.13371	10552.7625
957.89203	10478.6625
961.64774	10449.6625
965.40086	10416.1625
969.15137	10386.0625
972.89929	10335.4625
976.64461	10295.6625
980.38733	10291.6625
984.12747	10360.4625
987.86502	10453.7625
991.59999	10589.8625
995.33237	10846.9625
999.06217	11194.6625
1002.78939	11589.6625
1006.51404	11757.0625
1010.23611	11788.7625
1013.95561	11869.1625
1017.67255	11883.7625
1021.38692	11786.5625
1025.09872	11660.8625
1028.80796	11814.0625
1032.51465	12231.0625
1036.21877	12675.7625
1039.92035	12733.4625
1043.61937	12514.8625
1047.31584	12120.5625
1051.00976	11737.6625
1054.70114	11577.3625
1058.38998	11542.3625
1062.07627	11635.1625
1065.76003	11643.1625
1069.44126	11692.8625
1073.11995	11810.0625
1076.79611	11924.7625
1080.46974	12005.8625
1084.14085	12094.7625
1087.80943	12209.9625
1091.47549	12290.0625
1095.13903	12290.0625
1098.80005	12164.2625
1102.45857	11895.8625
1106.11456	11731.6625
1109.76805	11651.8625
1113.41903	11689.8625
1117.06751	11785.4625
1120.71348	11853.0625
1124.35696	11985.6625
1127.99793	12105.7625
1131.63641	12193.7625
1135.2724	12112.9625
1138.90589	12031.0625
1142.5369	11970.8625
1146.16542	11976.7625
1149.79145	12019.5625
1153.415	12053.6625
1157.03607	12196.9625
1160.65467	12488.1625
1164.27079	12932.1625
1167.88443	13604.0625
1171.49561	14443.2625
1175.10432	15498.0625
1178.71056	16828.4625
1182.31434	18101.2625
1185.91565	18852.3625
1189.51451	18856.6625
1193.11091	18305.0625
1196.70485	17497.1625
1200.29634	16699.0625
1203.88538	16061.7625
1207.47197	15606.9625
1211.05612	15294.4625
1214.63782	15001.1625
1218.21708	14777.0625
1221.79391	14643.4625
1225.36829	14595.2625
1228.94024	14482.7625
1232.50976	14201.1625
1236.07685	13959.3625
1239.6415	13815.3625
1243.20374	13800.0625
1246.76355	13887.1625
1250.32093	14056.1625
1253.8759	14373.8625
1257.42845	14793.8625
1260.97859	15193.3625
1264.52631	15576.6625
1268.07163	16030.5625
1271.61453	16477.2625
1275.15503	17007.2625
1278.69312	17564.4625
1282.22882	18022.3625
1285.76211	18394.0625
1289.29301	18767.5625
1292.82151	19265.3625
1296.34761	20080.2625
1299.87133	21126.7625
1303.39266	22428.4625
1306.9116	23909.2625
1310.42815	25369.9625
1313.94233	26287.0625
1317.45412	26232.4625
1320.96354	25650.8625
1324.47058	24987.1625
1327.97525	24402.7625
1331.47754	23951.9625
1334.97747	23640.2625
1338.47502	23557.1625
1341.97022	23479.1625
1345.46305	23350.4625
1348.95352	23095.8625
1352.44163	22841.7625
1355.92738	23029.5625
1359.41078	23896.9625
1362.89183	24741.0625
1366.37053	24377.8625
1369.84688	22453.4625
1373.32088	20235.4625
1376.79254	18620.5625
1380.26186	17910.3625
1383.72883	17797.9625
1387.19347	17793.0625
1390.65578	17655.0625
1394.11575	17581.4625
1397.57339	17705.1625
1401.0287	18001.2625
1404.48168	18301.3625
1407.93234	18324.4625
1411.38068	18095.2625
1414.82669	17641.2625
1418.27039	16947.2625
1421.71177	16300.9625
1425.15083	15754.3625
1428.58758	15439.8625
1432.02203	15430.0625
1435.45416	15699.2625
1438.88399	16132.1625
1442.31151	16525.2625
1445.73673	16804.7625
1449.15965	17038.5625
1452.58027	17210.8625
1455.9986	17274.5625
1459.41463	17426.7625
1462.82837	17659.1625
1466.23982	18004.7625
1469.64898	18323.1625
1473.05586	18525.1625
1476.46045	18504.0625
1479.86276	18418.6625
1483.26279	18164.0625
1486.66054	17934.5625
1490.05602	17891.4625
1493.44922	18027.4625
1496.84016	18169.0625
1500.22882	18539.2625
1503.61521	19153.3625
1506.99934	19908.9625
1510.38121	20610.4625
1513.76081	20836.2625
1517.13816	20403.4625
1520.51324	19644.5625
1523.88607	18859.3625
1527.25665	18354.5625
1530.62498	18102.2625
1533.99105	17977.2625
1537.35488	17860.1625
1540.71647	17687.3625
1544.07581	17456.2625
1547.4329	17143.2625
1550.78776	16846.4625
1554.14038	16690.7625
1557.49077	16582.4625
1560.83892	16539.3625
1564.18484	16484.9625
1567.52853	16509.8625
1570.86999	16661.5625
1574.20922	16868.0625
1577.54624	17026.2625
1580.88103	17077.0625
1584.2136	17116.7625
1587.54395	17444.1625
1590.87208	18173.1625
1594.19801	19179.8625
1597.52172	20334.7625
1600.84321	20792.5625
1604.16251	19953.5625
1607.47959	18518.2625
1610.79447	16966.9625
1614.10715	15580.5625
1617.41763	14416.4625
1620.7259	13597.1625
1624.03199	13175.8625
1627.33587	13094.4625
1630.63757	13434.2625
1633.93707	14219.3625
1637.23439	15419.1625
1640.52951	17089.1625
1643.82246	18872.2625
1647.11321	20223.8625
1650.40179	20489.4625
1653.68819	19290.0625
1656.97241	17054.5625
1660.25446	14778.3625
1663.53433	13064.1625
1666.81203	11921.8625
1670.08756	11211.8625
1673.36092	10758.6625
1676.63211	10489.9625
1679.90115	10256.5625
1683.16801	10089.5625
1686.43272	9989.4625
1689.69527	9879.1625
1692.95567	9805.2625
1696.2139	9749.6625
1699.46999	9667.6625
1702.72392	9632.8625
1705.97571	9620.5625
1709.22535	9638.6625
1712.47284	9644.3625
1715.71819	9636.2625
1718.96139	9624.5625
1722.20246	9576.2625
1725.44139	9561.5625
1728.67818	9491.8625
1731.91284	9440.0625
1735.14537	9401.8625
1738.37576	9366.4625
1741.60403	9326.3625
1744.83017	9305.1625
1748.05418	9281.7625
1751.27607	9229.4625
1754.49584	9218.0625
1757.71349	9216.6625
1760.92903	9147.6625
1764.14244	9144.8625
1767.35375	9155.8625
1770.56294	9150.3625
1773.77002	9126.3625
1776.97499	9106.2625
1780.17785	9127.8625
1783.37861	9126.9625
1786.57727	9125.3625
1789.77382	9100.8625
1792.96828	9087.6625
1796.16064	9075.4625
1799.3509	9062.5625
1802.53907	9060.9625
1805.72514	9035.5625
1808.90913	9001.2625
1812.09102	8987.4625
1815.27083	8976.5625
1818.44856	8971.9625
1821.6242	8946.0625
1824.79776	8938.4625
1827.96924	8917.1625
1831.13864	8928.0625
1834.30597	8932.5625
1837.47122	8934.9625
1840.6344	8930.7625
1843.7955	8947.6625
1846.95454	8932.7625
1850.11151	8939.1625
1853.26642	8929.3625
1856.41926	8947.1625
1859.57004	8943.7625
1862.71876	8941.0625
1865.86542	8908.7625
1869.01003	8910.3625
1872.15258	8886.0625
1875.29308	8891.8625
1878.43152	8893.3625
1881.56792	8881.5625
1884.70227	8868.7625
1887.83457	8871.7625
1890.96482	8896.7625
1894.09304	8868.2625
1897.21921	8839.8625
1900.34335	8829.1625
1903.46544	8851.6625
1906.58551	8825.8625
1909.70353	8827.8625
1912.81953	8800.0625
1915.93349	8811.3625
1919.04543	8765.9625
1922.15534	8769.6625
1925.26322	8723.3625
1928.36908	8723.3625
1931.47292	8690.0625
1934.57473	8671.7625
1937.67453	8662.6625
1940.77232	8617.6625
1943.86808	8609.8625
1946.96184	8561.8625
1950.05358	8509.9625
1953.14331	8500.3625
1956.23103	8474.9625
1959.31675	8440.1625
1962.40046	8423.0625
1965.48217	8423.9625
1968.56188	8384.5625
1971.63959	8374.6625
1974.7153	8339.2625
1977.78901	8313.6625
1980.86073	8283.5625
1983.93046	8276.1625
1986.99819	8242.0625
1990.06394	8200.4625
1993.1277	8188.8625
1996.18947	8177.3625
1999.24925	8132.8625
2002.30706	8118.7625
2005.36288	8090.7625
2008.41672	8075.9625
2011.46859	8051.9625
2014.51848	8040.1625
2017.56639	8014.2625
2020.61233	8001.2625
2023.6563	7996.5625
2026.6983	7967.7625
2029.73833	7939.8625
2032.7764	7953.7625
2035.8125	7911.4625
2038.84664	7922.2625
2041.87881	7901.0625
2044.90903	7928.7625
2047.93729	7876.5625
2050.96359	7881.9625
2053.98794	7843.0625
2057.01034	7850.8625
2060.03078	7881.1625
2063.04927	7860.4625
2066.06582	7863.4625
2069.08042	7851.6625
2072.09307	7842.2625
2075.10378	7825.5625
2078.11255	7817.0625
2081.11938	7820.9625
2084.12426	7822.0625
2087.12722	7817.8625
2090.12824	7815.3625
2093.12732	7805.3625
2096.12447	7794.6625
2099.11969	7788.4625
2102.11299	7841.5625
2105.10435	7829.2625
2108.09379	7821.9625
2111.08131	7844.3625
2114.0669	7832.7625
2117.05057	7839.9625
2120.03233	7830.0625
2123.01216	7827.7625
2125.99008	7874.1625
2128.96609	7847.9625
2131.94018	7878.0625
2134.91236	7871.6625
2137.88263	7882.5625
2140.851	7897.5625
2143.81746	7892.1625
2146.78201	7883.8625
2149.74466	7911.2625
2152.7054	7899.7625
2155.66425	7921.6625
2158.6212	7903.6625
2161.57625	7876.7625
2164.52941	7879.6625
2167.48067	7895.9625
2170.43004	7883.0625
2173.37752	7894.3625
2176.32311	7896.0625
2179.26681	7884.5625
2182.20863	7882.8625
2185.14856	7895.5625
2188.08661	7904.3625
2191.02278	7912.1625
2193.95707	7886.8625
2196.88948	7888.6625
2199.82001	7902.0625
2202.74867	7899.8625
2205.67545	7909.4625
2208.60037	7892.4625
2211.52341	7882.2625
2214.44458	7864.8625
2217.36388	7857.4625
2220.28132	7849.6625
2223.1969	7835.5625
2226.11061	7833.1625
2229.02246	7811.6625
2231.93245	7799.7625
2234.84058	7760.6625
2237.74686	7775.5625
2240.65128	7761.4625
2243.55385	7752.9625
2246.45456	7721.9625
2249.35343	7727.2625
2252.25044	7721.7625
2255.14561	7689.1625
2258.03893	7679.3625
2260.93041	7670.8625
2263.82004	7671.6625
2266.70783	7642.2625
2269.59378	7623.6625
2272.4779	7592.4625
2275.36017	7587.6625
2278.24061	7593.0625
2281.11922	7608.9625
2283.996	7569.5625
2286.87094	7558.1625
2289.74405	7540.0625
2292.61534	7545.7625
2295.4848	7535.7625
2298.35243	7544.3625
2301.21824	7559.9625
2304.08223	7559.2625
2306.94439	7555.4625
2309.80474	7563.1625
2312.66327	7558.1625
2315.51999	7568.4625
2318.37489	7573.8625
2321.22797	7554.5625
2324.07925	7555.3625
2326.92871	7538.7625
2329.77637	7542.9625
2332.62222	7520.6625
2335.46626	7535.6625
2338.3085	7515.6625
2341.14893	7510.4625
2343.98756	7535.4625
2346.8244	7532.3625
2349.65943	7528.4625
2352.49267	7535.8625
2355.32411	7534.4625
2358.15376	7526.9625
2360.98161	7505.3625
2363.80768	7511.3625
2366.63195	7505.2625
2369.45444	7499.7625
2372.27514	7457.5625
2375.09405	7467.4625
2377.91118	7450.3625
2380.72652	7424.1625
2383.54009	7409.6625
2386.35187	7410.0625
2389.16188	7378.7625
2391.97011	7370.7625
2394.77657	7381.0625
2397.58125	7338.4625
2400.38416	7355.0625
2403.18529	7319.2625
2405.98466	7327.1625
2408.78226	7295.8625
2411.57809	7294.3625
2414.37216	7289.0625
2417.16446	7275.6625
2419.955	7257.5625
2422.74378	7292.2625
2425.5308	7259.4625
2428.31606	7253.5625
2431.09956	7249.6625
2433.88131	7248.7625
2436.6613	7243.0625
2439.43954	7250.6625
2442.21603	7253.9625
2444.99077	7242.3625
2447.76377	7238.7625
2450.53501	7215.9625
2453.30451	7236.7625
2456.07226	7227.2625
2458.83827	7228.9625
2461.60254	7219.8625
2464.36507	7226.0625
2467.12586	7216.9625
2469.88492	7232.4625
2472.64224	7249.2625
2475.39782	7235.7625
2478.15167	7235.9625
2480.90379	7242.3625
2483.65417	7236.3625
2486.40283	7251.6625
2489.14976	7267.1625
2491.89497	7247.9625
2494.63845	7272.3625
2497.3802	7244.7625
2500.12024	7252.8625
2502.85855	7255.5625
2505.59514	7253.1625
2508.33002	7237.8625
2511.06318	7232.7625
2513.79462	7221.0625
2516.52435	7217.9625
2519.25237	7206.0625
2521.97867	7185.9625
2524.70327	7199.8625
2527.42616	7205.9625
2530.14734	7185.0625
2532.86681	7186.3625
2535.58458	7188.9625
2538.30065	7182.9625
2541.01501	7188.8625
2543.72768	7183.5625
2546.43864	7171.0625
2549.14791	7179.1625
2551.85548	7166.5625
2554.56136	7138.0625
2557.26554	7140.2625
2559.96803	7124.8625
2562.66883	7157.6625
2565.36794	7140.5625
2568.06536	7138.6625
2570.7611	7109.9625
2573.45514	7122.7625
2576.14751	7103.3625
2578.83819	7096.6625
2581.52719	7103.9625
2584.21451	7083.3625
2586.90015	7096.1625
2589.58411	7082.6625
2592.2664	7111.2625
2594.94701	7083.3625
2597.62594	7093.3625
2600.30321	7084.3625
2602.9788	7066.5625
2605.65273	7078.2625
2608.32498	7070.0625
2610.99557	7050.1625
2613.66449	7074.3625
2616.33175	7071.8625
2618.99734	7093.2625
2621.66128	7078.5625
2624.32355	7067.3625
2626.98416	7077.8625
2629.64311	7071.4625
2632.30041	7074.1625
2634.95605	7078.4625
2637.61004	7077.5625
2640.26238	7044.2625
2642.91306	7060.2625
2645.56209	7039.6625
2648.20948	7029.3625
2650.85521	7035.7625
2653.4993	7013.8625
2656.14175	7025.1625
2658.78255	7035.0625
2661.42171	7032.6625
2664.05923	7038.0625
2666.6951	7048.3625
2669.32934	7049.4625
2671.96194	7041.9625
2674.59291	7066.4625
2677.22224	7052.1625
2679.84993	7049.5625
2682.476	7043.1625
2685.10043	7039.4625
2687.72324	7025.2625
2690.34441	7012.7625
2692.96396	7008.7625
2695.58188	7027.5625
2698.19818	7014.5625
2700.81285	7014.0625
2703.4259	7017.4625
2706.03733	7006.6625
2708.64714	7005.4625
2711.25533	7023.2625
2713.86191	7011.2625
2716.46687	7027.6625
2719.07021	7014.0625
2721.67194	7034.5625
2724.27206	7032.4625
2726.87057	7044.4625
2729.46747	7058.7625
2732.06276	7049.4625
2734.65644	7050.5625
2737.24852	7059.1625
2739.83899	7033.8625
2742.42786	7050.3625
2745.01513	7043.6625
2747.60079	7035.7625
2750.18486	7041.7625
2752.76733	7022.0625
2755.3482	7020.3625
2757.92747	7048.3625
2760.50515	7026.6625
2763.08123	7013.9625
2765.65573	7013.9625
2768.22863	7005.0625
2770.79994	7016.2625
2773.36967	7022.1625
2775.9378	7006.0625
2778.50435	7024.4625
2781.06932	7011.8625
2783.6327	7008.7625
2786.1945	7015.6625
2788.75471	7010.2625
2791.31335	6991.2625
2793.87041	7000.7625
2796.42589	6952.3625
2798.97979	6950.6625
2801.53212	6956.4625
2804.08288	6945.9625
2806.63206	6935.1625
2809.17967	6913.9625
2811.72571	6903.5625
2814.27018	6886.0625
2816.81308	6877.4625
2819.35442	6888.2625
2821.89419	6891.6625
2824.43239	6890.2625
2826.96904	6864.5625
2829.50412	6852.4625
2832.03763	6862.6625
2834.56959	6854.9625
2837.1	6841.8625
2839.62884	6845.8625
2842.15613	6856.9625
2844.68186	6853.6625
2847.20604	6856.3625
2849.72867	6879.9625
2852.24974	6859.3625
2854.76927	6861.9625
2857.28724	6873.3625
2859.80367	6871.9625
2862.31855	6856.0625
2864.83189	6845.7625
2867.34368	6835.4625
2869.85393	6818.9625
2872.36264	6832.5625
2874.8698	6837.6625
2877.37543	6820.5625
2879.87952	6834.0625
2882.38207	6826.8625
2884.88308	6809.4625
2887.38256	6814.5625
2889.88051	6830.8625
2892.37692	6832.2625
2894.8718	6829.1625
2897.36515	6868.3625
2899.85698	6870.9625
2902.34727	6874.8625
2904.83604	6852.6625
2907.32328	6867.2625
2909.809	6895.6625
2912.29319	6884.5625
2914.77587	6911.0625
2917.25702	6899.7625
2919.73665	6887.6625
2922.21476	6907.4625
2924.69136	6876.8625
2927.16644	6895.9625
2929.64	6875.6625
2932.11205	6870.4625
2934.58258	6826.6625
2937.05161	6855.8625
2939.51912	6849.4625
2941.98513	6846.5625
2944.44962	6812.1625
2946.91261	6790.1625
2949.37409	6804.2625
2951.83407	6792.3625
2954.29254	6795.2625
2956.74951	6803.4625
2959.20498	6779.1625
2961.65895	6767.4625
2964.11142	6783.7625
2966.56239	6757.7625
2969.01186	6746.7625
2971.45984	6731.1625
2973.90632	6748.7625
2976.35131	6731.0625
2978.7948	6731.1625
2981.23681	6700.9625
2983.67732	6680.9625
2986.11635	6662.1625
2988.55388	6683.6625
2990.98993	6651.0625
2993.4245	6651.8625
2995.85758	6625.5625
2998.28917	6609.4625
3000.71928	6592.1625
3003.14791	6603.7625
3005.57506	6594.6625
3008.00073	6566.5625
3010.42493	6571.2625
3012.84764	6570.2625
3015.26888	6569.8625
3017.68865	6549.0625
3020.10694	6548.1625
3022.52376	6515.2625
3024.9391	6513.9625
3027.35298	6525.8625
3029.76539	6527.1625
3032.17632	6526.5625
3034.5858	6515.9625
3036.9938	6514.3625
3039.40034	6496.9625
3041.80542	6523.9625
3044.20903	6498.4625
3046.61118	6481.3625
3049.01187	6481.2625
3051.4111	6496.0625
3053.80888	6477.5625
3056.20519	6466.3625
3058.60005	6423.3625
3060.99345	6437.1625
3063.3854	6417.7625
3065.7759	6415.3625
3068.16494	6405.8625
3070.55254	6391.6625
3072.93868	6400.9625
3075.32338	6378.7625
3077.70662	6383.0625
3080.08842	6346.7625
3082.46878	6347.0625
3084.84769	6327.0625
3087.22515	6331.7625
3089.60118	6327.8625
3091.97576	6339.9625
3094.3489	6348.0625
3096.72061	6349.5625
3099.09087	6360.3625
3101.4597	6341.0625
3103.82709	6354.4625
3106.19305	6344.8625
3108.55757	6343.1625
3110.92066	6342.1625
3113.28232	6328.7625
3115.64255	6310.1625
3118.00134	6289.1625
3120.35871	6290.9625
3122.71466	6299.2625
3125.06917	6283.2625
3127.42226	6261.2625
3129.77393	6260.3625
3132.12417	6263.2625
3134.47299	6291.7625
3136.82039	6282.1625
3139.16636	6274.1625
3141.51092	6274.4625
3143.85406	6287.5625
3146.19579	6288.8625
3148.53609	6311.0625
3150.87499	6317.2625
3153.21246	6305.1625
3155.54853	6321.4625
3157.88318	6322.8625
3160.21642	6306.5625
3162.54826	6317.4625
3164.87868	6315.6625
3167.2077	6322.4625
3169.5353	6342.1625
3171.86151	6330.0625
3174.18631	6344.7625
3176.5097	6341.2625
3178.83169	6322.1625
3181.15228	6328.9625
3183.47147	6326.6625
3185.78926	6322.4625
3188.10565	6316.2625
3190.42065	6326.3625
3192.73424	6343.2625
3195.04645	6326.7625
3197.35725	6336.9625
3199.66667	6337.3625
3201.97469	6337.9625
3204.28132	6340.5625
3206.58656	6350.2625
3208.8904	6341.4625
3211.19287	6352.0625
3213.49394	6374.1625
3215.79363	6354.9625
3218.09193	6349.3625
3220.38884	6363.9625
3222.68438	6376.3625
3224.97853	6360.0625
3227.2713	6359.0625
3229.56269	6370.9625
3231.8527	6362.7625
3234.14133	6348.8625
3236.42858	6333.4625
3238.71446	6338.0625
3240.99896	6342.1625
3243.28209	6348.4625
3245.56384	6320.0625
3247.84423	6319.0625
3250.12324	6309.9625
3252.40088	6319.5625
3254.67715	6300.6625
3256.95205	6316.5625
3259.22558	6298.9625
3261.49775	6302.8625
3263.76855	6298.9625
3266.03799	6279.8625
3268.30606	6285.6625
3270.57277	6275.8625
3272.83812	6266.3625
3275.10211	6253.8625
3277.36474	6239.2625
3279.62601	6244.5625
3281.88593	6234.3625
3284.14448	6230.8625
3286.40168	6251.3625
3288.65753	6243.2625
3290.91202	6232.6625
3293.16516	6224.2625
3295.41695	6198.5625
3297.66738	6171.8625
3299.91647	6141.4625
3302.16421	6114.6625
3304.4106	6097.4625
3306.65564	6067.3625
3308.89933	6032.3625
3311.14169	5990.7625
3313.38269	5961.5625
3315.62236	5900.6625
3317.86068	5879.6625
3320.09766	5820.7625
3322.3333	5800.4625
3324.5676	5783.7625
3326.80056	5694.7625
3329.03219	5648.7625
3331.26248	2.7625
3333.49143	-0.5375
3335.71905	-2.2375
