Data from AgNPs_FTO_APTES_UA_1uM_CRN_10uM_R6G_20uM_NaF_0.1M_Addition_RamanShift__4__15-02-29-673.txt Node

Date: Thu Jan 27 15:02:29 GMT 2022
User: TCL
Spectrometer: QEP01345
Trigger mode: 4
Integration Time (sec): 7.000000E0
Scans to average: 10
Electric dark correction enabled: true
Nonlinearity correction enabled: false
Boxcar width: 0
XAxis mode: Raman Shifts
Number of Pixels in Spectrum: 1044
>>>>>Begin Spectral Data<<<<<
46.04893	1
50.45542	-0.1
54.85868	-1
59.25871	-0.7
63.6555	51
68.04907	48.7
72.43941	50.8
76.82654	58.5
81.21044	55.7
85.59113	59.3
89.96862	58.5
94.34289	63
98.71396	65.1
103.08183	65.2
107.4465	69.7
111.80798	71
116.16626	72.4
120.52136	77.7
124.87327	75.2
129.222	76.9
133.56755	80.6
137.90993	84.3
142.24913	90.4
146.58517	101.6
150.91804	118.9
155.24774	139.3
159.57429	164.4
163.89768	210.8
168.21792	275.8
172.53501	370.1
176.84895	515
181.15975	726.4
185.46741	995.9
189.77193	1378.8
194.07331	1842.3
198.37157	2366.8
202.6667	2935.8
206.9587	3489.9
211.24758	4031.8
215.53334	4566.2
219.81599	5131.2
224.09553	5768.8
228.37195	6462.8
232.64527	7224.6
236.91549	8040.3
241.18261	8833.8
245.44663	9631.4
249.70755	10277.1
253.96539	10870.8
258.22014	11416.8
262.4718	11843.6
266.72039	12108
270.96589	12270.5
275.20832	12268.1
279.44768	12225.7
283.68397	12103.9
287.91719	11988
292.14735	11923.7
296.37445	11882.7
300.59849	11929.8
304.81948	11996.2
309.03742	12022.6
313.25231	11951.3
317.46415	11762.8
321.67296	11544.5
325.87872	11318.4
330.08145	11220.1
334.28114	11193.9
338.47781	11263.8
342.67145	11399.4
346.86207	11571.5
351.04966	11771
355.23424	11992.7
359.4158	12180.4
363.59435	12331.6
367.76989	12451
371.94243	12534.8
376.11196	12621
380.27849	12666.9
384.44203	12712.8
388.60257	12829.3
392.76012	12945.5
396.91468	13089.6
401.06626	13292.2
405.21485	13430
409.36047	13406.1
413.50311	13280.5
417.64277	13222.3
421.77947	13259.1
425.9132	13315.1
430.04396	13352.2
434.17176	13424.7
438.2966	13504.9
442.41849	13682.9
446.53742	13988
450.6534	14407.7
454.76644	14683
458.87653	14757.5
462.98368	14657.9
467.08789	14471.7
471.18916	14213.3
475.2875	13987
479.38291	13812.2
483.4754	13723.4
487.56496	13576.3
491.6516	13443
495.73531	13337.1
499.81612	13297.2
503.89401	13396.6
507.96899	13468.3
512.04106	13414.6
516.11023	13329.3
520.1765	13215.7
524.23987	13119.3
528.30034	13056.3
532.35792	12912.9
536.41261	12785.4
540.46441	12665.8
544.51333	12634.7
548.55936	12735.4
552.60252	12992.6
556.64279	13273.7
560.6802	13475.6
564.71473	13563.2
568.7464	13686.6
572.7752	13937.4
576.80114	14287.7
580.82422	14696.5
584.84444	15205.4
588.86181	15780.2
592.87633	16278.6
596.888	16232.5
600.89682	15662
604.9028	15549.3
608.90594	16389.9
612.90624	17428.8
616.90371	16571.4
620.89834	14352.2
624.89015	13314.5
628.87913	13162.5
632.86528	13169.6
636.84862	13087.5
640.82913	12878.6
644.80683	12611.6
648.78172	12445.8
652.75379	12439.2
656.72306	12564.1
660.68952	12741.1
664.65319	12670.5
668.61405	12510.8
672.57211	12464.7
676.52738	12516.2
680.47986	12496.7
684.42955	12434.7
688.37646	12388.6
692.32058	12433.4
696.26192	12633
700.20048	12814.6
704.13626	12894.5
708.06928	12837.2
711.99952	12767.6
715.927	12756.9
719.85171	12852.1
723.77365	12814
727.69284	12643
731.60928	12461.9
735.52295	12368.3
739.43388	12419.4
743.34206	12442.8
747.24749	12504.8
751.15017	12625.7
755.05012	12824.4
758.94733	13118.2
762.8418	13667.8
766.73354	14447.9
770.62254	15206.6
774.50882	15355.3
778.39237	14810.4
782.27321	13975.1
786.15132	13223.2
790.02671	12820.5
793.89938	12619.1
797.76935	12552.6
801.6366	12551.6
805.50115	12467.5
809.36299	12440.2
813.22213	12331
817.07857	12257.1
820.93231	12208.6
824.78336	12188.1
828.63172	12136.7
832.47738	12165.8
836.32036	12209.4
840.16066	12256.6
843.99827	12311.1
847.8332	12266.4
851.66546	12202.8
855.49504	12193.5
859.32195	12172.7
863.1462	12138.5
866.96777	12093.5
870.78668	12083.3
874.60293	12086.4
878.41652	12070.2
882.22745	12143.4
886.03573	12171.7
889.84136	12172.9
893.64433	12132.1
897.44466	12052
901.24235	12002.9
905.0374	11991.9
908.8298	11947.9
912.61957	11967.5
916.40671	12098.9
920.19121	12227.2
923.97308	12414.2
927.75233	12476.5
931.52895	12429.4
935.30295	12245.8
939.07433	12082.3
942.84309	11915.7
946.60924	11896.2
950.37278	11854.5
954.13371	11831.2
957.89203	11758.9
961.64774	11748.3
965.40086	11705.5
969.15137	11718
972.89929	11658.4
976.64461	11627.1
980.38733	11670.3
984.12747	11714.6
987.86502	11811.7
991.59999	11965.7
995.33237	12154.8
999.06217	12480.1
1002.78939	12845.6
1006.51404	13116.8
1010.23611	13267.3
1013.95561	13349.2
1017.67255	13369.4
1021.38692	13230.3
1025.09872	13060.7
1028.80796	13139.7
1032.51465	13559.2
1036.21877	13951.7
1039.92035	14081.2
1043.61937	13889.1
1047.31584	13577.2
1051.00976	13207.7
1054.70114	12949.2
1058.38998	12899.4
1062.07627	12907.2
1065.76003	12951.3
1069.44126	13040.2
1073.11995	13221.6
1076.79611	13377.5
1080.46974	13476.7
1084.14085	13555.2
1087.80943	13664.5
1091.47549	13730.3
1095.13903	13723
1098.80005	13540.4
1102.45857	13308.7
1106.11456	13112.7
1109.76805	13003.1
1113.41903	13022.9
1117.06751	13087.8
1120.71348	13161.9
1124.35696	13267.6
1127.99793	13373.8
1131.63641	13481.2
1135.2724	13419.9
1138.90589	13383.9
1142.5369	13375.1
1146.16542	13434.9
1149.79145	13485.2
1153.415	13556
1157.03607	13702.2
1160.65467	14071.9
1164.27079	14653
1167.88443	15424.4
1171.49561	16209.9
1175.10432	17151.3
1178.71056	18362.1
1182.31434	19601.8
1185.91565	20220.8
1189.51451	20141.9
1193.11091	19631.2
1196.70485	18936.3
1200.29634	18277
1203.88538	17831.1
1207.47197	17555.5
1211.05612	17279.5
1214.63782	16970.9
1218.21708	16607.3
1221.79391	16288.8
1225.36829	16056
1228.94024	15836.4
1232.50976	15575.8
1236.07685	15318.2
1239.6415	15188.5
1243.20374	15211.8
1246.76355	15323.9
1250.32093	15572.7
1253.8759	15910.6
1257.42845	16299.8
1260.97859	16737.9
1264.52631	17192.5
1268.07163	17691.2
1271.61453	18249.9
1275.15503	18804.1
1278.69312	19364.7
1282.22882	19828.1
1285.76211	20305.2
1289.29301	20887.7
1292.82151	21657.4
1296.34761	22727.4
1299.87133	24108.4
1303.39266	25651.3
1306.9116	27129.4
1310.42815	28190.3
1313.94233	28591.9
1317.45412	28163.2
1320.96354	27360.2
1324.47058	26659.1
1327.97525	26127.6
1331.47754	25774.4
1334.97747	25586.1
1338.47502	25346.1
1341.97022	25003.6
1345.46305	24544.7
1348.95352	24248.6
1352.44163	24372.5
1355.92738	25073.3
1359.41078	26282.4
1362.89183	27215.2
1366.37053	26807.2
1369.84688	24850.7
1373.32088	22265
1376.79254	20345
1380.26186	19690.9
1383.72883	19651.3
1387.19347	19667.6
1390.65578	19428.3
1394.11575	19284
1397.57339	19413.3
1401.0287	19713
1404.48168	20010.7
1407.93234	20105
1411.38068	19891.2
1414.82669	19419.8
1418.27039	18761
1421.71177	18085.2
1425.15083	17471.1
1428.58758	17145.1
1432.02203	17308.2
1435.45416	17753.7
1438.88399	18284.9
1442.31151	18701.5
1445.73673	18880.2
1449.15965	18981.3
1452.58027	18946.7
1455.9986	18833.6
1459.41463	18846.5
1462.82837	19042.1
1466.23982	19440.7
1469.64898	19791.7
1473.05586	20105.7
1476.46045	20224.8
1479.86276	20171.7
1483.26279	19977.7
1486.66054	19831.1
1490.05602	19856.9
1493.44922	20050.1
1496.84016	20166.5
1500.22882	20355.9
1503.61521	20745.2
1506.99934	21189.3
1510.38121	21659.9
1513.76081	21734.6
1517.13816	21351
1520.51324	20720.6
1523.88607	20230.4
1527.25665	20024.4
1530.62498	20004.3
1533.99105	19994.4
1537.35488	19810.6
1540.71647	19496.2
1544.07581	19121.6
1547.4329	18694.5
1550.78776	18262.5
1554.14038	17959.8
1557.49077	17774.1
1560.83892	17652.4
1564.18484	17562.5
1567.52853	17584.5
1570.86999	17705.6
1574.20922	17989
1577.54624	18274.7
1580.88103	18400.5
1584.2136	18602.7
1587.54395	19256.8
1590.87208	20278.1
1594.19801	21630.2
1597.52172	22839
1600.84321	23263
1604.16251	22221
1607.47959	20454
1610.79447	18586.4
1614.10715	16949.7
1617.41763	15739.8
1620.7259	14917.2
1624.03199	14542.9
1627.33587	14590.1
1630.63757	15013.2
1633.93707	15852.6
1637.23439	17178.3
1640.52951	19216.7
1643.82246	21587.7
1647.11321	23450.6
1650.40179	23763.9
1653.68819	22033.9
1656.97241	19152.6
1660.25446	16490.4
1663.53433	14559.9
1666.81203	13383.7
1670.08756	12635.5
1673.36092	12213.3
1676.63211	11896.6
1679.90115	11668.8
1683.16801	11525
1686.43272	11399.7
1689.69527	11307.6
1692.95567	11191.4
1696.2139	11177.5
1699.46999	11065.8
1702.72392	11022.1
1705.97571	11024.5
1709.22535	11041.7
1712.47284	11060.9
1715.71819	11070.5
1718.96139	11033.8
1722.20246	11042.5
1725.44139	10992.4
1728.67818	10958.2
1731.91284	10885.1
1735.14537	10847.5
1738.37576	10789.4
1741.60403	10750.9
1744.83017	10712.3
1748.05418	10669.5
1751.27607	10643.4
1754.49584	10615.6
1757.71349	10588.7
1760.92903	10562.2
1764.14244	10549.3
1767.35375	10555.4
1770.56294	10531
1773.77002	10543.6
1776.97499	10556
1780.17785	10552.3
1783.37861	10547.1
1786.57727	10541
1789.77382	10536.5
1792.96828	10521.9
1796.16064	10495.7
1799.3509	10488.6
1802.53907	10474.1
1805.72514	10447
1808.90913	10425.9
1812.09102	10383.4
1815.27083	10401.6
1818.44856	10385.3
1821.6242	10385.2
1824.79776	10325.2
1827.96924	10330.7
1831.13864	10331.7
1834.30597	10341.8
1837.47122	10317
1840.6344	10344.6
1843.7955	10329.4
1846.95454	10306.2
1850.11151	10318.8
1853.26642	10334.2
1856.41926	10316.9
1859.57004	10351.7
1862.71876	10303.9
1865.86542	10306.3
1869.01003	10310.2
1872.15258	10295.6
1875.29308	10277
1878.43152	10267
1881.56792	10264.1
1884.70227	10248.4
1887.83457	10234.7
1890.96482	10244.2
1894.09304	10236.1
1897.21921	10215.1
1900.34335	10223.8
1903.46544	10230.7
1906.58551	10205.3
1909.70353	10160.4
1912.81953	10152.4
1915.93349	10162.4
1919.04543	10136.2
1922.15534	10124
1925.26322	10090.2
1928.36908	10092.3
1931.47292	10070.4
1934.57473	10026.9
1937.67453	10013
1940.77232	10001.2
1943.86808	9971.2
1946.96184	9946.4
1950.05358	9924.2
1953.14331	9891.7
1956.23103	9851.4
1959.31675	9841.1
1962.40046	9838.6
1965.48217	9806.2
1968.56188	9773.4
1971.63959	9772.9
1974.7153	9732.9
1977.78901	9692.9
1980.86073	9662.7
1983.93046	9666.4
1986.99819	9617.8
1990.06394	9579.9
1993.1277	9544
1996.18947	9534.1
1999.24925	9519.9
2002.30706	9490.2
2005.36288	9474
2008.41672	9436.7
2011.46859	9410.4
2014.51848	9397.7
2017.56639	9391.6
2020.61233	9363.7
2023.6563	9350.5
2026.6983	9339.1
2029.73833	9330.6
2032.7764	9303.2
2035.8125	9295.7
2038.84664	9263.9
2041.87881	9266.9
2044.90903	9255.4
2047.93729	9223.4
2050.96359	9240.2
2053.98794	9229.8
2057.01034	9199.9
2060.03078	9217.2
2063.04927	9199.2
2066.06582	9209.4
2069.08042	9199.4
2072.09307	9165.2
2075.10378	9192.7
2078.11255	9170.8
2081.11938	9178.7
2084.12426	9174.4
2087.12722	9161.9
2090.12824	9172.4
2093.12732	9175.3
2096.12447	9150.7
2099.11969	9167.8
2102.11299	9181.6
2105.10435	9182
2108.09379	9193.9
2111.08131	9198.4
2114.0669	9198.8
2117.05057	9218.3
2120.03233	9229.6
2123.01216	9227.2
2125.99008	9236.2
2128.96609	9243.7
2131.94018	9248.1
2134.91236	9262
2137.88263	9266.9
2140.851	9290.5
2143.81746	9298.5
2146.78201	9286.5
2149.74466	9297
2152.7054	9304.8
2155.66425	9285.6
2158.6212	9287.7
2161.57625	9294.1
2164.52941	9305.2
2167.48067	9283.9
2170.43004	9261.9
2173.37752	9292.1
2176.32311	9288.1
2179.26681	9305.3
2182.20863	9303.7
2185.14856	9306
2188.08661	9307.3
2191.02278	9324.1
2193.95707	9304.5
2196.88948	9313.6
2199.82001	9315.6
2202.74867	9314.7
2205.67545	9301.3
2208.60037	9294.5
2211.52341	9276.4
2214.44458	9278.3
2217.36388	9265.7
2220.28132	9244.1
2223.1969	9262.6
2226.11061	9250
2229.02246	9222.5
2231.93245	9218.8
2234.84058	9198.7
2237.74686	9159.7
2240.65128	9184.9
2243.55385	9149.2
2246.45456	9146
2249.35343	9149.7
2252.25044	9126.4
2255.14561	9122.5
2258.03893	9099.5
2260.93041	9080.8
2263.82004	9062.4
2266.70783	9056.2
2269.59378	9052.5
2272.4779	9005.6
2275.36017	8982.6
2278.24061	8992.4
2281.11922	8964.4
2283.996	8968.6
2286.87094	8988.9
2289.74405	8952.8
2292.61534	8932.6
2295.4848	8940.9
2298.35243	8950.5
2301.21824	8937.8
2304.08223	8965
2306.94439	8968
2309.80474	8974.4
2312.66327	8976.3
2315.51999	8983
2318.37489	8971.6
2321.22797	8967.6
2324.07925	8962.6
2326.92871	8945.6
2329.77637	8932.3
2332.62222	8943.1
2335.46626	8917.6
2338.3085	8906.6
2341.14893	8924.4
2343.98756	8950.3
2346.8244	8926.7
2349.65943	8926.6
2352.49267	8913.4
2355.32411	8921.1
2358.15376	8908.4
2360.98161	8877.5
2363.80768	8894.3
2366.63195	8879.6
2369.45444	8869.7
2372.27514	8875.9
2375.09405	8853.6
2377.91118	8840.9
2380.72652	8823.5
2383.54009	8809.2
2386.35187	8793.7
2389.16188	8764.1
2391.97011	8765.9
2394.77657	8762.8
2397.58125	8753.8
2400.38416	8747.7
2403.18529	8739.4
2405.98466	8736.8
2408.78226	8729.6
2411.57809	8703.2
2414.37216	8690.8
2417.16446	8667.6
2419.955	8670.6
2422.74378	8679.6
2425.5308	8642.4
2428.31606	8655.1
2431.09956	8660
2433.88131	8659.7
2436.6613	8658.3
2439.43954	8652.2
2442.21603	8646.5
2444.99077	8636.2
2447.76377	8668
2450.53501	8644.1
2453.30451	8644.3
2456.07226	8645
2458.83827	8634.4
2461.60254	8662.2
2464.36507	8638.8
2467.12586	8635.1
2469.88492	8606.6
2472.64224	8643.9
2475.39782	8665.6
2478.15167	8635.9
2480.90379	8637.9
2483.65417	8651.9
2486.40283	8667.2
2489.14976	8676.4
2491.89497	8660
2494.63845	8676.3
2497.3802	8647.4
2500.12024	8673.5
2502.85855	8655.3
2505.59514	8661
2508.33002	8646.9
2511.06318	8652
2513.79462	8661.4
2516.52435	8647.9
2519.25237	8660.6
2521.97867	8629.8
2524.70327	8645.8
2527.42616	8631.3
2530.14734	8626
2532.86681	8613.9
2535.58458	8623.6
2538.30065	8600.4
2541.01501	8600
2543.72768	8617
2546.43864	8597.9
2549.14791	8581
2551.85548	8589.7
2554.56136	8567.8
2557.26554	8585.6
2559.96803	8574.4
2562.66883	8579
2565.36794	8592.5
2568.06536	8576.4
2570.7611	8573
2573.45514	8538.7
2576.14751	8539
2578.83819	8554.2
2581.52719	8542.4
2584.21451	8535.3
2586.90015	8537.1
2589.58411	8549.1
2592.2664	8544.1
2594.94701	8513.1
2597.62594	8507.3
2600.30321	8507.8
2602.9788	8511.6
2605.65273	8490.1
2608.32498	8501.8
2610.99557	8495
2613.66449	8497.6
2616.33175	8498.4
2618.99734	8521.2
2621.66128	8517.6
2624.32355	8506.3
2626.98416	8526.8
2629.64311	8511.9
2632.30041	8523.3
2634.95605	8494.5
2637.61004	8459.2
2640.26238	8475.8
2642.91306	8469.7
2645.56209	8454.9
2648.20948	8465.8
2650.85521	8469.4
2653.4993	8460.6
2656.14175	8461.9
2658.78255	8471.5
2661.42171	8492.2
2664.05923	8499.5
2666.6951	8509.5
2669.32934	8501.6
2671.96194	8492.6
2674.59291	8521.9
2677.22224	8497.8
2679.84993	8497.4
2682.476	8481.5
2685.10043	8499.1
2687.72324	8485
2690.34441	8489.4
2692.96396	8485.4
2695.58188	8493.4
2698.19818	8473.9
2700.81285	8490
2703.4259	8462
2706.03733	8475.6
2708.64714	8472.8
2711.25533	8497.6
2713.86191	8503
2716.46687	8532.8
2719.07021	8529.5
2721.67194	8552.3
2724.27206	8564.7
2726.87057	8540.1
2729.46747	8558.8
2732.06276	8554.6
2734.65644	8567.4
2737.24852	8560.3
2739.83899	8555.5
2742.42786	8565
2745.01513	8553.7
2747.60079	8549.2
2750.18486	8567.6
2752.76733	8569.4
2755.3482	8540.4
2757.92747	8554.7
2760.50515	8546.2
2763.08123	8535.6
2765.65573	8523.3
2768.22863	8534.1
2770.79994	8530.6
2773.36967	8536
2775.9378	8542.2
2778.50435	8548
2781.06932	8527.4
2783.6327	8536.1
2786.1945	8528.3
2788.75471	8526
2791.31335	8498
2793.87041	8491.2
2796.42589	8476.1
2798.97979	8482.4
2801.53212	8487.6
2804.08288	8475.2
2806.63206	8437.1
2809.17967	8425.2
2811.72571	8420
2814.27018	8409.7
2816.81308	8395.8
2819.35442	8384.1
2821.89419	8408
2824.43239	8391.8
2826.96904	8383
2829.50412	8380.4
2832.03763	8367.1
2834.56959	8352.6
2837.1	8358
2839.62884	8362.7
2842.15613	8377.1
2844.68186	8367.9
2847.20604	8391.3
2849.72867	8398.5
2852.24974	8371.4
2854.76927	8360
2857.28724	8355.1
2859.80367	8376.8
2862.31855	8345.1
2864.83189	8339.9
2867.34368	8340.5
2869.85393	8338.2
2872.36264	8341.9
2874.8698	8335.6
2877.37543	8326
2879.87952	8323.8
2882.38207	8340.4
2884.88308	8342
2887.38256	8377.4
2889.88051	8368.7
2892.37692	8372.5
2894.8718	8359.8
2897.36515	8371.3
2899.85698	8372.6
2902.34727	8367.9
2904.83604	8397
2907.32328	8399
2909.809	8425.2
2912.29319	8433.3
2914.77587	8429.4
2917.25702	8397.9
2919.73665	8414.1
2922.21476	8418.9
2924.69136	8411.3
2927.16644	8404.7
2929.64	8402
2932.11205	8407.3
2934.58258	8382.8
2937.05161	8392.5
2939.51912	8389
2941.98513	8363
2944.44962	8351.7
2946.91261	8331.2
2949.37409	8344.2
2951.83407	8352
2954.29254	8343.3
2956.74951	8304.4
2959.20498	8328.9
2961.65895	8310.8
2964.11142	8332.3
2966.56239	8323.3
2969.01186	8328.1
2971.45984	8300.4
2973.90632	8298.4
2976.35131	8279.6
2978.7948	8259.6
2981.23681	8244.6
2983.67732	8265
2986.11635	8223
2988.55388	8197.3
2990.98993	8199.7
2993.4245	8190.5
2995.85758	8161.3
2998.28917	8159.7
3000.71928	8135.7
3003.14791	8137.8
3005.57506	8136.2
3008.00073	8128.6
3010.42493	8105.7
3012.84764	8105.1
3015.26888	8110.9
3017.68865	8072.4
3020.10694	8081.2
3022.52376	8072.2
3024.9391	8059.6
3027.35298	8068.2
3029.76539	8055.7
3032.17632	8050.2
3034.5858	8035.6
3036.9938	8043.8
3039.40034	8035.3
3041.80542	8042.4
3044.20903	8038.8
3046.61118	8052.2
3049.01187	8017.9
3051.4111	8009.2
3053.80888	8010.2
3056.20519	7995.2
3058.60005	7971.3
3060.99345	7958.6
3063.3854	7932.8
3065.7759	7928.5
3068.16494	7922.9
3070.55254	7909.9
3072.93868	7904.3
3075.32338	7882.9
3077.70662	7883.8
3080.08842	7878.6
3082.46878	7858.1
3084.84769	7862.4
3087.22515	7860.6
3089.60118	7843.7
3091.97576	7849.8
3094.3489	7857.8
3096.72061	7860.3
3099.09087	7868.2
3101.4597	7847.9
3103.82709	7872.6
3106.19305	7850.2
3108.55757	7855.5
3110.92066	7838.3
3113.28232	7833.4
3115.64255	7821.7
3118.00134	7833.2
3120.35871	7813.5
3122.71466	7785.6
3125.06917	7776.8
3127.42226	7763.1
3129.77393	7779.1
3132.12417	7774
3134.47299	7758.7
3136.82039	7764.3
3139.16636	7763.9
3141.51092	7778
3143.85406	7797.3
3146.19579	7794.9
3148.53609	7809
3150.87499	7806.9
3153.21246	7829.4
3155.54853	7834.5
3157.88318	7826
3160.21642	7845.8
3162.54826	7807.1
3164.87868	7831.9
3167.2077	7822.5
3169.5353	7839.3
3171.86151	7856.3
3174.18631	7847.4
3176.5097	7846.8
3178.83169	7852.8
3181.15228	7849.8
3183.47147	7806.1
3185.78926	7812.2
3188.10565	7813.5
3190.42065	7805.6
3192.73424	7799.6
3195.04645	7815.7
3197.35725	7825.9
3199.66667	7812.5
3201.97469	7820.6
3204.28132	7832.8
3206.58656	7831.6
3208.8904	7826
3211.19287	7841.9
3213.49394	7859.6
3215.79363	7845
3218.09193	7859.1
3220.38884	7842.2
3222.68438	7848.8
3224.97853	7843.2
3227.2713	7855
3229.56269	7832.6
3231.8527	7836.1
3234.14133	7834.3
3236.42858	7815.8
3238.71446	7813.6
3240.99896	7784.3
3243.28209	7813.9
3245.56384	7785.1
3247.84423	7784.8
3250.12324	7770.3
3252.40088	7778.5
3254.67715	7781.2
3256.95205	7766.4
3259.22558	7767.1
3261.49775	7754.7
3263.76855	7776.7
3266.03799	7750
3268.30606	7753.8
3270.57277	7724.9
3272.83812	7729.5
3275.10211	7712.2
3277.36474	7678.9
3279.62601	7697.3
3281.88593	7662.9
3284.14448	7701.4
3286.40168	7693.8
3288.65753	7701.2
3290.91202	7680.8
3293.16516	7669.1
3295.41695	7676.9
3297.66738	7598
3299.91647	7563.8
3302.16421	7533.5
3304.4106	7521.4
3306.65564	7475.7
3308.89933	7443.7
3311.14169	7384.9
3313.38269	7339
3315.62236	7290
3317.86068	7229.8
3320.09766	7183.7
3322.3333	7141.8
3324.5676	7138.5
3326.80056	7027.9
3329.03219	6979.6
3331.26248	3
3333.49143	-1.2
3335.71905	-1.5
