Data from AgNPs_FTO_APTES_UA_1uM_CRN_0uM_R6G_10uM_NaF_0.1M_Addition_RamanShift__44__11-56-59-461.txt Node

Date: Thu Jan 27 11:56:59 GMT 2022
User: TCL
Spectrometer: QEP01345
Trigger mode: 4
Integration Time (sec): 7.000000E0
Scans to average: 10
Electric dark correction enabled: true
Nonlinearity correction enabled: false
Boxcar width: 0
XAxis mode: Raman Shifts
Number of Pixels in Spectrum: 1044
>>>>>Begin Spectral Data<<<<<
46.04893	2.2375
50.45542	-0.3625
54.85868	-1.0625
59.25871	-1.1625
63.6555	54.6375
68.04907	61.0375
72.43941	60.2375
76.82654	64.1375
81.21044	66.3375
85.59113	64.7375
89.96862	70.3375
94.34289	71.5375
98.71396	77.5375
103.08183	74.1375
107.4465	80.5375
111.80798	81.1375
116.16626	79.7375
120.52136	89.6375
124.87327	91.1375
129.222	88.4375
133.56755	95.0375
137.90993	100.5375
142.24913	111.2375
146.58517	124.9375
150.91804	143.6375
155.24774	170.0375
159.57429	202.7375
163.89768	257.9375
168.21792	344.8375
172.53501	462.5375
176.84895	636.8375
181.15975	893.9375
185.46741	1251.0375
189.77193	1721.0375
194.07331	2307.3375
198.37157	2968.7375
202.6667	3674.2375
206.9587	4385.3375
211.24758	5055.7375
215.53334	5753.8375
219.81599	6529.3375
224.09553	7366.3375
228.37195	8299.3375
232.64527	9326.7375
236.91549	10383.5375
241.18261	11422.8375
245.44663	12366.9375
249.70755	13192.8375
253.96539	13898.6375
258.22014	14487.6375
262.4718	15006.4375
266.72039	15415.9375
270.96589	15597.5375
275.20832	15641.6375
279.44768	15526.1375
283.68397	15346.6375
287.91719	15185.4375
292.14735	15147.1375
296.37445	15187.2375
300.59849	15409.9375
304.81948	15647.8375
309.03742	15800.8375
313.25231	15725.5375
317.46415	15284.2375
321.67296	14649.9375
325.87872	14120.9375
330.08145	13841.7375
334.28114	13854.3375
338.47781	14020.4375
342.67145	14231.8375
346.86207	14593.7375
351.04966	15117.4375
355.23424	15688.8375
359.4158	16176.7375
363.59435	16484.8375
367.76989	16618.8375
371.94243	16692.7375
376.11196	16721.6375
380.27849	16818.8375
384.44203	16768.2375
388.60257	16796.4375
392.76012	16846.4375
396.91468	17042.1375
401.06626	17403.5375
405.21485	17680.1375
409.36047	17589.6375
413.50311	17188.3375
417.64277	16823.6375
421.77947	16665.9375
425.9132	16672.0375
430.04396	16729.6375
434.17176	16839.3375
438.2966	17057.5375
442.41849	17385.3375
446.53742	17947.7375
450.6534	18568.2375
454.76644	19014.6375
458.87653	19179.3375
462.98368	18984.3375
467.08789	18609.6375
471.18916	18187.0375
475.2875	17804.8375
479.38291	17509.9375
483.4754	17325.3375
487.56496	17160.0375
491.6516	16957.6375
495.73531	16750.3375
499.81612	16683.4375
503.89401	16815.2375
507.96899	16874.5375
512.04106	16902.4375
516.11023	16924.5375
520.1765	16934.8375
524.23987	16884.5375
528.30034	16701.0375
532.35792	16488.4375
536.41261	16209.2375
540.46441	15965.4375
544.51333	15884.0375
548.55936	16009.2375
552.60252	16342.2375
556.64279	16675.5375
560.6802	16857.1375
564.71473	16959.3375
568.7464	17330.0375
572.7752	17765.2375
576.80114	17856.6375
580.82422	17874.3375
584.84444	18046.5375
588.86181	18329.9375
592.87633	18710.9375
596.888	19098.5375
600.89682	19291.2375
604.9028	20237.5375
608.90594	22897.1375
612.90624	26230.8375
616.90371	25237.6375
620.89834	20161.7375
624.89015	17757.5375
628.87913	17415.6375
632.86528	17332.6375
636.84862	17092.9375
640.82913	16767.4375
644.80683	16244.5375
648.78172	15855.8375
652.75379	15784.4375
656.72306	16109.2375
660.68952	16607.6375
664.65319	16597.0375
668.61405	16158.1375
672.57211	15911.8375
676.52738	15910.2375
680.47986	15891.7375
684.42955	15836.4375
688.37646	15775.8375
692.32058	15823.4375
696.26192	15951.4375
700.20048	16154.0375
704.13626	16225.4375
708.06928	16146.2375
711.99952	15994.4375
715.927	15945.5375
719.85171	15970.3375
723.77365	15946.7375
727.69284	15735.0375
731.60928	15622.2375
735.52295	15593.6375
739.43388	15664.7375
743.34206	15781.4375
747.24749	15887.7375
751.15017	16033.1375
755.05012	16257.6375
758.94733	16800.9375
762.8418	17798.1375
766.73354	19459.5375
770.62254	21301.9375
774.50882	22061.1375
778.39237	21221.2375
782.27321	19340.3375
786.15132	17615.4375
790.02671	16578.2375
793.89938	16149.6375
797.76935	15980.0375
801.6366	15880.8375
805.50115	15851.0375
809.36299	15731.2375
813.22213	15611.1375
817.07857	15547.2375
820.93231	15543.1375
824.78336	15566.6375
828.63172	15603.0375
832.47738	15651.9375
836.32036	15733.3375
840.16066	15772.8375
843.99827	15842.3375
847.8332	15809.4375
851.66546	15695.6375
855.49504	15621.8375
859.32195	15591.1375
863.1462	15489.8375
866.96777	15407.3375
870.78668	15354.2375
874.60293	15333.0375
878.41652	15351.0375
882.22745	15437.0375
886.03573	15506.7375
889.84136	15509.3375
893.64433	15427.9375
897.44466	15341.9375
901.24235	15287.2375
905.0374	15255.0375
908.8298	15235.6375
912.61957	15247.2375
916.40671	15329.4375
920.19121	15565.3375
923.97308	15835.3375
927.75233	16054.6375
931.52895	16147.3375
935.30295	15982.8375
939.07433	15613.3375
942.84309	15327.6375
946.60924	15162.9375
950.37278	15109.8375
954.13371	15017.1375
957.89203	14845.0375
961.64774	14764.6375
965.40086	14737.3375
969.15137	14649.4375
972.89929	14585.1375
976.64461	14579.3375
980.38733	14617.9375
984.12747	14692.4375
987.86502	14890.7375
991.59999	15157.0375
995.33237	15612.6375
999.06217	16261.5375
1002.78939	17068.3375
1006.51404	17533.8375
1010.23611	17729.3375
1013.95561	17889.4375
1017.67255	17872.0375
1021.38692	17650.9375
1025.09872	17480.3375
1028.80796	17743.9375
1032.51465	18524.1375
1036.21877	19307.0375
1039.92035	19380.8375
1043.61937	18899.9375
1047.31584	18089.6375
1051.00976	17239.5375
1054.70114	16800.3375
1058.38998	16573.9375
1062.07627	16536.7375
1065.76003	16542.9375
1069.44126	16557.5375
1073.11995	16755.6375
1076.79611	16968.1375
1080.46974	17098.3375
1084.14085	17281.7375
1087.80943	17534.1375
1091.47549	17635.5375
1095.13903	17469.0375
1098.80005	17080.7375
1102.45857	16695.1375
1106.11456	16482.4375
1109.76805	16479.1375
1113.41903	16643.8375
1117.06751	16895.3375
1120.71348	17192.1375
1124.35696	17462.5375
1127.99793	17740.5375
1131.63641	17866.3375
1135.2724	17631.5375
1138.90589	17282.5375
1142.5369	17003.0375
1146.16542	16840.0375
1149.79145	16785.6375
1153.415	16791.6375
1157.03607	16947.7375
1160.65467	17244.5375
1164.27079	17792.0375
1167.88443	18719.9375
1171.49561	20029.4375
1175.10432	21953.0375
1178.71056	24489.9375
1182.31434	26784.0375
1185.91565	27993.6375
1189.51451	27931.4375
1193.11091	26746.4375
1196.70485	25026.7375
1200.29634	23517.6375
1203.88538	22303.8375
1207.47197	21307.9375
1211.05612	20549.6375
1214.63782	20186.6375
1218.21708	20136.4375
1221.79391	20418.4375
1225.36829	20629.3375
1228.94024	20620.7375
1232.50976	20346.7375
1236.07685	20007.2375
1239.6415	19700.0375
1243.20374	19557.9375
1246.76355	19591.0375
1250.32093	19800.0375
1253.8759	20296.1375
1257.42845	21004.5375
1260.97859	21633.2375
1264.52631	22243.9375
1268.07163	22849.5375
1271.61453	23612.4375
1275.15503	24391.7375
1278.69312	25198.4375
1282.22882	25902.1375
1285.76211	26489.4375
1289.29301	27080.0375
1292.82151	27785.6375
1296.34761	28713.2375
1299.87133	30101.8375
1303.39266	32012.3375
1306.9116	34699.3375
1310.42815	37681.2375
1313.94233	39675.3375
1317.45412	39759.3375
1320.96354	38343.1375
1324.47058	36381.2375
1327.97525	34608.7375
1331.47754	33394.8375
1334.97747	32773.9375
1338.47502	32672.8375
1341.97022	32723.1375
1345.46305	32690.8375
1348.95352	32533.9375
1352.44163	32808.1375
1355.92738	34015.8375
1359.41078	36581.2375
1362.89183	39442.6375
1366.37053	39304.0375
1369.84688	35508.4375
1373.32088	30826.8375
1376.79254	27508.8375
1380.26186	25920.6375
1383.72883	25361.6375
1387.19347	24966.5375
1390.65578	24469.5375
1394.11575	24293.8375
1397.57339	24484.7375
1401.0287	25000.7375
1404.48168	25603.5375
1407.93234	26074.2375
1411.38068	26226.5375
1414.82669	25981.5375
1418.27039	25295.4375
1421.71177	24360.4375
1425.15083	23565.4375
1428.58758	23093.6375
1432.02203	23051.0375
1435.45416	23357.9375
1438.88399	23671.8375
1442.31151	23973.3375
1445.73673	24183.0375
1449.15965	24398.4375
1452.58027	24436.4375
1455.9986	24337.5375
1459.41463	24331.0375
1462.82837	24542.4375
1466.23982	25064.9375
1469.64898	25576.2375
1473.05586	25892.4375
1476.46045	26054.1375
1479.86276	26183.2375
1483.26279	26277.3375
1486.66054	26426.1375
1490.05602	26700.5375
1493.44922	27146.9375
1496.84016	27613.8375
1500.22882	28270.3375
1503.61521	29262.8375
1506.99934	30747.5375
1510.38121	32310.1375
1513.76081	33251.0375
1517.13816	32581.2375
1520.51324	30583.5375
1523.88607	28420.6375
1527.25665	26837.2375
1530.62498	25899.0375
1533.99105	25318.4375
1537.35488	24968.9375
1540.71647	24761.2375
1544.07581	24514.4375
1547.4329	24248.5375
1550.78776	23906.0375
1554.14038	23728.2375
1557.49077	23671.3375
1560.83892	23707.0375
1564.18484	23743.7375
1567.52853	23798.0375
1570.86999	23864.4375
1574.20922	24086.1375
1577.54624	24180.5375
1580.88103	23994.0375
1584.2136	23747.9375
1587.54395	24130.9375
1590.87208	25366.4375
1594.19801	27314.8375
1597.52172	29530.4375
1600.84321	30668.5375
1604.16251	29608.2375
1607.47959	27200.0375
1610.79447	24478.4375
1614.10715	22082.7375
1617.41763	20267.1375
1620.7259	19163.3375
1624.03199	18654.7375
1627.33587	18702.3375
1630.63757	19334.4375
1633.93707	20541.3375
1637.23439	22236.8375
1640.52951	24487.5375
1643.82246	26952.6375
1647.11321	28939.0375
1650.40179	29522.9375
1653.68819	27994.5375
1656.97241	24538.8375
1660.25446	20993.8375
1663.53433	18410.4375
1666.81203	16778.4375
1670.08756	15827.4375
1673.36092	15241.6375
1676.63211	14881.4375
1679.90115	14571.1375
1683.16801	14380.8375
1686.43272	14249.5375
1689.69527	14108.5375
1692.95567	14025.8375
1696.2139	13953.0375
1699.46999	13824.5375
1702.72392	13834.1375
1705.97571	13849.5375
1709.22535	13864.7375
1712.47284	13885.3375
1715.71819	13915.4375
1718.96139	13900.3375
1722.20246	13847.2375
1725.44139	13780.0375
1728.67818	13741.6375
1731.91284	13648.5375
1735.14537	13582.7375
1738.37576	13542.7375
1741.60403	13477.4375
1744.83017	13432.6375
1748.05418	13354.5375
1751.27607	13348.6375
1754.49584	13307.1375
1757.71349	13305.7375
1760.92903	13271.0375
1764.14244	13248.7375
1767.35375	13261.5375
1770.56294	13207.5375
1773.77002	13231.6375
1776.97499	13196.8375
1780.17785	13227.1375
1783.37861	13229.9375
1786.57727	13232.7375
1789.77382	13208.1375
1792.96828	13193.6375
1796.16064	13183.4375
1799.3509	13188.1375
1802.53907	13148.8375
1805.72514	13117.6375
1808.90913	13111.4375
1812.09102	13066.9375
1815.27083	13026.0375
1818.44856	13032.5375
1821.6242	13007.2375
1824.79776	12985.8375
1827.96924	13002.0375
1831.13864	12973.2375
1834.30597	12955.7375
1837.47122	12968.2375
1840.6344	12970.6375
1843.7955	12977.6375
1846.95454	13008.6375
1850.11151	12990.2375
1853.26642	12998.0375
1856.41926	12993.3375
1859.57004	13035.0375
1862.71876	12998.2375
1865.86542	12999.7375
1869.01003	13023.2375
1872.15258	13023.5375
1875.29308	13057.5375
1878.43152	13023.1375
1881.56792	13067.2375
1884.70227	13074.7375
1887.83457	13053.7375
1890.96482	13039.3375
1894.09304	13047.6375
1897.21921	13058.3375
1900.34335	13079.1375
1903.46544	13079.3375
1906.58551	13093.0375
1909.70353	13088.6375
1912.81953	13082.6375
1915.93349	13085.7375
1919.04543	13063.3375
1922.15534	13019.9375
1925.26322	12973.1375
1928.36908	12959.5375
1931.47292	12922.7375
1934.57473	12859.5375
1937.67453	12817.4375
1940.77232	12760.0375
1943.86808	12685.4375
1946.96184	12651.0375
1950.05358	12597.1375
1953.14331	12570.1375
1956.23103	12522.7375
1959.31675	12490.2375
1962.40046	12412.6375
1965.48217	12382.6375
1968.56188	12350.2375
1971.63959	12337.5375
1974.7153	12293.4375
1977.78901	12245.6375
1980.86073	12211.1375
1983.93046	12172.2375
1986.99819	12099.5375
1990.06394	12065.2375
1993.1277	12043.3375
1996.18947	11991.4375
1999.24925	11968.8375
2002.30706	11944.3375
2005.36288	11909.6375
2008.41672	11855.2375
2011.46859	11837.3375
2014.51848	11799.5375
2017.56639	11795.9375
2020.61233	11740.2375
2023.6563	11756.9375
2026.6983	11713.6375
2029.73833	11686.4375
2032.7764	11691.8375
2035.8125	11670.8375
2038.84664	11671.4375
2041.87881	11638.2375
2044.90903	11632.8375
2047.93729	11597.3375
2050.96359	11584.0375
2053.98794	11557.3375
2057.01034	11558.4375
2060.03078	11534.2375
2063.04927	11565.7375
2066.06582	11529.3375
2069.08042	11532.2375
2072.09307	11504.0375
2075.10378	11513.6375
2078.11255	11499.2375
2081.11938	11488.7375
2084.12426	11464.9375
2087.12722	11470.3375
2090.12824	11481.9375
2093.12732	11461.7375
2096.12447	11463.9375
2099.11969	11459.2375
2102.11299	11438.2375
2105.10435	11469.4375
2108.09379	11459.0375
2111.08131	11458.0375
2114.0669	11459.4375
2117.05057	11475.1375
2120.03233	11466.4375
2123.01216	11483.5375
2125.99008	11471.9375
2128.96609	11492.7375
2131.94018	11505.6375
2134.91236	11512.1375
2137.88263	11494.5375
2140.851	11486.7375
2143.81746	11535.8375
2146.78201	11521.7375
2149.74466	11549.0375
2152.7054	11556.1375
2155.66425	11555.9375
2158.6212	11549.0375
2161.57625	11535.2375
2164.52941	11521.6375
2167.48067	11517.9375
2170.43004	11502.6375
2173.37752	11521.0375
2176.32311	11517.6375
2179.26681	11520.6375
2182.20863	11531.8375
2185.14856	11531.9375
2188.08661	11553.6375
2191.02278	11543.4375
2193.95707	11542.5375
2196.88948	11546.1375
2199.82001	11533.2375
2202.74867	11529.7375
2205.67545	11566.3375
2208.60037	11557.0375
2211.52341	11500.7375
2214.44458	11551.3375
2217.36388	11512.8375
2220.28132	11490.8375
2223.1969	11492.0375
2226.11061	11475.3375
2229.02246	11455.2375
2231.93245	11413.8375
2234.84058	11412.5375
2237.74686	11417.6375
2240.65128	11358.0375
2243.55385	11349.4375
2246.45456	11334.6375
2249.35343	11324.1375
2252.25044	11317.0375
2255.14561	11281.6375
2258.03893	11302.3375
2260.93041	11275.2375
2263.82004	11236.4375
2266.70783	11216.1375
2269.59378	11168.2375
2272.4779	11160.7375
2275.36017	11135.7375
2278.24061	11124.4375
2281.11922	11127.5375
2283.996	11075.7375
2286.87094	11080.8375
2289.74405	11072.0375
2292.61534	11060.2375
2295.4848	11046.7375
2298.35243	11063.6375
2301.21824	11052.8375
2304.08223	11087.8375
2306.94439	11075.0375
2309.80474	11095.3375
2312.66327	11104.0375
2315.51999	11109.5375
2318.37489	11129.0375
2321.22797	11117.2375
2324.07925	11093.2375
2326.92871	11108.8375
2329.77637	11115.6375
2332.62222	11090.2375
2335.46626	11062.4375
2338.3085	11090.1375
2341.14893	11101.7375
2343.98756	11097.9375
2346.8244	11124.6375
2349.65943	11123.8375
2352.49267	11138.5375
2355.32411	11142.8375
2358.15376	11124.2375
2360.98161	11101.2375
2363.80768	11090.1375
2366.63195	11062.5375
2369.45444	11055.3375
2372.27514	11024.8375
2375.09405	11014.9375
2377.91118	10953.7375
2380.72652	10918.5375
2383.54009	10902.5375
2386.35187	10865.4375
2389.16188	10855.0375
2391.97011	10845.2375
2394.77657	10829.8375
2397.58125	10836.0375
2400.38416	10811.0375
2403.18529	10785.8375
2405.98466	10746.4375
2408.78226	10719.8375
2411.57809	10707.1375
2414.37216	10697.9375
2417.16446	10638.3375
2419.955	10640.3375
2422.74378	10636.5375
2425.5308	10629.4375
2428.31606	10626.7375
2431.09956	10621.4375
2433.88131	10592.0375
2436.6613	10608.5375
2439.43954	10597.3375
2442.21603	10597.4375
2444.99077	10603.4375
2447.76377	10604.2375
2450.53501	10638.9375
2453.30451	10620.2375
2456.07226	10565.4375
2458.83827	10583.2375
2461.60254	10560.8375
2464.36507	10605.9375
2467.12586	10578.8375
2469.88492	10570.9375
2472.64224	10598.9375
2475.39782	10610.2375
2478.15167	10611.6375
2480.90379	10619.1375
2483.65417	10649.7375
2486.40283	10631.2375
2489.14976	10655.6375
2491.89497	10663.0375
2494.63845	10682.9375
2497.3802	10675.5375
2500.12024	10677.1375
2502.85855	10657.4375
2505.59514	10625.6375
2508.33002	10642.4375
2511.06318	10604.8375
2513.79462	10606.5375
2516.52435	10588.8375
2519.25237	10545.0375
2521.97867	10548.0375
2524.70327	10557.4375
2527.42616	10534.3375
2530.14734	10533.8375
2532.86681	10538.9375
2535.58458	10544.9375
2538.30065	10523.8375
2541.01501	10542.2375
2543.72768	10523.0375
2546.43864	10520.8375
2549.14791	10490.0375
2551.85548	10506.7375
2554.56136	10460.0375
2557.26554	10445.0375
2559.96803	10468.3375
2562.66883	10464.6375
2565.36794	10470.6375
2568.06536	10440.0375
2570.7611	10427.4375
2573.45514	10421.2375
2576.14751	10436.7375
2578.83819	10411.4375
2581.52719	10431.3375
2584.21451	10439.5375
2586.90015	10450.3375
2589.58411	10405.4375
2592.2664	10432.1375
2594.94701	10422.5375
2597.62594	10436.9375
2600.30321	10411.8375
2602.9788	10419.8375
2605.65273	10371.2375
2608.32498	10397.7375
2610.99557	10371.3375
2613.66449	10424.1375
2616.33175	10409.4375
2618.99734	10401.2375
2621.66128	10398.5375
2624.32355	10397.1375
2626.98416	10400.0375
2629.64311	10418.2375
2632.30041	10439.0375
2634.95605	10413.5375
2637.61004	10406.1375
2640.26238	10344.2375
2642.91306	10362.0375
2645.56209	10331.7375
2648.20948	10340.4375
2650.85521	10324.3375
2653.4993	10319.9375
2656.14175	10319.6375
2658.78255	10332.5375
2661.42171	10319.5375
2664.05923	10348.9375
2666.6951	10373.8375
2669.32934	10383.3375
2671.96194	10377.1375
2674.59291	10387.5375
2677.22224	10375.3375
2679.84993	10364.5375
2682.476	10358.0375
2685.10043	10322.6375
2687.72324	10307.0375
2690.34441	10315.1375
2692.96396	10304.1375
2695.58188	10311.6375
2698.19818	10291.0375
2700.81285	10310.5375
2703.4259	10272.9375
2706.03733	10253.0375
2708.64714	10263.1375
2711.25533	10283.8375
2713.86191	10259.5375
2716.46687	10317.5375
2719.07021	10294.1375
2721.67194	10315.0375
2724.27206	10322.5375
2726.87057	10336.2375
2729.46747	10322.4375
2732.06276	10333.3375
2734.65644	10297.0375
2737.24852	10319.4375
2739.83899	10301.0375
2742.42786	10317.5375
2745.01513	10298.7375
2747.60079	10303.2375
2750.18486	10287.9375
2752.76733	10295.9375
2755.3482	10264.3375
2757.92747	10292.3375
2760.50515	10282.5375
2763.08123	10281.9375
2765.65573	10276.4375
2768.22863	10287.4375
2770.79994	10254.3375
2773.36967	10279.7375
2775.9378	10279.4375
2778.50435	10296.3375
2781.06932	10266.2375
2783.6327	10263.9375
2786.1945	10262.1375
2788.75471	10274.9375
2791.31335	10242.2375
2793.87041	10228.6375
2796.42589	10198.5375
2798.97979	10225.5375
2801.53212	10184.1375
2804.08288	10170.7375
2806.63206	10142.1375
2809.17967	10133.2375
2811.72571	10111.5375
2814.27018	10108.7375
2816.81308	10095.7375
2819.35442	10079.0375
2821.89419	10079.5375
2824.43239	10084.4375
2826.96904	10097.4375
2829.50412	10091.9375
2832.03763	10061.6375
2834.56959	10072.7375
2837.1	10089.4375
2839.62884	10073.5375
2842.15613	10065.5375
2844.68186	10113.5375
2847.20604	10097.4375
2849.72867	10117.0375
2852.24974	10092.6375
2854.76927	10100.6375
2857.28724	10064.9375
2859.80367	10062.2375
2862.31855	10043.9375
2864.83189	10058.5375
2867.34368	10028.5375
2869.85393	10069.6375
2872.36264	10051.2375
2874.8698	10044.7375
2877.37543	10041.8375
2879.87952	10032.2375
2882.38207	10027.3375
2884.88308	10027.1375
2887.38256	10058.4375
2889.88051	10018.0375
2892.37692	10041.9375
2894.8718	10047.7375
2897.36515	10106.2375
2899.85698	10090.0375
2902.34727	10090.7375
2904.83604	10093.9375
2907.32328	10098.8375
2909.809	10109.4375
2912.29319	10114.5375
2914.77587	10099.7375
2917.25702	10085.7375
2919.73665	10077.9375
2922.21476	10099.0375
2924.69136	10091.8375
2927.16644	10080.0375
2929.64	10039.7375
2932.11205	10047.2375
2934.58258	10008.7375
2937.05161	10016.8375
2939.51912	10027.4375
2941.98513	9997.6375
2944.44962	9973.3375
2946.91261	9942.1375
2949.37409	9955.1375
2951.83407	9925.2375
2954.29254	9918.3375
2956.74951	9908.5375
2959.20498	9903.0375
2961.65895	9875.8375
2964.11142	9869.0375
2966.56239	9849.7375
2969.01186	9812.5375
2971.45984	9795.8375
2973.90632	9780.9375
2976.35131	9748.9375
2978.7948	9727.1375
2981.23681	9719.7375
2983.67732	9707.4375
2986.11635	9672.2375
2988.55388	9639.2375
2990.98993	9605.6375
2993.4245	9583.7375
2995.85758	9580.9375
2998.28917	9565.3375
3000.71928	9519.5375
3003.14791	9504.9375
3005.57506	9497.3375
3008.00073	9483.3375
3010.42493	9465.8375
3012.84764	9488.6375
3015.26888	9464.7375
3017.68865	9442.0375
3020.10694	9415.1375
3022.52376	9376.2375
3024.9391	9365.0375
3027.35298	9369.7375
3029.76539	9371.1375
3032.17632	9374.0375
3034.5858	9358.4375
3036.9938	9333.2375
3039.40034	9339.4375
3041.80542	9320.7375
3044.20903	9327.7375
3046.61118	9313.7375
3049.01187	9291.1375
3051.4111	9275.4375
3053.80888	9274.6375
3056.20519	9248.1375
3058.60005	9210.1375
3060.99345	9215.2375
3063.3854	9166.5375
3065.7759	9139.1375
3068.16494	9137.8375
3070.55254	9083.0375
3072.93868	9090.0375
3075.32338	9082.6375
3077.70662	9061.1375
3080.08842	9051.4375
3082.46878	9065.1375
3084.84769	9029.5375
3087.22515	9011.1375
3089.60118	9008.7375
3091.97576	8998.0375
3094.3489	9007.4375
3096.72061	8985.8375
3099.09087	8997.6375
3101.4597	8979.5375
3103.82709	9002.6375
3106.19305	8998.6375
3108.55757	8980.5375
3110.92066	8947.5375
3113.28232	8933.3375
3115.64255	8915.2375
3118.00134	8906.9375
3120.35871	8909.2375
3122.71466	8902.1375
3125.06917	8892.2375
3127.42226	8861.8375
3129.77393	8860.3375
3132.12417	8833.7375
3134.47299	8832.2375
3136.82039	8837.2375
3139.16636	8844.1375
3141.51092	8836.0375
3143.85406	8858.1375
3146.19579	8871.7375
3148.53609	8847.5375
3150.87499	8876.8375
3153.21246	8879.0375
3155.54853	8873.9375
3157.88318	8875.7375
3160.21642	8874.5375
3162.54826	8852.7375
3164.87868	8851.6375
3167.2077	8862.3375
3169.5353	8863.6375
3171.86151	8852.4375
3174.18631	8871.0375
3176.5097	8870.7375
3178.83169	8835.4375
3181.15228	8838.1375
3183.47147	8807.1375
3185.78926	8817.6375
3188.10565	8816.0375
3190.42065	8810.9375
3192.73424	8829.0375
3195.04645	8834.5375
3197.35725	8840.5375
3199.66667	8832.7375
3201.97469	8823.5375
3204.28132	8797.7375
3206.58656	8842.3375
3208.8904	8853.8375
3211.19287	8860.1375
3213.49394	8850.0375
3215.79363	8864.6375
3218.09193	8869.1375
3220.38884	8868.2375
3222.68438	8859.7375
3224.97853	8857.5375
3227.2713	8852.6375
3229.56269	8854.7375
3231.8527	8834.8375
3234.14133	8843.3375
3236.42858	8815.0375
3238.71446	8788.2375
3240.99896	8774.2375
3243.28209	8808.2375
3245.56384	8759.4375
3247.84423	8783.5375
3250.12324	8758.9375
3252.40088	8750.9375
3254.67715	8749.9375
3256.95205	8765.7375
3259.22558	8738.4375
3261.49775	8748.4375
3263.76855	8726.8375
3266.03799	8703.3375
3268.30606	8718.2375
3270.57277	8726.3375
3272.83812	8680.1375
3275.10211	8667.4375
3277.36474	8642.3375
3279.62601	8638.0375
3281.88593	8625.3375
3284.14448	8642.8375
3286.40168	8646.0375
3288.65753	8632.1375
3290.91202	8626.6375
3293.16516	8613.6375
3295.41695	8599.6375
3297.66738	8551.2375
3299.91647	8528.8375
3302.16421	8470.5375
3304.4106	8419.8375
3306.65564	8399.2375
3308.89933	8367.3375
3311.14169	8305.9375
3313.38269	8220.8375
3315.62236	8187.9375
3317.86068	8128.7375
3320.09766	8070.2375
3322.3333	8019.6375
3324.5676	8014.5375
3326.80056	7882.4375
3329.03219	7821.7375
3331.26248	2.6375
3333.49143	-0.2625
3335.71905	-1.7625
