Data from AgNPs_FTO_APTES_UA_1uM_CRN_10uM_R6G_50uM_NaF_0.1M_Addition_RamanShift__28__16-13-39-754.txt Node

Date: Thu Jan 27 16:13:39 GMT 2022
User: TCL
Spectrometer: QEP01345
Trigger mode: 4
Integration Time (sec): 7.000000E0
Scans to average: 10
Electric dark correction enabled: true
Nonlinearity correction enabled: false
Boxcar width: 0
XAxis mode: Raman Shifts
Number of Pixels in Spectrum: 1044
>>>>>Begin Spectral Data<<<<<
46.04893	1.7
50.45542	0
54.85868	-0.8
59.25871	-2
63.6555	39.5
68.04907	44.4
72.43941	48
76.82654	47.8
81.21044	50.2
85.59113	51.2
89.96862	50.9
94.34289	57.4
98.71396	61
103.08183	58.3
107.4465	61.4
111.80798	64.3
116.16626	63
120.52136	67
124.87327	66.8
129.222	66
133.56755	68.4
137.90993	73.5
142.24913	82.9
146.58517	85.5
150.91804	95.9
155.24774	113.6
159.57429	131.1
163.89768	163.7
168.21792	217.7
172.53501	290.6
176.84895	397.1
181.15975	546.1
185.46741	759.7
189.77193	1047.5
194.07331	1400.7
198.37157	1813.8
202.6667	2248.9
206.9587	2663.4
211.24758	3076.1
215.53334	3516.7
219.81599	3964.5
224.09553	4489.3
228.37195	5065.2
232.64527	5690.3
236.91549	6349.5
241.18261	6981
245.44663	7504.8
249.70755	8014.2
253.96539	8429.7
258.22014	8824.6
262.4718	9141
266.72039	9395.1
270.96589	9581.3
275.20832	9648.7
279.44768	9607.1
283.68397	9562.9
287.91719	9521.9
292.14735	9544.2
296.37445	9624.2
300.59849	9767.1
304.81948	9925
309.03742	10016.1
313.25231	9900.7
317.46415	9560.3
321.67296	9059.8
325.87872	8651.7
330.08145	8464.2
334.28114	8463
338.47781	8568.4
342.67145	8741
346.86207	9015.3
351.04966	9335
355.23424	9716.1
359.4158	10011.1
363.59435	10157.8
367.76989	10233.5
371.94243	10259
376.11196	10270.8
380.27849	10273.1
384.44203	10267.2
388.60257	10228.9
392.76012	10216.9
396.91468	10338.3
401.06626	10557.1
405.21485	10718
409.36047	10641.4
413.50311	10345.6
417.64277	10045.8
421.77947	9911.7
425.9132	9895.7
430.04396	9930.8
434.17176	10017.1
438.2966	10128.6
442.41849	10299.5
446.53742	10547.2
450.6534	10828.2
454.76644	11046.5
458.87653	11142.3
462.98368	11095.4
467.08789	10973.6
471.18916	10849.1
475.2875	10677.6
479.38291	10580.3
483.4754	10473.5
487.56496	10327.5
491.6516	10191.9
495.73531	10103
499.81612	10090.9
503.89401	10134.1
507.96899	10210.8
512.04106	10240
516.11023	10288.8
520.1765	10331.2
524.23987	10257.4
528.30034	10145.5
532.35792	9995.7
536.41261	9876.6
540.46441	9758.2
544.51333	9720.1
548.55936	9816.2
552.60252	10024.2
556.64279	10245.3
560.6802	10366.2
564.71473	10489.6
568.7464	10703.2
572.7752	10952.7
576.80114	10896.9
580.82422	10776.5
584.84444	10762.2
588.86181	10776.3
592.87633	10793.5
596.888	10897.6
600.89682	11075.8
604.9028	11759.2
608.90594	13574.4
612.90624	15866.1
616.90371	15340.2
620.89834	12107.6
624.89015	10531.4
628.87913	10286.5
632.86528	10317.2
636.84862	10340.6
640.82913	10197.3
644.80683	9910.9
648.78172	9724.1
652.75379	9694.9
656.72306	9887.3
660.68952	10233.1
664.65319	10179.8
668.61405	9926
672.57211	9773.4
676.52738	9798.9
680.47986	9814.6
684.42955	9766.7
688.37646	9767.5
692.32058	9824.2
696.26192	9858
700.20048	9939.2
704.13626	10022.8
708.06928	9987.6
711.99952	9937.8
715.927	9893.2
719.85171	9923.5
723.77365	9906.1
727.69284	9848.9
731.60928	9758.7
735.52295	9756.6
739.43388	9776.4
743.34206	9810.2
747.24749	9872.5
751.15017	9957.7
755.05012	10110.4
758.94733	10459
762.8418	11108.8
766.73354	12228.9
770.62254	13397
774.50882	13887.4
778.39237	13331.1
782.27321	12067.6
786.15132	10943.7
790.02671	10282.2
793.89938	9983.4
797.76935	9863.9
801.6366	9791.6
805.50115	9754.4
809.36299	9721.6
813.22213	9680.6
817.07857	9668.6
820.93231	9694.2
824.78336	9714.6
828.63172	9723
832.47738	9728.9
836.32036	9711.9
840.16066	9723.6
843.99827	9710.3
847.8332	9690.3
851.66546	9672.8
855.49504	9629.7
859.32195	9646.8
863.1462	9627.8
866.96777	9593.5
870.78668	9574.5
874.60293	9588.4
878.41652	9591.4
882.22745	9637.5
886.03573	9669.3
889.84136	9683.6
893.64433	9622.2
897.44466	9578.1
901.24235	9597.1
905.0374	9561.6
908.8298	9558
912.61957	9528.4
916.40671	9612.9
920.19121	9717.3
923.97308	9790.4
927.75233	9820.2
931.52895	9844.1
935.30295	9777
939.07433	9601.9
942.84309	9441.5
946.60924	9357.1
950.37278	9289.5
954.13371	9274.2
957.89203	9216.7
961.64774	9213.5
965.40086	9190.7
969.15137	9155.3
972.89929	9125.9
976.64461	9108.8
980.38733	9096
984.12747	9124.7
987.86502	9177.5
991.59999	9266.5
995.33237	9388.4
999.06217	9578.3
1002.78939	9854.8
1006.51404	10017.8
1010.23611	10169.7
1013.95561	10261.9
1017.67255	10274.7
1021.38692	10195.7
1025.09872	10065
1028.80796	10073.8
1032.51465	10219.1
1036.21877	10346.6
1039.92035	10409.9
1043.61937	10308.1
1047.31584	10207.2
1051.00976	10066.8
1054.70114	10014.1
1058.38998	10011.6
1062.07627	10095.6
1065.76003	10146.4
1069.44126	10206.8
1073.11995	10247.3
1076.79611	10310.7
1080.46974	10377.8
1084.14085	10501.7
1087.80943	10606.9
1091.47549	10680.3
1095.13903	10588.7
1098.80005	10394
1102.45857	10182.3
1106.11456	10082.6
1109.76805	10062.1
1113.41903	10167.3
1117.06751	10319.4
1120.71348	10520.9
1124.35696	10763
1127.99793	10957.5
1131.63641	10992.4
1135.2724	10754.8
1138.90589	10490.7
1142.5369	10319.8
1146.16542	10275.5
1149.79145	10239.5
1153.415	10249.6
1157.03607	10359.7
1160.65467	10534.7
1164.27079	10811.9
1167.88443	11226
1171.49561	11867.8
1175.10432	12839.9
1178.71056	14102.6
1182.31434	15062.6
1185.91565	15502.5
1189.51451	15401.5
1193.11091	14851.3
1196.70485	14095.1
1200.29634	13463.5
1203.88538	12942.9
1207.47197	12424.4
1211.05612	11991.6
1214.63782	11731.3
1218.21708	11648.5
1221.79391	11610.3
1225.36829	11677
1228.94024	11695.5
1232.50976	11675.3
1236.07685	11628.4
1239.6415	11584.7
1243.20374	11594.1
1246.76355	11633.7
1250.32093	11787
1253.8759	11992.6
1257.42845	12266.2
1260.97859	12539.9
1264.52631	12810.5
1268.07163	13035.2
1271.61453	13299.4
1275.15503	13546.4
1278.69312	13800.9
1282.22882	13995.2
1285.76211	14227.9
1289.29301	14559
1292.82151	14931.8
1296.34761	15399.6
1299.87133	15987.8
1303.39266	16887.1
1306.9116	18121
1310.42815	19532.5
1313.94233	20545
1317.45412	20573.1
1320.96354	19937.4
1324.47058	19126.4
1327.97525	18437.6
1331.47754	17948.3
1334.97747	17793
1338.47502	17904.6
1341.97022	18138.7
1345.46305	18291.8
1348.95352	18400.6
1352.44163	18524.5
1355.92738	19121.6
1359.41078	20481.4
1362.89183	22025.5
1366.37053	21732.8
1369.84688	19465.5
1373.32088	17052.5
1376.79254	15458
1380.26186	14733
1383.72883	14473
1387.19347	14308
1390.65578	14129.3
1394.11575	14014.5
1397.57339	14037
1401.0287	14255.3
1404.48168	14553.2
1407.93234	14754.3
1411.38068	14850.6
1414.82669	14672.4
1418.27039	14272.3
1421.71177	13812.8
1425.15083	13402.1
1428.58758	13140
1432.02203	13087.6
1435.45416	13151.3
1438.88399	13296.8
1442.31151	13388.2
1445.73673	13504.1
1449.15965	13639.4
1452.58027	13741.7
1455.9986	13754.7
1459.41463	13775.3
1462.82837	13898.6
1466.23982	14103.6
1469.64898	14327.9
1473.05586	14483.9
1476.46045	14514.4
1479.86276	14589.4
1483.26279	14690.9
1486.66054	14810.8
1490.05602	15001
1493.44922	15301.5
1496.84016	15703.4
1500.22882	16260.5
1503.61521	17104.6
1506.99934	18195.8
1510.38121	19382.1
1513.76081	20074.9
1517.13816	19691.7
1520.51324	18331
1523.88607	16908.8
1527.25665	15854.9
1530.62498	15221.5
1533.99105	14873.8
1537.35488	14631
1540.71647	14504.3
1544.07581	14363.7
1547.4329	14256.8
1550.78776	14110.8
1554.14038	14044.1
1557.49077	14072.9
1560.83892	14218.4
1564.18484	14359.7
1567.52853	14491.3
1570.86999	14568
1574.20922	14646.3
1577.54624	14658.6
1580.88103	14404.8
1584.2136	14068.4
1587.54395	14045.9
1590.87208	14436.3
1594.19801	15165.6
1597.52172	16032.8
1600.84321	16386.5
1604.16251	15921.4
1607.47959	15025.3
1610.79447	13995.3
1614.10715	13007.1
1617.41763	12192.4
1620.7259	11683.1
1624.03199	11381.5
1627.33587	11347
1630.63757	11587.7
1633.93707	12038.2
1637.23439	12767.6
1640.52951	13753.7
1643.82246	14860.1
1647.11321	15966.9
1650.40179	16576.8
1653.68819	16084.8
1656.97241	14534.2
1660.25446	12706.7
1663.53433	11359.1
1666.81203	10524.1
1670.08756	9987.8
1673.36092	9687.7
1676.63211	9466.7
1679.90115	9317.2
1683.16801	9223.2
1686.43272	9153.3
1689.69527	9089.4
1692.95567	9003.3
1696.2139	8961
1699.46999	8909.3
1702.72392	8872.8
1705.97571	8868.9
1709.22535	8899.6
1712.47284	8927.2
1715.71819	8918.3
1718.96139	8921
1722.20246	8920.2
1725.44139	8898.3
1728.67818	8852.1
1731.91284	8802.4
1735.14537	8799.8
1738.37576	8751.4
1741.60403	8683.1
1744.83017	8685
1748.05418	8655.7
1751.27607	8631.5
1754.49584	8608.2
1757.71349	8601.2
1760.92903	8576.1
1764.14244	8580.8
1767.35375	8556
1770.56294	8560.7
1773.77002	8544.9
1776.97499	8562.5
1780.17785	8562.4
1783.37861	8572
1786.57727	8556.3
1789.77382	8541.8
1792.96828	8543.2
1796.16064	8526.4
1799.3509	8524.3
1802.53907	8498.1
1805.72514	8485.7
1808.90913	8467.7
1812.09102	8440.7
1815.27083	8427.5
1818.44856	8429.2
1821.6242	8424.2
1824.79776	8398.4
1827.96924	8410.5
1831.13864	8384.3
1834.30597	8402.8
1837.47122	8403.1
1840.6344	8386.8
1843.7955	8407.4
1846.95454	8383.5
1850.11151	8398
1853.26642	8380.5
1856.41926	8393.8
1859.57004	8399.3
1862.71876	8402.7
1865.86542	8416.7
1869.01003	8392.8
1872.15258	8396.5
1875.29308	8394.3
1878.43152	8405.5
1881.56792	8405.7
1884.70227	8381.8
1887.83457	8385.4
1890.96482	8403.1
1894.09304	8391.2
1897.21921	8401.6
1900.34335	8373.2
1903.46544	8403.1
1906.58551	8385.5
1909.70353	8387.8
1912.81953	8368.7
1915.93349	8387.1
1919.04543	8373.4
1922.15534	8354.9
1925.26322	8363.5
1928.36908	8320
1931.47292	8282.7
1934.57473	8296
1937.67453	8249.8
1940.77232	8239.5
1943.86808	8183.3
1946.96184	8159.9
1950.05358	8124
1953.14331	8112.6
1956.23103	8075.3
1959.31675	8058
1962.40046	8048.4
1965.48217	8027.6
1968.56188	7991.7
1971.63959	7967.8
1974.7153	7935
1977.78901	7916.7
1980.86073	7903.4
1983.93046	7870.8
1986.99819	7856.1
1990.06394	7828
1993.1277	7803
1996.18947	7773.9
1999.24925	7751.5
2002.30706	7755.9
2005.36288	7719.4
2008.41672	7696.1
2011.46859	7697.3
2014.51848	7633.7
2017.56639	7626.6
2020.61233	7635.7
2023.6563	7608.6
2026.6983	7595.5
2029.73833	7570
2032.7764	7558.5
2035.8125	7550.3
2038.84664	7526.9
2041.87881	7530.6
2044.90903	7514
2047.93729	7496.2
2050.96359	7489.4
2053.98794	7481.4
2057.01034	7483.7
2060.03078	7470.3
2063.04927	7467.9
2066.06582	7474.9
2069.08042	7457.8
2072.09307	7457.6
2075.10378	7455
2078.11255	7431
2081.11938	7431.9
2084.12426	7443.7
2087.12722	7427.4
2090.12824	7419.7
2093.12732	7421.1
2096.12447	7416.6
2099.11969	7416.6
2102.11299	7414.6
2105.10435	7429.4
2108.09379	7423.8
2111.08131	7419.9
2114.0669	7452.6
2117.05057	7429.5
2120.03233	7432.5
2123.01216	7427.2
2125.99008	7457.8
2128.96609	7464.8
2131.94018	7477.7
2134.91236	7471.2
2137.88263	7473.5
2140.851	7488.9
2143.81746	7496.6
2146.78201	7488.5
2149.74466	7486
2152.7054	7488.2
2155.66425	7485.1
2158.6212	7482.8
2161.57625	7472.4
2164.52941	7488.2
2167.48067	7469.5
2170.43004	7467.7
2173.37752	7470.1
2176.32311	7476.6
2179.26681	7474.5
2182.20863	7481.2
2185.14856	7476.2
2188.08661	7460.3
2191.02278	7489.2
2193.95707	7466.1
2196.88948	7478.5
2199.82001	7459
2202.74867	7467.5
2205.67545	7469.5
2208.60037	7453
2211.52341	7447.2
2214.44458	7431.3
2217.36388	7410.1
2220.28132	7408.8
2223.1969	7393.7
2226.11061	7404.7
2229.02246	7364.4
2231.93245	7363.3
2234.84058	7346.3
2237.74686	7306.5
2240.65128	7316.7
2243.55385	7324.4
2246.45456	7317
2249.35343	7283.9
2252.25044	7299.7
2255.14561	7282.5
2258.03893	7277.3
2260.93041	7258
2263.82004	7264.3
2266.70783	7229.4
2269.59378	7203.3
2272.4779	7183.6
2275.36017	7185.9
2278.24061	7165.1
2281.11922	7160.8
2283.996	7152.6
2286.87094	7148.6
2289.74405	7123.5
2292.61534	7103.8
2295.4848	7088.8
2298.35243	7079.9
2301.21824	7109
2304.08223	7101
2306.94439	7108.4
2309.80474	7102
2312.66327	7113.5
2315.51999	7094.8
2318.37489	7101.3
2321.22797	7074.2
2324.07925	7079.2
2326.92871	7056
2329.77637	7074.3
2332.62222	7067.6
2335.46626	7048.4
2338.3085	7039.4
2341.14893	7032
2343.98756	7056
2346.8244	7028.1
2349.65943	7048.9
2352.49267	7051
2355.32411	7044.3
2358.15376	7036
2360.98161	7041.2
2363.80768	7045.2
2366.63195	7040.1
2369.45444	7048.8
2372.27514	7024.8
2375.09405	7001.7
2377.91118	6992.4
2380.72652	6982.9
2383.54009	6956.3
2386.35187	6963.8
2389.16188	6909.7
2391.97011	6912.7
2394.77657	6895.8
2397.58125	6904.3
2400.38416	6874.4
2403.18529	6877.3
2405.98466	6849.4
2408.78226	6862.7
2411.57809	6822
2414.37216	6823.8
2417.16446	6817.8
2419.955	6791.1
2422.74378	6798.8
2425.5308	6808.9
2428.31606	6782.3
2431.09956	6796.3
2433.88131	6766.8
2436.6613	6783.5
2439.43954	6791.7
2442.21603	6773.8
2444.99077	6789.9
2447.76377	6783.6
2450.53501	6774.7
2453.30451	6770
2456.07226	6747.9
2458.83827	6735.1
2461.60254	6752.3
2464.36507	6748.3
2467.12586	6753.4
2469.88492	6730.5
2472.64224	6735
2475.39782	6744.9
2478.15167	6735.2
2480.90379	6735.9
2483.65417	6755.8
2486.40283	6760.4
2489.14976	6764.7
2491.89497	6763.4
2494.63845	6751.4
2497.3802	6752.2
2500.12024	6756.9
2502.85855	6749.7
2505.59514	6733.3
2508.33002	6730
2511.06318	6746.5
2513.79462	6713.1
2516.52435	6692.9
2519.25237	6673.7
2521.97867	6678.3
2524.70327	6679.1
2527.42616	6659.3
2530.14734	6662.8
2532.86681	6673.1
2535.58458	6650
2538.30065	6640.5
2541.01501	6658
2543.72768	6629.7
2546.43864	6605.5
2549.14791	6629.9
2551.85548	6610
2554.56136	6602.5
2557.26554	6590.9
2559.96803	6578.9
2562.66883	6568.5
2565.36794	6601.2
2568.06536	6559.6
2570.7611	6556.1
2573.45514	6542.9
2576.14751	6547.7
2578.83819	6547.3
2581.52719	6529.9
2584.21451	6520.5
2586.90015	6514.9
2589.58411	6515.8
2592.2664	6524.2
2594.94701	6516.2
2597.62594	6507.9
2600.30321	6487.9
2602.9788	6495.1
2605.65273	6508.9
2608.32498	6486
2610.99557	6482.4
2613.66449	6484.6
2616.33175	6487.7
2618.99734	6489.6
2621.66128	6476.5
2624.32355	6470.5
2626.98416	6469.5
2629.64311	6484.5
2632.30041	6499.5
2634.95605	6434.9
2637.61004	6437.3
2640.26238	6432.9
2642.91306	6428.1
2645.56209	6431.6
2648.20948	6429.8
2650.85521	6424.6
2653.4993	6408
2656.14175	6421.5
2658.78255	6435.1
2661.42171	6436.1
2664.05923	6436.6
2666.6951	6425.3
2669.32934	6447.6
2671.96194	6441.3
2674.59291	6457.7
2677.22224	6434.2
2679.84993	6430.3
2682.476	6432.8
2685.10043	6422.9
2687.72324	6432.2
2690.34441	6421.4
2692.96396	6429.8
2695.58188	6454.9
2698.19818	6419.4
2700.81285	6424.3
2703.4259	6418.1
2706.03733	6413.3
2708.64714	6420.3
2711.25533	6434.4
2713.86191	6423.5
2716.46687	6434.6
2719.07021	6426.3
2721.67194	6441.7
2724.27206	6449.9
2726.87057	6476.8
2729.46747	6447.7
2732.06276	6451.9
2734.65644	6445.2
2737.24852	6438
2739.83899	6429.1
2742.42786	6444.8
2745.01513	6432
2747.60079	6418.8
2750.18486	6418.8
2752.76733	6419.6
2755.3482	6401.6
2757.92747	6411.3
2760.50515	6429
2763.08123	6403.9
2765.65573	6386.3
2768.22863	6393.8
2770.79994	6354.5
2773.36967	6382.4
2775.9378	6403.7
2778.50435	6380.7
2781.06932	6378.4
2783.6327	6380.1
2786.1945	6379.4
2788.75471	6386
2791.31335	6349.7
2793.87041	6339.9
2796.42589	6316.8
2798.97979	6329.8
2801.53212	6328.5
2804.08288	6304.6
2806.63206	6293.7
2809.17967	6284.6
2811.72571	6278.2
2814.27018	6275.8
2816.81308	6268
2819.35442	6259.7
2821.89419	6256.9
2824.43239	6246.8
2826.96904	6261.7
2829.50412	6263.3
2832.03763	6235.1
2834.56959	6225.6
2837.1	6248
2839.62884	6243.2
2842.15613	6252.3
2844.68186	6262.3
2847.20604	6279.6
2849.72867	6289.3
2852.24974	6291.3
2854.76927	6298
2857.28724	6272.7
2859.80367	6275.1
2862.31855	6270.9
2864.83189	6247.3
2867.34368	6238.3
2869.85393	6244.7
2872.36264	6238.1
2874.8698	6237
2877.37543	6224.5
2879.87952	6230.3
2882.38207	6223.6
2884.88308	6223.7
2887.38256	6224.1
2889.88051	6223.7
2892.37692	6225.5
2894.8718	6214.5
2897.36515	6244.1
2899.85698	6214.8
2902.34727	6234.3
2904.83604	6251.5
2907.32328	6248.4
2909.809	6252.2
2912.29319	6254.3
2914.77587	6253
2917.25702	6250.1
2919.73665	6249.5
2922.21476	6228.9
2924.69136	6221.8
2927.16644	6230.3
2929.64	6233.3
2932.11205	6234.2
2934.58258	6191.2
2937.05161	6200.3
2939.51912	6206.1
2941.98513	6182.9
2944.44962	6172.6
2946.91261	6134.3
2949.37409	6150
2951.83407	6133.6
2954.29254	6136
2956.74951	6112.9
2959.20498	6118.2
2961.65895	6110.9
2964.11142	6109
2966.56239	6104.1
2969.01186	6083.2
2971.45984	6086.5
2973.90632	6076.7
2976.35131	6052.1
2978.7948	6041.2
2981.23681	6041.4
2983.67732	6035
2986.11635	6008.1
2988.55388	6003.7
2990.98993	5998.2
2993.4245	5987.3
2995.85758	5968
2998.28917	5968.2
3000.71928	5959
3003.14791	5934.5
3005.57506	5947.4
3008.00073	5939.5
3010.42493	5927.2
3012.84764	5912.7
3015.26888	5927.9
3017.68865	5900.4
3020.10694	5881.1
3022.52376	5887.2
3024.9391	5874.2
3027.35298	5873.2
3029.76539	5869.3
3032.17632	5864.6
3034.5858	5843.8
3036.9938	5837.9
3039.40034	5845.2
3041.80542	5835.7
3044.20903	5836.3
3046.61118	5837.8
3049.01187	5791.3
3051.4111	5802.2
3053.80888	5797.9
3056.20519	5797.4
3058.60005	5776.5
3060.99345	5760.8
3063.3854	5735.7
3065.7759	5729
3068.16494	5733.6
3070.55254	5695
3072.93868	5717.3
3075.32338	5678.3
3077.70662	5692.9
3080.08842	5659.2
3082.46878	5650.9
3084.84769	5651.6
3087.22515	5653.4
3089.60118	5637.5
3091.97576	5647.7
3094.3489	5649.3
3096.72061	5662.7
3099.09087	5649.8
3101.4597	5655.3
3103.82709	5660.4
3106.19305	5639.9
3108.55757	5652.2
3110.92066	5637.6
3113.28232	5627.1
3115.64255	5616.6
3118.00134	5603.5
3120.35871	5614.4
3122.71466	5596
3125.06917	5589.8
3127.42226	5567.9
3129.77393	5588
3132.12417	5564
3134.47299	5580.5
3136.82039	5574.8
3139.16636	5570.9
3141.51092	5593.9
3143.85406	5597.3
3146.19579	5594.5
3148.53609	5592
3150.87499	5616.4
3153.21246	5603.1
3155.54853	5612.9
3157.88318	5621.7
3160.21642	5626
3162.54826	5626.2
3164.87868	5631.5
3167.2077	5623.6
3169.5353	5636.3
3171.86151	5624.9
3174.18631	5605.7
3176.5097	5609.8
3178.83169	5606.3
3181.15228	5623.6
3183.47147	5618.2
3185.78926	5605.7
3188.10565	5599.7
3190.42065	5624.5
3192.73424	5601.7
3195.04645	5599.3
3197.35725	5615.6
3199.66667	5610.9
3201.97469	5599.7
3204.28132	5622.4
3206.58656	5619.8
3208.8904	5628
3211.19287	5632.4
3213.49394	5650.3
3215.79363	5638.4
3218.09193	5655.7
3220.38884	5629.9
3222.68438	5659.6
3224.97853	5635.9
3227.2713	5634.7
3229.56269	5626.9
3231.8527	5634.8
3234.14133	5605.4
3236.42858	5605.7
3238.71446	5599.1
3240.99896	5580.5
3243.28209	5580.1
3245.56384	5588
3247.84423	5576
3250.12324	5572.7
3252.40088	5573.8
3254.67715	5564.2
3256.95205	5556.8
3259.22558	5586.6
3261.49775	5569.9
3263.76855	5558.3
3266.03799	5557.6
3268.30606	5542.6
3270.57277	5509.4
3272.83812	5507.4
3275.10211	5510
3277.36474	5501.4
3279.62601	5498.3
3281.88593	5478.1
3284.14448	5503.4
3286.40168	5491.3
3288.65753	5485.7
3290.91202	5494.8
3293.16516	5466.5
3295.41695	5468.3
3297.66738	5437
3299.91647	5403.7
3302.16421	5378.2
3304.4106	5358.2
3306.65564	5336.7
3308.89933	5303.1
3311.14169	5270.6
3313.38269	5216.8
3315.62236	5186
3317.86068	5158.4
3320.09766	5119.8
3322.3333	5080.7
3324.5676	5073.6
3326.80056	4979.6
3329.03219	4947
3331.26248	2.3
3333.49143	-0.8
3335.71905	-1.2
