Data from AgNPs_FTO_APTES_UA_1uM_CRN_1000uM_R6G_10uM_NaF_0.1M_Addition_RamanShift__20__18-56-59-940.txt Node

Date: Thu Jan 27 18:56:59 GMT 2022
User: TCL
Spectrometer: QEP01345
Trigger mode: 4
Integration Time (sec): 7.000000E0
Scans to average: 10
Electric dark correction enabled: true
Nonlinearity correction enabled: false
Boxcar width: 0
XAxis mode: Raman Shifts
Number of Pixels in Spectrum: 1044
>>>>>Begin Spectral Data<<<<<
46.04893	0
50.45542	0.6
54.85868	-1.4
59.25871	-1.9
63.6555	48.2
68.04907	51.1
72.43941	51.3
76.82654	58.5
81.21044	56.9
85.59113	58.9
89.96862	62.5
94.34289	66.8
98.71396	66.9
103.08183	66.4
107.4465	74.5
111.80798	74.3
116.16626	73.7
120.52136	80.7
124.87327	77.6
129.222	79.8
133.56755	85.9
137.90993	91
142.24913	95
146.58517	107.7
150.91804	124
155.24774	144.4
159.57429	172.3
163.89768	221.5
168.21792	288.5
172.53501	393.6
176.84895	537.5
181.15975	745.8
185.46741	1042.1
189.77193	1442.7
194.07331	1948.4
198.37157	2514.6
202.6667	3124.1
206.9587	3726.4
211.24758	4333
215.53334	4934.6
219.81599	5568.6
224.09553	6265.3
228.37195	7046.8
232.64527	7866.1
236.91549	8708.2
241.18261	9573.2
245.44663	10340.9
249.70755	11047.2
253.96539	11602.4
258.22014	12056.7
262.4718	12447
266.72039	12674.4
270.96589	12807
275.20832	12806.5
279.44768	12687.3
283.68397	12498.8
287.91719	12369.4
292.14735	12234.4
296.37445	12233.8
300.59849	12285.8
304.81948	12368.5
309.03742	12336.3
313.25231	12203.3
317.46415	11880
321.67296	11539
325.87872	11230.1
330.08145	11109.4
334.28114	11090
338.47781	11193.2
342.67145	11337.4
346.86207	11523.7
351.04966	11777.6
355.23424	12084.3
359.4158	12280.2
363.59435	12482.2
367.76989	12606.1
371.94243	12711.6
376.11196	12780.6
380.27849	12897.2
384.44203	12956.1
388.60257	13001.1
392.76012	13041.5
396.91468	13150.7
401.06626	13320.3
405.21485	13482
409.36047	13424.8
413.50311	13238.7
417.64277	13046.4
421.77947	12965.8
425.9132	12959.9
430.04396	13048.6
434.17176	13141.5
438.2966	13281.8
442.41849	13487.3
446.53742	13810.1
450.6534	14200.2
454.76644	14479.1
458.87653	14563.1
462.98368	14480.2
467.08789	14284.5
471.18916	14066.7
475.2875	13912.5
479.38291	13813.1
483.4754	13721.3
487.56496	13560.8
491.6516	13375.3
495.73531	13287.3
499.81612	13241.6
503.89401	13292.1
507.96899	13342.7
512.04106	13370.6
516.11023	13349.4
520.1765	13324.4
524.23987	13261.7
528.30034	13153
532.35792	13049.1
536.41261	12907.6
540.46441	12777.8
544.51333	12700.9
548.55936	12763.8
552.60252	12939.9
556.64279	13193
560.6802	13374.7
564.71473	13530.7
568.7464	13746.9
572.7752	14014.9
576.80114	14103.9
580.82422	14163.9
584.84444	14266.7
588.86181	14471.7
592.87633	14752.6
596.888	14946.2
600.89682	14901.3
604.9028	15200.3
608.90594	16363.5
612.90624	17967.8
616.90371	17311.4
620.89834	14565.4
624.89015	13210.7
628.87913	13010.6
632.86528	13089.1
636.84862	13149.4
640.82913	13060.8
644.80683	12844.2
648.78172	12610.8
652.75379	12537.8
656.72306	12663.7
660.68952	12860.3
664.65319	12839.5
668.61405	12748.6
672.57211	12746.6
676.52738	12960.6
680.47986	13025.5
684.42955	13016.6
688.37646	12877.4
692.32058	12754
696.26192	12801.7
700.20048	12865.7
704.13626	12942.7
708.06928	12879.7
711.99952	12730.2
715.927	12604.4
719.85171	12577.8
723.77365	12561.6
727.69284	12525
731.60928	12488.4
735.52295	12458
739.43388	12476.9
743.34206	12475.8
747.24749	12532.6
751.15017	12578.7
755.05012	12677.4
758.94733	12929.6
762.8418	13470.9
766.73354	14342.8
770.62254	15398.5
774.50882	15893.1
778.39237	15426.4
782.27321	14282.6
786.15132	13274.9
790.02671	12660.4
793.89938	12351.1
797.76935	12276.3
801.6366	12170.4
805.50115	12187.9
809.36299	12112.9
813.22213	12057.6
817.07857	11993.1
820.93231	11990.9
824.78336	11954.6
828.63172	11900.3
832.47738	11915.5
836.32036	11915.9
840.16066	11922.9
843.99827	11922
847.8332	11894.3
851.66546	11876.9
855.49504	11908.9
859.32195	11967.6
863.1462	12043.1
866.96777	12041.8
870.78668	11992.2
874.60293	11948
878.41652	11864.4
882.22745	11878.9
886.03573	11880.2
889.84136	11912.1
893.64433	11883.7
897.44466	11829
901.24235	11770.3
905.0374	11694.9
908.8298	11644.8
912.61957	11627.2
916.40671	11675.2
920.19121	11782.4
923.97308	11927.6
927.75233	12003.9
931.52895	12074.7
935.30295	11982.4
939.07433	11823.5
942.84309	11586.5
946.60924	11445
950.37278	11369.2
954.13371	11295.8
957.89203	11206.9
961.64774	11171.4
965.40086	11148
969.15137	11108.6
972.89929	11041.4
976.64461	11013.9
980.38733	10979.1
984.12747	11009
987.86502	11062.7
991.59999	11159.1
995.33237	11298.3
999.06217	11483.8
1002.78939	11716.5
1006.51404	11861.5
1010.23611	11978.6
1013.95561	12079.7
1017.67255	12115.1
1021.38692	12019.5
1025.09872	11842.7
1028.80796	11803.6
1032.51465	11889.6
1036.21877	12018.7
1039.92035	12046.9
1043.61937	12051
1047.31584	11946.5
1051.00976	11860.7
1054.70114	11803.9
1058.38998	11808.5
1062.07627	11853.2
1065.76003	11941.2
1069.44126	11999.4
1073.11995	12175
1076.79611	12292.7
1080.46974	12339.6
1084.14085	12334.6
1087.80943	12351.5
1091.47549	12397.4
1095.13903	12370.2
1098.80005	12233.4
1102.45857	12039.1
1106.11456	11873.6
1109.76805	11861.8
1113.41903	11930.8
1117.06751	12081.1
1120.71348	12266.8
1124.35696	12473.4
1127.99793	12681.3
1131.63641	12851.4
1135.2724	12653.2
1138.90589	12459
1142.5369	12292.6
1146.16542	12208.4
1149.79145	12169.1
1153.415	12181.9
1157.03607	12312.6
1160.65467	12548.7
1164.27079	12980.1
1167.88443	13543.8
1171.49561	14253.1
1175.10432	15229.8
1178.71056	16442.1
1182.31434	17606.9
1185.91565	18127.2
1189.51451	18039.7
1193.11091	17471.1
1196.70485	16750.2
1200.29634	16064.1
1203.88538	15506.8
1207.47197	15053.3
1211.05612	14646.3
1214.63782	14406.6
1218.21708	14289
1221.79391	14222.6
1225.36829	14184.9
1228.94024	14026.8
1232.50976	13752.5
1236.07685	13589.3
1239.6415	13432.7
1243.20374	13404.7
1246.76355	13436.7
1250.32093	13588.7
1253.8759	13793.4
1257.42845	14055.4
1260.97859	14363.6
1264.52631	14687.8
1268.07163	15018.5
1271.61453	15419.5
1275.15503	15787.8
1278.69312	16163.6
1282.22882	16465.9
1285.76211	16751.4
1289.29301	17168.8
1292.82151	17754.4
1296.34761	18521.1
1299.87133	19453.4
1303.39266	20600.5
1306.9116	21908.3
1310.42815	23271.7
1313.94233	24236.1
1317.45412	24198.9
1320.96354	23604.5
1324.47058	22799
1327.97525	22077.5
1331.47754	21557.4
1334.97747	21331.1
1338.47502	21354.1
1341.97022	21382.7
1345.46305	21335.4
1348.95352	21259.1
1352.44163	21516
1355.92738	22127.5
1359.41078	23245.6
1362.89183	24363.1
1366.37053	24346.8
1369.84688	22333.7
1373.32088	19747.3
1376.79254	17846.1
1380.26186	16967
1383.72883	16695.4
1387.19347	16576.1
1390.65578	16417.2
1394.11575	16383
1397.57339	16579.1
1401.0287	17024.5
1404.48168	17469.2
1407.93234	17682.6
1411.38068	17653.3
1414.82669	17333.3
1418.27039	16808
1421.71177	16226.5
1425.15083	15649.1
1428.58758	15348.4
1432.02203	15302.7
1435.45416	15501.5
1438.88399	15827.2
1442.31151	16085.7
1445.73673	16317.2
1449.15965	16563.4
1452.58027	16710
1455.9986	16720.4
1459.41463	16757.7
1462.82837	16938.4
1466.23982	17251.1
1469.64898	17558
1473.05586	17718.4
1476.46045	17802.8
1479.86276	17730.7
1483.26279	17578.8
1486.66054	17455.2
1490.05602	17456.9
1493.44922	17437.3
1496.84016	17498.3
1500.22882	17678.3
1503.61521	18179
1506.99934	18994.5
1510.38121	19825.3
1513.76081	20193.2
1517.13816	19728.8
1520.51324	18615.4
1523.88607	17546.1
1527.25665	16833.6
1530.62498	16535.2
1533.99105	16397.9
1537.35488	16301.7
1540.71647	16191
1544.07581	16075.9
1547.4329	15903.3
1550.78776	15731.1
1554.14038	15621.4
1557.49077	15545.4
1560.83892	15553.6
1564.18484	15571
1567.52853	15656.6
1570.86999	15799.5
1574.20922	16086
1577.54624	16284.2
1580.88103	16273.8
1584.2136	16116.8
1587.54395	16178.1
1590.87208	16643.8
1594.19801	17495.7
1597.52172	18515.4
1600.84321	19156.2
1604.16251	18752.6
1607.47959	17607.9
1610.79447	16188.8
1614.10715	14820.1
1617.41763	13738.9
1620.7259	12934.1
1624.03199	12528.5
1627.33587	12435.4
1630.63757	12660.8
1633.93707	13266.9
1637.23439	14254.4
1640.52951	15728.5
1643.82246	17581.2
1647.11321	19204.6
1650.40179	19830.2
1653.68819	18891.8
1656.97241	16754.5
1660.25446	14479.6
1663.53433	12790.8
1666.81203	11772.3
1670.08756	11124.6
1673.36092	10738.3
1676.63211	10517.6
1679.90115	10313
1683.16801	10170
1686.43272	10052.4
1689.69527	9949.1
1692.95567	9857.9
1696.2139	9774.1
1699.46999	9673
1702.72392	9627.3
1705.97571	9613.2
1709.22535	9623.6
1712.47284	9664.3
1715.71819	9652.2
1718.96139	9611.6
1722.20246	9599.4
1725.44139	9552.1
1728.67818	9509
1731.91284	9462
1735.14537	9439.1
1738.37576	9407.3
1741.60403	9379.2
1744.83017	9373.8
1748.05418	9366
1751.27607	9358.5
1754.49584	9355.1
1757.71349	9314.6
1760.92903	9260.2
1764.14244	9210.7
1767.35375	9174.1
1770.56294	9110.6
1773.77002	9067.6
1776.97499	9051.4
1780.17785	9040.2
1783.37861	9031.4
1786.57727	8993.6
1789.77382	8996.5
1792.96828	8975.3
1796.16064	8938.3
1799.3509	8895.8
1802.53907	8888
1805.72514	8854.6
1808.90913	8832.4
1812.09102	8797.5
1815.27083	8806.6
1818.44856	8770.2
1821.6242	8783.6
1824.79776	8744.9
1827.96924	8721.6
1831.13864	8712
1834.30597	8719.8
1837.47122	8707.5
1840.6344	8700.8
1843.7955	8690.1
1846.95454	8694.6
1850.11151	8662.7
1853.26642	8668.5
1856.41926	8673.8
1859.57004	8671.8
1862.71876	8657.3
1865.86542	8656
1869.01003	8652.4
1872.15258	8647.3
1875.29308	8651.7
1878.43152	8611
1881.56792	8616.6
1884.70227	8625.1
1887.83457	8608.3
1890.96482	8593.1
1894.09304	8571.6
1897.21921	8570.6
1900.34335	8578
1903.46544	8571.7
1906.58551	8558
1909.70353	8522.1
1912.81953	8529.2
1915.93349	8517.1
1919.04543	8492
1922.15534	8476.4
1925.26322	8475.2
1928.36908	8453
1931.47292	8424.8
1934.57473	8415.9
1937.67453	8383.6
1940.77232	8338.4
1943.86808	8330.2
1946.96184	8297.8
1950.05358	8260.5
1953.14331	8252.4
1956.23103	8240
1959.31675	8185.1
1962.40046	8186.8
1965.48217	8161.4
1968.56188	8110.3
1971.63959	8093.4
1974.7153	8069.9
1977.78901	8063.6
1980.86073	8047
1983.93046	8004.4
1986.99819	7998.5
1990.06394	7956.3
1993.1277	7922.7
1996.18947	7908.8
1999.24925	7900.1
2002.30706	7877.4
2005.36288	7843.6
2008.41672	7827.9
2011.46859	7831.3
2014.51848	7766
2017.56639	7759.1
2020.61233	7742.6
2023.6563	7733.3
2026.6983	7724.1
2029.73833	7705
2032.7764	7683
2035.8125	7640.3
2038.84664	7636.2
2041.87881	7637.8
2044.90903	7624.4
2047.93729	7588
2050.96359	7582.1
2053.98794	7584
2057.01034	7577.8
2060.03078	7563
2063.04927	7558.7
2066.06582	7573.4
2069.08042	7542.7
2072.09307	7537.4
2075.10378	7552.3
2078.11255	7537.7
2081.11938	7528.2
2084.12426	7508.1
2087.12722	7517
2090.12824	7518.7
2093.12732	7523.8
2096.12447	7519.4
2099.11969	7484.6
2102.11299	7496.5
2105.10435	7518.9
2108.09379	7514.3
2111.08131	7511.1
2114.0669	7528.9
2117.05057	7528.4
2120.03233	7513.1
2123.01216	7531.6
2125.99008	7534.7
2128.96609	7542.8
2131.94018	7552.6
2134.91236	7543
2137.88263	7558.1
2140.851	7553.7
2143.81746	7534.5
2146.78201	7560
2149.74466	7557.5
2152.7054	7556.4
2155.66425	7545.1
2158.6212	7547.7
2161.57625	7517.2
2164.52941	7532.1
2167.48067	7525.5
2170.43004	7535.1
2173.37752	7528.4
2176.32311	7520.7
2179.26681	7522.2
2182.20863	7505.7
2185.14856	7523.7
2188.08661	7505.3
2191.02278	7533.4
2193.95707	7511.1
2196.88948	7505.2
2199.82001	7493.4
2202.74867	7473.5
2205.67545	7481.1
2208.60037	7480.6
2211.52341	7463.3
2214.44458	7449
2217.36388	7450.2
2220.28132	7426.5
2223.1969	7425.1
2226.11061	7415.1
2229.02246	7378.6
2231.93245	7373.7
2234.84058	7347.2
2237.74686	7360.7
2240.65128	7339.7
2243.55385	7323.1
2246.45456	7308.1
2249.35343	7311.1
2252.25044	7297.5
2255.14561	7278
2258.03893	7280.2
2260.93041	7263
2263.82004	7254.9
2266.70783	7226.1
2269.59378	7198.2
2272.4779	7187
2275.36017	7175.9
2278.24061	7161.7
2281.11922	7145.6
2283.996	7132.1
2286.87094	7125.2
2289.74405	7115.5
2292.61534	7100.8
2295.4848	7096.2
2298.35243	7089.8
2301.21824	7096.6
2304.08223	7107
2306.94439	7085.9
2309.80474	7093.9
2312.66327	7078.6
2315.51999	7073.4
2318.37489	7074.1
2321.22797	7064
2324.07925	7061.7
2326.92871	7037.4
2329.77637	7037.7
2332.62222	7013.1
2335.46626	7000.7
2338.3085	7010.6
2341.14893	7000.5
2343.98756	7016
2346.8244	6981.6
2349.65943	7002.4
2352.49267	7001
2355.32411	6991.5
2358.15376	6990.7
2360.98161	6974.2
2363.80768	6984.2
2366.63195	6997.3
2369.45444	6982
2372.27514	6964.7
2375.09405	6946.3
2377.91118	6958.6
2380.72652	6915.4
2383.54009	6900.4
2386.35187	6875.5
2389.16188	6877.2
2391.97011	6863.8
2394.77657	6844.7
2397.58125	6825.5
2400.38416	6819.9
2403.18529	6813.6
2405.98466	6790.4
2408.78226	6789.9
2411.57809	6775
2414.37216	6774.1
2417.16446	6750.8
2419.955	6738.3
2422.74378	6755.4
2425.5308	6747.8
2428.31606	6756.7
2431.09956	6740.7
2433.88131	6708.8
2436.6613	6727.8
2439.43954	6724.1
2442.21603	6714.5
2444.99077	6720.5
2447.76377	6710.3
2450.53501	6694.6
2453.30451	6696.8
2456.07226	6691
2458.83827	6692.7
2461.60254	6673.8
2464.36507	6679.5
2467.12586	6691.4
2469.88492	6671
2472.64224	6664.4
2475.39782	6659.5
2478.15167	6674.1
2480.90379	6669.5
2483.65417	6651.7
2486.40283	6666.9
2489.14976	6673.4
2491.89497	6673.7
2494.63845	6656.9
2497.3802	6649.2
2500.12024	6655
2502.85855	6677.2
2505.59514	6651.7
2508.33002	6655.1
2511.06318	6642.1
2513.79462	6634.5
2516.52435	6602.7
2519.25237	6612.6
2521.97867	6606.8
2524.70327	6580.7
2527.42616	6568.8
2530.14734	6582.8
2532.86681	6573.2
2535.58458	6561
2538.30065	6556
2541.01501	6539.6
2543.72768	6568.7
2546.43864	6552.8
2549.14791	6542.3
2551.85548	6518.3
2554.56136	6508.3
2557.26554	6505.1
2559.96803	6486.9
2562.66883	6489.7
2565.36794	6494.4
2568.06536	6473.3
2570.7611	6470.5
2573.45514	6463.3
2576.14751	6453.5
2578.83819	6449.5
2581.52719	6442.9
2584.21451	6432.4
2586.90015	6429.6
2589.58411	6431.6
2592.2664	6420.9
2594.94701	6413.2
2597.62594	6397.8
2600.30321	6385.2
2602.9788	6380.6
2605.65273	6390.9
2608.32498	6385.2
2610.99557	6384.8
2613.66449	6384
2616.33175	6365.8
2618.99734	6375.6
2621.66128	6364.4
2624.32355	6363.4
2626.98416	6357.6
2629.64311	6348.2
2632.30041	6369.2
2634.95605	6340.7
2637.61004	6307.8
2640.26238	6324.4
2642.91306	6327.7
2645.56209	6311.3
2648.20948	6302.8
2650.85521	6302.2
2653.4993	6333.2
2656.14175	6316
2658.78255	6314.7
2661.42171	6329.7
2664.05923	6328.7
2666.6951	6329.6
2669.32934	6345.7
2671.96194	6325.4
2674.59291	6334.3
2677.22224	6326.2
2679.84993	6329.2
2682.476	6319.4
2685.10043	6309.5
2687.72324	6307.5
2690.34441	6312.6
2692.96396	6313.1
2695.58188	6339.7
2698.19818	6302
2700.81285	6322.5
2703.4259	6303.7
2706.03733	6301.8
2708.64714	6285.6
2711.25533	6306.4
2713.86191	6312.4
2716.46687	6311.3
2719.07021	6304.8
2721.67194	6345.1
2724.27206	6318.2
2726.87057	6321.8
2729.46747	6324.6
2732.06276	6327.5
2734.65644	6321.7
2737.24852	6333.5
2739.83899	6303.3
2742.42786	6348.1
2745.01513	6314.5
2747.60079	6302.9
2750.18486	6304.4
2752.76733	6281.3
2755.3482	6310.7
2757.92747	6282.6
2760.50515	6297.9
2763.08123	6273.9
2765.65573	6301.6
2768.22863	6297.9
2770.79994	6276.7
2773.36967	6282.7
2775.9378	6282
2778.50435	6267.8
2781.06932	6276.1
2783.6327	6260.6
2786.1945	6292.5
2788.75471	6254.9
2791.31335	6237
2793.87041	6251.6
2796.42589	6241.1
2798.97979	6254.2
2801.53212	6235.8
2804.08288	6234.6
2806.63206	6225.5
2809.17967	6206.1
2811.72571	6206.8
2814.27018	6192.7
2816.81308	6201.8
2819.35442	6203.2
2821.89419	6188.6
2824.43239	6184.3
2826.96904	6179.8
2829.50412	6182.2
2832.03763	6175.2
2834.56959	6171.4
2837.1	6171.1
2839.62884	6193.5
2842.15613	6213.5
2844.68186	6254.5
2847.20604	6276.7
2849.72867	6288.8
2852.24974	6293.4
2854.76927	6289.3
2857.28724	6259.6
2859.80367	6267.2
2862.31855	6257.6
2864.83189	6248.8
2867.34368	6243.2
2869.85393	6248.1
2872.36264	6263.7
2874.8698	6267.9
2877.37543	6276.7
2879.87952	6271.4
2882.38207	6269.3
2884.88308	6281.1
2887.38256	6312.5
2889.88051	6305.4
2892.37692	6309.3
2894.8718	6345.1
2897.36515	6342.5
2899.85698	6340.9
2902.34727	6387.9
2904.83604	6394
2907.32328	6411.5
2909.809	6394.1
2912.29319	6437.5
2914.77587	6425.4
2917.25702	6440.9
2919.73665	6427
2922.21476	6446.9
2924.69136	6453.1
2927.16644	6436.5
2929.64	6450.1
2932.11205	6453.8
2934.58258	6424.8
2937.05161	6443.7
2939.51912	6441.9
2941.98513	6403.5
2944.44962	6376.5
2946.91261	6324
2949.37409	6332.8
2951.83407	6307
2954.29254	6307.7
2956.74951	6271.6
2959.20498	6263
2961.65895	6222.3
2964.11142	6239.7
2966.56239	6206.1
2969.01186	6155.9
2971.45984	6161.8
2973.90632	6126.8
2976.35131	6106.9
2978.7948	6093.7
2981.23681	6080
2983.67732	6062
2986.11635	6040.2
2988.55388	6012.6
2990.98993	5995.7
2993.4245	5986
2995.85758	5979.9
2998.28917	5981.3
3000.71928	5941.7
3003.14791	5927
3005.57506	5938.8
3008.00073	5904.6
3010.42493	5903.6
3012.84764	5896.2
3015.26888	5883.4
3017.68865	5899.3
3020.10694	5866.2
3022.52376	5861.2
3024.9391	5828.7
3027.35298	5830.2
3029.76539	5828.5
3032.17632	5799
3034.5858	5804.1
3036.9938	5799
3039.40034	5804.7
3041.80542	5775.1
3044.20903	5759.3
3046.61118	5755.5
3049.01187	5770.2
3051.4111	5747.6
3053.80888	5752.8
3056.20519	5736
3058.60005	5731.7
3060.99345	5720.5
3063.3854	5696.1
3065.7759	5683.4
3068.16494	5689
3070.55254	5669.4
3072.93868	5663.6
3075.32338	5636.3
3077.70662	5649
3080.08842	5619
3082.46878	5622.5
3084.84769	5645.9
3087.22515	5633.2
3089.60118	5625.5
3091.97576	5623.8
3094.3489	5645.2
3096.72061	5636
3099.09087	5658.6
3101.4597	5624.2
3103.82709	5614.2
3106.19305	5631.5
3108.55757	5627.7
3110.92066	5616.4
3113.28232	5618.4
3115.64255	5595.4
3118.00134	5604.8
3120.35871	5593.4
3122.71466	5595.9
3125.06917	5590.2
3127.42226	5574.2
3129.77393	5583.6
3132.12417	5589
3134.47299	5582.6
3136.82039	5587.4
3139.16636	5576.6
3141.51092	5583.5
3143.85406	5595.2
3146.19579	5595.6
3148.53609	5610.7
3150.87499	5623.4
3153.21246	5628.3
3155.54853	5636.2
3157.88318	5636.8
3160.21642	5658.6
3162.54826	5651.8
3164.87868	5647.4
3167.2077	5641.9
3169.5353	5648.8
3171.86151	5668.3
3174.18631	5661
3176.5097	5669.7
3178.83169	5653.5
3181.15228	5667.8
3183.47147	5643.9
3185.78926	5647.5
3188.10565	5637
3190.42065	5635.1
3192.73424	5642.5
3195.04645	5649.7
3197.35725	5671.3
3199.66667	5652.5
3201.97469	5656.9
3204.28132	5668.1
3206.58656	5668.3
3208.8904	5667
3211.19287	5691.4
3213.49394	5688.5
3215.79363	5688.3
3218.09193	5701.2
3220.38884	5698.1
3222.68438	5693.8
3224.97853	5696.3
3227.2713	5705.6
3229.56269	5697.7
3231.8527	5688.1
3234.14133	5709.1
3236.42858	5674.9
3238.71446	5691.1
3240.99896	5659.4
3243.28209	5663.4
3245.56384	5647.1
3247.84423	5657
3250.12324	5652.9
3252.40088	5673.6
3254.67715	5663.4
3256.95205	5647.1
3259.22558	5659.4
3261.49775	5660.1
3263.76855	5640.6
3266.03799	5616.8
3268.30606	5613.6
3270.57277	5615
3272.83812	5592.6
3275.10211	5591.4
3277.36474	5579.4
3279.62601	5571.6
3281.88593	5573.4
3284.14448	5582.1
3286.40168	5569.6
3288.65753	5598
3290.91202	5593.6
3293.16516	5553.5
3295.41695	5550.9
3297.66738	5519.7
3299.91647	5492.8
3302.16421	5471.7
3304.4106	5435.8
3306.65564	5418.9
3308.89933	5387.8
3311.14169	5351.2
3313.38269	5313.3
3315.62236	5276.5
3317.86068	5249.8
3320.09766	5195.9
3322.3333	5170.6
3324.5676	5168.5
3326.80056	5075
3329.03219	5044.2
3331.26248	2.5
3333.49143	0
3335.71905	0.4
