Data from AgNPs_FTO_APTES_UA_1uM_CRN_2uM_R6G_10uM_NaF_0.1M_Addition_RamanShift__32__13-32-39-569.txt Node

Date: Thu Jan 27 13:32:39 GMT 2022
User: TCL
Spectrometer: QEP01345
Trigger mode: 4
Integration Time (sec): 7.000000E0
Scans to average: 10
Electric dark correction enabled: true
Nonlinearity correction enabled: false
Boxcar width: 0
XAxis mode: Raman Shifts
Number of Pixels in Spectrum: 1044
>>>>>Begin Spectral Data<<<<<
46.04893	1.0875
50.45542	2.0875
54.85868	-1.0125
59.25871	-1.0125
63.6555	31.2875
68.04907	33.6875
72.43941	36.7875
76.82654	39.0875
81.21044	43.8875
85.59113	39.4875
89.96862	44.4875
94.34289	45.3875
98.71396	50.0875
103.08183	50.6875
107.4465	49.5875
111.80798	53.0875
116.16626	48.8875
120.52136	55.8875
124.87327	54.0875
129.222	52.6875
133.56755	50.9875
137.90993	55.9875
142.24913	57.0875
146.58517	60.7875
150.91804	69.8875
155.24774	75.9875
159.57429	87.2875
163.89768	108.3875
168.21792	137.6875
172.53501	179.7875
176.84895	240.9875
181.15975	330.0875
185.46741	451.1875
189.77193	615.5875
194.07331	824.9875
198.37157	1058.0875
202.6667	1301.7875
206.9587	1546.9875
211.24758	1793.9875
215.53334	2062.5875
219.81599	2350.8875
224.09553	2706.0875
228.37195	3093.0875
232.64527	3501.8875
236.91549	3880.0875
241.18261	4222.1875
245.44663	4492.6875
249.70755	4665.7875
253.96539	4809.0875
258.22014	4966.8875
262.4718	5115.3875
266.72039	5265.4875
270.96589	5362.4875
275.20832	5353.5875
279.44768	5312.3875
283.68397	5205.4875
287.91719	5162.2875
292.14735	5197.8875
296.37445	5343.9875
300.59849	5602.1875
304.81948	5931.6875
309.03742	6221.2875
313.25231	6213.8875
317.46415	5887.6875
321.67296	5319.1875
325.87872	4844.4875
330.08145	4600.9875
334.28114	4583.5875
338.47781	4676.3875
342.67145	4850.7875
346.86207	5104.4875
351.04966	5513.1875
355.23424	5975.8875
359.4158	6342.0875
363.59435	6476.8875
367.76989	6502.4875
371.94243	6460.9875
376.11196	6384.1875
380.27849	6299.1875
384.44203	6190.9875
388.60257	6070.5875
392.76012	5974.1875
396.91468	6030.5875
401.06626	6226.9875
405.21485	6379.4875
409.36047	6256.8875
413.50311	5833.6875
417.64277	5430.0875
421.77947	5176.6875
425.9132	5085.5875
430.04396	5048.7875
434.17176	5052.7875
438.2966	5154.1875
442.41849	5271.3875
446.53742	5453.3875
450.6534	5635.5875
454.76644	5734.0875
458.87653	5734.4875
462.98368	5676.4875
467.08789	5561.9875
471.18916	5394.7875
475.2875	5250.8875
479.38291	5131.4875
483.4754	5035.7875
487.56496	4960.3875
491.6516	4915.1875
495.73531	4907.8875
499.81612	4931.3875
503.89401	5002.8875
507.96899	5098.1875
512.04106	5200.4875
516.11023	5328.1875
520.1765	5435.4875
524.23987	5404.4875
528.30034	5271.3875
532.35792	5105.5875
536.41261	4940.3875
540.46441	4785.1875
544.51333	4711.7875
548.55936	4741.7875
552.60252	4859.3875
556.64279	5033.2875
560.6802	5107.3875
564.71473	5217.7875
568.7464	5494.8875
572.7752	5680.3875
576.80114	5484.8875
580.82422	5207.9875
584.84444	5099.3875
588.86181	5040.8875
592.87633	5046.6875
596.888	5097.6875
600.89682	5331.8875
604.9028	6104.4875
608.90594	8212.3875
612.90624	11192.4875
616.90371	11027.3875
620.89834	7263.7875
624.89015	5364.7875
628.87913	4984.7875
632.86528	4984.0875
636.84862	5110.0875
640.82913	5061.2875
644.80683	4793.6875
648.78172	4626.2875
652.75379	4647.6875
656.72306	4927.2875
660.68952	5254.1875
664.65319	5233.0875
668.61405	4876.8875
672.57211	4666.1875
676.52738	4648.6875
680.47986	4648.3875
684.42955	4607.4875
688.37646	4588.4875
692.32058	4600.4875
696.26192	4631.4875
700.20048	4696.7875
704.13626	4754.8875
708.06928	4740.4875
711.99952	4701.6875
715.927	4658.9875
719.85171	4694.5875
723.77365	4693.8875
727.69284	4637.4875
731.60928	4608.6875
735.52295	4580.0875
739.43388	4617.4875
743.34206	4644.7875
747.24749	4674.7875
751.15017	4713.3875
755.05012	4826.8875
758.94733	5115.2875
762.8418	5755.3875
766.73354	6909.7875
770.62254	8213.3875
774.50882	8943.2875
778.39237	8619.8875
782.27321	7339.8875
786.15132	6010.9875
790.02671	5227.3875
793.89938	4897.3875
797.76935	4736.5875
801.6366	4690.3875
805.50115	4637.1875
809.36299	4613.5875
813.22213	4574.8875
817.07857	4585.7875
820.93231	4582.8875
824.78336	4602.6875
828.63172	4626.2875
832.47738	4638.5875
836.32036	4632.0875
840.16066	4587.3875
843.99827	4561.0875
847.8332	4529.5875
851.66546	4529.3875
855.49504	4541.1875
859.32195	4528.5875
863.1462	4482.1875
866.96777	4465.2875
870.78668	4464.4875
874.60293	4469.5875
878.41652	4505.1875
882.22745	4509.1875
886.03573	4562.1875
889.84136	4530.8875
893.64433	4496.4875
897.44466	4502.9875
901.24235	4504.6875
905.0374	4492.0875
908.8298	4460.4875
912.61957	4458.4875
916.40671	4491.0875
920.19121	4512.6875
923.97308	4565.2875
927.75233	4635.9875
931.52895	4696.6875
935.30295	4656.8875
939.07433	4490.6875
942.84309	4346.1875
946.60924	4268.3875
950.37278	4221.0875
954.13371	4192.7875
957.89203	4172.6875
961.64774	4154.6875
965.40086	4139.7875
969.15137	4125.8875
972.89929	4109.1875
976.64461	4099.8875
980.38733	4111.6875
984.12747	4112.1875
987.86502	4122.5875
991.59999	4143.6875
995.33237	4198.0875
999.06217	4271.6875
1002.78939	4395.0875
1006.51404	4510.7875
1010.23611	4647.7875
1013.95561	4725.5875
1017.67255	4708.6875
1021.38692	4637.5875
1025.09872	4523.5875
1028.80796	4446.0875
1032.51465	4470.6875
1036.21877	4524.2875
1039.92035	4590.8875
1043.61937	4630.2875
1047.31584	4608.4875
1051.00976	4591.8875
1054.70114	4542.4875
1058.38998	4547.9875
1062.07627	4565.7875
1065.76003	4588.7875
1069.44126	4612.5875
1073.11995	4650.4875
1076.79611	4727.4875
1080.46974	4813.4875
1084.14085	4985.9875
1087.80943	5161.0875
1091.47549	5239.7875
1095.13903	5120.2875
1098.80005	4883.8875
1102.45857	4708.1875
1106.11456	4613.2875
1109.76805	4648.7875
1113.41903	4777.7875
1117.06751	4944.5875
1120.71348	5194.7875
1124.35696	5490.2875
1127.99793	5767.6875
1131.63641	5791.7875
1135.2724	5449.6875
1138.90589	5104.5875
1142.5369	4902.2875
1146.16542	4789.7875
1149.79145	4692.8875
1153.415	4698.1875
1157.03607	4750.9875
1160.65467	4874.7875
1164.27079	5044.9875
1167.88443	5330.7875
1171.49561	5819.9875
1175.10432	6697.4875
1178.71056	7875.5875
1182.31434	8736.9875
1185.91565	8852.2875
1189.51451	8545.9875
1193.11091	7912.4875
1196.70485	7128.6875
1200.29634	6582.6875
1203.88538	6180.0875
1207.47197	5748.6875
1211.05612	5378.8875
1214.63782	5177.2875
1218.21708	5092.8875
1221.79391	5116.9875
1225.36829	5159.2875
1228.94024	5218.2875
1232.50976	5296.7875
1236.07685	5324.0875
1239.6415	5324.1875
1243.20374	5320.5875
1246.76355	5339.5875
1250.32093	5373.3875
1253.8759	5494.8875
1257.42845	5658.5875
1260.97859	5862.1875
1264.52631	6047.7875
1268.07163	6276.1875
1271.61453	6474.9875
1275.15503	6603.4875
1278.69312	6691.1875
1282.22882	6654.6875
1285.76211	6800.0875
1289.29301	7025.1875
1292.82151	7293.4875
1296.34761	7503.8875
1299.87133	7841.0875
1303.39266	8516.4875
1306.9116	9599.2875
1310.42815	10967.0875
1313.94233	11871.5875
1317.45412	11770.1875
1320.96354	10883.3875
1324.47058	9826.4875
1327.97525	8923.0875
1331.47754	8384.4875
1334.97747	8133.9875
1338.47502	8081.8875
1341.97022	8235.5875
1345.46305	8564.8875
1348.95352	9165.2875
1352.44163	10033.9875
1355.92738	11178.4875
1359.41078	13055.6875
1362.89183	15049.7875
1366.37053	14874.6875
1369.84688	12419.7875
1373.32088	9854.3875
1376.79254	8236.5875
1380.26186	7455.2875
1383.72883	7080.1875
1387.19347	6787.6875
1390.65578	6457.8875
1394.11575	6158.4875
1397.57339	6005.9875
1401.0287	6009.2875
1404.48168	6095.3875
1407.93234	6195.6875
1411.38068	6302.3875
1414.82669	6329.1875
1418.27039	6250.6875
1421.71177	6148.4875
1425.15083	6025.3875
1428.58758	5963.0875
1432.02203	5939.9875
1435.45416	6021.5875
1438.88399	6028.4875
1442.31151	6025.2875
1445.73673	6037.0875
1449.15965	6058.8875
1452.58027	6012.4875
1455.9986	5956.1875
1459.41463	5934.2875
1462.82837	5964.5875
1466.23982	6056.2875
1469.64898	6200.4875
1473.05586	6303.3875
1476.46045	6386.0875
1479.86276	6510.0875
1483.26279	6687.3875
1486.66054	6893.5875
1490.05602	7163.4875
1493.44922	7551.9875
1496.84016	8161.3875
1500.22882	9067.5875
1503.61521	10362.6875
1506.99934	11824.0875
1510.38121	13363.9875
1513.76081	14238.5875
1517.13816	13742.6875
1520.51324	11945.6875
1523.88607	9946.8875
1527.25665	8521.9875
1530.62498	7731.6875
1533.99105	7224.0875
1537.35488	6920.4875
1540.71647	6729.7875
1544.07581	6634.6875
1547.4329	6604.1875
1550.78776	6560.7875
1554.14038	6583.6875
1557.49077	6640.8875
1560.83892	6831.4875
1564.18484	7054.7875
1567.52853	7318.0875
1570.86999	7584.7875
1574.20922	7741.2875
1577.54624	7718.0875
1580.88103	7312.5875
1584.2136	6696.2875
1587.54395	6355.0875
1590.87208	6375.5875
1594.19801	6723.5875
1597.52172	7260.4875
1600.84321	7504.2875
1604.16251	7265.8875
1607.47959	6765.3875
1610.79447	6241.8875
1614.10715	5725.0875
1617.41763	5305.0875
1620.7259	5030.6875
1624.03199	4927.3875
1627.33587	4912.0875
1630.63757	5051.1875
1633.93707	5305.5875
1637.23439	5712.8875
1640.52951	6304.7875
1643.82246	7161.3875
1647.11321	8146.0875
1650.40179	9054.3875
1653.68819	8984.9875
1656.97241	7809.3875
1660.25446	6329.2875
1663.53433	5257.7875
1666.81203	4653.4875
1670.08756	4318.3875
1673.36092	4125.6875
1676.63211	4010.2875
1679.90115	3922.9875
1683.16801	3871.6875
1686.43272	3832.4875
1689.69527	3776.3875
1692.95567	3752.6875
1696.2139	3707.4875
1699.46999	3665.2875
1702.72392	3630.2875
1705.97571	3663.5875
1709.22535	3689.1875
1712.47284	3696.8875
1715.71819	3732.5875
1718.96139	3737.3875
1722.20246	3733.7875
1725.44139	3724.1875
1728.67818	3687.7875
1731.91284	3639.3875
1735.14537	3615.0875
1738.37576	3595.6875
1741.60403	3558.7875
1744.83017	3539.4875
1748.05418	3525.0875
1751.27607	3508.2875
1754.49584	3485.6875
1757.71349	3472.6875
1760.92903	3444.9875
1764.14244	3458.2875
1767.35375	3429.4875
1770.56294	3439.7875
1773.77002	3415.6875
1776.97499	3432.3875
1780.17785	3411.3875
1783.37861	3423.2875
1786.57727	3420.8875
1789.77382	3415.8875
1792.96828	3401.1875
1796.16064	3412.0875
1799.3509	3409.1875
1802.53907	3409.5875
1805.72514	3400.7875
1808.90913	3379.3875
1812.09102	3367.9875
1815.27083	3363.4875
1818.44856	3344.0875
1821.6242	3341.0875
1824.79776	3340.7875
1827.96924	3339.2875
1831.13864	3324.2875
1834.30597	3326.7875
1837.47122	3329.7875
1840.6344	3321.5875
1843.7955	3318.7875
1846.95454	3323.7875
1850.11151	3307.3875
1853.26642	3312.9875
1856.41926	3317.1875
1859.57004	3313.4875
1862.71876	3333.8875
1865.86542	3332.5875
1869.01003	3320.6875
1872.15258	3323.8875
1875.29308	3329.0875
1878.43152	3339.4875
1881.56792	3328.2875
1884.70227	3337.8875
1887.83457	3342.6875
1890.96482	3346.8875
1894.09304	3343.0875
1897.21921	3350.8875
1900.34335	3352.1875
1903.46544	3343.3875
1906.58551	3344.9875
1909.70353	3324.9875
1912.81953	3342.7875
1915.93349	3338.9875
1919.04543	3320.7875
1922.15534	3326.1875
1925.26322	3314.3875
1928.36908	3291.2875
1931.47292	3278.4875
1934.57473	3254.4875
1937.67453	3247.2875
1940.77232	3221.3875
1943.86808	3189.9875
1946.96184	3184.5875
1950.05358	3179.6875
1953.14331	3158.9875
1956.23103	3144.9875
1959.31675	3134.2875
1962.40046	3116.1875
1965.48217	3112.0875
1968.56188	3094.8875
1971.63959	3090.1875
1974.7153	3088.0875
1977.78901	3083.6875
1980.86073	3058.2875
1983.93046	3053.1875
1986.99819	3035.0875
1990.06394	3025.8875
1993.1277	3006.7875
1996.18947	3011.7875
1999.24925	2995.7875
2002.30706	2981.3875
2005.36288	2982.4875
2008.41672	2968.4875
2011.46859	2968.4875
2014.51848	2939.4875
2017.56639	2938.6875
2020.61233	2945.4875
2023.6563	2914.5875
2026.6983	2914.1875
2029.73833	2906.6875
2032.7764	2894.5875
2035.8125	2900.7875
2038.84664	2892.9875
2041.87881	2874.6875
2044.90903	2874.3875
2047.93729	2871.6875
2050.96359	2856.9875
2053.98794	2845.1875
2057.01034	2847.9875
2060.03078	2838.5875
2063.04927	2837.1875
2066.06582	2837.7875
2069.08042	2828.9875
2072.09307	2827.2875
2075.10378	2828.3875
2078.11255	2824.7875
2081.11938	2820.3875
2084.12426	2819.4875
2087.12722	2810.2875
2090.12824	2814.6875
2093.12732	2813.4875
2096.12447	2829.7875
2099.11969	2806.9875
2102.11299	2807.1875
2105.10435	2809.1875
2108.09379	2821.1875
2111.08131	2804.8875
2114.0669	2824.6875
2117.05057	2827.5875
2120.03233	2816.1875
2123.01216	2811.5875
2125.99008	2821.2875
2128.96609	2828.1875
2131.94018	2824.4875
2134.91236	2822.9875
2137.88263	2828.5875
2140.851	2808.7875
2143.81746	2813.1875
2146.78201	2815.8875
2149.74466	2811.9875
2152.7054	2819.9875
2155.66425	2809.2875
2158.6212	2797.1875
2161.57625	2796.9875
2164.52941	2797.9875
2167.48067	2799.1875
2170.43004	2800.1875
2173.37752	2787.5875
2176.32311	2796.6875
2179.26681	2792.7875
2182.20863	2792.0875
2185.14856	2784.6875
2188.08661	2795.0875
2191.02278	2796.2875
2193.95707	2788.6875
2196.88948	2778.7875
2199.82001	2777.3875
2202.74867	2777.9875
2205.67545	2765.6875
2208.60037	2771.4875
2211.52341	2765.9875
2214.44458	2753.6875
2217.36388	2750.4875
2220.28132	2755.5875
2223.1969	2723.8875
2226.11061	2718.8875
2229.02246	2716.2875
2231.93245	2707.2875
2234.84058	2703.8875
2237.74686	2700.8875
2240.65128	2706.3875
2243.55385	2705.5875
2246.45456	2685.4875
2249.35343	2692.3875
2252.25044	2685.8875
2255.14561	2684.6875
2258.03893	2683.1875
2260.93041	2675.6875
2263.82004	2671.1875
2266.70783	2667.3875
2269.59378	2667.7875
2272.4779	2655.1875
2275.36017	2647.5875
2278.24061	2646.6875
2281.11922	2649.5875
2283.996	2634.0875
2286.87094	2637.1875
2289.74405	2608.8875
2292.61534	2610.4875
2295.4848	2612.4875
2298.35243	2598.9875
2301.21824	2599.8875
2304.08223	2597.8875
2306.94439	2594.5875
2309.80474	2601.2875
2312.66327	2593.7875
2315.51999	2599.8875
2318.37489	2580.8875
2321.22797	2580.2875
2324.07925	2570.6875
2326.92871	2581.2875
2329.77637	2575.8875
2332.62222	2571.0875
2335.46626	2556.8875
2338.3085	2557.0875
2341.14893	2568.2875
2343.98756	2562.8875
2346.8244	2555.2875
2349.65943	2547.9875
2352.49267	2566.7875
2355.32411	2566.1875
2358.15376	2562.7875
2360.98161	2572.3875
2363.80768	2582.8875
2366.63195	2583.0875
2369.45444	2580.5875
2372.27514	2581.3875
2375.09405	2572.3875
2377.91118	2581.9875
2380.72652	2556.2875
2383.54009	2539.4875
2386.35187	2527.3875
2389.16188	2510.7875
2391.97011	2513.9875
2394.77657	2500.6875
2397.58125	2490.3875
2400.38416	2484.7875
2403.18529	2484.0875
2405.98466	2475.3875
2408.78226	2460.8875
2411.57809	2458.7875
2414.37216	2461.9875
2417.16446	2453.1875
2419.955	2454.7875
2422.74378	2455.5875
2425.5308	2452.5875
2428.31606	2447.1875
2431.09956	2446.0875
2433.88131	2450.5875
2436.6613	2446.1875
2439.43954	2451.3875
2442.21603	2447.4875
2444.99077	2428.7875
2447.76377	2429.3875
2450.53501	2449.0875
2453.30451	2437.0875
2456.07226	2452.0875
2458.83827	2436.1875
2461.60254	2432.2875
2464.36507	2449.5875
2467.12586	2451.4875
2469.88492	2436.1875
2472.64224	2437.8875
2475.39782	2428.2875
2478.15167	2432.2875
2480.90379	2438.6875
2483.65417	2438.3875
2486.40283	2446.9875
2489.14976	2458.5875
2491.89497	2463.7875
2494.63845	2465.6875
2497.3802	2447.3875
2500.12024	2428.1875
2502.85855	2448.3875
2505.59514	2433.8875
2508.33002	2423.8875
2511.06318	2411.9875
2513.79462	2407.6875
2516.52435	2393.9875
2519.25237	2392.1875
2521.97867	2376.4875
2524.70327	2373.2875
2527.42616	2363.4875
2530.14734	2356.8875
2532.86681	2351.8875
2535.58458	2358.2875
2538.30065	2362.4875
2541.01501	2353.2875
2543.72768	2342.6875
2546.43864	2365.7875
2549.14791	2357.9875
2551.85548	2350.6875
2554.56136	2350.4875
2557.26554	2353.0875
2559.96803	2344.4875
2562.66883	2335.9875
2565.36794	2341.6875
2568.06536	2324.3875
2570.7611	2333.8875
2573.45514	2327.9875
2576.14751	2317.0875
2578.83819	2316.3875
2581.52719	2313.3875
2584.21451	2295.1875
2586.90015	2311.9875
2589.58411	2298.5875
2592.2664	2302.8875
2594.94701	2288.2875
2597.62594	2288.9875
2600.30321	2289.6875
2602.9788	2285.9875
2605.65273	2282.0875
2608.32498	2274.7875
2610.99557	2279.5875
2613.66449	2287.9875
2616.33175	2281.7875
2618.99734	2285.9875
2621.66128	2271.9875
2624.32355	2273.4875
2626.98416	2269.7875
2629.64311	2265.0875
2632.30041	2257.6875
2634.95605	2251.6875
2637.61004	2256.2875
2640.26238	2243.3875
2642.91306	2243.0875
2645.56209	2247.8875
2648.20948	2236.5875
2650.85521	2237.4875
2653.4993	2237.7875
2656.14175	2244.5875
2658.78255	2232.2875
2661.42171	2240.1875
2664.05923	2245.8875
2666.6951	2245.3875
2669.32934	2246.9875
2671.96194	2252.3875
2674.59291	2256.9875
2677.22224	2263.7875
2679.84993	2261.3875
2682.476	2255.1875
2685.10043	2262.2875
2687.72324	2245.7875
2690.34441	2246.9875
2692.96396	2248.8875
2695.58188	2258.4875
2698.19818	2253.8875
2700.81285	2254.6875
2703.4259	2243.8875
2706.03733	2244.9875
2708.64714	2237.7875
2711.25533	2258.9875
2713.86191	2252.5875
2716.46687	2256.0875
2719.07021	2253.9875
2721.67194	2265.9875
2724.27206	2272.5875
2726.87057	2266.6875
2729.46747	2266.3875
2732.06276	2265.5875
2734.65644	2259.0875
2737.24852	2252.1875
2739.83899	2238.8875
2742.42786	2249.1875
2745.01513	2227.9875
2747.60079	2236.2875
2750.18486	2225.9875
2752.76733	2236.6875
2755.3482	2218.4875
2757.92747	2230.2875
2760.50515	2214.6875
2763.08123	2210.0875
2765.65573	2207.7875
2768.22863	2203.2875
2770.79994	2213.2875
2773.36967	2200.7875
2775.9378	2213.2875
2778.50435	2205.1875
2781.06932	2206.8875
2783.6327	2206.4875
2786.1945	2197.2875
2788.75471	2195.4875
2791.31335	2204.2875
2793.87041	2187.7875
2796.42589	2197.8875
2798.97979	2203.3875
2801.53212	2191.2875
2804.08288	2192.2875
2806.63206	2190.8875
2809.17967	2190.8875
2811.72571	2192.6875
2814.27018	2194.5875
2816.81308	2199.3875
2819.35442	2199.6875
2821.89419	2203.5875
2824.43239	2206.2875
2826.96904	2213.8875
2829.50412	2210.3875
2832.03763	2223.4875
2834.56959	2226.1875
2837.1	2225.1875
2839.62884	2231.2875
2842.15613	2254.6875
2844.68186	2283.9875
2847.20604	2328.3875
2849.72867	2360.9875
2852.24974	2361.2875
2854.76927	2370.7875
2857.28724	2355.4875
2859.80367	2339.7875
2862.31855	2339.8875
2864.83189	2325.5875
2867.34368	2323.2875
2869.85393	2315.3875
2872.36264	2325.8875
2874.8698	2316.2875
2877.37543	2321.5875
2879.87952	2316.5875
2882.38207	2310.6875
2884.88308	2313.8875
2887.38256	2306.9875
2889.88051	2298.7875
2892.37692	2296.0875
2894.8718	2299.7875
2897.36515	2300.6875
2899.85698	2299.1875
2902.34727	2301.4875
2904.83604	2300.6875
2907.32328	2317.0875
2909.809	2311.7875
2912.29319	2310.4875
2914.77587	2306.8875
2917.25702	2303.3875
2919.73665	2300.0875
2922.21476	2304.7875
2924.69136	2296.8875
2927.16644	2291.7875
2929.64	2296.1875
2932.11205	2289.0875
2934.58258	2274.3875
2937.05161	2270.9875
2939.51912	2248.6875
2941.98513	2238.2875
2944.44962	2211.9875
2946.91261	2189.4875
2949.37409	2189.4875
2951.83407	2170.1875
2954.29254	2167.3875
2956.74951	2152.9875
2959.20498	2153.9875
2961.65895	2131.5875
2964.11142	2141.6875
2966.56239	2129.1875
2969.01186	2115.9875
2971.45984	2101.9875
2973.90632	2108.8875
2976.35131	2101.6875
2978.7948	2096.1875
2981.23681	2096.9875
2983.67732	2087.4875
2986.11635	2069.8875
2988.55388	2070.3875
2990.98993	2058.9875
2993.4245	2060.1875
2995.85758	2043.5875
2998.28917	2046.3875
3000.71928	2033.2875
3003.14791	2038.1875
3005.57506	2025.5875
3008.00073	2043.7875
3010.42493	2034.4875
3012.84764	2023.8875
3015.26888	2032.2875
3017.68865	2022.0875
3020.10694	2019.0875
3022.52376	2013.1875
3024.9391	2015.2875
3027.35298	2010.1875
3029.76539	2019.3875
3032.17632	2006.3875
3034.5858	2003.7875
3036.9938	2008.4875
3039.40034	2002.4875
3041.80542	2001.5875
3044.20903	2001.9875
3046.61118	2003.0875
3049.01187	1992.6875
3051.4111	1991.7875
3053.80888	1999.8875
3056.20519	1994.6875
3058.60005	1991.7875
3060.99345	1984.8875
3063.3854	1992.2875
3065.7759	1985.8875
3068.16494	1981.0875
3070.55254	1973.5875
3072.93868	1975.8875
3075.32338	1962.8875
3077.70662	1960.5875
3080.08842	1961.3875
3082.46878	1943.0875
3084.84769	1946.8875
3087.22515	1952.1875
3089.60118	1946.5875
3091.97576	1948.9875
3094.3489	1944.9875
3096.72061	1955.1875
3099.09087	1951.2875
3101.4597	1949.9875
3103.82709	1958.2875
3106.19305	1949.4875
3108.55757	1971.1875
3110.92066	1964.2875
3113.28232	1951.5875
3115.64255	1956.0875
3118.00134	1960.9875
3120.35871	1945.7875
3122.71466	1945.9875
3125.06917	1949.8875
3127.42226	1944.6875
3129.77393	1955.4875
3132.12417	1958.1875
3134.47299	1961.4875
3136.82039	1961.5875
3139.16636	1967.8875
3141.51092	1977.6875
3143.85406	1986.6875
3146.19579	1973.4875
3148.53609	1988.7875
3150.87499	1995.7875
3153.21246	1999.2875
3155.54853	2006.1875
3157.88318	2005.9875
3160.21642	2012.1875
3162.54826	2015.0875
3164.87868	2004.0875
3167.2077	2013.3875
3169.5353	2023.5875
3171.86151	2034.6875
3174.18631	2029.4875
3176.5097	2028.5875
3178.83169	2031.7875
3181.15228	2035.8875
3183.47147	2026.6875
3185.78926	2032.9875
3188.10565	2048.9875
3190.42065	2041.9875
3192.73424	2038.7875
3195.04645	2038.7875
3197.35725	2046.2875
3199.66667	2054.2875
3201.97469	2052.6875
3204.28132	2053.8875
3206.58656	2052.9875
3208.8904	2077.1875
3211.19287	2065.7875
3213.49394	2066.0875
3215.79363	2075.4875
3218.09193	2081.0875
3220.38884	2083.1875
3222.68438	2085.9875
3224.97853	2085.5875
3227.2713	2086.6875
3229.56269	2084.6875
3231.8527	2090.7875
3234.14133	2082.1875
3236.42858	2077.2875
3238.71446	2080.2875
3240.99896	2070.0875
3243.28209	2083.5875
3245.56384	2077.4875
3247.84423	2073.9875
3250.12324	2064.3875
3252.40088	2071.2875
3254.67715	2070.3875
3256.95205	2071.2875
3259.22558	2071.5875
3261.49775	2066.9875
3263.76855	2057.8875
3266.03799	2064.8875
3268.30606	2050.5875
3270.57277	2048.2875
3272.83812	2054.9875
3275.10211	2047.6875
3277.36474	2047.2875
3279.62601	2047.2875
3281.88593	2044.3875
3284.14448	2050.9875
3286.40168	2044.3875
3288.65753	2048.1875
3290.91202	2043.0875
3293.16516	2036.7875
3295.41695	2026.0875
3297.66738	2021.1875
3299.91647	2006.9875
3302.16421	2002.5875
3304.4106	1984.9875
3306.65564	1980.8875
3308.89933	1975.6875
3311.14169	1956.1875
3313.38269	1936.9875
3315.62236	1922.7875
3317.86068	1905.7875
3320.09766	1898.6875
3322.3333	1888.2875
3324.5676	1882.0875
3326.80056	1832.3875
3329.03219	1837.3875
3331.26248	1.5875
3333.49143	-1.1125
3335.71905	-1.6125
