Data from AgNPs_FTO_APTES_UA_1uM_CRN_2uM_R6G_10uM_NaF_0.1M_Addition_RamanShift__1__12-56-29-528.txt Node

Date: Thu Jan 27 12:56:29 GMT 2022
User: TCL
Spectrometer: QEP01345
Trigger mode: 4
Integration Time (sec): 7.000000E0
Scans to average: 10
Electric dark correction enabled: true
Nonlinearity correction enabled: false
Boxcar width: 0
XAxis mode: Raman Shifts
Number of Pixels in Spectrum: 1044
>>>>>Begin Spectral Data<<<<<
46.04893	0
50.45542	0.7
54.85868	-2.7
59.25871	-1.8
63.6555	63.7
68.04907	63.1
72.43941	67.1
76.82654	72.6
81.21044	74.3
85.59113	74.5
89.96862	75.5
94.34289	82.1
98.71396	84.5
103.08183	83
107.4465	88.2
111.80798	92.3
116.16626	93.1
120.52136	96.6
124.87327	98.4
129.222	100.6
133.56755	106.7
137.90993	112.8
142.24913	122
146.58517	137.6
150.91804	160.3
155.24774	185.2
159.57429	222.9
163.89768	283.6
168.21792	374.3
172.53501	506.4
176.84895	700
181.15975	987.4
185.46741	1375.2
189.77193	1895.9
194.07331	2539.1
198.37157	3284.3
202.6667	4061
206.9587	4847.8
211.24758	5596.8
215.53334	6351.9
219.81599	7156.8
224.09553	8037.3
228.37195	9039.7
232.64527	10101.8
236.91549	11283
241.18261	12402.5
245.44663	13500
249.70755	14469.2
253.96539	15317.5
258.22014	16058.6
262.4718	16645.5
266.72039	17030.5
270.96589	17215.7
275.20832	17220.9
279.44768	17108.2
283.68397	16861.5
287.91719	16641.3
292.14735	16484.9
296.37445	16445.6
300.59849	16427.2
304.81948	16521.6
309.03742	16597.2
313.25231	16541.2
317.46415	16372.8
321.67296	16142.8
325.87872	15994.9
330.08145	15901.7
334.28114	15906.6
338.47781	15994.5
342.67145	16200.1
346.86207	16474.4
351.04966	16766.4
355.23424	17120.3
359.4158	17396.6
363.59435	17630.3
367.76989	17811.8
371.94243	17942.8
376.11196	18032.4
380.27849	18173.5
384.44203	18292.4
388.60257	18442.3
392.76012	18566.7
396.91468	18760.5
401.06626	19009.4
405.21485	19197.2
409.36047	19226.5
413.50311	19072.6
417.64277	18987.6
421.77947	18976.1
425.9132	19074.3
430.04396	19187.4
434.17176	19344.5
438.2966	19445.3
442.41849	19771.5
446.53742	20292.4
450.6534	20895.5
454.76644	21312.8
458.87653	21382
462.98368	21256.3
467.08789	20933.2
471.18916	20562.1
475.2875	20125.9
479.38291	19776.5
483.4754	19532.9
487.56496	19394.7
491.6516	19257.3
495.73531	19235.1
499.81612	19287.9
503.89401	19409.9
507.96899	19451.2
512.04106	19400.2
516.11023	19289.5
520.1765	19272
524.23987	19255
528.30034	19237.1
532.35792	19144.6
536.41261	18948.7
540.46441	18703.5
544.51333	18604.7
548.55936	18688.6
552.60252	18937.7
556.64279	19309.7
560.6802	19525
564.71473	19590.7
568.7464	19641.3
572.7752	19887
576.80114	20195.9
580.82422	20617.4
584.84444	21356.2
588.86181	22253.3
592.87633	23178.6
596.888	23465.9
600.89682	22857.7
604.9028	22770
608.90594	24147.9
612.90624	25845.2
616.90371	24860.6
620.89834	21700.1
624.89015	20266.4
628.87913	20052.5
632.86528	19905.5
636.84862	19732.8
640.82913	19336.1
644.80683	18925.4
648.78172	18686.6
652.75379	18712.8
656.72306	18984.7
660.68952	19275.9
664.65319	19241.2
668.61405	18995.1
672.57211	18944.6
676.52738	19050.4
680.47986	19000
684.42955	18866.7
688.37646	18818.1
692.32058	18977.6
696.26192	19256
700.20048	19560.5
704.13626	19639
708.06928	19506.7
711.99952	19319.5
715.927	19296
719.85171	19428.1
723.77365	19370.6
727.69284	19147.3
731.60928	18885.8
735.52295	18836.1
739.43388	18861.9
743.34206	18952.3
747.24749	19017.5
751.15017	19165.1
755.05012	19354.9
758.94733	19766.1
762.8418	20378.4
766.73354	21348.7
770.62254	22381.9
774.50882	22755.8
778.39237	22212.6
782.27321	21168.6
786.15132	20235
790.02671	19676.9
793.89938	19409.5
797.76935	19316.1
801.6366	19278.4
805.50115	19231.5
809.36299	19104.5
813.22213	19011.1
817.07857	18922.3
820.93231	18864
824.78336	18894.4
828.63172	18925
832.47738	18985.9
836.32036	19090.7
840.16066	19273.8
843.99827	19395.5
847.8332	19351.7
851.66546	19177.9
855.49504	19108.8
859.32195	19130.7
863.1462	19065.3
866.96777	18998.2
870.78668	18906.6
874.60293	18917.5
878.41652	18905.6
882.22745	18986.5
886.03573	19089.3
889.84136	19087.4
893.64433	18942.1
897.44466	18845.5
901.24235	18782.2
905.0374	18748.1
908.8298	18717.4
912.61957	18742.8
916.40671	18932.2
920.19121	19132.7
923.97308	19430.3
927.75233	19644
931.52895	19686.2
935.30295	19550.5
939.07433	19316.1
942.84309	19123
946.60924	19053.4
950.37278	19011.8
954.13371	18942.5
957.89203	18794.6
961.64774	18724.4
965.40086	18709.5
969.15137	18692.6
972.89929	18734.5
976.64461	18814.9
980.38733	18963.4
984.12747	19124.9
987.86502	19351.3
991.59999	19631.1
995.33237	20053.7
999.06217	20738.5
1002.78939	21538.7
1006.51404	22001.8
1010.23611	22149.7
1013.95561	22202.3
1017.67255	22038.3
1021.38692	21787.7
1025.09872	21643.5
1028.80796	22081.2
1032.51465	23209.4
1036.21877	24325.9
1039.92035	24584.5
1043.61937	24109.2
1047.31584	23226.5
1051.00976	22199
1054.70114	21569.1
1058.38998	21259.6
1062.07627	21161.9
1065.76003	21056
1069.44126	21142.7
1073.11995	21353.4
1076.79611	21686.9
1080.46974	21897
1084.14085	22029.7
1087.80943	22092.3
1091.47549	22126.4
1095.13903	22031.4
1098.80005	21766
1102.45857	21396.4
1106.11456	21186.6
1109.76805	21075
1113.41903	21051.3
1117.06751	21106.5
1120.71348	21154.2
1124.35696	21267
1127.99793	21399.8
1131.63641	21540.5
1135.2724	21436.4
1138.90589	21329.8
1142.5369	21292.6
1146.16542	21306.5
1149.79145	21355.3
1153.415	21347.7
1157.03607	21408.5
1160.65467	21749
1164.27079	22407.9
1167.88443	23274.1
1171.49561	24323.5
1175.10432	25656
1178.71056	27446.8
1182.31434	29254.8
1185.91565	30308.1
1189.51451	30335.3
1193.11091	29564.3
1196.70485	28526
1200.29634	27614.9
1203.88538	27020.8
1207.47197	26602.3
1211.05612	26161.9
1214.63782	25699.2
1218.21708	25340.7
1221.79391	25115.1
1225.36829	24946.1
1228.94024	24662.5
1232.50976	24158.9
1236.07685	23711.9
1239.6415	23478.2
1243.20374	23505.3
1246.76355	23786.8
1250.32093	24237.5
1253.8759	24798.9
1257.42845	25419.9
1260.97859	26107.4
1264.52631	26864.3
1268.07163	27680.4
1271.61453	28559.6
1275.15503	29450.2
1278.69312	30277.3
1282.22882	30849.1
1285.76211	31334.5
1289.29301	31849.5
1292.82151	32581.6
1296.34761	33893.4
1299.87133	35785.4
1303.39266	37985.1
1306.9116	40298.1
1310.42815	42011.9
1313.94233	42481
1317.45412	41567.8
1320.96354	39964.7
1324.47058	38250.2
1327.97525	36990.1
1331.47754	36145.6
1334.97747	35585.3
1338.47502	35187.2
1341.97022	34600.1
1345.46305	33957.3
1348.95352	33703.3
1352.44163	34339.2
1355.92738	35968.8
1359.41078	38422.4
1362.89183	40171.9
1366.37053	39746.4
1369.84688	36843.7
1373.32088	33093.9
1376.79254	30416.9
1380.26186	29258.4
1383.72883	29008.3
1387.19347	28848.1
1390.65578	28421.8
1394.11575	28054.4
1397.57339	28015.5
1401.0287	28145.8
1404.48168	28326.9
1407.93234	28416.2
1411.38068	28308.5
1414.82669	27944.8
1418.27039	27420.7
1421.71177	26768.3
1425.15083	26252.3
1428.58758	26022.1
1432.02203	26286.5
1435.45416	26899.8
1438.88399	27531.5
1442.31151	27888.5
1445.73673	28014.2
1449.15965	27989.8
1452.58027	27844.7
1455.9986	27601.1
1459.41463	27562.9
1462.82837	27847.4
1466.23982	28451.9
1469.64898	29028
1473.05586	29592.7
1476.46045	29808
1479.86276	29873.1
1483.26279	29614.7
1486.66054	29480.3
1490.05602	29555.7
1493.44922	29756
1496.84016	29880.5
1500.22882	30042.4
1503.61521	30435.1
1506.99934	31096.3
1510.38121	31589.7
1513.76081	31750.3
1517.13816	31170.5
1520.51324	30191.4
1523.88607	29349.1
1527.25665	28925.9
1530.62498	28819.5
1533.99105	28810
1537.35488	28556.3
1540.71647	28310.5
1544.07581	27962.2
1547.4329	27631.7
1550.78776	27309.1
1554.14038	27075.9
1557.49077	26963
1560.83892	26666.3
1564.18484	26515.6
1567.52853	26453.2
1570.86999	26514.9
1574.20922	26796
1577.54624	27011.2
1580.88103	27091.8
1584.2136	27349.5
1587.54395	28267
1590.87208	29942.4
1594.19801	31952.8
1597.52172	33787.8
1600.84321	34393.3
1604.16251	33094.8
1607.47959	30486.6
1610.79447	27750.2
1614.10715	25476.2
1617.41763	23853.7
1620.7259	22916.4
1624.03199	22563.1
1627.33587	22722.3
1630.63757	23338.8
1633.93707	24422.1
1637.23439	26016.2
1640.52951	28310.1
1643.82246	31093.2
1647.11321	33166.6
1650.40179	33354.1
1653.68819	31078.1
1656.97241	27524.3
1660.25446	24307.3
1663.53433	22086.8
1666.81203	20724.8
1670.08756	19965.8
1673.36092	19491.1
1676.63211	19160.2
1679.90115	18951.2
1683.16801	18730.2
1686.43272	18587.7
1689.69527	18494
1692.95567	18383.2
1696.2139	18344.1
1699.46999	18254.3
1702.72392	18237.3
1705.97571	18254.3
1709.22535	18265.9
1712.47284	18308.3
1715.71819	18319.7
1718.96139	18286.3
1722.20246	18234.1
1725.44139	18221.2
1728.67818	18140.2
1731.91284	18067.3
1735.14537	17959.8
1738.37576	17942.5
1741.60403	17873.9
1744.83017	17860.4
1748.05418	17783.2
1751.27607	17778.7
1754.49584	17711.9
1757.71349	17688.8
1760.92903	17682.2
1764.14244	17671.3
1767.35375	17660.3
1770.56294	17670
1773.77002	17683.6
1776.97499	17654
1780.17785	17674.8
1783.37861	17661
1786.57727	17675
1789.77382	17662.5
1792.96828	17661
1796.16064	17603.9
1799.3509	17591.4
1802.53907	17578.5
1805.72514	17524.2
1808.90913	17502.5
1812.09102	17468
1815.27083	17465.3
1818.44856	17450.3
1821.6242	17407.1
1824.79776	17388.8
1827.96924	17388.4
1831.13864	17351.8
1834.30597	17408.6
1837.47122	17378.8
1840.6344	17361
1843.7955	17377.7
1846.95454	17373.2
1850.11151	17331.9
1853.26642	17362.4
1856.41926	17391.2
1859.57004	17399
1862.71876	17403.8
1865.86542	17360.9
1869.01003	17351.4
1872.15258	17318.5
1875.29308	17319
1878.43152	17357.6
1881.56792	17300.9
1884.70227	17272.5
1887.83457	17267.8
1890.96482	17261.7
1894.09304	17245.9
1897.21921	17232.9
1900.34335	17240.8
1903.46544	17203.3
1906.58551	17238.9
1909.70353	17205.3
1912.81953	17196.4
1915.93349	17192.5
1919.04543	17155.6
1922.15534	17109.7
1925.26322	17099.8
1928.36908	17100.2
1931.47292	17066.2
1934.57473	17026
1937.67453	17014.3
1940.77232	16984.2
1943.86808	16909.1
1946.96184	16867
1950.05358	16811.9
1953.14331	16801.7
1956.23103	16755.2
1959.31675	16734.1
1962.40046	16690.9
1965.48217	16663
1968.56188	16665.3
1971.63959	16584.2
1974.7153	16552.6
1977.78901	16518.3
1980.86073	16471.1
1983.93046	16415.8
1986.99819	16351.8
1990.06394	16343.1
1993.1277	16301.2
1996.18947	16255.6
1999.24925	16224.1
2002.30706	16162.4
2005.36288	16096
2008.41672	16098.5
2011.46859	16077.5
2014.51848	16044.5
2017.56639	15995.8
2020.61233	15956.7
2023.6563	15955.8
2026.6983	15934
2029.73833	15881
2032.7764	15870
2035.8125	15891.3
2038.84664	15835
2041.87881	15833.6
2044.90903	15818.8
2047.93729	15780.4
2050.96359	15806.5
2053.98794	15759.1
2057.01034	15759
2060.03078	15761.9
2063.04927	15751.1
2066.06582	15770.6
2069.08042	15743.1
2072.09307	15724.1
2075.10378	15712.2
2078.11255	15702.6
2081.11938	15721.6
2084.12426	15716.8
2087.12722	15708
2090.12824	15725.4
2093.12732	15707.5
2096.12447	15705.3
2099.11969	15734.3
2102.11299	15750
2105.10435	15767.1
2108.09379	15764.8
2111.08131	15789.4
2114.0669	15827.6
2117.05057	15857.4
2120.03233	15822.5
2123.01216	15823.7
2125.99008	15879.6
2128.96609	15886.2
2131.94018	15891.6
2134.91236	15899.4
2137.88263	15922.1
2140.851	15926.4
2143.81746	15974.4
2146.78201	15985.4
2149.74466	16011.6
2152.7054	16004.3
2155.66425	15992.6
2158.6212	16012.6
2161.57625	15991.8
2164.52941	16041.5
2167.48067	16017.7
2170.43004	15999.4
2173.37752	15964
2176.32311	15983.1
2179.26681	16009.4
2182.20863	16036.1
2185.14856	16003.5
2188.08661	16059.1
2191.02278	16064.4
2193.95707	16059.5
2196.88948	16062.8
2199.82001	16095.5
2202.74867	16086.1
2205.67545	16089.8
2208.60037	16081.9
2211.52341	16050
2214.44458	16034.5
2217.36388	16026.2
2220.28132	15990.8
2223.1969	16017.2
2226.11061	15997.8
2229.02246	15988.4
2231.93245	15992.2
2234.84058	15958.9
2237.74686	15902.4
2240.65128	15907.3
2243.55385	15892.2
2246.45456	15847.9
2249.35343	15821.3
2252.25044	15787.6
2255.14561	15784.7
2258.03893	15783.5
2260.93041	15722
2263.82004	15752.8
2266.70783	15700.8
2269.59378	15714.1
2272.4779	15698.5
2275.36017	15636.9
2278.24061	15610.7
2281.11922	15602
2283.996	15618.4
2286.87094	15605.9
2289.74405	15609.8
2292.61534	15565.7
2295.4848	15588.9
2298.35243	15631.7
2301.21824	15610.5
2304.08223	15626.3
2306.94439	15649.8
2309.80474	15673.9
2312.66327	15691.1
2315.51999	15691.5
2318.37489	15710.7
2321.22797	15687.1
2324.07925	15641.3
2326.92871	15646.3
2329.77637	15642.3
2332.62222	15643.2
2335.46626	15624.9
2338.3085	15629.5
2341.14893	15655
2343.98756	15627.9
2346.8244	15635.7
2349.65943	15609.1
2352.49267	15581.7
2355.32411	15565.8
2358.15376	15564.5
2360.98161	15545.1
2363.80768	15522.5
2366.63195	15560.2
2369.45444	15471.3
2372.27514	15480
2375.09405	15450.4
2377.91118	15436
2380.72652	15422.5
2383.54009	15386.2
2386.35187	15394.7
2389.16188	15347.8
2391.97011	15342.4
2394.77657	15328.3
2397.58125	15307
2400.38416	15317
2403.18529	15311.3
2405.98466	15279.5
2408.78226	15273.5
2411.57809	15247
2414.37216	15193.2
2417.16446	15207.7
2419.955	15183.3
2422.74378	15187.5
2425.5308	15158
2428.31606	15152.9
2431.09956	15195.5
2433.88131	15135.8
2436.6613	15135.6
2439.43954	15132
2442.21603	15159.5
2444.99077	15163
2447.76377	15135.4
2450.53501	15116
2453.30451	15136.6
2456.07226	15138.1
2458.83827	15102.4
2461.60254	15132.9
2464.36507	15129.9
2467.12586	15151.3
2469.88492	15161.2
2472.64224	15202.8
2475.39782	15184.3
2478.15167	15151.6
2480.90379	15187.5
2483.65417	15196.6
2486.40283	15206.1
2489.14976	15180.1
2491.89497	15209.2
2494.63845	15241.2
2497.3802	15186.2
2500.12024	15211.8
2502.85855	15195.8
2505.59514	15190.2
2508.33002	15149.5
2511.06318	15174.1
2513.79462	15171.2
2516.52435	15143.1
2519.25237	15135.9
2521.97867	15125.5
2524.70327	15140.8
2527.42616	15145.9
2530.14734	15138
2532.86681	15134.6
2535.58458	15113.2
2538.30065	15077.8
2541.01501	15126
2543.72768	15111.7
2546.43864	15118.5
2549.14791	15100.9
2551.85548	15071.3
2554.56136	15075.7
2557.26554	15052.4
2559.96803	15069.3
2562.66883	15066.2
2565.36794	15070.8
2568.06536	15053
2570.7611	15022.5
2573.45514	14996.8
2576.14751	14983.4
2578.83819	15021.1
2581.52719	15024.5
2584.21451	15006
2586.90015	15005.8
2589.58411	14989.6
2592.2664	15009.9
2594.94701	14954.3
2597.62594	14943
2600.30321	14956.4
2602.9788	14937.2
2605.65273	14973.6
2608.32498	14914.1
2610.99557	14917.2
2613.66449	14915
2616.33175	14907.9
2618.99734	14920.4
2621.66128	14906.1
2624.32355	14888.9
2626.98416	14901.7
2629.64311	14906.3
2632.30041	14880.6
2634.95605	14851.7
2637.61004	14845.4
2640.26238	14819.4
2642.91306	14842.8
2645.56209	14829.7
2648.20948	14817.9
2650.85521	14807.1
2653.4993	14796.4
2656.14175	14798.7
2658.78255	14818.2
2661.42171	14859.3
2664.05923	14859.8
2666.6951	14855.7
2669.32934	14844.8
2671.96194	14866.3
2674.59291	14870.4
2677.22224	14845.8
2679.84993	14880.8
2682.476	14846.7
2685.10043	14850
2687.72324	14817.6
2690.34441	14843
2692.96396	14827.4
2695.58188	14826.8
2698.19818	14813.8
2700.81285	14826.6
2703.4259	14813.7
2706.03733	14829
2708.64714	14814.2
2711.25533	14828.9
2713.86191	14854.4
2716.46687	14882.7
2719.07021	14889
2721.67194	14887.4
2724.27206	14902.9
2726.87057	14953
2729.46747	14941.2
2732.06276	14946
2734.65644	14904.8
2737.24852	14945.3
2739.83899	14902.4
2742.42786	14924.4
2745.01513	14887.3
2747.60079	14888.7
2750.18486	14867.5
2752.76733	14882.2
2755.3482	14865.5
2757.92747	14875.5
2760.50515	14862.4
2763.08123	14860.2
2765.65573	14865.1
2768.22863	14853
2770.79994	14843.2
2773.36967	14871.3
2775.9378	14868.7
2778.50435	14848
2781.06932	14843.3
2783.6327	14834.4
2786.1945	14839.9
2788.75471	14830.3
2791.31335	14809
2793.87041	14787.9
2796.42589	14742
2798.97979	14740.2
2801.53212	14693
2804.08288	14723
2806.63206	14689.1
2809.17967	14633.8
2811.72571	14577.9
2814.27018	14576.9
2816.81308	14590
2819.35442	14580.1
2821.89419	14549.1
2824.43239	14541.5
2826.96904	14528.4
2829.50412	14534
2832.03763	14522.4
2834.56959	14546.9
2837.1	14517.1
2839.62884	14546.1
2842.15613	14530.2
2844.68186	14541.8
2847.20604	14552.8
2849.72867	14550.5
2852.24974	14572.5
2854.76927	14563.3
2857.28724	14543.1
2859.80367	14541.1
2862.31855	14530.8
2864.83189	14506.2
2867.34368	14483.3
2869.85393	14457.3
2872.36264	14479.2
2874.8698	14482.4
2877.37543	14484
2879.87952	14472.6
2882.38207	14485.2
2884.88308	14489.2
2887.38256	14494
2889.88051	14504.3
2892.37692	14521
2894.8718	14515.8
2897.36515	14545.1
2899.85698	14542
2902.34727	14570.9
2904.83604	14619.9
2907.32328	14638.1
2909.809	14612.9
2912.29319	14621.1
2914.77587	14633.1
2917.25702	14620.4
2919.73665	14585
2922.21476	14611.1
2924.69136	14576.1
2927.16644	14586.2
2929.64	14559.3
2932.11205	14595
2934.58258	14515.7
2937.05161	14537.2
2939.51912	14544.6
2941.98513	14481.4
2944.44962	14479.2
2946.91261	14436
2949.37409	14436.2
2951.83407	14452
2954.29254	14464.4
2956.74951	14437.9
2959.20498	14438.6
2961.65895	14426.5
2964.11142	14441.1
2966.56239	14402.4
2969.01186	14414.1
2971.45984	14391.9
2973.90632	14368
2976.35131	14361
2978.7948	14335.9
2981.23681	14310.2
2983.67732	14304.4
2986.11635	14246.2
2988.55388	14212
2990.98993	14203.3
2993.4245	14165.5
2995.85758	14148.1
2998.28917	14149.1
3000.71928	14110.4
3003.14791	14108
3005.57506	14076.3
3008.00073	14059.4
3010.42493	14054.3
3012.84764	14082.6
3015.26888	14066.5
3017.68865	14026
3020.10694	13988.7
3022.52376	14005
3024.9391	14002.7
3027.35298	13971.9
3029.76539	13984.3
3032.17632	13967.3
3034.5858	13928.7
3036.9938	13956
3039.40034	13946.1
3041.80542	13935.3
3044.20903	13885.6
3046.61118	13903.5
3049.01187	13887.4
3051.4111	13887
3053.80888	13869.6
3056.20519	13864.2
3058.60005	13813
3060.99345	13791.4
3063.3854	13758.4
3065.7759	13733.8
3068.16494	13714.9
3070.55254	13709.9
3072.93868	13706.5
3075.32338	13665.7
3077.70662	13655.3
3080.08842	13616.9
3082.46878	13617.8
3084.84769	13578.2
3087.22515	13595.8
3089.60118	13596.4
3091.97576	13598.9
3094.3489	13614.6
3096.72061	13615.6
3099.09087	13616.7
3101.4597	13612.7
3103.82709	13592.7
3106.19305	13576.6
3108.55757	13582
3110.92066	13570.6
3113.28232	13532
3115.64255	13518.8
3118.00134	13523.4
3120.35871	13516.7
3122.71466	13492.2
3125.06917	13447.3
3127.42226	13444.4
3129.77393	13429.4
3132.12417	13411.3
3134.47299	13441.2
3136.82039	13404.6
3139.16636	13418.6
3141.51092	13433
3143.85406	13450.4
3146.19579	13471.1
3148.53609	13451.3
3150.87499	13465.2
3153.21246	13479.3
3155.54853	13508.5
3157.88318	13464.6
3160.21642	13470.4
3162.54826	13491.7
3164.87868	13474.8
3167.2077	13468.7
3169.5353	13497.1
3171.86151	13510.3
3174.18631	13478.7
3176.5097	13477.5
3178.83169	13457.9
3181.15228	13468.1
3183.47147	13437.4
3185.78926	13437
3188.10565	13403.9
3190.42065	13432.6
3192.73424	13404.9
3195.04645	13394.5
3197.35725	13398.2
3199.66667	13404.3
3201.97469	13415.1
3204.28132	13419.6
3206.58656	13438.6
3208.8904	13413.8
3211.19287	13440.2
3213.49394	13457.3
3215.79363	13487.1
3218.09193	13450.4
3220.38884	13456.6
3222.68438	13469.4
3224.97853	13438.7
3227.2713	13446.8
3229.56269	13433.8
3231.8527	13403.3
3234.14133	13409.2
3236.42858	13390.3
3238.71446	13390.8
3240.99896	13356.2
3243.28209	13343.5
3245.56384	13328.4
3247.84423	13337.4
3250.12324	13337
3252.40088	13341.3
3254.67715	13329.2
3256.95205	13301.7
3259.22558	13340.5
3261.49775	13291.4
3263.76855	13266.1
3266.03799	13256.3
3268.30606	13253.6
3270.57277	13246.2
3272.83812	13216.8
3275.10211	13172.4
3277.36474	13152.3
3279.62601	13174.3
3281.88593	13154.8
3284.14448	13181.3
3286.40168	13207.2
3288.65753	13159.1
3290.91202	13191.8
3293.16516	13140.6
3295.41695	13117.5
3297.66738	13006.5
3299.91647	12975.2
3302.16421	12886.9
3304.4106	12842.7
3306.65564	12785.2
3308.89933	12733.4
3311.14169	12678.5
3313.38269	12576.4
3315.62236	12483.5
3317.86068	12393.7
3320.09766	12316.5
3322.3333	12225.3
3324.5676	12190.9
3326.80056	12012.9
3329.03219	11938.7
3331.26248	3.8
3333.49143	-0.1
3335.71905	-0.1
