Data from AgNPs_FTO_APTES_UA_1uM_CRN_5uM_R6G_10uM_NaF_0.1M_Addition_RamanShift__21__14-00-39-602.txt Node

Date: Thu Jan 27 14:00:39 GMT 2022
User: TCL
Spectrometer: QEP01345
Trigger mode: 4
Integration Time (sec): 7.000000E0
Scans to average: 10
Electric dark correction enabled: true
Nonlinearity correction enabled: false
Boxcar width: 0
XAxis mode: Raman Shifts
Number of Pixels in Spectrum: 1044
>>>>>Begin Spectral Data<<<<<
46.04893	2.2
50.45542	-1
54.85868	-1
59.25871	-1.9
63.6555	55.5
68.04907	58.2
72.43941	60.7
76.82654	67.3
81.21044	66.6
85.59113	67.4
89.96862	73.5
94.34289	72.9
98.71396	77.3
103.08183	75.9
107.4465	83.6
111.80798	81.3
116.16626	82.8
120.52136	89.6
124.87327	89.8
129.222	90
133.56755	95.1
137.90993	104
142.24913	107.5
146.58517	122.1
150.91804	140.1
155.24774	167.2
159.57429	198
163.89768	252.8
168.21792	335.1
172.53501	450.8
176.84895	621.1
181.15975	863.1
185.46741	1214.7
189.77193	1669.4
194.07331	2246.4
198.37157	2885.5
202.6667	3564.7
206.9587	4237.6
211.24758	4905.7
215.53334	5565.3
219.81599	6301.2
224.09553	7078.2
228.37195	7997.2
232.64527	8940.2
236.91549	9985.1
241.18261	10986.4
245.44663	11939.3
249.70755	12737.4
253.96539	13488.2
258.22014	14121.1
262.4718	14655.6
266.72039	15062
270.96589	15247
275.20832	15324.1
279.44768	15275.4
283.68397	15145.7
287.91719	15026.1
292.14735	15016.3
296.37445	15051.7
300.59849	15194
304.81948	15324.4
309.03742	15356.9
313.25231	15236.2
317.46415	14780.3
321.67296	14168.2
325.87872	13716.9
330.08145	13481.6
334.28114	13500.8
338.47781	13586.7
342.67145	13826.3
346.86207	14154.8
351.04966	14544.3
355.23424	14986.6
359.4158	15382.9
363.59435	15619.6
367.76989	15766.2
371.94243	15892.1
376.11196	15952.7
380.27849	16054.1
384.44203	16058.8
388.60257	16103.9
392.76012	16199.4
396.91468	16375
401.06626	16699.5
405.21485	16943.5
409.36047	16853.3
413.50311	16522.4
417.64277	16182.5
421.77947	16108.6
425.9132	16106.5
430.04396	16200.4
434.17176	16313.7
438.2966	16457.9
442.41849	16720.5
446.53742	17099.5
450.6534	17583.2
454.76644	17985.2
458.87653	18161.3
462.98368	18105.5
467.08789	17878.4
471.18916	17607.9
475.2875	17290.3
479.38291	17096.7
483.4754	16902.8
487.56496	16730.1
491.6516	16504.6
495.73531	16326.1
499.81612	16260.3
503.89401	16369.4
507.96899	16422.7
512.04106	16424.9
516.11023	16435.9
520.1765	16427.5
524.23987	16309.4
528.30034	16129.7
532.35792	15932.4
536.41261	15716.2
540.46441	15496
544.51333	15516.1
548.55936	15649.2
552.60252	15975.8
556.64279	16317.7
560.6802	16467.8
564.71473	16567
568.7464	16786.1
572.7752	17093.5
576.80114	17251.5
580.82422	17325.9
584.84444	17478.2
588.86181	17624.2
592.87633	17800
596.888	18032.9
600.89682	18271.1
604.9028	19090.1
608.90594	21364
612.90624	24044.7
616.90371	23058.6
620.89834	18866.9
624.89015	16934.3
628.87913	16660.5
632.86528	16666.1
636.84862	16515.6
640.82913	16191.1
644.80683	15729.5
648.78172	15375.4
652.75379	15320
656.72306	15566.6
660.68952	15944.2
664.65319	15943.8
668.61405	15594.7
672.57211	15431.2
676.52738	15404.8
680.47986	15420.9
684.42955	15382.2
688.37646	15344.4
692.32058	15409.1
696.26192	15525.4
700.20048	15700.8
704.13626	15772.7
708.06928	15691.4
711.99952	15574.9
715.927	15508.7
719.85171	15542.6
723.77365	15506.5
727.69284	15366.9
731.60928	15232.5
735.52295	15155.9
739.43388	15233
743.34206	15342.5
747.24749	15421
751.15017	15597.8
755.05012	15819.9
758.94733	16287.3
762.8418	17160.6
766.73354	18624.3
770.62254	20114.6
774.50882	20708.1
778.39237	19795.5
782.27321	18168.9
786.15132	16760.7
790.02671	15926.2
793.89938	15575.4
797.76935	15456.4
801.6366	15388.3
805.50115	15323.6
809.36299	15247.9
813.22213	15162.1
817.07857	15130.3
820.93231	15099.6
824.78336	15101.1
828.63172	15105.3
832.47738	15155.8
836.32036	15211.2
840.16066	15277
843.99827	15325.5
847.8332	15315.1
851.66546	15187.2
855.49504	15100.2
859.32195	15080.5
863.1462	15047.7
866.96777	14983.2
870.78668	14918.7
874.60293	14921.3
878.41652	14924.6
882.22745	14997.9
886.03573	15044.8
889.84136	15040.2
893.64433	14935.9
897.44466	14870.4
901.24235	14847.4
905.0374	14816.3
908.8298	14797.5
912.61957	14811.8
916.40671	14957.9
920.19121	15154.7
923.97308	15362.2
927.75233	15461.8
931.52895	15496.4
935.30295	15362.3
939.07433	15067.7
942.84309	14807.3
946.60924	14707.6
950.37278	14665.1
954.13371	14539
957.89203	14454.3
961.64774	14373.2
965.40086	14341.6
969.15137	14259.4
972.89929	14199.3
976.64461	14154.9
980.38733	14175.1
984.12747	14277.1
987.86502	14444.7
991.59999	14682.8
995.33237	15021.8
999.06217	15604.3
1002.78939	16246.3
1006.51404	16639.8
1010.23611	16793
1013.95561	16915.3
1017.67255	16912.9
1021.38692	16780.7
1025.09872	16643.7
1028.80796	16930.5
1032.51465	17631.9
1036.21877	18275.3
1039.92035	18355
1043.61937	17960.4
1047.31584	17311.6
1051.00976	16566.1
1054.70114	16154.1
1058.38998	16061.4
1062.07627	16058
1065.76003	16063.3
1069.44126	16123.7
1073.11995	16276
1076.79611	16389.9
1080.46974	16567.4
1084.14085	16644.2
1087.80943	16850.7
1091.47549	16942.1
1095.13903	16826.1
1098.80005	16560.5
1102.45857	16205.9
1106.11456	16008
1109.76805	16000.1
1113.41903	16102.5
1117.06751	16342.6
1120.71348	16563.7
1124.35696	16787.8
1127.99793	17046.3
1131.63641	17112.5
1135.2724	16902
1138.90589	16635.7
1142.5369	16462.7
1146.16542	16375.8
1149.79145	16316.3
1153.415	16383.7
1157.03607	16506.9
1160.65467	16828.4
1164.27079	17373.3
1167.88443	18105.2
1171.49561	19291.2
1175.10432	20908.7
1178.71056	22937.3
1182.31434	24831.8
1185.91565	25877
1189.51451	25945.2
1193.11091	25084.5
1196.70485	23662.7
1200.29634	22420.8
1203.88538	21491.6
1207.47197	20699.6
1211.05612	20078.8
1214.63782	19730
1218.21708	19602.6
1221.79391	19659.7
1225.36829	19776.9
1228.94024	19680.7
1232.50976	19512.2
1236.07685	19283.9
1239.6415	19142.5
1243.20374	19077
1246.76355	19110.2
1250.32093	19367.9
1253.8759	19835.6
1257.42845	20428.3
1260.97859	20976.1
1264.52631	21453.4
1268.07163	21944.8
1271.61453	22540.2
1275.15503	23250.4
1278.69312	23980.4
1282.22882	24597.8
1285.76211	25090.5
1289.29301	25544.3
1292.82151	26136.4
1296.34761	26987.5
1299.87133	28206.4
1303.39266	29945.5
1306.9116	32140.2
1310.42815	34453.1
1313.94233	36025.4
1317.45412	35959.2
1320.96354	34955.8
1324.47058	33587.6
1327.97525	32413.8
1331.47754	31572.2
1334.97747	31265.3
1338.47502	31324.6
1341.97022	31560
1345.46305	31519.3
1348.95352	31282.6
1352.44163	31203.2
1355.92738	31813.2
1359.41078	33626.4
1362.89183	35627.3
1366.37053	35264
1369.84688	31974.5
1373.32088	28290
1376.79254	25719.4
1380.26186	24542.9
1383.72883	24124.2
1387.19347	23893.7
1390.65578	23578.8
1394.11575	23459.1
1397.57339	23654.4
1401.0287	24143.1
1404.48168	24642.9
1407.93234	25035.3
1411.38068	25182.1
1414.82669	24931.6
1418.27039	24224.4
1421.71177	23363.8
1425.15083	22618.6
1428.58758	22120.8
1432.02203	22056.5
1435.45416	22257.2
1438.88399	22561.3
1442.31151	22865.3
1445.73673	23155.9
1449.15965	23389.9
1452.58027	23589.1
1455.9986	23555.6
1459.41463	23578.9
1462.82837	23837
1466.23982	24261
1469.64898	24714
1473.05586	24958
1476.46045	25088
1479.86276	25139.2
1483.26279	25082.1
1486.66054	25209.1
1490.05602	25369.3
1493.44922	25727.6
1496.84016	26146.2
1500.22882	26639.5
1503.61521	27447.3
1506.99934	28669.7
1510.38121	29927.7
1513.76081	30605.7
1517.13816	30104.7
1520.51324	28501.4
1523.88607	26906.5
1527.25665	25676.9
1530.62498	24906
1533.99105	24487.4
1537.35488	24163.9
1540.71647	24025.1
1544.07581	23772.3
1547.4329	23543.8
1550.78776	23321.9
1554.14038	23163.2
1557.49077	23186.4
1560.83892	23237.7
1564.18484	23227
1567.52853	23240.5
1570.86999	23273.4
1574.20922	23347.6
1577.54624	23459.2
1580.88103	23368.7
1584.2136	23274.7
1587.54395	23680.5
1590.87208	24734.1
1594.19801	26294.9
1597.52172	28004.6
1600.84321	28713.3
1604.16251	27748.2
1607.47959	25742.9
1610.79447	23579.3
1614.10715	21609
1617.41763	20046.4
1620.7259	18979.2
1624.03199	18479.9
1627.33587	18463.9
1630.63757	19025.2
1633.93707	20076.3
1637.23439	21576.3
1640.52951	23464.8
1643.82246	25393.8
1647.11321	26873.4
1650.40179	27291.3
1653.68819	25893.8
1656.97241	23058.1
1660.25446	20112.1
1663.53433	17878.6
1666.81203	16480.5
1670.08756	15598.1
1673.36092	15058.3
1676.63211	14707.6
1679.90115	14438.3
1683.16801	14236.6
1686.43272	14119
1689.69527	14023.9
1692.95567	13899.9
1696.2139	13826
1699.46999	13776.2
1702.72392	13737
1705.97571	13706.7
1709.22535	13751.9
1712.47284	13765.3
1715.71819	13768
1718.96139	13742.5
1722.20246	13734.1
1725.44139	13652.7
1728.67818	13608
1731.91284	13528.1
1735.14537	13459.1
1738.37576	13412.8
1741.60403	13343.1
1744.83017	13345.1
1748.05418	13255.6
1751.27607	13267.1
1754.49584	13230.1
1757.71349	13221
1760.92903	13186.3
1764.14244	13167.8
1767.35375	13150.8
1770.56294	13170.6
1773.77002	13142.6
1776.97499	13133.8
1780.17785	13152.4
1783.37861	13158.9
1786.57727	13137.3
1789.77382	13126.9
1792.96828	13112.9
1796.16064	13078
1799.3509	13096.1
1802.53907	13058.1
1805.72514	13044.2
1808.90913	13018.3
1812.09102	12970.9
1815.27083	12956.9
1818.44856	12947.3
1821.6242	12929.1
1824.79776	12910.2
1827.96924	12909.4
1831.13864	12901.9
1834.30597	12930.6
1837.47122	12915.1
1840.6344	12907.1
1843.7955	12914.2
1846.95454	12917.3
1850.11151	12912.4
1853.26642	12923.2
1856.41926	12941
1859.57004	12965.4
1862.71876	12940.5
1865.86542	12951
1869.01003	12965.9
1872.15258	12957.9
1875.29308	12943.8
1878.43152	12961.6
1881.56792	12956.9
1884.70227	12941.3
1887.83457	12952
1890.96482	13000.2
1894.09304	12991.7
1897.21921	12988.3
1900.34335	12973
1903.46544	12969
1906.58551	12985
1909.70353	12964.4
1912.81953	12957.8
1915.93349	12947.5
1919.04543	12886.8
1922.15534	12877.9
1925.26322	12884.2
1928.36908	12837.3
1931.47292	12802.8
1934.57473	12732.7
1937.67453	12707.8
1940.77232	12688.9
1943.86808	12601.3
1946.96184	12543.3
1950.05358	12485.9
1953.14331	12466.6
1956.23103	12437.5
1959.31675	12393
1962.40046	12356.5
1965.48217	12324.1
1968.56188	12320.1
1971.63959	12244.9
1974.7153	12191.8
1977.78901	12187.9
1980.86073	12125.8
1983.93046	12100.5
1986.99819	12036.2
1990.06394	12007.5
1993.1277	11994.5
1996.18947	11938.8
1999.24925	11904.7
2002.30706	11877.1
2005.36288	11852.7
2008.41672	11842.5
2011.46859	11775.5
2014.51848	11745.7
2017.56639	11740.6
2020.61233	11721.9
2023.6563	11703.5
2026.6983	11651.4
2029.73833	11665.2
2032.7764	11621.8
2035.8125	11606.1
2038.84664	11602.1
2041.87881	11610.4
2044.90903	11581
2047.93729	11535.7
2050.96359	11548.2
2053.98794	11509.3
2057.01034	11502.3
2060.03078	11492.6
2063.04927	11498.3
2066.06582	11507.9
2069.08042	11493.1
2072.09307	11474.2
2075.10378	11452.1
2078.11255	11453.1
2081.11938	11446.1
2084.12426	11424.6
2087.12722	11430.2
2090.12824	11394.7
2093.12732	11418.7
2096.12447	11404.8
2099.11969	11414.7
2102.11299	11425.4
2105.10435	11419.9
2108.09379	11439.9
2111.08131	11443
2114.0669	11440.5
2117.05057	11427.9
2120.03233	11444.6
2123.01216	11465.8
2125.99008	11463.7
2128.96609	11474.3
2131.94018	11479.3
2134.91236	11506.4
2137.88263	11500.9
2140.851	11501.8
2143.81746	11522.8
2146.78201	11514.1
2149.74466	11547.9
2152.7054	11558.8
2155.66425	11538.2
2158.6212	11527.8
2161.57625	11502.3
2164.52941	11503.3
2167.48067	11501.1
2170.43004	11527.7
2173.37752	11518.2
2176.32311	11507.9
2179.26681	11508.5
2182.20863	11521.4
2185.14856	11517
2188.08661	11515.4
2191.02278	11544.4
2193.95707	11527.2
2196.88948	11534.9
2199.82001	11553.1
2202.74867	11532.6
2205.67545	11529.9
2208.60037	11519.7
2211.52341	11522.5
2214.44458	11502.6
2217.36388	11485.2
2220.28132	11509.7
2223.1969	11465.6
2226.11061	11444.5
2229.02246	11453.4
2231.93245	11445.6
2234.84058	11405.6
2237.74686	11369.1
2240.65128	11366.4
2243.55385	11330.9
2246.45456	11344.7
2249.35343	11326.3
2252.25044	11281
2255.14561	11277.2
2258.03893	11264.4
2260.93041	11221.9
2263.82004	11208.9
2266.70783	11200.4
2269.59378	11185.4
2272.4779	11141.9
2275.36017	11139.2
2278.24061	11128.5
2281.11922	11097.8
2283.996	11072.9
2286.87094	11082.1
2289.74405	11065.3
2292.61534	11041.1
2295.4848	11037
2298.35243	11060
2301.21824	11062.7
2304.08223	11074.4
2306.94439	11087.4
2309.80474	11089.6
2312.66327	11120.5
2315.51999	11092.5
2318.37489	11088.5
2321.22797	11082.2
2324.07925	11104.9
2326.92871	11078.7
2329.77637	11075.9
2332.62222	11076.2
2335.46626	11037.8
2338.3085	11037.5
2341.14893	11052.8
2343.98756	11084.1
2346.8244	11088.6
2349.65943	11092.8
2352.49267	11102.6
2355.32411	11103.2
2358.15376	11076.4
2360.98161	11056.7
2363.80768	11037.1
2366.63195	11048.4
2369.45444	11027.6
2372.27514	10979.9
2375.09405	10972.4
2377.91118	10952.1
2380.72652	10919.6
2383.54009	10862.5
2386.35187	10865.7
2389.16188	10825.1
2391.97011	10837.8
2394.77657	10804
2397.58125	10798.7
2400.38416	10790.4
2403.18529	10765.7
2405.98466	10753.3
2408.78226	10706.8
2411.57809	10698.7
2414.37216	10673.6
2417.16446	10675
2419.955	10661.9
2422.74378	10676.2
2425.5308	10632.5
2428.31606	10654
2431.09956	10633
2433.88131	10613.5
2436.6613	10622.1
2439.43954	10622.9
2442.21603	10599.7
2444.99077	10603.5
2447.76377	10609.9
2450.53501	10610.6
2453.30451	10608.1
2456.07226	10575.3
2458.83827	10588.9
2461.60254	10586.9
2464.36507	10582.4
2467.12586	10591.9
2469.88492	10568.9
2472.64224	10619.1
2475.39782	10604.6
2478.15167	10598.4
2480.90379	10601.3
2483.65417	10633
2486.40283	10623.7
2489.14976	10642
2491.89497	10636.3
2494.63845	10675.2
2497.3802	10658.8
2500.12024	10664.3
2502.85855	10636.8
2505.59514	10645.6
2508.33002	10625.6
2511.06318	10603.1
2513.79462	10608.6
2516.52435	10589.6
2519.25237	10587.5
2521.97867	10572.8
2524.70327	10573.8
2527.42616	10547.7
2530.14734	10549.9
2532.86681	10543.7
2535.58458	10520.4
2538.30065	10535.3
2541.01501	10531.7
2543.72768	10523.2
2546.43864	10513.4
2549.14791	10486.6
2551.85548	10522
2554.56136	10478
2557.26554	10471.7
2559.96803	10476.2
2562.66883	10451.9
2565.36794	10468.9
2568.06536	10468.7
2570.7611	10431.2
2573.45514	10423.3
2576.14751	10419.9
2578.83819	10399.6
2581.52719	10449.4
2584.21451	10417.4
2586.90015	10413.8
2589.58411	10431.5
2592.2664	10428.2
2594.94701	10439.8
2597.62594	10416.2
2600.30321	10414
2602.9788	10394.6
2605.65273	10410.2
2608.32498	10420.8
2610.99557	10374.1
2613.66449	10401.3
2616.33175	10399
2618.99734	10407.2
2621.66128	10437.4
2624.32355	10423.1
2626.98416	10430.3
2629.64311	10417.7
2632.30041	10432.4
2634.95605	10415
2637.61004	10400.8
2640.26238	10372.3
2642.91306	10374.7
2645.56209	10368.5
2648.20948	10365.6
2650.85521	10331.2
2653.4993	10324
2656.14175	10323.6
2658.78255	10338.2
2661.42171	10336.1
2664.05923	10335.4
2666.6951	10377.6
2669.32934	10367.3
2671.96194	10387.8
2674.59291	10382.9
2677.22224	10375.6
2679.84993	10358.1
2682.476	10361.4
2685.10043	10356.4
2687.72324	10336.5
2690.34441	10337.7
2692.96396	10338.3
2695.58188	10326.4
2698.19818	10317.4
2700.81285	10321.1
2703.4259	10302.8
2706.03733	10302.4
2708.64714	10277.7
2711.25533	10317.7
2713.86191	10303.3
2716.46687	10337.1
2719.07021	10318.2
2721.67194	10347.8
2724.27206	10353.9
2726.87057	10367
2729.46747	10358.1
2732.06276	10373.3
2734.65644	10353.1
2737.24852	10362.4
2739.83899	10355.9
2742.42786	10365.3
2745.01513	10350.7
2747.60079	10336.7
2750.18486	10318.1
2752.76733	10325.4
2755.3482	10337.7
2757.92747	10338.4
2760.50515	10297.8
2763.08123	10310.8
2765.65573	10311
2768.22863	10315.7
2770.79994	10314.9
2773.36967	10321.3
2775.9378	10303.6
2778.50435	10272.2
2781.06932	10297.7
2783.6327	10293.2
2786.1945	10286.3
2788.75471	10255.3
2791.31335	10253.3
2793.87041	10242.6
2796.42589	10229.9
2798.97979	10220.8
2801.53212	10197.9
2804.08288	10176.1
2806.63206	10165.2
2809.17967	10148
2811.72571	10126
2814.27018	10114.9
2816.81308	10119.6
2819.35442	10134.1
2821.89419	10108.5
2824.43239	10118.5
2826.96904	10118.6
2829.50412	10102.9
2832.03763	10111.5
2834.56959	10090.2
2837.1	10087.1
2839.62884	10088.9
2842.15613	10064.8
2844.68186	10101.7
2847.20604	10113.6
2849.72867	10127.1
2852.24974	10099.7
2854.76927	10104.2
2857.28724	10091.3
2859.80367	10079.5
2862.31855	10051.9
2864.83189	10047.4
2867.34368	10012.8
2869.85393	10028.6
2872.36264	10050
2874.8698	10030.1
2877.37543	10050.7
2879.87952	10031.5
2882.38207	10032.9
2884.88308	10032.1
2887.38256	10003.7
2889.88051	10040.2
2892.37692	10036.3
2894.8718	10024.8
2897.36515	10040.4
2899.85698	10052.8
2902.34727	10080.5
2904.83604	10061.7
2907.32328	10092.1
2909.809	10083.8
2912.29319	10121.2
2914.77587	10126.2
2917.25702	10093.9
2919.73665	10067.8
2922.21476	10091.1
2924.69136	10084.3
2927.16644	10059.7
2929.64	10072.8
2932.11205	10068.4
2934.58258	10017.2
2937.05161	10035.4
2939.51912	10039
2941.98513	10016.9
2944.44962	9963.9
2946.91261	9936.7
2949.37409	9967.6
2951.83407	9947.5
2954.29254	9974.4
2956.74951	9925.6
2959.20498	9914.1
2961.65895	9882
2964.11142	9921.1
2966.56239	9903.4
2969.01186	9899.9
2971.45984	9867.6
2973.90632	9829.6
2976.35131	9828.6
2978.7948	9801.9
2981.23681	9790.7
2983.67732	9777.6
2986.11635	9755.7
2988.55388	9713.1
2990.98993	9713.2
2993.4245	9695.7
2995.85758	9668.6
2998.28917	9665
3000.71928	9646
3003.14791	9605.9
3005.57506	9616.1
3008.00073	9580.7
3010.42493	9593.7
3012.84764	9591.6
3015.26888	9567.7
3017.68865	9566
3020.10694	9555.1
3022.52376	9515.6
3024.9391	9508
3027.35298	9497.2
3029.76539	9499.1
3032.17632	9495.6
3034.5858	9474.3
3036.9938	9456
3039.40034	9452.9
3041.80542	9459.7
3044.20903	9439.8
3046.61118	9446.1
3049.01187	9437.3
3051.4111	9416.2
3053.80888	9378.3
3056.20519	9402.4
3058.60005	9351.2
3060.99345	9292.9
3063.3854	9286.7
3065.7759	9273.6
3068.16494	9283.8
3070.55254	9240.2
3072.93868	9220.7
3075.32338	9200.5
3077.70662	9208.7
3080.08842	9155.9
3082.46878	9156.5
3084.84769	9147.9
3087.22515	9135.3
3089.60118	9130.4
3091.97576	9123.5
3094.3489	9125.2
3096.72061	9130.5
3099.09087	9143.2
3101.4597	9122.3
3103.82709	9118.8
3106.19305	9124.7
3108.55757	9131
3110.92066	9097.5
3113.28232	9089.1
3115.64255	9065.9
3118.00134	9046.3
3120.35871	9041.6
3122.71466	9033.9
3125.06917	8998.6
3127.42226	8990.5
3129.77393	9004.3
3132.12417	8969.7
3134.47299	8976.6
3136.82039	8959.9
3139.16636	8989.4
3141.51092	8972.9
3143.85406	8999.1
3146.19579	8989.9
3148.53609	8987.1
3150.87499	9018.2
3153.21246	9023.2
3155.54853	9005.3
3157.88318	8975.9
3160.21642	9014.6
3162.54826	9004.7
3164.87868	8990.7
3167.2077	9009.6
3169.5353	8998.9
3171.86151	8990.2
3174.18631	9002.2
3176.5097	9012.9
3178.83169	8981.7
3181.15228	8993.7
3183.47147	8975.4
3185.78926	8960.2
3188.10565	8949.9
3190.42065	8951.1
3192.73424	8958
3195.04645	8964.7
3197.35725	8957.6
3199.66667	8952.7
3201.97469	8952.2
3204.28132	8969.2
3206.58656	8976
3208.8904	8991.3
3211.19287	8983.3
3213.49394	8991.5
3215.79363	9001.7
3218.09193	9001
3220.38884	8988
3222.68438	8994.9
3224.97853	8997.4
3227.2713	8975.8
3229.56269	8988.3
3231.8527	8964.2
3234.14133	8967
3236.42858	8928.9
3238.71446	8940.8
3240.99896	8906.9
3243.28209	8919.1
3245.56384	8899.4
3247.84423	8910.9
3250.12324	8888.2
3252.40088	8908.8
3254.67715	8904.8
3256.95205	8865.5
3259.22558	8867.6
3261.49775	8860.9
3263.76855	8835.9
3266.03799	8831.9
3268.30606	8844.7
3270.57277	8843.4
3272.83812	8827.3
3275.10211	8801.1
3277.36474	8779.8
3279.62601	8770.4
3281.88593	8760.4
3284.14448	8764
3286.40168	8758.6
3288.65753	8767.7
3290.91202	8770.6
3293.16516	8739.2
3295.41695	8718.7
3297.66738	8654.7
3299.91647	8657.6
3302.16421	8598.8
3304.4106	8547.2
3306.65564	8509.2
3308.89933	8449.7
3311.14169	8413.9
3313.38269	8322.7
3315.62236	8310.5
3317.86068	8233.5
3320.09766	8194.9
3322.3333	8126.3
3324.5676	8105.7
3326.80056	7992.3
3329.03219	7915.9
3331.26248	1.3
3333.49143	0.8
3335.71905	-0.3
