Data from AgNPs_FTO_APTES_UA_1uM_CRN_10uM_R6G_50uM_NaF_0.1M_Addition_RamanShift__22__16-06-39-746.txt Node

Date: Thu Jan 27 16:06:39 GMT 2022
User: TCL
Spectrometer: QEP01345
Trigger mode: 4
Integration Time (sec): 7.000000E0
Scans to average: 10
Electric dark correction enabled: true
Nonlinearity correction enabled: false
Boxcar width: 0
XAxis mode: Raman Shifts
Number of Pixels in Spectrum: 1044
>>>>>Begin Spectral Data<<<<<
46.04893	1.8375
50.45542	0.9375
54.85868	-1.6625
59.25871	-0.7625
63.6555	48.0375
68.04907	47.8375
72.43941	52.4375
76.82654	51.8375
81.21044	50.3375
85.59113	55.8375
89.96862	58.8375
94.34289	60.5375
98.71396	63.5375
103.08183	59.8375
107.4465	64.1375
111.80798	70.8375
116.16626	66.4375
120.52136	74.1375
124.87327	73.4375
129.222	69.7375
133.56755	75.3375
137.90993	84.9375
142.24913	90.7375
146.58517	99.0375
150.91804	115.4375
155.24774	135.4375
159.57429	157.1375
163.89768	200.2375
168.21792	261.2375
172.53501	354.7375
176.84895	489.7375
181.15975	680.9375
185.46741	957.7375
189.77193	1308.6375
194.07331	1757.7375
198.37157	2272.6375
202.6667	2799.2375
206.9587	3340.3375
211.24758	3838.8375
215.53334	4374.0375
219.81599	4914.8375
224.09553	5513.9375
228.37195	6176.1375
232.64527	6919.6375
236.91549	7713.5375
241.18261	8481.6375
245.44663	9214.0375
249.70755	9891.1375
253.96539	10479.9375
258.22014	10992.6375
262.4718	11429.2375
266.72039	11741.5375
270.96589	11919.9375
275.20832	11976.4375
279.44768	11957.9375
283.68397	11892.5375
287.91719	11828.8375
292.14735	11838.9375
296.37445	11840.9375
300.59849	11888.6375
304.81948	11927.4375
309.03742	11860.9375
313.25231	11679.7375
317.46415	11380.3375
321.67296	11013.9375
325.87872	10746.9375
330.08145	10638.2375
334.28114	10631.4375
338.47781	10688.0375
342.67145	10847.1375
346.86207	11005.4375
351.04966	11255.6375
355.23424	11503.2375
359.4158	11693.6375
363.59435	11859.8375
367.76989	11946.2375
371.94243	12062.9375
376.11196	12122.4375
380.27849	12182.6375
384.44203	12232.8375
388.60257	12318.4375
392.76012	12426.9375
396.91468	12587.3375
401.06626	12742.8375
405.21485	12888.9375
409.36047	12879.5375
413.50311	12685.4375
417.64277	12546.0375
421.77947	12507.6375
425.9132	12563.6375
430.04396	12647.3375
434.17176	12743.0375
438.2966	12881.7375
442.41849	13102.2375
446.53742	13416.4375
450.6534	13783.4375
454.76644	14067.8375
458.87653	14235.4375
462.98368	14184.2375
467.08789	14038.0375
471.18916	13870.9375
475.2875	13764.2375
479.38291	13701.6375
483.4754	13602.3375
487.56496	13405.9375
491.6516	13198.8375
495.73531	13017.1375
499.81612	12965.5375
503.89401	12992.9375
507.96899	12976.4375
512.04106	12979.8375
516.11023	12894.3375
520.1765	12808.0375
524.23987	12733.7375
528.30034	12615.3375
532.35792	12496.1375
536.41261	12402.8375
540.46441	12315.2375
544.51333	12287.8375
548.55936	12451.8375
552.60252	12683.6375
556.64279	12950.1375
560.6802	13133.9375
564.71473	13214.4375
568.7464	13361.8375
572.7752	13611.5375
576.80114	13769.7375
580.82422	13929.2375
584.84444	14027.4375
588.86181	14163.7375
592.87633	14392.6375
596.888	14583.6375
600.89682	14681.2375
604.9028	15079.1375
608.90594	16141.2375
612.90624	17287.7375
616.90371	16466.5375
620.89834	14079.8375
624.89015	13065.9375
628.87913	12953.3375
632.86528	13026.3375
636.84862	12979.9375
640.82913	12785.1375
644.80683	12457.1375
648.78172	12221.2375
652.75379	12111.7375
656.72306	12241.3375
660.68952	12402.8375
664.65319	12405.7375
668.61405	12214.5375
672.57211	12155.0375
676.52738	12141.3375
680.47986	12156.8375
684.42955	12125.9375
688.37646	12110.0375
692.32058	12144.2375
696.26192	12212.2375
700.20048	12329.7375
704.13626	12408.3375
708.06928	12378.9375
711.99952	12291.5375
715.927	12264.5375
719.85171	12267.9375
723.77365	12239.7375
727.69284	12159.7375
731.60928	12097.8375
735.52295	12043.5375
739.43388	12079.5375
743.34206	12097.5375
747.24749	12138.8375
751.15017	12246.6375
755.05012	12435.8375
758.94733	12801.4375
762.8418	13368.2375
766.73354	14249.8375
770.62254	15144.5375
774.50882	15372.3375
778.39237	14714.4375
782.27321	13688.2375
786.15132	12845.1375
790.02671	12367.7375
793.89938	12138.1375
797.76935	12079.7375
801.6366	12054.8375
805.50115	12017.8375
809.36299	11954.9375
813.22213	11916.6375
817.07857	11896.1375
820.93231	11903.9375
824.78336	11879.5375
828.63172	11849.6375
832.47738	11831.6375
836.32036	11904.4375
840.16066	11897.2375
843.99827	11937.2375
847.8332	11922.1375
851.66546	11847.5375
855.49504	11830.1375
859.32195	11823.8375
863.1462	11788.4375
866.96777	11761.3375
870.78668	11726.0375
874.60293	11732.7375
878.41652	11725.3375
882.22745	11740.7375
886.03573	11751.0375
889.84136	11788.5375
893.64433	11721.4375
897.44466	11685.8375
901.24235	11670.0375
905.0374	11627.2375
908.8298	11589.3375
912.61957	11609.1375
916.40671	11695.1375
920.19121	11875.9375
923.97308	11987.8375
927.75233	12005.3375
931.52895	11968.5375
935.30295	11878.1375
939.07433	11674.3375
942.84309	11545.5375
946.60924	11458.8375
950.37278	11401.0375
954.13371	11360.4375
957.89203	11315.3375
961.64774	11295.1375
965.40086	11253.3375
969.15137	11191.4375
972.89929	11145.4375
976.64461	11120.6375
980.38733	11106.2375
984.12747	11161.2375
987.86502	11246.2375
991.59999	11380.8375
995.33237	11599.0375
999.06217	11902.8375
1002.78939	12300.4375
1006.51404	12512.2375
1010.23611	12614.2375
1013.95561	12720.0375
1017.67255	12712.8375
1021.38692	12629.1375
1025.09872	12551.0375
1028.80796	12641.7375
1032.51465	12976.6375
1036.21877	13271.2375
1039.92035	13327.4375
1043.61937	13139.6375
1047.31584	12835.6375
1051.00976	12470.4375
1054.70114	12314.3375
1058.38998	12331.2375
1062.07627	12376.8375
1065.76003	12461.3375
1069.44126	12521.5375
1073.11995	12601.9375
1076.79611	12675.5375
1080.46974	12700.7375
1084.14085	12773.6375
1087.80943	12848.5375
1091.47549	12947.5375
1095.13903	12946.4375
1098.80005	12784.0375
1102.45857	12589.0375
1106.11456	12402.4375
1109.76805	12347.6375
1113.41903	12486.8375
1117.06751	12584.1375
1120.71348	12689.8375
1124.35696	12846.2375
1127.99793	12957.6375
1131.63641	13070.0375
1135.2724	12951.1375
1138.90589	12803.5375
1142.5369	12723.7375
1146.16542	12695.4375
1149.79145	12725.0375
1153.415	12845.2375
1157.03607	12986.7375
1160.65467	13261.7375
1164.27079	13685.1375
1167.88443	14323.5375
1171.49561	15108.6375
1175.10432	16179.2375
1178.71056	17473.9375
1182.31434	18670.1375
1185.91565	19348.7375
1189.51451	19426.6375
1193.11091	18975.5375
1196.70485	18272.8375
1200.29634	17511.6375
1203.88538	16876.4375
1207.47197	16381.0375
1211.05612	16057.0375
1214.63782	15773.3375
1218.21708	15581.4375
1221.79391	15481.1375
1225.36829	15398.6375
1228.94024	15284.3375
1232.50976	15095.1375
1236.07685	14917.1375
1239.6415	14817.5375
1243.20374	14795.9375
1246.76355	14870.2375
1250.32093	15031.9375
1253.8759	15330.1375
1257.42845	15739.3375
1260.97859	16065.8375
1264.52631	16372.9375
1268.07163	16715.4375
1271.61453	17130.6375
1275.15503	17603.1375
1278.69312	18118.0375
1282.22882	18622.5375
1285.76211	19017.6375
1289.29301	19472.6375
1292.82151	20058.0375
1296.34761	20883.0375
1299.87133	21910.7375
1303.39266	23067.7375
1306.9116	24509.5375
1310.42815	25885.1375
1313.94233	26749.5375
1317.45412	26874.4375
1320.96354	26418.4375
1324.47058	25839.5375
1327.97525	25293.4375
1331.47754	24936.0375
1334.97747	24786.3375
1338.47502	24891.4375
1341.97022	25005.3375
1345.46305	24901.2375
1348.95352	24530.3375
1352.44163	24084.5375
1355.92738	24093.6375
1359.41078	24761.7375
1362.89183	25578.4375
1366.37053	25178.3375
1369.84688	23328.4375
1373.32088	21130.6375
1376.79254	19604.7375
1380.26186	18939.6375
1383.72883	18862.1375
1387.19347	18896.3375
1390.65578	18871.6375
1394.11575	18954.0375
1397.57339	19247.8375
1401.0287	19669.0375
1404.48168	20116.1375
1407.93234	20308.1375
1411.38068	20254.8375
1414.82669	19783.3375
1418.27039	19022.8375
1421.71177	18197.7375
1425.15083	17485.6375
1428.58758	17080.4375
1432.02203	17009.0375
1435.45416	17196.8375
1438.88399	17566.9375
1442.31151	17936.5375
1445.73673	18255.8375
1449.15965	18571.4375
1452.58027	18815.3375
1455.9986	18960.5375
1459.41463	19057.6375
1462.82837	19331.2375
1466.23982	19636.5375
1469.64898	19926.4375
1473.05586	20065.2375
1476.46045	20065.2375
1479.86276	19932.3375
1483.26279	19786.1375
1486.66054	19648.2375
1490.05602	19621.8375
1493.44922	19630.2375
1496.84016	19737.4375
1500.22882	19872.4375
1503.61521	20275.9375
1506.99934	20799.9375
1510.38121	21427.8375
1513.76081	21761.2375
1517.13816	21430.8375
1520.51324	20675.4375
1523.88607	20003.1375
1527.25665	19522.7375
1530.62498	19323.4375
1533.99105	19226.3375
1537.35488	19149.0375
1540.71647	18984.9375
1544.07581	18786.1375
1547.4329	18513.9375
1550.78776	18210.7375
1554.14038	18085.1375
1557.49077	18058.4375
1560.83892	17992.6375
1564.18484	17966.8375
1567.52853	17947.5375
1570.86999	17981.3375
1574.20922	18121.9375
1577.54624	18292.7375
1580.88103	18336.2375
1584.2136	18430.8375
1587.54395	18858.2375
1590.87208	19651.1375
1594.19801	20690.1375
1597.52172	21822.7375
1600.84321	22240.8375
1604.16251	21559.1375
1607.47959	20134.0375
1610.79447	18581.3375
1614.10715	17105.9375
1617.41763	15909.2375
1620.7259	15030.5375
1624.03199	14557.2375
1627.33587	14505.8375
1630.63757	14827.7375
1633.93707	15605.5375
1637.23439	16780.1375
1640.52951	18333.2375
1643.82246	20037.7375
1647.11321	21290.4375
1650.40179	21537.1375
1653.68819	20411.2375
1656.97241	18232.8375
1660.25446	15988.7375
1663.53433	14238.3375
1666.81203	13117.0375
1670.08756	12403.4375
1673.36092	11955.2375
1676.63211	11675.3375
1679.90115	11448.5375
1683.16801	11271.8375
1686.43272	11156.4375
1689.69527	11053.4375
1692.95567	10953.7375
1696.2139	10886.7375
1699.46999	10832.1375
1702.72392	10773.7375
1705.97571	10791.0375
1709.22535	10813.5375
1712.47284	10803.0375
1715.71819	10780.5375
1718.96139	10797.4375
1722.20246	10771.7375
1725.44139	10739.4375
1728.67818	10695.4375
1731.91284	10635.5375
1735.14537	10606.3375
1738.37576	10551.0375
1741.60403	10519.8375
1744.83017	10482.3375
1748.05418	10448.4375
1751.27607	10423.6375
1754.49584	10431.6375
1757.71349	10411.8375
1760.92903	10370.8375
1764.14244	10356.9375
1767.35375	10365.5375
1770.56294	10316.1375
1773.77002	10329.4375
1776.97499	10335.6375
1780.17785	10341.3375
1783.37861	10315.8375
1786.57727	10326.4375
1789.77382	10313.2375
1792.96828	10305.9375
1796.16064	10292.4375
1799.3509	10277.8375
1802.53907	10280.3375
1805.72514	10262.5375
1808.90913	10238.0375
1812.09102	10203.3375
1815.27083	10191.1375
1818.44856	10197.6375
1821.6242	10154.2375
1824.79776	10116.8375
1827.96924	10142.6375
1831.13864	10129.9375
1834.30597	10131.0375
1837.47122	10123.9375
1840.6344	10123.7375
1843.7955	10111.4375
1846.95454	10099.2375
1850.11151	10118.2375
1853.26642	10109.5375
1856.41926	10131.0375
1859.57004	10142.8375
1862.71876	10137.4375
1865.86542	10137.2375
1869.01003	10139.3375
1872.15258	10121.7375
1875.29308	10148.4375
1878.43152	10119.2375
1881.56792	10118.2375
1884.70227	10119.1375
1887.83457	10118.3375
1890.96482	10107.0375
1894.09304	10121.8375
1897.21921	10113.8375
1900.34335	10089.3375
1903.46544	10090.4375
1906.58551	10092.5375
1909.70353	10073.0375
1912.81953	10064.3375
1915.93349	10084.9375
1919.04543	10020.6375
1922.15534	10034.6375
1925.26322	9999.8375
1928.36908	9973.4375
1931.47292	10014.5375
1934.57473	9947.7375
1937.67453	9923.8375
1940.77232	9891.7375
1943.86808	9862.6375
1946.96184	9827.4375
1950.05358	9792.9375
1953.14331	9772.4375
1956.23103	9725.1375
1959.31675	9708.7375
1962.40046	9683.8375
1965.48217	9667.5375
1968.56188	9616.0375
1971.63959	9610.1375
1974.7153	9585.6375
1977.78901	9533.7375
1980.86073	9540.3375
1983.93046	9501.6375
1986.99819	9470.3375
1990.06394	9440.9375
1993.1277	9418.1375
1996.18947	9388.2375
1999.24925	9362.0375
2002.30706	9320.9375
2005.36288	9294.6375
2008.41672	9297.7375
2011.46859	9266.1375
2014.51848	9237.7375
2017.56639	9206.5375
2020.61233	9202.1375
2023.6563	9185.9375
2026.6983	9146.9375
2029.73833	9147.1375
2032.7764	9137.5375
2035.8125	9142.5375
2038.84664	9104.3375
2041.87881	9077.2375
2044.90903	9065.9375
2047.93729	9064.2375
2050.96359	9063.7375
2053.98794	9042.6375
2057.01034	9034.4375
2060.03078	9035.3375
2063.04927	9025.4375
2066.06582	9022.4375
2069.08042	9021.7375
2072.09307	9026.2375
2075.10378	9005.5375
2078.11255	8977.4375
2081.11938	8989.3375
2084.12426	8985.4375
2087.12722	8987.3375
2090.12824	8974.2375
2093.12732	8972.4375
2096.12447	8970.6375
2099.11969	8956.1375
2102.11299	8976.7375
2105.10435	8970.9375
2108.09379	8997.0375
2111.08131	8983.5375
2114.0669	8996.6375
2117.05057	9019.1375
2120.03233	9012.0375
2123.01216	9005.9375
2125.99008	9017.7375
2128.96609	9017.2375
2131.94018	9039.4375
2134.91236	9064.1375
2137.88263	9062.6375
2140.851	9055.8375
2143.81746	9068.8375
2146.78201	9045.4375
2149.74466	9072.6375
2152.7054	9084.8375
2155.66425	9075.8375
2158.6212	9082.8375
2161.57625	9032.8375
2164.52941	9065.9375
2167.48067	9076.1375
2170.43004	9048.9375
2173.37752	9063.4375
2176.32311	9073.4375
2179.26681	9065.2375
2182.20863	9057.7375
2185.14856	9051.4375
2188.08661	9048.4375
2191.02278	9062.1375
2193.95707	9067.1375
2196.88948	9047.0375
2199.82001	9085.0375
2202.74867	9055.0375
2205.67545	9063.5375
2208.60037	9058.0375
2211.52341	9030.1375
2214.44458	9014.2375
2217.36388	9019.2375
2220.28132	9019.6375
2223.1969	9006.0375
2226.11061	9010.0375
2229.02246	8972.6375
2231.93245	8935.0375
2234.84058	8945.1375
2237.74686	8919.3375
2240.65128	8951.4375
2243.55385	8883.4375
2246.45456	8911.1375
2249.35343	8869.7375
2252.25044	8877.9375
2255.14561	8847.9375
2258.03893	8858.7375
2260.93041	8837.5375
2263.82004	8796.1375
2266.70783	8804.7375
2269.59378	8757.6375
2272.4779	8740.6375
2275.36017	8710.5375
2278.24061	8703.7375
2281.11922	8713.1375
2283.996	8698.9375
2286.87094	8706.2375
2289.74405	8702.5375
2292.61534	8632.5375
2295.4848	8668.8375
2298.35243	8661.0375
2301.21824	8678.2375
2304.08223	8671.0375
2306.94439	8691.6375
2309.80474	8684.8375
2312.66327	8670.2375
2315.51999	8718.5375
2318.37489	8658.6375
2321.22797	8650.3375
2324.07925	8650.6375
2326.92871	8657.2375
2329.77637	8655.6375
2332.62222	8640.3375
2335.46626	8628.0375
2338.3085	8633.8375
2341.14893	8639.0375
2343.98756	8661.4375
2346.8244	8640.4375
2349.65943	8648.0375
2352.49267	8631.8375
2355.32411	8637.6375
2358.15376	8638.9375
2360.98161	8622.4375
2363.80768	8613.6375
2366.63195	8608.8375
2369.45444	8583.4375
2372.27514	8582.1375
2375.09405	8584.6375
2377.91118	8541.3375
2380.72652	8531.7375
2383.54009	8486.1375
2386.35187	8480.2375
2389.16188	8472.7375
2391.97011	8472.2375
2394.77657	8455.5375
2397.58125	8436.9375
2400.38416	8463.8375
2403.18529	8409.9375
2405.98466	8429.1375
2408.78226	8405.0375
2411.57809	8391.0375
2414.37216	8371.8375
2417.16446	8359.2375
2419.955	8337.1375
2422.74378	8367.5375
2425.5308	8351.0375
2428.31606	8334.9375
2431.09956	8332.1375
2433.88131	8329.9375
2436.6613	8333.2375
2439.43954	8312.4375
2442.21603	8328.4375
2444.99077	8301.3375
2447.76377	8325.3375
2450.53501	8315.1375
2453.30451	8293.5375
2456.07226	8293.1375
2458.83827	8300.9375
2461.60254	8281.9375
2464.36507	8296.1375
2467.12586	8271.5375
2469.88492	8265.5375
2472.64224	8289.4375
2475.39782	8292.6375
2478.15167	8289.0375
2480.90379	8286.6375
2483.65417	8305.1375
2486.40283	8287.5375
2489.14976	8343.6375
2491.89497	8309.4375
2494.63845	8319.5375
2497.3802	8320.1375
2500.12024	8307.2375
2502.85855	8295.9375
2505.59514	8322.1375
2508.33002	8297.0375
2511.06318	8288.3375
2513.79462	8293.6375
2516.52435	8274.9375
2519.25237	8268.4375
2521.97867	8265.8375
2524.70327	8249.3375
2527.42616	8255.9375
2530.14734	8245.0375
2532.86681	8257.4375
2535.58458	8238.9375
2538.30065	8220.2375
2541.01501	8221.7375
2543.72768	8208.0375
2546.43864	8199.9375
2549.14791	8214.3375
2551.85548	8198.3375
2554.56136	8170.1375
2557.26554	8183.3375
2559.96803	8159.8375
2562.66883	8171.8375
2565.36794	8155.2375
2568.06536	8158.4375
2570.7611	8172.8375
2573.45514	8111.2375
2576.14751	8142.3375
2578.83819	8132.2375
2581.52719	8134.3375
2584.21451	8117.4375
2586.90015	8150.3375
2589.58411	8106.9375
2592.2664	8118.7375
2594.94701	8120.6375
2597.62594	8125.6375
2600.30321	8118.4375
2602.9788	8112.3375
2605.65273	8093.1375
2608.32498	8110.2375
2610.99557	8092.6375
2613.66449	8089.2375
2616.33175	8098.0375
2618.99734	8118.5375
2621.66128	8113.5375
2624.32355	8108.4375
2626.98416	8113.1375
2629.64311	8114.6375
2632.30041	8119.9375
2634.95605	8105.9375
2637.61004	8082.3375
2640.26238	8090.5375
2642.91306	8078.3375
2645.56209	8068.0375
2648.20948	8081.1375
2650.85521	8044.3375
2653.4993	8046.1375
2656.14175	8062.0375
2658.78255	8064.8375
2661.42171	8075.9375
2664.05923	8097.9375
2666.6951	8109.0375
2669.32934	8085.2375
2671.96194	8072.7375
2674.59291	8094.7375
2677.22224	8081.8375
2679.84993	8099.8375
2682.476	8069.1375
2685.10043	8079.6375
2687.72324	8056.4375
2690.34441	8072.5375
2692.96396	8057.9375
2695.58188	8048.8375
2698.19818	8076.9375
2700.81285	8077.3375
2703.4259	8057.5375
2706.03733	8058.4375
2708.64714	8058.2375
2711.25533	8073.7375
2713.86191	8060.1375
2716.46687	8086.2375
2719.07021	8070.6375
2721.67194	8086.3375
2724.27206	8089.0375
2726.87057	8094.6375
2729.46747	8112.1375
2732.06276	8090.3375
2734.65644	8116.0375
2737.24852	8097.7375
2739.83899	8104.7375
2742.42786	8106.9375
2745.01513	8078.9375
2747.60079	8087.5375
2750.18486	8100.4375
2752.76733	8080.7375
2755.3482	8077.9375
2757.92747	8107.2375
2760.50515	8094.6375
2763.08123	8095.7375
2765.65573	8080.9375
2768.22863	8078.0375
2770.79994	8063.8375
2773.36967	8079.7375
2775.9378	8065.3375
2778.50435	8079.1375
2781.06932	8075.2375
2783.6327	8066.1375
2786.1945	8075.3375
2788.75471	8052.1375
2791.31335	8036.0375
2793.87041	8037.9375
2796.42589	8000.5375
2798.97979	7999.4375
2801.53212	8001.8375
2804.08288	7996.2375
2806.63206	7959.2375
2809.17967	7979.6375
2811.72571	7950.5375
2814.27018	7938.1375
2816.81308	7957.7375
2819.35442	7937.1375
2821.89419	7906.6375
2824.43239	7934.6375
2826.96904	7918.7375
2829.50412	7923.5375
2832.03763	7898.0375
2834.56959	7887.4375
2837.1	7886.3375
2839.62884	7908.1375
2842.15613	7906.1375
2844.68186	7897.1375
2847.20604	7889.2375
2849.72867	7921.8375
2852.24974	7902.7375
2854.76927	7897.1375
2857.28724	7877.0375
2859.80367	7871.0375
2862.31855	7871.3375
2864.83189	7876.3375
2867.34368	7854.6375
2869.85393	7844.2375
2872.36264	7839.0375
2874.8698	7855.1375
2877.37543	7844.4375
2879.87952	7861.3375
2882.38207	7846.5375
2884.88308	7827.0375
2887.38256	7873.1375
2889.88051	7834.0375
2892.37692	7849.2375
2894.8718	7832.9375
2897.36515	7849.1375
2899.85698	7880.2375
2902.34727	7887.1375
2904.83604	7898.6375
2907.32328	7902.1375
2909.809	7903.8375
2912.29319	7920.3375
2914.77587	7925.5375
2917.25702	7930.7375
2919.73665	7900.3375
2922.21476	7887.6375
2924.69136	7891.3375
2927.16644	7904.0375
2929.64	7879.7375
2932.11205	7903.6375
2934.58258	7856.5375
2937.05161	7866.4375
2939.51912	7879.5375
2941.98513	7853.5375
2944.44962	7820.4375
2946.91261	7809.6375
2949.37409	7839.7375
2951.83407	7824.3375
2954.29254	7814.0375
2956.74951	7819.5375
2959.20498	7820.5375
2961.65895	7795.8375
2964.11142	7813.3375
2966.56239	7771.6375
2969.01186	7772.0375
2971.45984	7784.8375
2973.90632	7755.9375
2976.35131	7734.1375
2978.7948	7722.1375
2981.23681	7714.7375
2983.67732	7711.9375
2986.11635	7672.8375
2988.55388	7664.0375
2990.98993	7672.6375
2993.4245	7650.7375
2995.85758	7642.3375
2998.28917	7640.5375
3000.71928	7595.5375
3003.14791	7572.6375
3005.57506	7584.8375
3008.00073	7568.1375
3010.42493	7581.0375
3012.84764	7572.3375
3015.26888	7553.1375
3017.68865	7525.1375
3020.10694	7520.6375
3022.52376	7493.5375
3024.9391	7511.2375
3027.35298	7478.6375
3029.76539	7480.8375
3032.17632	7497.2375
3034.5858	7475.7375
3036.9938	7472.2375
3039.40034	7466.3375
3041.80542	7477.1375
3044.20903	7475.1375
3046.61118	7458.9375
3049.01187	7460.7375
3051.4111	7458.1375
3053.80888	7428.1375
3056.20519	7425.9375
3058.60005	7395.2375
3060.99345	7374.6375
3063.3854	7361.5375
3065.7759	7349.3375
3068.16494	7329.6375
3070.55254	7326.0375
3072.93868	7294.2375
3075.32338	7293.4375
3077.70662	7280.6375
3080.08842	7260.3375
3082.46878	7262.3375
3084.84769	7264.1375
3087.22515	7250.6375
3089.60118	7271.5375
3091.97576	7245.6375
3094.3489	7247.6375
3096.72061	7267.0375
3099.09087	7256.1375
3101.4597	7267.4375
3103.82709	7261.4375
3106.19305	7248.0375
3108.55757	7245.7375
3110.92066	7222.9375
3113.28232	7228.2375
3115.64255	7195.2375
3118.00134	7198.2375
3120.35871	7199.3375
3122.71466	7190.6375
3125.06917	7177.6375
3127.42226	7159.5375
3129.77393	7163.2375
3132.12417	7155.9375
3134.47299	7147.0375
3136.82039	7175.9375
3139.16636	7173.6375
3141.51092	7161.1375
3143.85406	7165.1375
3146.19579	7160.8375
3148.53609	7168.5375
3150.87499	7186.1375
3153.21246	7199.2375
3155.54853	7205.4375
3157.88318	7174.4375
3160.21642	7186.9375
3162.54826	7207.3375
3164.87868	7205.0375
3167.2077	7186.8375
3169.5353	7186.9375
3171.86151	7201.6375
3174.18631	7203.1375
3176.5097	7189.2375
3178.83169	7192.4375
3181.15228	7200.6375
3183.47147	7198.8375
3185.78926	7183.9375
3188.10565	7173.3375
3190.42065	7175.2375
3192.73424	7193.4375
3195.04645	7174.1375
3197.35725	7203.7375
3199.66667	7171.7375
3201.97469	7187.1375
3204.28132	7193.4375
3206.58656	7208.1375
3208.8904	7198.7375
3211.19287	7196.5375
3213.49394	7200.9375
3215.79363	7216.3375
3218.09193	7204.3375
3220.38884	7231.4375
3222.68438	7204.3375
3224.97853	7207.2375
3227.2713	7218.9375
3229.56269	7208.4375
3231.8527	7225.9375
3234.14133	7201.3375
3236.42858	7192.1375
3238.71446	7184.3375
3240.99896	7167.9375
3243.28209	7160.0375
3245.56384	7170.7375
3247.84423	7156.1375
3250.12324	7148.4375
3252.40088	7141.3375
3254.67715	7145.9375
3256.95205	7145.2375
3259.22558	7139.0375
3261.49775	7139.0375
3263.76855	7109.3375
3266.03799	7083.9375
3268.30606	7097.4375
3270.57277	7114.8375
3272.83812	7066.4375
3275.10211	7055.0375
3277.36474	7059.7375
3279.62601	7045.2375
3281.88593	7035.4375
3284.14448	7063.4375
3286.40168	7070.9375
3288.65753	7075.8375
3290.91202	7052.8375
3293.16516	7031.1375
3295.41695	7029.5375
3297.66738	6958.4375
3299.91647	6949.8375
3302.16421	6885.7375
3304.4106	6864.5375
3306.65564	6842.8375
3308.89933	6805.5375
3311.14169	6770.6375
3313.38269	6731.2375
3315.62236	6667.7375
3317.86068	6618.6375
3320.09766	6576.8375
3322.3333	6550.8375
3324.5676	6528.6375
3326.80056	6426.0375
3329.03219	6372.0375
3331.26248	2.3375
3333.49143	0.2375
3335.71905	-1.8625
