Data from AgNPs_FTO_APTES_UA_1uM_CRN_10uM_R6G_10uM_NaF_0.1M_Addition_RamanShift__0__14-15-49-620.txt Node

Date: Thu Jan 27 14:15:49 GMT 2022
User: TCL
Spectrometer: QEP01345
Trigger mode: 4
Integration Time (sec): 7.000000E0
Scans to average: 10
Electric dark correction enabled: true
Nonlinearity correction enabled: false
Boxcar width: 0
XAxis mode: Raman Shifts
Number of Pixels in Spectrum: 1044
>>>>>Begin Spectral Data<<<<<
46.04893	2.3125
50.45542	0.6125
54.85868	-0.7875
59.25871	-2.2875
63.6555	18.6125
68.04907	17.3125
72.43941	18.8125
76.82654	18.2125
81.21044	20.5125
85.59113	20.5125
89.96862	19.0125
94.34289	21.5125
98.71396	26.0125
103.08183	19.1125
107.4465	24.8125
111.80798	27.1125
116.16626	23.7125
120.52136	30.1125
124.87327	28.2125
129.222	26.0125
133.56755	29.5125
137.90993	30.0125
142.24913	34.7125
146.58517	37.6125
150.91804	44.4125
155.24774	47.6125
159.57429	58.0125
163.89768	72.0125
168.21792	95.9125
172.53501	131.6125
176.84895	179.7125
181.15975	251.5125
185.46741	351.8125
189.77193	482.8125
194.07331	648.4125
198.37157	832.3125
202.6667	1045.7125
206.9587	1232.5125
211.24758	1427.6125
215.53334	1627.0125
219.81599	1838.8125
224.09553	2062.5125
228.37195	2318.9125
232.64527	2595.0125
236.91549	2898.8125
241.18261	3170.2125
245.44663	3437.5125
249.70755	3677.9125
253.96539	3882.3125
258.22014	4071.4125
262.4718	4224.3125
266.72039	4341.1125
270.96589	4393.4125
275.20832	4389.4125
279.44768	4374.4125
283.68397	4311.0125
287.91719	4253.6125
292.14735	4227.1125
296.37445	4224.0125
300.59849	4255.8125
304.81948	4308.8125
309.03742	4341.2125
313.25231	4316.0125
317.46415	4252.7125
321.67296	4113.2125
325.87872	4024.1125
330.08145	3980.5125
334.28114	3975.2125
338.47781	4012.2125
342.67145	4074.8125
346.86207	4143.9125
351.04966	4237.5125
355.23424	4363.4125
359.4158	4465.9125
363.59435	4528.8125
367.76989	4583.1125
371.94243	4597.4125
376.11196	4623.1125
380.27849	4645.5125
384.44203	4654.0125
388.60257	4655.7125
392.76012	4684.2125
396.91468	4719.0125
401.06626	4801.9125
405.21485	4851.6125
409.36047	4832.7125
413.50311	4742.9125
417.64277	4678.0125
421.77947	4614.8125
425.9132	4605.3125
430.04396	4602.8125
434.17176	4634.9125
438.2966	4672.6125
442.41849	4738.6125
446.53742	4849.9125
450.6534	4961.2125
454.76644	5044.3125
458.87653	5088.0125
462.98368	5077.7125
467.08789	5039.1125
471.18916	4971.0125
475.2875	4925.1125
479.38291	4875.5125
483.4754	4842.3125
487.56496	4811.5125
491.6516	4766.3125
495.73531	4740.9125
499.81612	4728.2125
503.89401	4750.7125
507.96899	4767.9125
512.04106	4759.7125
516.11023	4759.3125
520.1765	4766.7125
524.23987	4765.9125
528.30034	4741.6125
532.35792	4727.0125
536.41261	4668.2125
540.46441	4612.3125
544.51333	4604.8125
548.55936	4622.7125
552.60252	4682.0125
556.64279	4756.4125
560.6802	4821.1125
564.71473	4831.0125
568.7464	4896.9125
572.7752	4944.2125
576.80114	4971.5125
580.82422	4965.5125
584.84444	5021.0125
588.86181	5097.7125
592.87633	5196.3125
596.888	5228.2125
600.89682	5242.0125
604.9028	5390.7125
608.90594	5936.6125
612.90624	6622.7125
616.90371	6410.2125
620.89834	5401.4125
624.89015	4931.2125
628.87913	4837.1125
632.86528	4852.8125
636.84862	4858.1125
640.82913	4784.4125
644.80683	4706.2125
648.78172	4604.4125
652.75379	4624.5125
656.72306	4690.7125
660.68952	4796.3125
664.65319	4790.4125
668.61405	4707.8125
672.57211	4661.8125
676.52738	4667.5125
680.47986	4669.6125
684.42955	4634.9125
688.37646	4618.5125
692.32058	4636.9125
696.26192	4681.1125
700.20048	4736.9125
704.13626	4751.8125
708.06928	4741.6125
711.99952	4709.6125
715.927	4712.9125
719.85171	4740.2125
723.77365	4726.5125
727.69284	4704.6125
731.60928	4662.7125
735.52295	4644.9125
739.43388	4651.1125
743.34206	4668.2125
747.24749	4683.8125
751.15017	4693.3125
755.05012	4741.3125
758.94733	4851.5125
762.8418	5045.4125
766.73354	5367.0125
770.62254	5698.3125
774.50882	5866.0125
778.39237	5722.4125
782.27321	5397.1125
786.15132	5058.5125
790.02671	4840.9125
793.89938	4747.7125
797.76935	4718.7125
801.6366	4693.0125
805.50115	4683.4125
809.36299	4668.0125
813.22213	4654.2125
817.07857	4636.8125
820.93231	4625.9125
824.78336	4638.5125
828.63172	4646.7125
832.47738	4647.3125
836.32036	4677.6125
840.16066	4683.4125
843.99827	4693.4125
847.8332	4689.9125
851.66546	4657.5125
855.49504	4658.2125
859.32195	4661.5125
863.1462	4645.8125
866.96777	4646.0125
870.78668	4634.0125
874.60293	4638.9125
878.41652	4634.5125
882.22745	4648.3125
886.03573	4666.1125
889.84136	4686.0125
893.64433	4656.7125
897.44466	4627.7125
901.24235	4625.5125
905.0374	4600.9125
908.8298	4584.3125
912.61957	4603.6125
916.40671	4615.6125
920.19121	4643.2125
923.97308	4713.0125
927.75233	4743.4125
931.52895	4730.2125
935.30295	4725.9125
939.07433	4658.9125
942.84309	4617.2125
946.60924	4572.7125
950.37278	4573.8125
954.13371	4539.6125
957.89203	4521.7125
961.64774	4519.9125
965.40086	4513.9125
969.15137	4491.3125
972.89929	4498.1125
976.64461	4499.7125
980.38733	4503.4125
984.12747	4532.6125
987.86502	4581.5125
991.59999	4630.7125
995.33237	4664.1125
999.06217	4759.1125
1002.78939	4871.0125
1006.51404	4896.7125
1010.23611	4944.4125
1013.95561	4958.3125
1017.67255	4961.2125
1021.38692	4929.1125
1025.09872	4894.9125
1028.80796	4939.1125
1032.51465	5038.0125
1036.21877	5166.4125
1039.92035	5180.7125
1043.61937	5153.1125
1047.31584	5063.5125
1051.00976	4961.3125
1054.70114	4895.4125
1058.38998	4868.0125
1062.07627	4875.3125
1065.76003	4880.5125
1069.44126	4897.4125
1073.11995	4953.5125
1076.79611	5012.4125
1080.46974	5047.8125
1084.14085	5098.5125
1087.80943	5155.1125
1091.47549	5167.9125
1095.13903	5151.2125
1098.80005	5108.0125
1102.45857	5013.3125
1106.11456	4965.0125
1109.76805	4949.0125
1113.41903	4967.0125
1117.06751	4992.0125
1120.71348	5040.7125
1124.35696	5073.9125
1127.99793	5166.8125
1131.63641	5171.9125
1135.2724	5093.9125
1138.90589	5031.8125
1142.5369	4986.5125
1146.16542	4962.0125
1149.79145	4966.2125
1153.415	4973.6125
1157.03607	4983.1125
1160.65467	5065.7125
1164.27079	5188.9125
1167.88443	5338.1125
1171.49561	5575.1125
1175.10432	5898.2125
1178.71056	6312.7125
1182.31434	6671.9125
1185.91565	6830.5125
1189.51451	6791.3125
1193.11091	6596.7125
1196.70485	6346.5125
1200.29634	6141.6125
1203.88538	6021.3125
1207.47197	5899.1125
1211.05612	5728.3125
1214.63782	5639.6125
1218.21708	5585.9125
1221.79391	5535.0125
1225.36829	5534.7125
1228.94024	5494.4125
1232.50976	5435.3125
1236.07685	5406.8125
1239.6415	5359.1125
1243.20374	5380.1125
1246.76355	5424.4125
1250.32093	5482.9125
1253.8759	5551.6125
1257.42845	5659.1125
1260.97859	5766.9125
1264.52631	5880.9125
1268.07163	6002.8125
1271.61453	6133.1125
1275.15503	6247.0125
1278.69312	6402.8125
1282.22882	6465.9125
1285.76211	6545.7125
1289.29301	6674.0125
1292.82151	6835.6125
1296.34761	7064.4125
1299.87133	7388.9125
1303.39266	7768.9125
1306.9116	8208.5125
1310.42815	8637.5125
1313.94233	8830.6125
1317.45412	8741.3125
1320.96354	8438.9125
1324.47058	8118.5125
1327.97525	7846.0125
1331.47754	7640.8125
1334.97747	7498.3125
1338.47502	7437.6125
1341.97022	7403.0125
1345.46305	7372.8125
1348.95352	7488.4125
1352.44163	7664.6125
1355.92738	7993.3125
1359.41078	8486.7125
1362.89183	8998.4125
1366.37053	8969.9125
1369.84688	8230.1125
1373.32088	7327.3125
1376.79254	6718.7125
1380.26186	6468.8125
1383.72883	6372.5125
1387.19347	6294.2125
1390.65578	6167.9125
1394.11575	6085.6125
1397.57339	6087.8125
1401.0287	6096.8125
1404.48168	6133.9125
1407.93234	6121.9125
1411.38068	6096.5125
1414.82669	6011.9125
1418.27039	5908.5125
1421.71177	5777.9125
1425.15083	5682.3125
1428.58758	5634.1125
1432.02203	5637.3125
1435.45416	5708.2125
1438.88399	5808.0125
1442.31151	5853.1125
1445.73673	5897.0125
1449.15965	5914.3125
1452.58027	5938.1125
1455.9986	5906.4125
1459.41463	5891.1125
1462.82837	5920.9125
1466.23982	6008.9125
1469.64898	6100.3125
1473.05586	6167.4125
1476.46045	6210.3125
1479.86276	6236.8125
1483.26279	6249.6125
1486.66054	6265.1125
1490.05602	6329.0125
1493.44922	6427.3125
1496.84016	6552.4125
1500.22882	6780.0125
1503.61521	7053.3125
1506.99934	7413.6125
1510.38121	7761.9125
1513.76081	7908.5125
1517.13816	7758.8125
1520.51324	7366.2125
1523.88607	6934.4125
1527.25665	6656.9125
1530.62498	6473.0125
1533.99105	6387.8125
1537.35488	6292.3125
1540.71647	6194.5125
1544.07581	6112.9125
1547.4329	6042.9125
1550.78776	5981.3125
1554.14038	5950.2125
1557.49077	5939.3125
1560.83892	5945.2125
1564.18484	5985.7125
1567.52853	6032.1125
1570.86999	6106.8125
1574.20922	6186.2125
1577.54624	6209.0125
1580.88103	6188.0125
1584.2136	6112.0125
1587.54395	6145.8125
1590.87208	6318.1125
1594.19801	6566.0125
1597.52172	6845.4125
1600.84321	6937.3125
1604.16251	6730.1125
1607.47959	6373.5125
1610.79447	5973.1125
1614.10715	5615.5125
1617.41763	5336.4125
1620.7259	5164.4125
1624.03199	5087.3125
1627.33587	5087.4125
1630.63757	5174.1125
1633.93707	5356.2125
1637.23439	5623.8125
1640.52951	6027.8125
1643.82246	6525.6125
1647.11321	7034.4125
1650.40179	7248.9125
1653.68819	6990.2125
1656.97241	6287.8125
1660.25446	5613.0125
1663.53433	5093.5125
1666.81203	4787.7125
1670.08756	4605.7125
1673.36092	4517.2125
1676.63211	4452.5125
1679.90115	4397.1125
1683.16801	4356.1125
1686.43272	4331.3125
1689.69527	4301.4125
1692.95567	4264.9125
1696.2139	4228.5125
1699.46999	4183.1125
1702.72392	4166.2125
1705.97571	4193.3125
1709.22535	4217.0125
1712.47284	4259.0125
1715.71819	4263.0125
1718.96139	4251.7125
1722.20246	4263.6125
1725.44139	4254.2125
1728.67818	4231.1125
1731.91284	4210.8125
1735.14537	4216.5125
1738.37576	4195.7125
1741.60403	4165.1125
1744.83017	4157.9125
1748.05418	4140.0125
1751.27607	4134.3125
1754.49584	4113.6125
1757.71349	4102.2125
1760.92903	4089.9125
1764.14244	4073.4125
1767.35375	4083.0125
1770.56294	4079.5125
1773.77002	4080.3125
1776.97499	4078.3125
1780.17785	4108.5125
1783.37861	4101.4125
1786.57727	4107.8125
1789.77382	4098.8125
1792.96828	4113.7125
1796.16064	4117.1125
1799.3509	4104.9125
1802.53907	4115.7125
1805.72514	4085.9125
1808.90913	4066.0125
1812.09102	4066.1125
1815.27083	4056.8125
1818.44856	4068.1125
1821.6242	4053.0125
1824.79776	4047.8125
1827.96924	4047.1125
1831.13864	4035.4125
1834.30597	4043.2125
1837.47122	4035.6125
1840.6344	4036.8125
1843.7955	4041.6125
1846.95454	4042.1125
1850.11151	4027.2125
1853.26642	4040.1125
1856.41926	4040.0125
1859.57004	4033.4125
1862.71876	4023.8125
1865.86542	4027.1125
1869.01003	4029.1125
1872.15258	4016.1125
1875.29308	4015.5125
1878.43152	4020.4125
1881.56792	4011.2125
1884.70227	4011.8125
1887.83457	3994.4125
1890.96482	3994.0125
1894.09304	4002.6125
1897.21921	3988.5125
1900.34335	3985.2125
1903.46544	3985.4125
1906.58551	3989.9125
1909.70353	3987.6125
1912.81953	3990.0125
1915.93349	3985.5125
1919.04543	3967.8125
1922.15534	3954.2125
1925.26322	3953.1125
1928.36908	3952.1125
1931.47292	3955.7125
1934.57473	3942.6125
1937.67453	3934.2125
1940.77232	3929.8125
1943.86808	3908.2125
1946.96184	3892.8125
1950.05358	3892.5125
1953.14331	3871.8125
1956.23103	3872.0125
1959.31675	3854.8125
1962.40046	3855.2125
1965.48217	3843.2125
1968.56188	3831.1125
1971.63959	3841.7125
1974.7153	3806.7125
1977.78901	3796.8125
1980.86073	3791.2125
1983.93046	3791.5125
1986.99819	3777.2125
1990.06394	3764.0125
1993.1277	3757.4125
1996.18947	3736.7125
1999.24925	3732.0125
2002.30706	3713.3125
2005.36288	3723.8125
2008.41672	3714.2125
2011.46859	3703.3125
2014.51848	3697.9125
2017.56639	3676.4125
2020.61233	3687.5125
2023.6563	3672.9125
2026.6983	3659.9125
2029.73833	3648.8125
2032.7764	3654.2125
2035.8125	3641.6125
2038.84664	3644.6125
2041.87881	3636.5125
2044.90903	3633.4125
2047.93729	3605.4125
2050.96359	3609.6125
2053.98794	3612.4125
2057.01034	3597.2125
2060.03078	3606.5125
2063.04927	3601.8125
2066.06582	3611.8125
2069.08042	3611.7125
2072.09307	3598.7125
2075.10378	3594.6125
2078.11255	3601.3125
2081.11938	3598.7125
2084.12426	3599.3125
2087.12722	3609.5125
2090.12824	3599.7125
2093.12732	3606.1125
2096.12447	3602.2125
2099.11969	3589.7125
2102.11299	3607.5125
2105.10435	3592.7125
2108.09379	3602.6125
2111.08131	3608.4125
2114.0669	3609.5125
2117.05057	3613.5125
2120.03233	3627.9125
2123.01216	3618.4125
2125.99008	3618.8125
2128.96609	3632.5125
2131.94018	3630.3125
2134.91236	3632.7125
2137.88263	3637.4125
2140.851	3640.7125
2143.81746	3639.1125
2146.78201	3656.5125
2149.74466	3657.0125
2152.7054	3657.0125
2155.66425	3645.4125
2158.6212	3658.1125
2161.57625	3634.9125
2164.52941	3650.5125
2167.48067	3643.4125
2170.43004	3653.8125
2173.37752	3642.0125
2176.32311	3651.5125
2179.26681	3653.7125
2182.20863	3638.7125
2185.14856	3637.9125
2188.08661	3649.9125
2191.02278	3659.6125
2193.95707	3646.5125
2196.88948	3655.1125
2199.82001	3664.1125
2202.74867	3652.2125
2205.67545	3644.9125
2208.60037	3630.3125
2211.52341	3648.6125
2214.44458	3630.1125
2217.36388	3625.1125
2220.28132	3620.3125
2223.1969	3630.1125
2226.11061	3623.9125
2229.02246	3611.6125
2231.93245	3603.3125
2234.84058	3593.0125
2237.74686	3589.6125
2240.65128	3588.9125
2243.55385	3580.7125
2246.45456	3568.9125
2249.35343	3583.0125
2252.25044	3563.4125
2255.14561	3568.4125
2258.03893	3568.4125
2260.93041	3555.8125
2263.82004	3543.8125
2266.70783	3564.2125
2269.59378	3547.1125
2272.4779	3538.5125
2275.36017	3527.6125
2278.24061	3512.2125
2281.11922	3528.8125
2283.996	3527.9125
2286.87094	3512.5125
2289.74405	3504.6125
2292.61534	3496.5125
2295.4848	3496.1125
2298.35243	3505.5125
2301.21824	3506.4125
2304.08223	3503.4125
2306.94439	3493.8125
2309.80474	3502.9125
2312.66327	3499.6125
2315.51999	3497.8125
2318.37489	3501.3125
2321.22797	3494.9125
2324.07925	3491.5125
2326.92871	3492.2125
2329.77637	3462.0125
2332.62222	3472.9125
2335.46626	3464.5125
2338.3085	3452.0125
2341.14893	3481.3125
2343.98756	3477.6125
2346.8244	3453.7125
2349.65943	3461.0125
2352.49267	3468.4125
2355.32411	3459.8125
2358.15376	3458.6125
2360.98161	3464.5125
2363.80768	3461.0125
2366.63195	3455.8125
2369.45444	3450.0125
2372.27514	3445.5125
2375.09405	3448.6125
2377.91118	3432.7125
2380.72652	3436.4125
2383.54009	3421.7125
2386.35187	3418.4125
2389.16188	3412.6125
2391.97011	3410.3125
2394.77657	3408.0125
2397.58125	3390.4125
2400.38416	3400.1125
2403.18529	3392.9125
2405.98466	3385.6125
2408.78226	3385.7125
2411.57809	3388.8125
2414.37216	3382.8125
2417.16446	3364.2125
2419.955	3357.1125
2422.74378	3363.9125
2425.5308	3375.2125
2428.31606	3368.9125
2431.09956	3348.5125
2433.88131	3347.9125
2436.6613	3344.0125
2439.43954	3361.6125
2442.21603	3355.7125
2444.99077	3357.0125
2447.76377	3356.4125
2450.53501	3352.1125
2453.30451	3350.3125
2456.07226	3351.7125
2458.83827	3343.1125
2461.60254	3358.8125
2464.36507	3343.4125
2467.12586	3348.3125
2469.88492	3332.6125
2472.64224	3354.7125
2475.39782	3343.1125
2478.15167	3342.1125
2480.90379	3338.4125
2483.65417	3349.5125
2486.40283	3341.0125
2489.14976	3340.5125
2491.89497	3348.6125
2494.63845	3340.5125
2497.3802	3326.4125
2500.12024	3344.7125
2502.85855	3332.0125
2505.59514	3320.0125
2508.33002	3328.9125
2511.06318	3319.2125
2513.79462	3320.2125
2516.52435	3315.7125
2519.25237	3298.8125
2521.97867	3306.2125
2524.70327	3308.2125
2527.42616	3294.0125
2530.14734	3307.3125
2532.86681	3299.4125
2535.58458	3304.1125
2538.30065	3297.4125
2541.01501	3290.4125
2543.72768	3292.2125
2546.43864	3276.0125
2549.14791	3287.5125
2551.85548	3284.5125
2554.56136	3264.9125
2557.26554	3281.4125
2559.96803	3274.8125
2562.66883	3277.7125
2565.36794	3272.6125
2568.06536	3270.1125
2570.7611	3263.9125
2573.45514	3248.1125
2576.14751	3248.2125
2578.83819	3239.7125
2581.52719	3241.9125
2584.21451	3224.7125
2586.90015	3238.5125
2589.58411	3229.9125
2592.2664	3235.4125
2594.94701	3218.7125
2597.62594	3216.4125
2600.30321	3214.1125
2602.9788	3208.8125
2605.65273	3205.3125
2608.32498	3207.4125
2610.99557	3206.8125
2613.66449	3197.4125
2616.33175	3196.8125
2618.99734	3197.3125
2621.66128	3201.0125
2624.32355	3194.0125
2626.98416	3198.7125
2629.64311	3175.9125
2632.30041	3183.3125
2634.95605	3178.4125
2637.61004	3185.9125
2640.26238	3175.7125
2642.91306	3173.5125
2645.56209	3160.4125
2648.20948	3162.0125
2650.85521	3159.5125
2653.4993	3165.8125
2656.14175	3171.9125
2658.78255	3161.2125
2661.42171	3165.0125
2664.05923	3173.9125
2666.6951	3172.9125
2669.32934	3184.8125
2671.96194	3162.7125
2674.59291	3179.6125
2677.22224	3156.2125
2679.84993	3175.4125
2682.476	3169.9125
2685.10043	3178.7125
2687.72324	3160.6125
2690.34441	3156.6125
2692.96396	3158.9125
2695.58188	3167.0125
2698.19818	3167.4125
2700.81285	3163.6125
2703.4259	3159.2125
2706.03733	3141.2125
2708.64714	3139.2125
2711.25533	3154.4125
2713.86191	3168.5125
2716.46687	3182.4125
2719.07021	3160.9125
2721.67194	3176.1125
2724.27206	3166.7125
2726.87057	3180.2125
2729.46747	3186.9125
2732.06276	3170.7125
2734.65644	3169.2125
2737.24852	3169.9125
2739.83899	3180.3125
2742.42786	3180.4125
2745.01513	3177.3125
2747.60079	3162.6125
2750.18486	3167.3125
2752.76733	3153.3125
2755.3482	3152.8125
2757.92747	3157.0125
2760.50515	3158.7125
2763.08123	3144.5125
2765.65573	3153.1125
2768.22863	3133.3125
2770.79994	3147.1125
2773.36967	3131.4125
2775.9378	3143.3125
2778.50435	3127.5125
2781.06932	3135.0125
2783.6327	3139.8125
2786.1945	3124.0125
2788.75471	3136.8125
2791.31335	3124.3125
2793.87041	3117.7125
2796.42589	3095.6125
2798.97979	3104.7125
2801.53212	3104.1125
2804.08288	3099.5125
2806.63206	3097.8125
2809.17967	3073.8125
2811.72571	3082.8125
2814.27018	3070.7125
2816.81308	3069.5125
2819.35442	3082.4125
2821.89419	3079.1125
2824.43239	3068.9125
2826.96904	3076.4125
2829.50412	3069.6125
2832.03763	3059.8125
2834.56959	3066.3125
2837.1	3059.1125
2839.62884	3044.3125
2842.15613	3048.7125
2844.68186	3060.6125
2847.20604	3077.9125
2849.72867	3066.6125
2852.24974	3059.6125
2854.76927	3070.4125
2857.28724	3056.9125
2859.80367	3044.3125
2862.31855	3066.3125
2864.83189	3044.9125
2867.34368	3047.5125
2869.85393	3061.5125
2872.36264	3039.7125
2874.8698	3050.1125
2877.37543	3045.0125
2879.87952	3038.9125
2882.38207	3051.4125
2884.88308	3034.6125
2887.38256	3049.6125
2889.88051	3036.2125
2892.37692	3028.7125
2894.8718	3034.3125
2897.36515	3045.6125
2899.85698	3051.3125
2902.34727	3060.3125
2904.83604	3048.7125
2907.32328	3043.4125
2909.809	3051.4125
2912.29319	3051.1125
2914.77587	3061.2125
2917.25702	3056.4125
2919.73665	3053.8125
2922.21476	3046.5125
2924.69136	3047.4125
2927.16644	3051.0125
2929.64	3039.2125
2932.11205	3057.3125
2934.58258	3048.5125
2937.05161	3041.9125
2939.51912	3032.8125
2941.98513	3032.4125
2944.44962	3033.3125
2946.91261	3018.4125
2949.37409	3015.3125
2951.83407	3009.5125
2954.29254	3011.9125
2956.74951	3007.2125
2959.20498	3014.7125
2961.65895	3006.5125
2964.11142	3022.9125
2966.56239	3015.6125
2969.01186	3002.2125
2971.45984	2993.6125
2973.90632	2997.8125
2976.35131	2997.0125
2978.7948	2993.9125
2981.23681	2988.2125
2983.67732	2970.8125
2986.11635	2981.9125
2988.55388	2974.0125
2990.98993	2971.2125
2993.4245	2948.1125
2995.85758	2952.9125
2998.28917	2942.7125
3000.71928	2938.7125
3003.14791	2935.6125
3005.57506	2927.9125
3008.00073	2933.0125
3010.42493	2941.3125
3012.84764	2935.1125
3015.26888	2926.3125
3017.68865	2924.5125
3020.10694	2918.7125
3022.52376	2910.7125
3024.9391	2913.9125
3027.35298	2905.6125
3029.76539	2911.5125
3032.17632	2906.8125
3034.5858	2896.3125
3036.9938	2898.3125
3039.40034	2896.3125
3041.80542	2899.4125
3044.20903	2891.5125
3046.61118	2891.2125
3049.01187	2891.5125
3051.4111	2887.3125
3053.80888	2883.2125
3056.20519	2871.3125
3058.60005	2872.6125
3060.99345	2855.8125
3063.3854	2859.3125
3065.7759	2854.0125
3068.16494	2851.8125
3070.55254	2839.2125
3072.93868	2853.5125
3075.32338	2838.7125
3077.70662	2833.4125
3080.08842	2831.7125
3082.46878	2822.0125
3084.84769	2829.0125
3087.22515	2824.1125
3089.60118	2826.9125
3091.97576	2815.1125
3094.3489	2833.4125
3096.72061	2820.4125
3099.09087	2831.5125
3101.4597	2825.0125
3103.82709	2821.6125
3106.19305	2819.6125
3108.55757	2832.9125
3110.92066	2815.2125
3113.28232	2806.2125
3115.64255	2812.7125
3118.00134	2810.5125
3120.35871	2804.9125
3122.71466	2794.1125
3125.06917	2802.9125
3127.42226	2780.5125
3129.77393	2802.2125
3132.12417	2803.0125
3134.47299	2777.0125
3136.82039	2800.4125
3139.16636	2793.1125
3141.51092	2803.6125
3143.85406	2802.1125
3146.19579	2808.9125
3148.53609	2800.9125
3150.87499	2801.5125
3153.21246	2803.5125
3155.54853	2813.8125
3157.88318	2803.9125
3160.21642	2817.8125
3162.54826	2818.6125
3164.87868	2805.5125
3167.2077	2816.1125
3169.5353	2810.5125
3171.86151	2818.0125
3174.18631	2817.3125
3176.5097	2817.0125
3178.83169	2816.8125
3181.15228	2808.0125
3183.47147	2796.6125
3185.78926	2799.5125
3188.10565	2804.4125
3190.42065	2803.7125
3192.73424	2794.7125
3195.04645	2796.8125
3197.35725	2794.9125
3199.66667	2794.4125
3201.97469	2795.0125
3204.28132	2808.5125
3206.58656	2802.2125
3208.8904	2800.1125
3211.19287	2807.6125
3213.49394	2809.4125
3215.79363	2813.9125
3218.09193	2812.6125
3220.38884	2813.9125
3222.68438	2800.4125
3224.97853	2805.7125
3227.2713	2798.2125
3229.56269	2794.2125
3231.8527	2803.3125
3234.14133	2793.8125
3236.42858	2791.5125
3238.71446	2798.2125
3240.99896	2782.0125
3243.28209	2782.9125
3245.56384	2779.8125
3247.84423	2775.6125
3250.12324	2772.7125
3252.40088	2785.5125
3254.67715	2779.3125
3256.95205	2783.3125
3259.22558	2775.2125
3261.49775	2775.8125
3263.76855	2784.8125
3266.03799	2756.5125
3268.30606	2759.9125
3270.57277	2768.5125
3272.83812	2754.1125
3275.10211	2749.3125
3277.36474	2749.0125
3279.62601	2748.1125
3281.88593	2736.7125
3284.14448	2746.3125
3286.40168	2734.8125
3288.65753	2750.4125
3290.91202	2742.6125
3293.16516	2737.1125
3295.41695	2720.8125
3297.66738	2710.6125
3299.91647	2703.0125
3302.16421	2692.2125
3304.4106	2667.6125
3306.65564	2669.8125
3308.89933	2646.2125
3311.14169	2633.6125
3313.38269	2608.5125
3315.62236	2591.6125
3317.86068	2578.8125
3320.09766	2560.3125
3322.3333	2540.2125
3324.5676	2535.0125
3326.80056	2498.4125
3329.03219	2473.7125
3331.26248	1.9125
3333.49143	-0.3875
3335.71905	-1.2875
