Data from AgNPs_FTO_APTES_UA_1uM_CRN_10uM_R6G_20uM_NaF_0.1M_Addition_RamanShift__19__15-19-59-693.txt Node

Date: Thu Jan 27 15:19:59 GMT 2022
User: TCL
Spectrometer: QEP01345
Trigger mode: 4
Integration Time (sec): 7.000000E0
Scans to average: 10
Electric dark correction enabled: true
Nonlinearity correction enabled: false
Boxcar width: 0
XAxis mode: Raman Shifts
Number of Pixels in Spectrum: 1044
>>>>>Begin Spectral Data<<<<<
46.04893	0.8625
50.45542	0.3625
54.85868	-0.3375
59.25871	-1.5375
63.6555	43.0625
68.04907	48.6625
72.43941	51.2625
76.82654	53.9625
81.21044	55.4625
85.59113	58.2625
89.96862	59.0625
94.34289	59.0625
98.71396	65.8625
103.08183	63.0625
107.4465	65.8625
111.80798	67.1625
116.16626	70.4625
120.52136	74.5625
124.87327	74.8625
129.222	72.5625
133.56755	79.1625
137.90993	83.3625
142.24913	92.0625
146.58517	95.7625
150.91804	111.8625
155.24774	131.6625
159.57429	157.4625
163.89768	197.3625
168.21792	256.1625
172.53501	349.1625
176.84895	482.9625
181.15975	674.0625
185.46741	942.8625
189.77193	1289.2625
194.07331	1715.9625
198.37157	2208.7625
202.6667	2734.0625
206.9587	3253.4625
211.24758	3754.4625
215.53334	4258.3625
219.81599	4785.3625
224.09553	5368.7625
228.37195	6027.6625
232.64527	6732.8625
236.91549	7502.7625
241.18261	8249.4625
245.44663	8987.9625
249.70755	9650.0625
253.96539	10223.7625
258.22014	10714.6625
262.4718	11097.1625
266.72039	11407.0625
270.96589	11561.3625
275.20832	11589.9625
279.44768	11581.1625
283.68397	11512.4625
287.91719	11431.1625
292.14735	11417.6625
296.37445	11422.8625
300.59849	11470.6625
304.81948	11483.8625
309.03742	11468.5625
313.25231	11310.4625
317.46415	11028.8625
321.67296	10705.6625
325.87872	10451.4625
330.08145	10325.3625
334.28114	10307.3625
338.47781	10378.4625
342.67145	10506.1625
346.86207	10661.8625
351.04966	10895.2625
355.23424	11121.6625
359.4158	11293.0625
363.59435	11439.5625
367.76989	11512.3625
371.94243	11593.9625
376.11196	11671.2625
380.27849	11738.0625
384.44203	11824.1625
388.60257	11881.7625
392.76012	11983.7625
396.91468	12142.8625
401.06626	12336.9625
405.21485	12466.3625
409.36047	12423.8625
413.50311	12275.0625
417.64277	12118.4625
421.77947	12101.0625
425.9132	12166.4625
430.04396	12246.4625
434.17176	12306.8625
438.2966	12413.6625
442.41849	12625.8625
446.53742	12870.4625
450.6534	13225.5625
454.76644	13517.2625
458.87653	13637.3625
462.98368	13620.2625
467.08789	13512.1625
471.18916	13334.9625
475.2875	13179.2625
479.38291	13141.5625
483.4754	13036.0625
487.56496	12901.9625
491.6516	12701.4625
495.73531	12521.6625
499.81612	12419.9625
503.89401	12488.2625
507.96899	12518.9625
512.04106	12491.2625
516.11023	12442.0625
520.1765	12331.8625
524.23987	12228.4625
528.30034	12138.3625
532.35792	12008.3625
536.41261	11878.2625
540.46441	11791.5625
544.51333	11792.1625
548.55936	11941.8625
552.60252	12188.1625
556.64279	12453.2625
560.6802	12610.5625
564.71473	12678.0625
568.7464	12797.2625
572.7752	13064.5625
576.80114	13299.0625
580.82422	13492.4625
584.84444	13678.7625
588.86181	13849.3625
592.87633	13985.5625
596.888	14103.5625
600.89682	14180.3625
604.9028	14532.7625
608.90594	15553.5625
612.90624	16588.9625
616.90371	15710.3625
620.89834	13508.0625
624.89015	12554.3625
628.87913	12502.9625
632.86528	12559.6625
636.84862	12420.6625
640.82913	12211.6625
644.80683	11894.2625
648.78172	11672.3625
652.75379	11604.6625
656.72306	11677.8625
660.68952	11846.0625
664.65319	11824.7625
668.61405	11642.3625
672.57211	11580.7625
676.52738	11576.7625
680.47986	11571.0625
684.42955	11559.7625
688.37646	11530.7625
692.32058	11552.1625
696.26192	11628.6625
700.20048	11764.1625
704.13626	11840.0625
708.06928	11810.1625
711.99952	11708.4625
715.927	11716.7625
719.85171	11714.0625
723.77365	11703.6625
727.69284	11589.0625
731.60928	11489.3625
735.52295	11446.9625
739.43388	11491.6625
743.34206	11544.3625
747.24749	11571.2625
751.15017	11652.4625
755.05012	11846.2625
758.94733	12181.5625
762.8418	12726.3625
766.73354	13585.0625
770.62254	14414.7625
774.50882	14591.4625
778.39237	14018.0625
782.27321	12990.1625
786.15132	12272.9625
790.02671	11768.2625
793.89938	11598.5625
797.76935	11526.3625
801.6366	11513.4625
805.50115	11508.7625
809.36299	11434.6625
813.22213	11347.1625
817.07857	11286.2625
820.93231	11289.3625
824.78336	11241.7625
828.63172	11213.3625
832.47738	11220.2625
836.32036	11267.8625
840.16066	11300.7625
843.99827	11356.3625
847.8332	11358.2625
851.66546	11251.8625
855.49504	11205.2625
859.32195	11216.3625
863.1462	11155.0625
866.96777	11129.0625
870.78668	11069.6625
874.60293	11077.6625
878.41652	11082.5625
882.22745	11100.3625
886.03573	11138.2625
889.84136	11136.2625
893.64433	11068.2625
897.44466	11041.2625
901.24235	11021.5625
905.0374	10959.5625
908.8298	10919.5625
912.61957	10986.6625
916.40671	11072.4625
920.19121	11243.2625
923.97308	11399.9625
927.75233	11434.7625
931.52895	11400.0625
935.30295	11279.7625
939.07433	11089.3625
942.84309	10904.9625
946.60924	10836.4625
950.37278	10814.1625
954.13371	10778.2625
957.89203	10694.1625
961.64774	10671.9625
965.40086	10622.6625
969.15137	10589.0625
972.89929	10487.1625
976.64461	10480.0625
980.38733	10474.7625
984.12747	10534.2625
987.86502	10628.3625
991.59999	10802.0625
995.33237	11054.6625
999.06217	11415.4625
1002.78939	11841.7625
1006.51404	12042.0625
1010.23611	12111.1625
1013.95561	12164.8625
1017.67255	12170.3625
1021.38692	12087.4625
1025.09872	12001.9625
1028.80796	12162.2625
1032.51465	12633.4625
1036.21877	13067.3625
1039.92035	13127.8625
1043.61937	12865.5625
1047.31584	12464.5625
1051.00976	12016.3625
1054.70114	11821.0625
1058.38998	11831.0625
1062.07627	11837.4625
1065.76003	11880.6625
1069.44126	11921.6625
1073.11995	11995.2625
1076.79611	12120.8625
1080.46974	12196.2625
1084.14085	12258.7625
1087.80943	12368.6625
1091.47549	12420.2625
1095.13903	12428.0625
1098.80005	12276.1625
1102.45857	12036.7625
1106.11456	11883.3625
1109.76805	11833.3625
1113.41903	11885.0625
1117.06751	11978.7625
1120.71348	12044.5625
1124.35696	12185.5625
1127.99793	12286.3625
1131.63641	12379.1625
1135.2724	12315.4625
1138.90589	12211.3625
1142.5369	12171.8625
1146.16542	12167.3625
1149.79145	12207.8625
1153.415	12275.9625
1157.03607	12451.9625
1160.65467	12717.6625
1164.27079	13199.4625
1167.88443	13839.0625
1171.49561	14658.5625
1175.10432	15757.1625
1178.71056	17063.2625
1182.31434	18334.8625
1185.91565	19054.7625
1189.51451	19141.6625
1193.11091	18638.3625
1196.70485	17838.0625
1200.29634	17020.2625
1203.88538	16403.3625
1207.47197	15930.9625
1211.05612	15622.2625
1214.63782	15327.4625
1218.21708	15157.6625
1221.79391	15031.4625
1225.36829	15013.1625
1228.94024	14859.2625
1232.50976	14571.8625
1236.07685	14359.1625
1239.6415	14184.4625
1243.20374	14149.7625
1246.76355	14229.6625
1250.32093	14402.8625
1253.8759	14736.3625
1257.42845	15110.0625
1260.97859	15549.2625
1264.52631	15899.8625
1268.07163	16299.3625
1271.61453	16787.0625
1275.15503	17337.5625
1278.69312	17966.7625
1282.22882	18478.9625
1285.76211	18887.6625
1289.29301	19264.0625
1292.82151	19826.0625
1296.34761	20604.8625
1299.87133	21709.7625
1303.39266	23014.0625
1306.9116	24541.8625
1310.42815	26001.0625
1313.94233	26903.0625
1317.45412	26854.3625
1320.96354	26298.4625
1324.47058	25614.8625
1327.97525	25025.0625
1331.47754	24588.7625
1334.97747	24415.9625
1338.47502	24383.1625
1341.97022	24439.1625
1345.46305	24262.1625
1348.95352	23902.9625
1352.44163	23527.4625
1355.92738	23585.8625
1359.41078	24340.5625
1362.89183	25032.8625
1366.37053	24650.6625
1369.84688	22778.9625
1373.32088	20646.5625
1376.79254	19075.8625
1380.26186	18370.8625
1383.72883	18281.5625
1387.19347	18317.1625
1390.65578	18204.0625
1394.11575	18207.6625
1397.57339	18445.9625
1401.0287	18840.9625
1404.48168	19210.6625
1407.93234	19356.1625
1411.38068	19179.7625
1414.82669	18675.9625
1418.27039	17958.8625
1421.71177	17205.8625
1425.15083	16620.0625
1428.58758	16193.3625
1432.02203	16152.8625
1435.45416	16423.3625
1438.88399	16858.7625
1442.31151	17234.3625
1445.73673	17534.3625
1449.15965	17816.0625
1452.58027	17999.8625
1455.9986	18095.8625
1459.41463	18180.1625
1462.82837	18454.2625
1466.23982	18769.3625
1469.64898	19060.2625
1473.05586	19228.9625
1476.46045	19222.9625
1479.86276	19142.2625
1483.26279	18920.4625
1486.66054	18727.2625
1490.05602	18683.0625
1493.44922	18732.2625
1496.84016	18841.7625
1500.22882	19005.3625
1503.61521	19453.7625
1506.99934	20062.2625
1510.38121	20601.5625
1513.76081	20862.1625
1517.13816	20588.9625
1520.51324	19922.9625
1523.88607	19307.8625
1527.25665	18877.4625
1530.62498	18689.8625
1533.99105	18572.7625
1537.35488	18505.6625
1540.71647	18386.6625
1544.07581	18130.2625
1547.4329	17815.8625
1550.78776	17535.3625
1554.14038	17283.7625
1557.49077	17172.5625
1560.83892	17132.9625
1564.18484	17090.2625
1567.52853	17042.8625
1570.86999	17110.5625
1574.20922	17290.4625
1577.54624	17504.7625
1580.88103	17584.8625
1584.2136	17702.7625
1587.54395	18129.5625
1590.87208	18972.5625
1594.19801	20080.2625
1597.52172	21299.5625
1600.84321	21755.2625
1604.16251	20908.3625
1607.47959	19409.4625
1610.79447	17781.9625
1614.10715	16303.2625
1617.41763	15047.8625
1620.7259	14205.2625
1624.03199	13732.3625
1627.33587	13711.0625
1630.63757	14036.5625
1633.93707	14853.5625
1637.23439	16076.9625
1640.52951	17743.3625
1643.82246	19516.5625
1647.11321	20791.7625
1650.40179	20973.2625
1653.68819	19705.3625
1656.97241	17449.9625
1660.25446	15178.5625
1663.53433	13455.8625
1666.81203	12318.1625
1670.08756	11604.0625
1673.36092	11154.7625
1676.63211	10860.3625
1679.90115	10648.3625
1683.16801	10503.0625
1686.43272	10353.3625
1689.69527	10278.6625
1692.95567	10182.0625
1696.2139	10094.4625
1699.46999	10030.7625
1702.72392	9977.2625
1705.97571	10001.4625
1709.22535	10004.4625
1712.47284	10029.7625
1715.71819	10016.3625
1718.96139	10002.2625
1722.20246	9985.2625
1725.44139	9954.4625
1728.67818	9878.1625
1731.91284	9853.1625
1735.14537	9777.4625
1738.37576	9745.6625
1741.60403	9717.2625
1744.83017	9653.2625
1748.05418	9665.0625
1751.27607	9635.2625
1754.49584	9606.2625
1757.71349	9588.7625
1760.92903	9553.1625
1764.14244	9496.6625
1767.35375	9516.9625
1770.56294	9529.4625
1773.77002	9517.6625
1776.97499	9514.0625
1780.17785	9525.5625
1783.37861	9511.2625
1786.57727	9514.3625
1789.77382	9502.1625
1792.96828	9502.7625
1796.16064	9498.0625
1799.3509	9458.6625
1802.53907	9465.1625
1805.72514	9444.8625
1808.90913	9416.8625
1812.09102	9399.9625
1815.27083	9379.3625
1818.44856	9378.4625
1821.6242	9372.3625
1824.79776	9330.9625
1827.96924	9340.5625
1831.13864	9342.4625
1834.30597	9336.6625
1837.47122	9326.3625
1840.6344	9338.3625
1843.7955	9356.8625
1846.95454	9343.5625
1850.11151	9356.5625
1853.26642	9345.8625
1856.41926	9358.1625
1859.57004	9389.2625
1862.71876	9354.1625
1865.86542	9355.5625
1869.01003	9346.8625
1872.15258	9342.9625
1875.29308	9355.6625
1878.43152	9354.0625
1881.56792	9329.5625
1884.70227	9324.9625
1887.83457	9304.0625
1890.96482	9317.0625
1894.09304	9292.7625
1897.21921	9303.4625
1900.34335	9300.9625
1903.46544	9281.7625
1906.58551	9302.8625
1909.70353	9260.7625
1912.81953	9285.2625
1915.93349	9268.7625
1919.04543	9260.1625
1922.15534	9227.6625
1925.26322	9208.8625
1928.36908	9154.7625
1931.47292	9165.7625
1934.57473	9135.3625
1937.67453	9131.0625
1940.77232	9080.7625
1943.86808	9059.3625
1946.96184	9010.4625
1950.05358	8994.2625
1953.14331	8949.4625
1956.23103	8934.8625
1959.31675	8912.1625
1962.40046	8889.1625
1965.48217	8876.6625
1968.56188	8830.8625
1971.63959	8800.9625
1974.7153	8810.1625
1977.78901	8741.7625
1980.86073	8744.4625
1983.93046	8729.6625
1986.99819	8696.3625
1990.06394	8657.1625
1993.1277	8625.1625
1996.18947	8592.4625
1999.24925	8582.2625
2002.30706	8571.3625
2005.36288	8535.3625
2008.41672	8531.2625
2011.46859	8504.4625
2014.51848	8473.8625
2017.56639	8468.2625
2020.61233	8441.0625
2023.6563	8420.8625
2026.6983	8413.9625
2029.73833	8407.6625
2032.7764	8401.8625
2035.8125	8395.3625
2038.84664	8356.9625
2041.87881	8339.5625
2044.90903	8342.8625
2047.93729	8312.5625
2050.96359	8313.8625
2053.98794	8274.0625
2057.01034	8313.6625
2060.03078	8292.4625
2063.04927	8320.9625
2066.06582	8309.5625
2069.08042	8305.4625
2072.09307	8264.1625
2075.10378	8272.9625
2078.11255	8254.4625
2081.11938	8277.7625
2084.12426	8254.3625
2087.12722	8255.0625
2090.12824	8249.2625
2093.12732	8235.4625
2096.12447	8244.0625
2099.11969	8247.5625
2102.11299	8243.1625
2105.10435	8265.2625
2108.09379	8264.4625
2111.08131	8256.9625
2114.0669	8280.2625
2117.05057	8268.2625
2120.03233	8296.3625
2123.01216	8279.4625
2125.99008	8278.4625
2128.96609	8307.6625
2131.94018	8314.9625
2134.91236	8311.6625
2137.88263	8300.8625
2140.851	8306.1625
2143.81746	8334.5625
2146.78201	8330.2625
2149.74466	8353.3625
2152.7054	8337.9625
2155.66425	8328.9625
2158.6212	8336.1625
2161.57625	8333.5625
2164.52941	8342.3625
2167.48067	8353.5625
2170.43004	8331.2625
2173.37752	8340.3625
2176.32311	8327.6625
2179.26681	8353.9625
2182.20863	8348.3625
2185.14856	8324.3625
2188.08661	8356.8625
2191.02278	8369.6625
2193.95707	8348.1625
2196.88948	8343.0625
2199.82001	8337.8625
2202.74867	8325.7625
2205.67545	8346.8625
2208.60037	8339.1625
2211.52341	8323.3625
2214.44458	8315.8625
2217.36388	8310.3625
2220.28132	8302.6625
2223.1969	8292.5625
2226.11061	8294.3625
2229.02246	8256.2625
2231.93245	8262.6625
2234.84058	8252.6625
2237.74686	8219.6625
2240.65128	8223.8625
2243.55385	8192.4625
2246.45456	8197.6625
2249.35343	8176.3625
2252.25044	8180.4625
2255.14561	8149.0625
2258.03893	8136.4625
2260.93041	8102.1625
2263.82004	8119.7625
2266.70783	8108.0625
2269.59378	8082.8625
2272.4779	8054.6625
2275.36017	8053.4625
2278.24061	8033.9625
2281.11922	8022.0625
2283.996	8028.1625
2286.87094	8017.1625
2289.74405	7994.1625
2292.61534	7985.2625
2295.4848	7971.3625
2298.35243	7983.2625
2301.21824	8014.3625
2304.08223	7993.4625
2306.94439	8012.8625
2309.80474	8021.6625
2312.66327	8019.0625
2315.51999	8025.0625
2318.37489	8034.6625
2321.22797	8018.9625
2324.07925	8016.8625
2326.92871	8017.8625
2329.77637	8011.9625
2332.62222	7989.6625
2335.46626	7979.6625
2338.3085	7968.4625
2341.14893	7978.6625
2343.98756	7992.2625
2346.8244	8000.5625
2349.65943	8004.4625
2352.49267	7995.7625
2355.32411	8004.4625
2358.15376	7995.5625
2360.98161	7974.5625
2363.80768	7950.6625
2366.63195	7958.2625
2369.45444	7954.4625
2372.27514	7916.0625
2375.09405	7949.9625
2377.91118	7893.9625
2380.72652	7877.3625
2383.54009	7883.9625
2386.35187	7855.1625
2389.16188	7856.0625
2391.97011	7837.5625
2394.77657	7837.7625
2397.58125	7823.5625
2400.38416	7807.6625
2403.18529	7787.7625
2405.98466	7781.6625
2408.78226	7786.6625
2411.57809	7762.9625
2414.37216	7743.2625
2417.16446	7734.1625
2419.955	7710.1625
2422.74378	7721.5625
2425.5308	7719.8625
2428.31606	7716.6625
2431.09956	7714.5625
2433.88131	7693.1625
2436.6613	7696.7625
2439.43954	7721.7625
2442.21603	7694.7625
2444.99077	7709.2625
2447.76377	7702.2625
2450.53501	7692.8625
2453.30451	7686.4625
2456.07226	7699.2625
2458.83827	7687.4625
2461.60254	7670.3625
2464.36507	7694.1625
2467.12586	7665.6625
2469.88492	7670.4625
2472.64224	7699.4625
2475.39782	7692.8625
2478.15167	7682.9625
2480.90379	7683.1625
2483.65417	7710.0625
2486.40283	7697.9625
2489.14976	7722.3625
2491.89497	7729.6625
2494.63845	7729.5625
2497.3802	7727.9625
2500.12024	7722.2625
2502.85855	7715.6625
2505.59514	7711.1625
2508.33002	7730.9625
2511.06318	7699.2625
2513.79462	7692.7625
2516.52435	7695.4625
2519.25237	7691.5625
2521.97867	7680.0625
2524.70327	7686.4625
2527.42616	7656.1625
2530.14734	7661.6625
2532.86681	7673.4625
2535.58458	7656.3625
2538.30065	7676.0625
2541.01501	7652.9625
2543.72768	7639.3625
2546.43864	7646.5625
2549.14791	7639.5625
2551.85548	7649.0625
2554.56136	7637.9625
2557.26554	7624.1625
2559.96803	7615.6625
2562.66883	7612.6625
2565.36794	7629.1625
2568.06536	7597.1625
2570.7611	7589.2625
2573.45514	7593.4625
2576.14751	7575.6625
2578.83819	7588.6625
2581.52719	7612.2625
2584.21451	7609.2625
2586.90015	7580.9625
2589.58411	7572.7625
2592.2664	7570.5625
2594.94701	7578.8625
2597.62594	7582.7625
2600.30321	7575.3625
2602.9788	7566.0625
2605.65273	7581.0625
2608.32498	7555.4625
2610.99557	7573.1625
2613.66449	7569.3625
2616.33175	7569.8625
2618.99734	7585.8625
2621.66128	7585.8625
2624.32355	7574.5625
2626.98416	7582.7625
2629.64311	7599.7625
2632.30041	7596.2625
2634.95605	7582.5625
2637.61004	7582.1625
2640.26238	7566.5625
2642.91306	7576.4625
2645.56209	7554.3625
2648.20948	7547.5625
2650.85521	7517.5625
2653.4993	7548.8625
2656.14175	7531.3625
2658.78255	7552.5625
2661.42171	7551.2625
2664.05923	7549.0625
2666.6951	7562.1625
2669.32934	7570.0625
2671.96194	7559.5625
2674.59291	7559.6625
2677.22224	7577.4625
2679.84993	7568.4625
2682.476	7551.3625
2685.10043	7548.3625
2687.72324	7551.9625
2690.34441	7534.3625
2692.96396	7535.3625
2695.58188	7535.1625
2698.19818	7542.4625
2700.81285	7556.6625
2703.4259	7512.7625
2706.03733	7512.3625
2708.64714	7513.7625
2711.25533	7523.8625
2713.86191	7531.6625
2716.46687	7548.9625
2719.07021	7540.4625
2721.67194	7576.0625
2724.27206	7582.1625
2726.87057	7569.4625
2729.46747	7578.1625
2732.06276	7573.1625
2734.65644	7566.6625
2737.24852	7575.0625
2739.83899	7565.3625
2742.42786	7567.8625
2745.01513	7567.4625
2747.60079	7573.7625
2750.18486	7570.5625
2752.76733	7573.2625
2755.3482	7562.2625
2757.92747	7554.2625
2760.50515	7549.3625
2763.08123	7564.1625
2765.65573	7551.5625
2768.22863	7569.6625
2770.79994	7545.3625
2773.36967	7555.2625
2775.9378	7544.2625
2778.50435	7558.3625
2781.06932	7542.5625
2783.6327	7554.2625
2786.1945	7540.4625
2788.75471	7529.3625
2791.31335	7529.9625
2793.87041	7505.7625
2796.42589	7511.0625
2798.97979	7505.8625
2801.53212	7466.4625
2804.08288	7483.8625
2806.63206	7461.0625
2809.17967	7437.3625
2811.72571	7423.5625
2814.27018	7436.6625
2816.81308	7416.7625
2819.35442	7432.9625
2821.89419	7427.1625
2824.43239	7405.9625
2826.96904	7412.2625
2829.50412	7423.3625
2832.03763	7387.9625
2834.56959	7390.8625
2837.1	7396.8625
2839.62884	7373.3625
2842.15613	7384.7625
2844.68186	7406.8625
2847.20604	7406.8625
2849.72867	7417.6625
2852.24974	7402.2625
2854.76927	7394.5625
2857.28724	7398.5625
2859.80367	7389.8625
2862.31855	7377.7625
2864.83189	7374.2625
2867.34368	7357.5625
2869.85393	7350.9625
2872.36264	7358.5625
2874.8698	7340.7625
2877.37543	7359.1625
2879.87952	7363.4625
2882.38207	7347.5625
2884.88308	7338.6625
2887.38256	7366.4625
2889.88051	7347.3625
2892.37692	7376.1625
2894.8718	7385.5625
2897.36515	7368.3625
2899.85698	7382.1625
2902.34727	7418.6625
2904.83604	7413.5625
2907.32328	7422.2625
2909.809	7414.5625
2912.29319	7436.6625
2914.77587	7438.9625
2917.25702	7425.3625
2919.73665	7423.8625
2922.21476	7417.5625
2924.69136	7427.8625
2927.16644	7426.5625
2929.64	7406.0625
2932.11205	7405.0625
2934.58258	7378.6625
2937.05161	7388.9625
2939.51912	7399.9625
2941.98513	7378.4625
2944.44962	7378.6625
2946.91261	7344.0625
2949.37409	7374.1625
2951.83407	7349.7625
2954.29254	7325.1625
2956.74951	7340.4625
2959.20498	7322.5625
2961.65895	7321.8625
2964.11142	7327.1625
2966.56239	7288.2625
2969.01186	7330.1625
2971.45984	7295.2625
2973.90632	7275.7625
2976.35131	7289.6625
2978.7948	7262.3625
2981.23681	7253.2625
2983.67732	7263.1625
2986.11635	7210.0625
2988.55388	7203.0625
2990.98993	7174.5625
2993.4245	7182.7625
2995.85758	7150.7625
2998.28917	7143.1625
3000.71928	7139.4625
3003.14791	7141.1625
3005.57506	7117.7625
3008.00073	7097.5625
3010.42493	7085.5625
3012.84764	7118.1625
3015.26888	7088.8625
3017.68865	7081.7625
3020.10694	7074.7625
3022.52376	7053.9625
3024.9391	7042.9625
3027.35298	7051.9625
3029.76539	7044.8625
3032.17632	7046.1625
3034.5858	7013.6625
3036.9938	7032.5625
3039.40034	7033.2625
3041.80542	7028.9625
3044.20903	7018.0625
3046.61118	7027.7625
3049.01187	7012.5625
3051.4111	7012.1625
3053.80888	6985.9625
3056.20519	6992.4625
3058.60005	6971.8625
3060.99345	6936.7625
3063.3854	6945.3625
3065.7759	6929.9625
3068.16494	6922.8625
3070.55254	6899.3625
3072.93868	6908.7625
3075.32338	6863.3625
3077.70662	6869.6625
3080.08842	6865.8625
3082.46878	6850.6625
3084.84769	6862.7625
3087.22515	6853.8625
3089.60118	6849.0625
3091.97576	6836.9625
3094.3489	6830.6625
3096.72061	6859.1625
3099.09087	6860.7625
3101.4597	6861.4625
3103.82709	6874.2625
3106.19305	6852.8625
3108.55757	6870.6625
3110.92066	6826.8625
3113.28232	6832.1625
3115.64255	6831.7625
3118.00134	6819.0625
3120.35871	6807.9625
3122.71466	6808.6625
3125.06917	6801.9625
3127.42226	6785.9625
3129.77393	6771.3625
3132.12417	6752.4625
3134.47299	6769.1625
3136.82039	6790.1625
3139.16636	6805.5625
3141.51092	6770.8625
3143.85406	6794.3625
3146.19579	6810.5625
3148.53609	6809.9625
3150.87499	6813.4625
3153.21246	6825.2625
3155.54853	6844.0625
3157.88318	6811.1625
3160.21642	6846.4625
3162.54826	6828.3625
3164.87868	6825.2625
3167.2077	6843.7625
3169.5353	6848.0625
3171.86151	6844.6625
3174.18631	6844.4625
3176.5097	6855.1625
3178.83169	6851.8625
3181.15228	6853.5625
3183.47147	6843.2625
3185.78926	6848.0625
3188.10565	6813.6625
3190.42065	6835.4625
3192.73424	6820.3625
3195.04645	6834.0625
3197.35725	6857.1625
3199.66667	6827.3625
3201.97469	6853.2625
3204.28132	6857.5625
3206.58656	6858.8625
3208.8904	6861.4625
3211.19287	6879.0625
3213.49394	6888.3625
3215.79363	6892.7625
3218.09193	6882.5625
3220.38884	6887.2625
3222.68438	6877.8625
3224.97853	6877.9625
3227.2713	6864.8625
3229.56269	6888.8625
3231.8527	6876.4625
3234.14133	6855.7625
3236.42858	6843.1625
3238.71446	6848.1625
3240.99896	6838.0625
3243.28209	6856.1625
3245.56384	6833.9625
3247.84423	6827.2625
3250.12324	6828.5625
3252.40088	6809.5625
3254.67715	6826.8625
3256.95205	6829.4625
3259.22558	6825.1625
3261.49775	6801.7625
3263.76855	6814.0625
3266.03799	6800.6625
3268.30606	6799.5625
3270.57277	6801.0625
3272.83812	6774.1625
3275.10211	6757.8625
3277.36474	6747.8625
3279.62601	6751.3625
3281.88593	6743.0625
3284.14448	6753.8625
3286.40168	6766.2625
3288.65753	6773.2625
3290.91202	6752.3625
3293.16516	6735.0625
3295.41695	6710.7625
3297.66738	6677.7625
3299.91647	6643.2625
3302.16421	6617.4625
3304.4106	6592.2625
3306.65564	6554.5625
3308.89933	6544.3625
3311.14169	6489.8625
3313.38269	6427.6625
3315.62236	6409.1625
3317.86068	6349.9625
3320.09766	6324.9625
3322.3333	6274.4625
3324.5676	6252.5625
3326.80056	6165.8625
3329.03219	6134.2625
3331.26248	1.8625
3333.49143	-1.0375
3335.71905	-0.1375
