Data from AgNPs_FTO_APTES_UA_1uM_CRN_200uM_R6G_10uM_NaF_0.1M_Addition_RamanShift__30__17-39-59-852.txt Node

Date: Thu Jan 27 17:39:59 GMT 2022
User: TCL
Spectrometer: QEP01345
Trigger mode: 4
Integration Time (sec): 7.000000E0
Scans to average: 10
Electric dark correction enabled: true
Nonlinearity correction enabled: false
Boxcar width: 0
XAxis mode: Raman Shifts
Number of Pixels in Spectrum: 1044
>>>>>Begin Spectral Data<<<<<
46.04893	1.1875
50.45542	0.2875
54.85868	-0.4125
59.25871	-0.6125
63.6555	31.5875
68.04907	32.2875
72.43941	33.7875
76.82654	38.3875
81.21044	40.6875
85.59113	42.8875
89.96862	43.0875
94.34289	48.2875
98.71396	46.0875
103.08183	45.9875
107.4465	46.9875
111.80798	49.8875
116.16626	49.3875
120.52136	51.8875
124.87327	51.1875
129.222	50.8875
133.56755	51.7875
137.90993	51.7875
142.24913	53.2875
146.58517	55.9875
150.91804	62.6875
155.24774	68.5875
159.57429	73.4875
163.89768	91.5875
168.21792	114.6875
172.53501	150.2875
176.84895	195.8875
181.15975	261.1875
185.46741	363.1875
189.77193	491.6875
194.07331	656.6875
198.37157	850.4875
202.6667	1037.9875
206.9587	1229.2875
211.24758	1426.3875
215.53334	1631.0875
219.81599	1848.7875
224.09553	2084.1875
228.37195	2361.5875
232.64527	2640.6875
236.91549	2946.6875
241.18261	3216.7875
245.44663	3449.5875
249.70755	3666.6875
253.96539	3813.3875
258.22014	3962.6875
262.4718	4067.4875
266.72039	4155.1875
270.96589	4199.2875
275.20832	4196.8875
279.44768	4140.3875
283.68397	4083.6875
287.91719	4018.2875
292.14735	4024.5875
296.37445	4088.1875
300.59849	4193.7875
304.81948	4359.6875
309.03742	4477.0875
313.25231	4491.4875
317.46415	4301.2875
321.67296	4003.9875
325.87872	3752.2875
330.08145	3645.9875
334.28114	3649.6875
338.47781	3691.8875
342.67145	3817.0875
346.86207	3945.8875
351.04966	4180.3875
355.23424	4419.3875
359.4158	4613.4875
363.59435	4715.9875
367.76989	4728.0875
371.94243	4725.0875
376.11196	4692.0875
380.27849	4671.1875
384.44203	4614.9875
388.60257	4545.4875
392.76012	4547.5875
396.91468	4585.2875
401.06626	4703.3875
405.21485	4804.0875
409.36047	4756.3875
413.50311	4529.3875
417.64277	4320.7875
421.77947	4190.3875
425.9132	4126.0875
430.04396	4098.1875
434.17176	4117.1875
438.2966	4170.8875
442.41849	4267.4875
446.53742	4381.0875
450.6534	4472.6875
454.76644	4546.0875
458.87653	4559.6875
462.98368	4537.5875
467.08789	4456.6875
471.18916	4395.9875
475.2875	4302.0875
479.38291	4236.4875
483.4754	4191.6875
487.56496	4148.2875
491.6516	4123.3875
495.73531	4117.9875
499.81612	4125.6875
503.89401	4162.5875
507.96899	4200.6875
512.04106	4267.8875
516.11023	4343.1875
520.1765	4392.5875
524.23987	4386.6875
528.30034	4305.9875
532.35792	4210.5875
536.41261	4131.9875
540.46441	4016.8875
544.51333	3982.2875
548.55936	3989.9875
552.60252	4065.4875
556.64279	4150.7875
560.6802	4203.0875
564.71473	4243.6875
568.7464	4415.4875
572.7752	4497.7875
576.80114	4396.3875
580.82422	4271.2875
584.84444	4224.1875
588.86181	4194.3875
592.87633	4207.8875
596.888	4245.1875
600.89682	4355.0875
604.9028	4756.0875
608.90594	5851.4875
612.90624	7412.3875
616.90371	7364.1875
620.89834	5373.1875
624.89015	4375.4875
628.87913	4160.2875
632.86528	4162.6875
636.84862	4209.9875
640.82913	4182.0875
644.80683	4064.0875
648.78172	3983.5875
652.75379	3983.7875
656.72306	4141.1875
660.68952	4335.1875
664.65319	4321.0875
668.61405	4121.5875
672.57211	4042.0875
676.52738	4046.0875
680.47986	4065.7875
684.42955	4039.8875
688.37646	4033.6875
692.32058	4040.3875
696.26192	4061.0875
700.20048	4085.0875
704.13626	4113.8875
708.06928	4090.4875
711.99952	4056.8875
715.927	4015.7875
719.85171	4025.9875
723.77365	4016.5875
727.69284	4002.0875
731.60928	3976.9875
735.52295	3969.4875
739.43388	3981.5875
743.34206	3996.5875
747.24749	4009.2875
751.15017	4045.4875
755.05012	4105.7875
758.94733	4283.8875
762.8418	4625.7875
766.73354	5218.4875
770.62254	5909.4875
774.50882	6349.7875
778.39237	6183.3875
782.27321	5483.4875
786.15132	4730.3875
790.02671	4289.6875
793.89938	4120.2875
797.76935	4041.2875
801.6366	3994.2875
805.50115	3988.5875
809.36299	3968.8875
813.22213	3968.7875
817.07857	3963.0875
820.93231	3944.6875
824.78336	3968.4875
828.63172	3982.4875
832.47738	3977.9875
836.32036	3982.9875
840.16066	3983.3875
843.99827	3958.0875
847.8332	3945.3875
851.66546	3937.0875
855.49504	3941.6875
859.32195	3945.8875
863.1462	3921.0875
866.96777	3909.4875
870.78668	3895.3875
874.60293	3897.5875
878.41652	3901.8875
882.22745	3915.7875
886.03573	3944.4875
889.84136	3953.7875
893.64433	3912.2875
897.44466	3911.7875
901.24235	3904.6875
905.0374	3893.8875
908.8298	3866.1875
912.61957	3858.6875
916.40671	3881.4875
920.19121	3909.2875
923.97308	3943.8875
927.75233	3979.1875
931.52895	4020.4875
935.30295	3999.9875
939.07433	3892.2875
942.84309	3790.7875
946.60924	3718.6875
950.37278	3682.4875
954.13371	3668.3875
957.89203	3645.0875
961.64774	3615.6875
965.40086	3616.5875
969.15137	3591.5875
972.89929	3583.6875
976.64461	3590.2875
980.38733	3593.1875
984.12747	3593.2875
987.86502	3591.4875
991.59999	3604.1875
995.33237	3622.5875
999.06217	3672.7875
1002.78939	3730.2875
1006.51404	3787.4875
1010.23611	3828.0875
1013.95561	3885.6875
1017.67255	3890.8875
1021.38692	3847.2875
1025.09872	3813.2875
1028.80796	3760.7875
1032.51465	3771.7875
1036.21877	3822.5875
1039.92035	3882.1875
1043.61937	3929.5875
1047.31584	3915.0875
1051.00976	3892.8875
1054.70114	3895.2875
1058.38998	3897.5875
1062.07627	3906.0875
1065.76003	3923.4875
1069.44126	3925.9875
1073.11995	3968.6875
1076.79611	4032.5875
1080.46974	4091.4875
1084.14085	4149.5875
1087.80943	4215.0875
1091.47549	4246.0875
1095.13903	4185.0875
1098.80005	4061.8875
1102.45857	3932.1875
1106.11456	3868.1875
1109.76805	3884.4875
1113.41903	3956.0875
1117.06751	4073.3875
1120.71348	4210.7875
1124.35696	4405.6875
1127.99793	4577.8875
1131.63641	4558.0875
1135.2724	4359.7875
1138.90589	4146.9875
1142.5369	4016.1875
1146.16542	3948.9875
1149.79145	3887.9875
1153.415	3899.2875
1157.03607	3902.4875
1160.65467	3981.3875
1164.27079	4084.4875
1167.88443	4260.7875
1171.49561	4544.0875
1175.10432	5042.0875
1178.71056	5682.8875
1182.31434	6078.9875
1185.91565	6084.9875
1189.51451	5897.5875
1193.11091	5563.8875
1196.70485	5188.8875
1200.29634	4910.8875
1203.88538	4713.5875
1207.47197	4464.4875
1211.05612	4267.4875
1214.63782	4148.3875
1218.21708	4105.9875
1221.79391	4137.2875
1225.36829	4154.8875
1228.94024	4212.2875
1232.50976	4246.6875
1236.07685	4284.9875
1239.6415	4280.4875
1243.20374	4285.8875
1246.76355	4291.6875
1250.32093	4308.3875
1253.8759	4360.0875
1257.42845	4456.8875
1260.97859	4560.5875
1264.52631	4661.6875
1268.07163	4778.8875
1271.61453	4885.6875
1275.15503	4936.4875
1278.69312	4967.1875
1282.22882	4951.4875
1285.76211	5038.4875
1289.29301	5170.7875
1292.82151	5327.7875
1296.34761	5456.9875
1299.87133	5662.8875
1303.39266	6010.2875
1306.9116	6569.7875
1310.42815	7234.4875
1313.94233	7635.4875
1317.45412	7489.0875
1320.96354	7021.8875
1324.47058	6464.0875
1327.97525	6036.5875
1331.47754	5784.3875
1334.97747	5710.8875
1338.47502	5729.2875
1341.97022	5825.0875
1345.46305	6027.8875
1348.95352	6349.4875
1352.44163	6852.8875
1355.92738	7541.5875
1359.41078	8536.5875
1362.89183	9463.7875
1366.37053	9216.8875
1369.84688	7954.4875
1373.32088	6657.7875
1376.79254	5787.1875
1380.26186	5348.8875
1383.72883	5101.2875
1387.19347	4904.1875
1390.65578	4699.5875
1394.11575	4542.7875
1397.57339	4448.0875
1401.0287	4431.5875
1404.48168	4481.8875
1407.93234	4482.1875
1411.38068	4526.7875
1414.82669	4559.2875
1418.27039	4510.0875
1421.71177	4485.8875
1425.15083	4443.8875
1428.58758	4423.6875
1432.02203	4432.1875
1435.45416	4474.3875
1438.88399	4483.3875
1442.31151	4481.6875
1445.73673	4467.9875
1449.15965	4453.0875
1452.58027	4429.3875
1455.9986	4392.6875
1459.41463	4380.6875
1462.82837	4389.5875
1466.23982	4449.2875
1469.64898	4517.3875
1473.05586	4583.2875
1476.46045	4619.0875
1479.86276	4696.2875
1483.26279	4796.4875
1486.66054	4925.2875
1490.05602	5089.2875
1493.44922	5341.0875
1496.84016	5705.4875
1500.22882	6250.8875
1503.61521	6934.5875
1506.99934	7670.5875
1510.38121	8365.3875
1513.76081	8723.2875
1517.13816	8338.9875
1520.51324	7341.8875
1523.88607	6342.3875
1527.25665	5642.1875
1530.62498	5269.6875
1533.99105	5101.4875
1537.35488	4949.7875
1540.71647	4851.2875
1544.07581	4828.1875
1547.4329	4815.5875
1550.78776	4824.8875
1554.14038	4815.4875
1557.49077	4872.4875
1560.83892	4926.6875
1564.18484	5032.9875
1567.52853	5184.6875
1570.86999	5325.6875
1574.20922	5416.6875
1577.54624	5414.2875
1580.88103	5168.3875
1584.2136	4824.8875
1587.54395	4613.8875
1590.87208	4599.0875
1594.19801	4757.5875
1597.52172	5030.3875
1600.84321	5163.0875
1604.16251	5037.3875
1607.47959	4789.5875
1610.79447	4512.4875
1614.10715	4253.0875
1617.41763	4039.9875
1620.7259	3905.0875
1624.03199	3830.6875
1627.33587	3827.6875
1630.63757	3880.8875
1633.93707	3998.6875
1637.23439	4182.7875
1640.52951	4486.4875
1643.82246	4905.7875
1647.11321	5430.1875
1650.40179	5864.1875
1653.68819	5800.9875
1656.97241	5189.8875
1660.25446	4445.2875
1663.53433	3925.5875
1666.81203	3637.6875
1670.08756	3455.2875
1673.36092	3363.4875
1676.63211	3317.1875
1679.90115	3277.5875
1683.16801	3226.8875
1686.43272	3181.8875
1689.69527	3156.3875
1692.95567	3130.0875
1696.2139	3081.1875
1699.46999	3037.3875
1702.72392	3012.2875
1705.97571	3015.7875
1709.22535	3046.8875
1712.47284	3079.6875
1715.71819	3087.6875
1718.96139	3108.2875
1722.20246	3120.9875
1725.44139	3109.3875
1728.67818	3098.2875
1731.91284	3077.3875
1735.14537	3050.9875
1738.37576	3031.7875
1741.60403	3014.9875
1744.83017	2993.8875
1748.05418	2977.4875
1751.27607	2957.9875
1754.49584	2943.0875
1757.71349	2923.8875
1760.92903	2902.2875
1764.14244	2886.1875
1767.35375	2881.1875
1770.56294	2862.1875
1773.77002	2853.2875
1776.97499	2868.2875
1780.17785	2871.8875
1783.37861	2883.0875
1786.57727	2873.9875
1789.77382	2879.3875
1792.96828	2860.2875
1796.16064	2857.1875
1799.3509	2864.8875
1802.53907	2852.7875
1805.72514	2836.8875
1808.90913	2822.0875
1812.09102	2822.2875
1815.27083	2832.4875
1818.44856	2815.8875
1821.6242	2797.8875
1824.79776	2795.5875
1827.96924	2800.5875
1831.13864	2788.1875
1834.30597	2769.4875
1837.47122	2779.1875
1840.6344	2779.7875
1843.7955	2775.2875
1846.95454	2777.0875
1850.11151	2770.0875
1853.26642	2764.1875
1856.41926	2769.3875
1859.57004	2766.2875
1862.71876	2768.9875
1865.86542	2772.7875
1869.01003	2768.9875
1872.15258	2746.8875
1875.29308	2767.8875
1878.43152	2756.6875
1881.56792	2741.7875
1884.70227	2752.0875
1887.83457	2746.6875
1890.96482	2751.1875
1894.09304	2744.8875
1897.21921	2742.4875
1900.34335	2726.7875
1903.46544	2734.2875
1906.58551	2737.7875
1909.70353	2736.5875
1912.81953	2725.0875
1915.93349	2727.4875
1919.04543	2720.7875
1922.15534	2730.2875
1925.26322	2721.6875
1928.36908	2713.5875
1931.47292	2702.0875
1934.57473	2699.2875
1937.67453	2685.2875
1940.77232	2678.2875
1943.86808	2653.6875
1946.96184	2646.9875
1950.05358	2627.1875
1953.14331	2619.0875
1956.23103	2616.3875
1959.31675	2618.4875
1962.40046	2606.7875
1965.48217	2598.5875
1968.56188	2589.7875
1971.63959	2588.4875
1974.7153	2582.5875
1977.78901	2564.6875
1980.86073	2559.5875
1983.93046	2550.4875
1986.99819	2536.2875
1990.06394	2521.7875
1993.1277	2508.3875
1996.18947	2512.7875
1999.24925	2510.2875
2002.30706	2490.1875
2005.36288	2486.6875
2008.41672	2479.8875
2011.46859	2473.9875
2014.51848	2465.6875
2017.56639	2460.6875
2020.61233	2456.5875
2023.6563	2458.2875
2026.6983	2439.6875
2029.73833	2436.1875
2032.7764	2420.8875
2035.8125	2417.0875
2038.84664	2418.6875
2041.87881	2402.7875
2044.90903	2399.4875
2047.93729	2400.1875
2050.96359	2396.6875
2053.98794	2390.5875
2057.01034	2379.2875
2060.03078	2379.2875
2063.04927	2383.3875
2066.06582	2374.9875
2069.08042	2385.0875
2072.09307	2375.0875
2075.10378	2365.6875
2078.11255	2361.9875
2081.11938	2360.1875
2084.12426	2368.1875
2087.12722	2359.8875
2090.12824	2358.4875
2093.12732	2361.9875
2096.12447	2361.8875
2099.11969	2352.3875
2102.11299	2360.0875
2105.10435	2363.2875
2108.09379	2352.9875
2111.08131	2355.6875
2114.0669	2362.2875
2117.05057	2367.6875
2120.03233	2361.7875
2123.01216	2369.3875
2125.99008	2366.0875
2128.96609	2367.6875
2131.94018	2368.1875
2134.91236	2364.1875
2137.88263	2363.9875
2140.851	2376.0875
2143.81746	2380.9875
2146.78201	2364.5875
2149.74466	2365.0875
2152.7054	2370.6875
2155.66425	2362.8875
2158.6212	2362.9875
2161.57625	2345.4875
2164.52941	2360.7875
2167.48067	2356.2875
2170.43004	2358.4875
2173.37752	2355.9875
2176.32311	2336.8875
2179.26681	2341.8875
2182.20863	2352.5875
2185.14856	2346.3875
2188.08661	2350.5875
2191.02278	2347.4875
2193.95707	2337.8875
2196.88948	2338.1875
2199.82001	2326.0875
2202.74867	2334.2875
2205.67545	2324.6875
2208.60037	2327.2875
2211.52341	2322.0875
2214.44458	2312.3875
2217.36388	2305.2875
2220.28132	2303.3875
2223.1969	2301.6875
2226.11061	2290.0875
2229.02246	2289.6875
2231.93245	2282.7875
2234.84058	2281.4875
2237.74686	2271.8875
2240.65128	2274.9875
2243.55385	2267.7875
2246.45456	2266.2875
2249.35343	2251.2875
2252.25044	2258.2875
2255.14561	2254.8875
2258.03893	2248.3875
2260.93041	2237.7875
2263.82004	2251.6875
2266.70783	2241.5875
2269.59378	2246.2875
2272.4779	2231.0875
2275.36017	2236.4875
2278.24061	2211.3875
2281.11922	2226.0875
2283.996	2217.8875
2286.87094	2204.5875
2289.74405	2193.0875
2292.61534	2189.5875
2295.4848	2191.6875
2298.35243	2173.6875
2301.21824	2171.6875
2304.08223	2175.5875
2306.94439	2182.9875
2309.80474	2188.7875
2312.66327	2177.1875
2315.51999	2160.9875
2318.37489	2151.8875
2321.22797	2162.2875
2324.07925	2157.0875
2326.92871	2161.7875
2329.77637	2154.7875
2332.62222	2139.7875
2335.46626	2151.9875
2338.3085	2138.9875
2341.14893	2138.7875
2343.98756	2149.4875
2346.8244	2134.7875
2349.65943	2136.1875
2352.49267	2143.7875
2355.32411	2151.8875
2358.15376	2134.3875
2360.98161	2142.5875
2363.80768	2153.7875
2366.63195	2151.4875
2369.45444	2143.3875
2372.27514	2141.5875
2375.09405	2141.8875
2377.91118	2142.4875
2380.72652	2126.7875
2383.54009	2118.9875
2386.35187	2108.3875
2389.16188	2090.7875
2391.97011	2092.9875
2394.77657	2093.5875
2397.58125	2084.4875
2400.38416	2071.6875
2403.18529	2070.5875
2405.98466	2070.6875
2408.78226	2057.1875
2411.57809	2060.4875
2414.37216	2069.3875
2417.16446	2055.5875
2419.955	2054.7875
2422.74378	2070.9875
2425.5308	2060.2875
2428.31606	2046.3875
2431.09956	2051.5875
2433.88131	2045.9875
2436.6613	2044.6875
2439.43954	2047.7875
2442.21603	2045.3875
2444.99077	2044.3875
2447.76377	2046.6875
2450.53501	2036.1875
2453.30451	2045.5875
2456.07226	2035.0875
2458.83827	2030.1875
2461.60254	2034.3875
2464.36507	2031.8875
2467.12586	2032.4875
2469.88492	2030.6875
2472.64224	2019.5875
2475.39782	2015.0875
2478.15167	2012.0875
2480.90379	2023.7875
2483.65417	2028.1875
2486.40283	2015.2875
2489.14976	2032.3875
2491.89497	2023.2875
2494.63845	2029.3875
2497.3802	2027.9875
2500.12024	2018.1875
2502.85855	2029.1875
2505.59514	2015.3875
2508.33002	2005.3875
2511.06318	2006.1875
2513.79462	1995.3875
2516.52435	1997.4875
2519.25237	1979.5875
2521.97867	1973.8875
2524.70327	1975.4875
2527.42616	1966.8875
2530.14734	1960.7875
2532.86681	1966.5875
2535.58458	1962.2875
2538.30065	1953.4875
2541.01501	1961.3875
2543.72768	1949.5875
2546.43864	1945.8875
2549.14791	1963.0875
2551.85548	1957.3875
2554.56136	1945.8875
2557.26554	1946.0875
2559.96803	1946.0875
2562.66883	1932.9875
2565.36794	1939.6875
2568.06536	1937.8875
2570.7611	1922.3875
2573.45514	1923.0875
2576.14751	1921.3875
2578.83819	1914.2875
2581.52719	1910.3875
2584.21451	1910.6875
2586.90015	1918.0875
2589.58411	1907.6875
2592.2664	1916.6875
2594.94701	1886.5875
2597.62594	1903.6875
2600.30321	1886.0875
2602.9788	1887.9875
2605.65273	1879.3875
2608.32498	1891.1875
2610.99557	1882.9875
2613.66449	1892.6875
2616.33175	1874.2875
2618.99734	1872.1875
2621.66128	1888.7875
2624.32355	1873.8875
2626.98416	1867.4875
2629.64311	1864.5875
2632.30041	1858.3875
2634.95605	1850.2875
2637.61004	1853.9875
2640.26238	1851.9875
2642.91306	1857.9875
2645.56209	1845.5875
2648.20948	1855.5875
2650.85521	1842.9875
2653.4993	1852.1875
2656.14175	1864.0875
2658.78255	1856.5875
2661.42171	1854.0875
2664.05923	1856.3875
2666.6951	1848.1875
2669.32934	1854.9875
2671.96194	1847.9875
2674.59291	1852.9875
2677.22224	1861.2875
2679.84993	1853.3875
2682.476	1865.6875
2685.10043	1851.0875
2687.72324	1855.0875
2690.34441	1850.4875
2692.96396	1860.4875
2695.58188	1863.3875
2698.19818	1854.9875
2700.81285	1852.8875
2703.4259	1868.4875
2706.03733	1849.6875
2708.64714	1849.5875
2711.25533	1866.2875
2713.86191	1868.2875
2716.46687	1868.8875
2719.07021	1888.6875
2721.67194	1878.9875
2724.27206	1886.1875
2726.87057	1875.6875
2729.46747	1881.8875
2732.06276	1879.9875
2734.65644	1864.3875
2737.24852	1867.8875
2739.83899	1864.3875
2742.42786	1867.0875
2745.01513	1845.3875
2747.60079	1850.0875
2750.18486	1844.8875
2752.76733	1837.9875
2755.3482	1842.2875
2757.92747	1838.5875
2760.50515	1826.5875
2763.08123	1824.5875
2765.65573	1838.2875
2768.22863	1827.6875
2770.79994	1820.2875
2773.36967	1826.6875
2775.9378	1824.8875
2778.50435	1829.8875
2781.06932	1825.7875
2783.6327	1817.8875
2786.1945	1821.1875
2788.75471	1831.6875
2791.31335	1822.7875
2793.87041	1822.4875
2796.42589	1832.5875
2798.97979	1828.9875
2801.53212	1821.2875
2804.08288	1825.9875
2806.63206	1820.9875
2809.17967	1835.7875
2811.72571	1830.8875
2814.27018	1833.0875
2816.81308	1837.0875
2819.35442	1836.9875
2821.89419	1854.2875
2824.43239	1854.7875
2826.96904	1853.2875
2829.50412	1858.8875
2832.03763	1861.7875
2834.56959	1874.3875
2837.1	1896.1875
2839.62884	1908.8875
2842.15613	1940.7875
2844.68186	2006.8875
2847.20604	2081.5875
2849.72867	2116.3875
2852.24974	2148.1875
2854.76927	2152.7875
2857.28724	2137.0875
2859.80367	2123.2875
2862.31855	2108.8875
2864.83189	2086.1875
2867.34368	2078.7875
2869.85393	2083.2875
2872.36264	2069.5875
2874.8698	2081.5875
2877.37543	2070.5875
2879.87952	2068.2875
2882.38207	2066.4875
2884.88308	2062.4875
2887.38256	2057.3875
2889.88051	2056.0875
2892.37692	2063.1875
2894.8718	2065.6875
2897.36515	2075.0875
2899.85698	2075.5875
2902.34727	2082.3875
2904.83604	2079.8875
2907.32328	2080.9875
2909.809	2086.4875
2912.29319	2076.8875
2914.77587	2067.9875
2917.25702	2070.2875
2919.73665	2060.2875
2922.21476	2058.0875
2924.69136	2064.8875
2927.16644	2057.6875
2929.64	2052.6875
2932.11205	2056.5875
2934.58258	2037.9875
2937.05161	2042.3875
2939.51912	2023.6875
2941.98513	1993.4875
2944.44962	1957.4875
2946.91261	1921.7875
2949.37409	1892.4875
2951.83407	1879.9875
2954.29254	1856.8875
2956.74951	1841.8875
2959.20498	1844.5875
2961.65895	1823.5875
2964.11142	1825.7875
2966.56239	1813.4875
2969.01186	1804.1875
2971.45984	1783.1875
2973.90632	1784.9875
2976.35131	1773.6875
2978.7948	1770.4875
2981.23681	1760.8875
2983.67732	1758.2875
2986.11635	1747.0875
2988.55388	1740.7875
2990.98993	1734.7875
2993.4245	1732.6875
2995.85758	1723.8875
2998.28917	1726.3875
3000.71928	1708.3875
3003.14791	1712.0875
3005.57506	1700.7875
3008.00073	1702.5875
3010.42493	1693.5875
3012.84764	1704.4875
3015.26888	1706.1875
3017.68865	1701.4875
3020.10694	1702.4875
3022.52376	1691.0875
3024.9391	1699.4875
3027.35298	1690.5875
3029.76539	1695.0875
3032.17632	1690.4875
3034.5858	1692.9875
3036.9938	1696.3875
3039.40034	1698.6875
3041.80542	1694.6875
3044.20903	1691.5875
3046.61118	1693.1875
3049.01187	1687.9875
3051.4111	1695.4875
3053.80888	1689.8875
3056.20519	1691.7875
3058.60005	1697.0875
3060.99345	1682.3875
3063.3854	1691.2875
3065.7759	1688.6875
3068.16494	1682.5875
3070.55254	1685.2875
3072.93868	1689.8875
3075.32338	1692.4875
3077.70662	1692.0875
3080.08842	1686.6875
3082.46878	1691.2875
3084.84769	1687.7875
3087.22515	1688.8875
3089.60118	1678.2875
3091.97576	1679.9875
3094.3489	1687.0875
3096.72061	1687.9875
3099.09087	1695.1875
3101.4597	1683.4875
3103.82709	1707.7875
3106.19305	1692.3875
3108.55757	1706.4875
3110.92066	1702.2875
3113.28232	1699.8875
3115.64255	1696.2875
3118.00134	1708.5875
3120.35871	1705.4875
3122.71466	1705.6875
3125.06917	1708.5875
3127.42226	1702.1875
3129.77393	1712.6875
3132.12417	1716.7875
3134.47299	1720.6875
3136.82039	1728.7875
3139.16636	1738.3875
3141.51092	1742.1875
3143.85406	1750.3875
3146.19579	1757.8875
3148.53609	1764.5875
3150.87499	1783.6875
3153.21246	1778.6875
3155.54853	1789.4875
3157.88318	1789.8875
3160.21642	1804.4875
3162.54826	1813.6875
3164.87868	1811.0875
3167.2077	1815.9875
3169.5353	1816.6875
3171.86151	1824.9875
3174.18631	1823.0875
3176.5097	1827.2875
3178.83169	1836.5875
3181.15228	1836.2875
3183.47147	1835.5875
3185.78926	1838.3875
3188.10565	1839.7875
3190.42065	1849.2875
3192.73424	1864.8875
3195.04645	1856.7875
3197.35725	1863.7875
3199.66667	1873.2875
3201.97469	1874.9875
3204.28132	1868.9875
3206.58656	1884.1875
3208.8904	1887.8875
3211.19287	1888.8875
3213.49394	1892.4875
3215.79363	1903.9875
3218.09193	1913.4875
3220.38884	1903.3875
3222.68438	1910.1875
3224.97853	1901.0875
3227.2713	1909.8875
3229.56269	1913.9875
3231.8527	1922.5875
3234.14133	1919.5875
3236.42858	1912.5875
3238.71446	1913.7875
3240.99896	1905.1875
3243.28209	1903.2875
3245.56384	1904.0875
3247.84423	1903.3875
3250.12324	1907.5875
3252.40088	1907.7875
3254.67715	1905.2875
3256.95205	1913.0875
3259.22558	1908.2875
3261.49775	1917.9875
3263.76855	1909.1875
3266.03799	1902.6875
3268.30606	1907.0875
3270.57277	1907.6875
3272.83812	1894.9875
3275.10211	1888.1875
3277.36474	1886.8875
3279.62601	1889.3875
3281.88593	1894.0875
3284.14448	1890.4875
3286.40168	1891.9875
3288.65753	1890.5875
3290.91202	1884.9875
3293.16516	1880.8875
3295.41695	1874.5875
3297.66738	1874.1875
3299.91647	1861.0875
3302.16421	1847.7875
3304.4106	1836.0875
3306.65564	1848.4875
3308.89933	1815.3875
3311.14169	1807.0875
3313.38269	1809.0875
3315.62236	1792.8875
3317.86068	1777.3875
3320.09766	1759.0875
3322.3333	1754.8875
3324.5676	1750.0875
3326.80056	1717.5875
3329.03219	1705.4875
3331.26248	0.1875
3333.49143	0.6875
3335.71905	-1.2125
