Data from AgNPs_FTO_APTES_UA_1uM_CRN_2uM_R6G_10uM_NaF_0.1M_Addition_RamanShift__12__13-09-19-543.txt Node

Date: Thu Jan 27 13:09:19 GMT 2022
User: TCL
Spectrometer: QEP01345
Trigger mode: 4
Integration Time (sec): 7.000000E0
Scans to average: 10
Electric dark correction enabled: true
Nonlinearity correction enabled: false
Boxcar width: 0
XAxis mode: Raman Shifts
Number of Pixels in Spectrum: 1044
>>>>>Begin Spectral Data<<<<<
46.04893	0.5
50.45542	0.5
54.85868	-0.1
59.25871	-0.4
63.6555	63.4
68.04907	63.9
72.43941	64.7
76.82654	71.7
81.21044	70.8
85.59113	70.9
89.96862	77.6
94.34289	79.8
98.71396	81.2
103.08183	83.8
107.4465	88.5
111.80798	91.5
116.16626	91
120.52136	96.5
124.87327	97.6
129.222	101.9
133.56755	107.8
137.90993	115.9
142.24913	123.7
146.58517	140.6
150.91804	162.5
155.24774	187.7
159.57429	233.1
163.89768	299.8
168.21792	392
172.53501	532.9
176.84895	737.4
181.15975	1033
185.46741	1455.4
189.77193	2015
194.07331	2697.5
198.37157	3489
202.6667	4320.7
206.9587	5147.6
211.24758	5975.6
215.53334	6753.6
219.81599	7597.1
224.09553	8501.9
228.37195	9517.9
232.64527	10620.2
236.91549	11810.9
241.18261	13058.9
245.44663	14218.7
249.70755	15334.6
253.96539	16295.8
258.22014	17109
262.4718	17739.8
266.72039	18212.5
270.96589	18410.5
275.20832	18435.7
279.44768	18321.5
283.68397	18173.3
287.91719	17953.8
292.14735	17774.6
296.37445	17684.5
300.59849	17619.8
304.81948	17605.7
309.03742	17584.8
313.25231	17539.4
317.46415	17313.1
321.67296	17057
325.87872	16887.3
330.08145	16811.5
334.28114	16839.6
338.47781	16955.2
342.67145	17116.9
346.86207	17373
351.04966	17623.2
355.23424	17907.3
359.4158	18107.7
363.59435	18339.2
367.76989	18515.1
371.94243	18637.8
376.11196	18710.3
380.27849	18748
384.44203	18826.3
388.60257	18987.5
392.76012	19151.2
396.91468	19389.5
401.06626	19648.7
405.21485	19814.1
409.36047	19800.1
413.50311	19671.2
417.64277	19610.2
421.77947	19661.7
425.9132	19773.9
430.04396	19891.2
434.17176	19981.3
438.2966	20070.3
442.41849	20201.1
446.53742	20468.9
450.6534	20784
454.76644	21000.7
458.87653	21103.1
462.98368	21117.4
467.08789	21006.2
471.18916	20885.8
475.2875	20698.7
479.38291	20557.9
483.4754	20414.3
487.56496	20314.2
491.6516	20157.4
495.73531	20057.5
499.81612	20006.4
503.89401	20130.6
507.96899	20250.8
512.04106	20315.8
516.11023	20246.7
520.1765	20140.4
524.23987	19989.1
528.30034	19871.7
532.35792	19741.8
536.41261	19621
540.46441	19504.2
544.51333	19489.9
548.55936	19602.5
552.60252	19819.4
556.64279	20090
560.6802	20261.1
564.71473	20352.3
568.7464	20572.4
572.7752	20889.8
576.80114	21329.8
580.82422	21894.7
584.84444	22489.5
588.86181	23224.9
592.87633	23937.6
596.888	23982
600.89682	23256.9
604.9028	22836.6
608.90594	23528.2
612.90624	24479.2
616.90371	23540.1
620.89834	21258.2
624.89015	20191.9
628.87913	20143.4
632.86528	20273.6
636.84862	20329.2
640.82913	20129.5
644.80683	19831.7
648.78172	19580.9
652.75379	19568.4
656.72306	19695.4
660.68952	19935.4
664.65319	19875.6
668.61405	19730.2
672.57211	19695.8
676.52738	19734.7
680.47986	19703.4
684.42955	19666.8
688.37646	19549.1
692.32058	19633.1
696.26192	19769.1
700.20048	19953.1
704.13626	20093.4
708.06928	20111.9
711.99952	20100.5
715.927	20069.3
719.85171	20095.4
723.77365	19994.7
727.69284	19824.8
731.60928	19644.7
735.52295	19571.3
739.43388	19572.5
743.34206	19590.9
747.24749	19640.3
751.15017	19780.3
755.05012	19998.7
758.94733	20324.5
762.8418	20866.6
766.73354	21756.5
770.62254	22586.9
774.50882	22744.2
778.39237	22198.6
782.27321	21378.3
786.15132	20613.8
790.02671	20081.1
793.89938	19809.7
797.76935	19667.6
801.6366	19572.7
805.50115	19562.7
809.36299	19435.9
813.22213	19400.9
817.07857	19363.5
820.93231	19306.6
824.78336	19277.7
828.63172	19256.3
832.47738	19214.4
836.32036	19224.1
840.16066	19234.5
843.99827	19214.1
847.8332	19192
851.66546	19194.2
855.49504	19202.3
859.32195	19243.9
863.1462	19237.2
866.96777	19226.8
870.78668	19218.2
874.60293	19268.6
878.41652	19306.1
882.22745	19342.3
886.03573	19389.6
889.84136	19360.6
893.64433	19339.4
897.44466	19270.6
901.24235	19287.5
905.0374	19240.6
908.8298	19199.1
912.61957	19199.5
916.40671	19333.8
920.19121	19455.7
923.97308	19556.4
927.75233	19576.6
931.52895	19481.6
935.30295	19289.8
939.07433	19084.4
942.84309	18881.3
946.60924	18809.2
950.37278	18791.7
954.13371	18738.6
957.89203	18712
961.64774	18707.4
965.40086	18674.6
969.15137	18674.3
972.89929	18596.7
976.64461	18518.1
980.38733	18507
984.12747	18509.9
987.86502	18500.5
991.59999	18579.6
995.33237	18671.3
999.06217	18815.7
1002.78939	19033.9
1006.51404	19235.4
1010.23611	19543.4
1013.95561	19690.6
1017.67255	19689
1021.38692	19607.2
1025.09872	19390.1
1028.80796	19156.7
1032.51465	19054.5
1036.21877	19087
1039.92035	19121.1
1043.61937	19202.2
1047.31584	19265.7
1051.00976	19308
1054.70114	19378.3
1058.38998	19440.7
1062.07627	19564.1
1065.76003	19753.5
1069.44126	19934.2
1073.11995	20188.3
1076.79611	20453.8
1080.46974	20549.3
1084.14085	20630.8
1087.80943	20668.1
1091.47549	20806.6
1095.13903	20887.4
1098.80005	20773.6
1102.45857	20471.3
1106.11456	20184.9
1109.76805	19963.8
1113.41903	19859.2
1117.06751	19912.3
1120.71348	19991
1124.35696	20075.8
1127.99793	20221.6
1131.63641	20366.4
1135.2724	20292.4
1138.90589	20208.3
1142.5369	20207.3
1146.16542	20273.1
1149.79145	20382.6
1153.415	20425.3
1157.03607	20529.2
1160.65467	20747
1164.27079	21256.6
1167.88443	21904.5
1171.49561	22638.8
1175.10432	23397.4
1178.71056	24438.1
1182.31434	25434.5
1185.91565	26027.2
1189.51451	26217.5
1193.11091	25965.2
1196.70485	25535.1
1200.29634	24983.8
1203.88538	24465.6
1207.47197	24122.1
1211.05612	23997
1214.63782	23702.4
1218.21708	23296
1221.79391	22760
1225.36829	22390
1228.94024	22170
1232.50976	22055.9
1236.07685	21939.2
1239.6415	21842.1
1243.20374	21863.8
1246.76355	21977.1
1250.32093	22144.6
1253.8759	22373
1257.42845	22727.2
1260.97859	23178
1264.52631	23656.1
1268.07163	24051.6
1271.61453	24466
1275.15503	24869.8
1278.69312	25275
1282.22882	25752.9
1285.76211	26306.6
1289.29301	26923.8
1292.82151	27636.6
1296.34761	28498.7
1299.87133	29474.1
1303.39266	30539.2
1306.9116	31482.7
1310.42815	32185.9
1313.94233	32528.4
1317.45412	32379.4
1320.96354	31985.8
1324.47058	31686.1
1327.97525	31564.7
1331.47754	31465.7
1334.97747	31401
1338.47502	31327.1
1341.97022	31359.2
1345.46305	31454.9
1348.95352	31415.3
1352.44163	31375.3
1355.92738	31526.3
1359.41078	32033.3
1362.89183	32530.5
1366.37053	32201.4
1369.84688	30542.5
1373.32088	28329.6
1376.79254	26565.6
1380.26186	25715.3
1383.72883	25575.8
1387.19347	25489.1
1390.65578	25189.6
1394.11575	24963.8
1397.57339	25012.2
1401.0287	25259.8
1404.48168	25422.7
1407.93234	25484.1
1411.38068	25181.8
1414.82669	24673.7
1418.27039	24052.8
1421.71177	23420
1425.15083	22979.4
1428.58758	22729.8
1432.02203	22835.8
1435.45416	23166.1
1438.88399	23594.3
1442.31151	23827.6
1445.73673	23962.6
1449.15965	24080.7
1452.58027	24109.2
1455.9986	24134.6
1459.41463	24262.7
1462.82837	24540
1466.23982	24923
1469.64898	25203.8
1473.05586	25405.4
1476.46045	25515.8
1479.86276	25441.6
1483.26279	25309.1
1486.66054	25273.9
1490.05602	25361.7
1493.44922	25653
1496.84016	26087.3
1500.22882	26562.2
1503.61521	27206.1
1506.99934	27775.9
1510.38121	28227.6
1513.76081	28210.9
1517.13816	27804.8
1520.51324	27318.2
1523.88607	26871.4
1527.25665	26623.7
1530.62498	26496.7
1533.99105	26262.3
1537.35488	25907.2
1540.71647	25458.2
1544.07581	24931.4
1547.4329	24459.2
1550.78776	24055.9
1554.14038	23835.5
1557.49077	23675.9
1560.83892	23607.6
1564.18484	23613.2
1567.52853	23677.1
1570.86999	23794.6
1574.20922	24066.2
1577.54624	24324.5
1580.88103	24347.1
1584.2136	24409.6
1587.54395	24760
1590.87208	25496.1
1594.19801	26452.1
1597.52172	27452.7
1600.84321	27668.7
1604.16251	26887.9
1607.47959	25504.2
1610.79447	24017.7
1614.10715	22615.8
1617.41763	21440.4
1620.7259	20605.3
1624.03199	20173.7
1627.33587	20083.4
1630.63757	20403
1633.93707	21170.9
1637.23439	22506.7
1640.52951	24531.5
1643.82246	26986.2
1647.11321	28996.4
1650.40179	29523
1653.68819	27986.9
1656.97241	25238.1
1660.25446	22513.4
1663.53433	20483.2
1666.81203	19179.6
1670.08756	18384.3
1673.36092	17875.6
1676.63211	17566.9
1679.90115	17320.1
1683.16801	17128.4
1686.43272	16997.6
1689.69527	16879.3
1692.95567	16723.8
1696.2139	16649.5
1699.46999	16601.5
1702.72392	16547.9
1705.97571	16577.9
1709.22535	16578.4
1712.47284	16578.1
1715.71819	16532.3
1718.96139	16528.6
1722.20246	16486.7
1725.44139	16451.8
1728.67818	16381
1731.91284	16285.7
1735.14537	16229.7
1738.37576	16202.3
1741.60403	16099.2
1744.83017	16086.7
1748.05418	16018.3
1751.27607	15958.5
1754.49584	15935.1
1757.71349	15896
1760.92903	15862.3
1764.14244	15840.3
1767.35375	15854
1770.56294	15842
1773.77002	15835.7
1776.97499	15816.3
1780.17785	15783.9
1783.37861	15786.3
1786.57727	15788.2
1789.77382	15752.4
1792.96828	15730.6
1796.16064	15690.8
1799.3509	15652.5
1802.53907	15658.1
1805.72514	15609.7
1808.90913	15550.1
1812.09102	15551.1
1815.27083	15524.2
1818.44856	15478.1
1821.6242	15448
1824.79776	15450
1827.96924	15403.4
1831.13864	15462.1
1834.30597	15407.4
1837.47122	15412.1
1840.6344	15416.8
1843.7955	15402.8
1846.95454	15407.4
1850.11151	15404.4
1853.26642	15397.7
1856.41926	15411
1859.57004	15387.9
1862.71876	15342.3
1865.86542	15337.1
1869.01003	15331.6
1872.15258	15258.3
1875.29308	15275.8
1878.43152	15187
1881.56792	15171.6
1884.70227	15161.2
1887.83457	15150.2
1890.96482	15091.4
1894.09304	15100.7
1897.21921	15049.9
1900.34335	15073.6
1903.46544	15037.1
1906.58551	15001
1909.70353	14967.9
1912.81953	14939.8
1915.93349	14926.3
1919.04543	14895.2
1922.15534	14874.6
1925.26322	14823.6
1928.36908	14794.9
1931.47292	14781.3
1934.57473	14708.8
1937.67453	14707.6
1940.77232	14665.4
1943.86808	14622
1946.96184	14548.1
1950.05358	14525.4
1953.14331	14486.7
1956.23103	14462.4
1959.31675	14404.7
1962.40046	14355.6
1965.48217	14348.4
1968.56188	14269.2
1971.63959	14224.1
1974.7153	14183.3
1977.78901	14158.8
1980.86073	14098.4
1983.93046	14073.1
1986.99819	14035.1
1990.06394	13977.9
1993.1277	13920.2
1996.18947	13858
1999.24925	13819.5
2002.30706	13782.6
2005.36288	13736.9
2008.41672	13719.1
2011.46859	13689.3
2014.51848	13625.1
2017.56639	13570.3
2020.61233	13569.5
2023.6563	13518.1
2026.6983	13484.8
2029.73833	13432.3
2032.7764	13400.5
2035.8125	13370.7
2038.84664	13340.1
2041.87881	13304
2044.90903	13317.1
2047.93729	13273.2
2050.96359	13227.8
2053.98794	13200.6
2057.01034	13189.8
2060.03078	13188.2
2063.04927	13175.7
2066.06582	13183.4
2069.08042	13178.5
2072.09307	13172.3
2075.10378	13144
2078.11255	13161.2
2081.11938	13125.3
2084.12426	13107.2
2087.12722	13126.8
2090.12824	13111.3
2093.12732	13108.1
2096.12447	13115.1
2099.11969	13108.5
2102.11299	13133.9
2105.10435	13134.6
2108.09379	13148
2111.08131	13142.1
2114.0669	13144.6
2117.05057	13144.8
2120.03233	13135.2
2123.01216	13148.2
2125.99008	13164
2128.96609	13155.1
2131.94018	13165.8
2134.91236	13147.8
2137.88263	13156.5
2140.851	13180.5
2143.81746	13187
2146.78201	13156.9
2149.74466	13167.9
2152.7054	13177.7
2155.66425	13171.5
2158.6212	13172.7
2161.57625	13145.1
2164.52941	13190.5
2167.48067	13159.6
2170.43004	13122.5
2173.37752	13128.9
2176.32311	13135.9
2179.26681	13110.2
2182.20863	13091.7
2185.14856	13084.4
2188.08661	13106.5
2191.02278	13098.3
2193.95707	13070
2196.88948	13058.8
2199.82001	13077.3
2202.74867	13043.9
2205.67545	13044.9
2208.60037	12969
2211.52341	12949.4
2214.44458	12931.8
2217.36388	12904.7
2220.28132	12887.2
2223.1969	12867.3
2226.11061	12855.5
2229.02246	12829.8
2231.93245	12816.1
2234.84058	12740.1
2237.74686	12748.7
2240.65128	12764.3
2243.55385	12723.1
2246.45456	12709.9
2249.35343	12687.4
2252.25044	12639.2
2255.14561	12634.5
2258.03893	12606.6
2260.93041	12573
2263.82004	12542.9
2266.70783	12532.4
2269.59378	12498.6
2272.4779	12491.3
2275.36017	12456.6
2278.24061	12417.2
2281.11922	12394.4
2283.996	12374.8
2286.87094	12341.2
2289.74405	12333
2292.61534	12291.6
2295.4848	12281.3
2298.35243	12286.9
2301.21824	12227.9
2304.08223	12244
2306.94439	12230
2309.80474	12212.6
2312.66327	12211.4
2315.51999	12236.2
2318.37489	12201.2
2321.22797	12168.3
2324.07925	12156.1
2326.92871	12136.6
2329.77637	12092.8
2332.62222	12088
2335.46626	12074.5
2338.3085	12052.9
2341.14893	12017.4
2343.98756	12012.8
2346.8244	11994.3
2349.65943	12000.1
2352.49267	11973.9
2355.32411	11974.3
2358.15376	11930.1
2360.98161	11936.2
2363.80768	11964.1
2366.63195	11941.3
2369.45444	11936.5
2372.27514	11922.9
2375.09405	11892.7
2377.91118	11904.9
2380.72652	11862.4
2383.54009	11838.5
2386.35187	11813
2389.16188	11778.6
2391.97011	11746.6
2394.77657	11740.2
2397.58125	11701.1
2400.38416	11680.2
2403.18529	11653.4
2405.98466	11666.3
2408.78226	11623.3
2411.57809	11596.1
2414.37216	11592.6
2417.16446	11598.4
2419.955	11562.3
2422.74378	11601.1
2425.5308	11566.4
2428.31606	11561.5
2431.09956	11539.4
2433.88131	11507.1
2436.6613	11544
2439.43954	11512.3
2442.21603	11492.4
2444.99077	11469.4
2447.76377	11487.1
2450.53501	11433.9
2453.30451	11455.8
2456.07226	11431.2
2458.83827	11423.1
2461.60254	11427.9
2464.36507	11424.9
2467.12586	11379.7
2469.88492	11372
2472.64224	11363.2
2475.39782	11362.5
2478.15167	11320.8
2480.90379	11340.8
2483.65417	11345.8
2486.40283	11320.8
2489.14976	11312.3
2491.89497	11285.8
2494.63845	11295.9
2497.3802	11292.6
2500.12024	11251.6
2502.85855	11252.9
2505.59514	11276.8
2508.33002	11254.4
2511.06318	11210
2513.79462	11194.4
2516.52435	11162.4
2519.25237	11176.5
2521.97867	11149.9
2524.70327	11147.4
2527.42616	11141.6
2530.14734	11126.4
2532.86681	11115.4
2535.58458	11095.9
2538.30065	11071.5
2541.01501	11062.1
2543.72768	11057.5
2546.43864	11042.4
2549.14791	11004.5
2551.85548	11007.2
2554.56136	11000.8
2557.26554	10940.6
2559.96803	10945.9
2562.66883	10954.8
2565.36794	10933.4
2568.06536	10891.7
2570.7611	10863.9
2573.45514	10835.7
2576.14751	10812.1
2578.83819	10789.6
2581.52719	10794.3
2584.21451	10783.4
2586.90015	10745.4
2589.58411	10733.5
2592.2664	10735.7
2594.94701	10706.8
2597.62594	10697.8
2600.30321	10657.8
2602.9788	10641.9
2605.65273	10648.9
2608.32498	10602.4
2610.99557	10630.8
2613.66449	10615.1
2616.33175	10585.7
2618.99734	10601.8
2621.66128	10584.9
2624.32355	10527.3
2626.98416	10541
2629.64311	10530.1
2632.30041	10501.6
2634.95605	10480.5
2637.61004	10484.7
2640.26238	10455.9
2642.91306	10458.2
2645.56209	10471.1
2648.20948	10461.3
2650.85521	10456
2653.4993	10468.6
2656.14175	10455.3
2658.78255	10451.7
2661.42171	10424.1
2664.05923	10462.2
2666.6951	10463.5
2669.32934	10455.5
2671.96194	10433
2674.59291	10442.9
2677.22224	10441.5
2679.84993	10438.7
2682.476	10407.4
2685.10043	10417.3
2687.72324	10399
2690.34441	10406
2692.96396	10382.6
2695.58188	10407.5
2698.19818	10386.7
2700.81285	10384.9
2703.4259	10391.7
2706.03733	10376.6
2708.64714	10339.6
2711.25533	10369.5
2713.86191	10378.3
2716.46687	10394.1
2719.07021	10368.9
2721.67194	10377.1
2724.27206	10392.7
2726.87057	10401.7
2729.46747	10344.4
2732.06276	10372.7
2734.65644	10359.1
2737.24852	10370
2739.83899	10326.8
2742.42786	10327.7
2745.01513	10293
2747.60079	10310.7
2750.18486	10296.3
2752.76733	10293.1
2755.3482	10272.5
2757.92747	10260.2
2760.50515	10236.5
2763.08123	10233
2765.65573	10212.6
2768.22863	10200.6
2770.79994	10204.2
2773.36967	10188.6
2775.9378	10159.4
2778.50435	10155.2
2781.06932	10138
2783.6327	10123.6
2786.1945	10102.4
2788.75471	10092.8
2791.31335	10063.2
2793.87041	10079
2796.42589	10037.2
2798.97979	10027
2801.53212	10037.2
2804.08288	9995.7
2806.63206	9961.6
2809.17967	9926.9
2811.72571	9905.5
2814.27018	9880.1
2816.81308	9871.1
2819.35442	9836.7
2821.89419	9838.5
2824.43239	9833.1
2826.96904	9824
2829.50412	9820.6
2832.03763	9804.7
2834.56959	9796.5
2837.1	9780.1
2839.62884	9769
2842.15613	9755.2
2844.68186	9776
2847.20604	9751.4
2849.72867	9802.9
2852.24974	9747.2
2854.76927	9756.9
2857.28724	9729.2
2859.80367	9737.8
2862.31855	9684.5
2864.83189	9685
2867.34368	9643.9
2869.85393	9665.5
2872.36264	9674
2874.8698	9616.8
2877.37543	9622
2879.87952	9609.9
2882.38207	9607.6
2884.88308	9592.8
2887.38256	9594.4
2889.88051	9586.1
2892.37692	9586.3
2894.8718	9565.1
2897.36515	9566.9
2899.85698	9558.5
2902.34727	9588.6
2904.83604	9583.8
2907.32328	9620.1
2909.809	9596.2
2912.29319	9599.5
2914.77587	9612.6
2917.25702	9578
2919.73665	9558.3
2922.21476	9587.9
2924.69136	9566.8
2927.16644	9559
2929.64	9548.6
2932.11205	9562.6
2934.58258	9499.5
2937.05161	9523.4
2939.51912	9524.8
2941.98513	9500.9
2944.44962	9459.7
2946.91261	9424.9
2949.37409	9455.8
2951.83407	9434
2954.29254	9408.5
2956.74951	9409.5
2959.20498	9432.4
2961.65895	9376.8
2964.11142	9394.2
2966.56239	9378.4
2969.01186	9381
2971.45984	9366.4
2973.90632	9326.7
2976.35131	9335.4
2978.7948	9283.4
2981.23681	9276
2983.67732	9245.4
2986.11635	9212
2988.55388	9213.4
2990.98993	9193.8
2993.4245	9164.8
2995.85758	9153.1
2998.28917	9104.7
3000.71928	9102.1
3003.14791	9115.9
3005.57506	9049
3008.00073	9044.8
3010.42493	9055.7
3012.84764	9031.3
3015.26888	9026.8
3017.68865	8977.7
3020.10694	8980.2
3022.52376	8963.8
3024.9391	8961.2
3027.35298	8949.5
3029.76539	8954.2
3032.17632	8915.5
3034.5858	8900.6
3036.9938	8916.4
3039.40034	8885.8
3041.80542	8894.9
3044.20903	8844.1
3046.61118	8856.8
3049.01187	8832.2
3051.4111	8814.4
3053.80888	8805.2
3056.20519	8795.3
3058.60005	8740.6
3060.99345	8739.6
3063.3854	8717.7
3065.7759	8671.6
3068.16494	8677.6
3070.55254	8652.6
3072.93868	8630.6
3075.32338	8613.8
3077.70662	8597
3080.08842	8578
3082.46878	8571.1
3084.84769	8562.4
3087.22515	8559
3089.60118	8546
3091.97576	8536.4
3094.3489	8537.4
3096.72061	8539.9
3099.09087	8548.2
3101.4597	8509.6
3103.82709	8513.1
3106.19305	8516.5
3108.55757	8524.8
3110.92066	8502.8
3113.28232	8464.7
3115.64255	8448.9
3118.00134	8423.8
3120.35871	8419.4
3122.71466	8401.7
3125.06917	8388.7
3127.42226	8359.4
3129.77393	8368.9
3132.12417	8350.6
3134.47299	8358.9
3136.82039	8339.9
3139.16636	8336.8
3141.51092	8351
3143.85406	8358.5
3146.19579	8358
3148.53609	8333.9
3150.87499	8352
3153.21246	8357.4
3155.54853	8369.1
3157.88318	8349
3160.21642	8342
3162.54826	8334.8
3164.87868	8325.7
3167.2077	8336.5
3169.5353	8341.8
3171.86151	8333
3174.18631	8340.3
3176.5097	8319.7
3178.83169	8291.1
3181.15228	8297.7
3183.47147	8285.4
3185.78926	8257
3188.10565	8262.8
3190.42065	8242.6
3192.73424	8238.7
3195.04645	8211.6
3197.35725	8219
3199.66667	8211
3201.97469	8224.8
3204.28132	8212.6
3206.58656	8223.5
3208.8904	8206.2
3211.19287	8232.6
3213.49394	8223.7
3215.79363	8203.3
3218.09193	8230.6
3220.38884	8204.1
3222.68438	8216.6
3224.97853	8191.1
3227.2713	8175.4
3229.56269	8169.1
3231.8527	8170.9
3234.14133	8156.5
3236.42858	8135
3238.71446	8120.9
3240.99896	8111.6
3243.28209	8124.5
3245.56384	8088.3
3247.84423	8068.2
3250.12324	8073.6
3252.40088	8057.3
3254.67715	8082.8
3256.95205	8062.5
3259.22558	8056.2
3261.49775	8042
3263.76855	8030.8
3266.03799	7995
3268.30606	7997.1
3270.57277	7983.3
3272.83812	7961.7
3275.10211	7922.5
3277.36474	7935.9
3279.62601	7920.5
3281.88593	7895.3
3284.14448	7923.7
3286.40168	7908.7
3288.65753	7893.9
3290.91202	7892.7
3293.16516	7868.1
3295.41695	7843.1
3297.66738	7791
3299.91647	7759.5
3302.16421	7705.8
3304.4106	7682.7
3306.65564	7623.6
3308.89933	7598.1
3311.14169	7542.8
3313.38269	7479.7
3315.62236	7414.8
3317.86068	7351.4
3320.09766	7297.6
3322.3333	7251.3
3324.5676	7226.7
3326.80056	7110.7
3329.03219	7064.5
3331.26248	3.6
3333.49143	-1.1
3335.71905	-2
