Data from AgNPs_FTO_APTES_UA_1uM_CRN_0uM_R6G_10uM_NaF_0.1M_Addition_RamanShift__2__11-07-59-404.txt Node

Date: Thu Jan 27 11:07:59 GMT 2022
User: TCL
Spectrometer: QEP01345
Trigger mode: 4
Integration Time (sec): 7.000000E0
Scans to average: 10
Electric dark correction enabled: true
Nonlinearity correction enabled: false
Boxcar width: 0
XAxis mode: Raman Shifts
Number of Pixels in Spectrum: 1044
>>>>>Begin Spectral Data<<<<<
46.04893	0.4375
50.45542	0.1375
54.85868	-1.0625
59.25871	0.4375
63.6555	25.3375
68.04907	26.1375
72.43941	27.4375
76.82654	33.0375
81.21044	31.7375
85.59113	30.7375
89.96862	33.2375
94.34289	33.9375
98.71396	39.8375
103.08183	33.4375
107.4465	38.5375
111.80798	36.0375
116.16626	37.2375
120.52136	40.8375
124.87327	39.3375
129.222	37.4375
133.56755	39.4375
137.90993	40.4375
142.24913	41.6375
146.58517	47.3375
150.91804	52.9375
155.24774	64.0375
159.57429	73.5375
163.89768	86.5375
168.21792	116.8375
172.53501	143.7375
176.84895	192.6375
181.15975	261.3375
185.46741	366.0375
189.77193	496.0375
194.07331	678.4375
198.37157	888.9375
202.6667	1107.6375
206.9587	1326.4375
211.24758	1541.5375
215.53334	1765.1375
219.81599	1971.0375
224.09553	2213.1375
228.37195	2450.7375
232.64527	2711.8375
236.91549	2997.1375
241.18261	3265.6375
245.44663	3520.1375
249.70755	3752.4375
253.96539	3948.1375
258.22014	4099.6375
262.4718	4215.6375
266.72039	4272.4375
270.96589	4280.9375
275.20832	4236.2375
279.44768	4159.0375
283.68397	4057.0375
287.91719	3944.5375
292.14735	3859.2375
296.37445	3800.4375
300.59849	3764.3375
304.81948	3742.8375
309.03742	3729.0375
313.25231	3688.3375
317.46415	3617.4375
321.67296	3522.4375
325.87872	3467.4375
330.08145	3419.5375
334.28114	3405.7375
338.47781	3401.8375
342.67145	3424.7375
346.86207	3426.9375
351.04966	3461.7375
355.23424	3508.7375
359.4158	3549.5375
363.59435	3586.3375
367.76989	3576.3375
371.94243	3602.4375
376.11196	3586.2375
380.27849	3589.1375
384.44203	3593.8375
388.60257	3581.3375
392.76012	3567.4375
396.91468	3575.6375
401.06626	3605.0375
405.21485	3621.4375
409.36047	3606.6375
413.50311	3536.5375
417.64277	3492.4375
421.77947	3478.3375
425.9132	3465.0375
430.04396	3447.6375
434.17176	3478.5375
438.2966	3526.2375
442.41849	3554.5375
446.53742	3611.6375
450.6534	3643.3375
454.76644	3681.3375
458.87653	3698.0375
462.98368	3707.9375
467.08789	3694.5375
471.18916	3684.1375
475.2875	3686.2375
479.38291	3682.1375
483.4754	3667.9375
487.56496	3641.8375
491.6516	3653.9375
495.73531	3662.7375
499.81612	3682.7375
503.89401	3701.9375
507.96899	3723.5375
512.04106	3738.0375
516.11023	3762.5375
520.1765	3779.6375
524.23987	3765.2375
528.30034	3755.7375
532.35792	3710.6375
536.41261	3678.7375
540.46441	3666.1375
544.51333	3667.6375
548.55936	3678.7375
552.60252	3684.4375
556.64279	3700.6375
560.6802	3725.8375
564.71473	3733.9375
568.7464	3736.7375
572.7752	3760.9375
576.80114	3717.6375
580.82422	3660.5375
584.84444	3624.3375
588.86181	3610.6375
592.87633	3645.0375
596.888	3658.0375
600.89682	3666.5375
604.9028	3798.8375
608.90594	4120.5375
612.90624	4591.3375
616.90371	4657.0375
620.89834	4127.6375
624.89015	3794.9375
628.87913	3709.1375
632.86528	3700.4375
636.84862	3707.7375
640.82913	3721.2375
644.80683	3681.2375
648.78172	3666.7375
652.75379	3682.9375
656.72306	3724.1375
660.68952	3786.1375
664.65319	3800.2375
668.61405	3777.6375
672.57211	3789.9375
676.52738	3839.3375
680.47986	3884.5375
684.42955	3941.1375
688.37646	3922.1375
692.32058	3886.3375
696.26192	3816.5375
700.20048	3794.5375
704.13626	3765.1375
708.06928	3752.3375
711.99952	3758.8375
715.927	3750.8375
719.85171	3778.8375
723.77365	3791.3375
727.69284	3821.0375
731.60928	3859.2375
735.52295	3860.3375
739.43388	3874.2375
743.34206	3830.1375
747.24749	3819.5375
751.15017	3806.4375
755.05012	3804.2375
758.94733	3834.5375
762.8418	3898.6375
766.73354	4053.0375
770.62254	4261.3375
774.50882	4409.5375
778.39237	4392.2375
782.27321	4189.3375
786.15132	4001.9375
790.02671	3909.3375
793.89938	3876.8375
797.76935	3868.6375
801.6366	3903.0375
805.50115	3893.7375
809.36299	3873.9375
813.22213	3831.2375
817.07857	3805.5375
820.93231	3759.7375
824.78336	3721.7375
828.63172	3723.5375
832.47738	3722.4375
836.32036	3728.7375
840.16066	3731.2375
843.99827	3708.6375
847.8332	3703.2375
851.66546	3661.0375
855.49504	3644.0375
859.32195	3634.1375
863.1462	3614.2375
866.96777	3606.1375
870.78668	3603.8375
874.60293	3610.5375
878.41652	3610.8375
882.22745	3607.1375
886.03573	3640.6375
889.84136	3662.5375
893.64433	3693.6375
897.44466	3726.3375
901.24235	3760.5375
905.0374	3817.1375
908.8298	3855.5375
912.61957	3950.2375
916.40671	4077.9375
920.19121	4218.9375
923.97308	4345.6375
927.75233	4454.4375
931.52895	4506.9375
935.30295	4488.4375
939.07433	4387.5375
942.84309	4277.1375
946.60924	4180.1375
950.37278	4089.3375
954.13371	4017.0375
957.89203	3927.2375
961.64774	3855.2375
965.40086	3786.2375
969.15137	3736.0375
972.89929	3677.4375
976.64461	3634.6375
980.38733	3605.2375
984.12747	3583.2375
987.86502	3582.7375
991.59999	3590.7375
995.33237	3629.6375
999.06217	3667.3375
1002.78939	3716.6375
1006.51404	3747.9375
1010.23611	3781.3375
1013.95561	3805.1375
1017.67255	3795.3375
1021.38692	3792.4375
1025.09872	3793.1375
1028.80796	3751.3375
1032.51465	3705.1375
1036.21877	3702.5375
1039.92035	3682.2375
1043.61937	3692.1375
1047.31584	3690.7375
1051.00976	3699.3375
1054.70114	3710.6375
1058.38998	3711.3375
1062.07627	3701.4375
1065.76003	3673.5375
1069.44126	3654.0375
1073.11995	3628.3375
1076.79611	3613.7375
1080.46974	3608.6375
1084.14085	3594.5375
1087.80943	3593.9375
1091.47549	3559.2375
1095.13903	3528.7375
1098.80005	3490.2375
1102.45857	3447.7375
1106.11456	3415.2375
1109.76805	3419.4375
1113.41903	3447.7375
1117.06751	3455.0375
1120.71348	3500.7375
1124.35696	3540.6375
1127.99793	3588.3375
1131.63641	3621.6375
1135.2724	3564.2375
1138.90589	3517.8375
1142.5369	3484.4375
1146.16542	3430.2375
1149.79145	3415.3375
1153.415	3390.9375
1157.03607	3375.7375
1160.65467	3379.8375
1164.27079	3400.9375
1167.88443	3474.5375
1171.49561	3556.0375
1175.10432	3702.6375
1178.71056	3930.1375
1182.31434	4157.1375
1185.91565	4245.0375
1189.51451	4241.8375
1193.11091	4155.8375
1196.70485	3995.9375
1200.29634	3868.9375
1203.88538	3754.7375
1207.47197	3646.4375
1211.05612	3534.6375
1214.63782	3480.5375
1218.21708	3456.2375
1221.79391	3468.4375
1225.36829	3521.9375
1228.94024	3567.5375
1232.50976	3580.3375
1236.07685	3602.9375
1239.6415	3572.8375
1243.20374	3574.6375
1246.76355	3577.1375
1250.32093	3605.6375
1253.8759	3605.2375
1257.42845	3634.4375
1260.97859	3689.5375
1264.52631	3740.4375
1268.07163	3816.2375
1271.61453	3885.9375
1275.15503	3961.7375
1278.69312	4026.0375
1282.22882	4095.4375
1285.76211	4179.7375
1289.29301	4309.9375
1292.82151	4383.0375
1296.34761	4487.7375
1299.87133	4565.7375
1303.39266	4688.5375
1306.9116	4795.3375
1310.42815	4949.0375
1313.94233	5016.9375
1317.45412	4925.0375
1320.96354	4755.9375
1324.47058	4545.9375
1327.97525	4399.3375
1331.47754	4322.0375
1334.97747	4318.0375
1338.47502	4368.4375
1341.97022	4463.2375
1345.46305	4616.7375
1348.95352	4792.1375
1352.44163	5036.5375
1355.92738	5315.0375
1359.41078	5664.8375
1362.89183	6020.6375
1366.37053	6118.0375
1369.84688	5737.3375
1373.32088	5257.3375
1376.79254	4933.7375
1380.26186	4760.6375
1383.72883	4675.7375
1387.19347	4631.0375
1390.65578	4563.9375
1394.11575	4538.3375
1397.57339	4521.3375
1401.0287	4473.6375
1404.48168	4424.5375
1407.93234	4367.8375
1411.38068	4328.5375
1414.82669	4284.7375
1418.27039	4254.2375
1421.71177	4219.4375
1425.15083	4193.5375
1428.58758	4141.9375
1432.02203	4105.3375
1435.45416	4086.8375
1438.88399	4083.3375
1442.31151	4082.4375
1445.73673	4062.0375
1449.15965	4050.2375
1452.58027	4055.9375
1455.9986	4049.2375
1459.41463	4065.5375
1462.82837	4051.5375
1466.23982	4100.0375
1469.64898	4142.9375
1473.05586	4178.0375
1476.46045	4210.6375
1479.86276	4254.0375
1483.26279	4283.2375
1486.66054	4320.9375
1490.05602	4330.9375
1493.44922	4384.0375
1496.84016	4439.2375
1500.22882	4541.2375
1503.61521	4726.4375
1506.99934	4950.7375
1510.38121	5170.9375
1513.76081	5243.6375
1517.13816	5088.5375
1520.51324	4762.9375
1523.88607	4414.3375
1527.25665	4181.0375
1530.62498	4046.3375
1533.99105	3969.9375
1537.35488	3920.0375
1540.71647	3863.2375
1544.07581	3849.0375
1547.4329	3833.6375
1550.78776	3797.2375
1554.14038	3816.4375
1557.49077	3810.7375
1560.83892	3808.7375
1564.18484	3789.3375
1567.52853	3812.1375
1570.86999	3830.5375
1574.20922	3839.0375
1577.54624	3822.8375
1580.88103	3758.5375
1584.2136	3609.7375
1587.54395	3488.1375
1590.87208	3433.3375
1594.19801	3398.8375
1597.52172	3420.7375
1600.84321	3437.4375
1604.16251	3393.4375
1607.47959	3318.2375
1610.79447	3282.5375
1614.10715	3220.4375
1617.41763	3182.0375
1620.7259	3137.6375
1624.03199	3111.4375
1627.33587	3091.6375
1630.63757	3080.4375
1633.93707	3076.3375
1637.23439	3104.9375
1640.52951	3123.6375
1643.82246	3195.7375
1647.11321	3284.5375
1650.40179	3384.4375
1653.68819	3356.0375
1656.97241	3167.5375
1660.25446	2931.7375
1663.53433	2747.0375
1666.81203	2619.4375
1670.08756	2549.4375
1673.36092	2492.1375
1676.63211	2478.9375
1679.90115	2418.8375
1683.16801	2396.6375
1686.43272	2360.0375
1689.69527	2314.0375
1692.95567	2262.5375
1696.2139	2184.3375
1699.46999	2100.1375
1702.72392	2060.6375
1705.97571	2106.8375
1709.22535	2146.6375
1712.47284	2179.3375
1715.71819	2189.6375
1718.96139	2187.8375
1722.20246	2181.1375
1725.44139	2184.6375
1728.67818	2165.8375
1731.91284	2147.6375
1735.14537	2133.7375
1738.37576	2130.2375
1741.60403	2108.0375
1744.83017	2105.2375
1748.05418	2085.4375
1751.27607	2062.8375
1754.49584	2034.9375
1757.71349	1997.7375
1760.92903	1961.9375
1764.14244	1946.0375
1767.35375	1931.9375
1770.56294	1912.0375
1773.77002	1917.4375
1776.97499	1934.3375
1780.17785	1969.8375
1783.37861	1980.2375
1786.57727	1987.3375
1789.77382	1990.0375
1792.96828	1970.8375
1796.16064	1972.5375
1799.3509	1965.2375
1802.53907	1960.8375
1805.72514	1955.5375
1808.90913	1941.9375
1812.09102	1938.8375
1815.27083	1934.5375
1818.44856	1925.1375
1821.6242	1915.4375
1824.79776	1920.6375
1827.96924	1907.3375
1831.13864	1903.2375
1834.30597	1904.8375
1837.47122	1893.4375
1840.6344	1892.2375
1843.7955	1894.5375
1846.95454	1893.9375
1850.11151	1880.6375
1853.26642	1878.8375
1856.41926	1874.7375
1859.57004	1871.1375
1862.71876	1878.3375
1865.86542	1873.5375
1869.01003	1861.7375
1872.15258	1862.5375
1875.29308	1860.0375
1878.43152	1846.3375
1881.56792	1848.4375
1884.70227	1841.4375
1887.83457	1839.7375
1890.96482	1837.1375
1894.09304	1833.5375
1897.21921	1837.0375
1900.34335	1826.8375
1903.46544	1826.7375
1906.58551	1811.8375
1909.70353	1822.2375
1912.81953	1820.2375
1915.93349	1812.2375
1919.04543	1797.5375
1922.15534	1799.7375
1925.26322	1805.6375
1928.36908	1779.3375
1931.47292	1788.7375
1934.57473	1777.3375
1937.67453	1768.7375
1940.77232	1770.1375
1943.86808	1764.0375
1946.96184	1757.9375
1950.05358	1751.3375
1953.14331	1747.0375
1956.23103	1732.9375
1959.31675	1742.6375
1962.40046	1736.2375
1965.48217	1713.0375
1968.56188	1715.3375
1971.63959	1711.9375
1974.7153	1701.9375
1977.78901	1702.1375
1980.86073	1695.0375
1983.93046	1690.4375
1986.99819	1681.5375
1990.06394	1676.2375
1993.1277	1656.3375
1996.18947	1668.5375
1999.24925	1666.8375
2002.30706	1657.4375
2005.36288	1639.9375
2008.41672	1631.2375
2011.46859	1630.3375
2014.51848	1620.5375
2017.56639	1622.2375
2020.61233	1619.3375
2023.6563	1612.5375
2026.6983	1604.2375
2029.73833	1601.7375
2032.7764	1594.3375
2035.8125	1594.7375
2038.84664	1585.6375
2041.87881	1585.2375
2044.90903	1581.0375
2047.93729	1565.6375
2050.96359	1571.6375
2053.98794	1565.8375
2057.01034	1559.4375
2060.03078	1561.9375
2063.04927	1561.6375
2066.06582	1561.7375
2069.08042	1559.8375
2072.09307	1550.9375
2075.10378	1552.0375
2078.11255	1563.5375
2081.11938	1562.3375
2084.12426	1556.6375
2087.12722	1551.5375
2090.12824	1553.9375
2093.12732	1561.4375
2096.12447	1555.6375
2099.11969	1561.8375
2102.11299	1561.3375
2105.10435	1559.5375
2108.09379	1554.2375
2111.08131	1559.4375
2114.0669	1554.2375
2117.05057	1555.1375
2120.03233	1554.3375
2123.01216	1543.9375
2125.99008	1545.5375
2128.96609	1544.5375
2131.94018	1540.9375
2134.91236	1545.8375
2137.88263	1543.0375
2140.851	1531.5375
2143.81746	1540.0375
2146.78201	1535.2375
2149.74466	1536.6375
2152.7054	1525.6375
2155.66425	1531.7375
2158.6212	1524.4375
2161.57625	1527.8375
2164.52941	1526.7375
2167.48067	1514.2375
2170.43004	1518.6375
2173.37752	1522.1375
2176.32311	1510.3375
2179.26681	1519.2375
2182.20863	1509.6375
2185.14856	1513.7375
2188.08661	1513.7375
2191.02278	1502.3375
2193.95707	1507.2375
2196.88948	1505.8375
2199.82001	1503.4375
2202.74867	1492.7375
2205.67545	1499.7375
2208.60037	1491.8375
2211.52341	1491.6375
2214.44458	1487.8375
2217.36388	1481.6375
2220.28132	1473.4375
2223.1969	1469.3375
2226.11061	1473.9375
2229.02246	1468.5375
2231.93245	1461.6375
2234.84058	1449.4375
2237.74686	1457.0375
2240.65128	1451.9375
2243.55385	1444.5375
2246.45456	1435.7375
2249.35343	1447.4375
2252.25044	1442.3375
2255.14561	1425.2375
2258.03893	1425.2375
2260.93041	1412.3375
2263.82004	1414.3375
2266.70783	1419.9375
2269.59378	1415.2375
2272.4779	1404.2375
2275.36017	1411.6375
2278.24061	1405.6375
2281.11922	1395.7375
2283.996	1396.7375
2286.87094	1398.6375
2289.74405	1388.7375
2292.61534	1378.2375
2295.4848	1380.7375
2298.35243	1380.5375
2301.21824	1370.6375
2304.08223	1378.5375
2306.94439	1368.8375
2309.80474	1370.2375
2312.66327	1369.7375
2315.51999	1366.2375
2318.37489	1364.5375
2321.22797	1364.0375
2324.07925	1350.9375
2326.92871	1356.2375
2329.77637	1358.4375
2332.62222	1347.9375
2335.46626	1336.7375
2338.3085	1340.9375
2341.14893	1343.1375
2343.98756	1331.4375
2346.8244	1334.1375
2349.65943	1327.5375
2352.49267	1329.8375
2355.32411	1326.0375
2358.15376	1327.2375
2360.98161	1329.6375
2363.80768	1323.3375
2366.63195	1325.3375
2369.45444	1319.1375
2372.27514	1310.7375
2375.09405	1319.4375
2377.91118	1313.4375
2380.72652	1303.9375
2383.54009	1306.5375
2386.35187	1302.3375
2389.16188	1296.3375
2391.97011	1293.0375
2394.77657	1289.4375
2397.58125	1294.7375
2400.38416	1280.7375
2403.18529	1283.6375
2405.98466	1277.5375
2408.78226	1270.0375
2411.57809	1265.1375
2414.37216	1272.1375
2417.16446	1266.9375
2419.955	1253.8375
2422.74378	1260.1375
2425.5308	1250.7375
2428.31606	1258.6375
2431.09956	1255.9375
2433.88131	1256.6375
2436.6613	1249.1375
2439.43954	1250.9375
2442.21603	1243.5375
2444.99077	1253.7375
2447.76377	1241.4375
2450.53501	1234.1375
2453.30451	1238.0375
2456.07226	1232.6375
2458.83827	1225.5375
2461.60254	1242.1375
2464.36507	1233.5375
2467.12586	1224.8375
2469.88492	1224.7375
2472.64224	1219.6375
2475.39782	1210.7375
2478.15167	1198.0375
2480.90379	1208.7375
2483.65417	1217.8375
2486.40283	1205.1375
2489.14976	1212.2375
2491.89497	1213.2375
2494.63845	1199.6375
2497.3802	1183.6375
2500.12024	1199.6375
2502.85855	1200.7375
2505.59514	1195.5375
2508.33002	1199.6375
2511.06318	1195.4375
2513.79462	1187.1375
2516.52435	1187.8375
2519.25237	1181.7375
2521.97867	1180.0375
2524.70327	1180.6375
2527.42616	1178.8375
2530.14734	1172.4375
2532.86681	1177.4375
2535.58458	1169.5375
2538.30065	1170.8375
2541.01501	1166.3375
2543.72768	1158.9375
2546.43864	1164.5375
2549.14791	1166.8375
2551.85548	1161.8375
2554.56136	1158.7375
2557.26554	1152.6375
2559.96803	1148.7375
2562.66883	1145.1375
2565.36794	1155.2375
2568.06536	1137.7375
2570.7611	1139.0375
2573.45514	1134.9375
2576.14751	1137.1375
2578.83819	1135.4375
2581.52719	1132.2375
2584.21451	1131.4375
2586.90015	1122.4375
2589.58411	1124.7375
2592.2664	1130.1375
2594.94701	1120.0375
2597.62594	1117.9375
2600.30321	1117.5375
2602.9788	1107.0375
2605.65273	1116.0375
2608.32498	1102.3375
2610.99557	1106.2375
2613.66449	1104.2375
2616.33175	1104.0375
2618.99734	1103.7375
2621.66128	1104.4375
2624.32355	1101.3375
2626.98416	1092.8375
2629.64311	1095.0375
2632.30041	1105.1375
2634.95605	1100.5375
2637.61004	1089.6375
2640.26238	1090.5375
2642.91306	1093.8375
2645.56209	1082.5375
2648.20948	1084.3375
2650.85521	1088.9375
2653.4993	1093.5375
2656.14175	1089.3375
2658.78255	1090.2375
2661.42171	1092.8375
2664.05923	1084.5375
2666.6951	1095.8375
2669.32934	1096.6375
2671.96194	1093.0375
2674.59291	1099.5375
2677.22224	1093.5375
2679.84993	1097.2375
2682.476	1092.4375
2685.10043	1089.3375
2687.72324	1092.0375
2690.34441	1092.6375
2692.96396	1091.8375
2695.58188	1092.1375
2698.19818	1104.7375
2700.81285	1099.2375
2703.4259	1070.9375
2706.03733	1011.1375
2708.64714	1048.7375
2711.25533	1080.9375
2713.86191	1077.7375
2716.46687	1095.0375
2719.07021	1106.2375
2721.67194	1104.1375
2724.27206	1109.8375
2726.87057	1109.5375
2729.46747	1111.6375
2732.06276	1108.3375
2734.65644	1112.1375
2737.24852	1124.4375
2739.83899	1120.7375
2742.42786	1121.1375
2745.01513	1106.8375
2747.60079	1113.9375
2750.18486	1122.1375
2752.76733	1113.7375
2755.3482	1113.5375
2757.92747	1133.2375
2760.50515	1123.5375
2763.08123	1128.1375
2765.65573	1124.2375
2768.22863	1123.1375
2770.79994	1118.0375
2773.36967	1123.0375
2775.9378	1118.6375
2778.50435	1124.0375
2781.06932	1121.7375
2783.6327	1112.0375
2786.1945	1116.7375
2788.75471	1119.3375
2791.31335	1110.4375
2793.87041	1110.7375
2796.42589	1115.0375
2798.97979	1112.1375
2801.53212	1116.4375
2804.08288	1115.1375
2806.63206	1111.6375
2809.17967	1106.6375
2811.72571	1108.1375
2814.27018	1100.8375
2816.81308	1100.4375
2819.35442	1097.8375
2821.89419	1094.6375
2824.43239	1092.9375
2826.96904	1090.1375
2829.50412	1094.8375
2832.03763	1091.8375
2834.56959	1092.2375
2837.1	1099.8375
2839.62884	1094.2375
2842.15613	1100.8375
2844.68186	1109.4375
2847.20604	1114.4375
2849.72867	1127.7375
2852.24974	1126.1375
2854.76927	1123.1375
2857.28724	1111.9375
2859.80367	1136.4375
2862.31855	1154.4375
2864.83189	1160.1375
2867.34368	1169.3375
2869.85393	1179.7375
2872.36264	1192.4375
2874.8698	1202.2375
2877.37543	1212.9375
2879.87952	1210.4375
2882.38207	1230.3375
2884.88308	1241.1375
2887.38256	1242.0375
2889.88051	1252.8375
2892.37692	1245.0375
2894.8718	1259.9375
2897.36515	1270.1375
2899.85698	1271.3375
2902.34727	1274.1375
2904.83604	1287.5375
2907.32328	1284.9375
2909.809	1288.4375
2912.29319	1297.9375
2914.77587	1311.8375
2917.25702	1313.0375
2919.73665	1317.3375
2922.21476	1321.0375
2924.69136	1331.4375
2927.16644	1340.0375
2929.64	1343.1375
2932.11205	1340.3375
2934.58258	1342.1375
2937.05161	1337.3375
2939.51912	1327.5375
2941.98513	1323.3375
2944.44962	1305.7375
2946.91261	1293.5375
2949.37409	1276.3375
2951.83407	1254.3375
2954.29254	1242.3375
2956.74951	1218.7375
2959.20498	1205.1375
2961.65895	1172.1375
2964.11142	1165.1375
2966.56239	1148.5375
2969.01186	1134.5375
2971.45984	1116.4375
2973.90632	1109.7375
2976.35131	1098.7375
2978.7948	1081.9375
2981.23681	1071.3375
2983.67732	1068.1375
2986.11635	1059.9375
2988.55388	1045.8375
2990.98993	1036.8375
2993.4245	1034.1375
2995.85758	1031.0375
2998.28917	1021.4375
3000.71928	1017.0375
3003.14791	1011.6375
3005.57506	1015.7375
3008.00073	1005.0375
3010.42493	1002.7375
3012.84764	998.7375
3015.26888	1000.4375
3017.68865	1001.5375
3020.10694	1001.4375
3022.52376	988.6375
3024.9391	990.2375
3027.35298	984.2375
3029.76539	992.5375
3032.17632	981.3375
3034.5858	987.1375
3036.9938	985.7375
3039.40034	988.6375
3041.80542	984.7375
3044.20903	982.1375
3046.61118	976.6375
3049.01187	977.2375
3051.4111	985.3375
3053.80888	977.0375
3056.20519	975.8375
3058.60005	976.1375
3060.99345	970.5375
3063.3854	973.4375
3065.7759	966.7375
3068.16494	981.1375
3070.55254	980.7375
3072.93868	976.6375
3075.32338	979.1375
3077.70662	976.4375
3080.08842	980.2375
3082.46878	981.9375
3084.84769	981.8375
3087.22515	983.7375
3089.60118	987.0375
3091.97576	995.0375
3094.3489	1001.9375
3096.72061	992.3375
3099.09087	1005.2375
3101.4597	997.9375
3103.82709	1001.5375
3106.19305	1010.2375
3108.55757	1016.7375
3110.92066	1015.7375
3113.28232	1017.5375
3115.64255	1019.1375
3118.00134	1011.8375
3120.35871	1017.5375
3122.71466	1024.5375
3125.06917	1023.1375
3127.42226	1028.1375
3129.77393	1036.2375
3132.12417	1033.3375
3134.47299	1042.2375
3136.82039	1048.0375
3139.16636	1047.2375
3141.51092	1056.9375
3143.85406	1064.9375
3146.19579	1059.5375
3148.53609	1071.9375
3150.87499	1073.7375
3153.21246	1086.1375
3155.54853	1082.1375
3157.88318	1099.0375
3160.21642	1098.0375
3162.54826	1097.1375
3164.87868	1114.8375
3167.2077	1099.8375
3169.5353	1108.0375
3171.86151	1122.7375
3174.18631	1130.9375
3176.5097	1125.3375
3178.83169	1133.5375
3181.15228	1127.2375
3183.47147	1134.0375
3185.78926	1136.4375
3188.10565	1139.7375
3190.42065	1143.1375
3192.73424	1147.6375
3195.04645	1151.5375
3197.35725	1153.0375
3199.66667	1155.5375
3201.97469	1151.5375
3204.28132	1169.1375
3206.58656	1173.1375
3208.8904	1175.3375
3211.19287	1183.6375
3213.49394	1184.7375
3215.79363	1182.5375
3218.09193	1192.8375
3220.38884	1175.4375
3222.68438	1165.7375
3224.97853	1169.6375
3227.2713	1188.7375
3229.56269	1190.7375
3231.8527	1196.8375
3234.14133	1201.5375
3236.42858	1203.2375
3238.71446	1201.7375
3240.99896	1195.9375
3243.28209	1195.3375
3245.56384	1201.6375
3247.84423	1201.6375
3250.12324	1202.6375
3252.40088	1208.1375
3254.67715	1201.6375
3256.95205	1210.7375
3259.22558	1212.9375
3261.49775	1211.3375
3263.76855	1214.2375
3266.03799	1209.5375
3268.30606	1213.0375
3270.57277	1223.8375
3272.83812	1213.5375
3275.10211	1206.5375
3277.36474	1208.4375
3279.62601	1205.6375
3281.88593	1206.5375
3284.14448	1211.2375
3286.40168	1204.4375
3288.65753	1205.6375
3290.91202	1202.6375
3293.16516	1191.8375
3295.41695	1187.7375
3297.66738	1183.1375
3299.91647	1172.4375
3302.16421	1174.2375
3304.4106	1168.8375
3306.65564	1170.1375
3308.89933	1154.2375
3311.14169	1147.3375
3313.38269	1127.4375
3315.62236	1127.8375
3317.86068	1127.4375
3320.09766	1123.8375
3322.3333	1107.0375
3324.5676	1097.0375
3326.80056	1062.7375
3329.03219	1065.1375
3331.26248	0.9375
3333.49143	0.8375
3335.71905	-1.4625
