Data from AgNPs_FTO_APTES_UA_1uM_CRN_200uM_R6G_10uM_NaF_0.1M_Addition_RamanShift__7__17-13-09-819.txt Node

Date: Thu Jan 27 17:13:09 GMT 2022
User: TCL
Spectrometer: QEP01345
Trigger mode: 4
Integration Time (sec): 7.000000E0
Scans to average: 10
Electric dark correction enabled: true
Nonlinearity correction enabled: false
Boxcar width: 0
XAxis mode: Raman Shifts
Number of Pixels in Spectrum: 1044
>>>>>Begin Spectral Data<<<<<
46.04893	0.1375
50.45542	0.5375
54.85868	-2.1625
59.25871	0.2375
63.6555	39.3375
68.04907	46.0375
72.43941	47.3375
76.82654	49.0375
81.21044	52.2375
85.59113	50.6375
89.96862	55.4375
94.34289	57.2375
98.71396	62.6375
103.08183	58.0375
107.4465	65.9375
111.80798	64.0375
116.16626	64.6375
120.52136	68.8375
124.87327	69.8375
129.222	67.6375
133.56755	67.5375
137.90993	74.6375
142.24913	79.4375
146.58517	88.3375
150.91804	102.8375
155.24774	113.4375
159.57429	132.8375
163.89768	168.8375
168.21792	219.3375
172.53501	289.8375
176.84895	399.6375
181.15975	553.6375
185.46741	770.7375
189.77193	1071.5375
194.07331	1437.8375
198.37157	1851.6375
202.6667	2303.7375
206.9587	2741.0375
211.24758	3179.2375
215.53334	3607.6375
219.81599	4052.1375
224.09553	4530.7375
228.37195	5072.0375
232.64527	5673.4375
236.91549	6296.9375
241.18261	6941.8375
245.44663	7558.7375
249.70755	8124.3375
253.96539	8610.2375
258.22014	8967.2375
262.4718	9309.9375
266.72039	9535.2375
270.96589	9619.8375
275.20832	9606.3375
279.44768	9527.0375
283.68397	9382.5375
287.91719	9253.4375
292.14735	9170.2375
296.37445	9084.2375
300.59849	9096.3375
304.81948	9108.7375
309.03742	9115.0375
313.25231	9078.7375
317.46415	8950.0375
321.67296	8767.7375
325.87872	8644.3375
330.08145	8573.4375
334.28114	8596.0375
338.47781	8646.6375
342.67145	8729.5375
346.86207	8876.7375
351.04966	9018.5375
355.23424	9149.0375
359.4158	9254.2375
363.59435	9344.9375
367.76989	9409.5375
371.94243	9466.8375
376.11196	9508.4375
380.27849	9557.1375
384.44203	9647.0375
388.60257	9692.0375
392.76012	9776.3375
396.91468	9875.3375
401.06626	10016.8375
405.21485	10088.5375
409.36047	10123.4375
413.50311	10034.1375
417.64277	9947.9375
421.77947	9946.5375
425.9132	9965.6375
430.04396	10011.4375
434.17176	10075.2375
438.2966	10094.1375
442.41849	10161.4375
446.53742	10345.5375
450.6534	10500.8375
454.76644	10621.2375
458.87653	10615.1375
462.98368	10598.8375
467.08789	10502.4375
471.18916	10403.6375
475.2875	10305.2375
479.38291	10209.0375
483.4754	10109.8375
487.56496	10042.4375
491.6516	9985.5375
495.73531	9977.8375
499.81612	9969.5375
503.89401	10030.9375
507.96899	10050.6375
512.04106	10078.5375
516.11023	10081.7375
520.1765	10050.2375
524.23987	9997.9375
528.30034	9944.3375
532.35792	9868.7375
536.41261	9818.0375
540.46441	9729.5375
544.51333	9693.9375
548.55936	9754.6375
552.60252	9887.5375
556.64279	10047.3375
560.6802	10132.3375
564.71473	10162.4375
568.7464	10179.8375
572.7752	10335.6375
576.80114	10479.1375
580.82422	10736.2375
584.84444	11071.3375
588.86181	11570.1375
592.87633	11935.7375
596.888	11898.0375
600.89682	11495.2375
604.9028	11275.9375
608.90594	11823.3375
612.90624	12611.1375
616.90371	12220.2375
620.89834	10705.4375
624.89015	9974.8375
628.87913	9881.2375
632.86528	9924.2375
636.84862	10002.7375
640.82913	9938.8375
644.80683	9790.2375
648.78172	9713.1375
652.75379	9723.5375
656.72306	9769.9375
660.68952	9870.7375
664.65319	9850.4375
668.61405	9716.6375
672.57211	9719.0375
676.52738	9755.3375
680.47986	9812.4375
684.42955	9768.9375
688.37646	9728.8375
692.32058	9685.3375
696.26192	9734.9375
700.20048	9798.4375
704.13626	9889.6375
708.06928	9884.7375
711.99952	9858.5375
715.927	9867.2375
719.85171	9871.2375
723.77365	9859.8375
727.69284	9803.7375
731.60928	9717.0375
735.52295	9687.2375
739.43388	9669.4375
743.34206	9704.9375
747.24749	9747.5375
751.15017	9814.2375
755.05012	9892.4375
758.94733	10035.5375
762.8418	10354.4375
766.73354	10890.9375
770.62254	11480.5375
774.50882	11702.8375
778.39237	11465.1375
782.27321	10875.7375
786.15132	10324.5375
790.02671	9949.7375
793.89938	9774.6375
797.76935	9694.7375
801.6366	9665.2375
805.50115	9640.9375
809.36299	9612.5375
813.22213	9547.3375
817.07857	9525.9375
820.93231	9499.2375
824.78336	9476.0375
828.63172	9469.8375
832.47738	9452.3375
836.32036	9459.1375
840.16066	9468.1375
843.99827	9455.9375
847.8332	9464.6375
851.66546	9438.7375
855.49504	9461.9375
859.32195	9428.1375
863.1462	9425.2375
866.96777	9438.9375
870.78668	9447.5375
874.60293	9444.5375
878.41652	9477.3375
882.22745	9469.2375
886.03573	9554.6375
889.84136	9525.8375
893.64433	9520.6375
897.44466	9470.2375
901.24235	9465.2375
905.0374	9405.1375
908.8298	9376.7375
912.61957	9378.7375
916.40671	9410.5375
920.19121	9475.3375
923.97308	9545.9375
927.75233	9589.3375
931.52895	9563.6375
935.30295	9473.1375
939.07433	9342.7375
942.84309	9249.2375
946.60924	9170.1375
950.37278	9130.7375
954.13371	9115.9375
957.89203	9092.0375
961.64774	9113.6375
965.40086	9086.5375
969.15137	9063.1375
972.89929	9010.9375
976.64461	8996.0375
980.38733	8986.5375
984.12747	8981.8375
987.86502	8989.3375
991.59999	9043.5375
995.33237	9056.0375
999.06217	9131.3375
1002.78939	9264.6375
1006.51404	9349.5375
1010.23611	9447.8375
1013.95561	9544.7375
1017.67255	9565.6375
1021.38692	9549.2375
1025.09872	9438.4375
1028.80796	9370.5375
1032.51465	9291.4375
1036.21877	9308.3375
1039.92035	9351.5375
1043.61937	9376.7375
1047.31584	9428.1375
1051.00976	9446.4375
1054.70114	9454.4375
1058.38998	9495.1375
1062.07627	9548.0375
1065.76003	9605.5375
1069.44126	9712.4375
1073.11995	9827.0375
1076.79611	9941.8375
1080.46974	9980.5375
1084.14085	9949.8375
1087.80943	9921.3375
1091.47549	9978.1375
1095.13903	10001.5375
1098.80005	9935.3375
1102.45857	9792.0375
1106.11456	9651.2375
1109.76805	9555.8375
1113.41903	9539.8375
1117.06751	9596.8375
1120.71348	9702.5375
1124.35696	9811.9375
1127.99793	9952.2375
1131.63641	10076.3375
1135.2724	9968.4375
1138.90589	9848.3375
1142.5369	9804.3375
1146.16542	9775.5375
1149.79145	9776.9375
1153.415	9783.5375
1157.03607	9830.1375
1160.65467	9967.5375
1164.27079	10247.1375
1167.88443	10613.8375
1171.49561	11026.3375
1175.10432	11508.4375
1178.71056	12174.4375
1182.31434	12853.3375
1185.91565	13154.1375
1189.51451	13082.5375
1193.11091	12753.1375
1196.70485	12354.0375
1200.29634	11960.2375
1203.88538	11629.0375
1207.47197	11359.2375
1211.05612	11179.5375
1214.63782	10985.2375
1218.21708	10786.5375
1221.79391	10647.0375
1225.36829	10580.9375
1228.94024	10544.3375
1232.50976	10510.7375
1236.07685	10438.7375
1239.6415	10368.0375
1243.20374	10333.6375
1246.76355	10360.9375
1250.32093	10405.8375
1253.8759	10554.8375
1257.42845	10723.3375
1260.97859	10890.7375
1264.52631	11107.7375
1268.07163	11286.3375
1271.61453	11474.2375
1275.15503	11647.0375
1278.69312	11869.4375
1282.22882	12089.7375
1285.76211	12371.5375
1289.29301	12731.3375
1292.82151	13165.0375
1296.34761	13637.6375
1299.87133	14223.4375
1303.39266	14889.2375
1306.9116	15517.5375
1310.42815	16078.3375
1313.94233	16433.1375
1317.45412	16302.1375
1320.96354	15875.7375
1324.47058	15421.5375
1327.97525	15002.8375
1331.47754	14747.4375
1334.97747	14537.6375
1338.47502	14405.3375
1341.97022	14311.7375
1345.46305	14276.2375
1348.95352	14394.5375
1352.44163	14773.8375
1355.92738	15404.8375
1359.41078	16264.3375
1362.89183	16977.7375
1366.37053	16915.9375
1369.84688	15791.9375
1373.32088	14145.2375
1376.79254	12902.4375
1380.26186	12332.0375
1383.72883	12135.1375
1387.19347	11939.8375
1390.65578	11708.5375
1394.11575	11594.2375
1397.57339	11619.9375
1401.0287	11775.4375
1404.48168	11873.5375
1407.93234	11895.9375
1411.38068	11771.7375
1414.82669	11604.6375
1418.27039	11361.4375
1421.71177	11104.1375
1425.15083	10875.0375
1428.58758	10731.3375
1432.02203	10783.8375
1435.45416	10940.9375
1438.88399	11097.2375
1442.31151	11177.6375
1445.73673	11206.7375
1449.15965	11217.7375
1452.58027	11209.3375
1455.9986	11189.0375
1459.41463	11184.9375
1462.82837	11307.0375
1466.23982	11507.2375
1469.64898	11698.4375
1473.05586	11857.8375
1476.46045	11949.8375
1479.86276	11995.9375
1483.26279	11971.0375
1486.66054	12052.6375
1490.05602	12190.8375
1493.44922	12405.3375
1496.84016	12698.5375
1500.22882	13131.7375
1503.61521	13655.0375
1506.99934	14252.6375
1510.38121	14701.0375
1513.76081	14707.2375
1517.13816	14274.2375
1520.51324	13587.9375
1523.88607	13033.6375
1527.25665	12681.4375
1530.62498	12474.7375
1533.99105	12351.0375
1537.35488	12168.5375
1540.71647	11972.4375
1544.07581	11766.9375
1547.4329	11591.2375
1550.78776	11393.0375
1554.14038	11239.2375
1557.49077	11138.2375
1560.83892	11124.3375
1564.18484	11138.9375
1567.52853	11253.3375
1570.86999	11382.1375
1574.20922	11545.5375
1577.54624	11658.9375
1580.88103	11609.3375
1584.2136	11462.4375
1587.54395	11473.6375
1590.87208	11706.9375
1594.19801	12227.5375
1597.52172	12806.9375
1600.84321	13123.8375
1604.16251	12906.3375
1607.47959	12252.7375
1610.79447	11471.6375
1614.10715	10739.5375
1617.41763	10161.5375
1620.7259	9771.9375
1624.03199	9532.8375
1627.33587	9495.2375
1630.63757	9586.9375
1633.93707	9910.5375
1637.23439	10478.7375
1640.52951	11477.2375
1643.82246	12734.3375
1647.11321	13968.5375
1650.40179	14433.6375
1653.68819	13774.0375
1656.97241	12317.7375
1660.25446	10877.0375
1663.53433	9843.1375
1666.81203	9240.0375
1670.08756	8850.2375
1673.36092	8634.7375
1676.63211	8475.4375
1679.90115	8386.3375
1683.16801	8284.0375
1686.43272	8204.2375
1689.69527	8156.7375
1692.95567	8101.8375
1696.2139	8063.5375
1699.46999	7993.3375
1702.72392	7983.7375
1705.97571	7976.3375
1709.22535	8004.4375
1712.47284	8014.9375
1715.71819	8011.5375
1718.96139	7996.5375
1722.20246	8001.5375
1725.44139	8012.9375
1728.67818	7949.1375
1731.91284	7926.5375
1735.14537	7898.4375
1738.37576	7855.9375
1741.60403	7846.8375
1744.83017	7832.5375
1748.05418	7803.9375
1751.27607	7801.1375
1754.49584	7807.8375
1757.71349	7769.3375
1760.92903	7764.8375
1764.14244	7753.5375
1767.35375	7742.2375
1770.56294	7699.4375
1773.77002	7701.2375
1776.97499	7686.9375
1780.17785	7678.9375
1783.37861	7699.2375
1786.57727	7693.3375
1789.77382	7674.7375
1792.96828	7647.1375
1796.16064	7637.0375
1799.3509	7608.8375
1802.53907	7629.4375
1805.72514	7593.1375
1808.90913	7577.3375
1812.09102	7552.3375
1815.27083	7536.2375
1818.44856	7535.0375
1821.6242	7510.8375
1824.79776	7522.5375
1827.96924	7520.3375
1831.13864	7509.8375
1834.30597	7502.1375
1837.47122	7504.3375
1840.6344	7503.4375
1843.7955	7472.6375
1846.95454	7473.5375
1850.11151	7489.8375
1853.26642	7477.4375
1856.41926	7470.5375
1859.57004	7460.7375
1862.71876	7455.9375
1865.86542	7442.0375
1869.01003	7425.9375
1872.15258	7443.4375
1875.29308	7414.6375
1878.43152	7421.1375
1881.56792	7410.9375
1884.70227	7393.1375
1887.83457	7382.7375
1890.96482	7365.1375
1894.09304	7356.2375
1897.21921	7361.3375
1900.34335	7351.6375
1903.46544	7341.6375
1906.58551	7309.4375
1909.70353	7331.7375
1912.81953	7315.0375
1915.93349	7304.4375
1919.04543	7300.0375
1922.15534	7272.2375
1925.26322	7283.2375
1928.36908	7277.5375
1931.47292	7236.1375
1934.57473	7220.4375
1937.67453	7209.4375
1940.77232	7191.7375
1943.86808	7156.4375
1946.96184	7144.0375
1950.05358	7128.8375
1953.14331	7099.4375
1956.23103	7083.7375
1959.31675	7065.2375
1962.40046	7039.2375
1965.48217	7033.4375
1968.56188	7009.7375
1971.63959	6994.3375
1974.7153	6978.6375
1977.78901	6964.3375
1980.86073	6919.7375
1983.93046	6911.8375
1986.99819	6892.4375
1990.06394	6857.6375
1993.1277	6866.4375
1996.18947	6842.1375
1999.24925	6812.2375
2002.30706	6803.6375
2005.36288	6786.0375
2008.41672	6753.2375
2011.46859	6739.4375
2014.51848	6714.5375
2017.56639	6692.0375
2020.61233	6692.3375
2023.6563	6667.0375
2026.6983	6662.6375
2029.73833	6645.7375
2032.7764	6627.4375
2035.8125	6611.8375
2038.84664	6582.0375
2041.87881	6561.4375
2044.90903	6562.5375
2047.93729	6557.7375
2050.96359	6551.7375
2053.98794	6528.7375
2057.01034	6521.6375
2060.03078	6548.8375
2063.04927	6522.9375
2066.06582	6510.8375
2069.08042	6535.5375
2072.09307	6520.2375
2075.10378	6519.3375
2078.11255	6507.6375
2081.11938	6510.8375
2084.12426	6495.7375
2087.12722	6489.7375
2090.12824	6498.5375
2093.12732	6504.0375
2096.12447	6499.6375
2099.11969	6491.6375
2102.11299	6488.1375
2105.10435	6502.7375
2108.09379	6513.1375
2111.08131	6519.9375
2114.0669	6507.4375
2117.05057	6515.9375
2120.03233	6531.9375
2123.01216	6523.6375
2125.99008	6546.7375
2128.96609	6545.9375
2131.94018	6548.7375
2134.91236	6552.6375
2137.88263	6553.1375
2140.851	6549.0375
2143.81746	6574.2375
2146.78201	6552.8375
2149.74466	6547.9375
2152.7054	6536.5375
2155.66425	6559.4375
2158.6212	6543.7375
2161.57625	6547.6375
2164.52941	6561.3375
2167.48067	6532.4375
2170.43004	6560.4375
2173.37752	6542.8375
2176.32311	6554.9375
2179.26681	6544.9375
2182.20863	6530.4375
2185.14856	6542.7375
2188.08661	6567.7375
2191.02278	6550.3375
2193.95707	6527.8375
2196.88948	6548.3375
2199.82001	6527.1375
2202.74867	6525.9375
2205.67545	6505.4375
2208.60037	6480.4375
2211.52341	6472.0375
2214.44458	6473.7375
2217.36388	6448.3375
2220.28132	6447.6375
2223.1969	6443.6375
2226.11061	6422.4375
2229.02246	6403.6375
2231.93245	6409.7375
2234.84058	6384.1375
2237.74686	6388.2375
2240.65128	6380.8375
2243.55385	6377.5375
2246.45456	6360.3375
2249.35343	6359.3375
2252.25044	6355.5375
2255.14561	6339.0375
2258.03893	6316.0375
2260.93041	6316.0375
2263.82004	6291.0375
2266.70783	6286.6375
2269.59378	6276.0375
2272.4779	6239.0375
2275.36017	6235.3375
2278.24061	6227.2375
2281.11922	6231.4375
2283.996	6215.6375
2286.87094	6209.0375
2289.74405	6199.8375
2292.61534	6188.9375
2295.4848	6176.5375
2298.35243	6172.0375
2301.21824	6176.4375
2304.08223	6172.3375
2306.94439	6157.4375
2309.80474	6166.5375
2312.66327	6137.6375
2315.51999	6145.7375
2318.37489	6149.4375
2321.22797	6140.3375
2324.07925	6135.2375
2326.92871	6119.1375
2329.77637	6131.5375
2332.62222	6110.0375
2335.46626	6087.2375
2338.3085	6079.2375
2341.14893	6085.5375
2343.98756	6062.7375
2346.8244	6069.2375
2349.65943	6049.4375
2352.49267	6064.8375
2355.32411	6056.9375
2358.15376	6042.6375
2360.98161	6032.3375
2363.80768	6042.7375
2366.63195	6040.3375
2369.45444	6045.3375
2372.27514	6042.0375
2375.09405	6022.8375
2377.91118	6010.5375
2380.72652	6010.5375
2383.54009	5978.2375
2386.35187	5980.5375
2389.16188	5956.5375
2391.97011	5933.6375
2394.77657	5939.2375
2397.58125	5921.5375
2400.38416	5920.6375
2403.18529	5900.4375
2405.98466	5912.7375
2408.78226	5899.9375
2411.57809	5883.2375
2414.37216	5878.0375
2417.16446	5876.0375
2419.955	5851.3375
2422.74378	5855.5375
2425.5308	5874.0375
2428.31606	5870.8375
2431.09956	5858.0375
2433.88131	5845.7375
2436.6613	5843.9375
2439.43954	5827.9375
2442.21603	5833.9375
2444.99077	5830.5375
2447.76377	5834.2375
2450.53501	5821.3375
2453.30451	5803.7375
2456.07226	5808.9375
2458.83827	5808.8375
2461.60254	5786.8375
2464.36507	5795.8375
2467.12586	5788.5375
2469.88492	5788.8375
2472.64224	5789.3375
2475.39782	5777.3375
2478.15167	5763.4375
2480.90379	5772.7375
2483.65417	5766.7375
2486.40283	5771.8375
2489.14976	5781.2375
2491.89497	5760.0375
2494.63845	5781.4375
2497.3802	5753.9375
2500.12024	5754.9375
2502.85855	5738.0375
2505.59514	5734.3375
2508.33002	5745.3375
2511.06318	5715.7375
2513.79462	5726.7375
2516.52435	5693.5375
2519.25237	5715.1375
2521.97867	5699.0375
2524.70327	5708.5375
2527.42616	5677.4375
2530.14734	5671.9375
2532.86681	5668.9375
2535.58458	5645.4375
2538.30065	5634.9375
2541.01501	5627.0375
2543.72768	5624.5375
2546.43864	5636.5375
2549.14791	5619.8375
2551.85548	5624.9375
2554.56136	5596.9375
2557.26554	5595.8375
2559.96803	5585.2375
2562.66883	5589.5375
2565.36794	5578.1375
2568.06536	5587.4375
2570.7611	5578.9375
2573.45514	5542.9375
2576.14751	5556.2375
2578.83819	5524.9375
2581.52719	5511.0375
2584.21451	5496.9375
2586.90015	5499.8375
2589.58411	5495.2375
2592.2664	5491.5375
2594.94701	5480.3375
2597.62594	5469.8375
2600.30321	5476.4375
2602.9788	5445.6375
2605.65273	5449.8375
2608.32498	5457.0375
2610.99557	5446.6375
2613.66449	5433.9375
2616.33175	5407.4375
2618.99734	5428.5375
2621.66128	5421.3375
2624.32355	5415.4375
2626.98416	5411.7375
2629.64311	5383.6375
2632.30041	5406.5375
2634.95605	5374.5375
2637.61004	5359.2375
2640.26238	5369.2375
2642.91306	5347.0375
2645.56209	5353.2375
2648.20948	5346.2375
2650.85521	5349.0375
2653.4993	5364.0375
2656.14175	5353.4375
2658.78255	5363.4375
2661.42171	5358.0375
2664.05923	5351.4375
2666.6951	5374.2375
2669.32934	5360.3375
2671.96194	5354.5375
2674.59291	5355.1375
2677.22224	5345.1375
2679.84993	5343.3375
2682.476	5356.3375
2685.10043	5340.0375
2687.72324	5351.1375
2690.34441	5355.8375
2692.96396	5332.0375
2695.58188	5331.2375
2698.19818	5349.3375
2700.81285	5360.2375
2703.4259	5325.1375
2706.03733	5345.1375
2708.64714	5312.6375
2711.25533	5347.0375
2713.86191	5347.4375
2716.46687	5358.1375
2719.07021	5337.5375
2721.67194	5357.8375
2724.27206	5339.4375
2726.87057	5345.8375
2729.46747	5358.9375
2732.06276	5349.9375
2734.65644	5331.4375
2737.24852	5349.7375
2739.83899	5346.1375
2742.42786	5335.7375
2745.01513	5318.1375
2747.60079	5319.3375
2750.18486	5296.1375
2752.76733	5306.2375
2755.3482	5293.9375
2757.92747	5303.9375
2760.50515	5291.3375
2763.08123	5299.5375
2765.65573	5281.3375
2768.22863	5296.8375
2770.79994	5254.2375
2773.36967	5253.0375
2775.9378	5269.9375
2778.50435	5258.4375
2781.06932	5258.3375
2783.6327	5238.4375
2786.1945	5228.6375
2788.75471	5243.0375
2791.31335	5211.1375
2793.87041	5205.2375
2796.42589	5187.4375
2798.97979	5223.9375
2801.53212	5191.7375
2804.08288	5199.4375
2806.63206	5172.7375
2809.17967	5156.2375
2811.72571	5143.6375
2814.27018	5143.4375
2816.81308	5148.5375
2819.35442	5137.9375
2821.89419	5115.7375
2824.43239	5118.6375
2826.96904	5110.9375
2829.50412	5127.0375
2832.03763	5123.3375
2834.56959	5115.1375
2837.1	5128.2375
2839.62884	5121.1375
2842.15613	5135.7375
2844.68186	5152.4375
2847.20604	5181.0375
2849.72867	5197.1375
2852.24974	5186.7375
2854.76927	5178.7375
2857.28724	5178.4375
2859.80367	5180.7375
2862.31855	5162.4375
2864.83189	5177.8375
2867.34368	5140.7375
2869.85393	5150.5375
2872.36264	5129.7375
2874.8698	5149.8375
2877.37543	5148.8375
2879.87952	5138.9375
2882.38207	5136.1375
2884.88308	5129.3375
2887.38256	5132.6375
2889.88051	5116.9375
2892.37692	5113.9375
2894.8718	5133.6375
2897.36515	5147.7375
2899.85698	5138.9375
2902.34727	5152.9375
2904.83604	5154.3375
2907.32328	5150.9375
2909.809	5140.1375
2912.29319	5156.0375
2914.77587	5154.8375
2917.25702	5152.4375
2919.73665	5156.6375
2922.21476	5160.4375
2924.69136	5158.8375
2927.16644	5156.7375
2929.64	5156.5375
2932.11205	5147.8375
2934.58258	5127.1375
2937.05161	5148.2375
2939.51912	5153.6375
2941.98513	5135.0375
2944.44962	5113.2375
2946.91261	5086.4375
2949.37409	5094.4375
2951.83407	5078.4375
2954.29254	5094.4375
2956.74951	5076.2375
2959.20498	5070.8375
2961.65895	5059.0375
2964.11142	5060.8375
2966.56239	5041.7375
2969.01186	5021.1375
2971.45984	5001.6375
2973.90632	5015.2375
2976.35131	5009.0375
2978.7948	4966.5375
2981.23681	4972.9375
2983.67732	4973.6375
2986.11635	4947.2375
2988.55388	4928.4375
2990.98993	4925.9375
2993.4245	4920.7375
2995.85758	4915.5375
2998.28917	4910.7375
3000.71928	4888.4375
3003.14791	4876.1375
3005.57506	4880.6375
3008.00073	4869.9375
3010.42493	4856.4375
3012.84764	4862.4375
3015.26888	4876.2375
3017.68865	4865.9375
3020.10694	4862.2375
3022.52376	4832.8375
3024.9391	4826.0375
3027.35298	4830.8375
3029.76539	4817.8375
3032.17632	4799.4375
3034.5858	4784.3375
3036.9938	4793.8375
3039.40034	4807.3375
3041.80542	4813.3375
3044.20903	4792.9375
3046.61118	4790.8375
3049.01187	4786.6375
3051.4111	4775.0375
3053.80888	4764.2375
3056.20519	4772.5375
3058.60005	4769.5375
3060.99345	4741.2375
3063.3854	4729.6375
3065.7759	4718.0375
3068.16494	4732.1375
3070.55254	4709.7375
3072.93868	4713.5375
3075.32338	4698.5375
3077.70662	4708.7375
3080.08842	4688.7375
3082.46878	4685.0375
3084.84769	4686.1375
3087.22515	4688.5375
3089.60118	4695.4375
3091.97576	4695.0375
3094.3489	4699.9375
3096.72061	4706.4375
3099.09087	4696.7375
3101.4597	4697.8375
3103.82709	4697.2375
3106.19305	4695.4375
3108.55757	4708.6375
3110.92066	4701.6375
3113.28232	4688.7375
3115.64255	4681.2375
3118.00134	4681.8375
3120.35871	4671.8375
3122.71466	4666.6375
3125.06917	4663.4375
3127.42226	4652.7375
3129.77393	4679.0375
3132.12417	4661.2375
3134.47299	4665.4375
3136.82039	4673.7375
3139.16636	4679.6375
3141.51092	4667.0375
3143.85406	4674.8375
3146.19579	4695.4375
3148.53609	4706.5375
3150.87499	4705.7375
3153.21246	4718.9375
3155.54853	4711.3375
3157.88318	4729.1375
3160.21642	4730.7375
3162.54826	4742.9375
3164.87868	4725.0375
3167.2077	4729.6375
3169.5353	4745.3375
3171.86151	4724.0375
3174.18631	4748.0375
3176.5097	4738.2375
3178.83169	4747.2375
3181.15228	4741.4375
3183.47147	4726.2375
3185.78926	4723.8375
3188.10565	4735.8375
3190.42065	4734.8375
3192.73424	4738.5375
3195.04645	4726.5375
3197.35725	4738.0375
3199.66667	4732.8375
3201.97469	4747.9375
3204.28132	4750.7375
3206.58656	4758.2375
3208.8904	4754.3375
3211.19287	4767.7375
3213.49394	4771.6375
3215.79363	4760.9375
3218.09193	4771.7375
3220.38884	4757.5375
3222.68438	4766.3375
3224.97853	4749.8375
3227.2713	4767.0375
3229.56269	4765.6375
3231.8527	4773.3375
3234.14133	4750.7375
3236.42858	4761.1375
3238.71446	4730.9375
3240.99896	4740.9375
3243.28209	4749.3375
3245.56384	4729.8375
3247.84423	4733.1375
3250.12324	4728.4375
3252.40088	4710.9375
3254.67715	4714.5375
3256.95205	4728.4375
3259.22558	4721.6375
3261.49775	4724.5375
3263.76855	4709.7375
3266.03799	4675.6375
3268.30606	4693.3375
3270.57277	4692.5375
3272.83812	4654.1375
3275.10211	4659.6375
3277.36474	4655.4375
3279.62601	4654.7375
3281.88593	4637.1375
3284.14448	4649.8375
3286.40168	4662.6375
3288.65753	4654.1375
3290.91202	4656.0375
3293.16516	4640.8375
3295.41695	4632.2375
3297.66738	4593.7375
3299.91647	4587.8375
3302.16421	4550.1375
3304.4106	4542.5375
3306.65564	4504.0375
3308.89933	4488.3375
3311.14169	4471.7375
3313.38269	4426.7375
3315.62236	4393.0375
3317.86068	4371.8375
3320.09766	4345.4375
3322.3333	4313.6375
3324.5676	4309.7375
3326.80056	4222.6375
3329.03219	4192.9375
3331.26248	1.8375
3333.49143	-0.1625
3335.71905	-0.9625
