Data from AgNPs_FTO_APTES_UA_1uM_CRN_10uM_R6G_50uM_NaF_0.1M_Addition_RamanShift__8__15-50-19-728.txt Node

Date: Thu Jan 27 15:50:19 GMT 2022
User: TCL
Spectrometer: QEP01345
Trigger mode: 4
Integration Time (sec): 7.000000E0
Scans to average: 10
Electric dark correction enabled: true
Nonlinearity correction enabled: false
Boxcar width: 0
XAxis mode: Raman Shifts
Number of Pixels in Spectrum: 1044
>>>>>Begin Spectral Data<<<<<
46.04893	1.9375
50.45542	0.7375
54.85868	-0.8625
59.25871	-1.1625
63.6555	47.2375
68.04907	49.1375
72.43941	52.8375
76.82654	57.0375
81.21044	55.3375
85.59113	56.1375
89.96862	62.4375
94.34289	61.0375
98.71396	67.1375
103.08183	63.7375
107.4465	70.0375
111.80798	71.7375
116.16626	68.8375
120.52136	76.0375
124.87327	75.3375
129.222	75.0375
133.56755	78.9375
137.90993	88.1375
142.24913	91.4375
146.58517	107.2375
150.91804	118.9375
155.24774	136.9375
159.57429	164.2375
163.89768	209.5375
168.21792	279.0375
172.53501	374.2375
176.84895	519.5375
181.15975	726.3375
185.46741	1009.7375
189.77193	1399.8375
194.07331	1869.5375
198.37157	2416.7375
202.6667	2996.0375
206.9587	3554.3375
211.24758	4100.6375
215.53334	4652.8375
219.81599	5225.9375
224.09553	5865.1375
228.37195	6549.3375
232.64527	7319.0375
236.91549	8123.2375
241.18261	8941.9375
245.44663	9703.9375
249.70755	10455.3375
253.96539	11086.9375
258.22014	11632.3375
262.4718	12047.8375
266.72039	12325.9375
270.96589	12529.1375
275.20832	12586.5375
279.44768	12527.2375
283.68397	12424.3375
287.91719	12348.8375
292.14735	12256.2375
296.37445	12228.5375
300.59849	12240.1375
304.81948	12247.8375
309.03742	12244.5375
313.25231	12170.9375
317.46415	11984.2375
321.67296	11757.9375
325.87872	11573.3375
330.08145	11442.7375
334.28114	11425.2375
338.47781	11516.4375
342.67145	11624.6375
346.86207	11776.4375
351.04966	11953.5375
355.23424	12144.0375
359.4158	12272.5375
363.59435	12436.1375
367.76989	12508.8375
371.94243	12598.1375
376.11196	12645.3375
380.27849	12683.4375
384.44203	12734.7375
388.60257	12841.1375
392.76012	12966.6375
396.91468	13088.4375
401.06626	13272.9375
405.21485	13371.1375
409.36047	13370.2375
413.50311	13238.3375
417.64277	13185.0375
421.77947	13222.2375
425.9132	13271.1375
430.04396	13362.4375
434.17176	13431.5375
438.2966	13489.0375
442.41849	13633.7375
446.53742	13865.5375
450.6534	14139.7375
454.76644	14357.9375
458.87653	14447.0375
462.98368	14412.2375
467.08789	14351.3375
471.18916	14254.9375
475.2875	14109.9375
479.38291	14062.9375
483.4754	13977.6375
487.56496	13865.2375
491.6516	13700.7375
495.73531	13529.5375
499.81612	13481.1375
503.89401	13502.2375
507.96899	13564.3375
512.04106	13600.4375
516.11023	13498.3375
520.1765	13371.7375
524.23987	13267.1375
528.30034	13166.5375
532.35792	13043.6375
536.41261	12959.5375
540.46441	12874.5375
544.51333	12873.7375
548.55936	12978.5375
552.60252	13199.1375
556.64279	13445.1375
560.6802	13613.7375
564.71473	13699.4375
568.7464	13902.9375
572.7752	14169.5375
576.80114	14561.7375
580.82422	14924.9375
584.84444	15288.8375
588.86181	15727.1375
592.87633	16085.4375
596.888	15991.2375
600.89682	15541.8375
604.9028	15315.3375
608.90594	15800.5375
612.90624	16450.2375
616.90371	15693.3375
620.89834	13958.4375
624.89015	13182.5375
628.87913	13102.9375
632.86528	13192.7375
636.84862	13241.0375
640.82913	13096.8375
644.80683	12887.2375
648.78172	12744.3375
652.75379	12718.2375
656.72306	12805.5375
660.68952	12898.7375
664.65319	12877.4375
668.61405	12733.8375
672.57211	12741.4375
676.52738	12761.1375
680.47986	12774.8375
684.42955	12705.7375
688.37646	12663.5375
692.32058	12704.0375
696.26192	12807.7375
700.20048	12942.7375
704.13626	13031.3375
708.06928	13072.6375
711.99952	13031.9375
715.927	13009.0375
719.85171	13018.5375
723.77365	12966.1375
727.69284	12838.2375
731.60928	12732.4375
735.52295	12631.4375
739.43388	12633.8375
743.34206	12620.3375
747.24749	12696.3375
751.15017	12794.3375
755.05012	12997.6375
758.94733	13264.7375
762.8418	13715.4375
766.73354	14360.5375
770.62254	14957.6375
774.50882	15055.9375
778.39237	14546.1375
782.27321	13847.0375
786.15132	13290.7375
790.02671	12895.4375
793.89938	12714.3375
797.76935	12623.6375
801.6366	12568.0375
805.50115	12544.8375
809.36299	12496.6375
813.22213	12446.4375
817.07857	12396.2375
820.93231	12387.5375
824.78336	12337.6375
828.63172	12296.7375
832.47738	12266.0375
836.32036	12241.1375
840.16066	12237.7375
843.99827	12222.0375
847.8332	12227.5375
851.66546	12222.0375
855.49504	12245.2375
859.32195	12243.4375
863.1462	12215.3375
866.96777	12239.0375
870.78668	12196.5375
874.60293	12193.5375
878.41652	12193.1375
882.22745	12207.7375
886.03573	12239.0375
889.84136	12271.6375
893.64433	12223.5375
897.44466	12171.5375
901.24235	12147.3375
905.0374	12116.6375
908.8298	12107.8375
912.61957	12100.9375
916.40671	12198.2375
920.19121	12316.8375
923.97308	12438.7375
927.75233	12395.8375
931.52895	12289.9375
935.30295	12129.2375
939.07433	11958.3375
942.84309	11841.2375
946.60924	11794.3375
950.37278	11753.0375
954.13371	11746.1375
957.89203	11777.7375
961.64774	11746.0375
965.40086	11729.8375
969.15137	11706.1375
972.89929	11638.2375
976.64461	11594.4375
980.38733	11595.3375
984.12747	11599.6375
987.86502	11624.7375
991.59999	11645.6375
995.33237	11750.4375
999.06217	11847.5375
1002.78939	12010.7375
1006.51404	12121.8375
1010.23611	12303.3375
1013.95561	12398.1375
1017.67255	12425.7375
1021.38692	12375.6375
1025.09872	12224.3375
1028.80796	12118.1375
1032.51465	12093.5375
1036.21877	12133.5375
1039.92035	12179.9375
1043.61937	12208.3375
1047.31584	12208.6375
1051.00976	12211.5375
1054.70114	12203.5375
1058.38998	12285.3375
1062.07627	12395.9375
1065.76003	12509.7375
1069.44126	12673.1375
1073.11995	12840.5375
1076.79611	12952.4375
1080.46974	12984.3375
1084.14085	13023.6375
1087.80943	13085.1375
1091.47549	13139.3375
1095.13903	13212.6375
1098.80005	13090.3375
1102.45857	12867.2375
1106.11456	12632.8375
1109.76805	12519.1375
1113.41903	12515.5375
1117.06751	12542.2375
1120.71348	12619.2375
1124.35696	12732.4375
1127.99793	12810.5375
1131.63641	12912.7375
1135.2724	12902.3375
1138.90589	12834.2375
1142.5369	12866.3375
1146.16542	12940.5375
1149.79145	13016.1375
1153.415	13091.0375
1157.03607	13221.7375
1160.65467	13508.3375
1164.27079	13955.2375
1167.88443	14534.5375
1171.49561	15100.8375
1175.10432	15774.9375
1178.71056	16631.0375
1182.31434	17407.6375
1185.91565	17828.0375
1189.51451	17869.8375
1193.11091	17633.1375
1196.70485	17266.6375
1200.29634	16768.4375
1203.88538	16410.4375
1207.47197	16195.6375
1211.05612	16064.8375
1214.63782	15819.5375
1218.21708	15439.1375
1221.79391	15030.2375
1225.36829	14708.2375
1228.94024	14513.3375
1232.50976	14383.8375
1236.07685	14289.4375
1239.6415	14189.2375
1243.20374	14207.0375
1246.76355	14294.3375
1250.32093	14429.1375
1253.8759	14641.1375
1257.42845	14957.3375
1260.97859	15243.8375
1264.52631	15595.1375
1268.07163	15895.5375
1271.61453	16186.1375
1275.15503	16525.3375
1278.69312	16901.6375
1282.22882	17300.0375
1285.76211	17789.3375
1289.29301	18338.3375
1292.82151	19070.5375
1296.34761	19936.6375
1299.87133	20909.2375
1303.39266	21837.8375
1306.9116	22576.9375
1310.42815	23165.1375
1313.94233	23391.7375
1317.45412	23288.2375
1320.96354	23024.2375
1324.47058	22836.6375
1327.97525	22757.3375
1331.47754	22626.7375
1334.97747	22622.2375
1338.47502	22496.8375
1341.97022	22403.5375
1345.46305	22244.2375
1348.95352	22050.8375
1352.44163	21947.2375
1355.92738	22067.7375
1359.41078	22499.3375
1362.89183	22861.4375
1366.37053	22604.8375
1369.84688	21292.0375
1373.32088	19531.0375
1376.79254	18172.7375
1380.26186	17660.0375
1383.72883	17690.5375
1387.19347	17720.1375
1390.65578	17624.0375
1394.11575	17510.0375
1397.57339	17581.7375
1401.0287	17773.7375
1404.48168	17959.4375
1407.93234	17882.0375
1411.38068	17565.9375
1414.82669	17047.7375
1418.27039	16420.5375
1421.71177	15805.5375
1425.15083	15400.7375
1428.58758	15171.5375
1432.02203	15240.8375
1435.45416	15506.7375
1438.88399	15906.0375
1442.31151	16209.1375
1445.73673	16394.9375
1449.15965	16546.2375
1452.58027	16588.9375
1455.9986	16610.5375
1459.41463	16654.9375
1462.82837	16804.6375
1466.23982	17064.0375
1469.64898	17290.4375
1473.05586	17445.2375
1476.46045	17455.0375
1479.86276	17394.9375
1483.26279	17262.5375
1486.66054	17176.5375
1490.05602	17239.2375
1493.44922	17408.5375
1496.84016	17654.1375
1500.22882	17967.1375
1503.61521	18365.1375
1506.99934	18849.3375
1510.38121	19205.3375
1513.76081	19266.7375
1517.13816	19017.7375
1520.51324	18645.8375
1523.88607	18381.4375
1527.25665	18315.1375
1530.62498	18294.9375
1533.99105	18212.6375
1537.35488	18048.9375
1540.71647	17681.0375
1544.07581	17204.0375
1547.4329	16746.9375
1550.78776	16371.9375
1554.14038	16111.8375
1557.49077	15994.9375
1560.83892	15893.0375
1564.18484	15875.4375
1567.52853	15891.7375
1570.86999	16044.5375
1574.20922	16274.4375
1577.54624	16575.6375
1580.88103	16671.8375
1584.2136	16760.4375
1587.54395	17109.9375
1590.87208	17724.0375
1594.19801	18493.4375
1597.52172	19174.6375
1600.84321	19307.9375
1604.16251	18632.2375
1607.47959	17462.8375
1610.79447	16289.7375
1614.10715	15186.1375
1617.41763	14254.4375
1620.7259	13599.2375
1624.03199	13226.4375
1627.33587	13207.0375
1630.63757	13431.2375
1633.93707	14053.7375
1637.23439	15132.4375
1640.52951	16711.8375
1643.82246	18679.8375
1647.11321	20321.3375
1650.40179	20733.1375
1653.68819	19584.3375
1656.97241	17389.5375
1660.25446	15208.6375
1663.53433	13581.2375
1666.81203	12483.1375
1670.08756	11816.4375
1673.36092	11386.6375
1676.63211	11146.1375
1679.90115	10935.1375
1683.16801	10788.5375
1686.43272	10663.1375
1689.69527	10555.2375
1692.95567	10485.8375
1696.2139	10398.6375
1699.46999	10345.4375
1702.72392	10296.2375
1705.97571	10308.9375
1709.22535	10301.1375
1712.47284	10304.6375
1715.71819	10288.5375
1718.96139	10285.6375
1722.20246	10258.6375
1725.44139	10218.8375
1728.67818	10200.3375
1731.91284	10122.7375
1735.14537	10098.5375
1738.37576	10045.3375
1741.60403	9974.5375
1744.83017	9979.5375
1748.05418	9939.4375
1751.27607	9920.0375
1754.49584	9862.4375
1757.71349	9855.8375
1760.92903	9849.9375
1764.14244	9813.4375
1767.35375	9803.6375
1770.56294	9792.8375
1773.77002	9807.1375
1776.97499	9796.7375
1780.17785	9795.8375
1783.37861	9774.1375
1786.57727	9776.6375
1789.77382	9753.2375
1792.96828	9719.3375
1796.16064	9727.1375
1799.3509	9684.4375
1802.53907	9687.4375
1805.72514	9652.6375
1808.90913	9630.3375
1812.09102	9608.2375
1815.27083	9575.7375
1818.44856	9587.4375
1821.6242	9536.5375
1824.79776	9548.0375
1827.96924	9539.1375
1831.13864	9516.2375
1834.30597	9536.2375
1837.47122	9525.5375
1840.6344	9515.2375
1843.7955	9490.9375
1846.95454	9490.1375
1850.11151	9480.7375
1853.26642	9480.0375
1856.41926	9489.1375
1859.57004	9479.3375
1862.71876	9465.1375
1865.86542	9456.6375
1869.01003	9428.8375
1872.15258	9425.7375
1875.29308	9421.9375
1878.43152	9382.0375
1881.56792	9394.4375
1884.70227	9323.8375
1887.83457	9351.6375
1890.96482	9330.6375
1894.09304	9329.4375
1897.21921	9309.0375
1900.34335	9287.3375
1903.46544	9280.3375
1906.58551	9257.1375
1909.70353	9262.7375
1912.81953	9235.8375
1915.93349	9220.5375
1919.04543	9211.5375
1922.15534	9195.6375
1925.26322	9186.6375
1928.36908	9165.2375
1931.47292	9135.2375
1934.57473	9113.8375
1937.67453	9112.8375
1940.77232	9080.0375
1943.86808	9045.6375
1946.96184	9007.4375
1950.05358	9002.5375
1953.14331	8960.8375
1956.23103	8948.6375
1959.31675	8917.8375
1962.40046	8890.8375
1965.48217	8888.2375
1968.56188	8857.9375
1971.63959	8830.8375
1974.7153	8788.3375
1977.78901	8763.9375
1980.86073	8752.6375
1983.93046	8714.4375
1986.99819	8688.7375
1990.06394	8667.9375
1993.1277	8663.5375
1996.18947	8596.6375
1999.24925	8592.1375
2002.30706	8533.3375
2005.36288	8520.7375
2008.41672	8509.9375
2011.46859	8486.6375
2014.51848	8445.6375
2017.56639	8436.3375
2020.61233	8415.2375
2023.6563	8395.8375
2026.6983	8370.9375
2029.73833	8358.8375
2032.7764	8335.8375
2035.8125	8313.6375
2038.84664	8310.7375
2041.87881	8261.3375
2044.90903	8259.5375
2047.93729	8213.8375
2050.96359	8233.9375
2053.98794	8217.4375
2057.01034	8202.7375
2060.03078	8212.4375
2063.04927	8202.0375
2066.06582	8216.0375
2069.08042	8189.3375
2072.09307	8174.7375
2075.10378	8168.2375
2078.11255	8183.2375
2081.11938	8172.4375
2084.12426	8169.5375
2087.12722	8160.0375
2090.12824	8167.8375
2093.12732	8148.2375
2096.12447	8144.1375
2099.11969	8141.2375
2102.11299	8156.4375
2105.10435	8138.9375
2108.09379	8156.9375
2111.08131	8144.6375
2114.0669	8177.7375
2117.05057	8178.3375
2120.03233	8156.9375
2123.01216	8164.9375
2125.99008	8195.3375
2128.96609	8199.5375
2131.94018	8193.9375
2134.91236	8197.4375
2137.88263	8187.7375
2140.851	8193.9375
2143.81746	8194.1375
2146.78201	8194.7375
2149.74466	8187.7375
2152.7054	8214.4375
2155.66425	8180.1375
2158.6212	8193.0375
2161.57625	8164.0375
2164.52941	8195.7375
2167.48067	8165.5375
2170.43004	8177.1375
2173.37752	8165.1375
2176.32311	8169.8375
2179.26681	8186.6375
2182.20863	8170.4375
2185.14856	8161.3375
2188.08661	8158.1375
2191.02278	8160.2375
2193.95707	8159.0375
2196.88948	8154.1375
2199.82001	8151.5375
2202.74867	8146.8375
2205.67545	8131.8375
2208.60037	8107.8375
2211.52341	8098.7375
2214.44458	8076.0375
2217.36388	8068.3375
2220.28132	8061.6375
2223.1969	8027.3375
2226.11061	8018.2375
2229.02246	8001.7375
2231.93245	8017.0375
2234.84058	7966.0375
2237.74686	7974.6375
2240.65128	7975.0375
2243.55385	7948.2375
2246.45456	7917.8375
2249.35343	7907.8375
2252.25044	7894.0375
2255.14561	7889.2375
2258.03893	7874.5375
2260.93041	7838.9375
2263.82004	7840.1375
2266.70783	7821.0375
2269.59378	7786.2375
2272.4779	7789.2375
2275.36017	7764.3375
2278.24061	7760.8375
2281.11922	7737.3375
2283.996	7751.5375
2286.87094	7699.7375
2289.74405	7677.4375
2292.61534	7666.1375
2295.4848	7669.9375
2298.35243	7673.3375
2301.21824	7672.2375
2304.08223	7671.9375
2306.94439	7677.1375
2309.80474	7654.4375
2312.66327	7656.7375
2315.51999	7649.6375
2318.37489	7637.1375
2321.22797	7616.5375
2324.07925	7599.3375
2326.92871	7586.0375
2329.77637	7568.4375
2332.62222	7569.3375
2335.46626	7559.1375
2338.3085	7523.4375
2341.14893	7523.6375
2343.98756	7557.9375
2346.8244	7528.5375
2349.65943	7528.8375
2352.49267	7517.3375
2355.32411	7517.2375
2358.15376	7506.3375
2360.98161	7505.3375
2363.80768	7500.4375
2366.63195	7491.0375
2369.45444	7490.4375
2372.27514	7463.6375
2375.09405	7469.2375
2377.91118	7467.0375
2380.72652	7453.5375
2383.54009	7413.5375
2386.35187	7411.2375
2389.16188	7377.8375
2391.97011	7367.8375
2394.77657	7382.3375
2397.58125	7353.6375
2400.38416	7336.8375
2403.18529	7323.5375
2405.98466	7325.5375
2408.78226	7315.3375
2411.57809	7290.7375
2414.37216	7278.4375
2417.16446	7258.0375
2419.955	7283.6375
2422.74378	7265.5375
2425.5308	7291.2375
2428.31606	7244.4375
2431.09956	7262.4375
2433.88131	7240.0375
2436.6613	7247.7375
2439.43954	7240.1375
2442.21603	7230.1375
2444.99077	7233.9375
2447.76377	7222.3375
2450.53501	7234.1375
2453.30451	7223.3375
2456.07226	7208.6375
2458.83827	7177.0375
2461.60254	7177.7375
2464.36507	7186.3375
2467.12586	7177.9375
2469.88492	7173.1375
2472.64224	7171.3375
2475.39782	7162.5375
2478.15167	7157.2375
2480.90379	7138.5375
2483.65417	7152.6375
2486.40283	7155.8375
2489.14976	7159.8375
2491.89497	7146.7375
2494.63845	7138.5375
2497.3802	7130.7375
2500.12024	7129.3375
2502.85855	7131.0375
2505.59514	7119.6375
2508.33002	7119.2375
2511.06318	7104.3375
2513.79462	7111.9375
2516.52435	7094.5375
2519.25237	7082.2375
2521.97867	7082.1375
2524.70327	7079.0375
2527.42616	7063.6375
2530.14734	7066.5375
2532.86681	7048.4375
2535.58458	7037.2375
2538.30065	7016.8375
2541.01501	7022.3375
2543.72768	7020.1375
2546.43864	7020.6375
2549.14791	7008.0375
2551.85548	6998.2375
2554.56136	6973.8375
2557.26554	6950.4375
2559.96803	6954.7375
2562.66883	6961.1375
2565.36794	6935.2375
2568.06536	6931.8375
2570.7611	6919.1375
2573.45514	6883.0375
2576.14751	6894.6375
2578.83819	6900.1375
2581.52719	6897.1375
2584.21451	6850.3375
2586.90015	6855.5375
2589.58411	6850.5375
2592.2664	6849.8375
2594.94701	6845.8375
2597.62594	6845.6375
2600.30321	6825.6375
2602.9788	6812.9375
2605.65273	6814.7375
2608.32498	6797.6375
2610.99557	6799.4375
2613.66449	6799.2375
2616.33175	6793.7375
2618.99734	6802.6375
2621.66128	6776.0375
2624.32355	6750.4375
2626.98416	6769.9375
2629.64311	6769.2375
2632.30041	6765.3375
2634.95605	6748.9375
2637.61004	6722.6375
2640.26238	6716.2375
2642.91306	6723.8375
2645.56209	6722.9375
2648.20948	6717.5375
2650.85521	6714.4375
2653.4993	6717.6375
2656.14175	6702.2375
2658.78255	6716.9375
2661.42171	6724.9375
2664.05923	6742.1375
2666.6951	6734.6375
2669.32934	6730.1375
2671.96194	6709.9375
2674.59291	6721.8375
2677.22224	6702.4375
2679.84993	6698.5375
2682.476	6694.5375
2685.10043	6710.6375
2687.72324	6690.0375
2690.34441	6696.5375
2692.96396	6682.5375
2695.58188	6710.3375
2698.19818	6701.1375
2700.81285	6707.3375
2703.4259	6706.7375
2706.03733	6684.1375
2708.64714	6678.9375
2711.25533	6696.9375
2713.86191	6689.9375
2716.46687	6703.2375
2719.07021	6685.2375
2721.67194	6690.2375
2724.27206	6709.9375
2726.87057	6716.6375
2729.46747	6734.7375
2732.06276	6700.1375
2734.65644	6697.8375
2737.24852	6705.4375
2739.83899	6703.9375
2742.42786	6707.2375
2745.01513	6680.1375
2747.60079	6694.3375
2750.18486	6685.9375
2752.76733	6670.6375
2755.3482	6676.8375
2757.92747	6668.3375
2760.50515	6658.7375
2763.08123	6642.5375
2765.65573	6643.4375
2768.22863	6643.9375
2770.79994	6637.0375
2773.36967	6626.2375
2775.9378	6620.2375
2778.50435	6623.9375
2781.06932	6607.3375
2783.6327	6601.9375
2786.1945	6593.7375
2788.75471	6586.1375
2791.31335	6587.8375
2793.87041	6563.5375
2796.42589	6563.8375
2798.97979	6542.3375
2801.53212	6531.2375
2804.08288	6547.1375
2806.63206	6527.2375
2809.17967	6505.7375
2811.72571	6491.8375
2814.27018	6479.6375
2816.81308	6462.1375
2819.35442	6450.7375
2821.89419	6444.4375
2824.43239	6445.9375
2826.96904	6419.9375
2829.50412	6428.7375
2832.03763	6412.1375
2834.56959	6410.4375
2837.1	6402.8375
2839.62884	6422.9375
2842.15613	6401.1375
2844.68186	6432.0375
2847.20604	6420.1375
2849.72867	6414.9375
2852.24974	6415.8375
2854.76927	6432.4375
2857.28724	6386.0375
2859.80367	6394.7375
2862.31855	6379.2375
2864.83189	6379.3375
2867.34368	6375.1375
2869.85393	6364.3375
2872.36264	6350.4375
2874.8698	6348.7375
2877.37543	6353.2375
2879.87952	6342.9375
2882.38207	6332.3375
2884.88308	6335.2375
2887.38256	6345.7375
2889.88051	6309.4375
2892.37692	6324.8375
2894.8718	6312.0375
2897.36515	6318.6375
2899.85698	6329.3375
2902.34727	6340.8375
2904.83604	6338.8375
2907.32328	6337.8375
2909.809	6346.9375
2912.29319	6328.3375
2914.77587	6343.1375
2917.25702	6351.5375
2919.73665	6335.1375
2922.21476	6335.1375
2924.69136	6326.1375
2927.16644	6324.5375
2929.64	6325.0375
2932.11205	6331.8375
2934.58258	6309.4375
2937.05161	6312.5375
2939.51912	6313.5375
2941.98513	6274.7375
2944.44962	6273.5375
2946.91261	6246.9375
2949.37409	6268.3375
2951.83407	6260.1375
2954.29254	6264.4375
2956.74951	6248.2375
2959.20498	6245.0375
2961.65895	6244.6375
2964.11142	6232.1375
2966.56239	6224.3375
2969.01186	6218.3375
2971.45984	6206.4375
2973.90632	6214.0375
2976.35131	6206.6375
2978.7948	6195.1375
2981.23681	6166.8375
2983.67732	6172.7375
2986.11635	6135.7375
2988.55388	6131.0375
2990.98993	6120.4375
2993.4245	6128.0375
2995.85758	6119.2375
2998.28917	6095.9375
3000.71928	6077.6375
3003.14791	6058.6375
3005.57506	6062.1375
3008.00073	6051.0375
3010.42493	6034.8375
3012.84764	6047.9375
3015.26888	6023.8375
3017.68865	6029.7375
3020.10694	6001.1375
3022.52376	5974.0375
3024.9391	5974.3375
3027.35298	5969.5375
3029.76539	5970.4375
3032.17632	5962.5375
3034.5858	5947.7375
3036.9938	5966.6375
3039.40034	5958.7375
3041.80542	5949.8375
3044.20903	5939.2375
3046.61118	5934.8375
3049.01187	5922.1375
3051.4111	5913.2375
3053.80888	5902.6375
3056.20519	5919.3375
3058.60005	5878.4375
3060.99345	5876.9375
3063.3854	5840.0375
3065.7759	5841.5375
3068.16494	5838.5375
3070.55254	5810.1375
3072.93868	5819.8375
3075.32338	5800.4375
3077.70662	5808.8375
3080.08842	5786.7375
3082.46878	5767.1375
3084.84769	5775.7375
3087.22515	5772.8375
3089.60118	5759.4375
3091.97576	5765.9375
3094.3489	5777.2375
3096.72061	5755.8375
3099.09087	5776.8375
3101.4597	5753.2375
3103.82709	5762.8375
3106.19305	5747.9375
3108.55757	5749.2375
3110.92066	5736.1375
3113.28232	5722.0375
3115.64255	5722.4375
3118.00134	5715.0375
3120.35871	5693.5375
3122.71466	5712.5375
3125.06917	5689.1375
3127.42226	5679.7375
3129.77393	5681.5375
3132.12417	5677.4375
3134.47299	5666.0375
3136.82039	5675.9375
3139.16636	5664.0375
3141.51092	5667.3375
3143.85406	5684.2375
3146.19579	5669.7375
3148.53609	5677.1375
3150.87499	5721.5375
3153.21246	5698.4375
3155.54853	5728.1375
3157.88318	5701.8375
3160.21642	5694.9375
3162.54826	5714.2375
3164.87868	5719.9375
3167.2077	5701.5375
3169.5353	5711.1375
3171.86151	5695.5375
3174.18631	5697.0375
3176.5097	5717.6375
3178.83169	5690.3375
3181.15228	5693.5375
3183.47147	5694.8375
3185.78926	5689.9375
3188.10565	5697.3375
3190.42065	5662.8375
3192.73424	5654.0375
3195.04645	5670.3375
3197.35725	5682.3375
3199.66667	5674.3375
3201.97469	5670.9375
3204.28132	5658.3375
3206.58656	5691.3375
3208.8904	5669.9375
3211.19287	5686.4375
3213.49394	5696.3375
3215.79363	5692.2375
3218.09193	5708.5375
3220.38884	5683.7375
3222.68438	5667.5375
3224.97853	5668.6375
3227.2713	5672.4375
3229.56269	5663.5375
3231.8527	5681.8375
3234.14133	5654.4375
3236.42858	5629.6375
3238.71446	5652.2375
3240.99896	5626.2375
3243.28209	5634.0375
3245.56384	5634.9375
3247.84423	5620.5375
3250.12324	5629.5375
3252.40088	5596.0375
3254.67715	5589.4375
3256.95205	5587.8375
3259.22558	5592.8375
3261.49775	5583.3375
3263.76855	5566.5375
3266.03799	5540.2375
3268.30606	5546.7375
3270.57277	5547.0375
3272.83812	5524.7375
3275.10211	5511.7375
3277.36474	5501.0375
3279.62601	5509.6375
3281.88593	5496.6375
3284.14448	5517.2375
3286.40168	5508.3375
3288.65753	5516.9375
3290.91202	5513.6375
3293.16516	5491.7375
3295.41695	5476.9375
3297.66738	5431.9375
3299.91647	5415.8375
3302.16421	5373.9375
3304.4106	5342.0375
3306.65564	5330.4375
3308.89933	5293.6375
3311.14169	5275.9375
3313.38269	5206.4375
3315.62236	5179.1375
3317.86068	5132.7375
3320.09766	5100.2375
3322.3333	5067.1375
3324.5676	5055.1375
3326.80056	4963.5375
3329.03219	4929.2375
3331.26248	1.1375
3333.49143	-0.1625
3335.71905	-0.9625
