Data from AgNPs_FTO_APTES_UA_1uM_CRN_1000uM_R6G_10uM_NaF_0.1M_Addition_RamanShift__7__18-41-49-923.txt Node

Date: Thu Jan 27 18:41:49 GMT 2022
User: TCL
Spectrometer: QEP01345
Trigger mode: 4
Integration Time (sec): 7.000000E0
Scans to average: 10
Electric dark correction enabled: true
Nonlinearity correction enabled: false
Boxcar width: 0
XAxis mode: Raman Shifts
Number of Pixels in Spectrum: 1044
>>>>>Begin Spectral Data<<<<<
46.04893	0.7375
50.45542	0.2375
54.85868	-1.3625
59.25871	-0.7625
63.6555	45.0375
68.04907	46.4375
72.43941	49.4375
76.82654	53.4375
81.21044	52.8375
85.59113	55.6375
89.96862	55.1375
94.34289	59.7375
98.71396	62.2375
103.08183	61.4375
107.4465	64.4375
111.80798	67.1375
116.16626	66.9375
120.52136	75.0375
124.87327	72.1375
129.222	70.1375
133.56755	80.3375
137.90993	78.1375
142.24913	86.5375
146.58517	95.6375
150.91804	108.4375
155.24774	126.8375
159.57429	154.7375
163.89768	196.8375
168.21792	251.9375
172.53501	341.7375
176.84895	467.5375
181.15975	665.9375
185.46741	927.8375
189.77193	1279.7375
194.07331	1728.5375
198.37157	2234.3375
202.6667	2765.5375
206.9587	3291.6375
211.24758	3821.5375
215.53334	4349.4375
219.81599	4890.7375
224.09553	5490.3375
228.37195	6139.3375
232.64527	6839.6375
236.91549	7597.4375
241.18261	8360.8375
245.44663	9059.4375
249.70755	9755.7375
253.96539	10294.3375
258.22014	10765.9375
262.4718	11156.2375
266.72039	11383.1375
270.96589	11508.8375
275.20832	11489.2375
279.44768	11376.7375
283.68397	11223.8375
287.91719	11063.0375
292.14735	10936.0375
296.37445	10871.2375
300.59849	10888.1375
304.81948	10923.4375
309.03742	10922.2375
313.25231	10840.0375
317.46415	10662.0375
321.67296	10426.6375
325.87872	10247.4375
330.08145	10166.4375
334.28114	10161.1375
338.47781	10236.1375
342.67145	10348.6375
346.86207	10516.1375
351.04966	10706.8375
355.23424	10890.4375
359.4158	11052.2375
363.59435	11166.3375
367.76989	11292.5375
371.94243	11339.8375
376.11196	11410.7375
380.27849	11461.2375
384.44203	11538.8375
388.60257	11555.7375
392.76012	11634.2375
396.91468	11756.0375
401.06626	11896.8375
405.21485	12016.7375
409.36047	12016.9375
413.50311	11875.0375
417.64277	11732.0375
421.77947	11699.5375
425.9132	11748.4375
430.04396	11807.4375
434.17176	11868.1375
438.2966	11902.7375
442.41849	11975.8375
446.53742	12172.6375
450.6534	12391.3375
454.76644	12486.8375
458.87653	12551.8375
462.98368	12475.2375
467.08789	12393.5375
471.18916	12272.4375
475.2875	12128.3375
479.38291	12019.7375
483.4754	11927.5375
487.56496	11832.5375
491.6516	11737.2375
495.73531	11715.2375
499.81612	11707.1375
503.89401	11805.1375
507.96899	11875.8375
512.04106	11914.1375
516.11023	11889.7375
520.1765	11841.3375
524.23987	11815.8375
528.30034	11717.3375
532.35792	11650.2375
536.41261	11543.7375
540.46441	11407.9375
544.51333	11403.9375
548.55936	11470.7375
552.60252	11610.9375
556.64279	11794.6375
560.6802	11928.5375
564.71473	11968.9375
568.7464	12034.9375
572.7752	12230.2375
576.80114	12357.2375
580.82422	12618.8375
584.84444	13005.1375
588.86181	13456.3375
592.87633	13846.5375
596.888	13803.2375
600.89682	13377.3375
604.9028	13250.3375
608.90594	13932.8375
612.90624	15031.7375
616.90371	14630.4375
620.89834	12656.4375
624.89015	11678.6375
628.87913	11500.7375
632.86528	11584.0375
636.84862	11673.4375
640.82913	11609.9375
644.80683	11484.6375
648.78172	11359.4375
652.75379	11372.2375
656.72306	11442.3375
660.68952	11566.0375
664.65319	11515.3375
668.61405	11392.7375
672.57211	11376.7375
676.52738	11497.1375
680.47986	11586.9375
684.42955	11582.6375
688.37646	11474.3375
692.32058	11376.8375
696.26192	11387.8375
700.20048	11445.5375
704.13626	11499.6375
708.06928	11498.1375
711.99952	11454.9375
715.927	11456.0375
719.85171	11476.3375
723.77365	11455.4375
727.69284	11351.6375
731.60928	11295.0375
735.52295	11254.3375
739.43388	11252.2375
743.34206	11254.5375
747.24749	11318.5375
751.15017	11346.4375
755.05012	11486.2375
758.94733	11685.5375
762.8418	12036.3375
766.73354	12695.4375
770.62254	13463.4375
774.50882	13819.7375
778.39237	13496.2375
782.27321	12712.3375
786.15132	11957.6375
790.02671	11503.1375
793.89938	11282.4375
797.76935	11184.5375
801.6366	11128.3375
805.50115	11110.6375
809.36299	11053.6375
813.22213	10981.9375
817.07857	10947.3375
820.93231	10917.8375
824.78336	10894.3375
828.63172	10878.5375
832.47738	10874.7375
836.32036	10860.7375
840.16066	10872.3375
843.99827	10861.4375
847.8332	10831.3375
851.66546	10830.9375
855.49504	10836.1375
859.32195	10804.3375
863.1462	10831.9375
866.96777	10847.8375
870.78668	10828.9375
874.60293	10838.4375
878.41652	10856.1375
882.22745	10856.0375
886.03573	10897.7375
889.84136	10938.5375
893.64433	10922.1375
897.44466	10873.0375
901.24235	10813.4375
905.0374	10771.7375
908.8298	10713.2375
912.61957	10705.8375
916.40671	10743.3375
920.19121	10827.9375
923.97308	10902.8375
927.75233	10947.9375
931.52895	10926.1375
935.30295	10836.1375
939.07433	10676.9375
942.84309	10511.5375
946.60924	10442.9375
950.37278	10388.3375
954.13371	10377.0375
957.89203	10324.4375
961.64774	10348.0375
965.40086	10297.0375
969.15137	10267.0375
972.89929	10229.8375
976.64461	10184.2375
980.38733	10168.8375
984.12747	10163.5375
987.86502	10172.2375
991.59999	10214.7375
995.33237	10243.9375
999.06217	10316.6375
1002.78939	10436.8375
1006.51404	10524.4375
1010.23611	10653.9375
1013.95561	10777.0375
1017.67255	10848.2375
1021.38692	10798.7375
1025.09872	10677.4375
1028.80796	10560.3375
1032.51465	10453.2375
1036.21877	10492.0375
1039.92035	10515.9375
1043.61937	10531.2375
1047.31584	10601.3375
1051.00976	10643.9375
1054.70114	10704.0375
1058.38998	10689.4375
1062.07627	10769.0375
1065.76003	10886.5375
1069.44126	11002.0375
1073.11995	11144.3375
1076.79611	11256.6375
1080.46974	11275.6375
1084.14085	11242.9375
1087.80943	11212.7375
1091.47549	11240.6375
1095.13903	11258.7375
1098.80005	11173.3375
1102.45857	11007.8375
1106.11456	10853.0375
1109.76805	10766.4375
1113.41903	10756.0375
1117.06751	10832.5375
1120.71348	10961.3375
1124.35696	11116.7375
1127.99793	11308.3375
1131.63641	11441.3375
1135.2724	11307.5375
1138.90589	11123.2375
1142.5369	11052.2375
1146.16542	11012.4375
1149.79145	11007.0375
1153.415	11009.6375
1157.03607	11075.8375
1160.65467	11231.8375
1164.27079	11581.6375
1167.88443	11987.2375
1171.49561	12507.7375
1175.10432	13153.6375
1178.71056	13994.3375
1182.31434	14797.6375
1185.91565	15201.0375
1189.51451	15143.6375
1193.11091	14744.7375
1196.70485	14210.7375
1200.29634	13677.5375
1203.88538	13263.0375
1207.47197	12964.7375
1211.05612	12678.4375
1214.63782	12428.7375
1218.21708	12230.5375
1221.79391	12018.0375
1225.36829	11923.9375
1228.94024	11894.1375
1232.50976	11835.7375
1236.07685	11751.8375
1239.6415	11662.9375
1243.20374	11623.0375
1246.76355	11660.3375
1250.32093	11685.9375
1253.8759	11841.6375
1257.42845	12020.1375
1260.97859	12252.5375
1264.52631	12481.6375
1268.07163	12690.1375
1271.61453	12936.2375
1275.15503	13134.7375
1278.69312	13405.6375
1282.22882	13644.9375
1285.76211	13970.4375
1289.29301	14361.7375
1292.82151	14853.1375
1296.34761	15434.6375
1299.87133	16167.5375
1303.39266	16948.6375
1306.9116	17754.4375
1310.42815	18487.9375
1313.94233	18934.9375
1317.45412	18795.3375
1320.96354	18236.9375
1324.47058	17648.0375
1327.97525	17181.4375
1331.47754	16810.2375
1334.97747	16634.4375
1338.47502	16524.5375
1341.97022	16439.6375
1345.46305	16483.7375
1348.95352	16700.8375
1352.44163	17185.2375
1355.92738	17925.1375
1359.41078	18918.2375
1362.89183	19731.8375
1366.37053	19676.5375
1369.84688	18204.4375
1373.32088	16182.3375
1376.79254	14671.4375
1380.26186	13963.8375
1383.72883	13745.7375
1387.19347	13544.5375
1390.65578	13285.7375
1394.11575	13146.1375
1397.57339	13168.9375
1401.0287	13330.3375
1404.48168	13504.3375
1407.93234	13491.7375
1411.38068	13373.8375
1414.82669	13173.3375
1418.27039	12887.9375
1421.71177	12557.7375
1425.15083	12280.3375
1428.58758	12106.0375
1432.02203	12133.2375
1435.45416	12306.5375
1438.88399	12507.1375
1442.31151	12636.7375
1445.73673	12713.1375
1449.15965	12731.5375
1452.58027	12761.9375
1455.9986	12692.8375
1459.41463	12724.9375
1462.82837	12878.6375
1466.23982	13098.7375
1469.64898	13297.7375
1473.05586	13456.1375
1476.46045	13508.3375
1479.86276	13537.7375
1483.26279	13505.4375
1486.66054	13543.0375
1490.05602	13701.7375
1493.44922	13947.5375
1496.84016	14255.0375
1500.22882	14748.9375
1503.61521	15425.3375
1506.99934	16204.0375
1510.38121	16844.5375
1513.76081	16905.7375
1517.13816	16346.5375
1520.51324	15477.2375
1523.88607	14692.8375
1527.25665	14233.3375
1530.62498	13979.2375
1533.99105	13827.7375
1537.35488	13619.4375
1540.71647	13433.3375
1544.07581	13210.3375
1547.4329	13004.4375
1550.78776	12769.8375
1554.14038	12609.6375
1557.49077	12480.7375
1560.83892	12434.1375
1564.18484	12476.2375
1567.52853	12604.1375
1570.86999	12779.7375
1574.20922	13031.1375
1577.54624	13207.7375
1580.88103	13146.2375
1584.2136	12917.3375
1587.54395	12879.1375
1590.87208	13101.7375
1594.19801	13608.8375
1597.52172	14294.7375
1600.84321	14665.7375
1604.16251	14468.9375
1607.47959	13741.0375
1610.79447	12893.3375
1614.10715	12006.3375
1617.41763	11314.2375
1620.7259	10742.0375
1624.03199	10496.9375
1627.33587	10384.4375
1630.63757	10494.1375
1633.93707	10855.7375
1637.23439	11548.8375
1640.52951	12634.0375
1643.82246	14138.1375
1647.11321	15606.8375
1650.40179	16172.7375
1653.68819	15423.9375
1656.97241	13764.0375
1660.25446	12045.5375
1663.53433	10790.5375
1666.81203	10077.3375
1670.08756	9603.1375
1673.36092	9356.6375
1676.63211	9173.6375
1679.90115	9038.8375
1683.16801	8934.0375
1686.43272	8870.2375
1689.69527	8784.9375
1692.95567	8719.0375
1696.2139	8647.2375
1699.46999	8592.6375
1702.72392	8552.4375
1705.97571	8551.9375
1709.22535	8563.7375
1712.47284	8597.5375
1715.71819	8596.3375
1718.96139	8584.5375
1722.20246	8591.8375
1725.44139	8544.8375
1728.67818	8514.3375
1731.91284	8448.7375
1735.14537	8439.1375
1738.37576	8402.4375
1741.60403	8370.6375
1744.83017	8376.5375
1748.05418	8340.5375
1751.27607	8350.6375
1754.49584	8347.0375
1757.71349	8362.9375
1760.92903	8358.1375
1764.14244	8320.2375
1767.35375	8294.3375
1770.56294	8228.4375
1773.77002	8190.2375
1776.97499	8175.9375
1780.17785	8152.0375
1783.37861	8178.7375
1786.57727	8154.9375
1789.77382	8115.1375
1792.96828	8096.4375
1796.16064	8083.1375
1799.3509	8041.5375
1802.53907	8010.3375
1805.72514	8001.6375
1808.90913	7984.3375
1812.09102	7952.8375
1815.27083	7958.5375
1818.44856	7933.6375
1821.6242	7911.3375
1824.79776	7889.8375
1827.96924	7867.5375
1831.13864	7897.6375
1834.30597	7888.1375
1837.47122	7895.5375
1840.6344	7837.9375
1843.7955	7840.9375
1846.95454	7826.6375
1850.11151	7827.9375
1853.26642	7832.6375
1856.41926	7809.3375
1859.57004	7820.1375
1862.71876	7818.3375
1865.86542	7811.3375
1869.01003	7785.9375
1872.15258	7769.2375
1875.29308	7773.9375
1878.43152	7764.5375
1881.56792	7739.3375
1884.70227	7706.1375
1887.83457	7707.4375
1890.96482	7706.6375
1894.09304	7693.5375
1897.21921	7674.1375
1900.34335	7650.3375
1903.46544	7633.4375
1906.58551	7640.5375
1909.70353	7619.7375
1912.81953	7616.3375
1915.93349	7600.8375
1919.04543	7583.7375
1922.15534	7582.3375
1925.26322	7550.8375
1928.36908	7532.9375
1931.47292	7530.4375
1934.57473	7478.4375
1937.67453	7484.8375
1940.77232	7459.3375
1943.86808	7459.9375
1946.96184	7413.3375
1950.05358	7399.7375
1953.14331	7382.9375
1956.23103	7354.7375
1959.31675	7325.2375
1962.40046	7319.2375
1965.48217	7311.3375
1968.56188	7259.8375
1971.63959	7224.6375
1974.7153	7223.9375
1977.78901	7203.7375
1980.86073	7161.0375
1983.93046	7146.3375
1986.99819	7128.7375
1990.06394	7090.4375
1993.1277	7087.2375
1996.18947	7059.6375
1999.24925	7044.2375
2002.30706	7026.8375
2005.36288	7015.1375
2008.41672	6977.3375
2011.46859	6974.3375
2014.51848	6937.5375
2017.56639	6925.5375
2020.61233	6904.1375
2023.6563	6877.5375
2026.6983	6876.3375
2029.73833	6857.3375
2032.7764	6841.3375
2035.8125	6806.9375
2038.84664	6789.8375
2041.87881	6765.6375
2044.90903	6755.8375
2047.93729	6733.6375
2050.96359	6752.4375
2053.98794	6717.4375
2057.01034	6702.2375
2060.03078	6720.1375
2063.04927	6710.6375
2066.06582	6706.1375
2069.08042	6688.2375
2072.09307	6694.1375
2075.10378	6668.9375
2078.11255	6683.8375
2081.11938	6661.3375
2084.12426	6667.5375
2087.12722	6649.2375
2090.12824	6680.6375
2093.12732	6666.3375
2096.12447	6673.7375
2099.11969	6655.5375
2102.11299	6659.5375
2105.10435	6647.9375
2108.09379	6664.4375
2111.08131	6660.2375
2114.0669	6677.6375
2117.05057	6678.6375
2120.03233	6676.9375
2123.01216	6659.0375
2125.99008	6688.8375
2128.96609	6677.2375
2131.94018	6674.4375
2134.91236	6685.4375
2137.88263	6708.8375
2140.851	6669.6375
2143.81746	6671.0375
2146.78201	6652.6375
2149.74466	6690.7375
2152.7054	6677.8375
2155.66425	6677.1375
2158.6212	6664.6375
2161.57625	6666.1375
2164.52941	6649.2375
2167.48067	6654.5375
2170.43004	6658.1375
2173.37752	6647.9375
2176.32311	6655.4375
2179.26681	6665.8375
2182.20863	6630.6375
2185.14856	6633.0375
2188.08661	6649.5375
2191.02278	6644.2375
2193.95707	6628.4375
2196.88948	6625.6375
2199.82001	6600.1375
2202.74867	6591.1375
2205.67545	6592.3375
2208.60037	6579.6375
2211.52341	6549.0375
2214.44458	6536.3375
2217.36388	6523.3375
2220.28132	6535.9375
2223.1969	6509.1375
2226.11061	6495.3375
2229.02246	6486.6375
2231.93245	6485.1375
2234.84058	6455.5375
2237.74686	6472.1375
2240.65128	6449.6375
2243.55385	6434.4375
2246.45456	6410.7375
2249.35343	6397.7375
2252.25044	6397.3375
2255.14561	6393.9375
2258.03893	6394.0375
2260.93041	6354.2375
2263.82004	6348.5375
2266.70783	6335.1375
2269.59378	6302.4375
2272.4779	6284.3375
2275.36017	6288.2375
2278.24061	6270.6375
2281.11922	6262.2375
2283.996	6255.0375
2286.87094	6243.5375
2289.74405	6199.4375
2292.61534	6213.1375
2295.4848	6176.3375
2298.35243	6200.6375
2301.21824	6193.5375
2304.08223	6196.7375
2306.94439	6171.1375
2309.80474	6190.7375
2312.66327	6155.7375
2315.51999	6150.2375
2318.37489	6158.9375
2321.22797	6142.9375
2324.07925	6132.3375
2326.92871	6114.8375
2329.77637	6100.7375
2332.62222	6112.5375
2335.46626	6086.1375
2338.3085	6076.2375
2341.14893	6090.9375
2343.98756	6060.7375
2346.8244	6054.1375
2349.65943	6033.0375
2352.49267	6047.8375
2355.32411	6042.7375
2358.15376	6049.2375
2360.98161	6040.5375
2363.80768	6030.8375
2366.63195	6032.3375
2369.45444	6018.5375
2372.27514	6032.5375
2375.09405	6001.2375
2377.91118	6005.0375
2380.72652	5992.9375
2383.54009	5960.9375
2386.35187	5955.7375
2389.16188	5921.0375
2391.97011	5915.4375
2394.77657	5909.4375
2397.58125	5905.3375
2400.38416	5898.8375
2403.18529	5879.0375
2405.98466	5863.3375
2408.78226	5854.4375
2411.57809	5839.8375
2414.37216	5835.4375
2417.16446	5833.4375
2419.955	5807.2375
2422.74378	5827.0375
2425.5308	5835.6375
2428.31606	5842.5375
2431.09956	5798.1375
2433.88131	5796.5375
2436.6613	5791.1375
2439.43954	5786.6375
2442.21603	5783.4375
2444.99077	5787.5375
2447.76377	5771.8375
2450.53501	5760.1375
2453.30451	5763.3375
2456.07226	5764.1375
2458.83827	5742.3375
2461.60254	5752.7375
2464.36507	5737.7375
2467.12586	5717.4375
2469.88492	5725.5375
2472.64224	5734.5375
2475.39782	5721.8375
2478.15167	5706.4375
2480.90379	5695.4375
2483.65417	5675.5375
2486.40283	5680.3375
2489.14976	5693.3375
2491.89497	5685.4375
2494.63845	5681.2375
2497.3802	5674.6375
2500.12024	5660.9375
2502.85855	5674.0375
2505.59514	5668.6375
2508.33002	5661.8375
2511.06318	5653.4375
2513.79462	5656.7375
2516.52435	5632.4375
2519.25237	5624.7375
2521.97867	5618.6375
2524.70327	5603.7375
2527.42616	5582.8375
2530.14734	5590.7375
2532.86681	5585.0375
2535.58458	5573.7375
2538.30065	5563.2375
2541.01501	5547.0375
2543.72768	5559.1375
2546.43864	5536.7375
2549.14791	5522.5375
2551.85548	5520.4375
2554.56136	5507.7375
2557.26554	5499.0375
2559.96803	5487.8375
2562.66883	5472.3375
2565.36794	5478.2375
2568.06536	5464.5375
2570.7611	5452.9375
2573.45514	5440.4375
2576.14751	5423.7375
2578.83819	5409.8375
2581.52719	5401.1375
2584.21451	5386.1375
2586.90015	5382.7375
2589.58411	5370.0375
2592.2664	5380.3375
2594.94701	5363.5375
2597.62594	5348.3375
2600.30321	5352.9375
2602.9788	5330.9375
2605.65273	5333.2375
2608.32498	5318.9375
2610.99557	5288.4375
2613.66449	5311.9375
2616.33175	5305.2375
2618.99734	5281.4375
2621.66128	5279.7375
2624.32355	5270.1375
2626.98416	5268.4375
2629.64311	5263.3375
2632.30041	5255.8375
2634.95605	5245.1375
2637.61004	5234.4375
2640.26238	5233.9375
2642.91306	5221.4375
2645.56209	5216.0375
2648.20948	5207.5375
2650.85521	5218.5375
2653.4993	5221.6375
2656.14175	5210.7375
2658.78255	5229.1375
2661.42171	5215.4375
2664.05923	5226.9375
2666.6951	5224.8375
2669.32934	5213.8375
2671.96194	5206.0375
2674.59291	5204.3375
2677.22224	5200.6375
2679.84993	5213.2375
2682.476	5201.5375
2685.10043	5201.9375
2687.72324	5185.9375
2690.34441	5200.1375
2692.96396	5187.4375
2695.58188	5191.4375
2698.19818	5182.2375
2700.81285	5201.1375
2703.4259	5185.7375
2706.03733	5178.9375
2708.64714	5174.2375
2711.25533	5186.8375
2713.86191	5179.0375
2716.46687	5197.3375
2719.07021	5182.8375
2721.67194	5203.1375
2724.27206	5182.5375
2726.87057	5185.0375
2729.46747	5197.2375
2732.06276	5188.9375
2734.65644	5180.3375
2737.24852	5190.1375
2739.83899	5185.1375
2742.42786	5177.6375
2745.01513	5146.0375
2747.60079	5146.7375
2750.18486	5129.1375
2752.76733	5130.5375
2755.3482	5127.0375
2757.92747	5129.3375
2760.50515	5103.3375
2763.08123	5130.9375
2765.65573	5095.1375
2768.22863	5105.3375
2770.79994	5104.6375
2773.36967	5096.2375
2775.9378	5078.9375
2778.50435	5075.6375
2781.06932	5077.8375
2783.6327	5068.2375
2786.1945	5065.9375
2788.75471	5048.1375
2791.31335	5044.4375
2793.87041	5034.1375
2796.42589	5012.9375
2798.97979	5015.6375
2801.53212	5022.2375
2804.08288	5012.1375
2806.63206	4988.2375
2809.17967	4996.4375
2811.72571	4976.1375
2814.27018	4969.7375
2816.81308	4956.1375
2819.35442	4935.7375
2821.89419	4948.9375
2824.43239	4954.5375
2826.96904	4940.9375
2829.50412	4925.2375
2832.03763	4924.5375
2834.56959	4926.7375
2837.1	4941.1375
2839.62884	4958.2375
2842.15613	4967.7375
2844.68186	5006.7375
2847.20604	5027.2375
2849.72867	5049.8375
2852.24974	5062.5375
2854.76927	5055.0375
2857.28724	5047.1375
2859.80367	5020.4375
2862.31855	5013.1375
2864.83189	5027.4375
2867.34368	5005.6375
2869.85393	5016.3375
2872.36264	5011.8375
2874.8698	5014.0375
2877.37543	5005.0375
2879.87952	4980.9375
2882.38207	4988.9375
2884.88308	4981.5375
2887.38256	4972.4375
2889.88051	4967.7375
2892.37692	4980.0375
2894.8718	4984.1375
2897.36515	5005.5375
2899.85698	5024.0375
2902.34727	5014.8375
2904.83604	5023.6375
2907.32328	5022.6375
2909.809	5035.1375
2912.29319	5024.6375
2914.77587	5032.7375
2917.25702	5016.2375
2919.73665	5025.9375
2922.21476	5035.6375
2924.69136	5047.0375
2927.16644	5035.5375
2929.64	5043.5375
2932.11205	5040.3375
2934.58258	5012.8375
2937.05161	5021.3375
2939.51912	5043.0375
2941.98513	5021.4375
2944.44962	4992.7375
2946.91261	4969.2375
2949.37409	4964.8375
2951.83407	4941.8375
2954.29254	4940.8375
2956.74951	4921.1375
2959.20498	4913.0375
2961.65895	4911.7375
2964.11142	4896.7375
2966.56239	4866.6375
2969.01186	4849.3375
2971.45984	4846.7375
2973.90632	4828.7375
2976.35131	4829.2375
2978.7948	4798.4375
2981.23681	4774.9375
2983.67732	4754.0375
2986.11635	4746.1375
2988.55388	4737.1375
2990.98993	4710.2375
2993.4245	4716.1375
2995.85758	4708.4375
2998.28917	4700.5375
3000.71928	4677.4375
3003.14791	4683.7375
3005.57506	4662.2375
3008.00073	4655.6375
3010.42493	4642.3375
3012.84764	4652.5375
3015.26888	4643.6375
3017.68865	4629.0375
3020.10694	4620.3375
3022.52376	4602.8375
3024.9391	4604.3375
3027.35298	4602.5375
3029.76539	4590.3375
3032.17632	4585.0375
3034.5858	4580.3375
3036.9938	4573.9375
3039.40034	4560.5375
3041.80542	4553.8375
3044.20903	4541.8375
3046.61118	4556.4375
3049.01187	4550.7375
3051.4111	4541.9375
3053.80888	4533.4375
3056.20519	4521.6375
3058.60005	4525.9375
3060.99345	4489.1375
3063.3854	4498.6375
3065.7759	4486.0375
3068.16494	4487.8375
3070.55254	4457.6375
3072.93868	4464.3375
3075.32338	4468.2375
3077.70662	4458.7375
3080.08842	4447.7375
3082.46878	4452.6375
3084.84769	4446.0375
3087.22515	4433.8375
3089.60118	4450.5375
3091.97576	4442.2375
3094.3489	4452.7375
3096.72061	4453.1375
3099.09087	4453.0375
3101.4597	4443.0375
3103.82709	4451.1375
3106.19305	4431.1375
3108.55757	4455.2375
3110.92066	4445.1375
3113.28232	4425.2375
3115.64255	4423.6375
3118.00134	4416.0375
3120.35871	4427.6375
3122.71466	4420.1375
3125.06917	4408.4375
3127.42226	4408.9375
3129.77393	4421.5375
3132.12417	4409.8375
3134.47299	4407.4375
3136.82039	4403.0375
3139.16636	4416.6375
3141.51092	4423.5375
3143.85406	4423.2375
3146.19579	4443.5375
3148.53609	4425.2375
3150.87499	4451.6375
3153.21246	4462.0375
3155.54853	4468.7375
3157.88318	4486.7375
3160.21642	4490.3375
3162.54826	4476.6375
3164.87868	4497.5375
3167.2077	4484.0375
3169.5353	4506.5375
3171.86151	4478.3375
3174.18631	4468.8375
3176.5097	4484.9375
3178.83169	4481.8375
3181.15228	4490.4375
3183.47147	4478.9375
3185.78926	4465.6375
3188.10565	4469.2375
3190.42065	4486.3375
3192.73424	4466.1375
3195.04645	4483.2375
3197.35725	4479.9375
3199.66667	4481.8375
3201.97469	4469.1375
3204.28132	4484.0375
3206.58656	4492.5375
3208.8904	4483.7375
3211.19287	4485.7375
3213.49394	4489.1375
3215.79363	4500.8375
3218.09193	4514.2375
3220.38884	4520.6375
3222.68438	4492.8375
3224.97853	4505.6375
3227.2713	4493.8375
3229.56269	4499.2375
3231.8527	4508.2375
3234.14133	4503.2375
3236.42858	4476.3375
3238.71446	4481.1375
3240.99896	4460.4375
3243.28209	4475.2375
3245.56384	4465.6375
3247.84423	4473.2375
3250.12324	4456.7375
3252.40088	4461.7375
3254.67715	4467.9375
3256.95205	4460.0375
3259.22558	4454.1375
3261.49775	4454.2375
3263.76855	4438.2375
3266.03799	4431.1375
3268.30606	4422.2375
3270.57277	4413.4375
3272.83812	4401.7375
3275.10211	4412.0375
3277.36474	4377.6375
3279.62601	4398.4375
3281.88593	4378.2375
3284.14448	4404.1375
3286.40168	4382.5375
3288.65753	4379.0375
3290.91202	4375.8375
3293.16516	4381.5375
3295.41695	4364.8375
3297.66738	4329.2375
3299.91647	4329.2375
3302.16421	4309.5375
3304.4106	4274.0375
3306.65564	4257.5375
3308.89933	4232.0375
3311.14169	4208.3375
3313.38269	4176.0375
3315.62236	4147.2375
3317.86068	4105.1375
3320.09766	4090.9375
3322.3333	4050.4375
3324.5676	4046.3375
3326.80056	3969.2375
3329.03219	3947.4375
3331.26248	1.0375
3333.49143	-0.0625
3335.71905	-0.7625
