Data from AgNPs_FTO_APTES_UA_1uM_CRN_10uM_R6G_20uM_NaF_0.1M_Addition_RamanShift__21__15-22-19-696.txt Node

Date: Thu Jan 27 15:22:19 GMT 2022
User: TCL
Spectrometer: QEP01345
Trigger mode: 4
Integration Time (sec): 7.000000E0
Scans to average: 10
Electric dark correction enabled: true
Nonlinearity correction enabled: false
Boxcar width: 0
XAxis mode: Raman Shifts
Number of Pixels in Spectrum: 1044
>>>>>Begin Spectral Data<<<<<
46.04893	0.7
50.45542	1.4
54.85868	-1.6
59.25871	-1.4
63.6555	48.4
68.04907	49.5
72.43941	54.9
76.82654	55.2
81.21044	60
85.59113	57
89.96862	64.7
94.34289	62.3
98.71396	68.5
103.08183	66.5
107.4465	70.6
111.80798	74.8
116.16626	73.8
120.52136	79
124.87327	80.9
129.222	78.5
133.56755	85.7
137.90993	86.5
142.24913	94
146.58517	106.4
150.91804	121.3
155.24774	137.8
159.57429	167.5
163.89768	215.2
168.21792	281.5
172.53501	374.4
176.84895	513.7
181.15975	717.2
185.46741	1004.3
189.77193	1367.5
194.07331	1839.5
198.37157	2372.6
202.6667	2943.9
206.9587	3491.9
211.24758	4008.6
215.53334	4550.5
219.81599	5142.4
224.09553	5763.5
228.37195	6486.1
232.64527	7271
236.91549	8091.2
241.18261	8927.6
245.44663	9691.1
249.70755	10412.7
253.96539	11002.3
258.22014	11510.8
262.4718	11959.8
266.72039	12281.6
270.96589	12491.7
275.20832	12521
279.44768	12517.2
283.68397	12440.4
287.91719	12366
292.14735	12358.2
296.37445	12388.8
300.59849	12441.5
304.81948	12496.5
309.03742	12482.3
313.25231	12336.5
317.46415	11962.8
321.67296	11587.4
325.87872	11246.7
330.08145	11115.1
334.28114	11095.3
338.47781	11200.6
342.67145	11324.4
346.86207	11569.1
351.04966	11829.5
355.23424	12158.1
359.4158	12399.4
363.59435	12553.4
367.76989	12681.2
371.94243	12748.3
376.11196	12814
380.27849	12889
384.44203	12944.3
388.60257	13026.7
392.76012	13109.2
396.91468	13266.7
401.06626	13490.2
405.21485	13625.2
409.36047	13579.3
413.50311	13361.8
417.64277	13184.2
421.77947	13143.5
425.9132	13178.2
430.04396	13264.3
434.17176	13340.3
438.2966	13467.7
442.41849	13685.5
446.53742	14020.8
450.6534	14412.4
454.76644	14732.9
458.87653	14863.3
462.98368	14844
467.08789	14668
471.18916	14460.1
475.2875	14290.6
479.38291	14178.7
483.4754	14060.2
487.56496	13906
491.6516	13699.7
495.73531	13512.4
499.81612	13416
503.89401	13492
507.96899	13556.6
512.04106	13534.7
516.11023	13448
520.1765	13406.7
524.23987	13315.8
528.30034	13187.9
532.35792	13039.8
536.41261	12923
540.46441	12788.3
544.51333	12783.5
548.55936	12902.2
552.60252	13174.9
556.64279	13461.1
560.6802	13642.4
564.71473	13740
568.7464	13904.5
572.7752	14164.7
576.80114	14313.6
580.82422	14435.2
584.84444	14544.6
588.86181	14666
592.87633	14836.5
596.888	14991.4
600.89682	15171.1
604.9028	15666.5
608.90594	17079.9
612.90624	18664.9
616.90371	17799.2
620.89834	14951.1
624.89015	13706.3
628.87913	13583.4
632.86528	13602.3
636.84862	13516.4
640.82913	13295.4
644.80683	12960.4
648.78172	12676
652.75379	12609.9
656.72306	12750.1
660.68952	13007.4
664.65319	12999.5
668.61405	12747.9
672.57211	12632.5
676.52738	12651
680.47986	12685
684.42955	12656
688.37646	12617.5
692.32058	12627.4
696.26192	12763.7
700.20048	12851.9
704.13626	12950.5
708.06928	12904.8
711.99952	12801.2
715.927	12762
719.85171	12757.6
723.77365	12738
727.69284	12672.5
731.60928	12553.8
735.52295	12529.1
739.43388	12553.1
743.34206	12621.4
747.24749	12660.1
751.15017	12760.8
755.05012	12964.4
758.94733	13346
762.8418	13998.2
766.73354	15028.1
770.62254	16082.3
774.50882	16367
778.39237	15684.4
782.27321	14531.1
786.15132	13509.4
790.02671	12970.8
793.89938	12703.1
797.76935	12623.2
801.6366	12577
805.50115	12534.5
809.36299	12495
813.22213	12417.9
817.07857	12387.8
820.93231	12384.2
824.78336	12370
828.63172	12375.4
832.47738	12386.8
836.32036	12389.8
840.16066	12457.6
843.99827	12479.9
847.8332	12449.2
851.66546	12384.1
855.49504	12347.5
859.32195	12357.2
863.1462	12301.4
866.96777	12253.5
870.78668	12195.8
874.60293	12212.7
878.41652	12232.1
882.22745	12237.1
886.03573	12297.7
889.84136	12272.3
893.64433	12215
897.44466	12160.5
901.24235	12117.5
905.0374	12092.6
908.8298	12079.2
912.61957	12130.7
916.40671	12218.2
920.19121	12384.2
923.97308	12511.9
927.75233	12573.8
931.52895	12541
935.30295	12442.8
939.07433	12221.9
942.84309	12042.4
946.60924	11957.7
950.37278	11937.9
954.13371	11860.6
957.89203	11773.4
961.64774	11753.2
965.40086	11705.7
969.15137	11662
972.89929	11632.4
976.64461	11586.4
980.38733	11590.6
984.12747	11631.6
987.86502	11750.7
991.59999	11901.4
995.33237	12153.6
999.06217	12557.3
1002.78939	13020.4
1006.51404	13264.3
1010.23611	13382
1013.95561	13512.9
1017.67255	13512.4
1021.38692	13405.2
1025.09872	13316.6
1028.80796	13417.1
1032.51465	13889.5
1036.21877	14303.7
1039.92035	14326.8
1043.61937	14082.8
1047.31584	13678.7
1051.00976	13239.7
1054.70114	12987.7
1058.38998	12969.6
1062.07627	12991.8
1065.76003	13054.5
1069.44126	13088.5
1073.11995	13210.1
1076.79611	13305.9
1080.46974	13385.7
1084.14085	13480.6
1087.80943	13583.7
1091.47549	13633.1
1095.13903	13578.9
1098.80005	13437.4
1102.45857	13190.4
1106.11456	13009.5
1109.76805	12978.3
1113.41903	13114.4
1117.06751	13204.3
1120.71348	13349.1
1124.35696	13548.4
1127.99793	13665.6
1131.63641	13736.6
1135.2724	13620
1138.90589	13464.6
1142.5369	13342.5
1146.16542	13319.2
1149.79145	13310.7
1153.415	13408.3
1157.03607	13528.6
1160.65467	13811.5
1164.27079	14258.3
1167.88443	14899.2
1171.49561	15787.7
1175.10432	16957.4
1178.71056	18484.3
1182.31434	19876.9
1185.91565	20635.8
1189.51451	20731.6
1193.11091	20164.7
1196.70485	19258.5
1200.29634	18371.9
1203.88538	17642.9
1207.47197	17048.5
1211.05612	16647.5
1214.63782	16348.4
1218.21708	16200.1
1221.79391	16188.7
1225.36829	16183.6
1228.94024	16090.8
1232.50976	15858
1236.07685	15677.7
1239.6415	15582.4
1243.20374	15545.8
1246.76355	15623.9
1250.32093	15808
1253.8759	16140.2
1257.42845	16565
1260.97859	17015.2
1264.52631	17349.7
1268.07163	17746.2
1271.61453	18204
1275.15503	18747.5
1278.69312	19339.1
1282.22882	19795.8
1285.76211	20184.6
1289.29301	20594.4
1292.82151	21170.7
1296.34761	21889.7
1299.87133	22971.4
1303.39266	24304.8
1306.9116	25898.7
1310.42815	27525.3
1313.94233	28591
1317.45412	28600.9
1320.96354	27997.6
1324.47058	27264
1327.97525	26501.1
1331.47754	25985.3
1334.97747	25843.2
1338.47502	25995
1341.97022	26182.3
1345.46305	26100.7
1348.95352	25762.7
1352.44163	25440.6
1355.92738	25582.4
1359.41078	26558.7
1362.89183	27655.7
1366.37053	27267.3
1369.84688	25053.1
1373.32088	22488
1376.79254	20734.2
1380.26186	19916.7
1383.72883	19712
1387.19347	19650.6
1390.65578	19531.1
1394.11575	19542.5
1397.57339	19740.6
1401.0287	20228.8
1404.48168	20660.3
1407.93234	20962.1
1411.38068	20973.9
1414.82669	20613
1418.27039	19905.9
1421.71177	19091
1425.15083	18421.4
1428.58758	18025
1432.02203	17918.8
1435.45416	18140.6
1438.88399	18454.3
1442.31151	18778.1
1445.73673	19037
1449.15965	19336.5
1452.58027	19551.6
1455.9986	19613.8
1459.41463	19702.6
1462.82837	19918.9
1466.23982	20227.7
1469.64898	20554.5
1473.05586	20764.9
1476.46045	20852
1479.86276	20747.2
1483.26279	20651.5
1486.66054	20583.8
1490.05602	20662.8
1493.44922	20808.5
1496.84016	21042.5
1500.22882	21264.3
1503.61521	21764
1506.99934	22507.3
1510.38121	23259
1513.76081	23674.3
1517.13816	23308.6
1520.51324	22372.2
1523.88607	21381.2
1527.25665	20685.5
1530.62498	20327.7
1533.99105	20081.5
1537.35488	19907.9
1540.71647	19797
1544.07581	19617.3
1547.4329	19366.6
1550.78776	19143.5
1554.14038	18974.9
1557.49077	18936.1
1560.83892	18928.6
1564.18484	18928.3
1567.52853	18884.7
1570.86999	18936.5
1574.20922	19022.9
1577.54624	19157.4
1580.88103	19166.7
1584.2136	19227.1
1587.54395	19594.6
1590.87208	20411.4
1594.19801	21582.1
1597.52172	22879.3
1600.84321	23415.9
1604.16251	22619.4
1607.47959	21057.1
1610.79447	19384.7
1614.10715	17833.1
1617.41763	16522.1
1620.7259	15630.2
1624.03199	15181.7
1627.33587	15158.2
1630.63757	15522.1
1633.93707	16378.2
1637.23439	17575.8
1640.52951	19177.1
1643.82246	20817.2
1647.11321	22055.8
1650.40179	22331.2
1653.68819	21125.2
1656.97241	18844.9
1660.25446	16485
1663.53433	14721.2
1666.81203	13531.5
1670.08756	12790.9
1673.36092	12361
1676.63211	12093.5
1679.90115	11897
1683.16801	11717.4
1686.43272	11579.4
1689.69527	11471.1
1692.95567	11417.4
1696.2139	11310.3
1699.46999	11223.4
1702.72392	11219.8
1705.97571	11224.7
1709.22535	11218
1712.47284	11232.6
1715.71819	11255.5
1718.96139	11225.4
1722.20246	11212.1
1725.44139	11157.6
1728.67818	11116.9
1731.91284	11061.3
1735.14537	10996.5
1738.37576	10978.7
1741.60403	10932.3
1744.83017	10896.6
1748.05418	10884.9
1751.27607	10852.6
1754.49584	10820.5
1757.71349	10785.6
1760.92903	10766
1764.14244	10729.9
1767.35375	10738.1
1770.56294	10739.1
1773.77002	10740.1
1776.97499	10734
1780.17785	10727.4
1783.37861	10762.9
1786.57727	10750.1
1789.77382	10744
1792.96828	10749.2
1796.16064	10703
1799.3509	10701.2
1802.53907	10691.7
1805.72514	10668.8
1808.90913	10666.5
1812.09102	10609.9
1815.27083	10598.7
1818.44856	10580.2
1821.6242	10586.1
1824.79776	10562.6
1827.96924	10561.6
1831.13864	10565.3
1834.30597	10551.5
1837.47122	10578.6
1840.6344	10536.4
1843.7955	10566.5
1846.95454	10545.4
1850.11151	10562.5
1853.26642	10591.3
1856.41926	10576.5
1859.57004	10608.7
1862.71876	10598.2
1865.86542	10565.4
1869.01003	10586.2
1872.15258	10575.5
1875.29308	10573
1878.43152	10561.3
1881.56792	10590.9
1884.70227	10572.9
1887.83457	10557.2
1890.96482	10591.7
1894.09304	10548.2
1897.21921	10589.3
1900.34335	10568.2
1903.46544	10548.1
1906.58551	10571.3
1909.70353	10530.9
1912.81953	10540.5
1915.93349	10545
1919.04543	10522.7
1922.15534	10500.2
1925.26322	10476.9
1928.36908	10445.8
1931.47292	10438
1934.57473	10406.1
1937.67453	10358.5
1940.77232	10328.7
1943.86808	10276.7
1946.96184	10257.5
1950.05358	10193.9
1953.14331	10177.3
1956.23103	10157.7
1959.31675	10098.2
1962.40046	10089.7
1965.48217	10064.5
1968.56188	10017.9
1971.63959	10003.8
1974.7153	9987.8
1977.78901	9968.4
1980.86073	9925
1983.93046	9890.3
1986.99819	9876.8
1990.06394	9826.3
1993.1277	9790
1996.18947	9749.7
1999.24925	9747.4
2002.30706	9723.8
2005.36288	9695.9
2008.41672	9660.8
2011.46859	9632.9
2014.51848	9616.4
2017.56639	9614.6
2020.61233	9579.5
2023.6563	9566.3
2026.6983	9527.3
2029.73833	9528.6
2032.7764	9515.1
2035.8125	9500.2
2038.84664	9460.2
2041.87881	9478
2044.90903	9449.3
2047.93729	9450.8
2050.96359	9411
2053.98794	9408.4
2057.01034	9401.2
2060.03078	9420.4
2063.04927	9405.9
2066.06582	9405.9
2069.08042	9387.7
2072.09307	9384.9
2075.10378	9371.8
2078.11255	9369.1
2081.11938	9359.5
2084.12426	9354.3
2087.12722	9325.1
2090.12824	9305.8
2093.12732	9345.1
2096.12447	9342.9
2099.11969	9331.5
2102.11299	9354
2105.10435	9355.7
2108.09379	9360.2
2111.08131	9369.3
2114.0669	9357.4
2117.05057	9374.5
2120.03233	9385.5
2123.01216	9375.1
2125.99008	9382.7
2128.96609	9401.8
2131.94018	9398.9
2134.91236	9392.8
2137.88263	9416.5
2140.851	9417
2143.81746	9420.4
2146.78201	9437.8
2149.74466	9422.6
2152.7054	9437.4
2155.66425	9428.9
2158.6212	9423.8
2161.57625	9434.7
2164.52941	9457.2
2167.48067	9434.9
2170.43004	9425.6
2173.37752	9418.2
2176.32311	9412.2
2179.26681	9422
2182.20863	9421.3
2185.14856	9409.5
2188.08661	9422.6
2191.02278	9474.8
2193.95707	9463.4
2196.88948	9443.8
2199.82001	9449.7
2202.74867	9428.7
2205.67545	9411.6
2208.60037	9432.3
2211.52341	9417.1
2214.44458	9419
2217.36388	9390.9
2220.28132	9396.4
2223.1969	9369.1
2226.11061	9358.9
2229.02246	9358.6
2231.93245	9325.9
2234.84058	9300.2
2237.74686	9295.1
2240.65128	9294.5
2243.55385	9274.7
2246.45456	9241.2
2249.35343	9250
2252.25044	9231.1
2255.14561	9226
2258.03893	9193.6
2260.93041	9173.7
2263.82004	9170.1
2266.70783	9154
2269.59378	9126.9
2272.4779	9113.3
2275.36017	9072.6
2278.24061	9083.9
2281.11922	9069.2
2283.996	9063.5
2286.87094	9058.8
2289.74405	9040.4
2292.61534	9016
2295.4848	9014.5
2298.35243	9038.1
2301.21824	9023.4
2304.08223	9040.3
2306.94439	9051.5
2309.80474	9043.8
2312.66327	9053.3
2315.51999	9057.7
2318.37489	9055.3
2321.22797	9046.6
2324.07925	9060.6
2326.92871	9026
2329.77637	9019.2
2332.62222	9023.7
2335.46626	9005.9
2338.3085	9004.3
2341.14893	9022.6
2343.98756	9008.4
2346.8244	9018.9
2349.65943	9020.8
2352.49267	9031.3
2355.32411	9030.3
2358.15376	9013.9
2360.98161	9011
2363.80768	8981.8
2366.63195	8989.9
2369.45444	8972.2
2372.27514	8960.2
2375.09405	8913.6
2377.91118	8912.4
2380.72652	8899.1
2383.54009	8869.5
2386.35187	8875.7
2389.16188	8842.2
2391.97011	8820.9
2394.77657	8816
2397.58125	8810.3
2400.38416	8789.1
2403.18529	8802.8
2405.98466	8765.5
2408.78226	8757.7
2411.57809	8761.3
2414.37216	8721.3
2417.16446	8701.7
2419.955	8707.3
2422.74378	8693.3
2425.5308	8704.2
2428.31606	8682.1
2431.09956	8678.7
2433.88131	8699
2436.6613	8690.1
2439.43954	8677.5
2442.21603	8661.1
2444.99077	8656
2447.76377	8658.3
2450.53501	8655.5
2453.30451	8651.4
2456.07226	8668.2
2458.83827	8660.3
2461.60254	8636.5
2464.36507	8646.2
2467.12586	8645
2469.88492	8619.7
2472.64224	8643.4
2475.39782	8660.2
2478.15167	8627
2480.90379	8662.2
2483.65417	8644.8
2486.40283	8664.6
2489.14976	8687.7
2491.89497	8689.1
2494.63845	8692.6
2497.3802	8696.3
2500.12024	8695
2502.85855	8700.3
2505.59514	8677.5
2508.33002	8669.2
2511.06318	8668.2
2513.79462	8661.9
2516.52435	8652.9
2519.25237	8642.5
2521.97867	8628.6
2524.70327	8647.9
2527.42616	8628.9
2530.14734	8626.8
2532.86681	8604
2535.58458	8614.8
2538.30065	8593.8
2541.01501	8600.5
2543.72768	8607.5
2546.43864	8586.1
2549.14791	8577.3
2551.85548	8564.5
2554.56136	8547.8
2557.26554	8560.5
2559.96803	8551.1
2562.66883	8554.5
2565.36794	8529.3
2568.06536	8526.8
2570.7611	8553.3
2573.45514	8516.7
2576.14751	8539
2578.83819	8515.4
2581.52719	8524.9
2584.21451	8524.7
2586.90015	8513.6
2589.58411	8509.8
2592.2664	8508.7
2594.94701	8520.5
2597.62594	8501.7
2600.30321	8514.6
2602.9788	8484.1
2605.65273	8489.3
2608.32498	8475
2610.99557	8497.8
2613.66449	8509.3
2616.33175	8485.5
2618.99734	8492
2621.66128	8513.4
2624.32355	8502.7
2626.98416	8500.6
2629.64311	8517.3
2632.30041	8518.8
2634.95605	8500.6
2637.61004	8489.1
2640.26238	8476.1
2642.91306	8480
2645.56209	8460.1
2648.20948	8469.3
2650.85521	8434.6
2653.4993	8449.4
2656.14175	8456.3
2658.78255	8477
2661.42171	8460.9
2664.05923	8488.5
2666.6951	8489.5
2669.32934	8480.4
2671.96194	8485.8
2674.59291	8483.3
2677.22224	8489.1
2679.84993	8467.9
2682.476	8472.4
2685.10043	8481.8
2687.72324	8456.4
2690.34441	8461
2692.96396	8442.9
2695.58188	8447.8
2698.19818	8468.1
2700.81285	8452.5
2703.4259	8446.9
2706.03733	8417
2708.64714	8428.9
2711.25533	8459.6
2713.86191	8453.9
2716.46687	8480.3
2719.07021	8462.8
2721.67194	8474.4
2724.27206	8473.7
2726.87057	8471.3
2729.46747	8509.8
2732.06276	8490.1
2734.65644	8483.6
2737.24852	8483.3
2739.83899	8502.1
2742.42786	8497.5
2745.01513	8474.4
2747.60079	8468.3
2750.18486	8490.3
2752.76733	8478.1
2755.3482	8466.4
2757.92747	8461.9
2760.50515	8459.5
2763.08123	8454.2
2765.65573	8444.6
2768.22863	8466.5
2770.79994	8476
2773.36967	8461.6
2775.9378	8459.1
2778.50435	8487.6
2781.06932	8457.2
2783.6327	8449.2
2786.1945	8439.5
2788.75471	8435.2
2791.31335	8432.1
2793.87041	8422.8
2796.42589	8403.2
2798.97979	8391.7
2801.53212	8383.9
2804.08288	8373.4
2806.63206	8344.9
2809.17967	8317.9
2811.72571	8313.3
2814.27018	8323.3
2816.81308	8319
2819.35442	8290.4
2821.89419	8286.9
2824.43239	8312.2
2826.96904	8295.2
2829.50412	8297.6
2832.03763	8288.6
2834.56959	8270
2837.1	8276.7
2839.62884	8257.6
2842.15613	8265.7
2844.68186	8288.6
2847.20604	8274.8
2849.72867	8302.8
2852.24974	8277
2854.76927	8283.3
2857.28724	8251.1
2859.80367	8256.7
2862.31855	8235.9
2864.83189	8233.8
2867.34368	8240.4
2869.85393	8244.1
2872.36264	8241.2
2874.8698	8224.1
2877.37543	8235.8
2879.87952	8220.2
2882.38207	8219
2884.88308	8221.3
2887.38256	8239.7
2889.88051	8236.5
2892.37692	8232.8
2894.8718	8237.9
2897.36515	8247.3
2899.85698	8260.2
2902.34727	8264.3
2904.83604	8278.1
2907.32328	8285.6
2909.809	8265.8
2912.29319	8267.3
2914.77587	8307
2917.25702	8283.2
2919.73665	8278.4
2922.21476	8305.7
2924.69136	8261
2927.16644	8274.9
2929.64	8259.9
2932.11205	8260.4
2934.58258	8224.6
2937.05161	8233.7
2939.51912	8230.5
2941.98513	8218.2
2944.44962	8192.4
2946.91261	8171.9
2949.37409	8200.6
2951.83407	8192.4
2954.29254	8190.4
2956.74951	8154.9
2959.20498	8185.2
2961.65895	8181.5
2964.11142	8172.8
2966.56239	8142.7
2969.01186	8138.1
2971.45984	8116.7
2973.90632	8125.4
2976.35131	8100.3
2978.7948	8101.9
2981.23681	8057.7
2983.67732	8052.1
2986.11635	8015
2988.55388	8006.9
2990.98993	8001.1
2993.4245	7975.6
2995.85758	7980.7
2998.28917	7957.5
3000.71928	7949.3
3003.14791	7925
3005.57506	7916
3008.00073	7918.9
3010.42493	7918.9
3012.84764	7902.1
3015.26888	7911.2
3017.68865	7880.1
3020.10694	7872.7
3022.52376	7839.7
3024.9391	7849.9
3027.35298	7834.7
3029.76539	7844.6
3032.17632	7823.5
3034.5858	7796.9
3036.9938	7803.4
3039.40034	7820.7
3041.80542	7813
3044.20903	7805.2
3046.61118	7795.8
3049.01187	7788.6
3051.4111	7780.5
3053.80888	7766.5
3056.20519	7760.4
3058.60005	7728.5
3060.99345	7713.2
3063.3854	7707.3
3065.7759	7671.8
3068.16494	7658.1
3070.55254	7640.2
3072.93868	7643.1
3075.32338	7617.6
3077.70662	7619.5
3080.08842	7567
3082.46878	7597.8
3084.84769	7573.8
3087.22515	7565.7
3089.60118	7578.8
3091.97576	7563.8
3094.3489	7578.6
3096.72061	7578.6
3099.09087	7598.6
3101.4597	7562
3103.82709	7592
3106.19305	7560
3108.55757	7561.1
3110.92066	7549.6
3113.28232	7523.1
3115.64255	7524.1
3118.00134	7534.9
3120.35871	7506.3
3122.71466	7467.1
3125.06917	7472.1
3127.42226	7446.9
3129.77393	7461.6
3132.12417	7453.6
3134.47299	7482.4
3136.82039	7466.5
3139.16636	7463.9
3141.51092	7466.1
3143.85406	7476.8
3146.19579	7466.9
3148.53609	7487.6
3150.87499	7508.9
3153.21246	7493.5
3155.54853	7532.5
3157.88318	7501.6
3160.21642	7488.7
3162.54826	7507.9
3164.87868	7495.4
3167.2077	7513.9
3169.5353	7518.9
3171.86151	7512.7
3174.18631	7518.6
3176.5097	7518
3178.83169	7494.3
3181.15228	7494.8
3183.47147	7478.8
3185.78926	7476.9
3188.10565	7483.7
3190.42065	7479.2
3192.73424	7486.2
3195.04645	7486.8
3197.35725	7482.5
3199.66667	7487.6
3201.97469	7493.8
3204.28132	7500
3206.58656	7493.9
3208.8904	7501.1
3211.19287	7515.7
3213.49394	7524
3215.79363	7504.9
3218.09193	7518.6
3220.38884	7533.3
3222.68438	7534.7
3224.97853	7525.3
3227.2713	7522.5
3229.56269	7508.1
3231.8527	7514
3234.14133	7495.8
3236.42858	7488.3
3238.71446	7469.6
3240.99896	7469
3243.28209	7465.2
3245.56384	7459.3
3247.84423	7456.6
3250.12324	7451.3
3252.40088	7431.8
3254.67715	7434.5
3256.95205	7436.7
3259.22558	7437.2
3261.49775	7452.6
3263.76855	7430.5
3266.03799	7398.3
3268.30606	7404.5
3270.57277	7406.6
3272.83812	7385.9
3275.10211	7343.5
3277.36474	7356.1
3279.62601	7347.7
3281.88593	7343.4
3284.14448	7355.2
3286.40168	7354.8
3288.65753	7365.9
3290.91202	7351.3
3293.16516	7329.8
3295.41695	7312.4
3297.66738	7266.5
3299.91647	7238.5
3302.16421	7220.6
3304.4106	7151.7
3306.65564	7147.5
3308.89933	7117.4
3311.14169	7045.5
3313.38269	6996.2
3315.62236	6990.1
3317.86068	6907.6
3320.09766	6869.4
3322.3333	6830.4
3324.5676	6816.5
3326.80056	6701.5
3329.03219	6649.1
3331.26248	2.2
3333.49143	0.4
3335.71905	-0.6
