Data from AgNPs_FTO_APTES_UA_1uM_CRN_0uM_R6G_10uM_NaF_0.1M_Addition_RamanShift__6__11-12-39-409.txt Node

Date: Thu Jan 27 11:12:39 GMT 2022
User: TCL
Spectrometer: QEP01345
Trigger mode: 4
Integration Time (sec): 7.000000E0
Scans to average: 10
Electric dark correction enabled: true
Nonlinearity correction enabled: false
Boxcar width: 0
XAxis mode: Raman Shifts
Number of Pixels in Spectrum: 1044
>>>>>Begin Spectral Data<<<<<
46.04893	0.7
50.45542	0.5
54.85868	-0.5
59.25871	-1.7
63.6555	28.8
68.04907	27.2
72.43941	30.2
76.82654	32.7
81.21044	32.1
85.59113	33.8
89.96862	33.7
94.34289	36.1
98.71396	40
103.08183	36.6
107.4465	41.6
111.80798	44.6
116.16626	38.7
120.52136	46.7
124.87327	44.3
129.222	40.3
133.56755	43.1
137.90993	48.2
142.24913	49.9
146.58517	56.6
150.91804	65.1
155.24774	72.5
159.57429	82.6
163.89768	105.2
168.21792	139.6
172.53501	182.3
176.84895	239.1
181.15975	335.4
185.46741	459.2
189.77193	633
194.07331	846.2
198.37157	1105.1
202.6667	1378.1
206.9587	1650.8
211.24758	1904.7
215.53334	2174.4
219.81599	2442.9
224.09553	2717.4
228.37195	3014.6
232.64527	3356.4
236.91549	3698.8
241.18261	4056.7
245.44663	4378
249.70755	4670.1
253.96539	4923.7
258.22014	5122.8
262.4718	5274.4
266.72039	5372.3
270.96589	5406.1
275.20832	5376.3
279.44768	5284.9
283.68397	5187.2
287.91719	5083.2
292.14735	4983.9
296.37445	4942.1
300.59849	4958.2
304.81948	4970.4
309.03742	4977.7
313.25231	4965.8
317.46415	4886.8
321.67296	4780
325.87872	4688.9
330.08145	4620.9
334.28114	4623.2
338.47781	4643.3
342.67145	4685
346.86207	4739.4
351.04966	4824.5
355.23424	4915.8
359.4158	5036
363.59435	5086.8
367.76989	5122.7
371.94243	5139.1
376.11196	5142.4
380.27849	5160.2
384.44203	5156.7
388.60257	5146.4
392.76012	5152.7
396.91468	5156.6
401.06626	5185.8
405.21485	5230.8
409.36047	5199.3
413.50311	5111.5
417.64277	5015.5
421.77947	4937.8
425.9132	4908.1
430.04396	4916
434.17176	4936.6
438.2966	4979.3
442.41849	5052.5
446.53742	5132.2
450.6534	5194.9
454.76644	5250.2
458.87653	5243
462.98368	5251.7
467.08789	5218.2
471.18916	5191.1
475.2875	5158
479.38291	5109.3
483.4754	5107.6
487.56496	5071.9
491.6516	5076.3
495.73531	5080.7
499.81612	5070.4
503.89401	5119.3
507.96899	5150.7
512.04106	5196.1
516.11023	5234.8
520.1765	5272.2
524.23987	5255.8
528.30034	5224.4
532.35792	5184.6
536.41261	5166.4
540.46441	5113.5
544.51333	5099.7
548.55936	5099.3
552.60252	5127
556.64279	5172.1
560.6802	5211.3
564.71473	5200.3
568.7464	5226.9
572.7752	5261.8
576.80114	5207.6
580.82422	5124.9
584.84444	5102.8
588.86181	5117.1
592.87633	5191.4
596.888	5236.2
600.89682	5256.9
604.9028	5410.7
608.90594	5886.8
612.90624	6685.3
616.90371	6780.1
620.89834	5806.3
624.89015	5248.4
628.87913	5110.5
632.86528	5098.5
636.84862	5134.7
640.82913	5133.4
644.80683	5086.3
648.78172	5056.1
652.75379	5039.1
656.72306	5102.9
660.68952	5213.3
664.65319	5206.9
668.61405	5143.6
672.57211	5104.7
676.52738	5127.3
680.47986	5166.8
684.42955	5166.1
688.37646	5147.5
692.32058	5082.7
696.26192	5067.4
700.20048	5050
704.13626	5030.9
708.06928	5028.8
711.99952	5036.3
715.927	5048.5
719.85171	5058.3
723.77365	5113.7
727.69284	5101.9
731.60928	5118.5
735.52295	5109.4
739.43388	5101.2
743.34206	5112.6
747.24749	5096.3
751.15017	5108.5
755.05012	5113.5
758.94733	5147.3
762.8418	5274.2
766.73354	5563
770.62254	5924.6
774.50882	6152
778.39237	6085.5
782.27321	5732.9
786.15132	5366.3
790.02671	5154.9
793.89938	5064.5
797.76935	5044.1
801.6366	5034.5
805.50115	5008.6
809.36299	4988.8
813.22213	4933
817.07857	4889.9
820.93231	4867.3
824.78336	4845.7
828.63172	4853.8
832.47738	4868.6
836.32036	4871.6
840.16066	4863.6
843.99827	4829.6
847.8332	4827
851.66546	4820.1
855.49504	4777.7
859.32195	4769
863.1462	4773.4
866.96777	4739.2
870.78668	4730.7
874.60293	4731
878.41652	4726.5
882.22745	4727.1
886.03573	4732.2
889.84136	4752.4
893.64433	4748.4
897.44466	4770.9
901.24235	4782.6
905.0374	4795.2
908.8298	4805.2
912.61957	4837.6
916.40671	4903.6
920.19121	4968.5
923.97308	5052.7
927.75233	5092.3
931.52895	5133.4
935.30295	5110.6
939.07433	5045.6
942.84309	4965.3
946.60924	4907.8
950.37278	4846
954.13371	4817
957.89203	4737.8
961.64774	4694.9
965.40086	4654.3
969.15137	4603.9
972.89929	4573.5
976.64461	4557.7
980.38733	4527.1
984.12747	4513.2
987.86502	4522.4
991.59999	4541.8
995.33237	4564.2
999.06217	4619.5
1002.78939	4674.4
1006.51404	4707.3
1010.23611	4740.9
1013.95561	4760
1017.67255	4744.4
1021.38692	4721
1025.09872	4692.9
1028.80796	4645.2
1032.51465	4622.6
1036.21877	4595.2
1039.92035	4604.4
1043.61937	4589
1047.31584	4588.9
1051.00976	4603.3
1054.70114	4639.5
1058.38998	4642.6
1062.07627	4631.3
1065.76003	4622.8
1069.44126	4574.8
1073.11995	4568.6
1076.79611	4567.8
1080.46974	4557.6
1084.14085	4582.6
1087.80943	4602.7
1091.47549	4597.1
1095.13903	4548.4
1098.80005	4475.1
1102.45857	4407.2
1106.11456	4367.1
1109.76805	4341.5
1113.41903	4382.6
1117.06751	4419.3
1120.71348	4478.7
1124.35696	4562.1
1127.99793	4614.7
1131.63641	4651.4
1135.2724	4564.7
1138.90589	4444.9
1142.5369	4360.8
1146.16542	4290.8
1149.79145	4261.4
1153.415	4208.5
1157.03607	4210.6
1160.65467	4220.5
1164.27079	4272.6
1167.88443	4375.8
1171.49561	4530.6
1175.10432	4799.9
1178.71056	5200.6
1182.31434	5555
1185.91565	5665.3
1189.51451	5606.6
1193.11091	5414.2
1196.70485	5163.7
1200.29634	4942.5
1203.88538	4783.5
1207.47197	4570.1
1211.05612	4419.6
1214.63782	4316.2
1218.21708	4304.6
1221.79391	4319.6
1225.36829	4368.9
1228.94024	4426.8
1232.50976	4415.8
1236.07685	4388.3
1239.6415	4350.1
1243.20374	4344.6
1246.76355	4324.4
1250.32093	4322.2
1253.8759	4333.2
1257.42845	4373.4
1260.97859	4435.2
1264.52631	4490.4
1268.07163	4576.4
1271.61453	4654.9
1275.15503	4709
1278.69312	4761.1
1282.22882	4780.7
1285.76211	4876.8
1289.29301	4993.5
1292.82151	5114.2
1296.34761	5215.8
1299.87133	5328.8
1303.39266	5497.4
1306.9116	5765.7
1310.42815	6077
1313.94233	6289.7
1317.45412	6213.9
1320.96354	5881.7
1324.47058	5538.5
1327.97525	5238.1
1331.47754	5057
1334.97747	4999.7
1338.47502	5020.2
1341.97022	5105.4
1345.46305	5228.4
1348.95352	5456.6
1352.44163	5787.7
1355.92738	6223.5
1359.41078	6833
1362.89183	7475.8
1366.37053	7610.4
1369.84688	6927.5
1373.32088	6093.7
1376.79254	5507.7
1380.26186	5196.5
1383.72883	5065.4
1387.19347	4985.3
1390.65578	4884.2
1394.11575	4822.7
1397.57339	4776.2
1401.0287	4728
1404.48168	4683.3
1407.93234	4649.9
1411.38068	4614.5
1414.82669	4586.1
1418.27039	4568.2
1421.71177	4551.6
1425.15083	4490.1
1428.58758	4465.1
1432.02203	4427.2
1435.45416	4449.9
1438.88399	4469
1442.31151	4474.3
1445.73673	4443.7
1449.15965	4424.3
1452.58027	4407.7
1455.9986	4368.7
1459.41463	4350.2
1462.82837	4335.8
1466.23982	4376.7
1469.64898	4413.8
1473.05586	4460.1
1476.46045	4488.2
1479.86276	4511.9
1483.26279	4552.3
1486.66054	4586.8
1490.05602	4638.8
1493.44922	4734.1
1496.84016	4871.6
1500.22882	5113.9
1503.61521	5470.5
1506.99934	5904.3
1510.38121	6317.2
1513.76081	6538.8
1517.13816	6307.8
1520.51324	5760.2
1523.88607	5211.6
1527.25665	4828.6
1530.62498	4631.1
1533.99105	4501.1
1537.35488	4403.9
1540.71647	4348.8
1544.07581	4316.6
1547.4329	4281.9
1550.78776	4275.8
1554.14038	4280.5
1557.49077	4306.5
1560.83892	4326
1564.18484	4357.4
1567.52853	4418.7
1570.86999	4501.1
1574.20922	4591.7
1577.54624	4610
1580.88103	4508.1
1584.2136	4297.2
1587.54395	4138.5
1590.87208	4049.1
1594.19801	4058.6
1597.52172	4168.8
1600.84321	4233.9
1604.16251	4181.5
1607.47959	4052.7
1610.79447	3937
1614.10715	3800.3
1617.41763	3701.6
1620.7259	3638.5
1624.03199	3586.1
1627.33587	3569.2
1630.63757	3571
1633.93707	3612.9
1637.23439	3674.6
1640.52951	3790.4
1643.82246	4007.2
1647.11321	4295
1650.40179	4517.6
1653.68819	4474.3
1656.97241	4119.6
1660.25446	3675.5
1663.53433	3372.6
1666.81203	3195.2
1670.08756	3080.4
1673.36092	3013.5
1676.63211	2983.1
1679.90115	2928.7
1683.16801	2891.1
1686.43272	2844.5
1689.69527	2803.5
1692.95567	2745.8
1696.2139	2684.7
1699.46999	2588.1
1702.72392	2558.5
1705.97571	2597.6
1709.22535	2634.2
1712.47284	2671.9
1715.71819	2682.7
1718.96139	2680.4
1722.20246	2677.1
1725.44139	2665.9
1728.67818	2654
1731.91284	2628.7
1735.14537	2594.3
1738.37576	2594.1
1741.60403	2577.3
1744.83017	2552
1748.05418	2534.4
1751.27607	2528.4
1754.49584	2495
1757.71349	2446.8
1760.92903	2413.6
1764.14244	2397.3
1767.35375	2391.1
1770.56294	2373
1773.77002	2368.9
1776.97499	2381
1780.17785	2412.3
1783.37861	2426.9
1786.57727	2417.5
1789.77382	2438.6
1792.96828	2412
1796.16064	2415
1799.3509	2406.8
1802.53907	2406.3
1805.72514	2389.5
1808.90913	2382.8
1812.09102	2365.2
1815.27083	2362.3
1818.44856	2352.6
1821.6242	2340.5
1824.79776	2342
1827.96924	2334.5
1831.13864	2329.5
1834.30597	2312.1
1837.47122	2306.3
1840.6344	2313.8
1843.7955	2295.3
1846.95454	2298.5
1850.11151	2299.5
1853.26642	2285.6
1856.41926	2287.2
1859.57004	2287
1862.71876	2284.4
1865.86542	2286.1
1869.01003	2269.7
1872.15258	2263.8
1875.29308	2254.7
1878.43152	2249.6
1881.56792	2254
1884.70227	2231.8
1887.83457	2236.2
1890.96482	2232.6
1894.09304	2220.3
1897.21921	2220.8
1900.34335	2215.6
1903.46544	2222.4
1906.58551	2216.2
1909.70353	2198.8
1912.81953	2199.9
1915.93349	2192.3
1919.04543	2186.3
1922.15534	2178
1925.26322	2164.6
1928.36908	2170.8
1931.47292	2161
1934.57473	2148.5
1937.67453	2144.9
1940.77232	2134.6
1943.86808	2132.3
1946.96184	2111.2
1950.05358	2104.1
1953.14331	2101.1
1956.23103	2085.3
1959.31675	2092.2
1962.40046	2072
1965.48217	2057.5
1968.56188	2053.9
1971.63959	2044.1
1974.7153	2049.4
1977.78901	2045
1980.86073	2031.8
1983.93046	2015.7
1986.99819	2011.5
1990.06394	2007.7
1993.1277	1986.9
1996.18947	1984.3
1999.24925	1977.6
2002.30706	1973.7
2005.36288	1967.6
2008.41672	1948.2
2011.46859	1958.3
2014.51848	1945.1
2017.56639	1931.7
2020.61233	1935.9
2023.6563	1924.4
2026.6983	1912.9
2029.73833	1905
2032.7764	1896.7
2035.8125	1893.5
2038.84664	1883.3
2041.87881	1883.7
2044.90903	1875
2047.93729	1867.1
2050.96359	1875.3
2053.98794	1851.8
2057.01034	1853.5
2060.03078	1850.8
2063.04927	1847.4
2066.06582	1839.8
2069.08042	1842.6
2072.09307	1847.3
2075.10378	1837.5
2078.11255	1833.2
2081.11938	1829.9
2084.12426	1827.9
2087.12722	1830
2090.12824	1827.7
2093.12732	1822.3
2096.12447	1820.1
2099.11969	1808.3
2102.11299	1812.5
2105.10435	1818.4
2108.09379	1805.2
2111.08131	1811.4
2114.0669	1814.4
2117.05057	1811.1
2120.03233	1802.7
2123.01216	1798.2
2125.99008	1811.8
2128.96609	1810.6
2131.94018	1803.5
2134.91236	1798.9
2137.88263	1804.9
2140.851	1807.2
2143.81746	1791
2146.78201	1800.8
2149.74466	1783.6
2152.7054	1794
2155.66425	1787.2
2158.6212	1787.5
2161.57625	1791.4
2164.52941	1773.9
2167.48067	1775.9
2170.43004	1783
2173.37752	1771.9
2176.32311	1767.3
2179.26681	1775.4
2182.20863	1765.3
2185.14856	1773.3
2188.08661	1762.9
2191.02278	1765.8
2193.95707	1756.9
2196.88948	1751.1
2199.82001	1748.6
2202.74867	1743.6
2205.67545	1737.2
2208.60037	1739.7
2211.52341	1740.2
2214.44458	1719.9
2217.36388	1719.3
2220.28132	1718.3
2223.1969	1701.6
2226.11061	1697.3
2229.02246	1690.9
2231.93245	1692.2
2234.84058	1684.7
2237.74686	1684.5
2240.65128	1687
2243.55385	1669.2
2246.45456	1671.5
2249.35343	1666.9
2252.25044	1659
2255.14561	1662.9
2258.03893	1647.9
2260.93041	1629.3
2263.82004	1630.1
2266.70783	1638.1
2269.59378	1615.5
2272.4779	1632.5
2275.36017	1631.2
2278.24061	1618.7
2281.11922	1609.3
2283.996	1610.2
2286.87094	1602.4
2289.74405	1601.7
2292.61534	1596.7
2295.4848	1581
2298.35243	1582.4
2301.21824	1570
2304.08223	1567.8
2306.94439	1578
2309.80474	1576
2312.66327	1562.2
2315.51999	1570.9
2318.37489	1576.6
2321.22797	1556.1
2324.07925	1549.8
2326.92871	1548.1
2329.77637	1553.1
2332.62222	1537.6
2335.46626	1529.2
2338.3085	1538.8
2341.14893	1531.5
2343.98756	1515.8
2346.8244	1519.2
2349.65943	1516
2352.49267	1515.8
2355.32411	1514.4
2358.15376	1515.5
2360.98161	1506.7
2363.80768	1510.9
2366.63195	1512
2369.45444	1508.4
2372.27514	1512
2375.09405	1511.3
2377.91118	1499.5
2380.72652	1491.1
2383.54009	1488.6
2386.35187	1495.2
2389.16188	1477.7
2391.97011	1472.7
2394.77657	1455.4
2397.58125	1463.2
2400.38416	1457.1
2403.18529	1451.2
2405.98466	1455.9
2408.78226	1440.7
2411.57809	1432.6
2414.37216	1438.7
2417.16446	1428.9
2419.955	1426.8
2422.74378	1424.8
2425.5308	1435.2
2428.31606	1420.5
2431.09956	1423.3
2433.88131	1421.2
2436.6613	1416
2439.43954	1415.8
2442.21603	1410.9
2444.99077	1412.1
2447.76377	1407
2450.53501	1414
2453.30451	1406.6
2456.07226	1392.6
2458.83827	1388.2
2461.60254	1387.9
2464.36507	1382.7
2467.12586	1387
2469.88492	1382
2472.64224	1386.7
2475.39782	1365.3
2478.15167	1363.3
2480.90379	1361.9
2483.65417	1367.8
2486.40283	1373.9
2489.14976	1366.3
2491.89497	1373.4
2494.63845	1359.1
2497.3802	1350
2500.12024	1350.3
2502.85855	1345.7
2505.59514	1350.8
2508.33002	1345.6
2511.06318	1344.3
2513.79462	1339.2
2516.52435	1338.4
2519.25237	1334.7
2521.97867	1315.1
2524.70327	1323.2
2527.42616	1311.5
2530.14734	1309.4
2532.86681	1311.6
2535.58458	1313.6
2538.30065	1306.6
2541.01501	1304.3
2543.72768	1296.4
2546.43864	1300.6
2549.14791	1301.7
2551.85548	1301.6
2554.56136	1287.6
2557.26554	1293.7
2559.96803	1288.5
2562.66883	1286.7
2565.36794	1285.3
2568.06536	1277.8
2570.7611	1277.5
2573.45514	1273.8
2576.14751	1275.6
2578.83819	1269.1
2581.52719	1272.5
2584.21451	1267.2
2586.90015	1258
2589.58411	1249.6
2592.2664	1243.1
2594.94701	1248.2
2597.62594	1249.2
2600.30321	1242.5
2602.9788	1239.8
2605.65273	1231.3
2608.32498	1234.7
2610.99557	1228.2
2613.66449	1236.6
2616.33175	1235
2618.99734	1229.8
2621.66128	1222.2
2624.32355	1216.8
2626.98416	1225.7
2629.64311	1218.8
2632.30041	1216.9
2634.95605	1210.8
2637.61004	1207.6
2640.26238	1206.1
2642.91306	1200.5
2645.56209	1200.1
2648.20948	1202.4
2650.85521	1203.4
2653.4993	1208.7
2656.14175	1204.3
2658.78255	1214.7
2661.42171	1204.4
2664.05923	1202.8
2666.6951	1201.9
2669.32934	1208.3
2671.96194	1201.9
2674.59291	1210.4
2677.22224	1208.9
2679.84993	1207.6
2682.476	1209.9
2685.10043	1195.8
2687.72324	1193.7
2690.34441	1204.7
2692.96396	1198.2
2695.58188	1209.4
2698.19818	1210.4
2700.81285	1203.6
2703.4259	1192.8
2706.03733	1130.3
2708.64714	1153.3
2711.25533	1182.2
2713.86191	1195.3
2716.46687	1215.3
2719.07021	1221.9
2721.67194	1223.6
2724.27206	1224.3
2726.87057	1231.7
2729.46747	1231
2732.06276	1231.2
2734.65644	1232.9
2737.24852	1239.8
2739.83899	1250.2
2742.42786	1253.8
2745.01513	1251.7
2747.60079	1258
2750.18486	1254.6
2752.76733	1253.7
2755.3482	1251.3
2757.92747	1262.2
2760.50515	1261.4
2763.08123	1258.6
2765.65573	1245.3
2768.22863	1261.4
2770.79994	1257.4
2773.36967	1252.7
2775.9378	1259.6
2778.50435	1257.6
2781.06932	1247.4
2783.6327	1253.8
2786.1945	1262
2788.75471	1254.6
2791.31335	1252.3
2793.87041	1251.2
2796.42589	1256
2798.97979	1260.4
2801.53212	1248.5
2804.08288	1252.2
2806.63206	1249.5
2809.17967	1247.4
2811.72571	1244.6
2814.27018	1238.3
2816.81308	1244.2
2819.35442	1241.5
2821.89419	1241.7
2824.43239	1234.5
2826.96904	1242.4
2829.50412	1240.3
2832.03763	1242
2834.56959	1239.6
2837.1	1241.7
2839.62884	1235.4
2842.15613	1251.8
2844.68186	1265
2847.20604	1274.3
2849.72867	1289.9
2852.24974	1294
2854.76927	1302.8
2857.28724	1286.1
2859.80367	1317.7
2862.31855	1324.4
2864.83189	1341.9
2867.34368	1342.2
2869.85393	1361.7
2872.36264	1376.7
2874.8698	1381.6
2877.37543	1390.7
2879.87952	1391.1
2882.38207	1410.8
2884.88308	1406.8
2887.38256	1417.9
2889.88051	1412.7
2892.37692	1419.2
2894.8718	1422.6
2897.36515	1417.5
2899.85698	1421.1
2902.34727	1422.1
2904.83604	1423.5
2907.32328	1434.3
2909.809	1432
2912.29319	1432.2
2914.77587	1441.7
2917.25702	1449
2919.73665	1452.2
2922.21476	1453.6
2924.69136	1459.7
2927.16644	1455.6
2929.64	1450.4
2932.11205	1458.4
2934.58258	1451.9
2937.05161	1432.1
2939.51912	1429.4
2941.98513	1405.8
2944.44962	1400.1
2946.91261	1371.4
2949.37409	1351.5
2951.83407	1331.7
2954.29254	1313.6
2956.74951	1295.5
2959.20498	1273.9
2961.65895	1252.6
2964.11142	1236.8
2966.56239	1219.1
2969.01186	1205.1
2971.45984	1186.4
2973.90632	1179.9
2976.35131	1170.1
2978.7948	1142.8
2981.23681	1143.9
2983.67732	1130.3
2986.11635	1116.7
2988.55388	1112.5
2990.98993	1098.3
2993.4245	1091.5
2995.85758	1088.3
2998.28917	1083.4
3000.71928	1075.8
3003.14791	1066.4
3005.57506	1068.9
3008.00073	1067.7
3010.42493	1059.4
3012.84764	1052.1
3015.26888	1046.6
3017.68865	1048.7
3020.10694	1045.7
3022.52376	1045.4
3024.9391	1043.7
3027.35298	1039.2
3029.76539	1043.2
3032.17632	1048.3
3034.5858	1031.5
3036.9938	1030.8
3039.40034	1029.5
3041.80542	1032.5
3044.20903	1023.9
3046.61118	1031.3
3049.01187	1030.1
3051.4111	1024.3
3053.80888	1031.9
3056.20519	1031
3058.60005	1032.2
3060.99345	1022.4
3063.3854	1023.9
3065.7759	1021
3068.16494	1022.8
3070.55254	1021
3072.93868	1026.5
3075.32338	1029.5
3077.70662	1019.7
3080.08842	1030.4
3082.46878	1030.5
3084.84769	1036.4
3087.22515	1038
3089.60118	1039.3
3091.97576	1041.7
3094.3489	1043.1
3096.72061	1037.6
3099.09087	1048.2
3101.4597	1056.6
3103.82709	1051.6
3106.19305	1062.5
3108.55757	1066.7
3110.92066	1065.7
3113.28232	1062.2
3115.64255	1073.9
3118.00134	1071.9
3120.35871	1067.6
3122.71466	1069.6
3125.06917	1077.6
3127.42226	1080.6
3129.77393	1082.3
3132.12417	1090.3
3134.47299	1087.9
3136.82039	1108.1
3139.16636	1106.6
3141.51092	1107.8
3143.85406	1120.5
3146.19579	1123.8
3148.53609	1121.5
3150.87499	1132.3
3153.21246	1138.2
3155.54853	1138.9
3157.88318	1149.3
3160.21642	1157.1
3162.54826	1159.6
3164.87868	1163.1
3167.2077	1163.1
3169.5353	1171.4
3171.86151	1163.2
3174.18631	1167.4
3176.5097	1177.1
3178.83169	1178.6
3181.15228	1183.3
3183.47147	1180.5
3185.78926	1195.3
3188.10565	1192
3190.42065	1191.8
3192.73424	1198.2
3195.04645	1206.8
3197.35725	1206.4
3199.66667	1204.3
3201.97469	1213.3
3204.28132	1218.9
3206.58656	1218.9
3208.8904	1230.6
3211.19287	1229.8
3213.49394	1237.8
3215.79363	1241.6
3218.09193	1248.6
3220.38884	1230.5
3222.68438	1218
3224.97853	1226.3
3227.2713	1247.1
3229.56269	1237
3231.8527	1247
3234.14133	1249.5
3236.42858	1249.5
3238.71446	1255.8
3240.99896	1250.5
3243.28209	1252.9
3245.56384	1253.8
3247.84423	1266.1
3250.12324	1254.6
3252.40088	1263.3
3254.67715	1258.1
3256.95205	1266.8
3259.22558	1266.8
3261.49775	1264.5
3263.76855	1271.8
3266.03799	1273
3268.30606	1267.9
3270.57277	1278.3
3272.83812	1268.6
3275.10211	1272
3277.36474	1266.5
3279.62601	1262.7
3281.88593	1263.2
3284.14448	1267.9
3286.40168	1254.3
3288.65753	1256.5
3290.91202	1257.4
3293.16516	1248.4
3295.41695	1249
3297.66738	1232.3
3299.91647	1228.2
3302.16421	1220.2
3304.4106	1212.4
3306.65564	1213.3
3308.89933	1211
3311.14169	1189.9
3313.38269	1174.8
3315.62236	1173.1
3317.86068	1164
3320.09766	1160
3322.3333	1148.6
3324.5676	1149.4
3326.80056	1108.5
3329.03219	1109.7
3331.26248	0.1
3333.49143	0.3
3335.71905	-0.2
