Data from AgNPs_FTO_APTES_UA_1uM_CRN_0uM_R6G_10uM_NaF_0.1M_Addition_RamanShift__30__11-40-39-442.txt Node

Date: Thu Jan 27 11:40:39 GMT 2022
User: TCL
Spectrometer: QEP01345
Trigger mode: 4
Integration Time (sec): 7.000000E0
Scans to average: 10
Electric dark correction enabled: true
Nonlinearity correction enabled: false
Boxcar width: 0
XAxis mode: Raman Shifts
Number of Pixels in Spectrum: 1044
>>>>>Begin Spectral Data<<<<<
46.04893	0.3
50.45542	-0.3
54.85868	0.2
59.25871	-1.6
63.6555	44
68.04907	48.9
72.43941	48.7
76.82654	53.5
81.21044	51.9
85.59113	54.4
89.96862	56.2
94.34289	60
98.71396	63.2
103.08183	60.5
107.4465	66.8
111.80798	68.3
116.16626	65.5
120.52136	75.8
124.87327	75.2
129.222	71.8
133.56755	79.5
137.90993	81.5
142.24913	92.7
146.58517	100.8
150.91804	114.7
155.24774	137.2
159.57429	166
163.89768	212.2
168.21792	277.6
172.53501	380.7
176.84895	516
181.15975	727.2
185.46741	1009.7
189.77193	1391.5
194.07331	1861.3
198.37157	2401.2
202.6667	2982.3
206.9587	3528.6
211.24758	4090.3
215.53334	4654.3
219.81599	5240.5
224.09553	5879.9
228.37195	6596.6
232.64527	7382.6
236.91549	8223.1
241.18261	9067.8
245.44663	9864.8
249.70755	10503.7
253.96539	11108.2
258.22014	11614
262.4718	11988.6
266.72039	12238.4
270.96589	12347.4
275.20832	12321.7
279.44768	12170.4
283.68397	12007.1
287.91719	11892
292.14735	11788.7
296.37445	11737.7
300.59849	11756.8
304.81948	11849.9
309.03742	11901.2
313.25231	11939.7
317.46415	11841.4
321.67296	11646.3
325.87872	11520.5
330.08145	11401.9
334.28114	11373.5
338.47781	11436.3
342.67145	11573.5
346.86207	11762.3
351.04966	12004.4
355.23424	12239.5
359.4158	12479.9
363.59435	12603.2
367.76989	12678.2
371.94243	12737.2
376.11196	12714.2
380.27849	12739
384.44203	12775.4
388.60257	12836.4
392.76012	12954.2
396.91468	13126.3
401.06626	13311.2
405.21485	13461.8
409.36047	13425.9
413.50311	13352.4
417.64277	13411.4
421.77947	13541.3
425.9132	13464.2
430.04396	13449.1
434.17176	13496.4
438.2966	13528.7
442.41849	13677.8
446.53742	14005.9
450.6534	14335.9
454.76644	14562.6
458.87653	14567.4
462.98368	14434.5
467.08789	14295.2
471.18916	13994.2
475.2875	13726
479.38291	13488.9
483.4754	13345.8
487.56496	13232
491.6516	13176.7
495.73531	13139.7
499.81612	13200.9
503.89401	13316.9
507.96899	13418.6
512.04106	13387.1
516.11023	13294.9
520.1765	13184.8
524.23987	13116.3
528.30034	13029.4
532.35792	12923.3
536.41261	12755.2
540.46441	12621
544.51333	12567
548.55936	12626.6
552.60252	12853.5
556.64279	13152.7
560.6802	13369.6
564.71473	13431.4
568.7464	13535
572.7752	13792.1
576.80114	14172
580.82422	14698.9
584.84444	15506.6
588.86181	16662.1
592.87633	17697.9
596.888	17765.4
600.89682	16623.1
604.9028	15873.1
608.90594	16493
612.90624	17628.3
616.90371	16798.1
620.89834	14438.5
624.89015	13259.9
628.87913	13106.1
632.86528	13191.6
636.84862	13189.1
640.82913	12966.7
644.80683	12710.6
648.78172	12556.1
652.75379	12590.1
656.72306	12749.8
660.68952	12937.6
664.65319	12884.8
668.61405	12629
672.57211	12638.7
676.52738	12697
680.47986	12694.4
684.42955	12582.7
688.37646	12505.8
692.32058	12568.4
696.26192	12785.7
700.20048	12975.2
704.13626	13095.2
708.06928	13069.9
711.99952	13041.3
715.927	13027.3
719.85171	13096.2
723.77365	13035.6
727.69284	12847.3
731.60928	12648
735.52295	12545.6
739.43388	12537.8
743.34206	12608.1
747.24749	12699.8
751.15017	12830.8
755.05012	12989.9
758.94733	13298.3
762.8418	13889.1
766.73354	14716.2
770.62254	15562.9
774.50882	15741.6
778.39237	15190.7
782.27321	14349.6
786.15132	13633.8
790.02671	13115.4
793.89938	12899.2
797.76935	12767.4
801.6366	12698.5
805.50115	12660
809.36299	12624.2
813.22213	12514.5
817.07857	12423.4
820.93231	12364
824.78336	12315.8
828.63172	12258
832.47738	12257.7
836.32036	12237
840.16066	12253.9
843.99827	12243.4
847.8332	12250
851.66546	12269.8
855.49504	12283.9
859.32195	12308.1
863.1462	12273.6
866.96777	12259.6
870.78668	12240.8
874.60293	12280.5
878.41652	12303.3
882.22745	12321.2
886.03573	12394.9
889.84136	12443
893.64433	12374.4
897.44466	12318.1
901.24235	12286.1
905.0374	12260.7
908.8298	12234.4
912.61957	12233.1
916.40671	12308.6
920.19121	12433.6
923.97308	12571.7
927.75233	12699.7
931.52895	12613.3
935.30295	12453.3
939.07433	12211.4
942.84309	12063.1
946.60924	11964.2
950.37278	11966.2
954.13371	11972.5
957.89203	11931.8
961.64774	11937.1
965.40086	11914.8
969.15137	11892
972.89929	11866.1
976.64461	11804.7
980.38733	11837.7
984.12747	11857
987.86502	11891.8
991.59999	11948.2
995.33237	12047.5
999.06217	12222.3
1002.78939	12474.5
1006.51404	12734.3
1010.23611	13032.7
1013.95561	13184.8
1017.67255	13218.2
1021.38692	13096.4
1025.09872	12863.2
1028.80796	12682.6
1032.51465	12661.6
1036.21877	12714.2
1039.92035	12753.1
1043.61937	12767.6
1047.31584	12731
1051.00976	12730
1054.70114	12723.4
1058.38998	12747.8
1062.07627	12809.9
1065.76003	12929.9
1069.44126	13077.9
1073.11995	13324.5
1076.79611	13571
1080.46974	13728.8
1084.14085	13828.5
1087.80943	13984.5
1091.47549	14091.6
1095.13903	14075.4
1098.80005	13853.3
1102.45857	13513.3
1106.11456	13256.8
1109.76805	13158
1113.41903	13123.2
1117.06751	13151.3
1120.71348	13244.6
1124.35696	13370.6
1127.99793	13511.1
1131.63641	13615.9
1135.2724	13552.4
1138.90589	13513.4
1142.5369	13471.9
1146.16542	13568
1149.79145	13649.7
1153.415	13700
1157.03607	13791.9
1160.65467	14071.3
1164.27079	14657.9
1167.88443	15358.9
1171.49561	16132.3
1175.10432	17014.9
1178.71056	18192.7
1182.31434	19348
1185.91565	19909.7
1189.51451	19757.8
1193.11091	19263.3
1196.70485	18673.9
1200.29634	18033
1203.88538	17556.9
1207.47197	17268
1211.05612	17037.6
1214.63782	16701.5
1218.21708	16306.6
1221.79391	15931.9
1225.36829	15707.5
1228.94024	15631.5
1232.50976	15523.7
1236.07685	15274
1239.6415	15072.8
1243.20374	14989.8
1246.76355	15040.9
1250.32093	15221.8
1253.8759	15505.1
1257.42845	15887.5
1260.97859	16380.2
1264.52631	16851.5
1268.07163	17357.9
1271.61453	17806.7
1275.15503	18271.1
1278.69312	18724.8
1282.22882	19256.4
1285.76211	19919.2
1289.29301	20645.9
1292.82151	21487.5
1296.34761	22503.3
1299.87133	23775
1303.39266	25071.4
1306.9116	26231.2
1310.42815	27131.2
1313.94233	27541
1317.45412	27265.7
1320.96354	26493.3
1324.47058	25723.8
1327.97525	25234
1331.47754	24925
1334.97747	24672.9
1338.47502	24382.8
1341.97022	23956.1
1345.46305	23618.9
1348.95352	23525.6
1352.44163	23859.7
1355.92738	24806.5
1359.41078	26209.3
1362.89183	27536.9
1366.37053	27654.7
1369.84688	25805
1373.32088	22831.1
1376.79254	20488.8
1380.26186	19523.2
1383.72883	19375.4
1387.19347	19323.7
1390.65578	18853.2
1394.11575	18662.9
1397.57339	18758.9
1401.0287	19085.1
1404.48168	19370.9
1407.93234	19403.6
1411.38068	19178.1
1414.82669	18776.3
1418.27039	18180.9
1421.71177	17596
1425.15083	17173.8
1428.58758	17026.1
1432.02203	17229.1
1435.45416	17720.8
1438.88399	18186.3
1442.31151	18468.5
1445.73673	18505.8
1449.15965	18396.2
1452.58027	18268.2
1455.9986	18053.8
1459.41463	18099.3
1462.82837	18359.7
1466.23982	18804.5
1469.64898	19159.4
1473.05586	19448.2
1476.46045	19566.3
1479.86276	19541.3
1483.26279	19445.2
1486.66054	19445.4
1490.05602	19563.5
1493.44922	19828.2
1496.84016	20112.7
1500.22882	20455.9
1503.61521	20955
1506.99934	21532
1510.38121	22049.7
1513.76081	22179.6
1517.13816	21798
1520.51324	21116.8
1523.88607	20548.6
1527.25665	20276
1530.62498	20141.2
1533.99105	19966.9
1537.35488	19604
1540.71647	19132.8
1544.07581	18585.5
1547.4329	18107
1550.78776	17674.8
1554.14038	17421.6
1557.49077	17279
1560.83892	17211.9
1564.18484	17195.3
1567.52853	17244.3
1570.86999	17362.3
1574.20922	17653.3
1577.54624	17816.9
1580.88103	17886.8
1584.2136	17937.2
1587.54395	18431
1590.87208	19489.6
1594.19801	20812.4
1597.52172	22174.2
1600.84321	22530.3
1604.16251	21533
1607.47959	19771.5
1610.79447	17962.3
1614.10715	16394.1
1617.41763	15220.2
1620.7259	14440.3
1624.03199	14100.1
1627.33587	14106.9
1630.63757	14480.9
1633.93707	15295.8
1637.23439	16767.7
1640.52951	19136.7
1643.82246	22053.9
1647.11321	24509.7
1650.40179	24963.4
1653.68819	22978.1
1656.97241	19614.8
1660.25446	16576.5
1663.53433	14478
1666.81203	13245.7
1670.08756	12511.2
1673.36092	12086.6
1676.63211	11808.5
1679.90115	11584.7
1683.16801	11459.2
1686.43272	11345
1689.69527	11252.6
1692.95567	11145.9
1696.2139	11046.6
1699.46999	10980.9
1702.72392	10910.5
1705.97571	10934.4
1709.22535	10973.6
1712.47284	11030.5
1715.71819	11017.7
1718.96139	10964.6
1722.20246	10958.7
1725.44139	10926.9
1728.67818	10868.5
1731.91284	10782.3
1735.14537	10742
1738.37576	10666
1741.60403	10634.9
1744.83017	10611.7
1748.05418	10565.7
1751.27607	10538.1
1754.49584	10490.2
1757.71349	10489.1
1760.92903	10461.6
1764.14244	10420.6
1767.35375	10421.6
1770.56294	10404.9
1773.77002	10413.2
1776.97499	10396.4
1780.17785	10392.8
1783.37861	10415.6
1786.57727	10423.9
1789.77382	10418.2
1792.96828	10380.7
1796.16064	10376.6
1799.3509	10351.4
1802.53907	10322.2
1805.72514	10305.9
1808.90913	10272.1
1812.09102	10274.2
1815.27083	10220.9
1818.44856	10225.5
1821.6242	10243.2
1824.79776	10217.3
1827.96924	10190.3
1831.13864	10201.9
1834.30597	10203.2
1837.47122	10206.2
1840.6344	10204.1
1843.7955	10208.9
1846.95454	10191
1850.11151	10209
1853.26642	10177.8
1856.41926	10174.6
1859.57004	10186.7
1862.71876	10186.9
1865.86542	10134.9
1869.01003	10137.9
1872.15258	10134.9
1875.29308	10125.6
1878.43152	10120.4
1881.56792	10081.7
1884.70227	10068.2
1887.83457	10061.1
1890.96482	10055.5
1894.09304	10050.1
1897.21921	10030.7
1900.34335	10031.3
1903.46544	10022.8
1906.58551	9998.9
1909.70353	9964.7
1912.81953	9969.6
1915.93349	9955.5
1919.04543	9916.5
1922.15534	9891.9
1925.26322	9878.9
1928.36908	9837.9
1931.47292	9810.9
1934.57473	9826.7
1937.67453	9795.6
1940.77232	9777
1943.86808	9735
1946.96184	9695.4
1950.05358	9687.1
1953.14331	9673.6
1956.23103	9644.6
1959.31675	9618.2
1962.40046	9599.4
1965.48217	9563.9
1968.56188	9535
1971.63959	9515.9
1974.7153	9509.5
1977.78901	9458.2
1980.86073	9419.1
1983.93046	9408.5
1986.99819	9363.7
1990.06394	9344.8
1993.1277	9311.7
1996.18947	9300
1999.24925	9265.1
2002.30706	9226.1
2005.36288	9211.9
2008.41672	9197.5
2011.46859	9159.9
2014.51848	9127.8
2017.56639	9104.2
2020.61233	9089
2023.6563	9063.9
2026.6983	9057.3
2029.73833	9037.1
2032.7764	9019.7
2035.8125	8992.9
2038.84664	8972.1
2041.87881	8971.2
2044.90903	8951.7
2047.93729	8917.8
2050.96359	8926.4
2053.98794	8898.8
2057.01034	8899.9
2060.03078	8901.7
2063.04927	8884.1
2066.06582	8907.2
2069.08042	8890.3
2072.09307	8897.6
2075.10378	8885.6
2078.11255	8879.7
2081.11938	8885.7
2084.12426	8872.1
2087.12722	8889.9
2090.12824	8871
2093.12732	8869.5
2096.12447	8875.5
2099.11969	8883.8
2102.11299	8866.9
2105.10435	8879.4
2108.09379	8897.5
2111.08131	8882.4
2114.0669	8902
2117.05057	8899.6
2120.03233	8904
2123.01216	8921.9
2125.99008	8912.2
2128.96609	8910.4
2131.94018	8936.1
2134.91236	8922.6
2137.88263	8922.3
2140.851	8928.4
2143.81746	8943
2146.78201	8940.5
2149.74466	8937.2
2152.7054	8937.2
2155.66425	8943.4
2158.6212	8938.4
2161.57625	8946.1
2164.52941	8941.4
2167.48067	8894.4
2170.43004	8925.6
2173.37752	8912.8
2176.32311	8915.2
2179.26681	8930.8
2182.20863	8914.6
2185.14856	8914.8
2188.08661	8924.8
2191.02278	8915.9
2193.95707	8889.3
2196.88948	8886.7
2199.82001	8881.7
2202.74867	8869.4
2205.67545	8896.6
2208.60037	8855.1
2211.52341	8845.6
2214.44458	8846.7
2217.36388	8815.2
2220.28132	8805.2
2223.1969	8781.3
2226.11061	8794.3
2229.02246	8762.7
2231.93245	8743.3
2234.84058	8749
2237.74686	8745.1
2240.65128	8729.9
2243.55385	8739.7
2246.45456	8708
2249.35343	8692.2
2252.25044	8688
2255.14561	8670.4
2258.03893	8646.4
2260.93041	8630.9
2263.82004	8597.5
2266.70783	8580.5
2269.59378	8565.1
2272.4779	8555.2
2275.36017	8552.9
2278.24061	8528.3
2281.11922	8523.6
2283.996	8506.6
2286.87094	8485.7
2289.74405	8460.4
2292.61534	8466
2295.4848	8442.9
2298.35243	8459.6
2301.21824	8444.3
2304.08223	8463.2
2306.94439	8451.5
2309.80474	8443.1
2312.66327	8446.7
2315.51999	8407.6
2318.37489	8449.2
2321.22797	8416.7
2324.07925	8418.4
2326.92871	8391
2329.77637	8403.3
2332.62222	8372.9
2335.46626	8347.4
2338.3085	8349
2341.14893	8343.2
2343.98756	8339.3
2346.8244	8342.3
2349.65943	8330.6
2352.49267	8319.9
2355.32411	8332.2
2358.15376	8308.8
2360.98161	8316.9
2363.80768	8304.1
2366.63195	8334.5
2369.45444	8329.2
2372.27514	8328.9
2375.09405	8319
2377.91118	8283.9
2380.72652	8249.1
2383.54009	8227
2386.35187	8240.6
2389.16188	8218
2391.97011	8182.4
2394.77657	8160.1
2397.58125	8159.7
2400.38416	8160.8
2403.18529	8144.9
2405.98466	8134.8
2408.78226	8110.9
2411.57809	8118
2414.37216	8108
2417.16446	8099.2
2419.955	8106
2422.74378	8102.7
2425.5308	8091.8
2428.31606	8104.2
2431.09956	8090.1
2433.88131	8055.1
2436.6613	8068.6
2439.43954	8083.4
2442.21603	8061.2
2444.99077	8042.6
2447.76377	8057.4
2450.53501	8067.5
2453.30451	8055.8
2456.07226	8022.4
2458.83827	8040.6
2461.60254	8026.3
2464.36507	8021.2
2467.12586	8018.4
2469.88492	8016.1
2472.64224	8021
2475.39782	8020.6
2478.15167	7993.3
2480.90379	8002.2
2483.65417	8025.6
2486.40283	7988.6
2489.14976	8036.6
2491.89497	8030.4
2494.63845	7998.8
2497.3802	8002.6
2500.12024	8012.5
2502.85855	7985.2
2505.59514	7976.6
2508.33002	7970.2
2511.06318	7964.5
2513.79462	7965.1
2516.52435	7947.4
2519.25237	7949.8
2521.97867	7931.9
2524.70327	7937.5
2527.42616	7917.8
2530.14734	7917.7
2532.86681	7929.1
2535.58458	7905.6
2538.30065	7894.1
2541.01501	7900.7
2543.72768	7900
2546.43864	7877
2549.14791	7876.6
2551.85548	7872.1
2554.56136	7856.5
2557.26554	7828.5
2559.96803	7833.6
2562.66883	7846.6
2565.36794	7815.1
2568.06536	7818.5
2570.7611	7819.7
2573.45514	7795.5
2576.14751	7797.6
2578.83819	7773.9
2581.52719	7781.1
2584.21451	7774.5
2586.90015	7758.5
2589.58411	7751.1
2592.2664	7729.5
2594.94701	7732.2
2597.62594	7723.2
2600.30321	7693.9
2602.9788	7698
2605.65273	7702.3
2608.32498	7697.7
2610.99557	7690.4
2613.66449	7701.5
2616.33175	7687
2618.99734	7682.7
2621.66128	7657.3
2624.32355	7631.6
2626.98416	7636.1
2629.64311	7629.7
2632.30041	7615
2634.95605	7618.9
2637.61004	7612.2
2640.26238	7597
2642.91306	7613.3
2645.56209	7588.1
2648.20948	7598.7
2650.85521	7598.6
2653.4993	7608.2
2656.14175	7633.9
2658.78255	7600.9
2661.42171	7621.1
2664.05923	7628.8
2666.6951	7636.5
2669.32934	7649.9
2671.96194	7625.6
2674.59291	7635.3
2677.22224	7621.9
2679.84993	7634.5
2682.476	7615.6
2685.10043	7623.9
2687.72324	7607.8
2690.34441	7605.6
2692.96396	7607.2
2695.58188	7623.5
2698.19818	7600.4
2700.81285	7615.5
2703.4259	7612.4
2706.03733	7578.5
2708.64714	7588.9
2711.25533	7602.5
2713.86191	7598.5
2716.46687	7624.7
2719.07021	7619.9
2721.67194	7608.2
2724.27206	7656.4
2726.87057	7644.3
2729.46747	7648.6
2732.06276	7629.6
2734.65644	7661.1
2737.24852	7662.4
2739.83899	7634.1
2742.42786	7636.1
2745.01513	7609.1
2747.60079	7628.6
2750.18486	7603.7
2752.76733	7617.6
2755.3482	7589.4
2757.92747	7616.8
2760.50515	7598
2763.08123	7581.4
2765.65573	7595.3
2768.22863	7583.8
2770.79994	7570.9
2773.36967	7583.8
2775.9378	7590.1
2778.50435	7569.8
2781.06932	7565.6
2783.6327	7555.5
2786.1945	7560.3
2788.75471	7540.3
2791.31335	7527.5
2793.87041	7510.7
2796.42589	7487
2798.97979	7515.2
2801.53212	7483.3
2804.08288	7489.1
2806.63206	7463.2
2809.17967	7430.4
2811.72571	7417.5
2814.27018	7437.8
2816.81308	7404.8
2819.35442	7400.2
2821.89419	7386.3
2824.43239	7374
2826.96904	7375.8
2829.50412	7370.6
2832.03763	7361
2834.56959	7370.2
2837.1	7357.8
2839.62884	7367.6
2842.15613	7332.4
2844.68186	7375.6
2847.20604	7368.8
2849.72867	7373.6
2852.24974	7359.9
2854.76927	7374.6
2857.28724	7347.6
2859.80367	7341
2862.31855	7344.2
2864.83189	7347.3
2867.34368	7305.2
2869.85393	7327.3
2872.36264	7311.3
2874.8698	7317.8
2877.37543	7336.3
2879.87952	7311.5
2882.38207	7319.6
2884.88308	7323.8
2887.38256	7347.3
2889.88051	7325.6
2892.37692	7340.2
2894.8718	7327.9
2897.36515	7345.7
2899.85698	7357.4
2902.34727	7370.6
2904.83604	7357.8
2907.32328	7378.2
2909.809	7344.1
2912.29319	7359.8
2914.77587	7374.4
2917.25702	7345.9
2919.73665	7366
2922.21476	7368.2
2924.69136	7339.8
2927.16644	7341.3
2929.64	7339
2932.11205	7321.8
2934.58258	7314.7
2937.05161	7322.4
2939.51912	7347.4
2941.98513	7311.7
2944.44962	7271.3
2946.91261	7271.1
2949.37409	7272.2
2951.83407	7233.1
2954.29254	7250.8
2956.74951	7245.8
2959.20498	7237.3
2961.65895	7206.5
2964.11142	7199.5
2966.56239	7180.3
2969.01186	7179.2
2971.45984	7173.5
2973.90632	7148.7
2976.35131	7135.6
2978.7948	7121.9
2981.23681	7116.4
2983.67732	7088.5
2986.11635	7079
2988.55388	7053.3
2990.98993	7020.8
2993.4245	7014.7
2995.85758	6995.1
2998.28917	6991.4
3000.71928	6959.8
3003.14791	6944.5
3005.57506	6940.5
3008.00073	6915.8
3010.42493	6931.8
3012.84764	6926.1
3015.26888	6906
3017.68865	6907.5
3020.10694	6882.2
3022.52376	6870.3
3024.9391	6850
3027.35298	6866.6
3029.76539	6858.9
3032.17632	6840.4
3034.5858	6823.6
3036.9938	6827.1
3039.40034	6829.3
3041.80542	6819.8
3044.20903	6797.3
3046.61118	6793.5
3049.01187	6778.9
3051.4111	6790.5
3053.80888	6774.9
3056.20519	6725.6
3058.60005	6732.3
3060.99345	6726.2
3063.3854	6698.3
3065.7759	6682.9
3068.16494	6684.3
3070.55254	6656.3
3072.93868	6665.9
3075.32338	6637.1
3077.70662	6616.7
3080.08842	6609.1
3082.46878	6632.6
3084.84769	6623.8
3087.22515	6581.6
3089.60118	6591.9
3091.97576	6582.7
3094.3489	6600.4
3096.72061	6592.8
3099.09087	6581.9
3101.4597	6584.1
3103.82709	6582.7
3106.19305	6573.7
3108.55757	6578.4
3110.92066	6550.8
3113.28232	6546.6
3115.64255	6520.6
3118.00134	6538.1
3120.35871	6528.3
3122.71466	6509.5
3125.06917	6492.2
3127.42226	6469.4
3129.77393	6486.8
3132.12417	6478.2
3134.47299	6474.5
3136.82039	6457.9
3139.16636	6460.3
3141.51092	6473.4
3143.85406	6478.7
3146.19579	6473.3
3148.53609	6483.5
3150.87499	6489.3
3153.21246	6491.6
3155.54853	6495.9
3157.88318	6507.3
3160.21642	6507.2
3162.54826	6482.4
3164.87868	6488.7
3167.2077	6479.7
3169.5353	6482.9
3171.86151	6484.4
3174.18631	6501.8
3176.5097	6468.4
3178.83169	6458.2
3181.15228	6473.7
3183.47147	6430.9
3185.78926	6458.2
3188.10565	6440.9
3190.42065	6446
3192.73424	6446.1
3195.04645	6422.6
3197.35725	6435.2
3199.66667	6417.8
3201.97469	6418.4
3204.28132	6422
3206.58656	6443.9
3208.8904	6434.3
3211.19287	6444
3213.49394	6443.6
3215.79363	6442.9
3218.09193	6431.8
3220.38884	6440.7
3222.68438	6428.4
3224.97853	6429.6
3227.2713	6414.7
3229.56269	6421.6
3231.8527	6425.4
3234.14133	6429.9
3236.42858	6409.2
3238.71446	6404.1
3240.99896	6394.9
3243.28209	6366.7
3245.56384	6360.3
3247.84423	6375.6
3250.12324	6363.7
3252.40088	6360.5
3254.67715	6343.2
3256.95205	6333.1
3259.22558	6339
3261.49775	6312.9
3263.76855	6321.4
3266.03799	6292.1
3268.30606	6310.8
3270.57277	6299.5
3272.83812	6287
3275.10211	6279.1
3277.36474	6239
3279.62601	6250.6
3281.88593	6212.2
3284.14448	6248.3
3286.40168	6238.4
3288.65753	6252.4
3290.91202	6232.8
3293.16516	6230.4
3295.41695	6203.9
3297.66738	6171.7
3299.91647	6130.4
3302.16421	6103.8
3304.4106	6058.7
3306.65564	6039.8
3308.89933	6005.9
3311.14169	5967.8
3313.38269	5903.9
3315.62236	5864.2
3317.86068	5793.1
3320.09766	5775.7
3322.3333	5738
3324.5676	5719.8
3326.80056	5612.3
3329.03219	5593.9
3331.26248	2.9
3333.49143	-0.1
3335.71905	-1.3
