Data from AgNPs_FTO_APTES_UA_1uM_CRN_200uM_R6G_10uM_NaF_0.1M_Addition_RamanShift__32__17-42-19-855.txt Node

Date: Thu Jan 27 17:42:19 GMT 2022
User: TCL
Spectrometer: QEP01345
Trigger mode: 4
Integration Time (sec): 7.000000E0
Scans to average: 10
Electric dark correction enabled: true
Nonlinearity correction enabled: false
Boxcar width: 0
XAxis mode: Raman Shifts
Number of Pixels in Spectrum: 1044
>>>>>Begin Spectral Data<<<<<
46.04893	1.7
50.45542	1.6
54.85868	-1.6
59.25871	-1.2
63.6555	29.1
68.04907	31.9
72.43941	37.3
76.82654	38.7
81.21044	38.6
85.59113	43.1
89.96862	42.9
94.34289	45.3
98.71396	45.9
103.08183	44.9
107.4465	50.8
111.80798	50.2
116.16626	51.1
120.52136	53.1
124.87327	50.4
129.222	49.8
133.56755	50
137.90993	49.8
142.24913	53
146.58517	57.8
150.91804	62
155.24774	65.9
159.57429	75.2
163.89768	87.4
168.21792	112.3
172.53501	143.5
176.84895	192.6
181.15975	266.5
185.46741	357.1
189.77193	483.3
194.07331	647.1
198.37157	833.9
202.6667	1030.8
206.9587	1213.9
211.24758	1405.7
215.53334	1608.1
219.81599	1833.2
224.09553	2075.1
228.37195	2350.9
232.64527	2641.9
236.91549	2956.2
241.18261	3217.7
245.44663	3444.1
249.70755	3613.5
253.96539	3749.5
258.22014	3876.7
262.4718	3989.6
266.72039	4068.6
270.96589	4115.1
275.20832	4110.2
279.44768	4054.4
283.68397	3977.6
287.91719	3916.8
292.14735	3916.4
296.37445	3999.9
300.59849	4155.3
304.81948	4358.3
309.03742	4539.8
313.25231	4534.7
317.46415	4312.7
321.67296	3950.1
325.87872	3669.4
330.08145	3538.8
334.28114	3511.8
338.47781	3580.4
342.67145	3692.6
346.86207	3871.9
351.04966	4139.3
355.23424	4430.3
359.4158	4643.6
363.59435	4740.7
367.76989	4758.1
371.94243	4755.8
376.11196	4723.3
380.27849	4689.3
384.44203	4622.5
388.60257	4539
392.76012	4483
396.91468	4527.3
401.06626	4645.1
405.21485	4763.2
409.36047	4679.7
413.50311	4402.1
417.64277	4144.5
421.77947	3986.1
425.9132	3904.5
430.04396	3869.6
434.17176	3869.7
438.2966	3932.6
442.41849	4031.5
446.53742	4147.8
450.6534	4239.1
454.76644	4324.9
458.87653	4322.3
462.98368	4286
467.08789	4232
471.18916	4146
475.2875	4050.7
479.38291	3980.6
483.4754	3903.3
487.56496	3857.4
491.6516	3831.5
495.73531	3834.8
499.81612	3835.5
503.89401	3887.9
507.96899	3957.5
512.04106	4020
516.11023	4121.1
520.1765	4207.1
524.23987	4197.2
528.30034	4096.4
532.35792	3987.2
536.41261	3886.1
540.46441	3768.2
544.51333	3708.7
548.55936	3731
552.60252	3789
556.64279	3880.2
560.6802	3943.2
564.71473	4012.9
568.7464	4184.5
572.7752	4308.2
576.80114	4177.1
580.82422	3974.9
584.84444	3897.8
588.86181	3882.6
592.87633	3886.2
596.888	3919.9
600.89682	4057.6
604.9028	4532.2
608.90594	5860.7
612.90624	7771.8
616.90371	7745.3
620.89834	5357.4
624.89015	4119.8
628.87913	3875.5
632.86528	3852.7
636.84862	3938.3
640.82913	3917.9
644.80683	3764.6
648.78172	3652.9
652.75379	3671.4
656.72306	3845.7
660.68952	4076.2
664.65319	4044.5
668.61405	3820.7
672.57211	3693.5
676.52738	3713.1
680.47986	3709.5
684.42955	3694.4
688.37646	3698.5
692.32058	3678.7
696.26192	3711.2
700.20048	3738.6
704.13626	3768.5
708.06928	3749.4
711.99952	3694.1
715.927	3676
719.85171	3683.5
723.77365	3680.3
727.69284	3664.7
731.60928	3632.6
735.52295	3619.7
739.43388	3647.6
743.34206	3649.3
747.24749	3668.1
751.15017	3678.7
755.05012	3765.8
758.94733	3933.5
762.8418	4332.1
766.73354	5067.2
770.62254	5907.1
774.50882	6433.5
778.39237	6261.3
782.27321	5440.4
786.15132	4534.5
790.02671	3999.7
793.89938	3795.5
797.76935	3706.3
801.6366	3659.8
805.50115	3633
809.36299	3634
813.22213	3619.6
817.07857	3619.5
820.93231	3595.6
824.78336	3613.7
828.63172	3634
832.47738	3653.6
836.32036	3648
840.16066	3608.9
843.99827	3599.2
847.8332	3583.7
851.66546	3567.7
855.49504	3581.1
859.32195	3569.2
863.1462	3553.5
866.96777	3538.7
870.78668	3538.8
874.60293	3543.6
878.41652	3545.8
882.22745	3550.8
886.03573	3596
889.84136	3606.6
893.64433	3559.4
897.44466	3551
901.24235	3540.4
905.0374	3530.9
908.8298	3493.3
912.61957	3482.3
916.40671	3495.4
920.19121	3530.4
923.97308	3575.2
927.75233	3615.3
931.52895	3669.6
935.30295	3650.1
939.07433	3534.9
942.84309	3424.4
946.60924	3346.4
950.37278	3304.6
954.13371	3295.1
957.89203	3264.4
961.64774	3233.5
965.40086	3227.6
969.15137	3225.3
972.89929	3213.5
976.64461	3209.6
980.38733	3201.3
984.12747	3196.6
987.86502	3205.2
991.59999	3227.6
995.33237	3249
999.06217	3288.6
1002.78939	3348.7
1006.51404	3384.6
1010.23611	3457.1
1013.95561	3494.5
1017.67255	3477.6
1021.38692	3460.3
1025.09872	3413.3
1028.80796	3387.6
1032.51465	3383.2
1036.21877	3417.4
1039.92035	3474.8
1043.61937	3500.8
1047.31584	3520.7
1051.00976	3518.8
1054.70114	3502.2
1058.38998	3488.6
1062.07627	3499.5
1065.76003	3508.8
1069.44126	3525.8
1073.11995	3568.1
1076.79611	3620.7
1080.46974	3685.7
1084.14085	3791.5
1087.80943	3855
1091.47549	3903.1
1095.13903	3836
1098.80005	3681.5
1102.45857	3564.3
1106.11456	3514.2
1109.76805	3527.9
1113.41903	3618.7
1117.06751	3766.4
1120.71348	3915.1
1124.35696	4152.6
1127.99793	4334.6
1131.63641	4333.1
1135.2724	4072.2
1138.90589	3830
1142.5369	3677.3
1146.16542	3590.2
1149.79145	3528.1
1153.415	3527.8
1157.03607	3545.5
1160.65467	3621.7
1164.27079	3722.3
1167.88443	3924
1171.49561	4248
1175.10432	4815.8
1178.71056	5555.6
1182.31434	6018.4
1185.91565	6047
1189.51451	5801.4
1193.11091	5402.1
1196.70485	4928.1
1200.29634	4615
1203.88538	4407.3
1207.47197	4127.9
1211.05612	3892.4
1214.63782	3769
1218.21708	3727.8
1221.79391	3732.3
1225.36829	3750.7
1228.94024	3794.7
1232.50976	3810
1236.07685	3844.5
1239.6415	3847.8
1243.20374	3857.8
1246.76355	3855.9
1250.32093	3895.3
1253.8759	3955.6
1257.42845	4035.1
1260.97859	4148
1264.52631	4264.7
1268.07163	4408.7
1271.61453	4518.5
1275.15503	4589.9
1278.69312	4586
1282.22882	4584.4
1285.76211	4646.7
1289.29301	4798.3
1292.82151	4969.7
1296.34761	5112.5
1299.87133	5334.8
1303.39266	5773.6
1306.9116	6428.1
1310.42815	7245
1313.94233	7774.8
1317.45412	7595.8
1320.96354	6990.5
1324.47058	6309.1
1327.97525	5727.4
1331.47754	5393.6
1334.97747	5258.3
1338.47502	5222
1341.97022	5322.1
1345.46305	5551.3
1348.95352	6026.6
1352.44163	6669.3
1355.92738	7523.8
1359.41078	8772.4
1362.89183	9993.3
1366.37053	9821.1
1369.84688	8258.7
1373.32088	6627.9
1376.79254	5593.2
1380.26186	5060.8
1383.72883	4758.4
1387.19347	4566.3
1390.65578	4330
1394.11575	4133.1
1397.57339	4026.7
1401.0287	3989.5
1404.48168	4016.5
1407.93234	4039
1411.38068	4055.7
1414.82669	4066.9
1418.27039	4048.7
1421.71177	4039.5
1425.15083	4006.2
1428.58758	3988.6
1432.02203	4004.6
1435.45416	4048
1438.88399	4080.5
1442.31151	4059.7
1445.73673	4038
1449.15965	4057.7
1452.58027	4039.1
1455.9986	3993.4
1459.41463	3967.5
1462.82837	3977
1466.23982	4039
1469.64898	4111
1473.05586	4180.1
1476.46045	4221.5
1479.86276	4310.6
1483.26279	4429.4
1486.66054	4572
1490.05602	4740.8
1493.44922	4989.7
1496.84016	5413.9
1500.22882	6053.9
1503.61521	6924
1506.99934	7855.2
1510.38121	8812.7
1513.76081	9303.8
1517.13816	8881.9
1520.51324	7643.3
1523.88607	6369.2
1527.25665	5488.7
1530.62498	5030.8
1533.99105	4745.3
1537.35488	4590
1540.71647	4493.7
1544.07581	4437.4
1547.4329	4426.2
1550.78776	4439.5
1554.14038	4442.9
1557.49077	4501.5
1560.83892	4605.1
1564.18484	4742.4
1567.52853	4952.1
1570.86999	5126.8
1574.20922	5249.5
1577.54624	5236.1
1580.88103	4971.6
1584.2136	4519.1
1587.54395	4253.7
1590.87208	4185.8
1594.19801	4327.6
1597.52172	4616.7
1600.84321	4785.1
1604.16251	4638.9
1607.47959	4392.2
1610.79447	4102.7
1614.10715	3865.7
1617.41763	3626.2
1620.7259	3477.8
1624.03199	3414.3
1627.33587	3411.3
1630.63757	3467.4
1633.93707	3582.1
1637.23439	3765.1
1640.52951	4077.3
1643.82246	4577.1
1647.11321	5238.7
1650.40179	5837.8
1653.68819	5831.4
1656.97241	5119.8
1660.25446	4250.2
1663.53433	3633.2
1666.81203	3292.4
1670.08756	3090
1673.36092	2984.9
1676.63211	2922.4
1679.90115	2881.7
1683.16801	2836.8
1686.43272	2800.7
1689.69527	2760.5
1692.95567	2732.2
1696.2139	2687.7
1699.46999	2636
1702.72392	2626.6
1705.97571	2630.4
1709.22535	2654
1712.47284	2693
1715.71819	2707.3
1718.96139	2736.2
1722.20246	2721.5
1725.44139	2742.2
1728.67818	2700.4
1731.91284	2671.7
1735.14537	2646.4
1738.37576	2636.1
1741.60403	2619
1744.83017	2598.5
1748.05418	2580.7
1751.27607	2572.8
1754.49584	2550.7
1757.71349	2528.9
1760.92903	2498
1764.14244	2480.9
1767.35375	2481.1
1770.56294	2465.6
1773.77002	2465.9
1776.97499	2460.9
1780.17785	2472.6
1783.37861	2483
1786.57727	2477.3
1789.77382	2471
1792.96828	2462.3
1796.16064	2465.2
1799.3509	2456.3
1802.53907	2449.2
1805.72514	2449.7
1808.90913	2437.8
1812.09102	2427.2
1815.27083	2427.7
1818.44856	2417.6
1821.6242	2416.9
1824.79776	2404.6
1827.96924	2404.4
1831.13864	2403.3
1834.30597	2386
1837.47122	2388.2
1840.6344	2395.2
1843.7955	2390.1
1846.95454	2371.3
1850.11151	2374.5
1853.26642	2372.6
1856.41926	2364.4
1859.57004	2378.8
1862.71876	2361.3
1865.86542	2366.8
1869.01003	2369.5
1872.15258	2368.9
1875.29308	2362.6
1878.43152	2359.2
1881.56792	2355.9
1884.70227	2359.8
1887.83457	2360.1
1890.96482	2352.6
1894.09304	2344.6
1897.21921	2344.6
1900.34335	2343.1
1903.46544	2331.8
1906.58551	2339.3
1909.70353	2330.9
1912.81953	2333.4
1915.93349	2345.6
1919.04543	2331.9
1922.15534	2317.5
1925.26322	2318.9
1928.36908	2314.6
1931.47292	2303.6
1934.57473	2298.7
1937.67453	2291
1940.77232	2275.2
1943.86808	2267.4
1946.96184	2260.6
1950.05358	2254.5
1953.14331	2230.1
1956.23103	2229.2
1959.31675	2231.8
1962.40046	2219.9
1965.48217	2213.1
1968.56188	2193.9
1971.63959	2198.1
1974.7153	2197.5
1977.78901	2192.4
1980.86073	2178.4
1983.93046	2174.1
1986.99819	2161.6
1990.06394	2148.6
1993.1277	2143.6
1996.18947	2135.6
1999.24925	2134.3
2002.30706	2120.8
2005.36288	2126.3
2008.41672	2116.5
2011.46859	2106.5
2014.51848	2108
2017.56639	2088.3
2020.61233	2093.5
2023.6563	2081.4
2026.6983	2068.3
2029.73833	2071.5
2032.7764	2069
2035.8125	2059.6
2038.84664	2046.6
2041.87881	2047.1
2044.90903	2038.6
2047.93729	2038.4
2050.96359	2034.3
2053.98794	2027.7
2057.01034	2022.2
2060.03078	2017.2
2063.04927	2020.3
2066.06582	2018.7
2069.08042	2019.8
2072.09307	2018.9
2075.10378	2013
2078.11255	2009.1
2081.11938	2013.3
2084.12426	2004.2
2087.12722	2012.8
2090.12824	1999.7
2093.12732	2010
2096.12447	2000.8
2099.11969	2000.5
2102.11299	1995.9
2105.10435	1996.1
2108.09379	2010.5
2111.08131	1990.6
2114.0669	2002.4
2117.05057	2000.4
2120.03233	2006
2123.01216	2001.7
2125.99008	2007.2
2128.96609	2008.3
2131.94018	2009.1
2134.91236	2013.4
2137.88263	1999.9
2140.851	2005.5
2143.81746	2006.4
2146.78201	1996.8
2149.74466	2003.6
2152.7054	2005.7
2155.66425	2006.9
2158.6212	2009.2
2161.57625	1998.3
2164.52941	1992.1
2167.48067	1988
2170.43004	1980.3
2173.37752	1999.8
2176.32311	1991
2179.26681	1990
2182.20863	1983.3
2185.14856	1991.4
2188.08661	1987.1
2191.02278	1985.8
2193.95707	1985.1
2196.88948	1973.6
2199.82001	1972.9
2202.74867	1961
2205.67545	1969.6
2208.60037	1964.3
2211.52341	1968
2214.44458	1953.4
2217.36388	1956
2220.28132	1952.4
2223.1969	1939.6
2226.11061	1942.5
2229.02246	1933.5
2231.93245	1928.3
2234.84058	1926.9
2237.74686	1915.8
2240.65128	1923.9
2243.55385	1906.4
2246.45456	1914.5
2249.35343	1917.3
2252.25044	1905.8
2255.14561	1912.2
2258.03893	1905.6
2260.93041	1897.4
2263.82004	1899
2266.70783	1900
2269.59378	1884.9
2272.4779	1872.2
2275.36017	1874
2278.24061	1870.3
2281.11922	1863.9
2283.996	1865.2
2286.87094	1853.3
2289.74405	1858.7
2292.61534	1846.5
2295.4848	1842.8
2298.35243	1841.3
2301.21824	1834.8
2304.08223	1849.1
2306.94439	1839.4
2309.80474	1832.2
2312.66327	1843
2315.51999	1835.3
2318.37489	1832.5
2321.22797	1815.1
2324.07925	1818.5
2326.92871	1813.4
2329.77637	1822
2332.62222	1823.5
2335.46626	1813.6
2338.3085	1813.5
2341.14893	1808.7
2343.98756	1807.2
2346.8244	1804.2
2349.65943	1802.4
2352.49267	1813.9
2355.32411	1813
2358.15376	1804.7
2360.98161	1813.5
2363.80768	1812.4
2366.63195	1814.8
2369.45444	1819.8
2372.27514	1820
2375.09405	1821.4
2377.91118	1812.7
2380.72652	1797.2
2383.54009	1782.4
2386.35187	1792.8
2389.16188	1770.9
2391.97011	1765.7
2394.77657	1760.1
2397.58125	1752
2400.38416	1746.2
2403.18529	1745.7
2405.98466	1745.2
2408.78226	1747.1
2411.57809	1737.7
2414.37216	1732.5
2417.16446	1718.7
2419.955	1734
2422.74378	1726.4
2425.5308	1728.7
2428.31606	1732.5
2431.09956	1739.8
2433.88131	1729.2
2436.6613	1714.6
2439.43954	1724.1
2442.21603	1722.5
2444.99077	1722.8
2447.76377	1728.5
2450.53501	1725.1
2453.30451	1725.9
2456.07226	1720.7
2458.83827	1719
2461.60254	1723.5
2464.36507	1729.1
2467.12586	1713.1
2469.88492	1702
2472.64224	1715
2475.39782	1708
2478.15167	1705.1
2480.90379	1702.9
2483.65417	1710.7
2486.40283	1718.9
2489.14976	1717.3
2491.89497	1731.3
2494.63845	1715.9
2497.3802	1713.8
2500.12024	1719.8
2502.85855	1710.6
2505.59514	1713.5
2508.33002	1706.6
2511.06318	1685.1
2513.79462	1686.7
2516.52435	1676.3
2519.25237	1674.2
2521.97867	1664.9
2524.70327	1660.4
2527.42616	1658.6
2530.14734	1651.6
2532.86681	1651.8
2535.58458	1645.4
2538.30065	1640
2541.01501	1646.5
2543.72768	1652.3
2546.43864	1639.6
2549.14791	1661.7
2551.85548	1641.4
2554.56136	1639.4
2557.26554	1638
2559.96803	1633
2562.66883	1629.8
2565.36794	1629
2568.06536	1630.6
2570.7611	1636.2
2573.45514	1628.2
2576.14751	1629.3
2578.83819	1616.1
2581.52719	1608
2584.21451	1606.8
2586.90015	1609.5
2589.58411	1601.4
2592.2664	1595.3
2594.94701	1605.5
2597.62594	1593.4
2600.30321	1591.7
2602.9788	1589.2
2605.65273	1585.5
2608.32498	1580.4
2610.99557	1579
2613.66449	1584.4
2616.33175	1585.4
2618.99734	1578.8
2621.66128	1584.5
2624.32355	1581.4
2626.98416	1571.6
2629.64311	1569
2632.30041	1570.3
2634.95605	1555.6
2637.61004	1551.3
2640.26238	1555.8
2642.91306	1549.6
2645.56209	1545.5
2648.20948	1536.1
2650.85521	1550.6
2653.4993	1543.4
2656.14175	1550.6
2658.78255	1548.9
2661.42171	1556.8
2664.05923	1559
2666.6951	1558.8
2669.32934	1556.7
2671.96194	1556
2674.59291	1558.4
2677.22224	1554.8
2679.84993	1562.6
2682.476	1559.9
2685.10043	1570.8
2687.72324	1567.4
2690.34441	1555.8
2692.96396	1561.4
2695.58188	1557.4
2698.19818	1561.3
2700.81285	1555.8
2703.4259	1574.9
2706.03733	1563.2
2708.64714	1554.3
2711.25533	1563.4
2713.86191	1569
2716.46687	1578.2
2719.07021	1580
2721.67194	1576.8
2724.27206	1584.8
2726.87057	1587.5
2729.46747	1588.6
2732.06276	1584.8
2734.65644	1568.3
2737.24852	1569.1
2739.83899	1568.5
2742.42786	1569.2
2745.01513	1555.6
2747.60079	1554.5
2750.18486	1554.4
2752.76733	1548.7
2755.3482	1542.9
2757.92747	1552.6
2760.50515	1536
2763.08123	1532.7
2765.65573	1536.4
2768.22863	1536.7
2770.79994	1535.5
2773.36967	1527.6
2775.9378	1520.8
2778.50435	1524.7
2781.06932	1545.1
2783.6327	1521.2
2786.1945	1521.6
2788.75471	1530.7
2791.31335	1528.8
2793.87041	1530.4
2796.42589	1525.1
2798.97979	1530
2801.53212	1536
2804.08288	1530
2806.63206	1540.3
2809.17967	1531
2811.72571	1547.2
2814.27018	1541.7
2816.81308	1556.6
2819.35442	1551.1
2821.89419	1554.7
2824.43239	1563.2
2826.96904	1569.7
2829.50412	1577.1
2832.03763	1588.3
2834.56959	1587.5
2837.1	1602.1
2839.62884	1633.6
2842.15613	1655.7
2844.68186	1729.9
2847.20604	1785
2849.72867	1839
2852.24974	1866.9
2854.76927	1861.6
2857.28724	1855.8
2859.80367	1838.6
2862.31855	1833
2864.83189	1810.7
2867.34368	1805
2869.85393	1796.1
2872.36264	1804.1
2874.8698	1784.2
2877.37543	1790
2879.87952	1788.5
2882.38207	1792.9
2884.88308	1785.2
2887.38256	1783.2
2889.88051	1783.1
2892.37692	1786.1
2894.8718	1786.2
2897.36515	1793.6
2899.85698	1812.6
2902.34727	1807
2904.83604	1812
2907.32328	1803.6
2909.809	1796.3
2912.29319	1797.3
2914.77587	1806.9
2917.25702	1793.6
2919.73665	1795.5
2922.21476	1793.3
2924.69136	1791.7
2927.16644	1786.1
2929.64	1784.9
2932.11205	1779.4
2934.58258	1769.6
2937.05161	1757
2939.51912	1738.6
2941.98513	1721.8
2944.44962	1683.4
2946.91261	1643.1
2949.37409	1627.8
2951.83407	1604.2
2954.29254	1584.8
2956.74951	1574.3
2959.20498	1571.8
2961.65895	1553.4
2964.11142	1555.6
2966.56239	1548.3
2969.01186	1531.4
2971.45984	1523.1
2973.90632	1510.2
2976.35131	1498.7
2978.7948	1499.3
2981.23681	1495.9
2983.67732	1489.9
2986.11635	1475.5
2988.55388	1474.6
2990.98993	1468.1
2993.4245	1463
2995.85758	1457.3
2998.28917	1457.9
3000.71928	1450.6
3003.14791	1455
3005.57506	1442.3
3008.00073	1448.1
3010.42493	1431.8
3012.84764	1443.7
3015.26888	1447.5
3017.68865	1447.4
3020.10694	1442.2
3022.52376	1434.7
3024.9391	1444.4
3027.35298	1449.6
3029.76539	1431.9
3032.17632	1434.7
3034.5858	1438.1
3036.9938	1439.3
3039.40034	1436.5
3041.80542	1437.7
3044.20903	1436.8
3046.61118	1431.6
3049.01187	1434.3
3051.4111	1440.9
3053.80888	1440.5
3056.20519	1440.7
3058.60005	1442.9
3060.99345	1446.3
3063.3854	1444.3
3065.7759	1440.4
3068.16494	1445.5
3070.55254	1448.6
3072.93868	1452.4
3075.32338	1442.7
3077.70662	1439.4
3080.08842	1441.6
3082.46878	1442.8
3084.84769	1438.6
3087.22515	1436.3
3089.60118	1443.9
3091.97576	1431.8
3094.3489	1440
3096.72061	1442.6
3099.09087	1444.9
3101.4597	1446
3103.82709	1447.2
3106.19305	1448.1
3108.55757	1452.5
3110.92066	1458.4
3113.28232	1451.7
3115.64255	1454.1
3118.00134	1461.8
3120.35871	1462.2
3122.71466	1462.2
3125.06917	1473.4
3127.42226	1473
3129.77393	1476.4
3132.12417	1480.7
3134.47299	1490.5
3136.82039	1494.9
3139.16636	1499.8
3141.51092	1503.2
3143.85406	1504.3
3146.19579	1514.8
3148.53609	1522.3
3150.87499	1534.2
3153.21246	1544.7
3155.54853	1547.2
3157.88318	1559.4
3160.21642	1562.4
3162.54826	1564.4
3164.87868	1562.5
3167.2077	1567.8
3169.5353	1586.7
3171.86151	1580.6
3174.18631	1575.2
3176.5097	1580.7
3178.83169	1593.8
3181.15228	1596.9
3183.47147	1608.4
3185.78926	1602.1
3188.10565	1610.5
3190.42065	1616.7
3192.73424	1623.6
3195.04645	1620.9
3197.35725	1626.2
3199.66667	1622.4
3201.97469	1627
3204.28132	1644.9
3206.58656	1641.3
3208.8904	1647.4
3211.19287	1662
3213.49394	1662
3215.79363	1662.1
3218.09193	1668
3220.38884	1673.4
3222.68438	1666.9
3224.97853	1669.4
3227.2713	1672.6
3229.56269	1676.7
3231.8527	1684.9
3234.14133	1677.8
3236.42858	1676.7
3238.71446	1675.8
3240.99896	1678.4
3243.28209	1680.8
3245.56384	1681.9
3247.84423	1675.3
3250.12324	1676.6
3252.40088	1683.7
3254.67715	1678.6
3256.95205	1677.5
3259.22558	1681
3261.49775	1681.3
3263.76855	1673.6
3266.03799	1669.7
3268.30606	1673.1
3270.57277	1675.2
3272.83812	1658.3
3275.10211	1664.4
3277.36474	1669.8
3279.62601	1660.9
3281.88593	1670.1
3284.14448	1663.1
3286.40168	1674.3
3288.65753	1666.6
3290.91202	1673
3293.16516	1662.7
3295.41695	1654.1
3297.66738	1648.9
3299.91647	1639.5
3302.16421	1627.1
3304.4106	1623.1
3306.65564	1627
3308.89933	1611
3311.14169	1604.1
3313.38269	1590.4
3315.62236	1583
3317.86068	1571.3
3320.09766	1561.7
3322.3333	1548.6
3324.5676	1546.7
3326.80056	1528
3329.03219	1507.5
3331.26248	-0.1
3333.49143	0.2
3335.71905	-0.5
