Data from AgNPs_FTO_APTES_UA_1uM_CRN_500uM_R6G_10uM_NaF_0.1M_Addition_RamanShift__5__17-50-29-865.txt Node

Date: Thu Jan 27 17:50:29 GMT 2022
User: TCL
Spectrometer: QEP01345
Trigger mode: 4
Integration Time (sec): 7.000000E0
Scans to average: 10
Electric dark correction enabled: true
Nonlinearity correction enabled: false
Boxcar width: 0
XAxis mode: Raman Shifts
Number of Pixels in Spectrum: 1044
>>>>>Begin Spectral Data<<<<<
46.04893	-0.4625
50.45542	0.8375
54.85868	-1.7625
59.25871	-1.0625
63.6555	40.5375
68.04907	43.8375
72.43941	46.7375
76.82654	49.0375
81.21044	50.0375
85.59113	52.4375
89.96862	52.7375
94.34289	52.6375
98.71396	62.5375
103.08183	58.2375
107.4465	62.2375
111.80798	65.2375
116.16626	64.3375
120.52136	71.1375
124.87327	67.0375
129.222	67.4375
133.56755	69.5375
137.90993	73.2375
142.24913	79.8375
146.58517	87.8375
150.91804	97.2375
155.24774	113.1375
159.57429	131.8375
163.89768	160.4375
168.21792	211.2375
172.53501	285.2375
176.84895	383.7375
181.15975	534.3375
185.46741	747.7375
189.77193	1028.9375
194.07331	1382.9375
198.37157	1788.2375
202.6667	2206.6375
206.9587	2626.4375
211.24758	3041.9375
215.53334	3451.0375
219.81599	3874.9375
224.09553	4354.8375
228.37195	4873.0375
232.64527	5447.1375
236.91549	6053.2375
241.18261	6658.1375
245.44663	7251.2375
249.70755	7771.3375
253.96539	8202.0375
258.22014	8585.3375
262.4718	8861.7375
266.72039	9075.1375
270.96589	9166.1375
275.20832	9141.2375
279.44768	9048.7375
283.68397	8941.4375
287.91719	8813.6375
292.14735	8707.1375
296.37445	8677.7375
300.59849	8683.9375
304.81948	8755.0375
309.03742	8759.6375
313.25231	8702.1375
317.46415	8579.2375
321.67296	8388.9375
325.87872	8227.1375
330.08145	8129.6375
334.28114	8109.8375
338.47781	8150.2375
342.67145	8270.5375
346.86207	8370.5375
351.04966	8525.5375
355.23424	8706.2375
359.4158	8806.0375
363.59435	8928.8375
367.76989	8969.0375
371.94243	9049.6375
376.11196	9080.4375
380.27849	9130.4375
384.44203	9202.1375
388.60257	9270.5375
392.76012	9351.8375
396.91468	9445.6375
401.06626	9558.5375
405.21485	9680.9375
409.36047	9665.2375
413.50311	9565.3375
417.64277	9491.7375
421.77947	9503.0375
425.9132	9542.1375
430.04396	9601.7375
434.17176	9626.6375
438.2966	9639.6375
442.41849	9735.1375
446.53742	9947.7375
450.6534	10175.6375
454.76644	10319.9375
458.87653	10308.8375
462.98368	10204.7375
467.08789	10115.6375
471.18916	9946.7375
475.2875	9791.4375
479.38291	9654.9375
483.4754	9585.4375
487.56496	9527.8375
491.6516	9465.9375
495.73531	9428.8375
499.81612	9420.9375
503.89401	9484.4375
507.96899	9521.6375
512.04106	9503.2375
516.11023	9455.2375
520.1765	9386.8375
524.23987	9323.4375
528.30034	9279.0375
532.35792	9200.9375
536.41261	9097.1375
540.46441	9032.9375
544.51333	8968.0375
548.55936	9058.3375
552.60252	9190.0375
556.64279	9419.6375
560.6802	9527.5375
564.71473	9567.4375
568.7464	9620.3375
572.7752	9805.8375
576.80114	9999.0375
580.82422	10292.2375
584.84444	10694.8375
588.86181	11278.8375
592.87633	11732.2375
596.888	11676.9375
600.89682	11137.9375
604.9028	10850.3375
608.90594	11448.8375
612.90624	12278.4375
616.90371	11763.4375
620.89834	10109.8375
624.89015	9308.7375
628.87913	9194.8375
632.86528	9232.4375
636.84862	9238.6375
640.82913	9161.9375
644.80683	8983.8375
648.78172	8863.4375
652.75379	8886.4375
656.72306	8980.7375
660.68952	9039.8375
664.65319	9007.4375
668.61405	8849.2375
672.57211	8844.8375
676.52738	8911.3375
680.47986	8938.9375
684.42955	8907.5375
688.37646	8829.1375
692.32058	8832.1375
696.26192	8870.5375
700.20048	9001.5375
704.13626	9019.8375
708.06928	9027.8375
711.99952	9001.5375
715.927	8999.6375
719.85171	9044.4375
723.77365	9024.9375
727.69284	8948.2375
731.60928	8851.8375
735.52295	8805.9375
739.43388	8818.3375
743.34206	8838.3375
747.24749	8879.4375
751.15017	8941.2375
755.05012	9060.8375
758.94733	9223.3375
762.8418	9580.8375
766.73354	10146.2375
770.62254	10770.0375
774.50882	11041.1375
778.39237	10753.0375
782.27321	10062.2375
786.15132	9449.1375
790.02671	9067.5375
793.89938	8892.2375
797.76935	8818.9375
801.6366	8804.8375
805.50115	8795.4375
809.36299	8746.4375
813.22213	8673.0375
817.07857	8617.5375
820.93231	8595.3375
824.78336	8554.7375
828.63172	8538.9375
832.47738	8533.7375
836.32036	8537.7375
840.16066	8576.5375
843.99827	8580.4375
847.8332	8577.6375
851.66546	8515.9375
855.49504	8533.2375
859.32195	8550.7375
863.1462	8519.2375
866.96777	8505.4375
870.78668	8496.9375
874.60293	8508.9375
878.41652	8482.0375
882.22745	8512.8375
886.03573	8550.4375
889.84136	8568.3375
893.64433	8570.7375
897.44466	8498.6375
901.24235	8466.8375
905.0374	8434.7375
908.8298	8402.4375
912.61957	8398.7375
916.40671	8454.5375
920.19121	8523.4375
923.97308	8629.5375
927.75233	8670.0375
931.52895	8643.1375
935.30295	8572.0375
939.07433	8421.1375
942.84309	8286.9375
946.60924	8229.2375
950.37278	8191.0375
954.13371	8162.3375
957.89203	8112.7375
961.64774	8130.8375
965.40086	8112.8375
969.15137	8081.1375
972.89929	8044.2375
976.64461	8017.3375
980.38733	8019.6375
984.12747	8021.8375
987.86502	8060.6375
991.59999	8119.9375
995.33237	8207.5375
999.06217	8376.9375
1002.78939	8547.5375
1006.51404	8652.1375
1010.23611	8734.0375
1013.95561	8819.0375
1017.67255	8862.4375
1021.38692	8795.7375
1025.09872	8696.2375
1028.80796	8646.6375
1032.51465	8748.3375
1036.21877	8901.8375
1039.92035	8952.0375
1043.61937	8937.6375
1047.31584	8826.5375
1051.00976	8735.6375
1054.70114	8662.6375
1058.38998	8647.3375
1062.07627	8691.5375
1065.76003	8756.4375
1069.44126	8828.8375
1073.11995	8954.2375
1076.79611	9068.9375
1080.46974	9078.1375
1084.14085	9083.4375
1087.80943	9092.9375
1091.47549	9140.0375
1095.13903	9167.4375
1098.80005	9044.4375
1102.45857	8880.7375
1106.11456	8745.5375
1109.76805	8670.4375
1113.41903	8695.0375
1117.06751	8737.5375
1120.71348	8853.7375
1124.35696	8960.4375
1127.99793	9090.6375
1131.63641	9214.8375
1135.2724	9146.8375
1138.90589	9000.1375
1142.5369	8954.5375
1146.16542	8969.3375
1149.79145	8980.1375
1153.415	9004.8375
1157.03607	9105.9375
1160.65467	9304.5375
1164.27079	9699.4375
1167.88443	10162.0375
1171.49561	10656.0375
1175.10432	11321.4375
1178.71056	12148.2375
1182.31434	13005.6375
1185.91565	13384.8375
1189.51451	13241.7375
1193.11091	12744.0375
1196.70485	12199.5375
1200.29634	11718.9375
1203.88538	11339.0375
1207.47197	11083.8375
1211.05612	10871.8375
1214.63782	10673.1375
1218.21708	10454.3375
1221.79391	10293.4375
1225.36829	10217.3375
1228.94024	10159.6375
1232.50976	10035.8375
1236.07685	9866.6375
1239.6415	9773.3375
1243.20374	9735.4375
1246.76355	9769.4375
1250.32093	9865.7375
1253.8759	10018.8375
1257.42845	10246.1375
1260.97859	10479.7375
1264.52631	10742.8375
1268.07163	11026.0375
1271.61453	11299.1375
1275.15503	11570.6375
1278.69312	11899.1375
1282.22882	12217.4375
1285.76211	12596.8375
1289.29301	13035.1375
1292.82151	13586.3375
1296.34761	14264.1375
1299.87133	15136.8375
1303.39266	16075.0375
1306.9116	17049.9375
1310.42815	17821.1375
1313.94233	18207.0375
1317.45412	17962.2375
1320.96354	17279.2375
1324.47058	16602.1375
1327.97525	16049.0375
1331.47754	15688.1375
1334.97747	15450.8375
1338.47502	15192.2375
1341.97022	14930.1375
1345.46305	14748.3375
1348.95352	14812.4375
1352.44163	15258.9375
1355.92738	16112.4375
1359.41078	17176.4375
1362.89183	18098.3375
1366.37053	18012.8375
1369.84688	16609.1375
1373.32088	14609.4375
1376.79254	13089.4375
1380.26186	12470.0375
1383.72883	12312.4375
1387.19347	12115.0375
1390.65578	11894.9375
1394.11575	11763.1375
1397.57339	11871.8375
1401.0287	12122.6375
1404.48168	12383.2375
1407.93234	12422.1375
1411.38068	12287.0375
1414.82669	12019.3375
1418.27039	11691.3375
1421.71177	11275.4375
1425.15083	10941.6375
1428.58758	10752.6375
1432.02203	10794.8375
1435.45416	11037.2375
1438.88399	11331.4375
1442.31151	11471.7375
1445.73673	11561.0375
1449.15965	11579.1375
1452.58027	11550.3375
1455.9986	11453.5375
1459.41463	11425.5375
1462.82837	11571.9375
1466.23982	11801.2375
1469.64898	12063.2375
1473.05586	12278.6375
1476.46045	12363.4375
1479.86276	12396.8375
1483.26279	12366.8375
1486.66054	12394.4375
1490.05602	12454.6375
1493.44922	12606.7375
1496.84016	12828.8375
1500.22882	13106.3375
1503.61521	13538.3375
1506.99934	14089.5375
1510.38121	14540.1375
1513.76081	14616.6375
1517.13816	14164.7375
1520.51324	13539.7375
1523.88607	12971.8375
1527.25665	12632.9375
1530.62498	12527.8375
1533.99105	12417.7375
1537.35488	12276.7375
1540.71647	12020.2375
1544.07581	11818.1375
1547.4329	11583.6375
1550.78776	11325.2375
1554.14038	11123.1375
1557.49077	10995.2375
1560.83892	10895.2375
1564.18484	10881.1375
1567.52853	10934.7375
1570.86999	11081.7375
1574.20922	11296.4375
1577.54624	11471.1375
1580.88103	11477.5375
1584.2136	11418.6375
1587.54395	11614.3375
1590.87208	12096.5375
1594.19801	12830.1375
1597.52172	13666.2375
1600.84321	14091.7375
1604.16251	13713.1375
1607.47959	12790.4375
1610.79447	11620.3375
1614.10715	10585.8375
1617.41763	9795.9375
1620.7259	9296.8375
1624.03199	9040.9375
1627.33587	9008.9375
1630.63757	9222.3375
1633.93707	9647.3375
1637.23439	10434.2375
1640.52951	11687.9375
1643.82246	13362.7375
1647.11321	14878.9375
1650.40179	15356.4375
1653.68819	14385.5375
1656.97241	12428.6375
1660.25446	10623.9375
1663.53433	9355.8375
1666.81203	8613.7375
1670.08756	8164.4375
1673.36092	7873.6375
1676.63211	7699.0375
1679.90115	7582.4375
1683.16801	7480.7375
1686.43272	7395.0375
1689.69527	7341.1375
1692.95567	7290.9375
1696.2139	7231.2375
1699.46999	7201.7375
1702.72392	7131.0375
1705.97571	7148.3375
1709.22535	7174.4375
1712.47284	7177.1375
1715.71819	7179.6375
1718.96139	7185.8375
1722.20246	7173.3375
1725.44139	7162.6375
1728.67818	7136.6375
1731.91284	7081.3375
1735.14537	7023.4375
1738.37576	7031.2375
1741.60403	7018.7375
1744.83017	6979.9375
1748.05418	6967.9375
1751.27607	6960.4375
1754.49584	6961.9375
1757.71349	6938.6375
1760.92903	6922.3375
1764.14244	6896.1375
1767.35375	6877.8375
1770.56294	6853.9375
1773.77002	6862.8375
1776.97499	6831.3375
1780.17785	6847.4375
1783.37861	6847.1375
1786.57727	6828.2375
1789.77382	6839.4375
1792.96828	6806.1375
1796.16064	6785.3375
1799.3509	6777.3375
1802.53907	6760.5375
1805.72514	6746.7375
1808.90913	6738.4375
1812.09102	6733.8375
1815.27083	6706.9375
1818.44856	6698.3375
1821.6242	6683.7375
1824.79776	6671.5375
1827.96924	6685.0375
1831.13864	6670.3375
1834.30597	6686.9375
1837.47122	6684.5375
1840.6344	6679.7375
1843.7955	6666.8375
1846.95454	6670.5375
1850.11151	6665.0375
1853.26642	6670.0375
1856.41926	6642.9375
1859.57004	6666.4375
1862.71876	6644.4375
1865.86542	6652.4375
1869.01003	6632.7375
1872.15258	6624.4375
1875.29308	6621.3375
1878.43152	6611.4375
1881.56792	6600.6375
1884.70227	6594.1375
1887.83457	6594.3375
1890.96482	6591.1375
1894.09304	6576.7375
1897.21921	6563.9375
1900.34335	6547.7375
1903.46544	6543.2375
1906.58551	6536.3375
1909.70353	6528.3375
1912.81953	6517.8375
1915.93349	6525.7375
1919.04543	6515.9375
1922.15534	6487.9375
1925.26322	6469.8375
1928.36908	6465.1375
1931.47292	6450.8375
1934.57473	6427.8375
1937.67453	6430.5375
1940.77232	6402.1375
1943.86808	6372.9375
1946.96184	6366.1375
1950.05358	6351.1375
1953.14331	6328.6375
1956.23103	6304.6375
1959.31675	6308.5375
1962.40046	6287.4375
1965.48217	6275.6375
1968.56188	6276.3375
1971.63959	6243.1375
1974.7153	6233.4375
1977.78901	6201.2375
1980.86073	6170.9375
1983.93046	6156.7375
1986.99819	6153.4375
1990.06394	6127.6375
1993.1277	6095.3375
1996.18947	6070.5375
1999.24925	6072.7375
2002.30706	6065.7375
2005.36288	6056.1375
2008.41672	6027.9375
2011.46859	6020.9375
2014.51848	5997.6375
2017.56639	5980.4375
2020.61233	5971.4375
2023.6563	5949.8375
2026.6983	5944.9375
2029.73833	5940.2375
2032.7764	5925.8375
2035.8125	5914.7375
2038.84664	5888.0375
2041.87881	5879.7375
2044.90903	5866.0375
2047.93729	5864.8375
2050.96359	5851.4375
2053.98794	5855.4375
2057.01034	5844.6375
2060.03078	5859.2375
2063.04927	5839.6375
2066.06582	5818.0375
2069.08042	5843.8375
2072.09307	5831.3375
2075.10378	5823.6375
2078.11255	5825.1375
2081.11938	5835.8375
2084.12426	5827.7375
2087.12722	5807.8375
2090.12824	5810.8375
2093.12732	5810.5375
2096.12447	5828.8375
2099.11969	5807.5375
2102.11299	5816.2375
2105.10435	5834.3375
2108.09379	5823.9375
2111.08131	5815.6375
2114.0669	5820.8375
2117.05057	5826.4375
2120.03233	5837.1375
2123.01216	5847.4375
2125.99008	5855.5375
2128.96609	5854.4375
2131.94018	5866.3375
2134.91236	5854.1375
2137.88263	5862.2375
2140.851	5869.2375
2143.81746	5854.0375
2146.78201	5860.4375
2149.74466	5874.7375
2152.7054	5848.2375
2155.66425	5852.1375
2158.6212	5852.2375
2161.57625	5842.0375
2164.52941	5838.1375
2167.48067	5851.1375
2170.43004	5858.3375
2173.37752	5837.0375
2176.32311	5855.3375
2179.26681	5844.9375
2182.20863	5866.6375
2185.14856	5864.7375
2188.08661	5871.9375
2191.02278	5870.2375
2193.95707	5861.6375
2196.88948	5854.7375
2199.82001	5849.0375
2202.74867	5833.6375
2205.67545	5826.2375
2208.60037	5837.0375
2211.52341	5828.1375
2214.44458	5811.4375
2217.36388	5808.2375
2220.28132	5786.2375
2223.1969	5776.0375
2226.11061	5784.5375
2229.02246	5768.0375
2231.93245	5772.2375
2234.84058	5745.4375
2237.74686	5730.9375
2240.65128	5757.8375
2243.55385	5730.0375
2246.45456	5714.9375
2249.35343	5703.9375
2252.25044	5701.3375
2255.14561	5696.4375
2258.03893	5707.2375
2260.93041	5682.6375
2263.82004	5666.3375
2266.70783	5646.6375
2269.59378	5624.2375
2272.4779	5636.7375
2275.36017	5627.5375
2278.24061	5597.5375
2281.11922	5608.8375
2283.996	5598.3375
2286.87094	5585.7375
2289.74405	5572.1375
2292.61534	5563.0375
2295.4848	5571.3375
2298.35243	5573.7375
2301.21824	5572.3375
2304.08223	5573.3375
2306.94439	5573.0375
2309.80474	5588.4375
2312.66327	5563.5375
2315.51999	5579.8375
2318.37489	5553.8375
2321.22797	5546.2375
2324.07925	5541.1375
2326.92871	5554.1375
2329.77637	5541.7375
2332.62222	5525.2375
2335.46626	5508.1375
2338.3085	5517.5375
2341.14893	5526.7375
2343.98756	5504.2375
2346.8244	5494.7375
2349.65943	5512.3375
2352.49267	5492.0375
2355.32411	5488.3375
2358.15376	5496.0375
2360.98161	5471.8375
2363.80768	5494.5375
2366.63195	5500.3375
2369.45444	5491.3375
2372.27514	5478.6375
2375.09405	5486.9375
2377.91118	5465.3375
2380.72652	5447.6375
2383.54009	5438.3375
2386.35187	5433.8375
2389.16188	5416.7375
2391.97011	5413.3375
2394.77657	5408.3375
2397.58125	5391.3375
2400.38416	5376.5375
2403.18529	5377.9375
2405.98466	5387.2375
2408.78226	5357.0375
2411.57809	5361.8375
2414.37216	5341.6375
2417.16446	5345.8375
2419.955	5324.7375
2422.74378	5331.0375
2425.5308	5338.5375
2428.31606	5337.6375
2431.09956	5328.7375
2433.88131	5328.4375
2436.6613	5319.7375
2439.43954	5315.5375
2442.21603	5307.5375
2444.99077	5330.9375
2447.76377	5310.9375
2450.53501	5317.6375
2453.30451	5310.4375
2456.07226	5292.9375
2458.83827	5314.0375
2461.60254	5322.1375
2464.36507	5310.9375
2467.12586	5298.3375
2469.88492	5295.7375
2472.64224	5298.3375
2475.39782	5298.4375
2478.15167	5295.5375
2480.90379	5280.8375
2483.65417	5296.0375
2486.40283	5293.3375
2489.14976	5302.0375
2491.89497	5283.1375
2494.63845	5281.7375
2497.3802	5286.7375
2500.12024	5283.8375
2502.85855	5284.2375
2505.59514	5275.2375
2508.33002	5273.9375
2511.06318	5252.7375
2513.79462	5261.6375
2516.52435	5258.6375
2519.25237	5245.4375
2521.97867	5267.0375
2524.70327	5244.9375
2527.42616	5221.0375
2530.14734	5238.6375
2532.86681	5233.8375
2535.58458	5210.2375
2538.30065	5209.0375
2541.01501	5221.5375
2543.72768	5213.0375
2546.43864	5207.4375
2549.14791	5205.8375
2551.85548	5205.6375
2554.56136	5175.5375
2557.26554	5186.6375
2559.96803	5179.6375
2562.66883	5176.3375
2565.36794	5160.8375
2568.06536	5166.0375
2570.7611	5164.1375
2573.45514	5156.6375
2576.14751	5158.4375
2578.83819	5158.7375
2581.52719	5137.9375
2584.21451	5130.6375
2586.90015	5151.8375
2589.58411	5133.7375
2592.2664	5120.2375
2594.94701	5103.4375
2597.62594	5110.8375
2600.30321	5096.0375
2602.9788	5086.7375
2605.65273	5087.3375
2608.32498	5100.2375
2610.99557	5092.6375
2613.66449	5085.3375
2616.33175	5079.1375
2618.99734	5106.8375
2621.66128	5076.2375
2624.32355	5076.2375
2626.98416	5057.6375
2629.64311	5072.7375
2632.30041	5063.5375
2634.95605	5046.5375
2637.61004	5050.3375
2640.26238	5051.5375
2642.91306	5050.6375
2645.56209	5029.0375
2648.20948	5034.7375
2650.85521	5034.9375
2653.4993	5030.6375
2656.14175	5047.3375
2658.78255	5046.2375
2661.42171	5063.7375
2664.05923	5063.8375
2666.6951	5050.2375
2669.32934	5053.5375
2671.96194	5053.9375
2674.59291	5054.0375
2677.22224	5049.5375
2679.84993	5043.2375
2682.476	5036.6375
2685.10043	5054.5375
2687.72324	5048.6375
2690.34441	5055.1375
2692.96396	5050.1375
2695.58188	5065.6375
2698.19818	5049.4375
2700.81285	5057.5375
2703.4259	5053.0375
2706.03733	5046.8375
2708.64714	5040.8375
2711.25533	5037.6375
2713.86191	5049.1375
2716.46687	5069.9375
2719.07021	5058.0375
2721.67194	5066.9375
2724.27206	5072.6375
2726.87057	5072.3375
2729.46747	5088.5375
2732.06276	5078.9375
2734.65644	5071.5375
2737.24852	5076.5375
2739.83899	5060.4375
2742.42786	5080.8375
2745.01513	5060.7375
2747.60079	5074.8375
2750.18486	5073.6375
2752.76733	5057.8375
2755.3482	5039.4375
2757.92747	5065.9375
2760.50515	5040.8375
2763.08123	5066.8375
2765.65573	5046.1375
2768.22863	5064.8375
2770.79994	5035.4375
2773.36967	5045.6375
2775.9378	5047.5375
2778.50435	5028.7375
2781.06932	5017.8375
2783.6327	5027.1375
2786.1945	5027.9375
2788.75471	5023.7375
2791.31335	5002.8375
2793.87041	5006.8375
2796.42589	5012.9375
2798.97979	4996.1375
2801.53212	4990.7375
2804.08288	4969.2375
2806.63206	4987.0375
2809.17967	4972.6375
2811.72571	4963.5375
2814.27018	4960.7375
2816.81308	4962.4375
2819.35442	4950.9375
2821.89419	4946.7375
2824.43239	4951.1375
2826.96904	4939.0375
2829.50412	4928.5375
2832.03763	4932.2375
2834.56959	4950.6375
2837.1	4942.0375
2839.62884	4964.2375
2842.15613	4985.8375
2844.68186	5010.8375
2847.20604	5037.1375
2849.72867	5033.8375
2852.24974	5047.7375
2854.76927	5035.3375
2857.28724	5035.2375
2859.80367	5024.3375
2862.31855	5034.9375
2864.83189	5025.5375
2867.34368	5008.7375
2869.85393	4994.8375
2872.36264	5019.5375
2874.8698	5012.9375
2877.37543	5007.0375
2879.87952	5014.6375
2882.38207	5004.5375
2884.88308	5002.2375
2887.38256	5002.0375
2889.88051	5007.6375
2892.37692	5013.8375
2894.8718	5003.8375
2897.36515	5033.8375
2899.85698	5033.1375
2902.34727	5055.5375
2904.83604	5066.7375
2907.32328	5068.1375
2909.809	5060.5375
2912.29319	5060.1375
2914.77587	5069.6375
2917.25702	5068.3375
2919.73665	5072.3375
2922.21476	5062.0375
2924.69136	5065.5375
2927.16644	5076.5375
2929.64	5076.1375
2932.11205	5059.9375
2934.58258	5068.3375
2937.05161	5079.1375
2939.51912	5072.0375
2941.98513	5051.7375
2944.44962	5045.2375
2946.91261	4996.8375
2949.37409	5011.7375
2951.83407	5001.9375
2954.29254	4984.4375
2956.74951	4989.7375
2959.20498	4999.4375
2961.65895	4975.4375
2964.11142	4972.8375
2966.56239	4954.6375
2969.01186	4950.5375
2971.45984	4928.3375
2973.90632	4925.8375
2976.35131	4926.4375
2978.7948	4893.7375
2981.23681	4905.2375
2983.67732	4897.8375
2986.11635	4877.1375
2988.55388	4860.8375
2990.98993	4847.9375
2993.4245	4840.8375
2995.85758	4853.2375
2998.28917	4830.5375
3000.71928	4825.5375
3003.14791	4817.2375
3005.57506	4801.6375
3008.00073	4801.6375
3010.42493	4781.4375
3012.84764	4801.0375
3015.26888	4798.6375
3017.68865	4782.4375
3020.10694	4775.9375
3022.52376	4760.3375
3024.9391	4761.2375
3027.35298	4769.3375
3029.76539	4761.7375
3032.17632	4749.4375
3034.5858	4748.9375
3036.9938	4766.9375
3039.40034	4745.0375
3041.80542	4754.1375
3044.20903	4729.7375
3046.61118	4739.8375
3049.01187	4722.0375
3051.4111	4736.9375
3053.80888	4738.5375
3056.20519	4724.3375
3058.60005	4729.0375
3060.99345	4712.5375
3063.3854	4702.4375
3065.7759	4690.0375
3068.16494	4691.7375
3070.55254	4682.4375
3072.93868	4675.0375
3075.32338	4672.7375
3077.70662	4662.8375
3080.08842	4656.8375
3082.46878	4654.7375
3084.84769	4668.9375
3087.22515	4652.0375
3089.60118	4649.8375
3091.97576	4657.5375
3094.3489	4671.2375
3096.72061	4684.1375
3099.09087	4677.6375
3101.4597	4680.8375
3103.82709	4683.4375
3106.19305	4677.4375
3108.55757	4685.7375
3110.92066	4688.9375
3113.28232	4659.9375
3115.64255	4661.7375
3118.00134	4657.4375
3120.35871	4659.9375
3122.71466	4664.6375
3125.06917	4645.6375
3127.42226	4650.7375
3129.77393	4661.6375
3132.12417	4650.1375
3134.47299	4659.8375
3136.82039	4657.3375
3139.16636	4681.6375
3141.51092	4671.3375
3143.85406	4684.1375
3146.19579	4688.2375
3148.53609	4699.9375
3150.87499	4708.6375
3153.21246	4711.2375
3155.54853	4714.9375
3157.88318	4728.6375
3160.21642	4730.6375
3162.54826	4747.6375
3164.87868	4742.6375
3167.2077	4743.1375
3169.5353	4759.0375
3171.86151	4756.5375
3174.18631	4752.8375
3176.5097	4774.8375
3178.83169	4753.6375
3181.15228	4770.0375
3183.47147	4741.3375
3185.78926	4750.8375
3188.10565	4755.0375
3190.42065	4743.9375
3192.73424	4743.8375
3195.04645	4751.7375
3197.35725	4770.3375
3199.66667	4758.6375
3201.97469	4748.5375
3204.28132	4767.2375
3206.58656	4766.1375
3208.8904	4773.6375
3211.19287	4783.2375
3213.49394	4790.1375
3215.79363	4801.8375
3218.09193	4772.8375
3220.38884	4804.8375
3222.68438	4806.7375
3224.97853	4801.3375
3227.2713	4792.9375
3229.56269	4805.8375
3231.8527	4807.0375
3234.14133	4795.1375
3236.42858	4783.8375
3238.71446	4786.2375
3240.99896	4771.3375
3243.28209	4786.6375
3245.56384	4781.5375
3247.84423	4773.3375
3250.12324	4775.4375
3252.40088	4767.4375
3254.67715	4776.1375
3256.95205	4781.1375
3259.22558	4777.8375
3261.49775	4765.0375
3263.76855	4740.7375
3266.03799	4741.1375
3268.30606	4745.9375
3270.57277	4750.9375
3272.83812	4719.8375
3275.10211	4716.1375
3277.36474	4724.1375
3279.62601	4721.4375
3281.88593	4700.8375
3284.14448	4703.7375
3286.40168	4716.8375
3288.65753	4703.6375
3290.91202	4728.0375
3293.16516	4707.7375
3295.41695	4694.5375
3297.66738	4669.3375
3299.91647	4643.6375
3302.16421	4634.3375
3304.4106	4616.3375
3306.65564	4574.9375
3308.89933	4554.0375
3311.14169	4534.7375
3313.38269	4494.5375
3315.62236	4474.3375
3317.86068	4434.5375
3320.09766	4402.6375
3322.3333	4358.8375
3324.5676	4363.7375
3326.80056	4293.6375
3329.03219	4271.0375
3331.26248	1.6375
3333.49143	-0.1625
3335.71905	0.0375
