Data from AgNPs_FTO_APTES_UA_1uM_CRN_200uM_R6G_10uM_NaF_0.1M_Addition_RamanShift__2__17-07-19-815.txt Node

Date: Thu Jan 27 17:07:19 GMT 2022
User: TCL
Spectrometer: QEP01345
Trigger mode: 4
Integration Time (sec): 7.000000E0
Scans to average: 10
Electric dark correction enabled: true
Nonlinearity correction enabled: false
Boxcar width: 0
XAxis mode: Raman Shifts
Number of Pixels in Spectrum: 1044
>>>>>Begin Spectral Data<<<<<
46.04893	0.3625
50.45542	0.4625
54.85868	0.2625
59.25871	-0.6375
63.6555	39.9625
68.04907	42.8625
72.43941	43.9625
76.82654	52.6625
81.21044	50.4625
85.59113	52.1625
89.96862	52.1625
94.34289	55.0625
98.71396	62.1625
103.08183	57.7625
107.4465	63.2625
111.80798	65.0625
116.16626	63.1625
120.52136	67.2625
124.87327	66.7625
129.222	66.1625
133.56755	67.9625
137.90993	68.3625
142.24913	77.7625
146.58517	82.7625
150.91804	94.5625
155.24774	107.2625
159.57429	125.3625
163.89768	157.2625
168.21792	203.2625
172.53501	272.7625
176.84895	373.4625
181.15975	511.5625
185.46741	719.9625
189.77193	989.9625
194.07331	1322.9625
198.37157	1720.0625
202.6667	2126.0625
206.9587	2534.8625
211.24758	2932.4625
215.53334	3335.9625
219.81599	3762.0625
224.09553	4226.0625
228.37195	4761.6625
232.64527	5318.5625
236.91549	5929.1625
241.18261	6536.1625
245.44663	7076.2625
249.70755	7568.2625
253.96539	7976.9625
258.22014	8307.7625
262.4718	8600.7625
266.72039	8789.7625
270.96589	8849.2625
275.20832	8822.2625
279.44768	8721.4625
283.68397	8540.8625
287.91719	8439.2625
292.14735	8311.5625
296.37445	8285.2625
300.59849	8324.3625
304.81948	8389.0625
309.03742	8461.1625
313.25231	8424.3625
317.46415	8267.3625
321.67296	8029.6625
325.87872	7861.6625
330.08145	7756.6625
334.28114	7756.7625
338.47781	7850.9625
342.67145	7944.2625
346.86207	8110.7625
351.04966	8295.3625
355.23424	8461.8625
359.4158	8595.9625
363.59435	8686.5625
367.76989	8745.4625
371.94243	8781.0625
376.11196	8824.4625
380.27849	8860.4625
384.44203	8907.0625
388.60257	8943.5625
392.76012	9019.5625
396.91468	9118.9625
401.06626	9278.2625
405.21485	9411.5625
409.36047	9401.8625
413.50311	9220.6625
417.64277	9051.1625
421.77947	8956.3625
425.9132	8890.4625
430.04396	8877.6625
434.17176	8890.7625
438.2966	8952.3625
442.41849	9040.9625
446.53742	9236.8625
450.6534	9437.4625
454.76644	9570.7625
458.87653	9546.2625
462.98368	9450.0625
467.08789	9347.6625
471.18916	9248.4625
475.2875	9131.9625
479.38291	9021.6625
483.4754	8953.7625
487.56496	8905.5625
491.6516	8857.2625
495.73531	8839.1625
499.81612	8843.6625
503.89401	8881.4625
507.96899	8914.7625
512.04106	8935.9625
516.11023	8940.7625
520.1765	8988.7625
524.23987	8973.8625
528.30034	8938.5625
532.35792	8901.5625
536.41261	8784.3625
540.46441	8650.6625
544.51333	8607.2625
548.55936	8651.1625
552.60252	8776.9625
556.64279	8932.0625
560.6802	8996.2625
564.71473	9024.5625
568.7464	9044.3625
572.7752	9139.8625
576.80114	9179.3625
580.82422	9294.7625
584.84444	9547.4625
588.86181	9927.9625
592.87633	10221.9625
596.888	10280.8625
600.89682	10035.3625
604.9028	10107.9625
608.90594	11052.5625
612.90624	12389.9625
616.90371	12005.9625
620.89834	10033.0625
624.89015	9031.8625
628.87913	8896.3625
632.86528	8944.6625
636.84862	8948.4625
640.82913	8886.8625
644.80683	8705.4625
648.78172	8568.9625
652.75379	8532.1625
656.72306	8654.8625
660.68952	8774.3625
664.65319	8770.7625
668.61405	8597.9625
672.57211	8548.1625
676.52738	8591.8625
680.47986	8615.6625
684.42955	8570.2625
688.37646	8500.8625
692.32058	8480.8625
696.26192	8569.7625
700.20048	8642.2625
704.13626	8679.2625
708.06928	8652.2625
711.99952	8636.0625
715.927	8591.6625
719.85171	8632.7625
723.77365	8642.3625
727.69284	8577.9625
731.60928	8523.3625
735.52295	8496.4625
739.43388	8517.4625
743.34206	8540.0625
747.24749	8550.4625
751.15017	8590.5625
755.05012	8691.9625
758.94733	8877.9625
762.8418	9224.7625
766.73354	9893.8625
770.62254	10706.8625
774.50882	11171.8625
778.39237	10904.4625
782.27321	10078.5625
786.15132	9342.0625
790.02671	8862.0625
793.89938	8646.4625
797.76935	8567.4625
801.6366	8532.0625
805.50115	8476.2625
809.36299	8428.1625
813.22213	8400.4625
817.07857	8376.4625
820.93231	8342.4625
824.78336	8342.0625
828.63172	8366.5625
832.47738	8382.1625
836.32036	8399.1625
840.16066	8436.1625
843.99827	8435.5625
847.8332	8420.4625
851.66546	8354.8625
855.49504	8329.7625
859.32195	8344.5625
863.1462	8356.8625
866.96777	8337.1625
870.78668	8310.0625
874.60293	8310.8625
878.41652	8291.5625
882.22745	8351.8625
886.03573	8383.7625
889.84136	8378.8625
893.64433	8371.0625
897.44466	8326.4625
901.24235	8300.0625
905.0374	8272.0625
908.8298	8227.0625
912.61957	8236.8625
916.40671	8279.7625
920.19121	8331.3625
923.97308	8426.2625
927.75233	8488.2625
931.52895	8541.9625
935.30295	8502.9625
939.07433	8339.1625
942.84309	8204.8625
946.60924	8105.5625
950.37278	8049.5625
954.13371	8045.3625
957.89203	8000.8625
961.64774	7989.5625
965.40086	7945.5625
969.15137	7922.9625
972.89929	7910.6625
976.64461	7899.6625
980.38733	7911.9625
984.12747	7933.6625
987.86502	7962.5625
991.59999	8031.7625
995.33237	8119.2625
999.06217	8290.5625
1002.78939	8424.6625
1006.51404	8498.8625
1010.23611	8558.0625
1013.95561	8607.3625
1017.67255	8605.6625
1021.38692	8594.1625
1025.09872	8539.3625
1028.80796	8552.8625
1032.51465	8703.5625
1036.21877	8911.8625
1039.92035	8976.2625
1043.61937	8933.5625
1047.31584	8810.3625
1051.00976	8661.4625
1054.70114	8543.2625
1058.38998	8527.7625
1062.07627	8556.8625
1065.76003	8569.7625
1069.44126	8635.4625
1073.11995	8724.1625
1076.79611	8846.1625
1080.46974	8902.4625
1084.14085	8887.2625
1087.80943	8889.0625
1091.47549	8934.9625
1095.13903	8940.8625
1098.80005	8834.0625
1102.45857	8680.8625
1106.11456	8539.6625
1109.76805	8488.9625
1113.41903	8532.8625
1117.06751	8597.2625
1120.71348	8727.1625
1124.35696	8887.1625
1127.99793	9062.4625
1131.63641	9141.5625
1135.2724	9021.8625
1138.90589	8798.6625
1142.5369	8685.3625
1146.16542	8649.3625
1149.79145	8580.1625
1153.415	8570.6625
1157.03607	8590.2625
1160.65467	8733.7625
1164.27079	8949.5625
1167.88443	9310.0625
1171.49561	9783.8625
1175.10432	10437.7625
1178.71056	11287.2625
1182.31434	12100.9625
1185.91565	12457.2625
1189.51451	12244.4625
1193.11091	11744.4625
1196.70485	11139.5625
1200.29634	10629.3625
1203.88538	10243.8625
1207.47197	9910.6625
1211.05612	9613.5625
1214.63782	9424.6625
1218.21708	9329.6625
1221.79391	9304.0625
1225.36829	9330.3625
1228.94024	9335.2625
1232.50976	9258.0625
1236.07685	9128.4625
1239.6415	9053.0625
1243.20374	9036.0625
1246.76355	9068.3625
1250.32093	9161.3625
1253.8759	9272.4625
1257.42845	9466.7625
1260.97859	9648.8625
1264.52631	9856.7625
1268.07163	10096.9625
1271.61453	10366.8625
1275.15503	10584.8625
1278.69312	10825.6625
1282.22882	11014.0625
1285.76211	11214.0625
1289.29301	11509.0625
1292.82151	11861.7625
1296.34761	12300.8625
1299.87133	12882.0625
1303.39266	13625.5625
1306.9116	14557.0625
1310.42815	15439.2625
1313.94233	15880.2625
1317.45412	15626.2625
1320.96354	14923.8625
1324.47058	14136.4625
1327.97525	13436.2625
1331.47754	12876.1625
1334.97747	12526.4625
1338.47502	12288.7625
1341.97022	12163.2625
1345.46305	12201.6625
1348.95352	12484.1625
1352.44163	13169.4625
1355.92738	14143.5625
1359.41078	15449.3625
1362.89183	16619.3625
1366.37053	16621.3625
1369.84688	15102.4625
1373.32088	13151.5625
1376.79254	11782.6625
1380.26186	11060.9625
1383.72883	10758.4625
1387.19347	10506.7625
1390.65578	10199.9625
1394.11575	10048.2625
1397.57339	10011.4625
1401.0287	10033.9625
1404.48168	10068.8625
1407.93234	10024.9625
1411.38068	9946.0625
1414.82669	9875.6625
1418.27039	9789.2625
1421.71177	9629.1625
1425.15083	9468.7625
1428.58758	9371.1625
1432.02203	9389.3625
1435.45416	9525.7625
1438.88399	9633.8625
1442.31151	9662.8625
1445.73673	9652.4625
1449.15965	9676.7625
1452.58027	9680.6625
1455.9986	9609.5625
1459.41463	9555.6625
1462.82837	9656.1625
1466.23982	9855.4625
1469.64898	9997.6625
1473.05586	10181.0625
1476.46045	10291.6625
1479.86276	10393.8625
1483.26279	10508.2625
1486.66054	10618.8625
1490.05602	10839.1625
1493.44922	11145.3625
1496.84016	11577.4625
1500.22882	12153.7625
1503.61521	13012.3625
1506.99934	13942.7625
1510.38121	14678.0625
1513.76081	14802.2625
1517.13816	14145.8625
1520.51324	13037.6625
1523.88607	11998.0625
1527.25665	11351.0625
1530.62498	10961.2625
1533.99105	10763.2625
1537.35488	10563.8625
1540.71647	10403.0625
1544.07581	10252.9625
1547.4329	10123.4625
1550.78776	10002.6625
1554.14038	9934.1625
1557.49077	9891.5625
1560.83892	9914.0625
1564.18484	9970.6625
1567.52853	10119.4625
1570.86999	10361.1625
1574.20922	10540.0625
1577.54624	10593.6625
1580.88103	10398.9625
1584.2136	10154.4625
1587.54395	10026.6625
1590.87208	10223.7625
1594.19801	10595.8625
1597.52172	11146.4625
1600.84321	11439.5625
1604.16251	11243.0625
1607.47959	10649.3625
1610.79447	9949.5625
1614.10715	9289.9625
1617.41763	8772.5625
1620.7259	8445.9625
1624.03199	8294.3625
1627.33587	8322.4625
1630.63757	8421.1625
1633.93707	8680.4625
1637.23439	9166.6625
1640.52951	9923.5625
1643.82246	11005.8625
1647.11321	12177.0625
1650.40179	12824.4625
1653.68819	12401.1625
1656.97241	11131.7625
1660.25446	9730.4625
1663.53433	8709.9625
1666.81203	8131.2625
1670.08756	7768.3625
1673.36092	7532.5625
1676.63211	7418.3625
1679.90115	7335.8625
1683.16801	7240.4625
1686.43272	7181.6625
1689.69527	7127.8625
1692.95567	7099.7625
1696.2139	7051.0625
1699.46999	6982.1625
1702.72392	6957.1625
1705.97571	6987.6625
1709.22535	6989.1625
1712.47284	7034.3625
1715.71819	7031.9625
1718.96139	7055.8625
1722.20246	7036.5625
1725.44139	7032.3625
1728.67818	7003.9625
1731.91284	6951.2625
1735.14537	6950.4625
1738.37576	6900.8625
1741.60403	6897.1625
1744.83017	6865.3625
1748.05418	6864.0625
1751.27607	6857.2625
1754.49584	6842.3625
1757.71349	6835.3625
1760.92903	6792.9625
1764.14244	6786.9625
1767.35375	6778.8625
1770.56294	6745.6625
1773.77002	6736.1625
1776.97499	6746.4625
1780.17785	6766.9625
1783.37861	6757.5625
1786.57727	6750.6625
1789.77382	6748.2625
1792.96828	6715.1625
1796.16064	6707.8625
1799.3509	6699.3625
1802.53907	6690.6625
1805.72514	6655.8625
1808.90913	6647.7625
1812.09102	6633.8625
1815.27083	6624.5625
1818.44856	6632.3625
1821.6242	6605.1625
1824.79776	6587.9625
1827.96924	6585.5625
1831.13864	6576.6625
1834.30597	6586.1625
1837.47122	6581.5625
1840.6344	6555.2625
1843.7955	6561.4625
1846.95454	6525.6625
1850.11151	6556.7625
1853.26642	6556.1625
1856.41926	6546.6625
1859.57004	6557.8625
1862.71876	6539.9625
1865.86542	6539.0625
1869.01003	6538.6625
1872.15258	6531.5625
1875.29308	6502.9625
1878.43152	6523.4625
1881.56792	6518.6625
1884.70227	6502.5625
1887.83457	6508.0625
1890.96482	6486.2625
1894.09304	6479.5625
1897.21921	6455.3625
1900.34335	6443.8625
1903.46544	6461.1625
1906.58551	6446.2625
1909.70353	6449.1625
1912.81953	6432.2625
1915.93349	6422.2625
1919.04543	6415.7625
1922.15534	6410.0625
1925.26322	6400.4625
1928.36908	6389.6625
1931.47292	6374.4625
1934.57473	6353.5625
1937.67453	6355.6625
1940.77232	6319.9625
1943.86808	6307.6625
1946.96184	6307.6625
1950.05358	6267.2625
1953.14331	6258.2625
1956.23103	6239.5625
1959.31675	6217.2625
1962.40046	6203.7625
1965.48217	6199.3625
1968.56188	6188.5625
1971.63959	6181.2625
1974.7153	6155.2625
1977.78901	6141.6625
1980.86073	6114.8625
1983.93046	6094.4625
1986.99819	6084.1625
1990.06394	6055.5625
1993.1277	6049.6625
1996.18947	6027.6625
1999.24925	6026.5625
2002.30706	5985.6625
2005.36288	5974.5625
2008.41672	5973.2625
2011.46859	5942.2625
2014.51848	5928.2625
2017.56639	5919.4625
2020.61233	5899.2625
2023.6563	5913.7625
2026.6983	5897.3625
2029.73833	5861.6625
2032.7764	5856.4625
2035.8125	5832.4625
2038.84664	5819.6625
2041.87881	5821.8625
2044.90903	5829.3625
2047.93729	5802.0625
2050.96359	5781.2625
2053.98794	5769.9625
2057.01034	5779.7625
2060.03078	5792.3625
2063.04927	5793.9625
2066.06582	5764.2625
2069.08042	5788.7625
2072.09307	5767.2625
2075.10378	5758.4625
2078.11255	5755.3625
2081.11938	5746.4625
2084.12426	5741.5625
2087.12722	5746.4625
2090.12824	5737.7625
2093.12732	5759.0625
2096.12447	5745.5625
2099.11969	5745.5625
2102.11299	5759.8625
2105.10435	5751.3625
2108.09379	5755.3625
2111.08131	5774.7625
2114.0669	5759.3625
2117.05057	5791.5625
2120.03233	5789.3625
2123.01216	5795.4625
2125.99008	5805.3625
2128.96609	5806.4625
2131.94018	5816.8625
2134.91236	5818.4625
2137.88263	5824.8625
2140.851	5822.9625
2143.81746	5827.6625
2146.78201	5827.9625
2149.74466	5828.7625
2152.7054	5826.6625
2155.66425	5827.1625
2158.6212	5826.7625
2161.57625	5797.6625
2164.52941	5813.4625
2167.48067	5815.4625
2170.43004	5816.8625
2173.37752	5821.5625
2176.32311	5816.9625
2179.26681	5818.7625
2182.20863	5802.3625
2185.14856	5822.3625
2188.08661	5826.8625
2191.02278	5815.0625
2193.95707	5809.2625
2196.88948	5807.3625
2199.82001	5791.9625
2202.74867	5795.1625
2205.67545	5812.8625
2208.60037	5800.7625
2211.52341	5788.4625
2214.44458	5785.3625
2217.36388	5761.1625
2220.28132	5781.4625
2223.1969	5749.3625
2226.11061	5753.4625
2229.02246	5728.0625
2231.93245	5730.5625
2234.84058	5720.4625
2237.74686	5705.6625
2240.65128	5712.7625
2243.55385	5703.8625
2246.45456	5692.2625
2249.35343	5679.5625
2252.25044	5685.9625
2255.14561	5687.0625
2258.03893	5658.5625
2260.93041	5663.9625
2263.82004	5640.9625
2266.70783	5632.3625
2269.59378	5624.0625
2272.4779	5611.1625
2275.36017	5603.1625
2278.24061	5601.7625
2281.11922	5574.8625
2283.996	5585.4625
2286.87094	5568.0625
2289.74405	5553.0625
2292.61534	5556.3625
2295.4848	5545.2625
2298.35243	5558.6625
2301.21824	5547.8625
2304.08223	5557.9625
2306.94439	5547.8625
2309.80474	5560.2625
2312.66327	5554.7625
2315.51999	5542.2625
2318.37489	5535.9625
2321.22797	5548.8625
2324.07925	5540.4625
2326.92871	5534.9625
2329.77637	5519.2625
2332.62222	5522.6625
2335.46626	5499.2625
2338.3085	5501.1625
2341.14893	5508.1625
2343.98756	5497.9625
2346.8244	5505.9625
2349.65943	5483.6625
2352.49267	5484.1625
2355.32411	5484.7625
2358.15376	5473.2625
2360.98161	5497.0625
2363.80768	5488.8625
2366.63195	5495.4625
2369.45444	5480.6625
2372.27514	5464.4625
2375.09405	5458.4625
2377.91118	5463.5625
2380.72652	5448.0625
2383.54009	5423.0625
2386.35187	5421.8625
2389.16188	5402.4625
2391.97011	5411.9625
2394.77657	5392.1625
2397.58125	5386.4625
2400.38416	5366.7625
2403.18529	5355.5625
2405.98466	5356.6625
2408.78226	5346.7625
2411.57809	5326.8625
2414.37216	5342.4625
2417.16446	5336.6625
2419.955	5312.8625
2422.74378	5329.4625
2425.5308	5317.2625
2428.31606	5317.6625
2431.09956	5309.1625
2433.88131	5296.6625
2436.6613	5315.0625
2439.43954	5301.5625
2442.21603	5301.1625
2444.99077	5314.0625
2447.76377	5314.9625
2450.53501	5294.4625
2453.30451	5298.2625
2456.07226	5283.3625
2458.83827	5284.3625
2461.60254	5313.5625
2464.36507	5290.9625
2467.12586	5282.3625
2469.88492	5268.1625
2472.64224	5282.6625
2475.39782	5267.1625
2478.15167	5276.6625
2480.90379	5271.0625
2483.65417	5279.7625
2486.40283	5278.9625
2489.14976	5287.9625
2491.89497	5276.4625
2494.63845	5281.6625
2497.3802	5267.3625
2500.12024	5272.3625
2502.85855	5276.1625
2505.59514	5261.3625
2508.33002	5266.4625
2511.06318	5250.5625
2513.79462	5259.8625
2516.52435	5230.6625
2519.25237	5228.2625
2521.97867	5205.4625
2524.70327	5211.1625
2527.42616	5199.5625
2530.14734	5211.2625
2532.86681	5194.6625
2535.58458	5189.0625
2538.30065	5177.7625
2541.01501	5177.1625
2543.72768	5161.0625
2546.43864	5173.3625
2549.14791	5168.8625
2551.85548	5163.9625
2554.56136	5169.8625
2557.26554	5153.6625
2559.96803	5144.7625
2562.66883	5134.7625
2565.36794	5154.5625
2568.06536	5142.0625
2570.7611	5132.8625
2573.45514	5123.3625
2576.14751	5126.9625
2578.83819	5104.3625
2581.52719	5112.8625
2584.21451	5107.5625
2586.90015	5102.3625
2589.58411	5084.3625
2592.2664	5093.7625
2594.94701	5076.2625
2597.62594	5077.6625
2600.30321	5065.8625
2602.9788	5055.3625
2605.65273	5040.4625
2608.32498	5058.3625
2610.99557	5029.7625
2613.66449	5042.4625
2616.33175	5031.9625
2618.99734	5037.4625
2621.66128	5023.0625
2624.32355	5026.2625
2626.98416	5034.0625
2629.64311	5029.3625
2632.30041	5003.7625
2634.95605	4993.2625
2637.61004	4988.5625
2640.26238	4987.7625
2642.91306	4984.5625
2645.56209	4978.3625
2648.20948	4972.5625
2650.85521	4964.5625
2653.4993	4971.8625
2656.14175	4980.0625
2658.78255	4990.8625
2661.42171	4976.7625
2664.05923	4981.8625
2666.6951	4996.2625
2669.32934	5001.7625
2671.96194	4969.5625
2674.59291	4978.9625
2677.22224	4977.8625
2679.84993	4987.9625
2682.476	4969.8625
2685.10043	4975.7625
2687.72324	4983.4625
2690.34441	4973.1625
2692.96396	4957.8625
2695.58188	4994.7625
2698.19818	4969.1625
2700.81285	4984.3625
2703.4259	5001.7625
2706.03733	4962.7625
2708.64714	4964.5625
2711.25533	4981.1625
2713.86191	4978.2625
2716.46687	4985.0625
2719.07021	4985.0625
2721.67194	4996.2625
2724.27206	4986.8625
2726.87057	4999.8625
2729.46747	5004.7625
2732.06276	5009.8625
2734.65644	4994.9625
2737.24852	4993.7625
2739.83899	4975.7625
2742.42786	4996.3625
2745.01513	4969.8625
2747.60079	4964.5625
2750.18486	4981.7625
2752.76733	4973.2625
2755.3482	4964.8625
2757.92747	4963.1625
2760.50515	4940.8625
2763.08123	4959.9625
2765.65573	4954.1625
2768.22863	4971.5625
2770.79994	4951.0625
2773.36967	4931.0625
2775.9378	4948.4625
2778.50435	4921.5625
2781.06932	4926.0625
2783.6327	4919.6625
2786.1945	4933.8625
2788.75471	4904.8625
2791.31335	4917.9625
2793.87041	4896.9625
2796.42589	4900.3625
2798.97979	4895.8625
2801.53212	4892.8625
2804.08288	4878.5625
2806.63206	4872.4625
2809.17967	4863.5625
2811.72571	4863.8625
2814.27018	4841.6625
2816.81308	4837.2625
2819.35442	4854.2625
2821.89419	4838.0625
2824.43239	4848.9625
2826.96904	4848.6625
2829.50412	4847.2625
2832.03763	4828.6625
2834.56959	4856.9625
2837.1	4837.3625
2839.62884	4859.2625
2842.15613	4872.2625
2844.68186	4919.0625
2847.20604	4941.5625
2849.72867	4957.6625
2852.24974	4949.5625
2854.76927	4944.2625
2857.28724	4931.8625
2859.80367	4929.3625
2862.31855	4923.9625
2864.83189	4937.2625
2867.34368	4914.6625
2869.85393	4931.3625
2872.36264	4922.5625
2874.8698	4915.9625
2877.37543	4938.1625
2879.87952	4915.1625
2882.38207	4910.8625
2884.88308	4919.3625
2887.38256	4906.2625
2889.88051	4919.5625
2892.37692	4925.0625
2894.8718	4922.9625
2897.36515	4940.1625
2899.85698	4951.9625
2902.34727	4962.0625
2904.83604	4960.0625
2907.32328	4955.6625
2909.809	4952.7625
2912.29319	4977.9625
2914.77587	4978.3625
2917.25702	4971.5625
2919.73665	4961.1625
2922.21476	4969.5625
2924.69136	4947.7625
2927.16644	4982.5625
2929.64	4970.6625
2932.11205	4975.7625
2934.58258	4944.1625
2937.05161	4979.7625
2939.51912	4945.3625
2941.98513	4942.2625
2944.44962	4923.2625
2946.91261	4884.8625
2949.37409	4902.6625
2951.83407	4893.9625
2954.29254	4880.4625
2956.74951	4872.5625
2959.20498	4873.2625
2961.65895	4867.0625
2964.11142	4866.9625
2966.56239	4850.3625
2969.01186	4829.1625
2971.45984	4825.0625
2973.90632	4811.1625
2976.35131	4813.4625
2978.7948	4805.6625
2981.23681	4787.8625
2983.67732	4778.1625
2986.11635	4777.1625
2988.55388	4760.3625
2990.98993	4747.3625
2993.4245	4765.9625
2995.85758	4732.0625
2998.28917	4746.4625
3000.71928	4728.1625
3003.14791	4721.8625
3005.57506	4712.8625
3008.00073	4724.7625
3010.42493	4703.7625
3012.84764	4708.0625
3015.26888	4727.3625
3017.68865	4695.4625
3020.10694	4697.4625
3022.52376	4686.3625
3024.9391	4681.2625
3027.35298	4693.4625
3029.76539	4669.5625
3032.17632	4673.4625
3034.5858	4663.3625
3036.9938	4664.0625
3039.40034	4653.2625
3041.80542	4658.4625
3044.20903	4653.6625
3046.61118	4643.7625
3049.01187	4656.0625
3051.4111	4642.0625
3053.80888	4650.5625
3056.20519	4641.8625
3058.60005	4629.7625
3060.99345	4638.3625
3063.3854	4602.9625
3065.7759	4615.0625
3068.16494	4608.5625
3070.55254	4612.0625
3072.93868	4608.7625
3075.32338	4597.8625
3077.70662	4597.8625
3080.08842	4584.3625
3082.46878	4586.3625
3084.84769	4588.0625
3087.22515	4600.8625
3089.60118	4589.3625
3091.97576	4592.0625
3094.3489	4584.7625
3096.72061	4601.5625
3099.09087	4606.7625
3101.4597	4595.3625
3103.82709	4605.1625
3106.19305	4609.5625
3108.55757	4606.3625
3110.92066	4605.1625
3113.28232	4601.0625
3115.64255	4590.6625
3118.00134	4599.5625
3120.35871	4604.2625
3122.71466	4603.5625
3125.06917	4568.4625
3127.42226	4590.6625
3129.77393	4592.6625
3132.12417	4586.9625
3134.47299	4599.9625
3136.82039	4600.7625
3139.16636	4596.0625
3141.51092	4634.1625
3143.85406	4622.9625
3146.19579	4632.1625
3148.53609	4637.9625
3150.87499	4660.6625
3153.21246	4670.5625
3155.54853	4669.2625
3157.88318	4677.3625
3160.21642	4675.0625
3162.54826	4676.8625
3164.87868	4690.6625
3167.2077	4696.0625
3169.5353	4720.9625
3171.86151	4700.0625
3174.18631	4690.7625
3176.5097	4700.9625
3178.83169	4705.2625
3181.15228	4722.4625
3183.47147	4707.0625
3185.78926	4711.9625
3188.10565	4704.2625
3190.42065	4701.5625
3192.73424	4703.9625
3195.04645	4699.8625
3197.35725	4712.5625
3199.66667	4721.0625
3201.97469	4715.7625
3204.28132	4730.0625
3206.58656	4742.8625
3208.8904	4739.4625
3211.19287	4748.0625
3213.49394	4755.7625
3215.79363	4751.6625
3218.09193	4767.6625
3220.38884	4759.5625
3222.68438	4773.9625
3224.97853	4754.3625
3227.2713	4750.4625
3229.56269	4755.0625
3231.8527	4766.1625
3234.14133	4770.4625
3236.42858	4745.5625
3238.71446	4738.3625
3240.99896	4758.5625
3243.28209	4746.9625
3245.56384	4753.4625
3247.84423	4743.2625
3250.12324	4735.1625
3252.40088	4741.1625
3254.67715	4738.2625
3256.95205	4765.3625
3259.22558	4753.1625
3261.49775	4742.0625
3263.76855	4741.1625
3266.03799	4734.5625
3268.30606	4715.6625
3270.57277	4708.1625
3272.83812	4699.7625
3275.10211	4689.8625
3277.36474	4682.5625
3279.62601	4692.9625
3281.88593	4682.9625
3284.14448	4678.2625
3286.40168	4692.8625
3288.65753	4695.4625
3290.91202	4696.0625
3293.16516	4680.5625
3295.41695	4670.3625
3297.66738	4628.1625
3299.91647	4628.9625
3302.16421	4591.7625
3304.4106	4585.7625
3306.65564	4555.5625
3308.89933	4550.7625
3311.14169	4520.9625
3313.38269	4493.0625
3315.62236	4444.1625
3317.86068	4425.2625
3320.09766	4403.3625
3322.3333	4374.7625
3324.5676	4361.0625
3326.80056	4293.6625
3329.03219	4259.0625
3331.26248	1.0625
3333.49143	-0.4375
3335.71905	-0.3375
