Data from AgNPs_FTO_APTES_UA_1uM_CRN_1uM_R6G_10uM_NaF_0.1M_Addition_RamanShift__3__12-15-39-482.txt Node

Date: Thu Jan 27 12:15:39 GMT 2022
User: TCL
Spectrometer: QEP01345
Trigger mode: 4
Integration Time (sec): 7.000000E0
Scans to average: 10
Electric dark correction enabled: true
Nonlinearity correction enabled: false
Boxcar width: 0
XAxis mode: Raman Shifts
Number of Pixels in Spectrum: 1044
>>>>>Begin Spectral Data<<<<<
46.04893	0.5875
50.45542	-0.4125
54.85868	-1.8125
59.25871	-0.2125
63.6555	57.9875
68.04907	59.5875
72.43941	61.0875
76.82654	67.2875
81.21044	67.8875
85.59113	69.5875
89.96862	74.5875
94.34289	77.2875
98.71396	77.2875
103.08183	78.3875
107.4465	84.9875
111.80798	84.6875
116.16626	85.7875
120.52136	91.6875
124.87327	92.2875
129.222	95.8875
133.56755	98.9875
137.90993	107.8875
142.24913	112.3875
146.58517	127.0875
150.91804	145.9875
155.24774	172.4875
159.57429	209.4875
163.89768	259.5875
168.21792	338.7875
172.53501	462.7875
176.84895	630.0875
181.15975	888.3875
185.46741	1242.6875
189.77193	1707.8875
194.07331	2281.9875
198.37157	2948.2875
202.6667	3648.4875
206.9587	4318.3875
211.24758	5013.1875
215.53334	5694.9875
219.81599	6442.8875
224.09553	7246.3875
228.37195	8167.1875
232.64527	9117.1875
236.91549	10171.2875
241.18261	11211.8875
245.44663	12133.7875
249.70755	13007.6875
253.96539	13736.8875
258.22014	14343.5875
262.4718	14828.2875
266.72039	15180.1875
270.96589	15352.6875
275.20832	15372.5875
279.44768	15186.4875
283.68397	14957.5875
287.91719	14776.0875
292.14735	14611.4875
296.37445	14598.0875
300.59849	14660.1875
304.81948	14780.4875
309.03742	14858.6875
313.25231	14817.4875
317.46415	14626.9875
321.67296	14328.9875
325.87872	14124.7875
330.08145	14005.5875
334.28114	14029.7875
338.47781	14111.4875
342.67145	14300.7875
346.86207	14528.8875
351.04966	14832.1875
355.23424	15165.9875
359.4158	15503.3875
363.59435	15704.8875
367.76989	15854.6875
371.94243	15982.4875
376.11196	16059.0875
380.27849	16168.4875
384.44203	16244.4875
388.60257	16324.6875
392.76012	16445.8875
396.91468	16592.8875
401.06626	16849.2875
405.21485	17010.0875
409.36047	16985.8875
413.50311	16825.2875
417.64277	16681.4875
421.77947	16689.8875
425.9132	16746.1875
430.04396	16801.2875
434.17176	16852.5875
438.2966	16962.1875
442.41849	17221.7875
446.53742	17673.8875
450.6534	18163.5875
454.76644	18496.1875
458.87653	18543.9875
462.98368	18413.1875
467.08789	18109.5875
471.18916	17753.1875
475.2875	17390.2875
479.38291	17102.3875
483.4754	16934.8875
487.56496	16872.1875
491.6516	16787.0875
495.73531	16803.3875
499.81612	16907.8875
503.89401	17034.4875
507.96899	17071.7875
512.04106	17001.6875
516.11023	16949.5875
520.1765	16912.9875
524.23987	16879.3875
528.30034	16827.5875
532.35792	16721.0875
536.41261	16519.4875
540.46441	16300.3875
544.51333	16171.9875
548.55936	16259.9875
552.60252	16529.9875
556.64279	16858.0875
560.6802	17089.3875
564.71473	17092.5875
568.7464	17136.0875
572.7752	17336.3875
576.80114	17568.0875
580.82422	17922.8875
584.84444	18561.5875
588.86181	19416.5875
592.87633	20222.6875
596.888	20393.3875
600.89682	19779.7875
604.9028	19830.8875
608.90594	21447.8875
612.90624	23488.5875
616.90371	22585.0875
620.89834	19293.9875
624.89015	17720.0875
628.87913	17536.2875
632.86528	17459.1875
636.84862	17232.9875
640.82913	16873.6875
644.80683	16470.8875
648.78172	16223.1875
652.75379	16237.9875
656.72306	16492.8875
660.68952	16794.3875
664.65319	16738.0875
668.61405	16447.3875
672.57211	16420.6875
676.52738	16491.3875
680.47986	16472.2875
684.42955	16314.6875
688.37646	16237.0875
692.32058	16396.9875
696.26192	16708.1875
700.20048	16990.5875
704.13626	17064.9875
708.06928	16936.8875
711.99952	16714.4875
715.927	16721.1875
719.85171	16850.3875
723.77365	16841.1875
727.69284	16622.2875
731.60928	16371.0875
735.52295	16296.8875
739.43388	16327.9875
743.34206	16393.5875
747.24749	16487.3875
751.15017	16570.7875
755.05012	16803.4875
758.94733	17151.3875
762.8418	17750.0875
766.73354	18831.2875
770.62254	19941.3875
774.50882	20364.3875
778.39237	19896.9875
782.27321	18840.3875
786.15132	17882.7875
790.02671	17237.3875
793.89938	17005.1875
797.76935	16856.2875
801.6366	16771.0875
805.50115	16724.4875
809.36299	16634.1875
813.22213	16488.0875
817.07857	16375.4875
820.93231	16278.6875
824.78336	16330.8875
828.63172	16313.9875
832.47738	16387.2875
836.32036	16478.6875
840.16066	16644.9875
843.99827	16789.0875
847.8332	16770.8875
851.66546	16571.2875
855.49504	16526.5875
859.32195	16487.9875
863.1462	16412.0875
866.96777	16369.0875
870.78668	16316.1875
874.60293	16320.8875
878.41652	16316.8875
882.22745	16403.2875
886.03573	16505.1875
889.84136	16484.1875
893.64433	16433.5875
897.44466	16328.8875
901.24235	16264.9875
905.0374	16204.0875
908.8298	16170.9875
912.61957	16209.4875
916.40671	16342.9875
920.19121	16551.9875
923.97308	16833.1875
927.75233	17076.0875
931.52895	17129.7875
935.30295	17018.0875
939.07433	16754.7875
942.84309	16506.4875
946.60924	16424.3875
950.37278	16366.5875
954.13371	16280.4875
957.89203	16162.4875
961.64774	16068.5875
965.40086	16056.5875
969.15137	16039.4875
972.89929	16026.1875
976.64461	16099.1875
980.38733	16209.6875
984.12747	16338.1875
987.86502	16563.7875
991.59999	16840.7875
995.33237	17299.1875
999.06217	17941.0875
1002.78939	18716.2875
1006.51404	19058.4875
1010.23611	19157.2875
1013.95561	19144.9875
1017.67255	19107.7875
1021.38692	18891.1875
1025.09872	18804.7875
1028.80796	19242.2875
1032.51465	20341.4875
1036.21877	21457.6875
1039.92035	21742.1875
1043.61937	21275.0875
1047.31584	20380.9875
1051.00976	19306.4875
1054.70114	18662.5875
1058.38998	18358.5875
1062.07627	18238.8875
1065.76003	18160.3875
1069.44126	18200.9875
1073.11995	18423.0875
1076.79611	18748.0875
1080.46974	18971.1875
1084.14085	19114.3875
1087.80943	19308.2875
1091.47549	19296.6875
1095.13903	19165.7875
1098.80005	18905.1875
1102.45857	18517.8875
1106.11456	18291.7875
1109.76805	18239.0875
1113.41903	18240.0875
1117.06751	18265.1875
1120.71348	18347.4875
1124.35696	18452.1875
1127.99793	18607.0875
1131.63641	18739.3875
1135.2724	18644.3875
1138.90589	18537.2875
1142.5369	18441.4875
1146.16542	18393.3875
1149.79145	18355.1875
1153.415	18369.7875
1157.03607	18456.1875
1160.65467	18805.8875
1164.27079	19491.9875
1167.88443	20387.4875
1171.49561	21431.7875
1175.10432	22806.8875
1178.71056	24607.9875
1182.31434	26509.5875
1185.91565	27582.3875
1189.51451	27479.6875
1193.11091	26554.5875
1196.70485	25410.0875
1200.29634	24392.4875
1203.88538	23717.9875
1207.47197	23214.5875
1211.05612	22741.2875
1214.63782	22252.5875
1218.21708	21948.5875
1221.79391	21760.3875
1225.36829	21741.6875
1228.94024	21472.6875
1232.50976	20960.8875
1236.07685	20527.1875
1239.6415	20349.9875
1243.20374	20351.0875
1246.76355	20551.6875
1250.32093	20968.5875
1253.8759	21549.7875
1257.42845	22189.8875
1260.97859	22832.5875
1264.52631	23528.2875
1268.07163	24355.0875
1271.61453	25247.0875
1275.15503	26178.3875
1278.69312	26979.8875
1282.22882	27444.1875
1285.76211	27773.5875
1289.29301	28224.9875
1292.82151	28964.5875
1296.34761	30089.6875
1299.87133	31844.4875
1303.39266	34120.1875
1306.9116	36560.5875
1310.42815	38311.8875
1313.94233	38809.4875
1317.45412	37820.8875
1320.96354	36125.3875
1324.47058	34450.6875
1327.97525	33082.4875
1331.47754	32190.8875
1334.97747	31603.0875
1338.47502	31115.9875
1341.97022	30610.5875
1345.46305	30170.1875
1348.95352	30274.5875
1352.44163	31018.9875
1355.92738	32722.1875
1359.41078	35184.5875
1362.89183	37053.5875
1366.37053	36687.9875
1369.84688	33754.7875
1373.32088	29875.5875
1376.79254	27055.3875
1380.26186	25855.8875
1383.72883	25517.2875
1387.19347	25270.5875
1390.65578	24808.4875
1394.11575	24405.9875
1397.57339	24337.9875
1401.0287	24514.5875
1404.48168	24654.7875
1407.93234	24738.9875
1411.38068	24571.5875
1414.82669	24288.2875
1418.27039	23868.7875
1421.71177	23337.1875
1425.15083	22854.4875
1428.58758	22680.8875
1432.02203	22976.2875
1435.45416	23554.0875
1438.88399	24085.6875
1442.31151	24344.6875
1445.73673	24379.1875
1449.15965	24333.2875
1452.58027	24134.0875
1455.9986	23872.8875
1459.41463	23859.0875
1462.82837	24176.2875
1466.23982	24659.5875
1469.64898	25221.2875
1473.05586	25656.7875
1476.46045	25892.7875
1479.86276	25955.8875
1483.26279	25838.8875
1486.66054	25841.3875
1490.05602	25944.7875
1493.44922	26266.1875
1496.84016	26514.0875
1500.22882	26780.4875
1503.61521	27352.7875
1506.99934	28154.2875
1510.38121	28919.4875
1513.76081	29223.9875
1517.13816	28643.0875
1520.51324	27547.7875
1523.88607	26504.3875
1527.25665	25853.1875
1530.62498	25654.1875
1533.99105	25434.6875
1537.35488	25193.7875
1540.71647	24895.3875
1544.07581	24488.8875
1547.4329	24146.7875
1550.78776	23814.8875
1554.14038	23588.1875
1557.49077	23433.4875
1560.83892	23264.5875
1564.18484	23116.9875
1567.52853	23093.3875
1570.86999	23281.9875
1574.20922	23563.2875
1577.54624	23760.4875
1580.88103	23804.8875
1584.2136	23917.7875
1587.54395	24652.8875
1590.87208	26138.1875
1594.19801	28033.2875
1597.52172	29771.2875
1600.84321	30308.0875
1604.16251	29072.2875
1607.47959	26677.9875
1610.79447	24211.4875
1614.10715	22134.7875
1617.41763	20609.4875
1620.7259	19773.1875
1624.03199	19450.1875
1627.33587	19578.0875
1630.63757	20207.0875
1633.93707	21205.7875
1637.23439	22742.0875
1640.52951	24992.4875
1643.82246	27634.4875
1647.11321	29820.6875
1650.40179	30132.2875
1653.68819	27997.8875
1656.97241	24470.7875
1660.25446	21349.1875
1663.53433	19155.2875
1666.81203	17884.9875
1670.08756	17141.6875
1673.36092	16700.1875
1676.63211	16396.5875
1679.90115	16136.1875
1683.16801	15995.0875
1686.43272	15859.6875
1689.69527	15773.2875
1692.95567	15674.0875
1696.2139	15620.8875
1699.46999	15545.1875
1702.72392	15490.3875
1705.97571	15524.8875
1709.22535	15537.5875
1712.47284	15606.1875
1715.71819	15579.9875
1718.96139	15566.3875
1722.20246	15530.8875
1725.44139	15504.1875
1728.67818	15421.9875
1731.91284	15355.1875
1735.14537	15279.3875
1738.37576	15250.3875
1741.60403	15228.8875
1744.83017	15145.4875
1748.05418	15091.6875
1751.27607	15044.5875
1754.49584	15023.5875
1757.71349	15017.0875
1760.92903	15020.6875
1764.14244	15004.0875
1767.35375	14978.3875
1770.56294	14980.1875
1773.77002	14979.9875
1776.97499	14974.4875
1780.17785	14939.4875
1783.37861	14982.8875
1786.57727	14999.0875
1789.77382	14971.2875
1792.96828	14946.4875
1796.16064	14919.6875
1799.3509	14906.0875
1802.53907	14872.7875
1805.72514	14866.4875
1808.90913	14838.4875
1812.09102	14813.2875
1815.27083	14787.1875
1818.44856	14790.8875
1821.6242	14789.8875
1824.79776	14779.0875
1827.96924	14735.5875
1831.13864	14747.2875
1834.30597	14769.4875
1837.47122	14748.7875
1840.6344	14742.6875
1843.7955	14781.8875
1846.95454	14764.2875
1850.11151	14756.0875
1853.26642	14764.7875
1856.41926	14749.8875
1859.57004	14765.8875
1862.71876	14732.5875
1865.86542	14754.0875
1869.01003	14752.9875
1872.15258	14726.0875
1875.29308	14735.7875
1878.43152	14696.3875
1881.56792	14701.5875
1884.70227	14696.9875
1887.83457	14682.4875
1890.96482	14647.9875
1894.09304	14630.6875
1897.21921	14638.3875
1900.34335	14611.4875
1903.46544	14596.8875
1906.58551	14577.7875
1909.70353	14590.9875
1912.81953	14575.7875
1915.93349	14541.6875
1919.04543	14524.6875
1922.15534	14490.9875
1925.26322	14472.5875
1928.36908	14450.8875
1931.47292	14434.0875
1934.57473	14403.6875
1937.67453	14366.3875
1940.77232	14358.8875
1943.86808	14309.4875
1946.96184	14278.5875
1950.05358	14260.7875
1953.14331	14202.2875
1956.23103	14166.4875
1959.31675	14139.6875
1962.40046	14109.7875
1965.48217	14090.8875
1968.56188	14047.0875
1971.63959	14013.1875
1974.7153	13960.2875
1977.78901	13969.5875
1980.86073	13906.0875
1983.93046	13887.7875
1986.99819	13850.2875
1990.06394	13772.0875
1993.1277	13759.6875
1996.18947	13714.1875
1999.24925	13681.0875
2002.30706	13668.3875
2005.36288	13620.1875
2008.41672	13566.4875
2011.46859	13539.7875
2014.51848	13530.6875
2017.56639	13512.5875
2020.61233	13469.0875
2023.6563	13467.8875
2026.6983	13431.4875
2029.73833	13397.4875
2032.7764	13398.0875
2035.8125	13412.4875
2038.84664	13380.1875
2041.87881	13379.5875
2044.90903	13338.9875
2047.93729	13325.5875
2050.96359	13325.2875
2053.98794	13295.4875
2057.01034	13299.4875
2060.03078	13273.5875
2063.04927	13300.7875
2066.06582	13293.2875
2069.08042	13299.3875
2072.09307	13264.9875
2075.10378	13266.3875
2078.11255	13262.8875
2081.11938	13262.6875
2084.12426	13266.7875
2087.12722	13267.4875
2090.12824	13254.8875
2093.12732	13252.7875
2096.12447	13279.9875
2099.11969	13295.2875
2102.11299	13277.6875
2105.10435	13303.6875
2108.09379	13281.7875
2111.08131	13316.3875
2114.0669	13282.8875
2117.05057	13327.1875
2120.03233	13362.6875
2123.01216	13340.2875
2125.99008	13360.0875
2128.96609	13366.5875
2131.94018	13404.7875
2134.91236	13404.7875
2137.88263	13382.5875
2140.851	13440.9875
2143.81746	13458.0875
2146.78201	13463.2875
2149.74466	13498.5875
2152.7054	13467.1875
2155.66425	13461.9875
2158.6212	13460.7875
2161.57625	13469.5875
2164.52941	13497.9875
2167.48067	13439.6875
2170.43004	13456.2875
2173.37752	13475.1875
2176.32311	13505.5875
2179.26681	13502.1875
2182.20863	13493.7875
2185.14856	13510.3875
2188.08661	13525.8875
2191.02278	13551.6875
2193.95707	13525.6875
2196.88948	13534.4875
2199.82001	13546.1875
2202.74867	13538.6875
2205.67545	13548.0875
2208.60037	13534.6875
2211.52341	13506.7875
2214.44458	13533.6875
2217.36388	13502.5875
2220.28132	13510.7875
2223.1969	13458.6875
2226.11061	13464.2875
2229.02246	13445.7875
2231.93245	13407.9875
2234.84058	13428.9875
2237.74686	13392.6875
2240.65128	13378.3875
2243.55385	13376.3875
2246.45456	13328.8875
2249.35343	13313.9875
2252.25044	13280.1875
2255.14561	13282.1875
2258.03893	13300.2875
2260.93041	13255.3875
2263.82004	13209.5875
2266.70783	13214.9875
2269.59378	13175.7875
2272.4779	13143.7875
2275.36017	13170.7875
2278.24061	13160.8875
2281.11922	13173.9875
2283.996	13137.1875
2286.87094	13113.4875
2289.74405	13092.3875
2292.61534	13115.6875
2295.4848	13114.5875
2298.35243	13166.8875
2301.21824	13147.0875
2304.08223	13162.4875
2306.94439	13190.9875
2309.80474	13194.8875
2312.66327	13189.0875
2315.51999	13201.5875
2318.37489	13198.2875
2321.22797	13191.8875
2324.07925	13185.4875
2326.92871	13162.2875
2329.77637	13194.1875
2332.62222	13168.3875
2335.46626	13124.8875
2338.3085	13149.3875
2341.14893	13154.1875
2343.98756	13176.9875
2346.8244	13181.4875
2349.65943	13175.8875
2352.49267	13129.3875
2355.32411	13133.9875
2358.15376	13111.0875
2360.98161	13115.6875
2363.80768	13080.6875
2366.63195	13071.2875
2369.45444	13056.4875
2372.27514	13068.2875
2375.09405	13019.9875
2377.91118	12997.7875
2380.72652	12950.6875
2383.54009	12950.3875
2386.35187	12929.7875
2389.16188	12891.7875
2391.97011	12890.8875
2394.77657	12887.2875
2397.58125	12886.1875
2400.38416	12870.3875
2403.18529	12829.3875
2405.98466	12836.3875
2408.78226	12809.1875
2411.57809	12777.3875
2414.37216	12745.9875
2417.16446	12764.5875
2419.955	12755.0875
2422.74378	12741.6875
2425.5308	12720.4875
2428.31606	12735.5875
2431.09956	12709.2875
2433.88131	12695.2875
2436.6613	12722.4875
2439.43954	12740.0875
2442.21603	12723.2875
2444.99077	12724.8875
2447.76377	12744.9875
2450.53501	12749.6875
2453.30451	12708.1875
2456.07226	12701.4875
2458.83827	12679.2875
2461.60254	12722.5875
2464.36507	12692.7875
2467.12586	12716.4875
2469.88492	12719.6875
2472.64224	12741.5875
2475.39782	12754.9875
2478.15167	12757.2875
2480.90379	12748.8875
2483.65417	12786.4875
2486.40283	12779.1875
2489.14976	12780.5875
2491.89497	12769.7875
2494.63845	12795.0875
2497.3802	12776.4875
2500.12024	12756.3875
2502.85855	12766.6875
2505.59514	12761.4875
2508.33002	12738.6875
2511.06318	12733.9875
2513.79462	12715.3875
2516.52435	12735.1875
2519.25237	12730.7875
2521.97867	12691.7875
2524.70327	12738.9875
2527.42616	12689.6875
2530.14734	12699.2875
2532.86681	12681.8875
2535.58458	12711.6875
2538.30065	12697.6875
2541.01501	12712.0875
2543.72768	12710.4875
2546.43864	12699.0875
2549.14791	12686.2875
2551.85548	12655.8875
2554.56136	12624.5875
2557.26554	12661.2875
2559.96803	12631.4875
2562.66883	12638.2875
2565.36794	12668.8875
2568.06536	12681.8875
2570.7611	12640.4875
2573.45514	12641.2875
2576.14751	12604.8875
2578.83819	12606.1875
2581.52719	12626.4875
2584.21451	12616.4875
2586.90015	12643.6875
2589.58411	12615.5875
2592.2664	12600.4875
2594.94701	12588.0875
2597.62594	12584.0875
2600.30321	12576.2875
2602.9788	12565.0875
2605.65273	12517.8875
2608.32498	12528.9875
2610.99557	12534.0875
2613.66449	12556.4875
2616.33175	12544.8875
2618.99734	12547.3875
2621.66128	12525.4875
2624.32355	12497.6875
2626.98416	12511.2875
2629.64311	12518.7875
2632.30041	12523.5875
2634.95605	12491.1875
2637.61004	12479.7875
2640.26238	12448.2875
2642.91306	12431.8875
2645.56209	12441.1875
2648.20948	12450.0875
2650.85521	12411.6875
2653.4993	12428.1875
2656.14175	12440.3875
2658.78255	12455.4875
2661.42171	12469.5875
2664.05923	12475.3875
2666.6951	12494.2875
2669.32934	12511.2875
2671.96194	12498.7875
2674.59291	12490.0875
2677.22224	12482.4875
2679.84993	12485.8875
2682.476	12478.2875
2685.10043	12473.9875
2687.72324	12421.5875
2690.34441	12453.1875
2692.96396	12426.6875
2695.58188	12436.3875
2698.19818	12442.6875
2700.81285	12427.8875
2703.4259	12416.6875
2706.03733	12438.5875
2708.64714	12415.0875
2711.25533	12435.1875
2713.86191	12477.9875
2716.46687	12465.8875
2719.07021	12490.2875
2721.67194	12516.8875
2724.27206	12497.1875
2726.87057	12538.1875
2729.46747	12557.9875
2732.06276	12509.4875
2734.65644	12502.1875
2737.24852	12526.0875
2739.83899	12527.9875
2742.42786	12543.5875
2745.01513	12487.3875
2747.60079	12498.0875
2750.18486	12470.2875
2752.76733	12482.7875
2755.3482	12502.7875
2757.92747	12488.1875
2760.50515	12480.4875
2763.08123	12485.9875
2765.65573	12479.9875
2768.22863	12492.8875
2770.79994	12492.2875
2773.36967	12498.6875
2775.9378	12517.9875
2778.50435	12524.4875
2781.06932	12492.5875
2783.6327	12459.8875
2786.1945	12456.5875
2788.75471	12450.4875
2791.31335	12457.1875
2793.87041	12436.6875
2796.42589	12409.5875
2798.97979	12429.4875
2801.53212	12417.4875
2804.08288	12420.8875
2806.63206	12357.9875
2809.17967	12331.0875
2811.72571	12326.8875
2814.27018	12301.8875
2816.81308	12285.7875
2819.35442	12278.0875
2821.89419	12252.9875
2824.43239	12266.1875
2826.96904	12263.7875
2829.50412	12267.9875
2832.03763	12229.1875
2834.56959	12254.9875
2837.1	12271.3875
2839.62884	12251.2875
2842.15613	12248.4875
2844.68186	12273.1875
2847.20604	12295.5875
2849.72867	12306.1875
2852.24974	12298.4875
2854.76927	12267.1875
2857.28724	12260.1875
2859.80367	12268.6875
2862.31855	12247.0875
2864.83189	12247.4875
2867.34368	12258.2875
2869.85393	12282.8875
2872.36264	12235.3875
2874.8698	12261.1875
2877.37543	12242.7875
2879.87952	12256.2875
2882.38207	12294.6875
2884.88308	12296.4875
2887.38256	12313.0875
2889.88051	12314.6875
2892.37692	12307.5875
2894.8718	12333.5875
2897.36515	12325.6875
2899.85698	12365.0875
2902.34727	12408.2875
2904.83604	12387.0875
2907.32328	12413.4875
2909.809	12417.9875
2912.29319	12396.5875
2914.77587	12409.0875
2917.25702	12401.3875
2919.73665	12380.5875
2922.21476	12407.2875
2924.69136	12339.6875
2927.16644	12341.9875
2929.64	12360.0875
2932.11205	12344.6875
2934.58258	12290.8875
2937.05161	12335.4875
2939.51912	12332.8875
2941.98513	12291.8875
2944.44962	12304.4875
2946.91261	12275.6875
2949.37409	12301.7875
2951.83407	12243.2875
2954.29254	12246.9875
2956.74951	12225.5875
2959.20498	12237.1875
2961.65895	12228.5875
2964.11142	12248.8875
2966.56239	12213.8875
2969.01186	12190.3875
2971.45984	12179.1875
2973.90632	12173.0875
2976.35131	12135.4875
2978.7948	12116.5875
2981.23681	12088.6875
2983.67732	12091.8875
2986.11635	12076.8875
2988.55388	12025.4875
2990.98993	11984.3875
2993.4245	11957.8875
2995.85758	11937.3875
2998.28917	11953.9875
3000.71928	11921.1875
3003.14791	11891.2875
3005.57506	11908.0875
3008.00073	11856.1875
3010.42493	11892.2875
3012.84764	11864.3875
3015.26888	11857.1875
3017.68865	11828.2875
3020.10694	11824.0875
3022.52376	11805.4875
3024.9391	11798.4875
3027.35298	11793.5875
3029.76539	11786.2875
3032.17632	11789.9875
3034.5858	11726.7875
3036.9938	11770.1875
3039.40034	11762.7875
3041.80542	11785.3875
3044.20903	11751.0875
3046.61118	11727.3875
3049.01187	11735.2875
3051.4111	11704.9875
3053.80888	11702.5875
3056.20519	11681.9875
3058.60005	11673.7875
3060.99345	11628.8875
3063.3854	11617.0875
3065.7759	11587.9875
3068.16494	11604.4875
3070.55254	11565.7875
3072.93868	11521.9875
3075.32338	11515.2875
3077.70662	11520.4875
3080.08842	11550.8875
3082.46878	11528.8875
3084.84769	11484.8875
3087.22515	11489.1875
3089.60118	11490.9875
3091.97576	11504.4875
3094.3489	11524.3875
3096.72061	11509.9875
3099.09087	11520.8875
3101.4597	11498.1875
3103.82709	11515.7875
3106.19305	11484.7875
3108.55757	11503.0875
3110.92066	11474.5875
3113.28232	11467.9875
3115.64255	11434.4875
3118.00134	11445.2875
3120.35871	11424.5875
3122.71466	11409.9875
3125.06917	11393.0875
3127.42226	11379.8875
3129.77393	11375.0875
3132.12417	11364.6875
3134.47299	11381.5875
3136.82039	11368.0875
3139.16636	11376.1875
3141.51092	11387.3875
3143.85406	11413.4875
3146.19579	11417.9875
3148.53609	11429.9875
3150.87499	11435.8875
3153.21246	11405.5875
3155.54853	11459.6875
3157.88318	11443.7875
3160.21642	11446.9875
3162.54826	11468.6875
3164.87868	11426.8875
3167.2077	11419.2875
3169.5353	11453.7875
3171.86151	11468.6875
3174.18631	11447.5875
3176.5097	11453.2875
3178.83169	11435.8875
3181.15228	11430.5875
3183.47147	11404.8875
3185.78926	11391.4875
3188.10565	11390.9875
3190.42065	11409.2875
3192.73424	11404.1875
3195.04645	11396.9875
3197.35725	11404.7875
3199.66667	11388.7875
3201.97469	11410.4875
3204.28132	11386.1875
3206.58656	11439.0875
3208.8904	11422.3875
3211.19287	11436.3875
3213.49394	11449.0875
3215.79363	11427.5875
3218.09193	11470.4875
3220.38884	11449.7875
3222.68438	11462.2875
3224.97853	11456.3875
3227.2713	11435.0875
3229.56269	11422.4875
3231.8527	11430.4875
3234.14133	11424.2875
3236.42858	11381.9875
3238.71446	11379.3875
3240.99896	11360.5875
3243.28209	11373.2875
3245.56384	11353.8875
3247.84423	11354.5875
3250.12324	11335.8875
3252.40088	11343.7875
3254.67715	11346.9875
3256.95205	11333.6875
3259.22558	11353.1875
3261.49775	11345.1875
3263.76855	11304.0875
3266.03799	11310.8875
3268.30606	11283.5875
3270.57277	11313.2875
3272.83812	11273.2875
3275.10211	11227.7875
3277.36474	11195.1875
3279.62601	11196.3875
3281.88593	11203.5875
3284.14448	11232.4875
3286.40168	11258.9875
3288.65753	11212.0875
3290.91202	11227.8875
3293.16516	11176.5875
3295.41695	11156.7875
3297.66738	11103.7875
3299.91647	11041.3875
3302.16421	10997.1875
3304.4106	10965.4875
3306.65564	10905.7875
3308.89933	10820.1875
3311.14169	10771.9875
3313.38269	10699.3875
3315.62236	10649.0875
3317.86068	10530.2875
3320.09766	10489.1875
3322.3333	10443.7875
3324.5676	10416.5875
3326.80056	10227.1875
3329.03219	10189.8875
3331.26248	3.2875
3333.49143	-0.0125
3335.71905	-0.7125
