Data from AgNPs_FTO_APTES_UA_1uM_CRN_1uM_R6G_10uM_NaF_0.1M_Addition_RamanShift__30__12-47-09-518.txt Node

Date: Thu Jan 27 12:47:09 GMT 2022
User: TCL
Spectrometer: QEP01345
Trigger mode: 4
Integration Time (sec): 7.000000E0
Scans to average: 10
Electric dark correction enabled: true
Nonlinearity correction enabled: false
Boxcar width: 0
XAxis mode: Raman Shifts
Number of Pixels in Spectrum: 1044
>>>>>Begin Spectral Data<<<<<
46.04893	0.4875
50.45542	0.2875
54.85868	-1.2125
59.25871	-0.7125
63.6555	35.7875
68.04907	37.6875
72.43941	39.4875
76.82654	42.7875
81.21044	43.2875
85.59113	42.4875
89.96862	45.8875
94.34289	46.5875
98.71396	51.2875
103.08183	46.6875
107.4465	53.5875
111.80798	53.6875
116.16626	52.4875
120.52136	58.6875
124.87327	55.4875
129.222	51.8875
133.56755	57.4875
137.90993	57.9875
142.24913	62.5875
146.58517	64.4875
150.91804	72.5875
155.24774	79.2875
159.57429	93.9875
163.89768	113.7875
168.21792	144.3875
172.53501	188.2875
176.84895	250.3875
181.15975	339.5875
185.46741	470.0875
189.77193	643.4875
194.07331	858.1875
198.37157	1101.5875
202.6667	1362.3875
206.9587	1613.1875
211.24758	1875.2875
215.53334	2142.3875
219.81599	2442.1875
224.09553	2795.9875
228.37195	3159.1875
232.64527	3572.7875
236.91549	3974.2875
241.18261	4336.9875
245.44663	4630.1875
249.70755	4854.3875
253.96539	5080.9875
258.22014	5235.1875
262.4718	5421.0875
266.72039	5551.8875
270.96589	5652.5875
275.20832	5670.7875
279.44768	5599.5875
283.68397	5527.5875
287.91719	5449.8875
292.14735	5472.4875
296.37445	5578.6875
300.59849	5772.7875
304.81948	6050.8875
309.03742	6235.6875
313.25231	6227.0875
317.46415	5932.1875
321.67296	5460.5875
325.87872	5072.7875
330.08145	4896.0875
334.28114	4895.1875
338.47781	4964.8875
342.67145	5106.1875
346.86207	5367.0875
351.04966	5705.9875
355.23424	6100.8875
359.4158	6420.1875
363.59435	6587.1875
367.76989	6617.6875
371.94243	6590.5875
376.11196	6542.4875
380.27849	6507.5875
384.44203	6414.5875
388.60257	6325.6875
392.76012	6276.3875
396.91468	6337.9875
401.06626	6527.5875
405.21485	6684.1875
409.36047	6583.9875
413.50311	6235.5875
417.64277	5903.4875
421.77947	5707.5875
425.9132	5632.2875
430.04396	5622.7875
434.17176	5638.4875
438.2966	5755.0875
442.41849	5917.4875
446.53742	6133.3875
450.6534	6335.6875
454.76644	6470.1875
458.87653	6490.3875
462.98368	6408.6875
467.08789	6258.8875
471.18916	6082.7875
475.2875	5926.9875
479.38291	5792.8875
483.4754	5700.8875
487.56496	5635.3875
491.6516	5563.1875
495.73531	5534.9875
499.81612	5540.2875
503.89401	5608.0875
507.96899	5686.7875
512.04106	5782.7875
516.11023	5895.5875
520.1765	5962.0875
524.23987	5937.7875
528.30034	5831.9875
532.35792	5688.2875
536.41261	5542.0875
540.46441	5398.6875
544.51333	5342.9875
548.55936	5382.5875
552.60252	5485.5875
556.64279	5641.3875
560.6802	5702.9875
564.71473	5783.0875
568.7464	6023.9875
572.7752	6198.0875
576.80114	6070.3875
580.82422	5902.1875
584.84444	5853.8875
588.86181	5896.0875
592.87633	5866.0875
596.888	5956.2875
600.89682	6173.6875
604.9028	6834.1875
608.90594	8606.0875
612.90624	11052.3875
616.90371	10848.5875
620.89834	7640.3875
624.89015	6007.4875
628.87913	5675.8875
632.86528	5685.2875
636.84862	5732.1875
640.82913	5666.3875
644.80683	5462.9875
648.78172	5308.1875
652.75379	5335.1875
656.72306	5576.5875
660.68952	5907.1875
664.65319	5868.0875
668.61405	5538.6875
672.57211	5390.4875
676.52738	5362.5875
680.47986	5350.0875
684.42955	5311.2875
688.37646	5285.4875
692.32058	5317.9875
696.26192	5374.0875
700.20048	5424.9875
704.13626	5494.0875
708.06928	5478.2875
711.99952	5418.9875
715.927	5400.5875
719.85171	5393.0875
723.77365	5382.1875
727.69284	5330.1875
731.60928	5276.6875
735.52295	5290.7875
739.43388	5310.8875
743.34206	5354.7875
747.24749	5390.6875
751.15017	5440.7875
755.05012	5542.4875
758.94733	5782.8875
762.8418	6364.7875
766.73354	7361.4875
770.62254	8465.4875
774.50882	9083.7875
778.39237	8783.8875
782.27321	7707.5875
786.15132	6558.7875
790.02671	5861.9875
793.89938	5560.3875
797.76935	5466.0875
801.6366	5384.7875
805.50115	5333.2875
809.36299	5316.3875
813.22213	5299.6875
817.07857	5285.5875
820.93231	5281.5875
824.78336	5292.9875
828.63172	5314.0875
832.47738	5345.6875
836.32036	5330.0875
840.16066	5317.0875
843.99827	5279.2875
847.8332	5257.5875
851.66546	5240.4875
855.49504	5241.1875
859.32195	5243.8875
863.1462	5229.5875
866.96777	5202.5875
870.78668	5182.3875
874.60293	5203.0875
878.41652	5220.7875
882.22745	5234.9875
886.03573	5262.1875
889.84136	5274.8875
893.64433	5234.2875
897.44466	5214.7875
901.24235	5228.4875
905.0374	5226.6875
908.8298	5202.0875
912.61957	5169.1875
916.40671	5195.8875
920.19121	5246.6875
923.97308	5301.7875
927.75233	5367.7875
931.52895	5428.2875
935.30295	5389.4875
939.07433	5242.5875
942.84309	5086.7875
946.60924	5013.0875
950.37278	4980.5875
954.13371	4951.9875
957.89203	4936.6875
961.64774	4927.1875
965.40086	4889.6875
969.15137	4875.9875
972.89929	4866.5875
976.64461	4873.7875
980.38733	4863.7875
984.12747	4883.4875
987.86502	4902.3875
991.59999	4912.7875
995.33237	4967.7875
999.06217	5084.2875
1002.78939	5246.0875
1006.51404	5377.1875
1010.23611	5487.2875
1013.95561	5585.6875
1017.67255	5588.2875
1021.38692	5508.5875
1025.09872	5387.2875
1028.80796	5306.7875
1032.51465	5339.2875
1036.21877	5390.1875
1039.92035	5456.8875
1043.61937	5466.9875
1047.31584	5441.1875
1051.00976	5399.6875
1054.70114	5366.9875
1058.38998	5339.8875
1062.07627	5353.3875
1065.76003	5384.9875
1069.44126	5431.5875
1073.11995	5492.8875
1076.79611	5551.4875
1080.46974	5621.7875
1084.14085	5760.7875
1087.80943	5895.3875
1091.47549	5936.6875
1095.13903	5864.2875
1098.80005	5649.0875
1102.45857	5460.6875
1106.11456	5355.4875
1109.76805	5384.6875
1113.41903	5505.7875
1117.06751	5659.3875
1120.71348	5894.7875
1124.35696	6132.5875
1127.99793	6365.2875
1131.63641	6379.0875
1135.2724	6106.6875
1138.90589	5813.0875
1142.5369	5631.2875
1146.16542	5533.0875
1149.79145	5455.8875
1153.415	5480.9875
1157.03607	5509.9875
1160.65467	5631.9875
1164.27079	5804.4875
1167.88443	6075.6875
1171.49561	6591.8875
1175.10432	7372.6875
1178.71056	8456.9875
1182.31434	9334.5875
1185.91565	9589.7875
1189.51451	9437.8875
1193.11091	8887.5875
1196.70485	8117.1875
1200.29634	7514.4875
1203.88538	7049.2875
1207.47197	6590.9875
1211.05612	6227.6875
1214.63782	6025.2875
1218.21708	5986.0875
1221.79391	6020.0875
1225.36829	6119.3875
1228.94024	6206.1875
1232.50976	6268.4875
1236.07685	6360.5875
1239.6415	6337.3875
1243.20374	6301.5875
1246.76355	6284.0875
1250.32093	6326.7875
1253.8759	6436.1875
1257.42845	6640.5875
1260.97859	6811.2875
1264.52631	7052.9875
1268.07163	7276.3875
1271.61453	7478.9875
1275.15503	7620.5875
1278.69312	7685.7875
1282.22882	7754.8875
1285.76211	7911.0875
1289.29301	8181.6875
1292.82151	8459.6875
1296.34761	8685.8875
1299.87133	8990.6875
1303.39266	9561.4875
1306.9116	10538.9875
1310.42815	11722.0875
1313.94233	12574.7875
1317.45412	12593.0875
1320.96354	11885.0875
1324.47058	11032.5875
1327.97525	10315.2875
1331.47754	9921.3875
1334.97747	9714.4875
1338.47502	9692.8875
1341.97022	9766.9875
1345.46305	9968.9875
1348.95352	10417.5875
1352.44163	11117.6875
1355.92738	12089.0875
1359.41078	13658.3875
1362.89183	15224.9875
1366.37053	15019.9875
1369.84688	12949.2875
1373.32088	10712.5875
1376.79254	9246.6875
1380.26186	8541.9875
1383.72883	8221.6875
1387.19347	7954.7875
1390.65578	7624.7875
1394.11575	7330.9875
1397.57339	7203.5875
1401.0287	7224.2875
1404.48168	7391.4875
1407.93234	7554.1875
1411.38068	7702.2875
1414.82669	7713.1875
1418.27039	7567.4875
1421.71177	7381.9875
1425.15083	7249.6875
1428.58758	7188.1875
1432.02203	7214.6875
1435.45416	7280.2875
1438.88399	7316.6875
1442.31151	7311.1875
1445.73673	7295.0875
1449.15965	7313.8875
1452.58027	7265.8875
1455.9986	7173.7875
1459.41463	7142.0875
1462.82837	7186.8875
1466.23982	7292.1875
1469.64898	7440.8875
1473.05586	7519.3875
1476.46045	7591.1875
1479.86276	7702.0875
1483.26279	7847.1875
1486.66054	8053.2875
1490.05602	8300.8875
1493.44922	8642.2875
1496.84016	9169.5875
1500.22882	9917.8875
1503.61521	10941.4875
1506.99934	12134.4875
1510.38121	13274.0875
1513.76081	13939.8875
1517.13816	13460.8875
1520.51324	11964.6875
1523.88607	10395.0875
1527.25665	9239.2875
1530.62498	8601.6875
1533.99105	8233.5875
1537.35488	8000.4875
1540.71647	7831.7875
1544.07581	7766.5875
1547.4329	7707.5875
1550.78776	7646.6875
1554.14038	7572.3875
1557.49077	7570.4875
1560.83892	7661.6875
1564.18484	7847.6875
1567.52853	8047.5875
1570.86999	8233.0875
1574.20922	8358.9875
1577.54624	8357.6875
1580.88103	8033.0875
1584.2136	7553.7875
1587.54395	7324.9875
1590.87208	7464.6875
1594.19801	7924.0875
1597.52172	8529.1875
1600.84321	8877.3875
1604.16251	8686.1875
1607.47959	8134.2875
1610.79447	7446.4875
1614.10715	6810.8875
1617.41763	6303.0875
1620.7259	6000.6875
1624.03199	5847.6875
1627.33587	5858.5875
1630.63757	6023.1875
1633.93707	6314.1875
1637.23439	6805.5875
1640.52951	7448.6875
1643.82246	8268.4875
1647.11321	9122.8875
1650.40179	9731.1875
1653.68819	9507.6875
1656.97241	8325.6875
1660.25446	6966.7875
1663.53433	5978.5875
1666.81203	5410.7875
1670.08756	5083.8875
1673.36092	4906.0875
1676.63211	4802.1875
1679.90115	4718.2875
1683.16801	4656.7875
1686.43272	4598.2875
1689.69527	4557.0875
1692.95567	4525.3875
1696.2139	4483.6875
1699.46999	4420.9875
1702.72392	4411.1875
1705.97571	4426.5875
1709.22535	4461.1875
1712.47284	4499.5875
1715.71819	4508.1875
1718.96139	4504.8875
1722.20246	4509.4875
1725.44139	4521.9875
1728.67818	4469.6875
1731.91284	4441.1875
1735.14537	4409.5875
1738.37576	4369.4875
1741.60403	4355.2875
1744.83017	4329.8875
1748.05418	4304.2875
1751.27607	4289.2875
1754.49584	4268.5875
1757.71349	4228.2875
1760.92903	4225.9875
1764.14244	4223.4875
1767.35375	4223.7875
1770.56294	4180.1875
1773.77002	4195.0875
1776.97499	4197.7875
1780.17785	4204.0875
1783.37861	4197.1875
1786.57727	4211.2875
1789.77382	4187.1875
1792.96828	4199.1875
1796.16064	4196.9875
1799.3509	4197.8875
1802.53907	4182.0875
1805.72514	4168.9875
1808.90913	4169.8875
1812.09102	4151.7875
1815.27083	4146.5875
1818.44856	4129.5875
1821.6242	4132.1875
1824.79776	4118.5875
1827.96924	4110.1875
1831.13864	4111.0875
1834.30597	4109.6875
1837.47122	4101.2875
1840.6344	4099.6875
1843.7955	4104.6875
1846.95454	4104.4875
1850.11151	4102.7875
1853.26642	4092.0875
1856.41926	4101.0875
1859.57004	4100.2875
1862.71876	4099.3875
1865.86542	4104.8875
1869.01003	4112.2875
1872.15258	4115.9875
1875.29308	4119.5875
1878.43152	4105.9875
1881.56792	4130.1875
1884.70227	4125.9875
1887.83457	4123.8875
1890.96482	4141.1875
1894.09304	4120.0875
1897.21921	4140.6875
1900.34335	4137.2875
1903.46544	4129.9875
1906.58551	4137.1875
1909.70353	4139.0875
1912.81953	4131.4875
1915.93349	4138.7875
1919.04543	4119.0875
1922.15534	4111.3875
1925.26322	4095.3875
1928.36908	4094.5875
1931.47292	4073.0875
1934.57473	4049.1875
1937.67453	4038.4875
1940.77232	4010.7875
1943.86808	3987.7875
1946.96184	3956.9875
1950.05358	3944.3875
1953.14331	3921.0875
1956.23103	3918.4875
1959.31675	3885.2875
1962.40046	3877.3875
1965.48217	3873.4875
1968.56188	3850.6875
1971.63959	3849.3875
1974.7153	3822.7875
1977.78901	3821.8875
1980.86073	3792.1875
1983.93046	3793.0875
1986.99819	3780.4875
1990.06394	3741.4875
1993.1277	3725.8875
1996.18947	3721.5875
1999.24925	3731.7875
2002.30706	3709.3875
2005.36288	3707.8875
2008.41672	3679.6875
2011.46859	3677.2875
2014.51848	3656.3875
2017.56639	3658.6875
2020.61233	3632.3875
2023.6563	3638.2875
2026.6983	3621.2875
2029.73833	3610.6875
2032.7764	3605.7875
2035.8125	3591.4875
2038.84664	3582.6875
2041.87881	3568.5875
2044.90903	3568.2875
2047.93729	3559.0875
2050.96359	3544.7875
2053.98794	3540.2875
2057.01034	3536.4875
2060.03078	3532.5875
2063.04927	3536.2875
2066.06582	3541.1875
2069.08042	3527.9875
2072.09307	3534.9875
2075.10378	3506.6875
2078.11255	3519.4875
2081.11938	3512.8875
2084.12426	3523.8875
2087.12722	3521.9875
2090.12824	3501.4875
2093.12732	3491.7875
2096.12447	3502.6875
2099.11969	3496.3875
2102.11299	3500.8875
2105.10435	3497.3875
2108.09379	3507.6875
2111.08131	3496.3875
2114.0669	3501.5875
2117.05057	3495.2875
2120.03233	3493.6875
2123.01216	3509.2875
2125.99008	3488.7875
2128.96609	3498.4875
2131.94018	3511.9875
2134.91236	3506.5875
2137.88263	3503.1875
2140.851	3497.4875
2143.81746	3512.1875
2146.78201	3488.9875
2149.74466	3490.7875
2152.7054	3500.7875
2155.66425	3502.7875
2158.6212	3480.7875
2161.57625	3475.5875
2164.52941	3481.2875
2167.48067	3474.3875
2170.43004	3463.0875
2173.37752	3474.7875
2176.32311	3464.5875
2179.26681	3467.1875
2182.20863	3471.5875
2185.14856	3467.0875
2188.08661	3473.2875
2191.02278	3469.1875
2193.95707	3467.7875
2196.88948	3446.1875
2199.82001	3452.0875
2202.74867	3437.6875
2205.67545	3445.0875
2208.60037	3436.4875
2211.52341	3435.0875
2214.44458	3428.4875
2217.36388	3423.3875
2220.28132	3404.7875
2223.1969	3391.6875
2226.11061	3401.1875
2229.02246	3387.6875
2231.93245	3374.4875
2234.84058	3367.8875
2237.74686	3371.0875
2240.65128	3364.9875
2243.55385	3349.0875
2246.45456	3354.5875
2249.35343	3355.3875
2252.25044	3362.5875
2255.14561	3336.6875
2258.03893	3339.7875
2260.93041	3328.8875
2263.82004	3324.5875
2266.70783	3316.5875
2269.59378	3302.8875
2272.4779	3293.6875
2275.36017	3289.9875
2278.24061	3282.4875
2281.11922	3273.2875
2283.996	3266.3875
2286.87094	3256.7875
2289.74405	3250.3875
2292.61534	3236.4875
2295.4848	3234.9875
2298.35243	3240.7875
2301.21824	3240.2875
2304.08223	3225.7875
2306.94439	3244.5875
2309.80474	3229.7875
2312.66327	3234.8875
2315.51999	3221.6875
2318.37489	3231.4875
2321.22797	3212.6875
2324.07925	3210.6875
2326.92871	3213.1875
2329.77637	3205.6875
2332.62222	3199.7875
2335.46626	3189.3875
2338.3085	3179.5875
2341.14893	3208.2875
2343.98756	3191.9875
2346.8244	3184.0875
2349.65943	3195.6875
2352.49267	3185.7875
2355.32411	3184.0875
2358.15376	3181.3875
2360.98161	3192.5875
2363.80768	3189.5875
2366.63195	3197.9875
2369.45444	3198.3875
2372.27514	3195.5875
2375.09405	3183.4875
2377.91118	3167.6875
2380.72652	3164.3875
2383.54009	3149.2875
2386.35187	3127.5875
2389.16188	3112.9875
2391.97011	3111.5875
2394.77657	3112.5875
2397.58125	3097.8875
2400.38416	3084.4875
2403.18529	3083.4875
2405.98466	3073.1875
2408.78226	3062.9875
2411.57809	3067.3875
2414.37216	3060.3875
2417.16446	3056.9875
2419.955	3054.6875
2422.74378	3045.2875
2425.5308	3044.3875
2428.31606	3049.6875
2431.09956	3054.0875
2433.88131	3032.7875
2436.6613	3033.9875
2439.43954	3033.1875
2442.21603	3025.4875
2444.99077	3039.4875
2447.76377	3039.6875
2450.53501	3024.3875
2453.30451	3046.8875
2456.07226	3028.4875
2458.83827	3011.0875
2461.60254	3029.1875
2464.36507	3024.5875
2467.12586	3016.6875
2469.88492	3015.5875
2472.64224	3021.7875
2475.39782	3022.7875
2478.15167	3018.8875
2480.90379	3016.5875
2483.65417	3029.5875
2486.40283	3039.6875
2489.14976	3027.3875
2491.89497	3041.2875
2494.63845	3039.7875
2497.3802	3020.0875
2500.12024	3014.6875
2502.85855	3016.2875
2505.59514	3013.2875
2508.33002	3010.1875
2511.06318	3007.7875
2513.79462	2981.8875
2516.52435	2983.7875
2519.25237	2974.7875
2521.97867	2970.1875
2524.70327	2964.5875
2527.42616	2958.2875
2530.14734	2947.0875
2532.86681	2951.2875
2535.58458	2937.9875
2538.30065	2937.1875
2541.01501	2942.9875
2543.72768	2935.6875
2546.43864	2937.5875
2549.14791	2934.2875
2551.85548	2927.9875
2554.56136	2928.2875
2557.26554	2921.1875
2559.96803	2909.1875
2562.66883	2907.9875
2565.36794	2914.1875
2568.06536	2906.2875
2570.7611	2896.8875
2573.45514	2880.7875
2576.14751	2887.4875
2578.83819	2874.3875
2581.52719	2875.3875
2584.21451	2883.6875
2586.90015	2882.3875
2589.58411	2858.7875
2592.2664	2857.4875
2594.94701	2871.2875
2597.62594	2851.1875
2600.30321	2862.9875
2602.9788	2852.3875
2605.65273	2851.7875
2608.32498	2853.5875
2610.99557	2842.7875
2613.66449	2857.0875
2616.33175	2843.5875
2618.99734	2850.2875
2621.66128	2845.3875
2624.32355	2838.7875
2626.98416	2820.2875
2629.64311	2835.0875
2632.30041	2830.5875
2634.95605	2828.9875
2637.61004	2811.9875
2640.26238	2820.3875
2642.91306	2810.2875
2645.56209	2800.9875
2648.20948	2789.5875
2650.85521	2801.7875
2653.4993	2796.2875
2656.14175	2798.0875
2658.78255	2795.6875
2661.42171	2815.5875
2664.05923	2811.4875
2666.6951	2812.0875
2669.32934	2803.9875
2671.96194	2808.4875
2674.59291	2814.1875
2677.22224	2806.6875
2679.84993	2823.7875
2682.476	2806.9875
2685.10043	2811.0875
2687.72324	2817.1875
2690.34441	2795.1875
2692.96396	2804.3875
2695.58188	2819.0875
2698.19818	2817.9875
2700.81285	2820.1875
2703.4259	2817.4875
2706.03733	2797.5875
2708.64714	2799.0875
2711.25533	2817.9875
2713.86191	2822.4875
2716.46687	2826.3875
2719.07021	2831.4875
2721.67194	2828.8875
2724.27206	2821.8875
2726.87057	2838.8875
2729.46747	2826.1875
2732.06276	2821.1875
2734.65644	2820.6875
2737.24852	2816.7875
2739.83899	2815.4875
2742.42786	2809.6875
2745.01513	2797.8875
2747.60079	2800.9875
2750.18486	2787.4875
2752.76733	2779.8875
2755.3482	2790.1875
2757.92747	2797.9875
2760.50515	2781.8875
2763.08123	2789.1875
2765.65573	2784.5875
2768.22863	2789.3875
2770.79994	2777.2875
2773.36967	2776.8875
2775.9378	2780.1875
2778.50435	2765.0875
2781.06932	2775.6875
2783.6327	2770.4875
2786.1945	2768.9875
2788.75471	2776.9875
2791.31335	2762.8875
2793.87041	2771.3875
2796.42589	2762.8875
2798.97979	2771.7875
2801.53212	2753.5875
2804.08288	2764.9875
2806.63206	2768.4875
2809.17967	2751.2875
2811.72571	2761.9875
2814.27018	2757.7875
2816.81308	2761.2875
2819.35442	2776.3875
2821.89419	2778.0875
2824.43239	2775.8875
2826.96904	2768.2875
2829.50412	2782.7875
2832.03763	2791.4875
2834.56959	2791.0875
2837.1	2792.0875
2839.62884	2795.5875
2842.15613	2823.8875
2844.68186	2870.7875
2847.20604	2898.4875
2849.72867	2935.2875
2852.24974	2955.1875
2854.76927	2933.7875
2857.28724	2930.6875
2859.80367	2926.0875
2862.31855	2904.5875
2864.83189	2897.6875
2867.34368	2891.3875
2869.85393	2884.6875
2872.36264	2896.3875
2874.8698	2879.7875
2877.37543	2877.0875
2879.87952	2867.6875
2882.38207	2865.2875
2884.88308	2866.5875
2887.38256	2878.5875
2889.88051	2854.3875
2892.37692	2860.9875
2894.8718	2870.4875
2897.36515	2869.2875
2899.85698	2857.8875
2902.34727	2860.9875
2904.83604	2879.8875
2907.32328	2879.5875
2909.809	2862.3875
2912.29319	2855.4875
2914.77587	2855.8875
2917.25702	2856.0875
2919.73665	2841.9875
2922.21476	2850.4875
2924.69136	2839.9875
2927.16644	2847.8875
2929.64	2836.5875
2932.11205	2827.2875
2934.58258	2831.7875
2937.05161	2801.0875
2939.51912	2800.9875
2941.98513	2774.7875
2944.44962	2748.5875
2946.91261	2724.2875
2949.37409	2717.7875
2951.83407	2697.3875
2954.29254	2685.4875
2956.74951	2658.8875
2959.20498	2653.2875
2961.65895	2641.5875
2964.11142	2650.7875
2966.56239	2644.9875
2969.01186	2632.3875
2971.45984	2619.2875
2973.90632	2611.6875
2976.35131	2604.4875
2978.7948	2594.3875
2981.23681	2584.0875
2983.67732	2589.9875
2986.11635	2569.7875
2988.55388	2556.1875
2990.98993	2554.8875
2993.4245	2537.8875
2995.85758	2532.3875
2998.28917	2518.8875
3000.71928	2515.0875
3003.14791	2507.6875
3005.57506	2500.6875
3008.00073	2499.6875
3010.42493	2503.4875
3012.84764	2504.4875
3015.26888	2499.1875
3017.68865	2494.6875
3020.10694	2491.2875
3022.52376	2469.3875
3024.9391	2470.9875
3027.35298	2472.4875
3029.76539	2477.4875
3032.17632	2467.4875
3034.5858	2470.1875
3036.9938	2464.7875
3039.40034	2454.3875
3041.80542	2467.0875
3044.20903	2452.9875
3046.61118	2466.6875
3049.01187	2455.9875
3051.4111	2445.0875
3053.80888	2443.0875
3056.20519	2434.1875
3058.60005	2429.9875
3060.99345	2433.8875
3063.3854	2421.1875
3065.7759	2416.1875
3068.16494	2415.3875
3070.55254	2402.9875
3072.93868	2398.5875
3075.32338	2400.1875
3077.70662	2397.5875
3080.08842	2380.9875
3082.46878	2394.5875
3084.84769	2377.6875
3087.22515	2386.0875
3089.60118	2370.7875
3091.97576	2362.1875
3094.3489	2385.0875
3096.72061	2377.1875
3099.09087	2374.8875
3101.4597	2377.2875
3103.82709	2372.8875
3106.19305	2371.6875
3108.55757	2368.6875
3110.92066	2373.2875
3113.28232	2369.5875
3115.64255	2370.5875
3118.00134	2359.5875
3120.35871	2361.0875
3122.71466	2358.4875
3125.06917	2370.6875
3127.42226	2370.0875
3129.77393	2372.6875
3132.12417	2360.4875
3134.47299	2365.4875
3136.82039	2375.6875
3139.16636	2372.4875
3141.51092	2385.9875
3143.85406	2382.5875
3146.19579	2379.1875
3148.53609	2388.1875
3150.87499	2402.1875
3153.21246	2404.3875
3155.54853	2406.6875
3157.88318	2404.6875
3160.21642	2415.4875
3162.54826	2401.3875
3164.87868	2401.9875
3167.2077	2418.6875
3169.5353	2419.5875
3171.86151	2422.8875
3174.18631	2427.9875
3176.5097	2423.9875
3178.83169	2429.5875
3181.15228	2424.8875
3183.47147	2418.1875
3185.78926	2429.3875
3188.10565	2428.8875
3190.42065	2435.1875
3192.73424	2429.5875
3195.04645	2428.6875
3197.35725	2430.2875
3199.66667	2434.8875
3201.97469	2434.5875
3204.28132	2456.1875
3206.58656	2441.8875
3208.8904	2458.7875
3211.19287	2465.3875
3213.49394	2465.6875
3215.79363	2462.9875
3218.09193	2475.4875
3220.38884	2457.2875
3222.68438	2469.0875
3224.97853	2459.7875
3227.2713	2468.4875
3229.56269	2461.9875
3231.8527	2465.1875
3234.14133	2453.7875
3236.42858	2461.1875
3238.71446	2438.9875
3240.99896	2451.3875
3243.28209	2456.6875
3245.56384	2434.5875
3247.84423	2445.7875
3250.12324	2447.8875
3252.40088	2444.9875
3254.67715	2430.0875
3256.95205	2438.6875
3259.22558	2439.9875
3261.49775	2439.0875
3263.76855	2436.9875
3266.03799	2410.4875
3268.30606	2411.5875
3270.57277	2412.8875
3272.83812	2413.5875
3275.10211	2400.4875
3277.36474	2401.6875
3279.62601	2392.3875
3281.88593	2395.4875
3284.14448	2406.2875
3286.40168	2394.0875
3288.65753	2395.7875
3290.91202	2400.3875
3293.16516	2385.2875
3295.41695	2381.0875
3297.66738	2364.0875
3299.91647	2354.5875
3302.16421	2341.7875
3304.4106	2331.0875
3306.65564	2331.1875
3308.89933	2313.5875
3311.14169	2290.8875
3313.38269	2268.9875
3315.62236	2255.6875
3317.86068	2231.1875
3320.09766	2217.0875
3322.3333	2207.4875
3324.5676	2198.0875
3326.80056	2163.0875
3329.03219	2153.3875
3331.26248	0.9875
3333.49143	0.2875
3335.71905	-0.7125
