Data from AgNPs_FTO_APTES_UA_1uM_CRN_0uM_R6G_10uM_NaF_0.1M_Addition_RamanShift__26__11-35-59-436.txt Node

Date: Thu Jan 27 11:35:59 GMT 2022
User: TCL
Spectrometer: QEP01345
Trigger mode: 4
Integration Time (sec): 7.000000E0
Scans to average: 10
Electric dark correction enabled: true
Nonlinearity correction enabled: false
Boxcar width: 0
XAxis mode: Raman Shifts
Number of Pixels in Spectrum: 1044
>>>>>Begin Spectral Data<<<<<
46.04893	-0.3625
50.45542	-0.5625
54.85868	-1.7625
59.25871	-0.3625
63.6555	50.5375
68.04907	49.5375
72.43941	56.2375
76.82654	58.1375
81.21044	60.2375
85.59113	63.4375
89.96862	64.2375
94.34289	67.9375
98.71396	72.2375
103.08183	67.7375
107.4465	73.9375
111.80798	74.3375
116.16626	75.3375
120.52136	82.7375
124.87327	82.3375
129.222	83.6375
133.56755	85.6375
137.90993	93.0375
142.24913	99.0375
146.58517	108.1375
150.91804	131.3375
155.24774	144.4375
159.57429	174.9375
163.89768	220.9375
168.21792	293.7375
172.53501	397.1375
176.84895	537.2375
181.15975	749.0375
185.46741	1054.6375
189.77193	1448.5375
194.07331	1934.6375
198.37157	2496.2375
202.6667	3075.8375
206.9587	3665.4375
211.24758	4248.3375
215.53334	4829.0375
219.81599	5457.4375
224.09553	6134.6375
228.37195	6914.8375
232.64527	7752.6375
236.91549	8593.7375
241.18261	9478.0375
245.44663	10271.9375
249.70755	10958.9375
253.96539	11574.6375
258.22014	12054.8375
262.4718	12440.9375
266.72039	12716.2375
270.96589	12828.6375
275.20832	12832.9375
279.44768	12639.2375
283.68397	12448.4375
287.91719	12320.9375
292.14735	12203.3375
296.37445	12169.4375
300.59849	12232.5375
304.81948	12343.9375
309.03742	12428.3375
313.25231	12481.4375
317.46415	12371.0375
321.67296	12221.9375
325.87872	12092.6375
330.08145	12039.8375
334.28114	12022.3375
338.47781	12119.0375
342.67145	12252.9375
346.86207	12451.2375
351.04966	12685.0375
355.23424	12968.9375
359.4158	13142.0375
363.59435	13312.1375
367.76989	13384.2375
371.94243	13488.5375
376.11196	13525.2375
380.27849	13605.8375
384.44203	13665.4375
388.60257	13767.7375
392.76012	13868.3375
396.91468	13988.5375
401.06626	14164.2375
405.21485	14316.5375
409.36047	14324.1375
413.50311	14240.4375
417.64277	14195.3375
421.77947	14228.5375
425.9132	14334.3375
430.04396	14376.7375
434.17176	14466.1375
438.2966	14613.9375
442.41849	14910.8375
446.53742	15402.7375
450.6534	15962.1375
454.76644	16310.8375
458.87653	16330.3375
462.98368	16075.5375
467.08789	15704.6375
471.18916	15299.3375
475.2875	14859.7375
479.38291	14532.6375
483.4754	14316.1375
487.56496	14225.1375
491.6516	14195.8375
495.73531	14246.4375
499.81612	14360.7375
503.89401	14511.5375
507.96899	14560.6375
512.04106	14486.9375
516.11023	14363.8375
520.1765	14317.6375
524.23987	14350.0375
528.30034	14324.5375
532.35792	14296.0375
536.41261	14068.1375
540.46441	13854.1375
544.51333	13731.3375
548.55936	13828.6375
552.60252	14025.9375
556.64279	14374.9375
560.6802	14605.2375
564.71473	14595.2375
568.7464	14610.7375
572.7752	14776.2375
576.80114	15032.4375
580.82422	15463.0375
584.84444	16232.6375
588.86181	17312.2375
592.87633	18452.9375
596.888	18770.9375
600.89682	17950.0375
604.9028	17462.8375
608.90594	18494.9375
612.90624	19916.3375
616.90371	19082.9375
620.89834	16384.9375
624.89015	15074.5375
628.87913	14864.0375
632.86528	14798.4375
636.84862	14554.2375
640.82913	14253.6375
644.80683	13923.9375
648.78172	13731.5375
652.75379	13758.9375
656.72306	13954.6375
660.68952	14235.0375
664.65319	14217.0375
668.61405	14001.1375
672.57211	13995.0375
676.52738	14113.7375
680.47986	14072.8375
684.42955	13956.2375
688.37646	13841.9375
692.32058	14019.8375
696.26192	14289.4375
700.20048	14551.3375
704.13626	14623.3375
708.06928	14466.8375
711.99952	14311.1375
715.927	14354.6375
719.85171	14487.3375
723.77365	14488.6375
727.69284	14206.5375
731.60928	13975.9375
735.52295	13921.8375
739.43388	13937.0375
743.34206	14029.5375
747.24749	14079.0375
751.15017	14191.0375
755.05012	14386.0375
758.94733	14689.7375
762.8418	15276.4375
766.73354	16163.5375
770.62254	17084.1375
774.50882	17396.9375
778.39237	16892.3375
782.27321	16051.1375
786.15132	15236.0375
790.02671	14708.3375
793.89938	14447.8375
797.76935	14368.5375
801.6366	14330.2375
805.50115	14323.8375
809.36299	14242.0375
813.22213	14118.8375
817.07857	14017.6375
820.93231	13936.3375
824.78336	13924.2375
828.63172	13920.8375
832.47738	13966.4375
836.32036	14037.5375
840.16066	14141.2375
843.99827	14236.1375
847.8332	14213.9375
851.66546	14061.8375
855.49504	14027.4375
859.32195	14051.0375
863.1462	13991.5375
866.96777	13887.4375
870.78668	13873.5375
874.60293	13870.1375
878.41652	13900.5375
882.22745	13991.5375
886.03573	14082.9375
889.84136	14099.2375
893.64433	14033.4375
897.44466	13916.6375
901.24235	13848.7375
905.0374	13788.3375
908.8298	13772.6375
912.61957	13785.0375
916.40671	13908.1375
920.19121	14124.4375
923.97308	14375.4375
927.75233	14618.5375
931.52895	14648.8375
935.30295	14480.6375
939.07433	14225.2375
942.84309	14036.8375
946.60924	13997.4375
950.37278	13960.0375
954.13371	13908.8375
957.89203	13796.3375
961.64774	13725.4375
965.40086	13698.6375
969.15137	13704.3375
972.89929	13658.1375
976.64461	13725.7375
980.38733	13801.6375
984.12747	13922.7375
987.86502	14032.5375
991.59999	14269.7375
995.33237	14634.3375
999.06217	15216.5375
1002.78939	15903.5375
1006.51404	16314.7375
1010.23611	16506.8375
1013.95561	16606.6375
1017.67255	16557.6375
1021.38692	16370.8375
1025.09872	16252.8375
1028.80796	16536.3375
1032.51465	17393.8375
1036.21877	18264.9375
1039.92035	18431.8375
1043.61937	18065.4375
1047.31584	17349.4375
1051.00976	16524.7375
1054.70114	15953.8375
1058.38998	15704.9375
1062.07627	15613.7375
1065.76003	15524.6375
1069.44126	15528.9375
1073.11995	15749.7375
1076.79611	16018.7375
1080.46974	16255.0375
1084.14085	16419.2375
1087.80943	16518.3375
1091.47549	16556.1375
1095.13903	16418.7375
1098.80005	16095.5375
1102.45857	15783.6375
1106.11456	15532.6375
1109.76805	15521.5375
1113.41903	15552.6375
1117.06751	15579.7375
1120.71348	15666.3375
1124.35696	15760.3375
1127.99793	15891.4375
1131.63641	15997.3375
1135.2724	15968.9375
1138.90589	15843.7375
1142.5369	15834.3375
1146.16542	15812.5375
1149.79145	15859.8375
1153.415	15899.3375
1157.03607	15966.3375
1160.65467	16293.6375
1164.27079	16914.3375
1167.88443	17700.0375
1171.49561	18700.9375
1175.10432	19949.4375
1178.71056	21624.8375
1182.31434	23389.2375
1185.91565	24326.5375
1189.51451	24157.6375
1193.11091	23346.5375
1196.70485	22338.1375
1200.29634	21376.2375
1203.88538	20807.5375
1207.47197	20318.0375
1211.05612	19885.4375
1214.63782	19451.2375
1218.21708	19174.0375
1221.79391	19125.2375
1225.36829	19171.1375
1228.94024	19018.7375
1232.50976	18516.6375
1236.07685	18032.7375
1239.6415	17697.0375
1243.20374	17633.7375
1246.76355	17783.8375
1250.32093	18152.3375
1253.8759	18627.4375
1257.42845	19200.5375
1260.97859	19803.6375
1264.52631	20487.5375
1268.07163	21196.0375
1271.61453	21971.3375
1275.15503	22794.9375
1278.69312	23524.5375
1282.22882	24077.0375
1285.76211	24637.8375
1289.29301	25243.7375
1292.82151	26081.0375
1296.34761	27238.6375
1299.87133	28971.4375
1303.39266	31069.8375
1306.9116	33178.6375
1310.42815	34812.0375
1313.94233	35473.0375
1317.45412	34737.1375
1320.96354	33045.4375
1324.47058	31302.6375
1327.97525	29943.0375
1331.47754	29061.7375
1334.97747	28611.4375
1338.47502	28175.8375
1341.97022	27636.9375
1345.46305	27050.4375
1348.95352	26983.1375
1352.44163	27692.9375
1355.92738	29412.0375
1359.41078	31844.9375
1362.89183	33683.8375
1366.37053	33511.5375
1369.84688	30859.7375
1373.32088	27198.1375
1376.79254	24512.5375
1380.26186	23340.5375
1383.72883	23139.4375
1387.19347	23014.0375
1390.65578	22538.5375
1394.11575	22192.1375
1397.57339	22185.5375
1401.0287	22434.5375
1404.48168	22579.2375
1407.93234	22679.8375
1411.38068	22552.0375
1414.82669	22276.7375
1418.27039	21786.7375
1421.71177	21210.5375
1425.15083	20673.9375
1428.58758	20556.5375
1432.02203	20791.3375
1435.45416	21462.7375
1438.88399	22054.5375
1442.31151	22346.5375
1445.73673	22333.4375
1449.15965	22269.2375
1452.58027	22013.4375
1455.9986	21644.5375
1459.41463	21526.8375
1462.82837	21823.4375
1466.23982	22386.5375
1469.64898	22941.0375
1473.05586	23433.3375
1476.46045	23782.1375
1479.86276	23852.6375
1483.26279	23767.5375
1486.66054	23761.5375
1490.05602	23860.0375
1493.44922	23993.3375
1496.84016	23991.2375
1500.22882	23989.8375
1503.61521	24230.8375
1506.99934	24634.4375
1510.38121	25122.1375
1513.76081	25305.6375
1517.13816	24826.1375
1520.51324	23984.1375
1523.88607	23309.6375
1527.25665	23027.8375
1530.62498	23036.5375
1533.99105	23016.8375
1537.35488	22826.0375
1540.71647	22527.6375
1544.07581	22109.5375
1547.4329	21708.9375
1550.78776	21337.0375
1554.14038	21044.0375
1557.49077	20814.7375
1560.83892	20614.4375
1564.18484	20440.8375
1567.52853	20378.9375
1570.86999	20506.4375
1574.20922	20724.4375
1577.54624	20940.2375
1580.88103	21068.8375
1584.2136	21219.5375
1587.54395	22043.4375
1590.87208	23577.5375
1594.19801	25557.5375
1597.52172	27502.6375
1600.84321	28223.0375
1604.16251	27129.9375
1607.47959	24719.5375
1610.79447	22133.3375
1614.10715	19965.4375
1617.41763	18433.5375
1620.7259	17515.2375
1624.03199	17210.7375
1627.33587	17339.5375
1630.63757	17912.0375
1633.93707	18895.3375
1637.23439	20433.3375
1640.52951	22793.8375
1643.82246	25738.6375
1647.11321	28067.3375
1650.40179	28231.4375
1653.68819	25834.4375
1656.97241	22209.1375
1660.25446	19015.8375
1663.53433	16934.7375
1666.81203	15748.5375
1670.08756	15052.0375
1673.36092	14579.9375
1676.63211	14322.4375
1679.90115	14073.4375
1683.16801	13934.6375
1686.43272	13803.9375
1689.69527	13709.2375
1692.95567	13608.0375
1696.2139	13555.4375
1699.46999	13462.7375
1702.72392	13428.0375
1705.97571	13447.9375
1709.22535	13484.6375
1712.47284	13501.4375
1715.71819	13562.5375
1718.96139	13532.1375
1722.20246	13447.7375
1725.44139	13433.6375
1728.67818	13388.1375
1731.91284	13327.2375
1735.14537	13265.6375
1738.37576	13207.2375
1741.60403	13162.9375
1744.83017	13092.1375
1748.05418	13074.3375
1751.27607	13047.3375
1754.49584	13008.7375
1757.71349	12989.8375
1760.92903	12971.9375
1764.14244	12972.2375
1767.35375	12968.9375
1770.56294	12973.9375
1773.77002	12960.3375
1776.97499	12961.7375
1780.17785	12956.1375
1783.37861	12978.6375
1786.57727	13006.5375
1789.77382	12958.9375
1792.96828	12966.5375
1796.16064	12934.1375
1799.3509	12922.0375
1802.53907	12900.0375
1805.72514	12868.0375
1808.90913	12882.1375
1812.09102	12842.3375
1815.27083	12810.7375
1818.44856	12820.3375
1821.6242	12789.0375
1824.79776	12767.8375
1827.96924	12775.2375
1831.13864	12787.2375
1834.30597	12733.3375
1837.47122	12763.4375
1840.6344	12766.4375
1843.7955	12748.3375
1846.95454	12766.0375
1850.11151	12749.9375
1853.26642	12757.6375
1856.41926	12745.0375
1859.57004	12757.4375
1862.71876	12739.1375
1865.86542	12728.3375
1869.01003	12755.6375
1872.15258	12745.4375
1875.29308	12760.4375
1878.43152	12717.9375
1881.56792	12743.7375
1884.70227	12711.9375
1887.83457	12700.6375
1890.96482	12684.2375
1894.09304	12687.2375
1897.21921	12684.9375
1900.34335	12684.3375
1903.46544	12671.8375
1906.58551	12684.2375
1909.70353	12672.6375
1912.81953	12644.3375
1915.93349	12638.7375
1919.04543	12628.0375
1922.15534	12610.0375
1925.26322	12582.5375
1928.36908	12565.1375
1931.47292	12529.6375
1934.57473	12556.5375
1937.67453	12499.3375
1940.77232	12454.4375
1943.86808	12451.9375
1946.96184	12412.3375
1950.05358	12374.7375
1953.14331	12357.1375
1956.23103	12340.9375
1959.31675	12325.9375
1962.40046	12313.6375
1965.48217	12243.0375
1968.56188	12196.5375
1971.63959	12191.9375
1974.7153	12180.6375
1977.78901	12150.7375
1980.86073	12119.0375
1983.93046	12074.1375
1986.99819	12037.0375
1990.06394	12020.8375
1993.1277	11987.3375
1996.18947	11948.7375
1999.24925	11946.8375
2002.30706	11895.8375
2005.36288	11847.8375
2008.41672	11851.4375
2011.46859	11817.2375
2014.51848	11765.2375
2017.56639	11762.0375
2020.61233	11754.7375
2023.6563	11765.0375
2026.6983	11719.9375
2029.73833	11694.6375
2032.7764	11701.6375
2035.8125	11697.1375
2038.84664	11692.4375
2041.87881	11675.3375
2044.90903	11639.7375
2047.93729	11622.5375
2050.96359	11611.1375
2053.98794	11614.7375
2057.01034	11602.2375
2060.03078	11599.0375
2063.04927	11594.3375
2066.06582	11612.4375
2069.08042	11592.1375
2072.09307	11580.6375
2075.10378	11587.8375
2078.11255	11592.1375
2081.11938	11582.1375
2084.12426	11595.1375
2087.12722	11570.1375
2090.12824	11557.9375
2093.12732	11579.8375
2096.12447	11595.2375
2099.11969	11594.2375
2102.11299	11603.9375
2105.10435	11651.8375
2108.09379	11625.6375
2111.08131	11631.8375
2114.0669	11642.8375
2117.05057	11629.1375
2120.03233	11646.1375
2123.01216	11666.5375
2125.99008	11661.9375
2128.96609	11683.0375
2131.94018	11690.9375
2134.91236	11691.8375
2137.88263	11719.2375
2140.851	11731.7375
2143.81746	11739.0375
2146.78201	11759.5375
2149.74466	11761.3375
2152.7054	11796.9375
2155.66425	11779.4375
2158.6212	11784.1375
2161.57625	11772.2375
2164.52941	11791.5375
2167.48067	11750.4375
2170.43004	11753.7375
2173.37752	11772.9375
2176.32311	11774.2375
2179.26681	11775.6375
2182.20863	11796.7375
2185.14856	11800.6375
2188.08661	11817.2375
2191.02278	11820.6375
2193.95707	11812.3375
2196.88948	11824.5375
2199.82001	11823.5375
2202.74867	11838.6375
2205.67545	11846.8375
2208.60037	11843.3375
2211.52341	11840.3375
2214.44458	11848.8375
2217.36388	11803.6375
2220.28132	11816.0375
2223.1969	11821.0375
2226.11061	11804.0375
2229.02246	11770.5375
2231.93245	11731.2375
2234.84058	11745.8375
2237.74686	11744.0375
2240.65128	11745.4375
2243.55385	11715.4375
2246.45456	11695.4375
2249.35343	11663.1375
2252.25044	11655.0375
2255.14561	11663.5375
2258.03893	11631.2375
2260.93041	11595.2375
2263.82004	11587.4375
2266.70783	11571.2375
2269.59378	11536.8375
2272.4779	11543.4375
2275.36017	11529.8375
2278.24061	11497.1375
2281.11922	11507.2375
2283.996	11477.4375
2286.87094	11468.9375
2289.74405	11461.8375
2292.61534	11479.0375
2295.4848	11489.8375
2298.35243	11502.4375
2301.21824	11499.6375
2304.08223	11531.3375
2306.94439	11538.1375
2309.80474	11528.3375
2312.66327	11566.9375
2315.51999	11584.6375
2318.37489	11579.3375
2321.22797	11579.1375
2324.07925	11563.3375
2326.92871	11566.1375
2329.77637	11558.5375
2332.62222	11570.1375
2335.46626	11538.9375
2338.3085	11539.1375
2341.14893	11556.3375
2343.98756	11570.3375
2346.8244	11542.2375
2349.65943	11566.4375
2352.49267	11510.8375
2355.32411	11515.1375
2358.15376	11518.3375
2360.98161	11499.8375
2363.80768	11501.3375
2366.63195	11477.4375
2369.45444	11489.8375
2372.27514	11430.0375
2375.09405	11431.9375
2377.91118	11401.3375
2380.72652	11363.6375
2383.54009	11393.0375
2386.35187	11358.2375
2389.16188	11352.3375
2391.97011	11328.5375
2394.77657	11322.4375
2397.58125	11326.8375
2400.38416	11316.1375
2403.18529	11292.7375
2405.98466	11290.5375
2408.78226	11266.7375
2411.57809	11246.3375
2414.37216	11228.3375
2417.16446	11206.4375
2419.955	11180.8375
2422.74378	11225.1375
2425.5308	11191.0375
2428.31606	11190.7375
2431.09956	11207.1375
2433.88131	11160.7375
2436.6613	11201.9375
2439.43954	11168.8375
2442.21603	11184.4375
2444.99077	11168.4375
2447.76377	11188.9375
2450.53501	11178.5375
2453.30451	11186.3375
2456.07226	11191.7375
2458.83827	11163.4375
2461.60254	11187.0375
2464.36507	11190.1375
2467.12586	11176.9375
2469.88492	11213.8375
2472.64224	11227.8375
2475.39782	11231.2375
2478.15167	11207.0375
2480.90379	11225.5375
2483.65417	11247.0375
2486.40283	11237.9375
2489.14976	11282.4375
2491.89497	11251.5375
2494.63845	11286.7375
2497.3802	11261.5375
2500.12024	11282.8375
2502.85855	11254.5375
2505.59514	11267.4375
2508.33002	11229.8375
2511.06318	11217.3375
2513.79462	11217.0375
2516.52435	11210.0375
2519.25237	11231.7375
2521.97867	11207.4375
2524.70327	11239.0375
2527.42616	11207.9375
2530.14734	11231.2375
2532.86681	11223.8375
2535.58458	11199.5375
2538.30065	11195.0375
2541.01501	11221.5375
2543.72768	11190.3375
2546.43864	11193.2375
2549.14791	11198.1375
2551.85548	11189.5375
2554.56136	11158.6375
2557.26554	11154.1375
2559.96803	11144.5375
2562.66883	11183.1375
2565.36794	11163.0375
2568.06536	11150.1375
2570.7611	11164.7375
2573.45514	11136.0375
2576.14751	11152.6375
2578.83819	11154.1375
2581.52719	11182.5375
2584.21451	11193.1375
2586.90015	11181.0375
2589.58411	11154.7375
2592.2664	11145.0375
2594.94701	11149.6375
2597.62594	11135.8375
2600.30321	11151.2375
2602.9788	11109.6375
2605.65273	11116.1375
2608.32498	11108.9375
2610.99557	11123.2375
2613.66449	11154.3375
2616.33175	11136.0375
2618.99734	11115.5375
2621.66128	11109.8375
2624.32355	11112.8375
2626.98416	11094.8375
2629.64311	11090.7375
2632.30041	11090.1375
2634.95605	11081.2375
2637.61004	11071.2375
2640.26238	11045.9375
2642.91306	11048.6375
2645.56209	11035.8375
2648.20948	11008.7375
2650.85521	11023.7375
2653.4993	11038.6375
2656.14175	11046.6375
2658.78255	11053.3375
2661.42171	11051.3375
2664.05923	11059.7375
2666.6951	11089.1375
2669.32934	11138.9375
2671.96194	11101.4375
2674.59291	11105.4375
2677.22224	11091.6375
2679.84993	11091.6375
2682.476	11076.1375
2685.10043	11061.6375
2687.72324	11058.5375
2690.34441	11063.6375
2692.96396	11034.0375
2695.58188	11072.5375
2698.19818	11043.6375
2700.81285	11064.1375
2703.4259	11037.9375
2706.03733	11010.6375
2708.64714	11028.8375
2711.25533	11060.4375
2713.86191	11069.0375
2716.46687	11078.0375
2719.07021	11087.9375
2721.67194	11114.1375
2724.27206	11122.7375
2726.87057	11140.5375
2729.46747	11136.1375
2732.06276	11139.7375
2734.65644	11108.5375
2737.24852	11144.8375
2739.83899	11176.6375
2742.42786	11147.1375
2745.01513	11127.2375
2747.60079	11113.5375
2750.18486	11128.9375
2752.76733	11122.8375
2755.3482	11126.8375
2757.92747	11137.3375
2760.50515	11100.8375
2763.08123	11110.1375
2765.65573	11127.9375
2768.22863	11145.8375
2770.79994	11143.6375
2773.36967	11109.6375
2775.9378	11154.4375
2778.50435	11115.1375
2781.06932	11119.7375
2783.6327	11108.7375
2786.1945	11112.6375
2788.75471	11100.2375
2791.31335	11092.6375
2793.87041	11104.8375
2796.42589	11073.7375
2798.97979	11073.4375
2801.53212	11069.1375
2804.08288	11050.7375
2806.63206	11039.1375
2809.17967	11001.5375
2811.72571	10981.7375
2814.27018	10973.9375
2816.81308	10952.6375
2819.35442	10938.4375
2821.89419	10931.2375
2824.43239	10947.0375
2826.96904	10947.4375
2829.50412	10929.3375
2832.03763	10918.0375
2834.56959	10966.5375
2837.1	10940.9375
2839.62884	10933.1375
2842.15613	10935.0375
2844.68186	10968.4375
2847.20604	10982.0375
2849.72867	10984.0375
2852.24974	10976.7375
2854.76927	10983.9375
2857.28724	10937.5375
2859.80367	10972.4375
2862.31855	10949.2375
2864.83189	10967.9375
2867.34368	10956.6375
2869.85393	10973.9375
2872.36264	10957.2375
2874.8698	10966.4375
2877.37543	10980.1375
2879.87952	10965.0375
2882.38207	11004.9375
2884.88308	11000.0375
2887.38256	11027.5375
2889.88051	11014.7375
2892.37692	11038.7375
2894.8718	11047.4375
2897.36515	11059.1375
2899.85698	11109.4375
2902.34727	11115.6375
2904.83604	11126.8375
2907.32328	11130.8375
2909.809	11109.1375
2912.29319	11158.7375
2914.77587	11108.7375
2917.25702	11120.3375
2919.73665	11092.9375
2922.21476	11105.2375
2924.69136	11091.1375
2927.16644	11085.7375
2929.64	11072.4375
2932.11205	11076.6375
2934.58258	11070.7375
2937.05161	11056.8375
2939.51912	11063.9375
2941.98513	11044.5375
2944.44962	11011.3375
2946.91261	10982.2375
2949.37409	10976.4375
2951.83407	10962.4375
2954.29254	10967.7375
2956.74951	10949.9375
2959.20498	10930.0375
2961.65895	10929.9375
2964.11142	10909.5375
2966.56239	10867.5375
2969.01186	10878.9375
2971.45984	10870.9375
2973.90632	10877.1375
2976.35131	10831.3375
2978.7948	10821.0375
2981.23681	10773.9375
2983.67732	10786.0375
2986.11635	10751.5375
2988.55388	10709.0375
2990.98993	10680.0375
2993.4245	10658.5375
2995.85758	10635.6375
2998.28917	10602.0375
3000.71928	10609.0375
3003.14791	10584.0375
3005.57506	10562.2375
3008.00073	10565.1375
3010.42493	10571.2375
3012.84764	10556.2375
3015.26888	10539.6375
3017.68865	10509.8375
3020.10694	10511.3375
3022.52376	10504.1375
3024.9391	10505.6375
3027.35298	10501.2375
3029.76539	10489.2375
3032.17632	10467.8375
3034.5858	10460.7375
3036.9938	10470.9375
3039.40034	10453.8375
3041.80542	10469.7375
3044.20903	10440.6375
3046.61118	10448.8375
3049.01187	10417.9375
3051.4111	10434.0375
3053.80888	10413.6375
3056.20519	10400.6375
3058.60005	10381.9375
3060.99345	10374.1375
3063.3854	10355.6375
3065.7759	10316.7375
3068.16494	10326.7375
3070.55254	10292.1375
3072.93868	10280.4375
3075.32338	10260.6375
3077.70662	10253.0375
3080.08842	10232.2375
3082.46878	10245.0375
3084.84769	10212.5375
3087.22515	10237.3375
3089.60118	10221.7375
3091.97576	10241.8375
3094.3489	10235.6375
3096.72061	10233.6375
3099.09087	10239.6375
3101.4597	10218.2375
3103.82709	10226.3375
3106.19305	10217.9375
3108.55757	10227.9375
3110.92066	10200.0375
3113.28232	10191.8375
3115.64255	10175.8375
3118.00134	10158.0375
3120.35871	10159.6375
3122.71466	10143.8375
3125.06917	10129.5375
3127.42226	10112.4375
3129.77393	10113.3375
3132.12417	10107.0375
3134.47299	10106.6375
3136.82039	10111.3375
3139.16636	10109.7375
3141.51092	10120.7375
3143.85406	10133.9375
3146.19579	10124.1375
3148.53609	10163.1375
3150.87499	10176.5375
3153.21246	10158.8375
3155.54853	10165.0375
3157.88318	10178.0375
3160.21642	10193.4375
3162.54826	10165.6375
3164.87868	10153.4375
3167.2077	10157.0375
3169.5353	10168.4375
3171.86151	10170.8375
3174.18631	10198.4375
3176.5097	10204.3375
3178.83169	10159.7375
3181.15228	10143.4375
3183.47147	10144.2375
3185.78926	10137.7375
3188.10565	10137.1375
3190.42065	10129.7375
3192.73424	10143.6375
3195.04645	10146.0375
3197.35725	10162.4375
3199.66667	10130.8375
3201.97469	10137.1375
3204.28132	10123.1375
3206.58656	10160.9375
3208.8904	10179.9375
3211.19287	10179.4375
3213.49394	10178.7375
3215.79363	10186.8375
3218.09193	10183.0375
3220.38884	10201.1375
3222.68438	10199.2375
3224.97853	10180.5375
3227.2713	10192.1375
3229.56269	10160.5375
3231.8527	10150.7375
3234.14133	10179.2375
3236.42858	10151.0375
3238.71446	10157.2375
3240.99896	10098.8375
3243.28209	10144.3375
3245.56384	10121.1375
3247.84423	10101.6375
3250.12324	10111.7375
3252.40088	10095.9375
3254.67715	10099.3375
3256.95205	10096.3375
3259.22558	10083.5375
3261.49775	10077.1375
3263.76855	10065.0375
3266.03799	10059.2375
3268.30606	10067.5375
3270.57277	10078.2375
3272.83812	10035.5375
3275.10211	10016.8375
3277.36474	9992.8375
3279.62601	9984.9375
3281.88593	9981.3375
3284.14448	9983.4375
3286.40168	10013.8375
3288.65753	9989.9375
3290.91202	10000.1375
3293.16516	9982.3375
3295.41695	9956.8375
3297.66738	9909.9375
3299.91647	9841.3375
3302.16421	9787.6375
3304.4106	9765.1375
3306.65564	9720.6375
3308.89933	9642.0375
3311.14169	9595.4375
3313.38269	9528.1375
3315.62236	9479.4375
3317.86068	9392.3375
3320.09766	9307.9375
3322.3333	9262.4375
3324.5676	9264.2375
3326.80056	9122.4375
3329.03219	9064.7375
3331.26248	4.1375
3333.49143	0.1375
3335.71905	-0.9625
