Data from AgNPs_FTO_APTES_UA_1uM_CRN_1uM_R6G_10uM_NaF_0.1M_Addition_RamanShift__34__12-51-49-523.txt Node

Date: Thu Jan 27 12:51:49 GMT 2022
User: TCL
Spectrometer: QEP01345
Trigger mode: 4
Integration Time (sec): 7.000000E0
Scans to average: 10
Electric dark correction enabled: true
Nonlinearity correction enabled: false
Boxcar width: 0
XAxis mode: Raman Shifts
Number of Pixels in Spectrum: 1044
>>>>>Begin Spectral Data<<<<<
46.04893	0.5375
50.45542	0.7375
54.85868	-2.0625
59.25871	-1.1625
63.6555	57.0375
68.04907	57.0375
72.43941	57.2375
76.82654	62.4375
81.21044	64.4375
85.59113	61.5375
89.96862	66.5375
94.34289	73.3375
98.71396	74.3375
103.08183	72.1375
107.4465	75.0375
111.80798	80.0375
116.16626	78.8375
120.52136	85.0375
124.87327	83.0375
129.222	84.2375
133.56755	86.8375
137.90993	92.7375
142.24913	101.9375
146.58517	112.6375
150.91804	128.5375
155.24774	146.8375
159.57429	178.1375
163.89768	228.6375
168.21792	293.8375
172.53501	396.3375
176.84895	548.1375
181.15975	769.3375
185.46741	1079.9375
189.77193	1488.8375
194.07331	1998.7375
198.37157	2570.4375
202.6667	3194.0375
206.9587	3786.9375
211.24758	4391.3375
215.53334	4996.4375
219.81599	5626.8375
224.09553	6321.4375
228.37195	7082.2375
232.64527	7922.4375
236.91549	8823.1375
241.18261	9748.1375
245.44663	10575.1375
249.70755	11333.7375
253.96539	12037.2375
258.22014	12600.5375
262.4718	13056.1375
266.72039	13413.4375
270.96589	13602.9375
275.20832	13608.6375
279.44768	13484.5375
283.68397	13297.9375
287.91719	13116.2375
292.14735	12971.7375
296.37445	12928.1375
300.59849	12985.2375
304.81948	13076.1375
309.03742	13144.4375
313.25231	13122.1375
317.46415	12888.1375
321.67296	12614.5375
325.87872	12390.8375
330.08145	12322.4375
334.28114	12391.3375
338.47781	12481.5375
342.67145	12647.9375
346.86207	12847.0375
351.04966	13116.2375
355.23424	13441.3375
359.4158	13748.8375
363.59435	13939.5375
367.76989	14073.2375
371.94243	14218.3375
376.11196	14295.8375
380.27849	14385.9375
384.44203	14454.7375
388.60257	14496.1375
392.76012	14565.2375
396.91468	14730.3375
401.06626	14975.2375
405.21485	15102.6375
409.36047	15104.0375
413.50311	14921.5375
417.64277	14734.1375
421.77947	14658.2375
425.9132	14672.4375
430.04396	14723.4375
434.17176	14826.7375
438.2966	15040.8375
442.41849	15343.6375
446.53742	15765.2375
450.6534	16263.3375
454.76644	16684.9375
458.87653	16772.6375
462.98368	16666.2375
467.08789	16385.8375
471.18916	16081.7375
475.2875	15800.6375
479.38291	15601.8375
483.4754	15442.9375
487.56496	15327.0375
491.6516	15197.7375
495.73531	15091.7375
499.81612	15066.8375
503.89401	15134.4375
507.96899	15147.5375
512.04106	15118.5375
516.11023	15133.4375
520.1765	15195.6375
524.23987	15193.9375
528.30034	15188.3375
532.35792	15128.6375
536.41261	14958.6375
540.46441	14758.3375
544.51333	14695.5375
548.55936	14817.2375
552.60252	14994.4375
556.64279	15178.9375
560.6802	15294.3375
564.71473	15289.8375
568.7464	15396.6375
572.7752	15541.6375
576.80114	15591.3375
580.82422	15609.5375
584.84444	15774.3375
588.86181	16139.2375
592.87633	16606.1375
596.888	17056.0375
600.89682	17244.4375
604.9028	17801.6375
608.90594	19245.5375
612.90624	20925.5375
616.90371	20192.6375
620.89834	17443.3375
624.89015	16231.4375
628.87913	16068.7375
632.86528	15954.4375
636.84862	15662.5375
640.82913	15360.9375
644.80683	15030.6375
648.78172	14829.6375
652.75379	14837.4375
656.72306	15070.9375
660.68952	15389.7375
664.65319	15377.3375
668.61405	15174.1375
672.57211	15095.6375
676.52738	15124.8375
680.47986	15017.4375
684.42955	14970.8375
688.37646	14965.6375
692.32058	15062.3375
696.26192	15204.9375
700.20048	15394.5375
704.13626	15458.2375
708.06928	15282.9375
711.99952	15133.6375
715.927	15146.7375
719.85171	15210.2375
723.77365	15180.2375
727.69284	15042.5375
731.60928	14918.5375
735.52295	14892.3375
739.43388	14907.9375
743.34206	14970.8375
747.24749	15012.5375
751.15017	15086.8375
755.05012	15231.2375
758.94733	15514.1375
762.8418	15996.7375
766.73354	16858.3375
770.62254	17779.2375
774.50882	18284.3375
778.39237	17939.2375
782.27321	17003.4375
786.15132	16108.0375
790.02671	15559.0375
793.89938	15334.7375
797.76935	15248.4375
801.6366	15232.3375
805.50115	15165.7375
809.36299	15092.1375
813.22213	15013.1375
817.07857	14993.1375
820.93231	14986.7375
824.78336	14968.6375
828.63172	15037.4375
832.47738	15078.8375
836.32036	15197.7375
840.16066	15284.4375
843.99827	15397.5375
847.8332	15296.7375
851.66546	15218.1375
855.49504	15119.0375
859.32195	15145.8375
863.1462	15103.6375
866.96777	14985.4375
870.78668	14946.2375
874.60293	14941.8375
878.41652	14963.6375
882.22745	15008.1375
886.03573	15117.5375
889.84136	15066.3375
893.64433	15033.1375
897.44466	14945.4375
901.24235	14886.5375
905.0374	14861.5375
908.8298	14843.4375
912.61957	14859.4375
916.40671	14944.5375
920.19121	15095.5375
923.97308	15285.3375
927.75233	15452.8375
931.52895	15536.6375
935.30295	15477.3375
939.07433	15250.5375
942.84309	15061.6375
946.60924	14995.7375
950.37278	14945.7375
954.13371	14877.7375
957.89203	14758.5375
961.64774	14670.0375
965.40086	14611.9375
969.15137	14574.5375
972.89929	14548.7375
976.64461	14584.4375
980.38733	14670.4375
984.12747	14786.2375
987.86502	14988.2375
991.59999	15231.2375
995.33237	15564.1375
999.06217	16105.8375
1002.78939	16713.7375
1006.51404	16925.1375
1010.23611	16926.3375
1013.95561	16977.0375
1017.67255	16985.8375
1021.38692	16801.7375
1025.09872	16772.2375
1028.80796	17156.0375
1032.51465	17989.8375
1036.21877	18740.0375
1039.92035	18802.1375
1043.61937	18313.1375
1047.31584	17606.8375
1051.00976	16918.1375
1054.70114	16443.3375
1058.38998	16292.5375
1062.07627	16238.9375
1065.76003	16125.4375
1069.44126	16078.0375
1073.11995	16174.2375
1076.79611	16364.3375
1080.46974	16514.3375
1084.14085	16703.8375
1087.80943	16801.4375
1091.47549	16806.3375
1095.13903	16689.2375
1098.80005	16455.4375
1102.45857	16265.2375
1106.11456	16170.5375
1109.76805	16196.4375
1113.41903	16332.9375
1117.06751	16401.7375
1120.71348	16499.1375
1124.35696	16660.4375
1127.99793	16729.4375
1131.63641	16786.0375
1135.2724	16629.1375
1138.90589	16396.0375
1142.5369	16238.1375
1146.16542	16136.6375
1149.79145	16099.2375
1153.415	16116.0375
1157.03607	16156.8375
1160.65467	16343.2375
1164.27079	16685.7375
1167.88443	17206.9375
1171.49561	18020.0375
1175.10432	19169.1375
1178.71056	20630.5375
1182.31434	22096.9375
1185.91565	22994.0375
1189.51451	23036.2375
1193.11091	22195.6375
1196.70485	21100.3375
1200.29634	20173.1375
1203.88538	19511.2375
1207.47197	18992.3375
1211.05612	18532.5375
1214.63782	18295.5375
1218.21708	18289.6375
1221.79391	18475.6375
1225.36829	18660.6375
1228.94024	18598.0375
1232.50976	18221.1375
1236.07685	17874.7375
1239.6415	17649.1375
1243.20374	17612.8375
1246.76355	17734.8375
1250.32093	18003.0375
1253.8759	18395.5375
1257.42845	18860.4375
1260.97859	19275.7375
1264.52631	19690.3375
1268.07163	20151.6375
1271.61453	20689.4375
1275.15503	21221.1375
1278.69312	21833.5375
1282.22882	22284.4375
1285.76211	22531.8375
1289.29301	22806.4375
1292.82151	23130.6375
1296.34761	23701.6375
1299.87133	24711.1375
1303.39266	26138.9375
1306.9116	27963.3375
1310.42815	29814.3375
1313.94233	30827.5375
1317.45412	30560.3375
1320.96354	29348.0375
1324.47058	27885.8375
1327.97525	26578.3375
1331.47754	25644.2375
1334.97747	25121.0375
1338.47502	24877.2375
1341.97022	24697.2375
1345.46305	24526.0375
1348.95352	24602.3375
1352.44163	25114.3375
1355.92738	26292.9375
1359.41078	28131.7375
1362.89183	29789.4375
1366.37053	29628.4375
1369.84688	27310.6375
1373.32088	24430.1375
1376.79254	22446.3375
1380.26186	21503.0375
1383.72883	21214.2375
1387.19347	20992.8375
1390.65578	20584.4375
1394.11575	20214.5375
1397.57339	20107.7375
1401.0287	20371.2375
1404.48168	20561.8375
1407.93234	20710.9375
1411.38068	20659.6375
1414.82669	20483.5375
1418.27039	20162.4375
1421.71177	19691.0375
1425.15083	19359.2375
1428.58758	19178.6375
1432.02203	19297.4375
1435.45416	19540.6375
1438.88399	19824.4375
1442.31151	19941.6375
1445.73673	20010.2375
1449.15965	20068.7375
1452.58027	19995.0375
1455.9986	19874.3375
1459.41463	19768.0375
1462.82837	19933.0375
1466.23982	20284.0375
1469.64898	20691.9375
1473.05586	20974.7375
1476.46045	21235.5375
1479.86276	21385.5375
1483.26279	21385.9375
1486.66054	21370.8375
1490.05602	21429.0375
1493.44922	21626.5375
1496.84016	21771.2375
1500.22882	22013.3375
1503.61521	22530.9375
1506.99934	23262.6375
1510.38121	23993.8375
1513.76081	24340.3375
1517.13816	23907.1375
1520.51324	22969.1375
1523.88607	21983.6375
1527.25665	21263.3375
1530.62498	20937.3375
1533.99105	20717.3375
1537.35488	20602.7375
1540.71647	20511.9375
1544.07581	20376.7375
1547.4329	20166.4375
1550.78776	20018.4375
1554.14038	19798.7375
1557.49077	19694.1375
1560.83892	19583.3375
1564.18484	19506.6375
1567.52853	19571.5375
1570.86999	19695.7375
1574.20922	19871.2375
1577.54624	19932.7375
1580.88103	19860.2375
1584.2136	19793.7375
1587.54395	20086.3375
1590.87208	20973.7375
1594.19801	22357.1375
1597.52172	23851.7375
1600.84321	24668.2375
1604.16251	24050.9375
1607.47959	22373.5375
1610.79447	20524.1375
1614.10715	18926.1375
1617.41763	17828.7375
1620.7259	17174.8375
1624.03199	16900.0375
1627.33587	16979.2375
1630.63757	17364.4375
1633.93707	18089.9375
1637.23439	19112.7375
1640.52951	20451.2375
1643.82246	21995.0375
1647.11321	23304.2375
1650.40179	23561.2375
1653.68819	22346.1375
1656.97241	20165.4375
1660.25446	18061.6375
1663.53433	16609.3375
1666.81203	15728.7375
1670.08756	15196.6375
1673.36092	14922.5375
1676.63211	14716.4375
1679.90115	14538.3375
1683.16801	14440.0375
1686.43272	14319.9375
1689.69527	14270.8375
1692.95567	14197.6375
1696.2139	14179.6375
1699.46999	14094.5375
1702.72392	14061.4375
1705.97571	14116.0375
1709.22535	14124.3375
1712.47284	14159.7375
1715.71819	14194.7375
1718.96139	14164.9375
1722.20246	14129.6375
1725.44139	14092.0375
1728.67818	14056.0375
1731.91284	14026.6375
1735.14537	13929.2375
1738.37576	13930.4375
1741.60403	13881.4375
1744.83017	13824.0375
1748.05418	13807.6375
1751.27607	13771.0375
1754.49584	13741.0375
1757.71349	13704.3375
1760.92903	13710.7375
1764.14244	13714.1375
1767.35375	13713.7375
1770.56294	13702.7375
1773.77002	13731.7375
1776.97499	13713.7375
1780.17785	13709.1375
1783.37861	13741.8375
1786.57727	13726.2375
1789.77382	13732.2375
1792.96828	13717.2375
1796.16064	13695.8375
1799.3509	13634.1375
1802.53907	13646.9375
1805.72514	13632.8375
1808.90913	13607.1375
1812.09102	13571.1375
1815.27083	13562.8375
1818.44856	13549.5375
1821.6242	13552.8375
1824.79776	13528.0375
1827.96924	13524.4375
1831.13864	13529.7375
1834.30597	13481.9375
1837.47122	13507.1375
1840.6344	13506.1375
1843.7955	13505.8375
1846.95454	13502.4375
1850.11151	13499.6375
1853.26642	13482.5375
1856.41926	13486.6375
1859.57004	13512.3375
1862.71876	13477.4375
1865.86542	13480.5375
1869.01003	13485.0375
1872.15258	13497.5375
1875.29308	13475.2375
1878.43152	13468.6375
1881.56792	13484.6375
1884.70227	13454.6375
1887.83457	13468.3375
1890.96482	13407.8375
1894.09304	13401.3375
1897.21921	13435.7375
1900.34335	13455.1375
1903.46544	13408.5375
1906.58551	13427.2375
1909.70353	13428.2375
1912.81953	13418.2375
1915.93349	13403.8375
1919.04543	13396.9375
1922.15534	13373.3375
1925.26322	13334.5375
1928.36908	13326.8375
1931.47292	13306.4375
1934.57473	13264.8375
1937.67453	13260.3375
1940.77232	13257.2375
1943.86808	13179.0375
1946.96184	13139.7375
1950.05358	13145.4375
1953.14331	13088.6375
1956.23103	13064.5375
1959.31675	13027.3375
1962.40046	12987.5375
1965.48217	12968.6375
1968.56188	12915.2375
1971.63959	12911.8375
1974.7153	12887.9375
1977.78901	12873.2375
1980.86073	12801.2375
1983.93046	12768.4375
1986.99819	12739.8375
1990.06394	12720.6375
1993.1277	12690.9375
1996.18947	12646.7375
1999.24925	12615.7375
2002.30706	12594.2375
2005.36288	12536.9375
2008.41672	12546.8375
2011.46859	12484.6375
2014.51848	12448.1375
2017.56639	12441.6375
2020.61233	12416.8375
2023.6563	12378.8375
2026.6983	12367.7375
2029.73833	12353.3375
2032.7764	12344.7375
2035.8125	12336.9375
2038.84664	12328.4375
2041.87881	12293.9375
2044.90903	12284.2375
2047.93729	12261.3375
2050.96359	12244.0375
2053.98794	12208.4375
2057.01034	12214.4375
2060.03078	12208.9375
2063.04927	12244.0375
2066.06582	12243.7375
2069.08042	12226.8375
2072.09307	12231.8375
2075.10378	12205.5375
2078.11255	12208.0375
2081.11938	12206.3375
2084.12426	12195.4375
2087.12722	12211.6375
2090.12824	12171.7375
2093.12732	12164.0375
2096.12447	12187.3375
2099.11969	12197.3375
2102.11299	12200.3375
2105.10435	12222.3375
2108.09379	12216.8375
2111.08131	12238.2375
2114.0669	12250.5375
2117.05057	12225.6375
2120.03233	12271.3375
2123.01216	12265.2375
2125.99008	12275.1375
2128.96609	12293.8375
2131.94018	12300.0375
2134.91236	12320.6375
2137.88263	12332.3375
2140.851	12337.2375
2143.81746	12376.2375
2146.78201	12387.2375
2149.74466	12403.4375
2152.7054	12393.9375
2155.66425	12404.5375
2158.6212	12393.1375
2161.57625	12378.0375
2164.52941	12403.8375
2167.48067	12390.9375
2170.43004	12389.9375
2173.37752	12393.9375
2176.32311	12410.1375
2179.26681	12412.1375
2182.20863	12393.6375
2185.14856	12398.8375
2188.08661	12431.3375
2191.02278	12427.2375
2193.95707	12437.1375
2196.88948	12461.3375
2199.82001	12443.8375
2202.74867	12428.4375
2205.67545	12453.3375
2208.60037	12422.0375
2211.52341	12424.1375
2214.44458	12422.7375
2217.36388	12402.7375
2220.28132	12380.4375
2223.1969	12371.1375
2226.11061	12358.4375
2229.02246	12342.1375
2231.93245	12318.1375
2234.84058	12293.4375
2237.74686	12297.3375
2240.65128	12269.1375
2243.55385	12249.9375
2246.45456	12220.3375
2249.35343	12211.0375
2252.25044	12202.3375
2255.14561	12185.6375
2258.03893	12193.0375
2260.93041	12175.1375
2263.82004	12145.3375
2266.70783	12129.2375
2269.59378	12088.6375
2272.4779	12092.3375
2275.36017	12058.2375
2278.24061	12059.5375
2281.11922	12048.0375
2283.996	12031.0375
2286.87094	12004.0375
2289.74405	11997.0375
2292.61534	11987.7375
2295.4848	11998.5375
2298.35243	12011.8375
2301.21824	12007.4375
2304.08223	12029.9375
2306.94439	12040.4375
2309.80474	12016.4375
2312.66327	12051.7375
2315.51999	12031.8375
2318.37489	12062.0375
2321.22797	12056.5375
2324.07925	12053.8375
2326.92871	12038.8375
2329.77637	12026.7375
2332.62222	12002.3375
2335.46626	11975.5375
2338.3085	11978.3375
2341.14893	12023.9375
2343.98756	12017.8375
2346.8244	12016.8375
2349.65943	12027.5375
2352.49267	12006.2375
2355.32411	11972.2375
2358.15376	11961.5375
2360.98161	11954.3375
2363.80768	11946.0375
2366.63195	11934.5375
2369.45444	11919.7375
2372.27514	11898.3375
2375.09405	11876.2375
2377.91118	11840.1375
2380.72652	11856.3375
2383.54009	11817.7375
2386.35187	11826.7375
2389.16188	11790.9375
2391.97011	11753.1375
2394.77657	11769.4375
2397.58125	11759.6375
2400.38416	11734.6375
2403.18529	11700.8375
2405.98466	11685.9375
2408.78226	11682.5375
2411.57809	11658.0375
2414.37216	11625.4375
2417.16446	11615.2375
2419.955	11602.6375
2422.74378	11618.3375
2425.5308	11596.9375
2428.31606	11596.5375
2431.09956	11563.1375
2433.88131	11545.3375
2436.6613	11575.7375
2439.43954	11581.2375
2442.21603	11570.9375
2444.99077	11556.7375
2447.76377	11574.9375
2450.53501	11580.0375
2453.30451	11559.3375
2456.07226	11545.8375
2458.83827	11538.6375
2461.60254	11524.7375
2464.36507	11543.7375
2467.12586	11544.1375
2469.88492	11524.3375
2472.64224	11561.7375
2475.39782	11542.3375
2478.15167	11569.0375
2480.90379	11547.8375
2483.65417	11578.0375
2486.40283	11554.1375
2489.14976	11590.0375
2491.89497	11575.1375
2494.63845	11599.1375
2497.3802	11580.8375
2500.12024	11571.1375
2502.85855	11573.8375
2505.59514	11556.5375
2508.33002	11557.7375
2511.06318	11536.2375
2513.79462	11517.7375
2516.52435	11513.5375
2519.25237	11506.9375
2521.97867	11489.8375
2524.70327	11501.6375
2527.42616	11474.9375
2530.14734	11479.2375
2532.86681	11483.6375
2535.58458	11480.4375
2538.30065	11460.0375
2541.01501	11487.4375
2543.72768	11460.3375
2546.43864	11456.8375
2549.14791	11423.8375
2551.85548	11424.7375
2554.56136	11421.9375
2557.26554	11389.7375
2559.96803	11373.2375
2562.66883	11374.9375
2565.36794	11377.9375
2568.06536	11378.4375
2570.7611	11367.0375
2573.45514	11330.7375
2576.14751	11367.9375
2578.83819	11341.9375
2581.52719	11350.7375
2584.21451	11348.6375
2586.90015	11352.2375
2589.58411	11304.4375
2592.2664	11316.5375
2594.94701	11307.5375
2597.62594	11312.4375
2600.30321	11275.0375
2602.9788	11266.1375
2605.65273	11227.6375
2608.32498	11227.9375
2610.99557	11232.2375
2613.66449	11278.9375
2616.33175	11264.6375
2618.99734	11257.0375
2621.66128	11242.4375
2624.32355	11244.8375
2626.98416	11242.2375
2629.64311	11241.4375
2632.30041	11237.4375
2634.95605	11249.8375
2637.61004	11195.6375
2640.26238	11178.5375
2642.91306	11151.6375
2645.56209	11162.4375
2648.20948	11154.6375
2650.85521	11150.7375
2653.4993	11127.9375
2656.14175	11149.0375
2658.78255	11143.6375
2661.42171	11142.7375
2664.05923	11172.8375
2666.6951	11198.7375
2669.32934	11186.3375
2671.96194	11166.1375
2674.59291	11181.2375
2677.22224	11178.8375
2679.84993	11197.4375
2682.476	11176.9375
2685.10043	11141.9375
2687.72324	11138.2375
2690.34441	11145.9375
2692.96396	11136.2375
2695.58188	11178.5375
2698.19818	11130.4375
2700.81285	11120.3375
2703.4259	11128.7375
2706.03733	11120.8375
2708.64714	11129.1375
2711.25533	11171.2375
2713.86191	11143.1375
2716.46687	11196.8375
2719.07021	11191.6375
2721.67194	11184.3375
2724.27206	11174.6375
2726.87057	11209.0375
2729.46747	11179.5375
2732.06276	11199.8375
2734.65644	11174.3375
2737.24852	11189.4375
2739.83899	11154.2375
2742.42786	11152.5375
2745.01513	11134.8375
2747.60079	11152.2375
2750.18486	11133.0375
2752.76733	11141.4375
2755.3482	11121.2375
2757.92747	11134.8375
2760.50515	11127.0375
2763.08123	11117.9375
2765.65573	11102.2375
2768.22863	11117.2375
2770.79994	11116.8375
2773.36967	11113.4375
2775.9378	11110.1375
2778.50435	11119.8375
2781.06932	11104.4375
2783.6327	11090.3375
2786.1945	11069.0375
2788.75471	11081.4375
2791.31335	11057.4375
2793.87041	11054.9375
2796.42589	11024.6375
2798.97979	11041.7375
2801.53212	10982.0375
2804.08288	10986.1375
2806.63206	10966.4375
2809.17967	10922.4375
2811.72571	10930.1375
2814.27018	10900.5375
2816.81308	10904.5375
2819.35442	10866.0375
2821.89419	10874.8375
2824.43239	10861.2375
2826.96904	10876.3375
2829.50412	10877.9375
2832.03763	10881.6375
2834.56959	10890.2375
2837.1	10862.6375
2839.62884	10865.0375
2842.15613	10895.6375
2844.68186	10921.3375
2847.20604	10915.1375
2849.72867	10935.8375
2852.24974	10952.2375
2854.76927	10933.1375
2857.28724	10894.8375
2859.80367	10903.6375
2862.31855	10888.2375
2864.83189	10847.8375
2867.34368	10835.9375
2869.85393	10855.0375
2872.36264	10855.2375
2874.8698	10860.6375
2877.37543	10854.9375
2879.87952	10872.0375
2882.38207	10888.9375
2884.88308	10867.0375
2887.38256	10900.7375
2889.88051	10891.6375
2892.37692	10879.2375
2894.8718	10902.2375
2897.36515	10925.4375
2899.85698	10924.6375
2902.34727	10967.5375
2904.83604	10946.3375
2907.32328	10987.5375
2909.809	10959.6375
2912.29319	10986.9375
2914.77587	10962.7375
2917.25702	10940.9375
2919.73665	10952.5375
2922.21476	10946.9375
2924.69136	10947.2375
2927.16644	10934.1375
2929.64	10935.2375
2932.11205	10925.2375
2934.58258	10869.1375
2937.05161	10902.3375
2939.51912	10897.9375
2941.98513	10882.8375
2944.44962	10860.6375
2946.91261	10800.6375
2949.37409	10838.5375
2951.83407	10816.3375
2954.29254	10828.9375
2956.74951	10816.6375
2959.20498	10791.5375
2961.65895	10799.6375
2964.11142	10787.5375
2966.56239	10766.6375
2969.01186	10766.3375
2971.45984	10765.6375
2973.90632	10752.3375
2976.35131	10716.9375
2978.7948	10690.1375
2981.23681	10664.4375
2983.67732	10683.7375
2986.11635	10661.4375
2988.55388	10608.8375
2990.98993	10583.6375
2993.4245	10563.1375
2995.85758	10563.3375
2998.28917	10554.9375
3000.71928	10527.5375
3003.14791	10523.8375
3005.57506	10531.7375
3008.00073	10493.0375
3010.42493	10492.4375
3012.84764	10466.2375
3015.26888	10479.1375
3017.68865	10465.4375
3020.10694	10433.4375
3022.52376	10441.6375
3024.9391	10437.8375
3027.35298	10440.7375
3029.76539	10455.1375
3032.17632	10424.8375
3034.5858	10369.2375
3036.9938	10386.5375
3039.40034	10407.4375
3041.80542	10398.5375
3044.20903	10392.0375
3046.61118	10381.8375
3049.01187	10361.9375
3051.4111	10361.2375
3053.80888	10343.2375
3056.20519	10310.3375
3058.60005	10327.7375
3060.99345	10293.2375
3063.3854	10288.1375
3065.7759	10261.5375
3068.16494	10267.4375
3070.55254	10237.5375
3072.93868	10222.5375
3075.32338	10223.9375
3077.70662	10201.5375
3080.08842	10192.5375
3082.46878	10181.1375
3084.84769	10182.7375
3087.22515	10177.1375
3089.60118	10180.5375
3091.97576	10166.9375
3094.3489	10200.5375
3096.72061	10183.2375
3099.09087	10182.8375
3101.4597	10186.5375
3103.82709	10181.7375
3106.19305	10175.4375
3108.55757	10190.4375
3110.92066	10142.4375
3113.28232	10145.0375
3115.64255	10130.8375
3118.00134	10123.6375
3120.35871	10124.3375
3122.71466	10104.1375
3125.06917	10117.0375
3127.42226	10067.1375
3129.77393	10084.0375
3132.12417	10078.9375
3134.47299	10073.7375
3136.82039	10091.6375
3139.16636	10086.2375
3141.51092	10098.7375
3143.85406	10124.7375
3146.19579	10116.5375
3148.53609	10134.6375
3150.87499	10140.9375
3153.21246	10145.8375
3155.54853	10167.0375
3157.88318	10151.1375
3160.21642	10160.9375
3162.54826	10180.8375
3164.87868	10155.7375
3167.2077	10180.8375
3169.5353	10155.6375
3171.86151	10180.9375
3174.18631	10176.2375
3176.5097	10176.5375
3178.83169	10162.6375
3181.15228	10161.4375
3183.47147	10142.1375
3185.78926	10136.4375
3188.10565	10124.9375
3190.42065	10143.3375
3192.73424	10107.3375
3195.04645	10140.5375
3197.35725	10153.5375
3199.66667	10124.8375
3201.97469	10147.5375
3204.28132	10140.1375
3206.58656	10150.2375
3208.8904	10181.1375
3211.19287	10174.4375
3213.49394	10181.0375
3215.79363	10225.3375
3218.09193	10200.5375
3220.38884	10171.4375
3222.68438	10179.8375
3224.97853	10186.6375
3227.2713	10166.7375
3229.56269	10181.9375
3231.8527	10212.3375
3234.14133	10179.7375
3236.42858	10149.9375
3238.71446	10127.6375
3240.99896	10123.3375
3243.28209	10148.4375
3245.56384	10113.7375
3247.84423	10147.0375
3250.12324	10104.4375
3252.40088	10137.8375
3254.67715	10133.6375
3256.95205	10098.5375
3259.22558	10140.6375
3261.49775	10124.6375
3263.76855	10115.0375
3266.03799	10096.6375
3268.30606	10102.5375
3270.57277	10088.2375
3272.83812	10069.4375
3275.10211	10039.0375
3277.36474	10014.1375
3279.62601	10017.1375
3281.88593	10004.2375
3284.14448	10023.4375
3286.40168	10035.4375
3288.65753	10055.1375
3290.91202	10023.1375
3293.16516	9999.7375
3295.41695	9990.5375
3297.66738	9940.4375
3299.91647	9890.2375
3302.16421	9831.8375
3304.4106	9796.9375
3306.65564	9762.3375
3308.89933	9710.9375
3311.14169	9678.4375
3313.38269	9573.3375
3315.62236	9522.2375
3317.86068	9460.5375
3320.09766	9393.8375
3322.3333	9365.9375
3324.5676	9347.6375
3326.80056	9187.2375
3329.03219	9147.5375
3331.26248	2.3375
3333.49143	1.4375
3335.71905	-0.8625
