Data from AgNPs_FTO_APTES_UA_1uM_CRN_200uM_R6G_10uM_NaF_0.1M_Addition_RamanShift__16__17-23-39-834.txt Node

Date: Thu Jan 27 17:23:39 GMT 2022
User: TCL
Spectrometer: QEP01345
Trigger mode: 4
Integration Time (sec): 7.000000E0
Scans to average: 10
Electric dark correction enabled: true
Nonlinearity correction enabled: false
Boxcar width: 0
XAxis mode: Raman Shifts
Number of Pixels in Spectrum: 1044
>>>>>Begin Spectral Data<<<<<
46.04893	0.5625
50.45542	1.0625
54.85868	-1.1375
59.25871	-1.0375
63.6555	45.6625
68.04907	46.2625
72.43941	47.3625
76.82654	51.8625
81.21044	53.9625
85.59113	54.6625
89.96862	54.8625
94.34289	56.9625
98.71396	60.1625
103.08183	60.7625
107.4465	65.8625
111.80798	66.7625
116.16626	65.3625
120.52136	72.7625
124.87327	70.8625
129.222	70.7625
133.56755	70.6625
137.90993	73.8625
142.24913	81.3625
146.58517	92.8625
150.91804	99.1625
155.24774	115.1625
159.57429	138.2625
163.89768	173.2625
168.21792	224.7625
172.53501	296.8625
176.84895	411.2625
181.15975	570.3625
185.46741	797.8625
189.77193	1102.8625
194.07331	1469.7625
198.37157	1901.6625
202.6667	2365.5625
206.9587	2817.7625
211.24758	3266.8625
215.53334	3722.7625
219.81599	4168.3625
224.09553	4685.4625
228.37195	5241.2625
232.64527	5861.9625
236.91549	6530.3625
241.18261	7168.5625
245.44663	7795.7625
249.70755	8358.4625
253.96539	8833.5625
258.22014	9232.1625
262.4718	9550.7625
266.72039	9765.3625
270.96589	9848.9625
275.20832	9873.8625
279.44768	9784.0625
283.68397	9652.3625
287.91719	9527.4625
292.14735	9436.8625
296.37445	9414.1625
300.59849	9458.0625
304.81948	9499.7625
309.03742	9524.1625
313.25231	9408.7625
317.46415	9212.4625
321.67296	8976.3625
325.87872	8735.5625
330.08145	8671.1625
334.28114	8650.4625
338.47781	8708.1625
342.67145	8818.9625
346.86207	8957.0625
351.04966	9133.3625
355.23424	9303.5625
359.4158	9465.8625
363.59435	9589.2625
367.76989	9688.9625
371.94243	9773.9625
376.11196	9798.4625
380.27849	9875.2625
384.44203	9955.4625
388.60257	9963.1625
392.76012	10041.3625
396.91468	10145.2625
401.06626	10259.9625
405.21485	10390.6625
409.36047	10377.1625
413.50311	10196.1625
417.64277	10060.8625
421.77947	10026.8625
425.9132	10031.4625
430.04396	10042.3625
434.17176	10100.4625
438.2966	10150.5625
442.41849	10248.4625
446.53742	10453.4625
450.6534	10657.8625
454.76644	10830.2625
458.87653	10908.7625
462.98368	10867.5625
467.08789	10808.8625
471.18916	10713.5625
475.2875	10574.7625
479.38291	10490.5625
483.4754	10453.3625
487.56496	10338.7625
491.6516	10256.3625
495.73531	10200.5625
499.81612	10189.6625
503.89401	10263.1625
507.96899	10298.4625
512.04106	10299.5625
516.11023	10310.7625
520.1765	10270.5625
524.23987	10237.4625
528.30034	10151.5625
532.35792	10059.2625
536.41261	9991.7625
540.46441	9871.4625
544.51333	9883.1625
548.55936	9932.7625
552.60252	10098.9625
556.64279	10240.9625
560.6802	10336.6625
564.71473	10363.9625
568.7464	10447.9625
572.7752	10602.4625
576.80114	10728.2625
580.82422	10849.7625
584.84444	11018.4625
588.86181	11202.5625
592.87633	11341.9625
596.888	11388.6625
600.89682	11340.9625
604.9028	11615.8625
608.90594	12512.3625
612.90624	13618.7625
616.90371	13118.4625
620.89834	11227.9625
624.89015	10364.5625
628.87913	10246.7625
632.86528	10287.3625
636.84862	10330.4625
640.82913	10224.2625
644.80683	10020.1625
648.78172	9875.5625
652.75379	9840.9625
656.72306	9935.8625
660.68952	10049.6625
664.65319	10046.5625
668.61405	9929.5625
672.57211	9927.8625
676.52738	10001.5625
680.47986	10054.3625
684.42955	10032.9625
688.37646	9938.3625
692.32058	9910.5625
696.26192	9895.9625
700.20048	9960.0625
704.13626	9963.0625
708.06928	9940.5625
711.99952	9921.8625
715.927	9888.6625
719.85171	9890.5625
723.77365	9908.9625
727.69284	9816.3625
731.60928	9800.0625
735.52295	9770.0625
739.43388	9764.0625
743.34206	9787.1625
747.24749	9781.1625
751.15017	9836.3625
755.05012	9954.3625
758.94733	10135.6625
762.8418	10504.0625
766.73354	11191.6625
770.62254	11955.2625
774.50882	12335.5625
778.39237	11974.7625
782.27321	11146.3625
786.15132	10457.4625
790.02671	10010.0625
793.89938	9834.4625
797.76935	9771.3625
801.6366	9734.0625
805.50115	9671.9625
809.36299	9636.0625
813.22213	9577.0625
817.07857	9549.2625
820.93231	9505.8625
824.78336	9494.9625
828.63172	9495.3625
832.47738	9490.6625
836.32036	9509.2625
840.16066	9545.9625
843.99827	9564.3625
847.8332	9531.6625
851.66546	9478.5625
855.49504	9478.2625
859.32195	9477.7625
863.1462	9500.8625
866.96777	9496.1625
870.78668	9479.1625
874.60293	9464.1625
878.41652	9439.0625
882.22745	9469.8625
886.03573	9521.2625
889.84136	9521.9625
893.64433	9516.8625
897.44466	9448.0625
901.24235	9439.8625
905.0374	9384.5625
908.8298	9347.8625
912.61957	9357.1625
916.40671	9404.3625
920.19121	9475.0625
923.97308	9587.8625
927.75233	9621.2625
931.52895	9658.0625
935.30295	9580.3625
939.07433	9444.7625
942.84309	9271.6625
946.60924	9196.6625
950.37278	9149.4625
954.13371	9113.0625
957.89203	9096.8625
961.64774	9034.8625
965.40086	9000.4625
969.15137	8972.3625
972.89929	8956.1625
976.64461	8910.6625
980.38733	8926.2625
984.12747	8933.8625
987.86502	8983.8625
991.59999	9059.6625
995.33237	9178.7625
999.06217	9365.7625
1002.78939	9580.7625
1006.51404	9650.6625
1010.23611	9666.1625
1013.95561	9752.3625
1017.67255	9787.7625
1021.38692	9744.2625
1025.09872	9668.0625
1028.80796	9709.2625
1032.51465	9885.7625
1036.21877	10081.1625
1039.92035	10115.0625
1043.61937	10054.6625
1047.31584	9874.9625
1051.00976	9736.3625
1054.70114	9663.7625
1058.38998	9673.7625
1062.07627	9693.7625
1065.76003	9740.3625
1069.44126	9783.7625
1073.11995	9877.6625
1076.79611	9961.0625
1080.46974	9987.5625
1084.14085	10032.2625
1087.80943	10042.7625
1091.47549	10042.1625
1095.13903	10068.4625
1098.80005	9960.9625
1102.45857	9798.2625
1106.11456	9666.8625
1109.76805	9661.6625
1113.41903	9686.4625
1117.06751	9740.9625
1120.71348	9875.7625
1124.35696	10006.5625
1127.99793	10148.9625
1131.63641	10277.5625
1135.2724	10156.6625
1138.90589	9971.1625
1142.5369	9888.0625
1146.16542	9842.6625
1149.79145	9822.3625
1153.415	9845.2625
1157.03607	9899.7625
1160.65467	10051.9625
1164.27079	10341.9625
1167.88443	10756.0625
1171.49561	11281.3625
1175.10432	11971.2625
1178.71056	12888.4625
1182.31434	13735.0625
1185.91565	14169.9625
1189.51451	14105.9625
1193.11091	13662.4625
1196.70485	13051.9625
1200.29634	12524.3625
1203.88538	12069.7625
1207.47197	11690.1625
1211.05612	11414.3625
1214.63782	11218.6625
1218.21708	11104.4625
1221.79391	11059.0625
1225.36829	11072.4625
1228.94024	11029.0625
1232.50976	10875.9625
1236.07685	10705.5625
1239.6415	10608.4625
1243.20374	10597.2625
1246.76355	10626.3625
1250.32093	10764.7625
1253.8759	10882.9625
1257.42845	11119.0625
1260.97859	11327.0625
1264.52631	11562.7625
1268.07163	11817.8625
1271.61453	12090.2625
1275.15503	12375.1625
1278.69312	12691.6625
1282.22882	12965.2625
1285.76211	13185.4625
1289.29301	13446.6625
1292.82151	13799.2625
1296.34761	14287.4625
1299.87133	14948.7625
1303.39266	15761.5625
1306.9116	16725.2625
1310.42815	17682.1625
1313.94233	18300.3625
1317.45412	18201.9625
1320.96354	17661.4625
1324.47058	17015.9625
1327.97525	16489.3625
1331.47754	16088.8625
1334.97747	15826.6625
1338.47502	15680.0625
1341.97022	15593.4625
1345.46305	15626.0625
1348.95352	15746.7625
1352.44163	16063.1625
1355.92738	16601.0625
1359.41078	17542.4625
1362.89183	18383.1625
1366.37053	18330.9625
1369.84688	16868.4625
1373.32088	15069.8625
1376.79254	13723.8625
1380.26186	13024.0625
1383.72883	12803.3625
1387.19347	12659.9625
1390.65578	12458.3625
1394.11575	12338.3625
1397.57339	12369.9625
1401.0287	12521.2625
1404.48168	12719.7625
1407.93234	12717.0625
1411.38068	12624.1625
1414.82669	12395.7625
1418.27039	12119.5625
1421.71177	11822.6625
1425.15083	11548.1625
1428.58758	11342.3625
1432.02203	11315.8625
1435.45416	11469.6625
1438.88399	11674.3625
1442.31151	11842.3625
1445.73673	11977.0625
1449.15965	12089.1625
1452.58027	12143.8625
1455.9986	12184.0625
1459.41463	12185.1625
1462.82837	12291.2625
1466.23982	12499.1625
1469.64898	12699.7625
1473.05586	12848.9625
1476.46045	12925.0625
1479.86276	12959.1625
1483.26279	12910.4625
1486.66054	12897.2625
1490.05602	12952.1625
1493.44922	13119.9625
1496.84016	13352.4625
1500.22882	13772.9625
1503.61521	14354.3625
1506.99934	15130.0625
1510.38121	15794.7625
1513.76081	15983.8625
1517.13816	15495.1625
1520.51324	14656.7625
1523.88607	13851.8625
1527.25665	13288.3625
1530.62498	12992.7625
1533.99105	12813.9625
1537.35488	12694.4625
1540.71647	12593.0625
1544.07581	12436.6625
1547.4329	12278.0625
1550.78776	12137.4625
1554.14038	12061.1625
1557.49077	12018.4625
1560.83892	11999.1625
1564.18484	12018.1625
1567.52853	12116.5625
1570.86999	12250.2625
1574.20922	12440.2625
1577.54624	12505.8625
1580.88103	12453.0625
1584.2136	12258.6625
1587.54395	12280.3625
1590.87208	12560.7625
1594.19801	13128.2625
1597.52172	13853.9625
1600.84321	14262.6625
1604.16251	13956.2625
1607.47959	13209.3625
1610.79447	12327.8625
1614.10715	11473.3625
1617.41763	10756.4625
1620.7259	10264.9625
1624.03199	9989.9625
1627.33587	9926.0625
1630.63757	10074.8625
1633.93707	10475.5625
1637.23439	11126.8625
1640.52951	12108.4625
1643.82246	13301.6625
1647.11321	14424.0625
1650.40179	14870.5625
1653.68819	14267.4625
1656.97241	12839.0625
1660.25446	11338.7625
1663.53433	10200.4625
1666.81203	9486.7625
1670.08756	9067.2625
1673.36092	8834.1625
1676.63211	8636.7625
1679.90115	8528.5625
1683.16801	8428.8625
1686.43272	8333.8625
1689.69527	8267.3625
1692.95567	8204.4625
1696.2139	8180.7625
1699.46999	8109.5625
1702.72392	8068.4625
1705.97571	8067.0625
1709.22535	8079.7625
1712.47284	8099.8625
1715.71819	8118.4625
1718.96139	8106.7625
1722.20246	8105.6625
1725.44139	8073.5625
1728.67818	8048.2625
1731.91284	7997.9625
1735.14537	7968.9625
1738.37576	7940.1625
1741.60403	7921.6625
1744.83017	7923.0625
1748.05418	7917.6625
1751.27607	7912.8625
1754.49584	7899.1625
1757.71349	7899.6625
1760.92903	7879.7625
1764.14244	7824.4625
1767.35375	7786.7625
1770.56294	7771.6625
1773.77002	7745.2625
1776.97499	7716.3625
1780.17785	7724.1625
1783.37861	7726.1625
1786.57727	7734.0625
1789.77382	7694.9625
1792.96828	7692.1625
1796.16064	7687.6625
1799.3509	7667.7625
1802.53907	7643.3625
1805.72514	7617.8625
1808.90913	7605.1625
1812.09102	7593.2625
1815.27083	7553.2625
1818.44856	7548.8625
1821.6242	7533.4625
1824.79776	7530.8625
1827.96924	7500.2625
1831.13864	7515.1625
1834.30597	7530.1625
1837.47122	7510.0625
1840.6344	7508.7625
1843.7955	7489.8625
1846.95454	7504.3625
1850.11151	7523.9625
1853.26642	7495.7625
1856.41926	7470.3625
1859.57004	7499.9625
1862.71876	7504.1625
1865.86542	7476.0625
1869.01003	7458.8625
1872.15258	7452.9625
1875.29308	7467.3625
1878.43152	7446.9625
1881.56792	7459.3625
1884.70227	7449.8625
1887.83457	7441.6625
1890.96482	7427.0625
1894.09304	7432.4625
1897.21921	7421.6625
1900.34335	7372.9625
1903.46544	7391.6625
1906.58551	7388.1625
1909.70353	7381.4625
1912.81953	7378.2625
1915.93349	7350.9625
1919.04543	7347.0625
1922.15534	7331.5625
1925.26322	7333.9625
1928.36908	7315.7625
1931.47292	7311.9625
1934.57473	7281.2625
1937.67453	7265.9625
1940.77232	7239.3625
1943.86808	7234.4625
1946.96184	7208.9625
1950.05358	7183.2625
1953.14331	7169.4625
1956.23103	7128.9625
1959.31675	7128.5625
1962.40046	7124.1625
1965.48217	7089.7625
1968.56188	7082.6625
1971.63959	7068.2625
1974.7153	7037.8625
1977.78901	7024.9625
1980.86073	7022.9625
1983.93046	6980.9625
1986.99819	6975.1625
1990.06394	6937.2625
1993.1277	6908.9625
1996.18947	6896.2625
1999.24925	6897.6625
2002.30706	6848.6625
2005.36288	6859.1625
2008.41672	6833.2625
2011.46859	6807.9625
2014.51848	6799.8625
2017.56639	6784.8625
2020.61233	6780.0625
2023.6563	6740.6625
2026.6983	6732.6625
2029.73833	6715.5625
2032.7764	6701.6625
2035.8125	6687.0625
2038.84664	6676.9625
2041.87881	6670.2625
2044.90903	6664.0625
2047.93729	6656.4625
2050.96359	6652.0625
2053.98794	6620.1625
2057.01034	6618.0625
2060.03078	6616.7625
2063.04927	6619.6625
2066.06582	6624.3625
2069.08042	6619.7625
2072.09307	6613.2625
2075.10378	6610.6625
2078.11255	6609.6625
2081.11938	6604.0625
2084.12426	6606.5625
2087.12722	6577.5625
2090.12824	6584.2625
2093.12732	6593.5625
2096.12447	6590.0625
2099.11969	6596.3625
2102.11299	6593.6625
2105.10435	6608.6625
2108.09379	6596.6625
2111.08131	6602.3625
2114.0669	6605.0625
2117.05057	6630.7625
2120.03233	6621.0625
2123.01216	6635.6625
2125.99008	6640.1625
2128.96609	6625.6625
2131.94018	6677.2625
2134.91236	6652.5625
2137.88263	6664.6625
2140.851	6681.6625
2143.81746	6657.0625
2146.78201	6679.3625
2149.74466	6670.0625
2152.7054	6658.3625
2155.66425	6664.0625
2158.6212	6676.3625
2161.57625	6641.1625
2164.52941	6667.0625
2167.48067	6666.5625
2170.43004	6683.4625
2173.37752	6665.9625
2176.32311	6681.0625
2179.26681	6647.6625
2182.20863	6649.0625
2185.14856	6654.5625
2188.08661	6689.9625
2191.02278	6672.1625
2193.95707	6671.1625
2196.88948	6670.7625
2199.82001	6653.6625
2202.74867	6645.8625
2205.67545	6646.0625
2208.60037	6634.2625
2211.52341	6632.6625
2214.44458	6641.5625
2217.36388	6610.5625
2220.28132	6601.9625
2223.1969	6590.0625
2226.11061	6582.2625
2229.02246	6566.6625
2231.93245	6569.3625
2234.84058	6556.1625
2237.74686	6528.2625
2240.65128	6544.1625
2243.55385	6510.9625
2246.45456	6507.6625
2249.35343	6505.3625
2252.25044	6504.7625
2255.14561	6472.3625
2258.03893	6483.7625
2260.93041	6458.9625
2263.82004	6461.8625
2266.70783	6447.9625
2269.59378	6423.2625
2272.4779	6410.6625
2275.36017	6411.0625
2278.24061	6402.2625
2281.11922	6393.5625
2283.996	6390.0625
2286.87094	6361.7625
2289.74405	6354.0625
2292.61534	6328.6625
2295.4848	6316.9625
2298.35243	6351.5625
2301.21824	6329.2625
2304.08223	6346.3625
2306.94439	6356.4625
2309.80474	6370.3625
2312.66327	6349.0625
2315.51999	6361.0625
2318.37489	6338.4625
2321.22797	6319.6625
2324.07925	6323.6625
2326.92871	6318.5625
2329.77637	6297.9625
2332.62222	6317.2625
2335.46626	6301.0625
2338.3085	6296.8625
2341.14893	6304.4625
2343.98756	6313.0625
2346.8244	6283.1625
2349.65943	6274.0625
2352.49267	6286.2625
2355.32411	6291.8625
2358.15376	6289.6625
2360.98161	6290.3625
2363.80768	6288.1625
2366.63195	6280.3625
2369.45444	6280.3625
2372.27514	6255.5625
2375.09405	6258.4625
2377.91118	6238.1625
2380.72652	6211.7625
2383.54009	6210.7625
2386.35187	6215.3625
2389.16188	6176.0625
2391.97011	6156.7625
2394.77657	6154.5625
2397.58125	6163.2625
2400.38416	6141.8625
2403.18529	6149.5625
2405.98466	6113.8625
2408.78226	6115.9625
2411.57809	6117.5625
2414.37216	6095.1625
2417.16446	6088.8625
2419.955	6076.8625
2422.74378	6087.1625
2425.5308	6081.3625
2428.31606	6087.6625
2431.09956	6061.0625
2433.88131	6056.4625
2436.6613	6071.1625
2439.43954	6059.6625
2442.21603	6035.8625
2444.99077	6072.2625
2447.76377	6065.0625
2450.53501	6045.9625
2453.30451	6050.0625
2456.07226	6048.2625
2458.83827	6028.5625
2461.60254	6033.7625
2464.36507	6021.9625
2467.12586	6035.3625
2469.88492	6021.5625
2472.64224	6037.9625
2475.39782	5998.3625
2478.15167	6011.1625
2480.90379	6019.2625
2483.65417	6022.7625
2486.40283	6025.8625
2489.14976	6039.9625
2491.89497	6023.8625
2494.63845	6013.5625
2497.3802	6019.4625
2500.12024	6040.7625
2502.85855	6014.0625
2505.59514	6025.2625
2508.33002	6009.2625
2511.06318	6007.0625
2513.79462	5991.3625
2516.52435	5981.0625
2519.25237	5971.9625
2521.97867	5972.1625
2524.70327	5963.8625
2527.42616	5953.5625
2530.14734	5952.3625
2532.86681	5938.9625
2535.58458	5939.9625
2538.30065	5946.1625
2541.01501	5939.0625
2543.72768	5931.3625
2546.43864	5909.4625
2549.14791	5915.1625
2551.85548	5911.4625
2554.56136	5903.4625
2557.26554	5904.4625
2559.96803	5893.6625
2562.66883	5895.8625
2565.36794	5872.8625
2568.06536	5868.9625
2570.7611	5844.4625
2573.45514	5848.5625
2576.14751	5847.8625
2578.83819	5831.0625
2581.52719	5835.6625
2584.21451	5812.6625
2586.90015	5816.6625
2589.58411	5810.4625
2592.2664	5811.6625
2594.94701	5803.5625
2597.62594	5798.9625
2600.30321	5778.2625
2602.9788	5797.6625
2605.65273	5788.4625
2608.32498	5793.6625
2610.99557	5760.5625
2613.66449	5783.5625
2616.33175	5760.4625
2618.99734	5762.1625
2621.66128	5768.2625
2624.32355	5752.8625
2626.98416	5763.4625
2629.64311	5768.2625
2632.30041	5743.3625
2634.95605	5731.3625
2637.61004	5742.0625
2640.26238	5728.0625
2642.91306	5714.1625
2645.56209	5705.5625
2648.20948	5714.6625
2650.85521	5682.8625
2653.4993	5689.8625
2656.14175	5704.7625
2658.78255	5715.4625
2661.42171	5710.2625
2664.05923	5717.9625
2666.6951	5731.8625
2669.32934	5727.4625
2671.96194	5712.7625
2674.59291	5714.2625
2677.22224	5716.9625
2679.84993	5728.4625
2682.476	5707.8625
2685.10043	5706.4625
2687.72324	5699.3625
2690.34441	5691.5625
2692.96396	5692.0625
2695.58188	5696.7625
2698.19818	5692.6625
2700.81285	5697.6625
2703.4259	5699.5625
2706.03733	5683.0625
2708.64714	5681.0625
2711.25533	5693.7625
2713.86191	5691.5625
2716.46687	5707.2625
2719.07021	5700.8625
2721.67194	5702.7625
2724.27206	5708.9625
2726.87057	5731.5625
2729.46747	5731.6625
2732.06276	5731.9625
2734.65644	5715.9625
2737.24852	5719.6625
2739.83899	5704.6625
2742.42786	5705.0625
2745.01513	5672.2625
2747.60079	5697.7625
2750.18486	5686.1625
2752.76733	5686.5625
2755.3482	5673.4625
2757.92747	5673.1625
2760.50515	5680.9625
2763.08123	5686.1625
2765.65573	5685.8625
2768.22863	5674.8625
2770.79994	5671.0625
2773.36967	5667.4625
2775.9378	5659.3625
2778.50435	5670.7625
2781.06932	5656.4625
2783.6327	5647.3625
2786.1945	5635.0625
2788.75471	5642.5625
2791.31335	5622.6625
2793.87041	5621.6625
2796.42589	5597.5625
2798.97979	5607.7625
2801.53212	5603.9625
2804.08288	5604.9625
2806.63206	5580.7625
2809.17967	5589.3625
2811.72571	5579.1625
2814.27018	5550.2625
2816.81308	5550.5625
2819.35442	5554.7625
2821.89419	5558.0625
2824.43239	5545.5625
2826.96904	5550.7625
2829.50412	5549.0625
2832.03763	5539.5625
2834.56959	5540.2625
2837.1	5537.3625
2839.62884	5549.6625
2842.15613	5560.8625
2844.68186	5578.2625
2847.20604	5584.3625
2849.72867	5605.6625
2852.24974	5603.8625
2854.76927	5609.3625
2857.28724	5592.4625
2859.80367	5592.2625
2862.31855	5578.0625
2864.83189	5587.8625
2867.34368	5572.3625
2869.85393	5574.7625
2872.36264	5570.8625
2874.8698	5572.1625
2877.37543	5575.7625
2879.87952	5557.7625
2882.38207	5573.1625
2884.88308	5575.3625
2887.38256	5585.6625
2889.88051	5587.0625
2892.37692	5581.0625
2894.8718	5590.8625
2897.36515	5614.7625
2899.85698	5592.5625
2902.34727	5634.1625
2904.83604	5611.4625
2907.32328	5645.8625
2909.809	5640.8625
2912.29319	5644.2625
2914.77587	5656.6625
2917.25702	5640.1625
2919.73665	5642.5625
2922.21476	5665.3625
2924.69136	5646.5625
2927.16644	5662.5625
2929.64	5653.0625
2932.11205	5655.5625
2934.58258	5636.9625
2937.05161	5640.8625
2939.51912	5641.6625
2941.98513	5639.8625
2944.44962	5623.9625
2946.91261	5605.4625
2949.37409	5600.6625
2951.83407	5607.8625
2954.29254	5601.2625
2956.74951	5576.1625
2959.20498	5570.0625
2961.65895	5571.6625
2964.11142	5554.6625
2966.56239	5527.4625
2969.01186	5541.9625
2971.45984	5532.7625
2973.90632	5515.7625
2976.35131	5495.9625
2978.7948	5481.9625
2981.23681	5476.5625
2983.67732	5471.6625
2986.11635	5461.1625
2988.55388	5429.4625
2990.98993	5432.4625
2993.4245	5432.2625
2995.85758	5444.8625
2998.28917	5412.6625
3000.71928	5411.6625
3003.14791	5377.9625
3005.57506	5397.8625
3008.00073	5384.1625
3010.42493	5375.2625
3012.84764	5369.0625
3015.26888	5369.4625
3017.68865	5366.5625
3020.10694	5363.2625
3022.52376	5331.8625
3024.9391	5355.0625
3027.35298	5353.9625
3029.76539	5347.7625
3032.17632	5328.2625
3034.5858	5321.1625
3036.9938	5312.7625
3039.40034	5319.4625
3041.80542	5321.1625
3044.20903	5304.3625
3046.61118	5297.1625
3049.01187	5292.6625
3051.4111	5299.1625
3053.80888	5284.8625
3056.20519	5280.0625
3058.60005	5260.3625
3060.99345	5265.5625
3063.3854	5255.4625
3065.7759	5247.4625
3068.16494	5247.1625
3070.55254	5229.4625
3072.93868	5231.3625
3075.32338	5232.8625
3077.70662	5223.9625
3080.08842	5226.5625
3082.46878	5208.6625
3084.84769	5219.4625
3087.22515	5218.6625
3089.60118	5218.1625
3091.97576	5192.9625
3094.3489	5238.7625
3096.72061	5223.5625
3099.09087	5236.5625
3101.4597	5245.7625
3103.82709	5225.4625
3106.19305	5246.6625
3108.55757	5244.7625
3110.92066	5227.7625
3113.28232	5223.6625
3115.64255	5204.2625
3118.00134	5223.6625
3120.35871	5226.4625
3122.71466	5211.1625
3125.06917	5217.5625
3127.42226	5193.0625
3129.77393	5209.1625
3132.12417	5193.2625
3134.47299	5208.3625
3136.82039	5207.4625
3139.16636	5225.3625
3141.51092	5227.3625
3143.85406	5231.0625
3146.19579	5233.9625
3148.53609	5249.1625
3150.87499	5256.4625
3153.21246	5284.9625
3155.54853	5290.1625
3157.88318	5284.5625
3160.21642	5311.9625
3162.54826	5303.5625
3164.87868	5312.5625
3167.2077	5307.7625
3169.5353	5309.7625
3171.86151	5318.4625
3174.18631	5325.8625
3176.5097	5309.1625
3178.83169	5306.3625
3181.15228	5320.4625
3183.47147	5315.7625
3185.78926	5314.8625
3188.10565	5307.9625
3190.42065	5321.8625
3192.73424	5307.7625
3195.04645	5311.2625
3197.35725	5314.5625
3199.66667	5326.2625
3201.97469	5333.8625
3204.28132	5325.9625
3206.58656	5356.4625
3208.8904	5349.9625
3211.19287	5358.6625
3213.49394	5373.0625
3215.79363	5369.1625
3218.09193	5375.9625
3220.38884	5378.7625
3222.68438	5378.8625
3224.97853	5380.3625
3227.2713	5381.6625
3229.56269	5376.3625
3231.8527	5392.8625
3234.14133	5384.1625
3236.42858	5357.8625
3238.71446	5374.5625
3240.99896	5352.9625
3243.28209	5367.3625
3245.56384	5362.6625
3247.84423	5345.9625
3250.12324	5350.5625
3252.40088	5363.2625
3254.67715	5342.6625
3256.95205	5361.4625
3259.22558	5357.3625
3261.49775	5336.9625
3263.76855	5343.4625
3266.03799	5336.0625
3268.30606	5319.7625
3270.57277	5326.9625
3272.83812	5317.8625
3275.10211	5302.2625
3277.36474	5295.3625
3279.62601	5289.4625
3281.88593	5269.4625
3284.14448	5303.3625
3286.40168	5292.8625
3288.65753	5317.7625
3290.91202	5318.0625
3293.16516	5280.5625
3295.41695	5254.8625
3297.66738	5227.4625
3299.91647	5242.5625
3302.16421	5200.0625
3304.4106	5184.3625
3306.65564	5156.9625
3308.89933	5132.7625
3311.14169	5114.6625
3313.38269	5057.9625
3315.62236	5032.8625
3317.86068	4994.2625
3320.09766	4965.9625
3322.3333	4934.7625
3324.5676	4933.1625
3326.80056	4855.9625
3329.03219	4826.6625
3331.26248	1.7625
3333.49143	-0.6375
3335.71905	-0.5375
