Data from AgNPs_FTO_APTES_UA_1uM_CRN_2uM_R6G_10uM_NaF_0.1M_Addition_RamanShift__3__12-58-49-531.txt Node

Date: Thu Jan 27 12:58:49 GMT 2022
User: TCL
Spectrometer: QEP01345
Trigger mode: 4
Integration Time (sec): 7.000000E0
Scans to average: 10
Electric dark correction enabled: true
Nonlinearity correction enabled: false
Boxcar width: 0
XAxis mode: Raman Shifts
Number of Pixels in Spectrum: 1044
>>>>>Begin Spectral Data<<<<<
46.04893	-0.3125
50.45542	1.4875
54.85868	-0.6125
59.25871	-2.6125
63.6555	60.9875
68.04907	64.3875
72.43941	67.2875
76.82654	72.3875
81.21044	70.0875
85.59113	68.7875
89.96862	78.0875
94.34289	79.3875
98.71396	84.2875
103.08183	83.7875
107.4465	87.6875
111.80798	89.4875
116.16626	92.4875
120.52136	97.1875
124.87327	98.3875
129.222	97.5875
133.56755	103.4875
137.90993	110.3875
142.24913	122.0875
146.58517	136.1875
150.91804	159.7875
155.24774	181.8875
159.57429	220.7875
163.89768	273.0875
168.21792	362.9875
172.53501	489.9875
176.84895	673.7875
181.15975	950.9875
185.46741	1327.1875
189.77193	1829.0875
194.07331	2441.7875
198.37157	3152.6875
202.6667	3888.2875
206.9587	4628.2875
211.24758	5344.7875
215.53334	6089.1875
219.81599	6859.1875
224.09553	7713.3875
228.37195	8642.3875
232.64527	9686.8875
236.91549	10753.5875
241.18261	11884.7875
245.44663	12883.4875
249.70755	13787.1875
253.96539	14620.3875
258.22014	15318.3875
262.4718	15834.6875
266.72039	16198.5875
270.96589	16405.3875
275.20832	16411.9875
279.44768	16274.9875
283.68397	16061.4875
287.91719	15909.8875
292.14735	15752.0875
296.37445	15679.2875
300.59849	15736.8875
304.81948	15823.9875
309.03742	15846.9875
313.25231	15796.3875
317.46415	15623.0875
321.67296	15361.1875
325.87872	15161.5875
330.08145	15079.5875
334.28114	15046.4875
338.47781	15160.8875
342.67145	15306.0875
346.86207	15559.5875
351.04966	15860.2875
355.23424	16195.1875
359.4158	16441.7875
363.59435	16698.3875
367.76989	16868.5875
371.94243	16971.0875
376.11196	17090.7875
380.27849	17201.5875
384.44203	17317.7875
388.60257	17464.3875
392.76012	17625.0875
396.91468	17826.0875
401.06626	18032.1875
405.21485	18220.7875
409.36047	18253.3875
413.50311	18121.0875
417.64277	18069.5875
421.77947	18128.9875
425.9132	18233.1875
430.04396	18362.0875
434.17176	18438.3875
438.2966	18579.7875
442.41849	18831.5875
446.53742	19313.1875
450.6534	19870.2875
454.76644	20295.5875
458.87653	20390.3875
462.98368	20165.2875
467.08789	19858.8875
471.18916	19483.8875
475.2875	19034.4875
479.38291	18733.1875
483.4754	18495.9875
487.56496	18345.4875
491.6516	18211.3875
495.73531	18180.4875
499.81612	18225.1875
503.89401	18343.0875
507.96899	18483.2875
512.04106	18361.9875
516.11023	18300.0875
520.1765	18174.5875
524.23987	18099.4875
528.30034	18031.7875
532.35792	17920.1875
536.41261	17712.4875
540.46441	17424.1875
544.51333	17364.7875
548.55936	17449.6875
552.60252	17743.4875
556.64279	18152.0875
560.6802	18379.2875
564.71473	18405.1875
568.7464	18563.7875
572.7752	18836.7875
576.80114	19233.0875
580.82422	19771.5875
584.84444	20569.2875
588.86181	21561.5875
592.87633	22441.6875
596.888	22514.8875
600.89682	21781.4875
604.9028	21575.4875
608.90594	22936.7875
612.90624	24539.8875
616.90371	23409.4875
620.89834	20359.0875
624.89015	18869.3875
628.87913	18662.1875
632.86528	18542.5875
636.84862	18316.8875
640.82913	17955.7875
644.80683	17547.9875
648.78172	17313.0875
652.75379	17358.6875
656.72306	17559.6875
660.68952	17869.6875
664.65319	17789.3875
668.61405	17520.0875
672.57211	17510.1875
676.52738	17573.5875
680.47986	17535.4875
684.42955	17427.2875
688.37646	17364.9875
692.32058	17496.4875
696.26192	17813.9875
700.20048	18072.7875
704.13626	18173.0875
708.06928	18023.8875
711.99952	17860.0875
715.927	17906.6875
719.85171	18014.1875
723.77365	17944.3875
727.69284	17692.2875
731.60928	17462.7875
735.52295	17358.2875
739.43388	17415.2875
743.34206	17486.7875
747.24749	17567.6875
751.15017	17710.2875
755.05012	17931.7875
758.94733	18344.2875
762.8418	18971.9875
766.73354	19991.2875
770.62254	21007.2875
774.50882	21306.9875
778.39237	20662.6875
782.27321	19582.5875
786.15132	18665.4875
790.02671	18096.7875
793.89938	17874.3875
797.76935	17811.0875
801.6366	17782.5875
805.50115	17747.3875
809.36299	17633.2875
813.22213	17500.3875
817.07857	17370.7875
820.93231	17316.3875
824.78336	17313.2875
828.63172	17330.9875
832.47738	17354.7875
836.32036	17498.7875
840.16066	17621.8875
843.99827	17754.5875
847.8332	17708.9875
851.66546	17516.2875
855.49504	17441.2875
859.32195	17435.7875
863.1462	17367.0875
866.96777	17303.2875
870.78668	17232.3875
874.60293	17222.3875
878.41652	17234.5875
882.22745	17339.6875
886.03573	17412.5875
889.84136	17425.1875
893.64433	17344.4875
897.44466	17200.6875
901.24235	17101.3875
905.0374	17063.6875
908.8298	17068.2875
912.61957	17097.6875
916.40671	17265.9875
920.19121	17484.5875
923.97308	17793.0875
927.75233	17970.6875
931.52895	18020.5875
935.30295	17868.2875
939.07433	17576.5875
942.84309	17382.2875
946.60924	17308.4875
950.37278	17263.3875
954.13371	17183.4875
957.89203	17059.6875
961.64774	16983.1875
965.40086	16988.2875
969.15137	16945.0875
972.89929	16924.3875
976.64461	16956.1875
980.38733	17057.6875
984.12747	17203.3875
987.86502	17363.5875
991.59999	17681.1875
995.33237	18132.5875
999.06217	18855.4875
1002.78939	19675.8875
1006.51404	20158.6875
1010.23611	20348.6875
1013.95561	20396.1875
1017.67255	20289.0875
1021.38692	19999.2875
1025.09872	19807.8875
1028.80796	20239.0875
1032.51465	21332.1875
1036.21877	22471.7875
1039.92035	22806.6875
1043.61937	22342.1875
1047.31584	21441.3875
1051.00976	20372.1875
1054.70114	19657.9875
1058.38998	19377.3875
1062.07627	19236.8875
1065.76003	19167.6875
1069.44126	19225.4875
1073.11995	19473.7875
1076.79611	19778.3875
1080.46974	19981.2875
1084.14085	20125.2875
1087.80943	20237.9875
1091.47549	20230.0875
1095.13903	20175.9875
1098.80005	19905.5875
1102.45857	19552.9875
1106.11456	19348.0875
1109.76805	19201.9875
1113.41903	19189.1875
1117.06751	19211.7875
1120.71348	19267.5875
1124.35696	19385.8875
1127.99793	19554.1875
1131.63641	19715.3875
1135.2724	19640.1875
1138.90589	19558.3875
1142.5369	19572.4875
1146.16542	19612.6875
1149.79145	19631.4875
1153.415	19685.5875
1157.03607	19828.1875
1160.65467	20229.5875
1164.27079	21040.8875
1167.88443	21991.2875
1171.49561	23108.1875
1175.10432	24452.4875
1178.71056	26291.0875
1182.31434	28142.4875
1185.91565	29290.0875
1189.51451	29260.8875
1193.11091	28391.5875
1196.70485	27281.1875
1200.29634	26324.1875
1203.88538	25751.3875
1207.47197	25358.8875
1211.05612	24953.0875
1214.63782	24485.5875
1218.21708	24084.0875
1221.79391	23807.5875
1225.36829	23582.0875
1228.94024	23223.3875
1232.50976	22732.6875
1236.07685	22238.6875
1239.6415	21990.2875
1243.20374	22022.4875
1246.76355	22284.5875
1250.32093	22757.6875
1253.8759	23329.4875
1257.42845	24010.7875
1260.97859	24740.8875
1264.52631	25470.3875
1268.07163	26348.7875
1271.61453	27293.3875
1275.15503	28222.1875
1278.69312	29144.8875
1282.22882	29753.6875
1285.76211	30274.9875
1289.29301	30907.7875
1292.82151	31816.4875
1296.34761	33250.1875
1299.87133	35286.6875
1303.39266	37793.2875
1306.9116	40215.7875
1310.42815	41862.3875
1313.94233	42258.7875
1317.45412	41337.4875
1320.96354	39711.1875
1324.47058	38123.3875
1327.97525	36903.0875
1331.47754	36207.7875
1334.97747	35724.5875
1338.47502	35249.9875
1341.97022	34538.9875
1345.46305	33781.2875
1348.95352	33323.4875
1352.44163	33811.3875
1355.92738	35436.2875
1359.41078	37901.0875
1362.89183	39618.3875
1366.37053	39124.0875
1369.84688	36178.4875
1373.32088	32250.6875
1376.79254	29449.6875
1380.26186	28274.7875
1383.72883	28102.2875
1387.19347	27962.8875
1390.65578	27577.0875
1394.11575	27298.0875
1397.57339	27359.3875
1401.0287	27655.0875
1404.48168	27956.6875
1407.93234	28027.6875
1411.38068	27904.3875
1414.82669	27447.2875
1418.27039	26752.9875
1421.71177	25974.6875
1425.15083	25249.3875
1428.58758	24978.7875
1432.02203	25214.3875
1435.45416	25938.7875
1438.88399	26716.2875
1442.31151	27193.0875
1445.73673	27313.8875
1449.15965	27337.0875
1452.58027	27167.1875
1455.9986	26913.4875
1459.41463	26844.1875
1462.82837	27196.6875
1466.23982	27842.8875
1469.64898	28496.5875
1473.05586	28995.5875
1476.46045	29242.6875
1479.86276	29159.7875
1483.26279	28916.0875
1486.66054	28698.9875
1490.05602	28703.3875
1493.44922	28851.9875
1496.84016	28973.4875
1500.22882	29024.4875
1503.61521	29355.1875
1506.99934	29931.7875
1510.38121	30388.0875
1513.76081	30507.8875
1517.13816	29934.9875
1520.51324	29033.5875
1523.88607	28341.1875
1527.25665	28036.7875
1530.62498	28046.4875
1533.99105	28053.4875
1537.35488	27852.1875
1540.71647	27562.9875
1544.07581	27146.4875
1547.4329	26720.6875
1550.78776	26363.7875
1554.14038	26030.0875
1557.49077	25751.3875
1560.83892	25446.8875
1564.18484	25208.7875
1567.52853	25153.1875
1570.86999	25234.2875
1574.20922	25537.4875
1577.54624	25814.6875
1580.88103	25984.0875
1584.2136	26418.0875
1587.54395	27462.4875
1590.87208	29253.0875
1594.19801	31527.7875
1597.52172	33563.0875
1600.84321	34160.8875
1604.16251	32641.2875
1607.47959	29741.5875
1610.79447	26785.2875
1614.10715	24317.3875
1617.41763	22565.5875
1620.7259	21484.9875
1624.03199	21079.7875
1627.33587	21267.7875
1630.63757	21979.6875
1633.93707	23153.9875
1637.23439	24978.2875
1640.52951	27602.2875
1643.82246	30656.0875
1647.11321	32962.7875
1650.40179	33026.2875
1653.68819	30434.5875
1656.97241	26503.1875
1660.25446	23011.7875
1663.53433	20589.8875
1666.81203	19135.7875
1670.08756	18264.6875
1673.36092	17760.9875
1676.63211	17412.0875
1679.90115	17177.2875
1683.16801	16940.1875
1686.43272	16828.8875
1689.69527	16673.7875
1692.95567	16600.2875
1696.2139	16497.2875
1699.46999	16476.3875
1702.72392	16418.7875
1705.97571	16399.9875
1709.22535	16434.8875
1712.47284	16415.6875
1715.71819	16439.7875
1718.96139	16416.4875
1722.20246	16382.5875
1725.44139	16321.7875
1728.67818	16284.5875
1731.91284	16200.7875
1735.14537	16132.8875
1738.37576	16070.9875
1741.60403	16007.2875
1744.83017	15977.2875
1748.05418	15890.7875
1751.27607	15894.9875
1754.49584	15831.0875
1757.71349	15820.2875
1760.92903	15790.4875
1764.14244	15776.2875
1767.35375	15786.0875
1770.56294	15789.8875
1773.77002	15773.6875
1776.97499	15798.9875
1780.17785	15771.6875
1783.37861	15804.7875
1786.57727	15777.5875
1789.77382	15738.6875
1792.96828	15743.5875
1796.16064	15719.2875
1799.3509	15694.6875
1802.53907	15687.3875
1805.72514	15624.0875
1808.90913	15619.5875
1812.09102	15562.9875
1815.27083	15568.7875
1818.44856	15579.1875
1821.6242	15544.5875
1824.79776	15503.0875
1827.96924	15505.0875
1831.13864	15507.1875
1834.30597	15507.9875
1837.47122	15516.8875
1840.6344	15492.1875
1843.7955	15515.5875
1846.95454	15502.5875
1850.11151	15510.3875
1853.26642	15493.3875
1856.41926	15552.3875
1859.57004	15530.8875
1862.71876	15510.2875
1865.86542	15477.4875
1869.01003	15491.0875
1872.15258	15451.6875
1875.29308	15478.2875
1878.43152	15463.3875
1881.56792	15454.1875
1884.70227	15428.1875
1887.83457	15439.4875
1890.96482	15405.5875
1894.09304	15416.1875
1897.21921	15378.5875
1900.34335	15378.9875
1903.46544	15357.6875
1906.58551	15340.6875
1909.70353	15324.8875
1912.81953	15301.6875
1915.93349	15296.3875
1919.04543	15280.7875
1922.15534	15237.0875
1925.26322	15218.5875
1928.36908	15206.2875
1931.47292	15208.8875
1934.57473	15173.3875
1937.67453	15163.4875
1940.77232	15086.8875
1943.86808	15042.0875
1946.96184	15013.2875
1950.05358	14962.0875
1953.14331	14915.8875
1956.23103	14881.0875
1959.31675	14884.7875
1962.40046	14838.5875
1965.48217	14809.4875
1968.56188	14779.6875
1971.63959	14749.4875
1974.7153	14718.3875
1977.78901	14688.0875
1980.86073	14639.4875
1983.93046	14592.6875
1986.99819	14547.4875
1990.06394	14514.5875
1993.1277	14465.1875
1996.18947	14422.5875
1999.24925	14396.2875
2002.30706	14338.2875
2005.36288	14332.3875
2008.41672	14315.5875
2011.46859	14285.7875
2014.51848	14245.9875
2017.56639	14215.0875
2020.61233	14182.8875
2023.6563	14178.3875
2026.6983	14136.0875
2029.73833	14141.4875
2032.7764	14093.3875
2035.8125	14099.2875
2038.84664	14060.0875
2041.87881	14085.0875
2044.90903	14069.9875
2047.93729	14050.6875
2050.96359	14011.0875
2053.98794	14009.0875
2057.01034	14015.9875
2060.03078	13988.9875
2063.04927	14001.0875
2066.06582	14017.9875
2069.08042	13997.7875
2072.09307	13971.0875
2075.10378	13972.7875
2078.11255	13971.9875
2081.11938	13963.6875
2084.12426	13967.1875
2087.12722	13957.2875
2090.12824	13935.4875
2093.12732	13952.7875
2096.12447	13960.9875
2099.11969	13935.8875
2102.11299	13959.8875
2105.10435	13993.0875
2108.09379	14006.1875
2111.08131	14011.4875
2114.0669	14032.6875
2117.05057	14060.0875
2120.03233	14040.3875
2123.01216	14066.9875
2125.99008	14070.9875
2128.96609	14074.9875
2131.94018	14090.5875
2134.91236	14121.5875
2137.88263	14101.0875
2140.851	14143.2875
2143.81746	14163.1875
2146.78201	14164.4875
2149.74466	14179.4875
2152.7054	14193.3875
2155.66425	14226.7875
2158.6212	14199.4875
2161.57625	14167.8875
2164.52941	14205.6875
2167.48067	14190.8875
2170.43004	14176.5875
2173.37752	14212.5875
2176.32311	14172.4875
2179.26681	14191.9875
2182.20863	14194.3875
2185.14856	14206.2875
2188.08661	14240.0875
2191.02278	14258.7875
2193.95707	14257.5875
2196.88948	14246.1875
2199.82001	14272.1875
2202.74867	14246.2875
2205.67545	14253.6875
2208.60037	14244.2875
2211.52341	14226.6875
2214.44458	14233.6875
2217.36388	14200.5875
2220.28132	14209.0875
2223.1969	14199.8875
2226.11061	14208.0875
2229.02246	14177.9875
2231.93245	14157.7875
2234.84058	14121.5875
2237.74686	14100.0875
2240.65128	14112.9875
2243.55385	14080.5875
2246.45456	14047.8875
2249.35343	14047.6875
2252.25044	13975.5875
2255.14561	13964.9875
2258.03893	13960.7875
2260.93041	13948.7875
2263.82004	13922.3875
2266.70783	13915.3875
2269.59378	13880.4875
2272.4779	13865.5875
2275.36017	13842.0875
2278.24061	13838.4875
2281.11922	13819.9875
2283.996	13820.9875
2286.87094	13821.0875
2289.74405	13804.3875
2292.61534	13797.0875
2295.4848	13787.2875
2298.35243	13816.7875
2301.21824	13819.6875
2304.08223	13836.6875
2306.94439	13874.4875
2309.80474	13881.5875
2312.66327	13887.9875
2315.51999	13919.2875
2318.37489	13933.9875
2321.22797	13886.7875
2324.07925	13895.4875
2326.92871	13862.4875
2329.77637	13863.2875
2332.62222	13854.1875
2335.46626	13861.0875
2338.3085	13865.7875
2341.14893	13839.2875
2343.98756	13872.8875
2346.8244	13870.1875
2349.65943	13828.1875
2352.49267	13836.6875
2355.32411	13860.8875
2358.15376	13804.9875
2360.98161	13815.5875
2363.80768	13801.0875
2366.63195	13761.8875
2369.45444	13763.0875
2372.27514	13726.1875
2375.09405	13675.2875
2377.91118	13705.6875
2380.72652	13686.6875
2383.54009	13649.9875
2386.35187	13635.9875
2389.16188	13605.5875
2391.97011	13599.9875
2394.77657	13622.3875
2397.58125	13581.9875
2400.38416	13585.3875
2403.18529	13551.7875
2405.98466	13549.5875
2408.78226	13506.8875
2411.57809	13486.4875
2414.37216	13484.1875
2417.16446	13459.5875
2419.955	13458.1875
2422.74378	13462.7875
2425.5308	13433.0875
2428.31606	13433.0875
2431.09956	13403.7875
2433.88131	13437.7875
2436.6613	13416.2875
2439.43954	13400.7875
2442.21603	13408.7875
2444.99077	13401.2875
2447.76377	13419.7875
2450.53501	13405.9875
2453.30451	13388.2875
2456.07226	13379.0875
2458.83827	13395.1875
2461.60254	13416.0875
2464.36507	13441.1875
2467.12586	13417.5875
2469.88492	13436.6875
2472.64224	13458.6875
2475.39782	13465.5875
2478.15167	13471.6875
2480.90379	13441.4875
2483.65417	13459.8875
2486.40283	13463.9875
2489.14976	13491.9875
2491.89497	13506.8875
2494.63845	13514.4875
2497.3802	13470.4875
2500.12024	13485.9875
2502.85855	13465.3875
2505.59514	13482.7875
2508.33002	13471.4875
2511.06318	13488.5875
2513.79462	13447.8875
2516.52435	13419.8875
2519.25237	13439.9875
2521.97867	13430.1875
2524.70327	13484.9875
2527.42616	13457.1875
2530.14734	13447.0875
2532.86681	13416.8875
2535.58458	13424.7875
2538.30065	13402.3875
2541.01501	13424.0875
2543.72768	13426.6875
2546.43864	13410.5875
2549.14791	13389.3875
2551.85548	13391.9875
2554.56136	13400.3875
2557.26554	13363.3875
2559.96803	13393.9875
2562.66883	13407.7875
2565.36794	13399.4875
2568.06536	13406.1875
2570.7611	13387.5875
2573.45514	13372.5875
2576.14751	13358.7875
2578.83819	13351.5875
2581.52719	13389.2875
2584.21451	13375.1875
2586.90015	13387.0875
2589.58411	13345.0875
2592.2664	13376.5875
2594.94701	13317.4875
2597.62594	13314.3875
2600.30321	13319.1875
2602.9788	13303.5875
2605.65273	13298.0875
2608.32498	13320.7875
2610.99557	13304.8875
2613.66449	13350.5875
2616.33175	13313.2875
2618.99734	13314.8875
2621.66128	13318.7875
2624.32355	13310.8875
2626.98416	13299.4875
2629.64311	13273.1875
2632.30041	13303.8875
2634.95605	13269.2875
2637.61004	13245.8875
2640.26238	13251.1875
2642.91306	13229.0875
2645.56209	13230.7875
2648.20948	13216.6875
2650.85521	13239.9875
2653.4993	13214.5875
2656.14175	13244.4875
2658.78255	13234.0875
2661.42171	13259.3875
2664.05923	13261.3875
2666.6951	13267.0875
2669.32934	13281.3875
2671.96194	13255.9875
2674.59291	13282.4875
2677.22224	13282.2875
2679.84993	13283.3875
2682.476	13256.3875
2685.10043	13241.0875
2687.72324	13233.8875
2690.34441	13232.2875
2692.96396	13244.2875
2695.58188	13237.1875
2698.19818	13194.7875
2700.81285	13218.4875
2703.4259	13211.7875
2706.03733	13218.7875
2708.64714	13198.8875
2711.25533	13260.9875
2713.86191	13247.4875
2716.46687	13284.3875
2719.07021	13259.0875
2721.67194	13287.9875
2724.27206	13293.8875
2726.87057	13327.2875
2729.46747	13339.7875
2732.06276	13337.0875
2734.65644	13310.3875
2737.24852	13331.3875
2739.83899	13327.7875
2742.42786	13305.6875
2745.01513	13302.6875
2747.60079	13307.4875
2750.18486	13264.8875
2752.76733	13319.3875
2755.3482	13289.2875
2757.92747	13295.3875
2760.50515	13309.1875
2763.08123	13260.1875
2765.65573	13280.5875
2768.22863	13256.4875
2770.79994	13284.3875
2773.36967	13285.2875
2775.9378	13297.7875
2778.50435	13289.0875
2781.06932	13268.4875
2783.6327	13284.8875
2786.1945	13280.4875
2788.75471	13262.6875
2791.31335	13243.2875
2793.87041	13223.0875
2796.42589	13205.5875
2798.97979	13168.6875
2801.53212	13182.9875
2804.08288	13165.9875
2806.63206	13131.3875
2809.17967	13102.9875
2811.72571	13064.7875
2814.27018	13075.5875
2816.81308	13043.1875
2819.35442	13026.7875
2821.89419	13061.9875
2824.43239	13013.1875
2826.96904	13012.7875
2829.50412	13052.8875
2832.03763	13000.6875
2834.56959	13026.9875
2837.1	13007.4875
2839.62884	12993.5875
2842.15613	12993.3875
2844.68186	13048.8875
2847.20604	13050.3875
2849.72867	13056.8875
2852.24974	13044.0875
2854.76927	13063.3875
2857.28724	13052.1875
2859.80367	13005.3875
2862.31855	12996.7875
2864.83189	12993.1875
2867.34368	12991.8875
2869.85393	13005.4875
2872.36264	12967.9875
2874.8698	12954.7875
2877.37543	12972.1875
2879.87952	12967.6875
2882.38207	12986.4875
2884.88308	12976.6875
2887.38256	13012.7875
2889.88051	13004.2875
2892.37692	13012.7875
2894.8718	13036.7875
2897.36515	13057.9875
2899.85698	13062.9875
2902.34727	13080.1875
2904.83604	13119.4875
2907.32328	13122.7875
2909.809	13162.9875
2912.29319	13136.2875
2914.77587	13124.4875
2917.25702	13132.3875
2919.73665	13094.7875
2922.21476	13074.8875
2924.69136	13088.8875
2927.16644	13098.3875
2929.64	13083.0875
2932.11205	13083.9875
2934.58258	13017.7875
2937.05161	13045.2875
2939.51912	13051.1875
2941.98513	13022.2875
2944.44962	12970.9875
2946.91261	12939.2875
2949.37409	12974.6875
2951.83407	12968.3875
2954.29254	12961.8875
2956.74951	12941.9875
2959.20498	12953.0875
2961.65895	12922.4875
2964.11142	12938.6875
2966.56239	12917.6875
2969.01186	12909.9875
2971.45984	12882.2875
2973.90632	12870.7875
2976.35131	12827.6875
2978.7948	12799.8875
2981.23681	12770.8875
2983.67732	12807.7875
2986.11635	12762.9875
2988.55388	12695.1875
2990.98993	12697.1875
2993.4245	12666.8875
2995.85758	12679.2875
2998.28917	12649.1875
3000.71928	12622.8875
3003.14791	12598.7875
3005.57506	12600.8875
3008.00073	12587.4875
3010.42493	12602.5875
3012.84764	12574.6875
3015.26888	12568.2875
3017.68865	12515.8875
3020.10694	12518.8875
3022.52376	12490.1875
3024.9391	12543.8875
3027.35298	12498.1875
3029.76539	12495.4875
3032.17632	12476.4875
3034.5858	12458.4875
3036.9938	12465.2875
3039.40034	12480.4875
3041.80542	12476.2875
3044.20903	12463.9875
3046.61118	12438.1875
3049.01187	12409.1875
3051.4111	12415.7875
3053.80888	12400.1875
3056.20519	12392.7875
3058.60005	12372.8875
3060.99345	12350.1875
3063.3854	12309.5875
3065.7759	12281.8875
3068.16494	12271.4875
3070.55254	12247.2875
3072.93868	12249.0875
3075.32338	12200.8875
3077.70662	12192.7875
3080.08842	12175.5875
3082.46878	12168.9875
3084.84769	12157.8875
3087.22515	12170.5875
3089.60118	12163.7875
3091.97576	12168.7875
3094.3489	12178.7875
3096.72061	12188.3875
3099.09087	12180.7875
3101.4597	12142.7875
3103.82709	12144.6875
3106.19305	12139.0875
3108.55757	12147.0875
3110.92066	12119.6875
3113.28232	12099.4875
3115.64255	12078.5875
3118.00134	12084.8875
3120.35871	12081.6875
3122.71466	12058.1875
3125.06917	12015.8875
3127.42226	12011.0875
3129.77393	12028.1875
3132.12417	11978.6875
3134.47299	12008.5875
3136.82039	12006.3875
3139.16636	12011.4875
3141.51092	12013.7875
3143.85406	12048.6875
3146.19579	12020.9875
3148.53609	12039.2875
3150.87499	12054.3875
3153.21246	12035.8875
3155.54853	12058.0875
3157.88318	12060.8875
3160.21642	12063.0875
3162.54826	12060.2875
3164.87868	12037.4875
3167.2077	12055.0875
3169.5353	12094.4875
3171.86151	12066.4875
3174.18631	12078.4875
3176.5097	12065.0875
3178.83169	12017.0875
3181.15228	12061.5875
3183.47147	11991.5875
3185.78926	12025.1875
3188.10565	12016.2875
3190.42065	12037.0875
3192.73424	12004.7875
3195.04645	12018.3875
3197.35725	12002.9875
3199.66667	11990.8875
3201.97469	12018.3875
3204.28132	12001.7875
3206.58656	12001.2875
3208.8904	12024.0875
3211.19287	12042.9875
3213.49394	12039.8875
3215.79363	12046.6875
3218.09193	12054.0875
3220.38884	12034.1875
3222.68438	12059.1875
3224.97853	12042.9875
3227.2713	12031.0875
3229.56269	12023.5875
3231.8527	12028.3875
3234.14133	12046.1875
3236.42858	12003.4875
3238.71446	11986.3875
3240.99896	11945.5875
3243.28209	11953.5875
3245.56384	11940.1875
3247.84423	11948.0875
3250.12324	11944.5875
3252.40088	11936.2875
3254.67715	11934.1875
3256.95205	11932.1875
3259.22558	11950.1875
3261.49775	11903.1875
3263.76855	11887.1875
3266.03799	11888.3875
3268.30606	11906.8875
3270.57277	11877.7875
3272.83812	11850.4875
3275.10211	11805.5875
3277.36474	11784.0875
3279.62601	11787.3875
3281.88593	11781.1875
3284.14448	11791.1875
3286.40168	11811.3875
3288.65753	11807.8875
3290.91202	11790.0875
3293.16516	11773.0875
3295.41695	11733.7875
3297.66738	11648.9875
3299.91647	11596.1875
3302.16421	11554.5875
3304.4106	11488.8875
3306.65564	11451.9875
3308.89933	11399.7875
3311.14169	11327.0875
3313.38269	11239.5875
3315.62236	11186.6875
3317.86068	11080.6875
3320.09766	11027.7875
3322.3333	10942.2875
3324.5676	10946.0875
3326.80056	10756.7875
3329.03219	10710.9875
3331.26248	2.8875
3333.49143	0.2875
3335.71905	-0.4125
