Data from AgNPs_FTO_APTES_UA_1uM_CRN_100uM_R6G_10uM_NaF_0.1M_Addition_RamanShift__22__16-46-19-792.txt Node

Date: Thu Jan 27 16:46:19 GMT 2022
User: TCL
Spectrometer: QEP01345
Trigger mode: 4
Integration Time (sec): 7.000000E0
Scans to average: 10
Electric dark correction enabled: true
Nonlinearity correction enabled: false
Boxcar width: 0
XAxis mode: Raman Shifts
Number of Pixels in Spectrum: 1044
>>>>>Begin Spectral Data<<<<<
46.04893	0.4
50.45542	0.3
54.85868	-0.5
59.25871	-0.8
63.6555	44.4
68.04907	50.6
72.43941	48.2
76.82654	53.2
81.21044	55.4
85.59113	54.8
89.96862	54.6
94.34289	60.5
98.71396	63.6
103.08183	62.3
107.4465	69.7
111.80798	68.1
116.16626	71
120.52136	71.2
124.87327	72.7
129.222	72.2
133.56755	76
137.90993	81.6
142.24913	86.2
146.58517	99.9
150.91804	112
155.24774	130.7
159.57429	156.8
163.89768	198
168.21792	257.9
172.53501	348.7
176.84895	478
181.15975	667.4
185.46741	928.4
189.77193	1281.2
194.07331	1718.9
198.37157	2220.8
202.6667	2737.8
206.9587	3263.3
211.24758	3765.4
215.53334	4275.3
219.81599	4799
224.09553	5391.5
228.37195	6037
232.64527	6754
236.91549	7498.4
241.18261	8267.9
245.44663	8994
249.70755	9660.6
253.96539	10253.2
258.22014	10745.6
262.4718	11148.5
266.72039	11449.1
270.96589	11618.4
275.20832	11683.7
279.44768	11660.2
283.68397	11590.5
287.91719	11541
292.14735	11516.4
296.37445	11514.2
300.59849	11566.4
304.81948	11589.8
309.03742	11500.3
313.25231	11345.4
317.46415	11060
321.67296	10729.3
325.87872	10493.4
330.08145	10360.6
334.28114	10360.1
338.47781	10453
342.67145	10557.1
346.86207	10726.7
351.04966	10955.5
355.23424	11143.3
359.4158	11343
363.59435	11494.8
367.76989	11560.6
371.94243	11675.4
376.11196	11738.4
380.27849	11807
384.44203	11878.5
388.60257	11988.7
392.76012	12071.3
396.91468	12235.8
401.06626	12437.9
405.21485	12540
409.36047	12519.8
413.50311	12371.3
417.64277	12249.5
421.77947	12211.2
425.9132	12264.8
430.04396	12375.8
434.17176	12466.1
438.2966	12593.4
442.41849	12782.7
446.53742	13105.5
450.6534	13447.8
454.76644	13735.9
458.87653	13892.7
462.98368	13845.8
467.08789	13713
471.18916	13597.4
475.2875	13501.2
479.38291	13465.8
483.4754	13386.1
487.56496	13256.2
491.6516	13025.7
495.73531	12801.2
499.81612	12723.4
503.89401	12741.9
507.96899	12745.2
512.04106	12704.6
516.11023	12645.9
520.1765	12559.2
524.23987	12462.9
528.30034	12364.4
532.35792	12258.7
536.41261	12175.8
540.46441	12085.1
544.51333	12100.9
548.55936	12229.8
552.60252	12473.4
556.64279	12686.5
560.6802	12913.3
564.71473	12984.6
568.7464	13155.5
572.7752	13390.7
576.80114	13594.4
580.82422	13716.8
584.84444	13869.9
588.86181	14007.1
592.87633	14230.8
596.888	14390.1
600.89682	14437
604.9028	14745.6
608.90594	15577.3
612.90624	16526.7
616.90371	15715.3
620.89834	13624.6
624.89015	12752.9
628.87913	12695.8
632.86528	12750.7
636.84862	12769.7
640.82913	12643
644.80683	12343.5
648.78172	12102.9
652.75379	11995.6
656.72306	12084.7
660.68952	12227.4
664.65319	12200.4
668.61405	12037.2
672.57211	11995.8
676.52738	11996.7
680.47986	11999.7
684.42955	12006.8
688.37646	11972.3
692.32058	11988.3
696.26192	12070.6
700.20048	12156.3
704.13626	12220.5
708.06928	12211.6
711.99952	12164
715.927	12106.2
719.85171	12143.6
723.77365	12147.4
727.69284	12046.7
731.60928	11971.6
735.52295	11948.2
739.43388	11963.2
743.34206	11991.8
747.24749	12031.8
751.15017	12109.7
755.05012	12301.5
758.94733	12645.7
762.8418	13151.7
766.73354	13910.7
770.62254	14683.5
774.50882	14841.9
778.39237	14297.7
782.27321	13373.5
786.15132	12600.6
790.02671	12202.4
793.89938	11996.4
797.76935	11903.8
801.6366	11910.4
805.50115	11878
809.36299	11841.7
813.22213	11799.6
817.07857	11787.9
820.93231	11768.3
824.78336	11740
828.63172	11716.2
832.47738	11710.7
836.32036	11736.7
840.16066	11752.5
843.99827	11789.7
847.8332	11755.2
851.66546	11725.5
855.49504	11703.7
859.32195	11710.3
863.1462	11677.5
866.96777	11664.3
870.78668	11612.9
874.60293	11620.2
878.41652	11595
882.22745	11627.7
886.03573	11639.1
889.84136	11657.6
893.64433	11605.9
897.44466	11588.1
901.24235	11530.3
905.0374	11512.7
908.8298	11489.3
912.61957	11506.6
916.40671	11604.4
920.19121	11764.5
923.97308	11845.1
927.75233	11876.7
931.52895	11821.1
935.30295	11728.8
939.07433	11548.4
942.84309	11405
946.60924	11353.1
950.37278	11320.8
954.13371	11267.4
957.89203	11211.1
961.64774	11215.8
965.40086	11163.1
969.15137	11101.6
972.89929	11034.3
976.64461	11025.3
980.38733	11018.3
984.12747	11040.1
987.86502	11116.7
991.59999	11267
995.33237	11440.1
999.06217	11717
1002.78939	12014.7
1006.51404	12186.6
1010.23611	12289.8
1013.95561	12359.2
1017.67255	12380.5
1021.38692	12327.6
1025.09872	12227.9
1028.80796	12312.3
1032.51465	12544.7
1036.21877	12843.5
1039.92035	12835.8
1043.61937	12682.4
1047.31584	12448.8
1051.00976	12199.5
1054.70114	12059.9
1058.38998	12080.2
1062.07627	12153.7
1065.76003	12221.9
1069.44126	12302.7
1073.11995	12405.4
1076.79611	12469.5
1080.46974	12481.7
1084.14085	12531.8
1087.80943	12627.9
1091.47549	12692.6
1095.13903	12679.2
1098.80005	12570.3
1102.45857	12377
1106.11456	12236.2
1109.76805	12207.3
1113.41903	12249.2
1117.06751	12365.7
1120.71348	12477.4
1124.35696	12603.7
1127.99793	12699.6
1131.63641	12789.4
1135.2724	12708.7
1138.90589	12589
1142.5369	12521.4
1146.16542	12537.8
1149.79145	12570.7
1153.415	12673
1157.03607	12855.3
1160.65467	13103.6
1164.27079	13500.6
1167.88443	14105.9
1171.49561	14845.2
1175.10432	15794.8
1178.71056	16958.7
1182.31434	18025
1185.91565	18618.7
1189.51451	18680.7
1193.11091	18282.9
1196.70485	17692.6
1200.29634	17046.8
1203.88538	16541
1207.47197	16131.4
1211.05612	15825.2
1214.63782	15561.7
1218.21708	15345.3
1221.79391	15133.2
1225.36829	15055.1
1228.94024	14880.6
1232.50976	14663.4
1236.07685	14498.1
1239.6415	14377.6
1243.20374	14407.4
1246.76355	14457.5
1250.32093	14605.1
1253.8759	14890.2
1257.42845	15246.7
1260.97859	15539.7
1264.52631	15862.6
1268.07163	16138.5
1271.61453	16525.5
1275.15503	16990.7
1278.69312	17436.2
1282.22882	17879.1
1285.76211	18265.5
1289.29301	18736.4
1292.82151	19405.8
1296.34761	20260.1
1299.87133	21288.3
1303.39266	22506.1
1306.9116	23729.3
1310.42815	24896.6
1313.94233	25651.1
1317.45412	25735.4
1320.96354	25385.8
1324.47058	24914.1
1327.97525	24504.7
1331.47754	24224.5
1334.97747	24151.4
1338.47502	24244.3
1341.97022	24287.8
1345.46305	24143.4
1348.95352	23704.8
1352.44163	23256.9
1355.92738	23095.6
1359.41078	23640.9
1362.89183	24222.9
1366.37053	23908.8
1369.84688	22266
1373.32088	20286.4
1376.79254	18901.9
1380.26186	18336.1
1383.72883	18294.4
1387.19347	18417.6
1390.65578	18438.8
1394.11575	18538.6
1397.57339	18818.4
1401.0287	19278.4
1404.48168	19718.2
1407.93234	19933.5
1411.38068	19853.5
1414.82669	19296.5
1418.27039	18511.4
1421.71177	17653.2
1425.15083	16946.7
1428.58758	16511.2
1432.02203	16411.8
1435.45416	16645.5
1438.88399	17016.4
1442.31151	17357.7
1445.73673	17677.4
1449.15965	18015.2
1452.58027	18291.4
1455.9986	18415.7
1459.41463	18557
1462.82837	18760.9
1466.23982	19057
1469.64898	19336.1
1473.05586	19474.4
1476.46045	19443.7
1479.86276	19328.4
1483.26279	19089.9
1486.66054	18927.9
1490.05602	18792.7
1493.44922	18810.9
1496.84016	18804
1500.22882	18906.7
1503.61521	19227.9
1506.99934	19731.8
1510.38121	20280.9
1513.76081	20527.3
1517.13816	20235.9
1520.51324	19670.5
1523.88607	19051.6
1527.25665	18707.7
1530.62498	18548.6
1533.99105	18503.7
1537.35488	18448.6
1540.71647	18323.7
1544.07581	18102.3
1547.4329	17831
1550.78776	17584.6
1554.14038	17367.8
1557.49077	17291.9
1560.83892	17272.4
1564.18484	17278.6
1567.52853	17235.3
1570.86999	17301.5
1574.20922	17475.3
1577.54624	17664.6
1580.88103	17789.3
1584.2136	17947.8
1587.54395	18392.4
1590.87208	19114
1594.19801	20081.9
1597.52172	21111.6
1600.84321	21483.6
1604.16251	20801.4
1607.47959	19472.7
1610.79447	17997.8
1614.10715	16581.2
1617.41763	15394.6
1620.7259	14595.3
1624.03199	14171
1627.33587	14070.3
1630.63757	14388.2
1633.93707	15098.5
1637.23439	16185.8
1640.52951	17667.2
1643.82246	19365.3
1647.11321	20651.3
1650.40179	20931.5
1653.68819	19909.8
1656.97241	17855.2
1660.25446	15718.5
1663.53433	14029.1
1666.81203	12926.9
1670.08756	12199.3
1673.36092	11723.3
1676.63211	11458.6
1679.90115	11274.2
1683.16801	11106
1686.43272	10979.7
1689.69527	10876
1692.95567	10766.6
1696.2139	10702.5
1699.46999	10666.1
1702.72392	10585.2
1705.97571	10615.7
1709.22535	10622.5
1712.47284	10611.8
1715.71819	10625.8
1718.96139	10617.3
1722.20246	10609.9
1725.44139	10566.1
1728.67818	10539
1731.91284	10469.7
1735.14537	10420.5
1738.37576	10405.3
1741.60403	10367.4
1744.83017	10326
1748.05418	10292.8
1751.27607	10272.2
1754.49584	10240
1757.71349	10250.8
1760.92903	10210.7
1764.14244	10203.4
1767.35375	10208.7
1770.56294	10179.8
1773.77002	10161.8
1776.97499	10169.7
1780.17785	10182.8
1783.37861	10176.1
1786.57727	10173
1789.77382	10154.2
1792.96828	10131.4
1796.16064	10124.9
1799.3509	10110
1802.53907	10114.2
1805.72514	10073.6
1808.90913	10056
1812.09102	10052.7
1815.27083	10025.8
1818.44856	10032.7
1821.6242	10006.4
1824.79776	10018.3
1827.96924	9973.4
1831.13864	9978.3
1834.30597	9983.7
1837.47122	9982.6
1840.6344	9957.8
1843.7955	9981.5
1846.95454	9966.3
1850.11151	9961.9
1853.26642	9965.6
1856.41926	9980.9
1859.57004	9986.8
1862.71876	9957
1865.86542	9960.4
1869.01003	9964
1872.15258	9966.5
1875.29308	9962.4
1878.43152	9968.4
1881.56792	9955.3
1884.70227	9963.6
1887.83457	9936.2
1890.96482	9939.3
1894.09304	9938.8
1897.21921	9932.3
1900.34335	9921.3
1903.46544	9918.6
1906.58551	9917.5
1909.70353	9910.9
1912.81953	9881.8
1915.93349	9869.6
1919.04543	9876.6
1922.15534	9861.3
1925.26322	9857.3
1928.36908	9845.3
1931.47292	9811.5
1934.57473	9806.2
1937.67453	9787.7
1940.77232	9753.6
1943.86808	9706.4
1946.96184	9696.9
1950.05358	9664.2
1953.14331	9623.4
1956.23103	9596.5
1959.31675	9570.1
1962.40046	9554
1965.48217	9518.6
1968.56188	9477
1971.63959	9459
1974.7153	9434.9
1977.78901	9400
1980.86073	9388.1
1983.93046	9351.7
1986.99819	9340.4
1990.06394	9310.9
1993.1277	9288.8
1996.18947	9238.9
1999.24925	9241.1
2002.30706	9221.9
2005.36288	9202.9
2008.41672	9162.6
2011.46859	9141.8
2014.51848	9121.6
2017.56639	9099.3
2020.61233	9079.2
2023.6563	9080.9
2026.6983	9048.9
2029.73833	9014
2032.7764	9022.6
2035.8125	9020
2038.84664	8975.1
2041.87881	8968.2
2044.90903	8949.3
2047.93729	8936.6
2050.96359	8948.4
2053.98794	8916.5
2057.01034	8930.9
2060.03078	8933.9
2063.04927	8906.5
2066.06582	8918
2069.08042	8893.6
2072.09307	8917.3
2075.10378	8894.5
2078.11255	8869
2081.11938	8894
2084.12426	8857.9
2087.12722	8878.6
2090.12824	8876
2093.12732	8893.3
2096.12447	8866.4
2099.11969	8847.6
2102.11299	8868.4
2105.10435	8870
2108.09379	8881.4
2111.08131	8882.1
2114.0669	8903.1
2117.05057	8897.4
2120.03233	8893.7
2123.01216	8907.9
2125.99008	8914.6
2128.96609	8930.8
2131.94018	8931.7
2134.91236	8933.8
2137.88263	8963.7
2140.851	8956
2143.81746	8946.4
2146.78201	8945.4
2149.74466	8968.2
2152.7054	8967.6
2155.66425	8976.7
2158.6212	8960.9
2161.57625	8939.9
2164.52941	8968
2167.48067	8970
2170.43004	8976.7
2173.37752	8979.4
2176.32311	8969.3
2179.26681	8960.3
2182.20863	8988.9
2185.14856	8958.1
2188.08661	8979
2191.02278	9017.6
2193.95707	8973.3
2196.88948	8991.7
2199.82001	8952
2202.74867	8973.1
2205.67545	8963.7
2208.60037	8964.9
2211.52341	8930.2
2214.44458	8934.3
2217.36388	8916.4
2220.28132	8916.3
2223.1969	8891
2226.11061	8880
2229.02246	8863.3
2231.93245	8878.9
2234.84058	8857.1
2237.74686	8822.4
2240.65128	8841.1
2243.55385	8797.9
2246.45456	8772
2249.35343	8811.3
2252.25044	8744.6
2255.14561	8735
2258.03893	8783.9
2260.93041	8737.4
2263.82004	8716.1
2266.70783	8679.6
2269.59378	8672.8
2272.4779	8646.1
2275.36017	8668.9
2278.24061	8634.5
2281.11922	8618
2283.996	8635.9
2286.87094	8604.5
2289.74405	8591.1
2292.61534	8557.8
2295.4848	8576.2
2298.35243	8584.9
2301.21824	8586
2304.08223	8583.7
2306.94439	8595.6
2309.80474	8599.6
2312.66327	8596.2
2315.51999	8572.4
2318.37489	8563.1
2321.22797	8566.5
2324.07925	8581.1
2326.92871	8557.6
2329.77637	8560
2332.62222	8544.3
2335.46626	8534.9
2338.3085	8534.2
2341.14893	8536.8
2343.98756	8532.5
2346.8244	8522
2349.65943	8517.6
2352.49267	8517.6
2355.32411	8535
2358.15376	8516.9
2360.98161	8521.8
2363.80768	8493.9
2366.63195	8505.2
2369.45444	8489.7
2372.27514	8487.5
2375.09405	8473.5
2377.91118	8457.7
2380.72652	8450.5
2383.54009	8400.3
2386.35187	8406.6
2389.16188	8380.4
2391.97011	8375.5
2394.77657	8353.5
2397.58125	8372.3
2400.38416	8334.7
2403.18529	8329.5
2405.98466	8331.9
2408.78226	8296.2
2411.57809	8291
2414.37216	8274.3
2417.16446	8273.2
2419.955	8267.5
2422.74378	8256.5
2425.5308	8262
2428.31606	8258.9
2431.09956	8237.5
2433.88131	8231.7
2436.6613	8230.6
2439.43954	8235.4
2442.21603	8230.2
2444.99077	8218.6
2447.76377	8230
2450.53501	8213.6
2453.30451	8244.3
2456.07226	8210.9
2458.83827	8195.2
2461.60254	8207.1
2464.36507	8201.7
2467.12586	8192.8
2469.88492	8185.9
2472.64224	8211.3
2475.39782	8215.3
2478.15167	8220.1
2480.90379	8231.7
2483.65417	8227.5
2486.40283	8223.1
2489.14976	8213.2
2491.89497	8217.2
2494.63845	8228
2497.3802	8212.9
2500.12024	8227.6
2502.85855	8220.1
2505.59514	8207
2508.33002	8176.5
2511.06318	8190.9
2513.79462	8219.5
2516.52435	8191.9
2519.25237	8192.3
2521.97867	8180.4
2524.70327	8168.4
2527.42616	8159.5
2530.14734	8171.2
2532.86681	8159.7
2535.58458	8132.5
2538.30065	8136.3
2541.01501	8156.2
2543.72768	8135.3
2546.43864	8122.5
2549.14791	8090
2551.85548	8096
2554.56136	8097.3
2557.26554	8083.4
2559.96803	8078.6
2562.66883	8077.9
2565.36794	8071.5
2568.06536	8064.2
2570.7611	8065.1
2573.45514	8053.8
2576.14751	8057.5
2578.83819	8038
2581.52719	8043.1
2584.21451	8021.8
2586.90015	8034.2
2589.58411	8010.7
2592.2664	8047
2594.94701	8015.9
2597.62594	8006.8
2600.30321	8026
2602.9788	8023.4
2605.65273	7989.6
2608.32498	7989.3
2610.99557	8001.5
2613.66449	8001.6
2616.33175	7978.9
2618.99734	8000.2
2621.66128	8006.4
2624.32355	7987
2626.98416	8012.7
2629.64311	8024.7
2632.30041	7992.3
2634.95605	7995.6
2637.61004	7980.7
2640.26238	7971.3
2642.91306	7965.1
2645.56209	7951.5
2648.20948	7969.6
2650.85521	7946.3
2653.4993	7956.4
2656.14175	7962.3
2658.78255	7964.8
2661.42171	7963.2
2664.05923	7999.7
2666.6951	7970.7
2669.32934	7991.2
2671.96194	7968.7
2674.59291	7987.8
2677.22224	7976.8
2679.84993	7967
2682.476	7960.2
2685.10043	7976.1
2687.72324	7959.7
2690.34441	7973.1
2692.96396	7953.8
2695.58188	7960.5
2698.19818	7956.5
2700.81285	7960
2703.4259	7946.6
2706.03733	7924.7
2708.64714	7942.4
2711.25533	7964.5
2713.86191	7952.6
2716.46687	7974
2719.07021	7962.1
2721.67194	7989.9
2724.27206	7981.7
2726.87057	7992.7
2729.46747	8012.8
2732.06276	8001.2
2734.65644	8002.1
2737.24852	7988.9
2739.83899	7992.6
2742.42786	7994.8
2745.01513	7966.8
2747.60079	7995.2
2750.18486	7982
2752.76733	7999.7
2755.3482	7983.2
2757.92747	7984.3
2760.50515	7970.9
2763.08123	7978.7
2765.65573	7985.7
2768.22863	7975.4
2770.79994	7981.9
2773.36967	7985
2775.9378	7965.4
2778.50435	7975.4
2781.06932	7958.1
2783.6327	7964.4
2786.1945	7942.7
2788.75471	7949
2791.31335	7916.9
2793.87041	7907.6
2796.42589	7901.9
2798.97979	7912.8
2801.53212	7898.2
2804.08288	7889.4
2806.63206	7875.2
2809.17967	7866.9
2811.72571	7848.9
2814.27018	7837.7
2816.81308	7807.7
2819.35442	7821.7
2821.89419	7797.4
2824.43239	7821.7
2826.96904	7797.1
2829.50412	7796.7
2832.03763	7786.6
2834.56959	7777.5
2837.1	7789.9
2839.62884	7782.7
2842.15613	7765.4
2844.68186	7809.5
2847.20604	7814.8
2849.72867	7804.1
2852.24974	7810.1
2854.76927	7789.5
2857.28724	7787.8
2859.80367	7761.6
2862.31855	7772.8
2864.83189	7781.7
2867.34368	7745.5
2869.85393	7761.6
2872.36264	7746.1
2874.8698	7740.9
2877.37543	7742.5
2879.87952	7742.1
2882.38207	7760.5
2884.88308	7756.9
2887.38256	7745.5
2889.88051	7744.2
2892.37692	7763.7
2894.8718	7771.4
2897.36515	7807.5
2899.85698	7787.9
2902.34727	7814.7
2904.83604	7807.6
2907.32328	7825.5
2909.809	7819.3
2912.29319	7826.5
2914.77587	7831.2
2917.25702	7823
2919.73665	7809.4
2922.21476	7831.9
2924.69136	7813.7
2927.16644	7830.5
2929.64	7800.6
2932.11205	7796.5
2934.58258	7788.1
2937.05161	7806.4
2939.51912	7786
2941.98513	7768.1
2944.44962	7766.7
2946.91261	7738.2
2949.37409	7756.6
2951.83407	7736.6
2954.29254	7749.6
2956.74951	7729.2
2959.20498	7725.5
2961.65895	7713
2964.11142	7726.6
2966.56239	7676.8
2969.01186	7702.6
2971.45984	7659.7
2973.90632	7666.6
2976.35131	7653.1
2978.7948	7646.4
2981.23681	7637.2
2983.67732	7616.7
2986.11635	7618.3
2988.55388	7617.4
2990.98993	7586
2993.4245	7560
2995.85758	7565.3
2998.28917	7557.4
3000.71928	7545.2
3003.14791	7528.8
3005.57506	7504.6
3008.00073	7461.2
3010.42493	7484.8
3012.84764	7501.9
3015.26888	7472.8
3017.68865	7452.8
3020.10694	7454.9
3022.52376	7439
3024.9391	7421.6
3027.35298	7419.6
3029.76539	7433.4
3032.17632	7421.2
3034.5858	7402.4
3036.9938	7432.3
3039.40034	7410.3
3041.80542	7408.5
3044.20903	7381.3
3046.61118	7391.6
3049.01187	7377.3
3051.4111	7397.4
3053.80888	7370.8
3056.20519	7340.5
3058.60005	7346.1
3060.99345	7316.6
3063.3854	7300.7
3065.7759	7275.5
3068.16494	7264.4
3070.55254	7267.5
3072.93868	7242.2
3075.32338	7239.3
3077.70662	7237.4
3080.08842	7192.3
3082.46878	7212.7
3084.84769	7198.3
3087.22515	7199.7
3089.60118	7191.4
3091.97576	7188.6
3094.3489	7194.8
3096.72061	7212.3
3099.09087	7211.8
3101.4597	7192.1
3103.82709	7207.8
3106.19305	7179.1
3108.55757	7211.3
3110.92066	7189.7
3113.28232	7173.2
3115.64255	7165.3
3118.00134	7135.8
3120.35871	7145.1
3122.71466	7128.6
3125.06917	7121.3
3127.42226	7108.7
3129.77393	7119.4
3132.12417	7095.6
3134.47299	7091.4
3136.82039	7106.8
3139.16636	7102.1
3141.51092	7119.4
3143.85406	7124.3
3146.19579	7107.2
3148.53609	7126.2
3150.87499	7138.1
3153.21246	7143.7
3155.54853	7159.9
3157.88318	7138
3160.21642	7164.6
3162.54826	7168.6
3164.87868	7166.2
3167.2077	7174.9
3169.5353	7165.6
3171.86151	7175.5
3174.18631	7189.1
3176.5097	7169.2
3178.83169	7167.7
3181.15228	7163.8
3183.47147	7157.3
3185.78926	7142
3188.10565	7128
3190.42065	7140.6
3192.73424	7142
3195.04645	7153
3197.35725	7161.3
3199.66667	7144
3201.97469	7143.5
3204.28132	7157.8
3206.58656	7180.2
3208.8904	7180.9
3211.19287	7178.6
3213.49394	7184
3215.79363	7163.1
3218.09193	7174.4
3220.38884	7180.8
3222.68438	7186.1
3224.97853	7167.6
3227.2713	7194.3
3229.56269	7180.3
3231.8527	7159.4
3234.14133	7156.5
3236.42858	7143.8
3238.71446	7134
3240.99896	7131.8
3243.28209	7124.9
3245.56384	7121.6
3247.84423	7120
3250.12324	7117
3252.40088	7124.4
3254.67715	7111.1
3256.95205	7103.7
3259.22558	7125.3
3261.49775	7103.8
3263.76855	7097.8
3266.03799	7082.2
3268.30606	7058.5
3270.57277	7075.5
3272.83812	7031.4
3275.10211	7029.5
3277.36474	7030
3279.62601	7030.7
3281.88593	7002.6
3284.14448	7019.6
3286.40168	7016.7
3288.65753	7031.2
3290.91202	7028.3
3293.16516	7006.6
3295.41695	6993.7
3297.66738	6964.9
3299.91647	6934.2
3302.16421	6879.5
3304.4106	6849.3
3306.65564	6816.9
3308.89933	6791.3
3311.14169	6736.1
3313.38269	6710.8
3315.62236	6642.3
3317.86068	6597.8
3320.09766	6546.2
3322.3333	6520
3324.5676	6504.2
3326.80056	6382.2
3329.03219	6354.4
3331.26248	2.9
3333.49143	-0.2
3335.71905	-1.1
