Data from AgNPs_FTO_APTES_UA_1uM_CRN_0uM_R6G_10uM_NaF_0.1M_Addition_RamanShift__11__11-18-29-416.txt Node

Date: Thu Jan 27 11:18:29 GMT 2022
User: TCL
Spectrometer: QEP01345
Trigger mode: 4
Integration Time (sec): 7.000000E0
Scans to average: 10
Electric dark correction enabled: true
Nonlinearity correction enabled: false
Boxcar width: 0
XAxis mode: Raman Shifts
Number of Pixels in Spectrum: 1044
>>>>>Begin Spectral Data<<<<<
46.04893	0.775
50.45542	1.075
54.85868	-1.625
59.25871	0.075
63.6555	25.775
68.04907	26.475
72.43941	29.075
76.82654	28.675
81.21044	33.075
85.59113	34.875
89.96862	35.175
94.34289	38.775
98.71396	41.975
103.08183	35.275
107.4465	37.975
111.80798	41.575
116.16626	37.075
120.52136	42.175
124.87327	40.875
129.222	39.975
133.56755	41.075
137.90993	40.975
142.24913	42.275
146.58517	45.775
150.91804	50.775
155.24774	56.275
159.57429	58.075
163.89768	72.275
168.21792	88.675
172.53501	112.875
176.84895	144.475
181.15975	188.575
185.46741	255.375
189.77193	345.075
194.07331	465.675
198.37157	590.975
202.6667	722.175
206.9587	856.675
211.24758	983.475
215.53334	1106.975
219.81599	1223.975
224.09553	1371.575
228.37195	1530.575
232.64527	1694.075
236.91549	1868.275
241.18261	2062.175
245.44663	2219.475
249.70755	2385.875
253.96539	2516.075
258.22014	2614.875
262.4718	2679.275
266.72039	2727.475
270.96589	2726.875
275.20832	2706.375
279.44768	2659.175
283.68397	2606.675
287.91719	2551.175
292.14735	2505.875
296.37445	2492.775
300.59849	2499.475
304.81948	2517.275
309.03742	2518.975
313.25231	2515.875
317.46415	2459.175
321.67296	2375.575
325.87872	2313.575
330.08145	2285.775
334.28114	2289.775
338.47781	2306.975
342.67145	2339.275
346.86207	2362.875
351.04966	2432.875
355.23424	2512.075
359.4158	2581.375
363.59435	2640.775
367.76989	2681.275
371.94243	2688.675
376.11196	2700.175
380.27849	2722.875
384.44203	2720.975
388.60257	2706.775
392.76012	2685.475
396.91468	2709.175
401.06626	2745.475
405.21485	2752.875
409.36047	2734.375
413.50311	2684.175
417.64277	2633.475
421.77947	2580.575
425.9132	2562.875
430.04396	2572.675
434.17176	2585.575
438.2966	2618.275
442.41849	2666.375
446.53742	2704.875
450.6534	2759.975
454.76644	2790.175
458.87653	2808.875
462.98368	2821.475
467.08789	2792.475
471.18916	2771.575
475.2875	2743.975
479.38291	2723.175
483.4754	2702.975
487.56496	2693.775
491.6516	2690.275
495.73531	2696.475
499.81612	2682.575
503.89401	2696.375
507.96899	2723.575
512.04106	2742.975
516.11023	2779.875
520.1765	2800.275
524.23987	2805.775
528.30034	2789.675
532.35792	2757.175
536.41261	2732.475
540.46441	2709.075
544.51333	2702.075
548.55936	2707.975
552.60252	2712.375
556.64279	2737.475
560.6802	2749.575
564.71473	2759.675
568.7464	2772.875
572.7752	2790.275
576.80114	2752.175
580.82422	2709.775
584.84444	2708.775
588.86181	2712.475
592.87633	2736.675
596.888	2763.575
600.89682	2804.775
604.9028	2895.275
608.90594	3209.575
612.90624	3668.975
616.90371	3687.275
620.89834	3132.175
624.89015	2815.875
628.87913	2749.075
632.86528	2743.975
636.84862	2764.175
640.82913	2769.275
644.80683	2715.675
648.78172	2687.675
652.75379	2702.875
656.72306	2732.975
660.68952	2795.775
664.65319	2793.675
668.61405	2736.675
672.57211	2706.775
676.52738	2723.775
680.47986	2725.275
684.42955	2713.575
688.37646	2716.375
692.32058	2713.875
696.26192	2693.575
700.20048	2702.975
704.13626	2705.475
708.06928	2698.575
711.99952	2690.175
715.927	2705.575
719.85171	2694.375
723.77365	2712.075
727.69284	2715.075
731.60928	2706.875
735.52295	2704.275
739.43388	2710.775
743.34206	2710.375
747.24749	2722.975
751.15017	2738.275
755.05012	2750.675
758.94733	2796.675
762.8418	2870.275
766.73354	3026.575
770.62254	3239.475
774.50882	3395.375
778.39237	3354.175
782.27321	3135.875
786.15132	2906.375
790.02671	2778.575
793.89938	2716.175
797.76935	2710.175
801.6366	2702.375
805.50115	2692.975
809.36299	2689.775
813.22213	2659.275
817.07857	2638.575
820.93231	2636.375
824.78336	2633.575
828.63172	2633.375
832.47738	2654.275
836.32036	2665.675
840.16066	2666.475
843.99827	2658.575
847.8332	2637.875
851.66546	2639.175
855.49504	2626.775
859.32195	2616.575
863.1462	2603.275
866.96777	2595.075
870.78668	2584.975
874.60293	2586.175
878.41652	2578.975
882.22745	2585.275
886.03573	2611.775
889.84136	2593.075
893.64433	2612.975
897.44466	2609.675
901.24235	2635.275
905.0374	2624.275
908.8298	2642.575
912.61957	2651.075
916.40671	2692.975
920.19121	2721.475
923.97308	2744.775
927.75233	2767.275
931.52895	2778.875
935.30295	2780.375
939.07433	2760.675
942.84309	2727.475
946.60924	2706.375
950.37278	2687.075
954.13371	2665.175
957.89203	2637.175
961.64774	2602.775
965.40086	2587.775
969.15137	2576.175
972.89929	2561.575
976.64461	2545.375
980.38733	2551.475
984.12747	2553.575
987.86502	2559.875
991.59999	2571.375
995.33237	2572.575
999.06217	2601.175
1002.78939	2622.075
1006.51404	2624.775
1010.23611	2648.475
1013.95561	2652.175
1017.67255	2655.275
1021.38692	2635.875
1025.09872	2631.975
1028.80796	2620.675
1032.51465	2631.975
1036.21877	2640.875
1039.92035	2642.075
1043.61937	2650.675
1047.31584	2648.675
1051.00976	2648.175
1054.70114	2647.475
1058.38998	2628.375
1062.07627	2621.375
1065.76003	2618.975
1069.44126	2596.475
1073.11995	2582.275
1076.79611	2590.875
1080.46974	2610.675
1084.14085	2609.975
1087.80943	2622.175
1091.47549	2606.575
1095.13903	2573.275
1098.80005	2519.075
1102.45857	2462.075
1106.11456	2442.575
1109.76805	2437.175
1113.41903	2460.275
1117.06751	2486.075
1120.71348	2524.575
1124.35696	2580.275
1127.99793	2625.775
1131.63641	2645.375
1135.2724	2586.875
1138.90589	2505.475
1142.5369	2438.375
1146.16542	2398.375
1149.79145	2368.075
1153.415	2343.775
1157.03607	2344.975
1160.65467	2354.975
1164.27079	2393.275
1167.88443	2451.575
1171.49561	2555.275
1175.10432	2715.575
1178.71056	2951.375
1182.31434	3146.075
1185.91565	3248.775
1189.51451	3255.175
1193.11091	3165.275
1196.70485	3024.075
1200.29634	2888.175
1203.88538	2773.575
1207.47197	2612.275
1211.05612	2510.375
1214.63782	2446.175
1218.21708	2428.075
1221.79391	2428.375
1225.36829	2435.875
1228.94024	2457.575
1232.50976	2461.475
1236.07685	2462.775
1239.6415	2447.475
1243.20374	2439.075
1246.76355	2427.675
1250.32093	2435.175
1253.8759	2442.875
1257.42845	2457.275
1260.97859	2498.475
1264.52631	2529.475
1268.07163	2562.575
1271.61453	2603.375
1275.15503	2626.575
1278.69312	2638.175
1282.22882	2653.475
1285.76211	2688.975
1289.29301	2751.775
1292.82151	2795.675
1296.34761	2865.475
1299.87133	2947.675
1303.39266	3056.775
1306.9116	3191.675
1310.42815	3374.775
1313.94233	3460.175
1317.45412	3414.375
1320.96354	3242.475
1324.47058	3051.175
1327.97525	2904.275
1331.47754	2854.375
1334.97747	2876.075
1338.47502	2922.375
1341.97022	2969.775
1345.46305	3032.775
1348.95352	3140.475
1352.44163	3355.675
1355.92738	3623.975
1359.41078	3964.275
1362.89183	4294.075
1366.37053	4304.975
1369.84688	3903.075
1373.32088	3446.075
1376.79254	3111.075
1380.26186	2953.375
1383.72883	2865.875
1387.19347	2782.975
1390.65578	2697.075
1394.11575	2632.875
1397.57339	2586.575
1401.0287	2544.675
1404.48168	2536.575
1407.93234	2532.975
1411.38068	2519.875
1414.82669	2518.075
1418.27039	2514.275
1421.71177	2490.775
1425.15083	2475.675
1428.58758	2481.375
1432.02203	2501.575
1435.45416	2522.075
1438.88399	2539.675
1442.31151	2535.375
1445.73673	2508.975
1449.15965	2492.875
1452.58027	2473.875
1455.9986	2442.875
1459.41463	2409.875
1462.82837	2406.175
1466.23982	2418.475
1469.64898	2437.875
1473.05586	2452.775
1476.46045	2446.075
1479.86276	2465.975
1483.26279	2491.175
1486.66054	2508.875
1490.05602	2529.075
1493.44922	2580.175
1496.84016	2672.875
1500.22882	2826.375
1503.61521	3039.775
1506.99934	3263.575
1510.38121	3505.675
1513.76081	3609.475
1517.13816	3483.875
1520.51324	3176.375
1523.88607	2878.375
1527.25665	2674.775
1530.62498	2567.175
1533.99105	2524.775
1537.35488	2490.775
1540.71647	2479.275
1544.07581	2474.675
1547.4329	2455.175
1550.78776	2459.775
1554.14038	2464.475
1557.49077	2480.075
1560.83892	2488.675
1564.18484	2500.775
1567.52853	2549.575
1570.86999	2597.775
1574.20922	2655.475
1577.54624	2668.875
1580.88103	2621.275
1584.2136	2501.075
1587.54395	2398.975
1590.87208	2365.875
1594.19801	2390.675
1597.52172	2476.875
1600.84321	2518.675
1604.16251	2503.475
1607.47959	2416.875
1610.79447	2331.775
1614.10715	2250.775
1617.41763	2165.275
1620.7259	2114.375
1624.03199	2097.575
1627.33587	2086.675
1630.63757	2096.975
1633.93707	2117.575
1637.23439	2157.075
1640.52951	2242.775
1643.82246	2380.175
1647.11321	2519.775
1650.40179	2637.275
1653.68819	2593.375
1656.97241	2378.875
1660.25446	2128.075
1663.53433	1938.075
1666.81203	1841.275
1670.08756	1790.475
1673.36092	1762.675
1676.63211	1737.775
1679.90115	1695.475
1683.16801	1684.175
1686.43272	1665.575
1689.69527	1626.775
1692.95567	1578.175
1696.2139	1534.775
1699.46999	1474.575
1702.72392	1450.475
1705.97571	1472.475
1709.22535	1522.175
1712.47284	1549.275
1715.71819	1559.975
1718.96139	1574.075
1722.20246	1567.775
1725.44139	1574.675
1728.67818	1547.475
1731.91284	1532.375
1735.14537	1517.175
1738.37576	1501.775
1741.60403	1494.575
1744.83017	1483.575
1748.05418	1470.975
1751.27607	1451.375
1754.49584	1413.975
1757.71349	1393.175
1760.92903	1363.775
1764.14244	1351.175
1767.35375	1353.575
1770.56294	1346.775
1773.77002	1347.475
1776.97499	1363.075
1780.17785	1375.475
1783.37861	1390.775
1786.57727	1403.175
1789.77382	1403.775
1792.96828	1398.175
1796.16064	1395.875
1799.3509	1384.975
1802.53907	1395.175
1805.72514	1380.975
1808.90913	1384.475
1812.09102	1366.675
1815.27083	1374.575
1818.44856	1361.875
1821.6242	1360.175
1824.79776	1355.275
1827.96924	1354.575
1831.13864	1355.275
1834.30597	1349.075
1837.47122	1339.175
1840.6344	1348.575
1843.7955	1342.175
1846.95454	1333.175
1850.11151	1339.675
1853.26642	1330.475
1856.41926	1322.175
1859.57004	1326.275
1862.71876	1319.075
1865.86542	1317.075
1869.01003	1312.575
1872.15258	1314.075
1875.29308	1315.675
1878.43152	1313.075
1881.56792	1308.975
1884.70227	1304.775
1887.83457	1292.275
1890.96482	1293.275
1894.09304	1291.275
1897.21921	1296.075
1900.34335	1288.675
1903.46544	1282.975
1906.58551	1287.375
1909.70353	1283.175
1912.81953	1280.875
1915.93349	1280.475
1919.04543	1269.675
1922.15534	1268.375
1925.26322	1262.475
1928.36908	1265.175
1931.47292	1259.675
1934.57473	1260.875
1937.67453	1249.775
1940.77232	1239.475
1943.86808	1238.975
1946.96184	1240.875
1950.05358	1229.275
1953.14331	1223.875
1956.23103	1225.075
1959.31675	1215.775
1962.40046	1212.875
1965.48217	1209.175
1968.56188	1210.275
1971.63959	1205.575
1974.7153	1204.875
1977.78901	1191.975
1980.86073	1181.075
1983.93046	1178.175
1986.99819	1185.075
1990.06394	1174.275
1993.1277	1173.775
1996.18947	1161.975
1999.24925	1157.175
2002.30706	1154.675
2005.36288	1145.875
2008.41672	1146.975
2011.46859	1148.175
2014.51848	1137.075
2017.56639	1128.375
2020.61233	1135.075
2023.6563	1128.375
2026.6983	1124.475
2029.73833	1115.175
2032.7764	1120.775
2035.8125	1118.475
2038.84664	1113.275
2041.87881	1104.375
2044.90903	1105.775
2047.93729	1100.875
2050.96359	1095.775
2053.98794	1089.675
2057.01034	1091.475
2060.03078	1091.675
2063.04927	1093.775
2066.06582	1087.875
2069.08042	1096.175
2072.09307	1086.075
2075.10378	1095.975
2078.11255	1091.575
2081.11938	1091.975
2084.12426	1085.175
2087.12722	1088.875
2090.12824	1088.475
2093.12732	1079.775
2096.12447	1086.575
2099.11969	1083.475
2102.11299	1080.675
2105.10435	1085.875
2108.09379	1084.375
2111.08131	1084.875
2114.0669	1074.475
2117.05057	1074.475
2120.03233	1076.175
2123.01216	1066.275
2125.99008	1069.875
2128.96609	1072.175
2131.94018	1072.675
2134.91236	1075.975
2137.88263	1070.775
2140.851	1060.775
2143.81746	1063.475
2146.78201	1074.675
2149.74466	1067.475
2152.7054	1070.175
2155.66425	1059.875
2158.6212	1060.075
2161.57625	1064.675
2164.52941	1060.575
2167.48067	1061.275
2170.43004	1060.175
2173.37752	1051.675
2176.32311	1060.775
2179.26681	1058.875
2182.20863	1061.775
2185.14856	1051.075
2188.08661	1048.475
2191.02278	1047.775
2193.95707	1048.875
2196.88948	1047.075
2199.82001	1042.175
2202.74867	1040.875
2205.67545	1036.575
2208.60037	1040.775
2211.52341	1039.075
2214.44458	1030.475
2217.36388	1024.975
2220.28132	1023.875
2223.1969	1018.675
2226.11061	1020.675
2229.02246	1015.175
2231.93245	1011.475
2234.84058	1006.975
2237.74686	1004.475
2240.65128	1007.075
2243.55385	1002.575
2246.45456	999.075
2249.35343	996.275
2252.25044	990.975
2255.14561	1003.275
2258.03893	984.375
2260.93041	968.475
2263.82004	983.875
2266.70783	980.375
2269.59378	975.675
2272.4779	974.975
2275.36017	976.975
2278.24061	969.975
2281.11922	965.075
2283.996	959.675
2286.87094	968.375
2289.74405	960.875
2292.61534	950.475
2295.4848	955.875
2298.35243	957.975
2301.21824	949.775
2304.08223	952.775
2306.94439	946.075
2309.80474	945.975
2312.66327	938.575
2315.51999	941.375
2318.37489	937.475
2321.22797	939.975
2324.07925	935.575
2326.92871	934.575
2329.77637	935.475
2332.62222	926.275
2335.46626	922.675
2338.3085	921.675
2341.14893	922.375
2343.98756	925.675
2346.8244	911.875
2349.65943	912.875
2352.49267	908.575
2355.32411	913.475
2358.15376	916.175
2360.98161	909.575
2363.80768	911.175
2366.63195	909.575
2369.45444	910.975
2372.27514	913.875
2375.09405	917.975
2377.91118	905.975
2380.72652	909.075
2383.54009	894.575
2386.35187	906.375
2389.16188	901.075
2391.97011	889.975
2394.77657	886.375
2397.58125	890.775
2400.38416	886.675
2403.18529	880.575
2405.98466	881.375
2408.78226	876.075
2411.57809	877.975
2414.37216	867.675
2417.16446	874.275
2419.955	865.275
2422.74378	873.175
2425.5308	868.275
2428.31606	862.175
2431.09956	869.075
2433.88131	853.275
2436.6613	858.775
2439.43954	865.275
2442.21603	854.875
2444.99077	858.775
2447.76377	860.275
2450.53501	857.275
2453.30451	847.475
2456.07226	852.775
2458.83827	849.775
2461.60254	852.875
2464.36507	844.675
2467.12586	847.175
2469.88492	844.875
2472.64224	844.675
2475.39782	845.275
2478.15167	828.475
2480.90379	835.675
2483.65417	838.475
2486.40283	834.575
2489.14976	832.775
2491.89497	836.475
2494.63845	827.375
2497.3802	819.875
2500.12024	831.675
2502.85855	832.475
2505.59514	834.175
2508.33002	826.575
2511.06318	824.375
2513.79462	832.075
2516.52435	817.775
2519.25237	819.175
2521.97867	819.875
2524.70327	823.075
2527.42616	810.475
2530.14734	808.875
2532.86681	806.675
2535.58458	806.875
2538.30065	805.675
2541.01501	807.775
2543.72768	809.175
2546.43864	801.575
2549.14791	805.475
2551.85548	806.375
2554.56136	798.975
2557.26554	805.675
2559.96803	796.975
2562.66883	794.575
2565.36794	800.775
2568.06536	794.875
2570.7611	791.875
2573.45514	790.975
2576.14751	785.175
2578.83819	786.275
2581.52719	784.775
2584.21451	785.775
2586.90015	784.775
2589.58411	782.175
2592.2664	781.775
2594.94701	782.575
2597.62594	774.775
2600.30321	776.175
2602.9788	776.775
2605.65273	771.875
2608.32498	773.175
2610.99557	776.175
2613.66449	774.675
2616.33175	764.275
2618.99734	769.475
2621.66128	774.975
2624.32355	768.775
2626.98416	771.975
2629.64311	770.775
2632.30041	768.275
2634.95605	773.675
2637.61004	764.575
2640.26238	767.075
2642.91306	759.475
2645.56209	764.475
2648.20948	763.175
2650.85521	767.875
2653.4993	764.975
2656.14175	768.175
2658.78255	775.875
2661.42171	769.575
2664.05923	778.775
2666.6951	774.575
2669.32934	783.575
2671.96194	772.075
2674.59291	780.175
2677.22224	768.375
2679.84993	777.175
2682.476	776.575
2685.10043	775.575
2687.72324	776.375
2690.34441	774.275
2692.96396	781.175
2695.58188	777.775
2698.19818	788.175
2700.81285	781.375
2703.4259	774.475
2706.03733	736.275
2708.64714	751.375
2711.25533	781.175
2713.86191	783.075
2716.46687	795.175
2719.07021	801.175
2721.67194	813.975
2724.27206	808.575
2726.87057	824.375
2729.46747	836.875
2732.06276	829.475
2734.65644	840.375
2737.24852	848.475
2739.83899	854.975
2742.42786	862.275
2745.01513	861.375
2747.60079	867.075
2750.18486	866.775
2752.76733	873.375
2755.3482	872.975
2757.92747	892.975
2760.50515	893.375
2763.08123	890.175
2765.65573	892.575
2768.22863	904.475
2770.79994	900.475
2773.36967	905.775
2775.9378	904.375
2778.50435	911.575
2781.06932	912.275
2783.6327	922.975
2786.1945	931.975
2788.75471	932.775
2791.31335	931.075
2793.87041	939.875
2796.42589	936.475
2798.97979	951.475
2801.53212	953.575
2804.08288	964.375
2806.63206	973.075
2809.17967	969.475
2811.72571	975.875
2814.27018	977.375
2816.81308	976.575
2819.35442	986.275
2821.89419	997.375
2824.43239	990.875
2826.96904	985.475
2829.50412	999.775
2832.03763	988.775
2834.56959	998.475
2837.1	997.075
2839.62884	1004.975
2842.15613	1019.375
2844.68186	1049.675
2847.20604	1078.275
2849.72867	1104.675
2852.24974	1114.275
2854.76927	1105.775
2857.28724	1101.675
2859.80367	1106.275
2862.31855	1117.775
2864.83189	1111.175
2867.34368	1123.375
2869.85393	1118.375
2872.36264	1121.075
2874.8698	1119.875
2877.37543	1120.475
2879.87952	1108.975
2882.38207	1110.275
2884.88308	1114.275
2887.38256	1103.575
2889.88051	1103.175
2892.37692	1102.575
2894.8718	1103.275
2897.36515	1091.475
2899.85698	1090.675
2902.34727	1094.575
2904.83604	1099.575
2907.32328	1093.375
2909.809	1101.475
2912.29319	1090.075
2914.77587	1083.675
2917.25702	1097.475
2919.73665	1098.575
2922.21476	1099.775
2924.69136	1102.475
2927.16644	1096.675
2929.64	1093.875
2932.11205	1090.575
2934.58258	1071.975
2937.05161	1056.975
2939.51912	1044.575
2941.98513	1038.375
2944.44962	999.775
2946.91261	977.275
2949.37409	959.175
2951.83407	932.875
2954.29254	915.575
2956.74951	893.575
2959.20498	878.275
2961.65895	870.275
2964.11142	854.675
2966.56239	843.175
2969.01186	824.975
2971.45984	819.675
2973.90632	803.875
2976.35131	795.875
2978.7948	783.975
2981.23681	771.875
2983.67732	776.075
2986.11635	764.175
2988.55388	760.075
2990.98993	746.375
2993.4245	741.875
2995.85758	736.075
2998.28917	734.275
3000.71928	730.575
3003.14791	732.875
3005.57506	725.775
3008.00073	725.175
3010.42493	723.375
3012.84764	722.975
3015.26888	729.475
3017.68865	718.475
3020.10694	720.375
3022.52376	720.775
3024.9391	716.375
3027.35298	719.975
3029.76539	719.075
3032.17632	718.375
3034.5858	713.975
3036.9938	718.575
3039.40034	718.175
3041.80542	722.975
3044.20903	719.375
3046.61118	715.575
3049.01187	718.975
3051.4111	723.475
3053.80888	726.975
3056.20519	728.575
3058.60005	722.875
3060.99345	728.175
3063.3854	726.075
3065.7759	731.475
3068.16494	732.775
3070.55254	733.775
3072.93868	736.075
3075.32338	733.875
3077.70662	737.975
3080.08842	737.175
3082.46878	744.775
3084.84769	744.275
3087.22515	747.275
3089.60118	751.575
3091.97576	754.375
3094.3489	755.875
3096.72061	758.775
3099.09087	769.275
3101.4597	760.875
3103.82709	775.275
3106.19305	774.175
3108.55757	779.775
3110.92066	792.175
3113.28232	780.775
3115.64255	780.075
3118.00134	795.775
3120.35871	793.575
3122.71466	801.675
3125.06917	805.475
3127.42226	808.375
3129.77393	818.475
3132.12417	818.375
3134.47299	825.375
3136.82039	832.175
3139.16636	839.175
3141.51092	844.275
3143.85406	846.575
3146.19579	853.975
3148.53609	860.975
3150.87499	867.675
3153.21246	878.175
3155.54853	883.875
3157.88318	893.175
3160.21642	898.075
3162.54826	901.475
3164.87868	905.675
3167.2077	908.475
3169.5353	918.575
3171.86151	921.775
3174.18631	926.075
3176.5097	926.575
3178.83169	939.175
3181.15228	941.175
3183.47147	943.675
3185.78926	951.275
3188.10565	958.175
3190.42065	958.075
3192.73424	956.775
3195.04645	971.375
3197.35725	969.175
3199.66667	968.675
3201.97469	977.475
3204.28132	982.175
3206.58656	991.575
3208.8904	993.575
3211.19287	994.975
3213.49394	999.775
3215.79363	1010.975
3218.09193	1008.175
3220.38884	1009.775
3222.68438	999.875
3224.97853	1004.275
3227.2713	1016.675
3229.56269	1003.675
3231.8527	1017.875
3234.14133	1017.775
3236.42858	1028.175
3238.71446	1028.775
3240.99896	1025.175
3243.28209	1024.475
3245.56384	1027.575
3247.84423	1030.775
3250.12324	1023.175
3252.40088	1032.475
3254.67715	1035.575
3256.95205	1042.775
3259.22558	1051.775
3261.49775	1046.775
3263.76855	1042.175
3266.03799	1044.475
3268.30606	1048.375
3270.57277	1060.975
3272.83812	1048.775
3275.10211	1059.775
3277.36474	1054.475
3279.62601	1049.375
3281.88593	1042.775
3284.14448	1050.575
3286.40168	1053.775
3288.65753	1043.475
3290.91202	1043.575
3293.16516	1040.775
3295.41695	1032.075
3297.66738	1022.875
3299.91647	1018.475
3302.16421	1011.075
3304.4106	1008.575
3306.65564	1004.475
3308.89933	1000.575
3311.14169	987.875
3313.38269	971.875
3315.62236	976.675
3317.86068	964.375
3320.09766	966.075
3322.3333	955.475
3324.5676	950.575
3326.80056	929.675
3329.03219	928.375
3331.26248	1.075
3333.49143	-0.325
3335.71905	-1.025
