Data from AgNPs_FTO_APTES_UA_1uM_CRN_1uM_R6G_10uM_NaF_0.1M_Addition_RamanShift__26__12-42-29-513.txt Node

Date: Thu Jan 27 12:42:29 GMT 2022
User: TCL
Spectrometer: QEP01345
Trigger mode: 4
Integration Time (sec): 7.000000E0
Scans to average: 10
Electric dark correction enabled: true
Nonlinearity correction enabled: false
Boxcar width: 0
XAxis mode: Raman Shifts
Number of Pixels in Spectrum: 1044
>>>>>Begin Spectral Data<<<<<
46.04893	-0.7875
50.45542	1.1125
54.85868	-0.8875
59.25871	-0.9875
63.6555	51.5125
68.04907	50.3125
72.43941	56.4125
76.82654	57.2125
81.21044	59.1125
85.59113	61.4125
89.96862	66.1125
94.34289	66.1125
98.71396	71.9125
103.08183	71.0125
107.4465	74.6125
111.80798	74.5125
116.16626	73.6125
120.52136	81.7125
124.87327	83.4125
129.222	80.7125
133.56755	87.3125
137.90993	93.8125
142.24913	97.5125
146.58517	107.6125
150.91804	121.0125
155.24774	139.9125
159.57429	173.9125
163.89768	215.8125
168.21792	279.1125
172.53501	374.0125
176.84895	508.3125
181.15975	713.3125
185.46741	989.1125
189.77193	1370.3125
194.07331	1831.5125
198.37157	2361.1125
202.6667	2913.4125
206.9587	3460.3125
211.24758	4024.3125
215.53334	4593.1125
219.81599	5202.6125
224.09553	5908.7125
228.37195	6685.4125
232.64527	7542.5125
236.91549	8406.5125
241.18261	9235.2125
245.44663	9932.0125
249.70755	10557.6125
253.96539	11090.0125
258.22014	11574.0125
262.4718	11967.6125
266.72039	12292.0125
270.96589	12507.7125
275.20832	12516.8125
279.44768	12436.3125
283.68397	12318.4125
287.91719	12178.7125
292.14735	12158.2125
296.37445	12300.2125
300.59849	12540.7125
304.81948	12858.3125
309.03742	13102.9125
313.25231	13064.4125
317.46415	12616.2125
321.67296	11880.9125
325.87872	11306.6125
330.08145	11029.8125
334.28114	11014.5125
338.47781	11177.6125
342.67145	11445.1125
346.86207	11844.7125
351.04966	12389.9125
355.23424	13013.2125
359.4158	13543.6125
363.59435	13831.3125
367.76989	13968.8125
371.94243	13953.1125
376.11196	13964.1125
380.27849	13959.1125
384.44203	13883.6125
388.60257	13801.8125
392.76012	13815.4125
396.91468	13945.7125
401.06626	14293.9125
405.21485	14564.6125
409.36047	14471.9125
413.50311	14000.5125
417.64277	13562.5125
421.77947	13333.8125
425.9132	13259.9125
430.04396	13268.2125
434.17176	13386.0125
438.2966	13559.7125
442.41849	13908.8125
446.53742	14387.6125
450.6534	14827.6125
454.76644	15179.9125
458.87653	15293.0125
462.98368	15151.9125
467.08789	14858.5125
471.18916	14517.0125
475.2875	14182.2125
479.38291	13926.2125
483.4754	13773.0125
487.56496	13613.0125
491.6516	13464.2125
495.73531	13347.3125
499.81612	13324.1125
503.89401	13451.4125
507.96899	13531.5125
512.04106	13605.9125
516.11023	13752.7125
520.1765	13853.7125
524.23987	13822.1125
528.30034	13627.8125
532.35792	13430.8125
536.41261	13206.1125
540.46441	12986.8125
544.51333	12916.4125
548.55936	13008.3125
552.60252	13271.1125
556.64279	13548.9125
560.6802	13653.9125
564.71473	13767.4125
568.7464	14155.7125
572.7752	14490.5125
576.80114	14413.3125
580.82422	14227.8125
584.84444	14239.7125
588.86181	14332.2125
592.87633	14497.2125
596.888	14681.4125
600.89682	15067.6125
604.9028	16172.8125
608.90594	18987.8125
612.90624	22787.6125
616.90371	22128.4125
620.89834	16998.3125
624.89015	14556.7125
628.87913	14091.2125
632.86528	14039.9125
636.84862	13981.1125
640.82913	13751.7125
644.80683	13308.2125
648.78172	13045.0125
652.75379	13045.2125
656.72306	13438.2125
660.68952	13966.3125
664.65319	13960.4125
668.61405	13525.6125
672.57211	13274.6125
676.52738	13224.0125
680.47986	13228.2125
684.42955	13211.8125
688.37646	13169.5125
692.32058	13202.8125
696.26192	13326.5125
700.20048	13436.0125
704.13626	13552.1125
708.06928	13467.5125
711.99952	13369.5125
715.927	13335.3125
719.85171	13330.7125
723.77365	13306.9125
727.69284	13199.9125
731.60928	13106.9125
735.52295	13143.5125
739.43388	13193.4125
743.34206	13268.6125
747.24749	13379.3125
751.15017	13500.7125
755.05012	13716.5125
758.94733	14167.6125
762.8418	15064.0125
766.73354	16712.7125
770.62254	18448.4125
774.50882	19342.6125
778.39237	18657.5125
782.27321	16891.0125
786.15132	15138.1125
790.02671	14093.6125
793.89938	13620.2125
797.76935	13474.2125
801.6366	13378.1125
805.50115	13316.7125
809.36299	13227.0125
813.22213	13184.8125
817.07857	13161.6125
820.93231	13179.2125
824.78336	13209.5125
828.63172	13308.9125
832.47738	13349.3125
836.32036	13402.3125
840.16066	13357.3125
843.99827	13381.6125
847.8332	13341.9125
851.66546	13291.3125
855.49504	13236.3125
859.32195	13243.3125
863.1462	13204.0125
866.96777	13155.0125
870.78668	13115.6125
874.60293	13151.2125
878.41652	13177.7125
882.22745	13228.0125
886.03573	13315.2125
889.84136	13309.6125
893.64433	13221.9125
897.44466	13182.0125
901.24235	13181.5125
905.0374	13154.7125
908.8298	13126.7125
912.61957	13153.9125
916.40671	13210.6125
920.19121	13342.6125
923.97308	13501.3125
927.75233	13650.8125
931.52895	13732.6125
935.30295	13684.5125
939.07433	13390.0125
942.84309	13160.2125
946.60924	13031.6125
950.37278	12955.8125
954.13371	12872.1125
957.89203	12814.3125
961.64774	12775.8125
965.40086	12685.2125
969.15137	12643.0125
972.89929	12617.0125
976.64461	12608.9125
980.38733	12632.4125
984.12747	12727.8125
987.86502	12846.7125
991.59999	13050.9125
995.33237	13288.6125
999.06217	13682.3125
1002.78939	14165.0125
1006.51404	14521.1125
1010.23611	14760.8125
1013.95561	14921.9125
1017.67255	15008.3125
1021.38692	14823.6125
1025.09872	14678.8125
1028.80796	14757.5125
1032.51465	15049.8125
1036.21877	15410.8125
1039.92035	15421.9125
1043.61937	15164.0125
1047.31584	14757.8125
1051.00976	14377.4125
1054.70114	14135.5125
1058.38998	14070.2125
1062.07627	14104.9125
1065.76003	14128.6125
1069.44126	14226.5125
1073.11995	14339.2125
1076.79611	14447.6125
1080.46974	14575.2125
1084.14085	14714.3125
1087.80943	14999.8125
1091.47549	15065.5125
1095.13903	14920.6125
1098.80005	14563.1125
1102.45857	14253.9125
1106.11456	14087.4125
1109.76805	14134.2125
1113.41903	14328.7125
1117.06751	14551.7125
1120.71348	14882.6125
1124.35696	15267.2125
1127.99793	15572.6125
1131.63641	15654.9125
1135.2724	15289.6125
1138.90589	14825.4125
1142.5369	14551.9125
1146.16542	14337.0125
1149.79145	14219.2125
1153.415	14251.9125
1157.03607	14364.7125
1160.65467	14594.5125
1164.27079	14983.6125
1167.88443	15593.5125
1171.49561	16576.8125
1175.10432	18054.6125
1178.71056	20031.8125
1182.31434	21790.0125
1185.91565	22710.4125
1189.51451	22658.6125
1193.11091	21689.2125
1196.70485	20251.0125
1200.29634	18962.5125
1203.88538	18050.4125
1207.47197	17203.5125
1211.05612	16565.8125
1214.63782	16247.3125
1218.21708	16219.8125
1221.79391	16343.1125
1225.36829	16554.6125
1228.94024	16730.5125
1232.50976	16745.0125
1236.07685	16709.8125
1239.6415	16587.2125
1243.20374	16499.1125
1246.76355	16472.8125
1250.32093	16616.5125
1253.8759	16969.7125
1257.42845	17477.0125
1260.97859	17965.4125
1264.52631	18350.4125
1268.07163	18779.1125
1271.61453	19268.1125
1275.15503	19731.5125
1278.69312	20160.8125
1282.22882	20507.9125
1285.76211	20918.6125
1289.29301	21392.8125
1292.82151	21905.8125
1296.34761	22414.9125
1299.87133	23197.6125
1303.39266	24447.3125
1306.9116	26413.3125
1310.42815	28742.6125
1313.94233	30510.8125
1317.45412	30620.4125
1320.96354	29542.5125
1324.47058	28047.4125
1327.97525	26709.5125
1331.47754	25877.1125
1334.97747	25533.3125
1338.47502	25554.3125
1341.97022	25773.0125
1345.46305	25909.9125
1348.95352	26209.7125
1352.44163	26786.6125
1355.92738	27988.9125
1359.41078	30340.3125
1362.89183	32931.0125
1366.37053	32801.0125
1369.84688	29248.4125
1373.32088	25273.7125
1376.79254	22595.8125
1380.26186	21348.8125
1383.72883	20810.9125
1387.19347	20411.5125
1390.65578	19956.7125
1394.11575	19606.0125
1397.57339	19557.3125
1401.0287	19830.0125
1404.48168	20278.1125
1407.93234	20718.4125
1411.38068	21121.7125
1414.82669	21114.8125
1418.27039	20687.5125
1421.71177	20105.2125
1425.15083	19611.1125
1428.58758	19336.5125
1432.02203	19374.4125
1435.45416	19460.5125
1438.88399	19612.0125
1442.31151	19619.0125
1445.73673	19684.3125
1449.15965	19778.2125
1452.58027	19722.9125
1455.9986	19578.5125
1459.41463	19479.7125
1462.82837	19587.5125
1466.23982	19889.5125
1469.64898	20196.0125
1473.05586	20412.2125
1476.46045	20543.4125
1479.86276	20764.1125
1483.26279	21010.2125
1486.66054	21336.5125
1490.05602	21746.2125
1493.44922	22264.4125
1496.84016	22893.9125
1500.22882	23699.7125
1503.61521	24949.3125
1506.99934	26497.7125
1510.38121	28236.7125
1513.76081	29288.6125
1517.13816	28728.1125
1520.51324	26643.8125
1523.88607	24347.9125
1527.25665	22618.6125
1530.62498	21551.8125
1533.99105	20886.4125
1537.35488	20475.4125
1540.71647	20269.6125
1544.07581	20141.7125
1547.4329	20033.0125
1550.78776	19888.5125
1554.14038	19791.6125
1557.49077	19842.2125
1560.83892	19954.3125
1564.18484	20120.7125
1567.52853	20226.0125
1570.86999	20321.0125
1574.20922	20421.3125
1577.54624	20456.3125
1580.88103	20065.8125
1584.2136	19585.0125
1587.54395	19592.5125
1590.87208	20292.5125
1594.19801	21566.8125
1597.52172	23150.9125
1600.84321	24045.7125
1604.16251	23553.4125
1607.47959	21997.9125
1610.79447	20167.8125
1614.10715	18463.3125
1617.41763	17208.4125
1620.7259	16460.1125
1624.03199	16134.5125
1627.33587	16184.9125
1630.63757	16585.0125
1633.93707	17429.6125
1637.23439	18650.3125
1640.52951	20196.5125
1643.82246	21758.7125
1647.11321	23149.7125
1650.40179	23787.9125
1653.68819	22910.7125
1656.97241	20504.6125
1660.25446	17847.2125
1663.53433	15928.9125
1666.81203	14699.5125
1670.08756	14037.0125
1673.36092	13629.1125
1676.63211	13396.4125
1679.90115	13184.9125
1683.16801	13033.5125
1686.43272	12904.7125
1689.69527	12841.2125
1692.95567	12772.8125
1696.2139	12724.9125
1699.46999	12660.7125
1702.72392	12632.5125
1705.97571	12646.6125
1709.22535	12671.5125
1712.47284	12692.4125
1715.71819	12727.6125
1718.96139	12756.7125
1722.20246	12732.7125
1725.44139	12705.4125
1728.67818	12650.6125
1731.91284	12572.4125
1735.14537	12502.6125
1738.37576	12453.5125
1741.60403	12413.2125
1744.83017	12368.7125
1748.05418	12344.1125
1751.27607	12342.7125
1754.49584	12289.0125
1757.71349	12265.0125
1760.92903	12260.9125
1764.14244	12244.1125
1767.35375	12257.9125
1770.56294	12236.3125
1773.77002	12237.6125
1776.97499	12230.9125
1780.17785	12221.5125
1783.37861	12266.7125
1786.57727	12242.1125
1789.77382	12238.2125
1792.96828	12228.8125
1796.16064	12204.5125
1799.3509	12190.1125
1802.53907	12178.6125
1805.72514	12170.3125
1808.90913	12135.4125
1812.09102	12134.4125
1815.27083	12096.0125
1818.44856	12110.8125
1821.6242	12068.9125
1824.79776	12067.2125
1827.96924	12049.3125
1831.13864	12040.1125
1834.30597	12063.2125
1837.47122	12050.4125
1840.6344	12066.5125
1843.7955	12070.2125
1846.95454	12047.0125
1850.11151	12059.2125
1853.26642	12083.9125
1856.41926	12074.9125
1859.57004	12115.8125
1862.71876	12091.4125
1865.86542	12107.8125
1869.01003	12124.5125
1872.15258	12120.2125
1875.29308	12120.7125
1878.43152	12145.3125
1881.56792	12161.7125
1884.70227	12146.0125
1887.83457	12152.0125
1890.96482	12148.3125
1894.09304	12148.5125
1897.21921	12164.4125
1900.34335	12171.3125
1903.46544	12179.9125
1906.58551	12153.7125
1909.70353	12190.5125
1912.81953	12173.1125
1915.93349	12196.7125
1919.04543	12146.2125
1922.15534	12152.2125
1925.26322	12123.6125
1928.36908	12084.1125
1931.47292	12054.0125
1934.57473	11981.5125
1937.67453	11969.2125
1940.77232	11896.7125
1943.86808	11851.5125
1946.96184	11813.1125
1950.05358	11750.1125
1953.14331	11718.7125
1956.23103	11661.1125
1959.31675	11634.0125
1962.40046	11586.8125
1965.48217	11551.9125
1968.56188	11536.1125
1971.63959	11476.4125
1974.7153	11474.3125
1977.78901	11424.8125
1980.86073	11392.2125
1983.93046	11353.7125
1986.99819	11313.2125
1990.06394	11280.2125
1993.1277	11248.1125
1996.18947	11221.5125
1999.24925	11228.1125
2002.30706	11176.2125
2005.36288	11148.9125
2008.41672	11103.4125
2011.46859	11046.8125
2014.51848	11034.5125
2017.56639	11030.6125
2020.61233	10988.5125
2023.6563	10964.5125
2026.6983	10956.5125
2029.73833	10911.8125
2032.7764	10910.3125
2035.8125	10925.8125
2038.84664	10874.8125
2041.87881	10871.7125
2044.90903	10848.4125
2047.93729	10822.5125
2050.96359	10807.4125
2053.98794	10799.4125
2057.01034	10780.3125
2060.03078	10783.5125
2063.04927	10767.9125
2066.06582	10758.0125
2069.08042	10753.8125
2072.09307	10738.7125
2075.10378	10757.9125
2078.11255	10737.0125
2081.11938	10739.7125
2084.12426	10734.2125
2087.12722	10737.7125
2090.12824	10718.6125
2093.12732	10710.8125
2096.12447	10693.4125
2099.11969	10715.4125
2102.11299	10726.4125
2105.10435	10725.7125
2108.09379	10703.3125
2111.08131	10719.4125
2114.0669	10713.9125
2117.05057	10742.0125
2120.03233	10744.6125
2123.01216	10767.6125
2125.99008	10762.6125
2128.96609	10760.6125
2131.94018	10769.0125
2134.91236	10802.8125
2137.88263	10790.3125
2140.851	10792.9125
2143.81746	10812.5125
2146.78201	10798.7125
2149.74466	10812.9125
2152.7054	10810.5125
2155.66425	10800.4125
2158.6212	10793.9125
2161.57625	10798.8125
2164.52941	10817.2125
2167.48067	10785.3125
2170.43004	10793.7125
2173.37752	10793.0125
2176.32311	10799.8125
2179.26681	10799.1125
2182.20863	10810.1125
2185.14856	10803.1125
2188.08661	10805.3125
2191.02278	10825.0125
2193.95707	10789.0125
2196.88948	10807.9125
2199.82001	10804.3125
2202.74867	10803.9125
2205.67545	10787.7125
2208.60037	10773.0125
2211.52341	10765.9125
2214.44458	10774.7125
2217.36388	10732.1125
2220.28132	10738.9125
2223.1969	10696.6125
2226.11061	10682.4125
2229.02246	10663.0125
2231.93245	10655.2125
2234.84058	10636.4125
2237.74686	10643.9125
2240.65128	10618.8125
2243.55385	10582.7125
2246.45456	10593.9125
2249.35343	10541.1125
2252.25044	10549.5125
2255.14561	10551.6125
2258.03893	10548.1125
2260.93041	10533.7125
2263.82004	10505.3125
2266.70783	10487.4125
2269.59378	10462.1125
2272.4779	10445.2125
2275.36017	10396.4125
2278.24061	10368.1125
2281.11922	10367.3125
2283.996	10367.0125
2286.87094	10323.6125
2289.74405	10346.0125
2292.61534	10308.8125
2295.4848	10279.2125
2298.35243	10311.5125
2301.21824	10310.2125
2304.08223	10304.1125
2306.94439	10327.5125
2309.80474	10316.5125
2312.66327	10332.9125
2315.51999	10308.5125
2318.37489	10328.3125
2321.22797	10287.4125
2324.07925	10322.9125
2326.92871	10292.4125
2329.77637	10305.1125
2332.62222	10285.6125
2335.46626	10274.6125
2338.3085	10265.3125
2341.14893	10264.1125
2343.98756	10284.1125
2346.8244	10272.7125
2349.65943	10275.2125
2352.49267	10267.4125
2355.32411	10282.1125
2358.15376	10272.1125
2360.98161	10252.7125
2363.80768	10224.1125
2366.63195	10223.6125
2369.45444	10236.3125
2372.27514	10220.4125
2375.09405	10205.7125
2377.91118	10163.6125
2380.72652	10137.4125
2383.54009	10121.8125
2386.35187	10086.6125
2389.16188	10060.4125
2391.97011	10053.4125
2394.77657	10015.3125
2397.58125	10019.3125
2400.38416	10022.6125
2403.18529	9982.7125
2405.98466	9942.5125
2408.78226	9911.4125
2411.57809	9921.6125
2414.37216	9912.7125
2417.16446	9881.4125
2419.955	9894.2125
2422.74378	9875.5125
2425.5308	9873.2125
2428.31606	9868.7125
2431.09956	9838.8125
2433.88131	9818.8125
2436.6613	9836.1125
2439.43954	9835.1125
2442.21603	9832.2125
2444.99077	9822.2125
2447.76377	9827.4125
2450.53501	9820.6125
2453.30451	9836.1125
2456.07226	9798.6125
2458.83827	9780.7125
2461.60254	9804.6125
2464.36507	9805.8125
2467.12586	9782.1125
2469.88492	9768.6125
2472.64224	9786.9125
2475.39782	9783.5125
2478.15167	9803.0125
2480.90379	9806.7125
2483.65417	9835.5125
2486.40283	9800.3125
2489.14976	9811.1125
2491.89497	9826.6125
2494.63845	9825.9125
2497.3802	9845.1125
2500.12024	9817.1125
2502.85855	9820.1125
2505.59514	9824.8125
2508.33002	9777.8125
2511.06318	9782.8125
2513.79462	9760.8125
2516.52435	9726.0125
2519.25237	9739.8125
2521.97867	9716.6125
2524.70327	9704.6125
2527.42616	9686.7125
2530.14734	9663.9125
2532.86681	9692.8125
2535.58458	9687.2125
2538.30065	9665.6125
2541.01501	9662.5125
2543.72768	9696.0125
2546.43864	9662.7125
2549.14791	9656.4125
2551.85548	9647.3125
2554.56136	9596.6125
2557.26554	9595.1125
2559.96803	9579.8125
2562.66883	9586.0125
2565.36794	9584.0125
2568.06536	9582.7125
2570.7611	9556.6125
2573.45514	9537.3125
2576.14751	9532.7125
2578.83819	9519.2125
2581.52719	9510.8125
2584.21451	9530.4125
2586.90015	9522.9125
2589.58411	9519.1125
2592.2664	9531.0125
2594.94701	9488.4125
2597.62594	9502.4125
2600.30321	9496.9125
2602.9788	9473.9125
2605.65273	9477.3125
2608.32498	9468.5125
2610.99557	9458.8125
2613.66449	9462.8125
2616.33175	9459.0125
2618.99734	9468.6125
2621.66128	9448.8125
2624.32355	9440.7125
2626.98416	9448.6125
2629.64311	9462.0125
2632.30041	9471.2125
2634.95605	9427.0125
2637.61004	9418.6125
2640.26238	9420.4125
2642.91306	9371.8125
2645.56209	9389.7125
2648.20948	9385.8125
2650.85521	9369.1125
2653.4993	9349.6125
2656.14175	9349.9125
2658.78255	9356.7125
2661.42171	9350.0125
2664.05923	9393.9125
2666.6951	9376.6125
2669.32934	9398.5125
2671.96194	9396.3125
2674.59291	9418.0125
2677.22224	9406.3125
2679.84993	9416.8125
2682.476	9402.0125
2685.10043	9379.8125
2687.72324	9366.0125
2690.34441	9382.5125
2692.96396	9383.7125
2695.58188	9398.6125
2698.19818	9379.1125
2700.81285	9376.0125
2703.4259	9369.2125
2706.03733	9371.9125
2708.64714	9346.6125
2711.25533	9377.8125
2713.86191	9388.3125
2716.46687	9412.7125
2719.07021	9375.9125
2721.67194	9415.2125
2724.27206	9394.4125
2726.87057	9403.9125
2729.46747	9401.9125
2732.06276	9403.3125
2734.65644	9373.6125
2737.24852	9387.4125
2739.83899	9364.9125
2742.42786	9377.7125
2745.01513	9370.5125
2747.60079	9350.0125
2750.18486	9326.7125
2752.76733	9335.4125
2755.3482	9328.6125
2757.92747	9313.4125
2760.50515	9310.9125
2763.08123	9319.2125
2765.65573	9325.1125
2768.22863	9314.1125
2770.79994	9304.4125
2773.36967	9293.2125
2775.9378	9332.4125
2778.50435	9321.0125
2781.06932	9285.3125
2783.6327	9278.6125
2786.1945	9272.5125
2788.75471	9284.0125
2791.31335	9264.0125
2793.87041	9260.7125
2796.42589	9245.4125
2798.97979	9219.1125
2801.53212	9202.7125
2804.08288	9196.7125
2806.63206	9160.0125
2809.17967	9138.4125
2811.72571	9141.5125
2814.27018	9130.0125
2816.81308	9108.2125
2819.35442	9120.3125
2821.89419	9088.3125
2824.43239	9103.2125
2826.96904	9105.4125
2829.50412	9115.9125
2832.03763	9103.7125
2834.56959	9101.5125
2837.1	9108.9125
2839.62884	9123.1125
2842.15613	9122.8125
2844.68186	9142.9125
2847.20604	9174.8125
2849.72867	9189.8125
2852.24974	9183.5125
2854.76927	9173.6125
2857.28724	9163.6125
2859.80367	9153.5125
2862.31855	9135.5125
2864.83189	9097.6125
2867.34368	9103.1125
2869.85393	9121.1125
2872.36264	9070.7125
2874.8698	9083.7125
2877.37543	9095.4125
2879.87952	9066.3125
2882.38207	9067.1125
2884.88308	9080.2125
2887.38256	9107.4125
2889.88051	9071.1125
2892.37692	9073.0125
2894.8718	9062.0125
2897.36515	9072.9125
2899.85698	9076.6125
2902.34727	9101.1125
2904.83604	9113.0125
2907.32328	9116.8125
2909.809	9119.1125
2912.29319	9100.3125
2914.77587	9111.3125
2917.25702	9084.1125
2919.73665	9070.8125
2922.21476	9101.3125
2924.69136	9071.2125
2927.16644	9092.2125
2929.64	9045.4125
2932.11205	9053.0125
2934.58258	9029.2125
2937.05161	9031.0125
2939.51912	9023.0125
2941.98513	9003.6125
2944.44962	8968.0125
2946.91261	8942.3125
2949.37409	8959.4125
2951.83407	8919.5125
2954.29254	8892.1125
2956.74951	8883.1125
2959.20498	8890.5125
2961.65895	8876.1125
2964.11142	8880.4125
2966.56239	8853.6125
2969.01186	8826.1125
2971.45984	8821.5125
2973.90632	8786.0125
2976.35131	8770.6125
2978.7948	8776.2125
2981.23681	8729.3125
2983.67732	8729.3125
2986.11635	8705.1125
2988.55388	8675.0125
2990.98993	8641.4125
2993.4245	8632.6125
2995.85758	8613.5125
2998.28917	8591.0125
3000.71928	8580.1125
3003.14791	8564.8125
3005.57506	8557.0125
3008.00073	8544.0125
3010.42493	8530.9125
3012.84764	8507.3125
3015.26888	8524.8125
3017.68865	8486.5125
3020.10694	8469.9125
3022.52376	8466.7125
3024.9391	8459.3125
3027.35298	8428.7125
3029.76539	8443.7125
3032.17632	8424.2125
3034.5858	8393.0125
3036.9938	8406.4125
3039.40034	8389.4125
3041.80542	8383.9125
3044.20903	8364.8125
3046.61118	8370.2125
3049.01187	8332.0125
3051.4111	8326.8125
3053.80888	8322.8125
3056.20519	8301.2125
3058.60005	8265.6125
3060.99345	8284.2125
3063.3854	8250.7125
3065.7759	8196.8125
3068.16494	8198.9125
3070.55254	8181.0125
3072.93868	8138.3125
3075.32338	8127.2125
3077.70662	8134.0125
3080.08842	8101.1125
3082.46878	8091.5125
3084.84769	8093.3125
3087.22515	8067.7125
3089.60118	8078.3125
3091.97576	8091.1125
3094.3489	8078.4125
3096.72061	8078.8125
3099.09087	8077.6125
3101.4597	8064.3125
3103.82709	8081.4125
3106.19305	8053.3125
3108.55757	8045.8125
3110.92066	8037.1125
3113.28232	8015.6125
3115.64255	7983.1125
3118.00134	7994.2125
3120.35871	7972.9125
3122.71466	7961.2125
3125.06917	7949.3125
3127.42226	7934.9125
3129.77393	7954.0125
3132.12417	7925.3125
3134.47299	7924.6125
3136.82039	7928.5125
3139.16636	7942.4125
3141.51092	7936.4125
3143.85406	7930.9125
3146.19579	7928.2125
3148.53609	7937.6125
3150.87499	7941.3125
3153.21246	7944.3125
3155.54853	7951.3125
3157.88318	7944.9125
3160.21642	7952.1125
3162.54826	7961.5125
3164.87868	7956.8125
3167.2077	7940.0125
3169.5353	7949.5125
3171.86151	7951.1125
3174.18631	7959.6125
3176.5097	7944.6125
3178.83169	7923.5125
3181.15228	7911.0125
3183.47147	7915.6125
3185.78926	7908.0125
3188.10565	7904.3125
3190.42065	7899.7125
3192.73424	7882.1125
3195.04645	7876.8125
3197.35725	7903.5125
3199.66667	7893.1125
3201.97469	7885.5125
3204.28132	7895.2125
3206.58656	7895.3125
3208.8904	7895.3125
3211.19287	7918.1125
3213.49394	7927.9125
3215.79363	7945.5125
3218.09193	7947.8125
3220.38884	7910.5125
3222.68438	7908.4125
3224.97853	7933.7125
3227.2713	7897.1125
3229.56269	7894.4125
3231.8527	7908.1125
3234.14133	7904.6125
3236.42858	7871.1125
3238.71446	7864.0125
3240.99896	7855.8125
3243.28209	7838.8125
3245.56384	7833.7125
3247.84423	7832.5125
3250.12324	7833.1125
3252.40088	7830.8125
3254.67715	7830.5125
3256.95205	7820.4125
3259.22558	7813.1125
3261.49775	7797.4125
3263.76855	7808.3125
3266.03799	7768.9125
3268.30606	7762.7125
3270.57277	7788.0125
3272.83812	7749.0125
3275.10211	7744.0125
3277.36474	7691.7125
3279.62601	7697.3125
3281.88593	7690.7125
3284.14448	7702.5125
3286.40168	7727.3125
3288.65753	7713.7125
3290.91202	7697.9125
3293.16516	7675.9125
3295.41695	7651.3125
3297.66738	7615.2125
3299.91647	7590.5125
3302.16421	7544.7125
3304.4106	7505.1125
3306.65564	7458.9125
3308.89933	7446.0125
3311.14169	7391.1125
3313.38269	7328.1125
3315.62236	7287.4125
3317.86068	7212.0125
3320.09766	7165.1125
3322.3333	7138.6125
3324.5676	7108.6125
3326.80056	6987.2125
3329.03219	6949.5125
3331.26248	2.3125
3333.49143	0.3125
3335.71905	-1.4875
