Data from AgNPs_FTO_APTES_UA_1uM_CRN_500uM_R6G_10uM_NaF_0.1M_Addition_RamanShift__0__17-44-39-858.txt Node

Date: Thu Jan 27 17:44:39 GMT 2022
User: TCL
Spectrometer: QEP01345
Trigger mode: 4
Integration Time (sec): 7.000000E0
Scans to average: 10
Electric dark correction enabled: true
Nonlinearity correction enabled: false
Boxcar width: 0
XAxis mode: Raman Shifts
Number of Pixels in Spectrum: 1044
>>>>>Begin Spectral Data<<<<<
46.04893	0.7875
50.45542	0.9875
54.85868	-1.5125
59.25871	-0.6125
63.6555	31.5875
68.04907	34.4875
72.43941	35.2875
76.82654	41.4875
81.21044	43.1875
85.59113	42.4875
89.96862	43.0875
94.34289	46.0875
98.71396	50.8875
103.08183	44.6875
107.4465	50.6875
111.80798	51.1875
116.16626	52.8875
120.52136	57.3875
124.87327	54.3875
129.222	52.5875
133.56755	56.1875
137.90993	56.0875
142.24913	63.2875
146.58517	68.6875
150.91804	77.6875
155.24774	88.7875
159.57429	105.2875
163.89768	127.7875
168.21792	172.2875
172.53501	227.1875
176.84895	306.9875
181.15975	427.3875
185.46741	597.0875
189.77193	816.2875
194.07331	1095.4875
198.37157	1422.2875
202.6667	1755.7875
206.9587	2090.0875
211.24758	2418.6875
215.53334	2751.3875
219.81599	3094.9875
224.09553	3491.6875
228.37195	3927.6875
232.64527	4385.8875
236.91549	4880.9875
241.18261	5385.5875
245.44663	5835.9875
249.70755	6216.3875
253.96539	6572.3875
258.22014	6849.8875
262.4718	7092.1875
266.72039	7241.7875
270.96589	7314.1875
275.20832	7308.8875
279.44768	7220.2875
283.68397	7083.6875
287.91719	6956.0875
292.14735	6880.5875
296.37445	6825.9875
300.59849	6867.0875
304.81948	6927.4875
309.03742	6971.1875
313.25231	6934.9875
317.46415	6788.2875
321.67296	6622.2875
325.87872	6497.8875
330.08145	6435.9875
334.28114	6439.3875
338.47781	6504.2875
342.67145	6583.0875
346.86207	6718.5875
351.04966	6858.2875
355.23424	6985.5875
359.4158	7107.9875
363.59435	7203.4875
367.76989	7240.5875
371.94243	7296.2875
376.11196	7322.2875
380.27849	7358.7875
384.44203	7400.8875
388.60257	7425.7875
392.76012	7465.6875
396.91468	7565.3875
401.06626	7697.0875
405.21485	7823.3875
409.36047	7807.0875
413.50311	7719.1875
417.64277	7585.3875
421.77947	7535.8875
425.9132	7522.7875
430.04396	7563.4875
434.17176	7568.6875
438.2966	7601.3875
442.41849	7663.0875
446.53742	7813.2875
450.6534	7982.6875
454.76644	8071.3875
458.87653	8078.3875
462.98368	7987.3875
467.08789	7875.3875
471.18916	7789.7875
475.2875	7682.9875
479.38291	7625.1875
483.4754	7555.7875
487.56496	7519.0875
491.6516	7486.6875
495.73531	7476.7875
499.81612	7461.0875
503.89401	7459.6875
507.96899	7481.1875
512.04106	7478.2875
516.11023	7500.2875
520.1765	7501.4875
524.23987	7484.5875
528.30034	7490.9875
532.35792	7426.2875
536.41261	7377.0875
540.46441	7254.9875
544.51333	7220.4875
548.55936	7252.9875
552.60252	7340.2875
556.64279	7471.1875
560.6802	7569.8875
564.71473	7580.7875
568.7464	7611.8875
572.7752	7672.6875
576.80114	7737.6875
580.82422	7823.9875
584.84444	8042.1875
588.86181	8361.4875
592.87633	8662.9875
596.888	8699.4875
600.89682	8433.4875
604.9028	8445.3875
608.90594	9171.5875
612.90624	10224.8875
616.90371	9936.2875
620.89834	8303.2875
624.89015	7502.6875
628.87913	7354.2875
632.86528	7405.8875
636.84862	7447.2875
640.82913	7383.3875
644.80683	7232.5875
648.78172	7133.3875
652.75379	7117.5875
656.72306	7205.5875
660.68952	7312.7875
664.65319	7311.8875
668.61405	7167.6875
672.57211	7120.2875
676.52738	7163.2875
680.47986	7181.3875
684.42955	7165.1875
688.37646	7135.4875
692.32058	7122.8875
696.26192	7192.1875
700.20048	7275.6875
704.13626	7340.5875
708.06928	7360.7875
711.99952	7320.8875
715.927	7319.2875
719.85171	7316.1875
723.77365	7307.1875
727.69284	7225.5875
731.60928	7187.8875
735.52295	7162.2875
739.43388	7180.6875
743.34206	7177.8875
747.24749	7201.6875
751.15017	7220.5875
755.05012	7278.9875
758.94733	7443.4875
762.8418	7703.0875
766.73354	8227.8875
770.62254	8851.5875
774.50882	9208.7875
778.39237	9038.1875
782.27321	8400.0875
786.15132	7790.9875
790.02671	7408.4875
793.89938	7224.6875
797.76935	7178.5875
801.6366	7117.8875
805.50115	7093.7875
809.36299	7072.8875
813.22213	7037.7875
817.07857	7023.5875
820.93231	6998.3875
824.78336	6990.7875
828.63172	6982.5875
832.47738	6992.5875
836.32036	7014.0875
840.16066	7019.1875
843.99827	7018.0875
847.8332	6978.9875
851.66546	6989.6875
855.49504	6959.7875
859.32195	6957.4875
863.1462	6961.7875
866.96777	6957.9875
870.78668	6956.9875
874.60293	6944.1875
878.41652	6960.0875
882.22745	6980.5875
886.03573	7010.5875
889.84136	7036.9875
893.64433	7013.5875
897.44466	6961.5875
901.24235	6961.0875
905.0374	6932.6875
908.8298	6892.9875
912.61957	6878.2875
916.40671	6918.0875
920.19121	6930.6875
923.97308	7020.8875
927.75233	7068.4875
931.52895	7121.7875
935.30295	7037.4875
939.07433	6921.4875
942.84309	6833.2875
946.60924	6747.1875
950.37278	6724.9875
954.13371	6683.1875
957.89203	6648.2875
961.64774	6646.7875
965.40086	6645.5875
969.15137	6629.1875
972.89929	6623.6875
976.64461	6601.3875
980.38733	6589.5875
984.12747	6598.2875
987.86502	6630.1875
991.59999	6650.9875
995.33237	6698.6875
999.06217	6790.1875
1002.78939	6870.1875
1006.51404	6929.3875
1010.23611	7017.1875
1013.95561	7088.5875
1017.67255	7096.1875
1021.38692	7049.7875
1025.09872	6968.2875
1028.80796	6926.4875
1032.51465	6929.0875
1036.21877	6983.8875
1039.92035	7002.5875
1043.61937	7024.3875
1047.31584	7011.7875
1051.00976	7035.0875
1054.70114	6999.0875
1058.38998	6992.4875
1062.07627	7038.3875
1065.76003	7079.8875
1069.44126	7135.6875
1073.11995	7248.4875
1076.79611	7336.0875
1080.46974	7362.4875
1084.14085	7339.6875
1087.80943	7364.7875
1091.47549	7395.1875
1095.13903	7422.9875
1098.80005	7348.4875
1102.45857	7198.1875
1106.11456	7093.8875
1109.76805	7060.0875
1113.41903	7074.0875
1117.06751	7129.7875
1120.71348	7236.9875
1124.35696	7356.6875
1127.99793	7517.1875
1131.63641	7602.6875
1135.2724	7479.5875
1138.90589	7307.0875
1142.5369	7234.2875
1146.16542	7204.4875
1149.79145	7174.0875
1153.415	7176.5875
1157.03607	7183.5875
1160.65467	7276.7875
1164.27079	7480.1875
1167.88443	7766.5875
1171.49561	8126.7875
1175.10432	8650.1875
1178.71056	9329.0875
1182.31434	9938.7875
1185.91565	10176.7875
1189.51451	10045.2875
1193.11091	9633.5875
1196.70485	9194.2875
1200.29634	8800.3875
1203.88538	8486.7875
1207.47197	8213.3875
1211.05612	7995.8875
1214.63782	7861.1875
1218.21708	7794.4875
1221.79391	7777.7875
1225.36829	7807.1875
1228.94024	7808.8875
1232.50976	7784.8875
1236.07685	7722.3875
1239.6415	7650.6875
1243.20374	7648.6875
1246.76355	7670.7875
1250.32093	7713.5875
1253.8759	7810.0875
1257.42845	7966.1875
1260.97859	8141.0875
1264.52631	8326.2875
1268.07163	8445.1875
1271.61453	8609.8875
1275.15503	8771.0875
1278.69312	8904.8875
1282.22882	9056.5875
1285.76211	9281.0875
1289.29301	9536.4875
1292.82151	9884.4875
1296.34761	10221.4875
1299.87133	10615.3875
1303.39266	11122.8875
1306.9116	11733.6875
1310.42815	12374.4875
1313.94233	12818.7875
1317.45412	12719.5875
1320.96354	12269.0875
1324.47058	11728.9875
1327.97525	11224.8875
1331.47754	10753.5875
1334.97747	10455.5875
1338.47502	10282.2875
1341.97022	10099.1875
1345.46305	10086.1875
1348.95352	10323.5875
1352.44163	10833.6875
1355.92738	11648.1875
1359.41078	12666.9875
1362.89183	13584.9875
1366.37053	13677.6875
1369.84688	12548.0875
1373.32088	10965.9875
1376.79254	9822.8875
1380.26186	9299.8875
1383.72883	9113.6875
1387.19347	8941.8875
1390.65578	8705.0875
1394.11575	8503.2875
1397.57339	8434.2875
1401.0287	8436.3875
1404.48168	8502.4875
1407.93234	8503.4875
1411.38068	8447.7875
1414.82669	8353.3875
1418.27039	8231.8875
1421.71177	8114.9875
1425.15083	7952.4875
1428.58758	7880.5875
1432.02203	7892.5875
1435.45416	7993.2875
1438.88399	8080.4875
1442.31151	8138.3875
1445.73673	8126.8875
1449.15965	8181.2875
1452.58027	8135.8875
1455.9986	8058.9875
1459.41463	8010.0875
1462.82837	8091.0875
1466.23982	8225.0875
1469.64898	8400.3875
1473.05586	8555.9875
1476.46045	8623.8875
1479.86276	8696.6875
1483.26279	8789.8875
1486.66054	8889.9875
1490.05602	9054.4875
1493.44922	9283.5875
1496.84016	9578.7875
1500.22882	10003.7875
1503.61521	10574.1875
1506.99934	11255.8875
1510.38121	11794.2875
1513.76081	11939.6875
1517.13816	11431.2875
1520.51324	10578.1875
1523.88607	9828.2875
1527.25665	9335.7875
1530.62498	9065.6875
1533.99105	8917.8875
1537.35488	8768.8875
1540.71647	8603.3875
1544.07581	8490.2875
1547.4329	8350.5875
1550.78776	8233.2875
1554.14038	8141.5875
1557.49077	8082.4875
1560.83892	8117.3875
1564.18484	8168.3875
1567.52853	8284.4875
1570.86999	8465.4875
1574.20922	8622.3875
1577.54624	8673.7875
1580.88103	8577.0875
1584.2136	8386.6875
1587.54395	8314.8875
1590.87208	8476.6875
1594.19801	8792.4875
1597.52172	9252.3875
1600.84321	9522.5875
1604.16251	9348.0875
1607.47959	8843.6875
1610.79447	8230.8875
1614.10715	7657.3875
1617.41763	7231.2875
1620.7259	6974.9875
1624.03199	6849.8875
1627.33587	6878.1875
1630.63757	6983.4875
1633.93707	7237.6875
1637.23439	7687.1875
1640.52951	8398.7875
1643.82246	9405.0875
1647.11321	10428.6875
1650.40179	10971.9875
1653.68819	10644.9875
1656.97241	9534.5875
1660.25446	8360.8875
1663.53433	7458.6875
1666.81203	6982.0875
1670.08756	6618.9875
1673.36092	6403.8875
1676.63211	6259.7875
1679.90115	6160.4875
1683.16801	6090.6875
1686.43272	6027.5875
1689.69527	6023.6875
1692.95567	6089.5875
1696.2139	6173.1875
1699.46999	6273.5875
1702.72392	6272.4875
1705.97571	6125.7875
1709.22535	6012.4875
1712.47284	5940.4875
1715.71819	5862.5875
1718.96139	5829.6875
1722.20246	5799.2875
1725.44139	5782.3875
1728.67818	5749.5875
1731.91284	5733.4875
1735.14537	5700.8875
1738.37576	5697.4875
1741.60403	5693.6875
1744.83017	5693.8875
1748.05418	5703.8875
1751.27607	5730.3875
1754.49584	5803.0875
1757.71349	5879.1875
1760.92903	5901.6875
1764.14244	5887.3875
1767.35375	5859.9875
1770.56294	5864.6875
1773.77002	5789.2875
1776.97499	5710.0875
1780.17785	5643.3875
1783.37861	5583.1875
1786.57727	5538.6875
1789.77382	5513.0875
1792.96828	5492.0875
1796.16064	5478.8875
1799.3509	5447.9875
1802.53907	5446.4875
1805.72514	5427.8875
1808.90913	5417.6875
1812.09102	5386.6875
1815.27083	5398.9875
1818.44856	5377.7875
1821.6242	5361.6875
1824.79776	5346.3875
1827.96924	5336.2875
1831.13864	5336.6875
1834.30597	5340.4875
1837.47122	5335.3875
1840.6344	5336.4875
1843.7955	5314.7875
1846.95454	5293.7875
1850.11151	5316.1875
1853.26642	5299.3875
1856.41926	5303.0875
1859.57004	5307.5875
1862.71876	5289.8875
1865.86542	5292.6875
1869.01003	5280.3875
1872.15258	5272.2875
1875.29308	5274.0875
1878.43152	5262.9875
1881.56792	5250.7875
1884.70227	5258.6875
1887.83457	5254.2875
1890.96482	5219.3875
1894.09304	5223.4875
1897.21921	5229.7875
1900.34335	5214.7875
1903.46544	5218.3875
1906.58551	5199.1875
1909.70353	5191.5875
1912.81953	5189.0875
1915.93349	5178.8875
1919.04543	5151.9875
1922.15534	5142.7875
1925.26322	5150.9875
1928.36908	5120.9875
1931.47292	5118.7875
1934.57473	5105.1875
1937.67453	5090.4875
1940.77232	5076.3875
1943.86808	5076.8875
1946.96184	5051.7875
1950.05358	5033.5875
1953.14331	5004.9875
1956.23103	5004.0875
1959.31675	4991.0875
1962.40046	5005.1875
1965.48217	4965.7875
1968.56188	4945.8875
1971.63959	4938.1875
1974.7153	4907.9875
1977.78901	4903.1875
1980.86073	4906.6875
1983.93046	4878.1875
1986.99819	4861.8875
1990.06394	4840.0875
1993.1277	4827.3875
1996.18947	4807.6875
1999.24925	4810.3875
2002.30706	4784.0875
2005.36288	4780.6875
2008.41672	4759.8875
2011.46859	4747.0875
2014.51848	4736.1875
2017.56639	4733.2875
2020.61233	4711.7875
2023.6563	4693.9875
2026.6983	4681.2875
2029.73833	4675.8875
2032.7764	4673.4875
2035.8125	4653.1875
2038.84664	4629.1875
2041.87881	4632.0875
2044.90903	4616.6875
2047.93729	4610.9875
2050.96359	4622.5875
2053.98794	4604.8875
2057.01034	4597.7875
2060.03078	4592.2875
2063.04927	4588.2875
2066.06582	4584.8875
2069.08042	4595.9875
2072.09307	4580.1875
2075.10378	4576.5875
2078.11255	4568.4875
2081.11938	4581.7875
2084.12426	4565.7875
2087.12722	4556.7875
2090.12824	4546.3875
2093.12732	4560.6875
2096.12447	4555.2875
2099.11969	4560.0875
2102.11299	4557.2875
2105.10435	4557.0875
2108.09379	4553.1875
2111.08131	4563.0875
2114.0669	4580.7875
2117.05057	4567.6875
2120.03233	4556.2875
2123.01216	4557.4875
2125.99008	4601.0875
2128.96609	4583.0875
2131.94018	4587.0875
2134.91236	4593.2875
2137.88263	4593.7875
2140.851	4579.1875
2143.81746	4601.5875
2146.78201	4585.8875
2149.74466	4575.6875
2152.7054	4583.5875
2155.66425	4574.9875
2158.6212	4567.2875
2161.57625	4572.9875
2164.52941	4571.5875
2167.48067	4574.0875
2170.43004	4559.0875
2173.37752	4569.0875
2176.32311	4563.5875
2179.26681	4551.3875
2182.20863	4539.9875
2185.14856	4562.9875
2188.08661	4545.2875
2191.02278	4550.4875
2193.95707	4546.5875
2196.88948	4549.8875
2199.82001	4546.5875
2202.74867	4523.4875
2205.67545	4537.9875
2208.60037	4533.8875
2211.52341	4511.5875
2214.44458	4502.8875
2217.36388	4505.0875
2220.28132	4494.7875
2223.1969	4489.5875
2226.11061	4481.5875
2229.02246	4461.6875
2231.93245	4458.0875
2234.84058	4447.1875
2237.74686	4441.0875
2240.65128	4424.0875
2243.55385	4418.3875
2246.45456	4418.9875
2249.35343	4402.7875
2252.25044	4407.7875
2255.14561	4393.6875
2258.03893	4414.9875
2260.93041	4438.9875
2263.82004	4399.6875
2266.70783	4380.3875
2269.59378	4360.6875
2272.4779	4343.8875
2275.36017	4342.2875
2278.24061	4344.8875
2281.11922	4345.7875
2283.996	4324.5875
2286.87094	4306.7875
2289.74405	4296.5875
2292.61534	4275.3875
2295.4848	4289.9875
2298.35243	4286.6875
2301.21824	4279.7875
2304.08223	4265.4875
2306.94439	4280.0875
2309.80474	4268.6875
2312.66327	4270.2875
2315.51999	4243.1875
2318.37489	4253.1875
2321.22797	4255.0875
2324.07925	4250.8875
2326.92871	4246.0875
2329.77637	4237.0875
2332.62222	4231.3875
2335.46626	4211.8875
2338.3085	4221.1875
2341.14893	4216.0875
2343.98756	4217.3875
2346.8244	4210.1875
2349.65943	4189.5875
2352.49267	4200.3875
2355.32411	4194.6875
2358.15376	4179.4875
2360.98161	4186.7875
2363.80768	4190.0875
2366.63195	4191.0875
2369.45444	4195.4875
2372.27514	4184.6875
2375.09405	4173.0875
2377.91118	4170.5875
2380.72652	4164.1875
2383.54009	4145.9875
2386.35187	4141.1875
2389.16188	4127.6875
2391.97011	4114.3875
2394.77657	4108.3875
2397.58125	4089.8875
2400.38416	4092.3875
2403.18529	4074.0875
2405.98466	4076.6875
2408.78226	4074.0875
2411.57809	4079.3875
2414.37216	4056.2875
2417.16446	4049.8875
2419.955	4036.7875
2422.74378	4039.7875
2425.5308	4043.7875
2428.31606	4036.3875
2431.09956	4034.1875
2433.88131	4018.7875
2436.6613	4022.2875
2439.43954	4028.3875
2442.21603	4020.8875
2444.99077	4026.5875
2447.76377	4016.2875
2450.53501	4003.0875
2453.30451	4005.6875
2456.07226	4008.6875
2458.83827	3991.0875
2461.60254	4002.0875
2464.36507	3999.0875
2467.12586	3997.0875
2469.88492	3975.5875
2472.64224	3989.0875
2475.39782	4028.0875
2478.15167	4022.2875
2480.90379	4002.8875
2483.65417	3997.2875
2486.40283	3988.3875
2489.14976	3983.4875
2491.89497	3980.6875
2494.63845	4012.9875
2497.3802	4005.4875
2500.12024	3974.2875
2502.85855	3964.0875
2505.59514	3962.9875
2508.33002	3936.9875
2511.06318	3944.0875
2513.79462	3926.3875
2516.52435	3925.0875
2519.25237	3909.4875
2521.97867	3917.3875
2524.70327	3901.9875
2527.42616	3897.2875
2530.14734	3893.5875
2532.86681	3891.7875
2535.58458	3884.9875
2538.30065	3870.7875
2541.01501	3883.0875
2543.72768	3862.5875
2546.43864	3858.2875
2549.14791	3853.8875
2551.85548	3852.5875
2554.56136	3841.1875
2557.26554	3845.7875
2559.96803	3815.3875
2562.66883	3827.4875
2565.36794	3840.2875
2568.06536	3813.8875
2570.7611	3821.7875
2573.45514	3816.4875
2576.14751	3810.1875
2578.83819	3789.9875
2581.52719	3791.7875
2584.21451	3784.4875
2586.90015	3775.1875
2589.58411	3758.9875
2592.2664	3768.4875
2594.94701	3759.9875
2597.62594	3742.9875
2600.30321	3743.3875
2602.9788	3730.2875
2605.65273	3729.1875
2608.32498	3739.1875
2610.99557	3710.5875
2613.66449	3724.8875
2616.33175	3712.6875
2618.99734	3714.9875
2621.66128	3712.6875
2624.32355	3693.2875
2626.98416	3703.2875
2629.64311	3701.1875
2632.30041	3690.6875
2634.95605	3671.6875
2637.61004	3664.3875
2640.26238	3666.8875
2642.91306	3657.7875
2645.56209	3654.8875
2648.20948	3675.7875
2650.85521	3660.8875
2653.4993	3653.7875
2656.14175	3648.7875
2658.78255	3661.5875
2661.42171	3678.6875
2664.05923	3669.6875
2666.6951	3659.8875
2669.32934	3665.9875
2671.96194	3663.5875
2674.59291	3655.7875
2677.22224	3651.0875
2679.84993	3646.7875
2682.476	3657.6875
2685.10043	3657.0875
2687.72324	3651.6875
2690.34441	3645.6875
2692.96396	3645.3875
2695.58188	3652.0875
2698.19818	3642.4875
2700.81285	3647.7875
2703.4259	3730.9875
2706.03733	3888.9875
2708.64714	3780.0875
2711.25533	3718.1875
2713.86191	3691.3875
2716.46687	3677.1875
2719.07021	3677.2875
2721.67194	3666.5875
2724.27206	3648.7875
2726.87057	3646.6875
2729.46747	3651.7875
2732.06276	3658.5875
2734.65644	3645.7875
2737.24852	3647.0875
2739.83899	3631.2875
2742.42786	3631.2875
2745.01513	3627.4875
2747.60079	3622.0875
2750.18486	3625.9875
2752.76733	3623.0875
2755.3482	3595.8875
2757.92747	3607.7875
2760.50515	3603.9875
2763.08123	3606.5875
2765.65573	3608.3875
2768.22863	3601.8875
2770.79994	3585.0875
2773.36967	3575.2875
2775.9378	3584.0875
2778.50435	3575.9875
2781.06932	3574.2875
2783.6327	3566.7875
2786.1945	3566.0875
2788.75471	3563.0875
2791.31335	3549.8875
2793.87041	3537.0875
2796.42589	3548.0875
2798.97979	3544.8875
2801.53212	3531.1875
2804.08288	3533.8875
2806.63206	3525.4875
2809.17967	3521.0875
2811.72571	3516.5875
2814.27018	3509.2875
2816.81308	3499.2875
2819.35442	3499.3875
2821.89419	3501.2875
2824.43239	3482.3875
2826.96904	3505.6875
2829.50412	3502.8875
2832.03763	3485.3875
2834.56959	3501.8875
2837.1	3490.1875
2839.62884	3515.2875
2842.15613	3516.8875
2844.68186	3552.7875
2847.20604	3584.3875
2849.72867	3586.1875
2852.24974	3594.1875
2854.76927	3625.3875
2857.28724	3666.0875
2859.80367	3614.9875
2862.31855	3595.8875
2864.83189	3588.5875
2867.34368	3575.1875
2869.85393	3575.0875
2872.36264	3580.0875
2874.8698	3571.1875
2877.37543	3564.2875
2879.87952	3564.7875
2882.38207	3573.3875
2884.88308	3553.3875
2887.38256	3552.2875
2889.88051	3531.0875
2892.37692	3552.2875
2894.8718	3554.1875
2897.36515	3571.6875
2899.85698	3574.2875
2902.34727	3570.5875
2904.83604	3575.9875
2907.32328	3573.8875
2909.809	3578.0875
2912.29319	3574.9875
2914.77587	3587.6875
2917.25702	3577.0875
2919.73665	3581.0875
2922.21476	3566.3875
2924.69136	3575.1875
2927.16644	3584.3875
2929.64	3587.1875
2932.11205	3581.2875
2934.58258	3564.8875
2937.05161	3574.3875
2939.51912	3559.1875
2941.98513	3559.5875
2944.44962	3533.7875
2946.91261	3510.4875
2949.37409	3511.0875
2951.83407	3494.2875
2954.29254	3486.9875
2956.74951	3480.1875
2959.20498	3484.3875
2961.65895	3477.3875
2964.11142	3472.1875
2966.56239	3451.4875
2969.01186	3436.2875
2971.45984	3443.2875
2973.90632	3429.8875
2976.35131	3409.4875
2978.7948	3409.1875
2981.23681	3404.8875
2983.67732	3397.3875
2986.11635	3387.2875
2988.55388	3380.0875
2990.98993	3366.4875
2993.4245	3361.2875
2995.85758	3350.2875
2998.28917	3340.1875
3000.71928	3343.7875
3003.14791	3347.2875
3005.57506	3330.4875
3008.00073	3328.0875
3010.42493	3324.8875
3012.84764	3322.8875
3015.26888	3340.1875
3017.68865	3313.6875
3020.10694	3315.9875
3022.52376	3310.4875
3024.9391	3303.7875
3027.35298	3299.4875
3029.76539	3292.0875
3032.17632	3274.6875
3034.5858	3289.4875
3036.9938	3294.7875
3039.40034	3279.0875
3041.80542	3285.5875
3044.20903	3268.2875
3046.61118	3264.5875
3049.01187	3274.4875
3051.4111	3273.0875
3053.80888	3269.7875
3056.20519	3256.1875
3058.60005	3259.6875
3060.99345	3258.2875
3063.3854	3245.9875
3065.7759	3241.3875
3068.16494	3241.2875
3070.55254	3232.8875
3072.93868	3221.7875
3075.32338	3222.4875
3077.70662	3227.9875
3080.08842	3209.1875
3082.46878	3213.8875
3084.84769	3219.0875
3087.22515	3220.6875
3089.60118	3220.9875
3091.97576	3220.3875
3094.3489	3230.8875
3096.72061	3221.0875
3099.09087	3236.9875
3101.4597	3229.9875
3103.82709	3225.6875
3106.19305	3223.3875
3108.55757	3240.8875
3110.92066	3228.8875
3113.28232	3228.4875
3115.64255	3223.1875
3118.00134	3213.9875
3120.35871	3220.5875
3122.71466	3213.6875
3125.06917	3216.6875
3127.42226	3221.9875
3129.77393	3221.3875
3132.12417	3222.1875
3134.47299	3220.3875
3136.82039	3218.1875
3139.16636	3219.0875
3141.51092	3233.4875
3143.85406	3238.5875
3146.19579	3239.4875
3148.53609	3248.2875
3150.87499	3257.6875
3153.21246	3257.2875
3155.54853	3273.2875
3157.88318	3275.3875
3160.21642	3279.8875
3162.54826	3269.3875
3164.87868	3283.9875
3167.2077	3286.7875
3169.5353	3284.9875
3171.86151	3281.9875
3174.18631	3291.4875
3176.5097	3303.1875
3178.83169	3296.8875
3181.15228	3297.2875
3183.47147	3290.1875
3185.78926	3289.1875
3188.10565	3286.5875
3190.42065	3296.3875
3192.73424	3303.5875
3195.04645	3302.4875
3197.35725	3305.6875
3199.66667	3290.5875
3201.97469	3294.8875
3204.28132	3305.4875
3206.58656	3313.2875
3208.8904	3314.3875
3211.19287	3325.2875
3213.49394	3334.7875
3215.79363	3330.2875
3218.09193	3345.7875
3220.38884	3379.5875
3222.68438	3409.5875
3224.97853	3360.5875
3227.2713	3344.3875
3229.56269	3333.7875
3231.8527	3344.2875
3234.14133	3334.7875
3236.42858	3322.5875
3238.71446	3331.3875
3240.99896	3296.6875
3243.28209	3314.3875
3245.56384	3306.7875
3247.84423	3321.2875
3250.12324	3312.7875
3252.40088	3306.2875
3254.67715	3309.5875
3256.95205	3307.8875
3259.22558	3291.1875
3261.49775	3290.8875
3263.76855	3296.1875
3266.03799	3286.7875
3268.30606	3300.4875
3270.57277	3288.5875
3272.83812	3269.1875
3275.10211	3262.9875
3277.36474	3262.5875
3279.62601	3253.2875
3281.88593	3259.8875
3284.14448	3254.4875
3286.40168	3261.0875
3288.65753	3258.3875
3290.91202	3271.1875
3293.16516	3239.4875
3295.41695	3236.5875
3297.66738	3223.0875
3299.91647	3211.1875
3302.16421	3187.1875
3304.4106	3176.0875
3306.65564	3170.1875
3308.89933	3160.2875
3311.14169	3136.3875
3313.38269	3143.5875
3315.62236	3108.6875
3317.86068	3071.4875
3320.09766	3060.7875
3322.3333	3027.5875
3324.5676	3052.9875
3326.80056	3059.8875
3329.03219	3009.0875
3331.26248	0.8875
3333.49143	0.1875
3335.71905	-0.5125
