Data from AgNPs_FTO_APTES_UA_1uM_CRN_2uM_R6G_10uM_NaF_0.1M_Addition_RamanShift__18__13-16-19-551.txt Node

Date: Thu Jan 27 13:16:19 GMT 2022
User: TCL
Spectrometer: QEP01345
Trigger mode: 4
Integration Time (sec): 7.000000E0
Scans to average: 10
Electric dark correction enabled: true
Nonlinearity correction enabled: false
Boxcar width: 0
XAxis mode: Raman Shifts
Number of Pixels in Spectrum: 1044
>>>>>Begin Spectral Data<<<<<
46.04893	0.9
50.45542	-0.3
54.85868	-1.6
59.25871	-0.4
63.6555	52.4
68.04907	55.4
72.43941	59.8
76.82654	65
81.21044	63.9
85.59113	64.4
89.96862	67.6
94.34289	70.5
98.71396	73.6
103.08183	74.6
107.4465	80
111.80798	78.2
116.16626	81.5
120.52136	85
124.87327	84.5
129.222	88.4
133.56755	97.1
137.90993	98.1
142.24913	105.6
146.58517	120.2
150.91804	134.5
155.24774	159.8
159.57429	193.3
163.89768	245
168.21792	326
172.53501	438.3
176.84895	601.8
181.15975	847
185.46741	1176.9
189.77193	1626.9
194.07331	2162.8
198.37157	2800.9
202.6667	3441.8
206.9587	4094
211.24758	4733.9
215.53334	5375.3
219.81599	6055.1
224.09553	6803.9
228.37195	7638.8
232.64527	8559.5
236.91549	9570.8
241.18261	10535.5
245.44663	11453.5
249.70755	12247.7
253.96539	12926.1
258.22014	13573.4
262.4718	14077.3
266.72039	14426.2
270.96589	14610.8
275.20832	14650.9
279.44768	14589
283.68397	14420.8
287.91719	14314.2
292.14735	14247.9
296.37445	14231.7
300.59849	14294
304.81948	14377.3
309.03742	14414.1
313.25231	14292.6
317.46415	13915.6
321.67296	13499.9
325.87872	13119.8
330.08145	12935.1
334.28114	12881.2
338.47781	12998.2
342.67145	13174.4
346.86207	13407.2
351.04966	13710.7
355.23424	14013.4
359.4158	14294.7
363.59435	14470.4
367.76989	14612.6
371.94243	14711.1
376.11196	14801.3
380.27849	14910.3
384.44203	14951.7
388.60257	15047.6
392.76012	15178.5
396.91468	15387.1
401.06626	15597.1
405.21485	15780.9
409.36047	15707.3
413.50311	15413.2
417.64277	15191.6
421.77947	15126.3
425.9132	15168.2
430.04396	15240.9
434.17176	15352.2
438.2966	15450.8
442.41849	15634.8
446.53742	15999.2
450.6534	16442.3
454.76644	16802.1
458.87653	16927.9
462.98368	16905.4
467.08789	16671.6
471.18916	16449.4
475.2875	16202
479.38291	16074.2
483.4754	15935.4
487.56496	15786.9
491.6516	15580
495.73531	15391.7
499.81612	15370.6
503.89401	15479
507.96899	15526.6
512.04106	15505.6
516.11023	15444.1
520.1765	15351.6
524.23987	15219.7
528.30034	15075.3
532.35792	14892.9
536.41261	14703
540.46441	14508.1
544.51333	14515.1
548.55936	14690.1
552.60252	14987.1
556.64279	15349.9
560.6802	15512.7
564.71473	15570.2
568.7464	15768.9
572.7752	16052.9
576.80114	16339
580.82422	16664.5
584.84444	16973.1
588.86181	17171.4
592.87633	17407.7
596.888	17468.4
600.89682	17461.1
604.9028	18048.4
608.90594	19776.8
612.90624	21689.1
616.90371	20609.6
620.89834	17179.3
624.89015	15708.3
628.87913	15599.5
632.86528	15606.9
636.84862	15385.4
640.82913	15072
644.80683	14632.2
648.78172	14336.5
652.75379	14256.6
656.72306	14443.1
660.68952	14684.8
664.65319	14650.9
668.61405	14347.1
672.57211	14268.4
676.52738	14260.7
680.47986	14217.9
684.42955	14127
688.37646	14124.9
692.32058	14190.4
696.26192	14319
700.20048	14499.1
704.13626	14632.1
708.06928	14530.9
711.99952	14409.6
715.927	14410.4
719.85171	14417.9
723.77365	14387.1
727.69284	14259.8
731.60928	14102
735.52295	14021.2
739.43388	14073.3
743.34206	14110.1
747.24749	14197.5
751.15017	14321
755.05012	14564.6
758.94733	14999
762.8418	15741.7
766.73354	16947.5
770.62254	18220.8
774.50882	18606.6
778.39237	17801.6
782.27321	16457.2
786.15132	15338
790.02671	14671.9
793.89938	14420.2
797.76935	14269.6
801.6366	14281.7
805.50115	14242.3
809.36299	14113.1
813.22213	13965.8
817.07857	13863.1
820.93231	13834.8
824.78336	13813.7
828.63172	13795.8
832.47738	13807
836.32036	13833.4
840.16066	13964.2
843.99827	14044.1
847.8332	14031.4
851.66546	13855.1
855.49504	13819.1
859.32195	13822.1
863.1462	13767.8
866.96777	13692.5
870.78668	13654.9
874.60293	13633.4
878.41652	13642.9
882.22745	13701.7
886.03573	13759.4
889.84136	13797.5
893.64433	13692.6
897.44466	13612.9
901.24235	13529.7
905.0374	13513.3
908.8298	13469.2
912.61957	13474.6
916.40671	13639.1
920.19121	13846.4
923.97308	14097.6
927.75233	14201
931.52895	14177.7
935.30295	14055.5
939.07433	13747
942.84309	13492.1
946.60924	13400.5
950.37278	13358.6
954.13371	13299.5
957.89203	13205.1
961.64774	13136.1
965.40086	13092.6
969.15137	13040.6
972.89929	12962.5
976.64461	12932.8
980.38733	12975.9
984.12747	13042.4
987.86502	13189.2
991.59999	13454
995.33237	13785.2
999.06217	14390.8
1002.78939	15037.1
1006.51404	15334.1
1010.23611	15368.5
1013.95561	15466.6
1017.67255	15426.3
1021.38692	15234.9
1025.09872	15106.4
1028.80796	15348.4
1032.51465	16098.3
1036.21877	16817.4
1039.92035	16925.3
1043.61937	16530
1047.31584	15894.2
1051.00976	15197.3
1054.70114	14832.1
1058.38998	14787.5
1062.07627	14826.2
1065.76003	14861.9
1069.44126	14886.4
1073.11995	15044.7
1076.79611	15282.1
1080.46974	15418.2
1084.14085	15550.9
1087.80943	15727.5
1091.47549	15760.4
1095.13903	15787.2
1098.80005	15545.4
1102.45857	15198.9
1106.11456	14957.9
1109.76805	14872.6
1113.41903	14931.1
1117.06751	15007.1
1120.71348	15125.5
1124.35696	15321.1
1127.99793	15460.2
1131.63641	15629.7
1135.2724	15489.3
1138.90589	15372.9
1142.5369	15295.9
1146.16542	15215.3
1149.79145	15230.5
1153.415	15278.7
1157.03607	15443.8
1160.65467	15756.3
1164.27079	16367
1167.88443	17260.2
1171.49561	18399.5
1175.10432	19868.2
1178.71056	21741.1
1182.31434	23537.1
1185.91565	24565.3
1189.51451	24611.2
1193.11091	23734.2
1196.70485	22531.4
1200.29634	21363.2
1203.88538	20573.1
1207.47197	19970.2
1211.05612	19505.4
1214.63782	19175.8
1218.21708	18933.1
1221.79391	18818.4
1225.36829	18810.8
1228.94024	18645.5
1232.50976	18261.1
1236.07685	17912.7
1239.6415	17655.3
1243.20374	17619.5
1246.76355	17708.8
1250.32093	18023.1
1253.8759	18470.1
1257.42845	19065.8
1260.97859	19621
1264.52631	20178.4
1268.07163	20774.5
1271.61453	21509.1
1275.15503	22314.9
1278.69312	23116.6
1282.22882	23751.7
1285.76211	24156.2
1289.29301	24550.3
1292.82151	25148.7
1296.34761	26095
1299.87133	27538.4
1303.39266	29385.4
1306.9116	31612
1310.42815	33720
1313.94233	35066.4
1317.45412	34953
1320.96354	33969.4
1324.47058	32841.4
1327.97525	31804.3
1331.47754	31044.8
1334.97747	30563.6
1338.47502	30277.7
1341.97022	30119
1345.46305	29808.2
1348.95352	29417.6
1352.44163	29286.9
1355.92738	29904.4
1359.41078	31404.3
1362.89183	32881.3
1366.37053	32455.5
1369.84688	29777.2
1373.32088	26477.4
1376.79254	24164.7
1380.26186	23106.1
1383.72883	22847.3
1387.19347	22779.3
1390.65578	22527.7
1394.11575	22341.6
1397.57339	22509.3
1401.0287	22897.8
1404.48168	23282.9
1407.93234	23441.4
1411.38068	23212.3
1414.82669	22622.4
1418.27039	21822.2
1421.71177	21010
1425.15083	20306.3
1428.58758	19925.5
1432.02203	19933.6
1435.45416	20359.3
1438.88399	20860.1
1442.31151	21362
1445.73673	21699.3
1449.15965	21924
1452.58027	22093.4
1455.9986	22125.6
1459.41463	22189.1
1462.82837	22558.1
1466.23982	23103.6
1469.64898	23613.6
1473.05586	23943.5
1476.46045	24012.6
1479.86276	23818.2
1483.26279	23486.9
1486.66054	23230.6
1490.05602	23216
1493.44922	23326
1496.84016	23533.9
1500.22882	24005.1
1503.61521	24824.8
1506.99934	25923.9
1510.38121	26836.1
1513.76081	27174.3
1517.13816	26568.8
1520.51324	25407.2
1523.88607	24249.4
1527.25665	23419.9
1530.62498	23082.8
1533.99105	22879.9
1537.35488	22719.7
1540.71647	22546.8
1544.07581	22247
1547.4329	21845.2
1550.78776	21602.7
1554.14038	21379.4
1557.49077	21254.2
1560.83892	21128.5
1564.18484	21078.4
1567.52853	21131.7
1570.86999	21272.3
1574.20922	21538.1
1577.54624	21742.7
1580.88103	21727.3
1584.2136	21750.8
1587.54395	22260.3
1590.87208	23374.2
1594.19801	24962.2
1597.52172	26683.8
1600.84321	27380.5
1604.16251	26246.1
1607.47959	24072.3
1610.79447	21820.6
1614.10715	19860.9
1617.41763	18248.4
1620.7259	17228.9
1624.03199	16706.6
1627.33587	16683.5
1630.63757	17169
1633.93707	18265.5
1637.23439	19921.5
1640.52951	22116.1
1643.82246	24524.5
1647.11321	26297.5
1650.40179	26612.7
1653.68819	24875.9
1656.97241	21835.7
1660.25446	18734.8
1663.53433	16461.2
1666.81203	15045.7
1670.08756	14101.4
1673.36092	13593.8
1676.63211	13227.7
1679.90115	12973.1
1683.16801	12734.1
1686.43272	12621
1689.69527	12504.9
1692.95567	12378.9
1696.2139	12277.2
1699.46999	12230.3
1702.72392	12167.4
1705.97571	12186
1709.22535	12176.3
1712.47284	12191.3
1715.71819	12153.4
1718.96139	12186.3
1722.20246	12115.3
1725.44139	12099.7
1728.67818	12012.2
1731.91284	11941.5
1735.14537	11875.6
1738.37576	11837.8
1741.60403	11799.2
1744.83017	11718.2
1748.05418	11715.6
1751.27607	11665.2
1754.49584	11665.1
1757.71349	11632
1760.92903	11570
1764.14244	11569.8
1767.35375	11561.9
1770.56294	11558.8
1773.77002	11573.7
1776.97499	11555.9
1780.17785	11544.9
1783.37861	11540.2
1786.57727	11555.6
1789.77382	11529
1792.96828	11518.9
1796.16064	11494.3
1799.3509	11474.3
1802.53907	11470.8
1805.72514	11421.9
1808.90913	11381.6
1812.09102	11372.1
1815.27083	11337.6
1818.44856	11348
1821.6242	11331.3
1824.79776	11313.3
1827.96924	11283.9
1831.13864	11308.9
1834.30597	11308.6
1837.47122	11298.2
1840.6344	11311.9
1843.7955	11309.5
1846.95454	11338
1850.11151	11341.4
1853.26642	11337.8
1856.41926	11358.3
1859.57004	11364.4
1862.71876	11324.2
1865.86542	11333.4
1869.01003	11314
1872.15258	11300.3
1875.29308	11320.6
1878.43152	11335.4
1881.56792	11308.8
1884.70227	11285.3
1887.83457	11306.5
1890.96482	11295.9
1894.09304	11297.7
1897.21921	11299.7
1900.34335	11289.6
1903.46544	11277.8
1906.58551	11276.4
1909.70353	11258.4
1912.81953	11240.6
1915.93349	11227
1919.04543	11196.4
1922.15534	11136.4
1925.26322	11099.6
1928.36908	11081.1
1931.47292	11065.5
1934.57473	11042.6
1937.67453	11006.7
1940.77232	10972.7
1943.86808	10945.5
1946.96184	10877.2
1950.05358	10856
1953.14331	10815.3
1956.23103	10763.6
1959.31675	10758.4
1962.40046	10704.6
1965.48217	10672.2
1968.56188	10649.4
1971.63959	10613.9
1974.7153	10615.6
1977.78901	10580.7
1980.86073	10526.4
1983.93046	10506.7
1986.99819	10481.6
1990.06394	10426
1993.1277	10409.8
1996.18947	10374.2
1999.24925	10328.1
2002.30706	10290.7
2005.36288	10279
2008.41672	10269.1
2011.46859	10247.2
2014.51848	10211.7
2017.56639	10181.5
2020.61233	10152.7
2023.6563	10154.2
2026.6983	10118.3
2029.73833	10118.7
2032.7764	10117
2035.8125	10104.4
2038.84664	10085.4
2041.87881	10072
2044.90903	10053.3
2047.93729	10026.5
2050.96359	10022.6
2053.98794	10022.4
2057.01034	10001.3
2060.03078	10014
2063.04927	10011
2066.06582	10030.7
2069.08042	10009
2072.09307	9985.8
2075.10378	9970.2
2078.11255	9953.6
2081.11938	9938.4
2084.12426	9946.1
2087.12722	9931.6
2090.12824	9952
2093.12732	9933.1
2096.12447	9935.6
2099.11969	9935.5
2102.11299	9943
2105.10435	9975.4
2108.09379	9973.4
2111.08131	9977.2
2114.0669	9968.2
2117.05057	10008
2120.03233	9991.3
2123.01216	9996.4
2125.99008	10010.7
2128.96609	10008.3
2131.94018	10020.2
2134.91236	10000.3
2137.88263	10011.7
2140.851	10039
2143.81746	10044.2
2146.78201	10049.3
2149.74466	10073.6
2152.7054	10065.9
2155.66425	10048.5
2158.6212	10043.9
2161.57625	10060.4
2164.52941	10054.3
2167.48067	10050.8
2170.43004	10052.4
2173.37752	10045.4
2176.32311	10052.2
2179.26681	10054.1
2182.20863	10064.9
2185.14856	10058.2
2188.08661	10065.4
2191.02278	10084.2
2193.95707	10093.5
2196.88948	10059.9
2199.82001	10084.7
2202.74867	10072.3
2205.67545	10078.2
2208.60037	10071.7
2211.52341	10043.5
2214.44458	10073.1
2217.36388	10048.8
2220.28132	10030.9
2223.1969	10015.1
2226.11061	10024.9
2229.02246	10027.9
2231.93245	9975.5
2234.84058	9952.4
2237.74686	9932.6
2240.65128	9930.3
2243.55385	9887.2
2246.45456	9895.9
2249.35343	9845.5
2252.25044	9849.8
2255.14561	9836.5
2258.03893	9835.7
2260.93041	9807.9
2263.82004	9772.9
2266.70783	9801.7
2269.59378	9758.3
2272.4779	9725.8
2275.36017	9741
2278.24061	9672.1
2281.11922	9708.5
2283.996	9677.6
2286.87094	9678.4
2289.74405	9676.2
2292.61534	9659.1
2295.4848	9657.1
2298.35243	9668.6
2301.21824	9670.7
2304.08223	9663.9
2306.94439	9677.7
2309.80474	9695.8
2312.66327	9721.9
2315.51999	9718.7
2318.37489	9741.1
2321.22797	9724.1
2324.07925	9714.5
2326.92871	9690.8
2329.77637	9671.2
2332.62222	9674.4
2335.46626	9671.3
2338.3085	9699.9
2341.14893	9673.8
2343.98756	9701.7
2346.8244	9714.4
2349.65943	9702.7
2352.49267	9698.6
2355.32411	9729.6
2358.15376	9678.6
2360.98161	9683.4
2363.80768	9671.3
2366.63195	9659.4
2369.45444	9636.5
2372.27514	9601.6
2375.09405	9611
2377.91118	9553
2380.72652	9551.2
2383.54009	9537.1
2386.35187	9518.3
2389.16188	9492.7
2391.97011	9482
2394.77657	9475.5
2397.58125	9477.8
2400.38416	9452.9
2403.18529	9440.7
2405.98466	9422.3
2408.78226	9382.6
2411.57809	9399.1
2414.37216	9357.7
2417.16446	9369.5
2419.955	9332
2422.74378	9350.1
2425.5308	9321.7
2428.31606	9342.8
2431.09956	9324.8
2433.88131	9307.6
2436.6613	9325.6
2439.43954	9307.4
2442.21603	9337.3
2444.99077	9317.1
2447.76377	9311.5
2450.53501	9302.4
2453.30451	9304.6
2456.07226	9302.4
2458.83827	9293.1
2461.60254	9323.7
2464.36507	9319.2
2467.12586	9302.8
2469.88492	9318.3
2472.64224	9321.4
2475.39782	9329.4
2478.15167	9328
2480.90379	9349
2483.65417	9338.9
2486.40283	9359.8
2489.14976	9375.7
2491.89497	9359.7
2494.63845	9339.4
2497.3802	9362.1
2500.12024	9375.4
2502.85855	9341.5
2505.59514	9333.7
2508.33002	9327.3
2511.06318	9335.8
2513.79462	9311.7
2516.52435	9297.6
2519.25237	9296.9
2521.97867	9288.2
2524.70327	9288.3
2527.42616	9265.5
2530.14734	9297
2532.86681	9282.2
2535.58458	9260.4
2538.30065	9243.8
2541.01501	9266.7
2543.72768	9269.8
2546.43864	9277.5
2549.14791	9255.7
2551.85548	9239.3
2554.56136	9246.5
2557.26554	9212.8
2559.96803	9219.4
2562.66883	9219.4
2565.36794	9250.8
2568.06536	9207.5
2570.7611	9195.7
2573.45514	9181.6
2576.14751	9190.2
2578.83819	9200.2
2581.52719	9199.4
2584.21451	9199.8
2586.90015	9182
2589.58411	9159.3
2592.2664	9177
2594.94701	9175.2
2597.62594	9173.5
2600.30321	9170
2602.9788	9144.1
2605.65273	9169.9
2608.32498	9147.2
2610.99557	9150.7
2613.66449	9164.7
2616.33175	9163.1
2618.99734	9157.5
2621.66128	9161.5
2624.32355	9159.8
2626.98416	9180
2629.64311	9165.9
2632.30041	9170.9
2634.95605	9158.6
2637.61004	9129.7
2640.26238	9134.4
2642.91306	9122.8
2645.56209	9091.6
2648.20948	9105.9
2650.85521	9111.5
2653.4993	9095.5
2656.14175	9106.1
2658.78255	9134.3
2661.42171	9116
2664.05923	9131.9
2666.6951	9119.5
2669.32934	9126.1
2671.96194	9112.1
2674.59291	9159
2677.22224	9132.2
2679.84993	9160
2682.476	9099.3
2685.10043	9106.9
2687.72324	9063.4
2690.34441	9089.4
2692.96396	9081.8
2695.58188	9087.8
2698.19818	9045.6
2700.81285	9066.7
2703.4259	9061.4
2706.03733	9036.8
2708.64714	9048.6
2711.25533	9064.3
2713.86191	9080.1
2716.46687	9109.4
2719.07021	9093
2721.67194	9087
2724.27206	9084.7
2726.87057	9098.3
2729.46747	9100.1
2732.06276	9112.4
2734.65644	9099.5
2737.24852	9100.8
2739.83899	9102.9
2742.42786	9104.6
2745.01513	9061.3
2747.60079	9082.2
2750.18486	9065.6
2752.76733	9077.3
2755.3482	9058.8
2757.92747	9066.3
2760.50515	9052
2763.08123	9064.7
2765.65573	9041.5
2768.22863	9057
2770.79994	9034.6
2773.36967	9055.3
2775.9378	9061.3
2778.50435	9052.1
2781.06932	9035.1
2783.6327	9044
2786.1945	9059.7
2788.75471	9035.6
2791.31335	9025.7
2793.87041	9024.9
2796.42589	8986.8
2798.97979	8978.2
2801.53212	8967.6
2804.08288	8949.9
2806.63206	8940.8
2809.17967	8913
2811.72571	8898.3
2814.27018	8902.5
2816.81308	8877.8
2819.35442	8908.9
2821.89419	8879.8
2824.43239	8881.9
2826.96904	8878.1
2829.50412	8863.6
2832.03763	8845
2834.56959	8878.2
2837.1	8846.1
2839.62884	8857.2
2842.15613	8850.7
2844.68186	8877.3
2847.20604	8880
2849.72867	8878.9
2852.24974	8885.3
2854.76927	8884.7
2857.28724	8859.6
2859.80367	8858.9
2862.31855	8863.6
2864.83189	8843
2867.34368	8830
2869.85393	8838.7
2872.36264	8851.5
2874.8698	8841.7
2877.37543	8832.7
2879.87952	8822.8
2882.38207	8870.3
2884.88308	8817.8
2887.38256	8846.8
2889.88051	8841.7
2892.37692	8818
2894.8718	8826.9
2897.36515	8835.6
2899.85698	8836.6
2902.34727	8879.5
2904.83604	8904
2907.32328	8923.7
2909.809	8922.9
2912.29319	8927.2
2914.77587	8922.3
2917.25702	8913
2919.73665	8913.5
2922.21476	8915.7
2924.69136	8903.6
2927.16644	8898.4
2929.64	8877.8
2932.11205	8847.9
2934.58258	8823.5
2937.05161	8862.8
2939.51912	8836
2941.98513	8845
2944.44962	8792.3
2946.91261	8759.8
2949.37409	8788.9
2951.83407	8775.9
2954.29254	8777.6
2956.74951	8768.9
2959.20498	8739.3
2961.65895	8726.6
2964.11142	8736.4
2966.56239	8721.3
2969.01186	8720.7
2971.45984	8696.6
2973.90632	8697.3
2976.35131	8668
2978.7948	8661.9
2981.23681	8629.9
2983.67732	8614.2
2986.11635	8601.3
2988.55388	8558.2
2990.98993	8542.1
2993.4245	8550
2995.85758	8526.4
2998.28917	8509.9
3000.71928	8467.4
3003.14791	8490.1
3005.57506	8472.6
3008.00073	8428.8
3010.42493	8456.8
3012.84764	8456.9
3015.26888	8431.7
3017.68865	8440.7
3020.10694	8445.9
3022.52376	8421.3
3024.9391	8414.9
3027.35298	8397.8
3029.76539	8385.5
3032.17632	8371.3
3034.5858	8368.8
3036.9938	8374.7
3039.40034	8363.2
3041.80542	8367.1
3044.20903	8336.9
3046.61118	8357.2
3049.01187	8325.4
3051.4111	8337
3053.80888	8314.6
3056.20519	8321.6
3058.60005	8295.4
3060.99345	8267.6
3063.3854	8244.8
3065.7759	8240.6
3068.16494	8233.1
3070.55254	8209.2
3072.93868	8196
3075.32338	8187.9
3077.70662	8171.9
3080.08842	8148.3
3082.46878	8136.8
3084.84769	8138.5
3087.22515	8130.7
3089.60118	8135.4
3091.97576	8133.1
3094.3489	8137.6
3096.72061	8126
3099.09087	8138.2
3101.4597	8121.1
3103.82709	8116.4
3106.19305	8107
3108.55757	8140
3110.92066	8105.6
3113.28232	8107
3115.64255	8098.5
3118.00134	8079.7
3120.35871	8084.5
3122.71466	8059.5
3125.06917	8057.1
3127.42226	8040.1
3129.77393	8037.5
3132.12417	8036.2
3134.47299	8028.3
3136.82039	8013.3
3139.16636	8030.3
3141.51092	8053.8
3143.85406	8057.8
3146.19579	8050.8
3148.53609	8063.3
3150.87499	8064.8
3153.21246	8068.8
3155.54853	8072.9
3157.88318	8071.7
3160.21642	8092.7
3162.54826	8078.7
3164.87868	8065.8
3167.2077	8075.6
3169.5353	8097.9
3171.86151	8093.5
3174.18631	8097.2
3176.5097	8101.7
3178.83169	8063.2
3181.15228	8076.4
3183.47147	8070.2
3185.78926	8060.4
3188.10565	8062.2
3190.42065	8053.9
3192.73424	8067.2
3195.04645	8057.4
3197.35725	8074.2
3199.66667	8062.2
3201.97469	8064.5
3204.28132	8055.6
3206.58656	8092.3
3208.8904	8087.6
3211.19287	8098.6
3213.49394	8105.6
3215.79363	8119.6
3218.09193	8104.8
3220.38884	8108.8
3222.68438	8106
3224.97853	8122.6
3227.2713	8092.8
3229.56269	8108.4
3231.8527	8113.2
3234.14133	8094
3236.42858	8087.7
3238.71446	8063.3
3240.99896	8043.4
3243.28209	8059.8
3245.56384	8028.6
3247.84423	8044.6
3250.12324	8044.3
3252.40088	8035.3
3254.67715	8053.8
3256.95205	8019.7
3259.22558	8044.4
3261.49775	8028.9
3263.76855	8000.3
3266.03799	7981.9
3268.30606	8004.5
3270.57277	7995.1
3272.83812	7965.8
3275.10211	7961.7
3277.36474	7925
3279.62601	7934.1
3281.88593	7931.2
3284.14448	7938.4
3286.40168	7963.6
3288.65753	7963.2
3290.91202	7957.2
3293.16516	7939.9
3295.41695	7905.1
3297.66738	7849.7
3299.91647	7813.1
3302.16421	7769.1
3304.4106	7756.5
3306.65564	7719.2
3308.89933	7681.1
3311.14169	7626.2
3313.38269	7582.8
3315.62236	7521
3317.86068	7469.9
3320.09766	7413.2
3322.3333	7370.3
3324.5676	7365.8
3326.80056	7239.7
3329.03219	7206.1
3331.26248	2.7
3333.49143	-0.1
3335.71905	-0.8
