Data from AgNPs_FTO_APTES_UA_1uM_CRN_10uM_R6G_50uM_NaF_0.1M_Addition_RamanShift__30__16-15-59-757.txt Node

Date: Thu Jan 27 16:15:59 GMT 2022
User: TCL
Spectrometer: QEP01345
Trigger mode: 4
Integration Time (sec): 7.000000E0
Scans to average: 10
Electric dark correction enabled: true
Nonlinearity correction enabled: false
Boxcar width: 0
XAxis mode: Raman Shifts
Number of Pixels in Spectrum: 1044
>>>>>Begin Spectral Data<<<<<
46.04893	1.325
50.45542	0.125
54.85868	-0.575
59.25871	-1.575
63.6555	30.025
68.04907	32.325
72.43941	34.825
76.82654	38.625
81.21044	37.625
85.59113	38.625
89.96862	43.025
94.34289	40.125
98.71396	42.525
103.08183	44.925
107.4465	45.525
111.80798	51.425
116.16626	46.425
120.52136	49.825
124.87327	47.725
129.222	47.125
133.56755	50.425
137.90993	51.625
142.24913	52.225
146.58517	53.225
150.91804	60.025
155.24774	69.025
159.57429	77.425
163.89768	94.825
168.21792	121.525
172.53501	159.425
176.84895	210.525
181.15975	287.825
185.46741	393.925
189.77193	536.225
194.07331	721.325
198.37157	930.025
202.6667	1145.725
206.9587	1344.825
211.24758	1567.625
215.53334	1791.825
219.81599	2033.725
224.09553	2290.125
228.37195	2607.225
232.64527	2916.825
236.91549	3263.125
241.18261	3564.325
245.44663	3827.425
249.70755	4047.925
253.96539	4230.125
258.22014	4408.725
262.4718	4571.725
266.72039	4685.325
270.96589	4766.225
275.20832	4794.425
279.44768	4777.925
283.68397	4740.525
287.91719	4731.925
292.14735	4749.525
296.37445	4810.925
300.59849	4918.325
304.81948	5055.625
309.03742	5162.725
313.25231	5139.025
317.46415	4928.725
321.67296	4602.325
325.87872	4315.925
330.08145	4182.725
334.28114	4182.825
338.47781	4239.425
342.67145	4349.125
346.86207	4507.325
351.04966	4738.925
355.23424	5010.525
359.4158	5187.125
363.59435	5299.425
367.76989	5325.025
371.94243	5311.325
376.11196	5289.525
380.27849	5265.725
384.44203	5212.225
388.60257	5146.125
392.76012	5137.625
396.91468	5196.625
401.06626	5331.525
405.21485	5445.125
409.36047	5388.825
413.50311	5167.025
417.64277	4933.825
421.77947	4820.225
425.9132	4761.625
430.04396	4755.025
434.17176	4774.225
438.2966	4836.625
442.41849	4908.525
446.53742	5039.025
450.6534	5158.625
454.76644	5256.125
458.87653	5285.125
462.98368	5251.425
467.08789	5212.025
471.18916	5120.525
475.2875	5027.925
479.38291	4953.125
483.4754	4876.925
487.56496	4821.125
491.6516	4793.225
495.73531	4797.925
499.81612	4801.525
503.89401	4844.925
507.96899	4906.925
512.04106	4941.025
516.11023	4992.225
520.1765	5019.325
524.23987	5005.925
528.30034	4915.625
532.35792	4827.925
536.41261	4749.325
540.46441	4654.225
544.51333	4616.325
548.55936	4678.525
552.60252	4767.625
556.64279	4870.425
560.6802	4934.025
564.71473	4991.425
568.7464	5146.425
572.7752	5256.225
576.80114	5185.125
580.82422	5069.825
584.84444	5020.225
588.86181	4985.025
592.87633	4976.025
596.888	4996.925
600.89682	5139.425
604.9028	5615.225
608.90594	6826.725
612.90624	8477.525
616.90371	8267.425
620.89834	6108.625
624.89015	5054.025
628.87913	4837.725
632.86528	4854.125
636.84862	4898.625
640.82913	4867.825
644.80683	4720.325
648.78172	4598.125
652.75379	4611.225
656.72306	4774.025
660.68952	4973.225
664.65319	4966.925
668.61405	4758.725
672.57211	4658.625
676.52738	4654.225
680.47986	4666.125
684.42955	4639.825
688.37646	4639.825
692.32058	4663.025
696.26192	4693.125
700.20048	4739.225
704.13626	4768.325
708.06928	4764.625
711.99952	4725.525
715.927	4710.125
719.85171	4723.825
723.77365	4698.525
727.69284	4657.825
731.60928	4630.825
735.52295	4614.225
739.43388	4622.825
743.34206	4632.125
747.24749	4663.825
751.15017	4694.225
755.05012	4809.625
758.94733	5004.725
762.8418	5438.225
766.73354	6174.825
770.62254	6964.425
774.50882	7322.525
778.39237	7007.025
782.27321	6206.425
786.15132	5440.725
790.02671	4978.925
793.89938	4780.625
797.76935	4698.925
801.6366	4640.525
805.50115	4603.025
809.36299	4595.325
813.22213	4588.625
817.07857	4573.025
820.93231	4577.225
824.78336	4601.125
828.63172	4608.425
832.47738	4634.925
836.32036	4600.225
840.16066	4588.725
843.99827	4574.125
847.8332	4544.225
851.66546	4535.725
855.49504	4539.925
859.32195	4541.025
863.1462	4527.025
866.96777	4495.225
870.78668	4488.025
874.60293	4509.925
878.41652	4489.625
882.22745	4508.025
886.03573	4549.325
889.84136	4544.425
893.64433	4523.625
897.44466	4511.425
901.24235	4512.225
905.0374	4509.125
908.8298	4486.125
912.61957	4483.225
916.40671	4513.725
920.19121	4573.925
923.97308	4576.925
927.75233	4622.325
931.52895	4623.825
935.30295	4569.725
939.07433	4477.425
942.84309	4378.925
946.60924	4326.325
950.37278	4302.425
954.13371	4286.325
957.89203	4250.925
961.64774	4266.025
965.40086	4240.825
969.15137	4235.025
972.89929	4231.325
976.64461	4220.825
980.38733	4226.325
984.12747	4202.625
987.86502	4227.725
991.59999	4238.725
995.33237	4268.825
999.06217	4350.225
1002.78939	4416.625
1006.51404	4489.125
1010.23611	4575.525
1013.95561	4643.525
1017.67255	4622.025
1021.38692	4574.525
1025.09872	4516.025
1028.80796	4488.125
1032.51465	4480.125
1036.21877	4527.625
1039.92035	4569.825
1043.61937	4591.125
1047.31584	4600.625
1051.00976	4597.825
1054.70114	4585.425
1058.38998	4624.525
1062.07627	4661.625
1065.76003	4697.225
1069.44126	4721.125
1073.11995	4739.625
1076.79611	4788.225
1080.46974	4830.525
1084.14085	4901.125
1087.80943	4991.225
1091.47549	5047.125
1095.13903	4971.725
1098.80005	4843.625
1102.45857	4710.025
1106.11456	4643.125
1109.76805	4644.625
1113.41903	4684.425
1117.06751	4810.725
1120.71348	4937.225
1124.35696	5116.225
1127.99793	5264.125
1131.63641	5264.825
1135.2724	5080.125
1138.90589	4900.625
1142.5369	4774.425
1146.16542	4720.025
1149.79145	4682.725
1153.415	4690.825
1157.03607	4717.425
1160.65467	4784.925
1164.27079	4921.625
1167.88443	5154.025
1171.49561	5479.525
1175.10432	6026.725
1178.71056	6747.025
1182.31434	7224.225
1185.91565	7324.425
1189.51451	7145.125
1193.11091	6794.025
1196.70485	6380.425
1200.29634	6053.525
1203.88538	5798.025
1207.47197	5505.225
1211.05612	5244.825
1214.63782	5119.825
1218.21708	5060.925
1221.79391	5070.225
1225.36829	5095.925
1228.94024	5153.125
1232.50976	5179.725
1236.07685	5224.025
1239.6415	5217.425
1243.20374	5214.825
1246.76355	5232.325
1250.32093	5291.325
1253.8759	5374.225
1257.42845	5508.325
1260.97859	5639.425
1264.52631	5755.025
1268.07163	5878.425
1271.61453	6010.825
1275.15503	6098.625
1278.69312	6153.925
1282.22882	6188.525
1285.76211	6281.025
1289.29301	6449.025
1292.82151	6608.925
1296.34761	6782.525
1299.87133	7005.925
1303.39266	7433.625
1306.9116	8096.725
1310.42815	8879.225
1313.94233	9397.125
1317.45412	9364.625
1320.96354	8897.225
1324.47058	8344.225
1327.97525	7897.925
1331.47754	7605.025
1334.97747	7527.525
1338.47502	7573.425
1341.97022	7707.025
1345.46305	7870.325
1348.95352	8148.525
1352.44163	8494.525
1355.92738	9081.725
1359.41078	10089.125
1362.89183	11124.225
1366.37053	10975.125
1369.84688	9573.525
1373.32088	8125.425
1376.79254	7183.125
1380.26186	6705.725
1383.72883	6448.325
1387.19347	6293.525
1390.65578	6101.825
1394.11575	5930.125
1397.57339	5839.525
1401.0287	5859.325
1404.48168	5914.125
1407.93234	6014.025
1411.38068	6074.725
1414.82669	6079.025
1418.27039	5952.725
1421.71177	5846.525
1425.15083	5711.425
1428.58758	5617.725
1432.02203	5617.325
1435.45416	5631.025
1438.88399	5655.425
1442.31151	5671.325
1445.73673	5676.525
1449.15965	5702.825
1452.58027	5734.625
1455.9986	5705.325
1459.41463	5691.425
1462.82837	5728.425
1466.23982	5834.725
1469.64898	5927.325
1473.05586	6005.825
1476.46045	6068.925
1479.86276	6170.525
1483.26279	6292.825
1486.66054	6442.325
1490.05602	6643.425
1493.44922	6889.925
1496.84016	7251.925
1500.22882	7802.725
1503.61521	8529.325
1506.99934	9342.825
1510.38121	10153.525
1513.76081	10617.025
1517.13816	10314.325
1520.51324	9303.125
1523.88607	8234.525
1527.25665	7466.225
1530.62498	6996.525
1533.99105	6734.425
1537.35488	6528.325
1540.71647	6434.225
1544.07581	6362.425
1547.4329	6312.425
1550.78776	6266.725
1554.14038	6235.925
1557.49077	6287.725
1560.83892	6392.525
1564.18484	6530.525
1567.52853	6707.025
1570.86999	6808.325
1574.20922	6882.925
1577.54624	6826.125
1580.88103	6576.925
1584.2136	6222.325
1587.54395	6044.525
1590.87208	6083.825
1594.19801	6329.825
1597.52172	6673.525
1600.84321	6862.725
1604.16251	6660.525
1607.47959	6318.425
1610.79447	5935.025
1614.10715	5547.925
1617.41763	5243.725
1620.7259	5040.525
1624.03199	4929.225
1627.33587	4916.125
1630.63757	4988.725
1633.93707	5164.625
1637.23439	5441.925
1640.52951	5843.025
1643.82246	6396.625
1647.11321	6979.125
1650.40179	7481.925
1653.68819	7399.625
1656.97241	6648.125
1660.25446	5733.625
1663.53433	5033.325
1666.81203	4613.425
1670.08756	4369.425
1673.36092	4218.325
1676.63211	4138.725
1679.90115	4075.625
1683.16801	4033.125
1686.43272	3983.725
1689.69527	3940.725
1692.95567	3910.325
1696.2139	3856.725
1699.46999	3843.025
1702.72392	3820.925
1705.97571	3820.625
1709.22535	3844.725
1712.47284	3854.025
1715.71819	3865.425
1718.96139	3891.025
1722.20246	3882.525
1725.44139	3863.725
1728.67818	3840.725
1731.91284	3817.125
1735.14537	3806.025
1738.37576	3766.225
1741.60403	3757.825
1744.83017	3747.125
1748.05418	3723.725
1751.27607	3710.725
1754.49584	3712.325
1757.71349	3674.325
1760.92903	3663.725
1764.14244	3657.225
1767.35375	3643.925
1770.56294	3650.725
1773.77002	3642.325
1776.97499	3639.525
1780.17785	3642.325
1783.37861	3648.325
1786.57727	3646.325
1789.77382	3653.925
1792.96828	3633.025
1796.16064	3638.525
1799.3509	3621.625
1802.53907	3631.625
1805.72514	3603.525
1808.90913	3614.225
1812.09102	3576.725
1815.27083	3599.425
1818.44856	3591.725
1821.6242	3569.625
1824.79776	3559.725
1827.96924	3564.225
1831.13864	3547.225
1834.30597	3549.125
1837.47122	3563.125
1840.6344	3556.125
1843.7955	3554.825
1846.95454	3547.725
1850.11151	3548.825
1853.26642	3536.525
1856.41926	3533.425
1859.57004	3573.525
1862.71876	3555.225
1865.86542	3533.825
1869.01003	3553.325
1872.15258	3547.525
1875.29308	3544.925
1878.43152	3549.325
1881.56792	3559.325
1884.70227	3545.725
1887.83457	3540.725
1890.96482	3539.425
1894.09304	3544.725
1897.21921	3534.625
1900.34335	3532.925
1903.46544	3533.525
1906.58551	3535.725
1909.70353	3547.525
1912.81953	3527.225
1915.93349	3530.625
1919.04543	3518.125
1922.15534	3523.825
1925.26322	3522.625
1928.36908	3509.925
1931.47292	3487.325
1934.57473	3472.525
1937.67453	3474.025
1940.77232	3444.825
1943.86808	3430.725
1946.96184	3404.625
1950.05358	3386.225
1953.14331	3397.925
1956.23103	3365.725
1959.31675	3355.325
1962.40046	3342.625
1965.48217	3356.425
1968.56188	3334.925
1971.63959	3327.825
1974.7153	3313.525
1977.78901	3291.625
1980.86073	3280.825
1983.93046	3291.725
1986.99819	3275.025
1990.06394	3258.025
1993.1277	3252.625
1996.18947	3238.525
1999.24925	3229.225
2002.30706	3219.125
2005.36288	3206.125
2008.41672	3188.525
2011.46859	3201.425
2014.51848	3190.225
2017.56639	3176.025
2020.61233	3164.425
2023.6563	3169.825
2026.6983	3149.425
2029.73833	3145.325
2032.7764	3131.525
2035.8125	3123.325
2038.84664	3117.225
2041.87881	3103.625
2044.90903	3097.825
2047.93729	3086.625
2050.96359	3091.925
2053.98794	3078.425
2057.01034	3083.225
2060.03078	3090.625
2063.04927	3069.225
2066.06582	3074.925
2069.08042	3063.425
2072.09307	3074.325
2075.10378	3063.525
2078.11255	3056.425
2081.11938	3061.625
2084.12426	3075.025
2087.12722	3048.425
2090.12824	3047.325
2093.12732	3058.725
2096.12447	3058.725
2099.11969	3048.625
2102.11299	3049.725
2105.10435	3057.325
2108.09379	3053.125
2111.08131	3056.825
2114.0669	3050.225
2117.05057	3047.925
2120.03233	3056.325
2123.01216	3057.525
2125.99008	3077.325
2128.96609	3057.825
2131.94018	3076.625
2134.91236	3064.025
2137.88263	3056.425
2140.851	3070.325
2143.81746	3064.625
2146.78201	3066.225
2149.74466	3059.225
2152.7054	3076.025
2155.66425	3064.125
2158.6212	3056.825
2161.57625	3048.725
2164.52941	3039.825
2167.48067	3045.225
2170.43004	3048.325
2173.37752	3042.525
2176.32311	3037.825
2179.26681	3053.225
2182.20863	3035.625
2185.14856	3033.025
2188.08661	3044.525
2191.02278	3039.925
2193.95707	3037.325
2196.88948	3037.025
2199.82001	3033.325
2202.74867	3015.925
2205.67545	3023.525
2208.60037	3036.025
2211.52341	3010.325
2214.44458	3012.325
2217.36388	3002.925
2220.28132	2990.125
2223.1969	2976.525
2226.11061	2959.625
2229.02246	2975.925
2231.93245	2957.725
2234.84058	2944.825
2237.74686	2946.325
2240.65128	2951.325
2243.55385	2948.225
2246.45456	2939.825
2249.35343	2936.825
2252.25044	2945.825
2255.14561	2933.825
2258.03893	2926.925
2260.93041	2927.325
2263.82004	2918.025
2266.70783	2917.625
2269.59378	2907.425
2272.4779	2896.825
2275.36017	2888.825
2278.24061	2888.525
2281.11922	2876.925
2283.996	2878.225
2286.87094	2871.625
2289.74405	2857.825
2292.61534	2860.725
2295.4848	2846.025
2298.35243	2852.925
2301.21824	2839.125
2304.08223	2837.925
2306.94439	2838.325
2309.80474	2837.225
2312.66327	2836.825
2315.51999	2830.925
2318.37489	2832.925
2321.22797	2816.025
2324.07925	2821.025
2326.92871	2808.225
2329.77637	2827.125
2332.62222	2806.425
2335.46626	2805.125
2338.3085	2792.325
2341.14893	2798.325
2343.98756	2794.025
2346.8244	2793.625
2349.65943	2784.125
2352.49267	2804.425
2355.32411	2797.825
2358.15376	2793.825
2360.98161	2799.325
2363.80768	2795.225
2366.63195	2791.325
2369.45444	2802.825
2372.27514	2795.625
2375.09405	2784.525
2377.91118	2773.125
2380.72652	2774.025
2383.54009	2763.325
2386.35187	2746.225
2389.16188	2739.825
2391.97011	2738.425
2394.77657	2715.225
2397.58125	2719.025
2400.38416	2718.525
2403.18529	2704.725
2405.98466	2701.425
2408.78226	2688.725
2411.57809	2690.225
2414.37216	2694.925
2417.16446	2678.425
2419.955	2682.925
2422.74378	2677.625
2425.5308	2679.525
2428.31606	2680.025
2431.09956	2682.425
2433.88131	2667.825
2436.6613	2673.025
2439.43954	2675.125
2442.21603	2659.325
2444.99077	2665.325
2447.76377	2656.325
2450.53501	2660.425
2453.30451	2664.625
2456.07226	2658.325
2458.83827	2650.625
2461.60254	2640.225
2464.36507	2660.125
2467.12586	2645.925
2469.88492	2638.525
2472.64224	2645.125
2475.39782	2638.225
2478.15167	2634.025
2480.90379	2630.625
2483.65417	2645.025
2486.40283	2648.225
2489.14976	2660.425
2491.89497	2653.425
2494.63845	2651.525
2497.3802	2638.425
2500.12024	2642.025
2502.85855	2640.925
2505.59514	2632.725
2508.33002	2621.525
2511.06318	2629.725
2513.79462	2614.325
2516.52435	2606.025
2519.25237	2611.225
2521.97867	2597.325
2524.70327	2591.425
2527.42616	2587.525
2530.14734	2573.525
2532.86681	2564.725
2535.58458	2575.325
2538.30065	2570.025
2541.01501	2566.625
2543.72768	2558.425
2546.43864	2576.725
2549.14791	2565.625
2551.85548	2561.525
2554.56136	2547.325
2557.26554	2552.325
2559.96803	2543.825
2562.66883	2549.125
2565.36794	2537.925
2568.06536	2541.425
2570.7611	2526.725
2573.45514	2534.025
2576.14751	2519.625
2578.83819	2514.725
2581.52719	2504.025
2584.21451	2502.025
2586.90015	2508.025
2589.58411	2485.825
2592.2664	2499.825
2594.94701	2485.725
2597.62594	2495.225
2600.30321	2487.025
2602.9788	2479.925
2605.65273	2485.125
2608.32498	2480.425
2610.99557	2474.725
2613.66449	2486.925
2616.33175	2466.325
2618.99734	2476.125
2621.66128	2475.425
2624.32355	2467.825
2626.98416	2471.925
2629.64311	2473.725
2632.30041	2458.025
2634.95605	2451.625
2637.61004	2445.025
2640.26238	2459.825
2642.91306	2443.425
2645.56209	2444.025
2648.20948	2438.025
2650.85521	2441.025
2653.4993	2432.825
2656.14175	2434.025
2658.78255	2438.325
2661.42171	2433.825
2664.05923	2448.125
2666.6951	2449.425
2669.32934	2451.325
2671.96194	2448.125
2674.59291	2457.325
2677.22224	2443.325
2679.84993	2458.925
2682.476	2445.025
2685.10043	2450.825
2687.72324	2446.225
2690.34441	2437.125
2692.96396	2429.125
2695.58188	2452.825
2698.19818	2437.425
2700.81285	2440.025
2703.4259	2447.025
2706.03733	2443.025
2708.64714	2425.325
2711.25533	2434.125
2713.86191	2438.225
2716.46687	2441.025
2719.07021	2451.825
2721.67194	2443.225
2724.27206	2447.025
2726.87057	2450.825
2729.46747	2450.125
2732.06276	2460.625
2734.65644	2443.925
2737.24852	2437.725
2739.83899	2442.525
2742.42786	2445.425
2745.01513	2432.725
2747.60079	2427.625
2750.18486	2425.525
2752.76733	2419.525
2755.3482	2424.525
2757.92747	2416.425
2760.50515	2414.025
2763.08123	2404.725
2765.65573	2407.725
2768.22863	2397.425
2770.79994	2403.025
2773.36967	2402.825
2775.9378	2396.125
2778.50435	2397.525
2781.06932	2407.125
2783.6327	2390.125
2786.1945	2387.325
2788.75471	2376.825
2791.31335	2376.225
2793.87041	2384.325
2796.42589	2381.625
2798.97979	2362.825
2801.53212	2374.425
2804.08288	2372.925
2806.63206	2368.825
2809.17967	2355.625
2811.72571	2373.325
2814.27018	2368.125
2816.81308	2368.025
2819.35442	2360.825
2821.89419	2358.925
2824.43239	2368.825
2826.96904	2359.625
2829.50412	2373.225
2832.03763	2370.025
2834.56959	2367.225
2837.1	2375.625
2839.62884	2382.525
2842.15613	2392.225
2844.68186	2414.825
2847.20604	2434.125
2849.72867	2461.025
2852.24974	2479.125
2854.76927	2468.625
2857.28724	2453.325
2859.80367	2448.325
2862.31855	2451.125
2864.83189	2442.725
2867.34368	2428.025
2869.85393	2430.925
2872.36264	2417.725
2874.8698	2426.725
2877.37543	2422.825
2879.87952	2429.125
2882.38207	2419.225
2884.88308	2412.825
2887.38256	2417.225
2889.88051	2407.925
2892.37692	2418.425
2894.8718	2416.925
2897.36515	2420.225
2899.85698	2408.125
2902.34727	2418.325
2904.83604	2432.825
2907.32328	2427.825
2909.809	2421.325
2912.29319	2421.825
2914.77587	2420.525
2917.25702	2411.025
2919.73665	2406.625
2922.21476	2415.025
2924.69136	2407.725
2927.16644	2407.425
2929.64	2400.425
2932.11205	2407.825
2934.58258	2388.925
2937.05161	2393.225
2939.51912	2379.425
2941.98513	2367.525
2944.44962	2357.125
2946.91261	2340.225
2949.37409	2330.125
2951.83407	2320.225
2954.29254	2328.725
2956.74951	2314.125
2959.20498	2308.425
2961.65895	2292.325
2964.11142	2304.225
2966.56239	2283.725
2969.01186	2280.925
2971.45984	2274.825
2973.90632	2276.725
2976.35131	2274.925
2978.7948	2262.025
2981.23681	2260.625
2983.67732	2251.625
2986.11635	2250.025
2988.55388	2257.625
2990.98993	2236.025
2993.4245	2228.625
2995.85758	2222.725
2998.28917	2231.825
3000.71928	2221.525
3003.14791	2210.725
3005.57506	2227.225
3008.00073	2215.625
3010.42493	2207.425
3012.84764	2213.825
3015.26888	2205.925
3017.68865	2205.825
3020.10694	2201.825
3022.52376	2201.025
3024.9391	2186.225
3027.35298	2189.325
3029.76539	2191.825
3032.17632	2184.225
3034.5858	2197.025
3036.9938	2194.725
3039.40034	2186.225
3041.80542	2189.625
3044.20903	2183.925
3046.61118	2177.025
3049.01187	2174.325
3051.4111	2185.225
3053.80888	2171.325
3056.20519	2180.825
3058.60005	2176.525
3060.99345	2165.825
3063.3854	2158.125
3065.7759	2162.425
3068.16494	2169.925
3070.55254	2155.025
3072.93868	2146.525
3075.32338	2154.625
3077.70662	2141.125
3080.08842	2129.025
3082.46878	2140.325
3084.84769	2140.825
3087.22515	2139.425
3089.60118	2147.725
3091.97576	2141.125
3094.3489	2143.025
3096.72061	2140.125
3099.09087	2143.825
3101.4597	2142.025
3103.82709	2144.825
3106.19305	2139.025
3108.55757	2147.325
3110.92066	2140.225
3113.28232	2141.525
3115.64255	2134.825
3118.00134	2143.825
3120.35871	2136.425
3122.71466	2147.625
3125.06917	2137.825
3127.42226	2138.325
3129.77393	2138.325
3132.12417	2141.125
3134.47299	2151.725
3136.82039	2156.125
3139.16636	2159.825
3141.51092	2160.525
3143.85406	2176.425
3146.19579	2177.725
3148.53609	2175.225
3150.87499	2185.625
3153.21246	2185.225
3155.54853	2191.225
3157.88318	2188.925
3160.21642	2194.725
3162.54826	2201.025
3164.87868	2216.725
3167.2077	2214.525
3169.5353	2214.125
3171.86151	2214.425
3174.18631	2228.425
3176.5097	2228.425
3178.83169	2219.325
3181.15228	2228.625
3183.47147	2226.625
3185.78926	2226.125
3188.10565	2233.625
3190.42065	2234.625
3192.73424	2237.725
3195.04645	2240.325
3197.35725	2233.225
3199.66667	2247.825
3201.97469	2243.125
3204.28132	2250.225
3206.58656	2256.825
3208.8904	2266.325
3211.19287	2254.725
3213.49394	2264.825
3215.79363	2278.925
3218.09193	2269.525
3220.38884	2267.525
3222.68438	2281.725
3224.97853	2272.125
3227.2713	2267.225
3229.56269	2271.525
3231.8527	2267.825
3234.14133	2276.825
3236.42858	2269.825
3238.71446	2263.125
3240.99896	2255.925
3243.28209	2259.025
3245.56384	2262.425
3247.84423	2248.525
3250.12324	2248.925
3252.40088	2255.625
3254.67715	2256.425
3256.95205	2256.125
3259.22558	2254.225
3261.49775	2249.525
3263.76855	2254.025
3266.03799	2241.925
3268.30606	2234.225
3270.57277	2242.125
3272.83812	2231.925
3275.10211	2224.125
3277.36474	2213.725
3279.62601	2221.125
3281.88593	2217.225
3284.14448	2222.725
3286.40168	2218.025
3288.65753	2216.525
3290.91202	2211.925
3293.16516	2208.325
3295.41695	2212.425
3297.66738	2200.625
3299.91647	2194.225
3302.16421	2174.225
3304.4106	2168.025
3306.65564	2151.725
3308.89933	2145.625
3311.14169	2125.525
3313.38269	2111.525
3315.62236	2089.725
3317.86068	2073.025
3320.09766	2060.525
3322.3333	2041.925
3324.5676	2039.125
3326.80056	2005.725
3329.03219	1989.825
3331.26248	0.925
3333.49143	0.625
3335.71905	-1.975
