Data from AgNPs_FTO_APTES_UA_1uM_CRN_500uM_R6G_10uM_NaF_0.1M_Addition_RamanShift__16__18-03-19-878.txt Node

Date: Thu Jan 27 18:03:19 GMT 2022
User: TCL
Spectrometer: QEP01345
Trigger mode: 4
Integration Time (sec): 7.000000E0
Scans to average: 10
Electric dark correction enabled: true
Nonlinearity correction enabled: false
Boxcar width: 0
XAxis mode: Raman Shifts
Number of Pixels in Spectrum: 1044
>>>>>Begin Spectral Data<<<<<
46.04893	0
50.45542	0.9
54.85868	-1.5
59.25871	-1
63.6555	42.7
68.04907	45.1
72.43941	46.8
76.82654	57
81.21044	53.7
85.59113	53.6
89.96862	56.3
94.34289	60.8
98.71396	61.7
103.08183	58.9
107.4465	63.2
111.80798	66.6
116.16626	64
120.52136	69.4
124.87327	72.3
129.222	67.7
133.56755	72.8
137.90993	72.2
142.24913	79.8
146.58517	85.2
150.91804	102.1
155.24774	114.2
159.57429	133.6
163.89768	172.5
168.21792	221.8
172.53501	294.9
176.84895	402.4
181.15975	562.4
185.46741	791.6
189.77193	1080
194.07331	1446.6
198.37157	1878.3
202.6667	2332.5
206.9587	2772.9
211.24758	3209.5
215.53334	3628.5
219.81599	4108.8
224.09553	4597.4
228.37195	5157.1
232.64527	5724.8
236.91549	6387.1
241.18261	7014.6
245.44663	7636.7
249.70755	8151.3
253.96539	8627.3
258.22014	8997.8
262.4718	9310
266.72039	9523
270.96589	9636.5
275.20832	9650.1
279.44768	9546.7
283.68397	9451.2
287.91719	9363.2
292.14735	9264.8
296.37445	9260.4
300.59849	9317.2
304.81948	9350.9
309.03742	9385
313.25231	9283.6
317.46415	9067
321.67296	8762.9
325.87872	8537.2
330.08145	8405.9
334.28114	8400.7
338.47781	8465.2
342.67145	8557.8
346.86207	8723.8
351.04966	8901.4
355.23424	9109.9
359.4158	9271.5
363.59435	9361.5
367.76989	9482.6
371.94243	9526.8
376.11196	9572.6
380.27849	9647.2
384.44203	9690
388.60257	9728.8
392.76012	9774.5
396.91468	9847.9
401.06626	9990.7
405.21485	10103.5
409.36047	10074.2
413.50311	9919.2
417.64277	9779.5
421.77947	9724.1
425.9132	9746.5
430.04396	9777.8
434.17176	9799.8
438.2966	9825.1
442.41849	9949.8
446.53742	10122.2
450.6534	10278.3
454.76644	10440.9
458.87653	10479.8
462.98368	10451
467.08789	10397
471.18916	10335
475.2875	10202
479.38291	10145.3
483.4754	10059.9
487.56496	9973.1
491.6516	9911
495.73531	9857
499.81612	9874
503.89401	9929.4
507.96899	9991.3
512.04106	9995.6
516.11023	9968.8
520.1765	9941.6
524.23987	9839.5
528.30034	9752.4
532.35792	9666
536.41261	9582.2
540.46441	9491.7
544.51333	9471.9
548.55936	9544.4
552.60252	9702.1
556.64279	9859.1
560.6802	9948.4
564.71473	10001.7
568.7464	10123.6
572.7752	10317.9
576.80114	10485.3
580.82422	10568.2
584.84444	10756.3
588.86181	10921
592.87633	11008.3
596.888	10933.4
600.89682	10880.2
604.9028	11100.6
608.90594	12062.6
612.90624	13254.5
616.90371	12805.8
620.89834	10812.3
624.89015	9854.3
628.87913	9696.6
632.86528	9757.3
636.84862	9816.6
640.82913	9737.5
644.80683	9588.8
648.78172	9437.2
652.75379	9401.9
656.72306	9463.1
660.68952	9627.9
664.65319	9610.9
668.61405	9489.4
672.57211	9467.4
676.52738	9532
680.47986	9609.6
684.42955	9594.3
688.37646	9506.4
692.32058	9428.9
696.26192	9450.4
700.20048	9471.8
704.13626	9516.6
708.06928	9495.5
711.99952	9463.2
715.927	9450.9
719.85171	9457.6
723.77365	9434.2
727.69284	9382.1
731.60928	9309.3
735.52295	9281.8
739.43388	9276.7
743.34206	9295.5
747.24749	9338.8
751.15017	9375.4
755.05012	9470.8
758.94733	9682.9
762.8418	10089.4
766.73354	10798.2
770.62254	11572.8
774.50882	11909.2
778.39237	11521.7
782.27321	10733.2
786.15132	9994.6
790.02671	9539
793.89938	9350.2
797.76935	9258.2
801.6366	9226.6
805.50115	9203.3
809.36299	9162.4
813.22213	9081.8
817.07857	9053.6
820.93231	8995.4
824.78336	8965.4
828.63172	8975
832.47738	9001.3
836.32036	8986.9
840.16066	8972.2
843.99827	8996.6
847.8332	8959.7
851.66546	8951
855.49504	8921.4
859.32195	8970.9
863.1462	8928.6
866.96777	8952.9
870.78668	8951.6
874.60293	8949.1
878.41652	8930.6
882.22745	8934.7
886.03573	8995.4
889.84136	8992.9
893.64433	8990.5
897.44466	8950.8
901.24235	8912.7
905.0374	8872.8
908.8298	8823.2
912.61957	8826.3
916.40671	8863.4
920.19121	8928.3
923.97308	9009
927.75233	9038.1
931.52895	9039.7
935.30295	8969.8
939.07433	8832.2
942.84309	8690.3
946.60924	8619
950.37278	8572
954.13371	8542.3
957.89203	8511.6
961.64774	8476.7
965.40086	8478.4
969.15137	8425.4
972.89929	8402.1
976.64461	8365
980.38733	8347
984.12747	8375.7
987.86502	8374.4
991.59999	8458
995.33237	8542.3
999.06217	8669.9
1002.78939	8813.4
1006.51404	8924.7
1010.23611	8975.3
1013.95561	9064.1
1017.67255	9090.5
1021.38692	9049.4
1025.09872	8985.9
1028.80796	8938.1
1032.51465	9015
1036.21877	9128.7
1039.92035	9162.7
1043.61937	9132.9
1047.31584	9076.3
1051.00976	9008.8
1054.70114	8956.5
1058.38998	8984.2
1062.07627	9034.8
1065.76003	9080.6
1069.44126	9159.5
1073.11995	9267.4
1076.79611	9378.9
1080.46974	9420.9
1084.14085	9400
1087.80943	9432.9
1091.47549	9470.1
1095.13903	9489.2
1098.80005	9372.2
1102.45857	9215
1106.11456	9066.6
1109.76805	9016.6
1113.41903	9034.3
1117.06751	9136.4
1120.71348	9247.6
1124.35696	9377.7
1127.99793	9541.6
1131.63641	9653.3
1135.2724	9533.2
1138.90589	9375.6
1142.5369	9297.4
1146.16542	9228.3
1149.79145	9217.6
1153.415	9217.6
1157.03607	9315
1160.65467	9475.7
1164.27079	9770.1
1167.88443	10199.1
1171.49561	10728.8
1175.10432	11376.4
1178.71056	12265.8
1182.31434	13107.6
1185.91565	13548.9
1189.51451	13518.7
1193.11091	13178.5
1196.70485	12613.5
1200.29634	12068.4
1203.88538	11604.5
1207.47197	11243.5
1211.05612	10913.1
1214.63782	10685.8
1218.21708	10536.3
1221.79391	10424.6
1225.36829	10401.9
1228.94024	10344.7
1232.50976	10222.5
1236.07685	10111.7
1239.6415	10047.6
1243.20374	10007.9
1246.76355	10029.5
1250.32093	10125.4
1253.8759	10230.7
1257.42845	10448.1
1260.97859	10686.2
1264.52631	10923.4
1268.07163	11157.9
1271.61453	11430.9
1275.15503	11680.5
1278.69312	11933
1282.22882	12207.3
1285.76211	12416.1
1289.29301	12700.8
1292.82151	13102.2
1296.34761	13592.4
1299.87133	14278
1303.39266	15054.3
1306.9116	15972.9
1310.42815	16865.9
1313.94233	17399.6
1317.45412	17297.7
1320.96354	16831.3
1324.47058	16294.2
1327.97525	15862.1
1331.47754	15539.6
1334.97747	15372.9
1338.47502	15293
1341.97022	15254.6
1345.46305	15264.8
1348.95352	15357
1352.44163	15567.6
1355.92738	16095.6
1359.41078	16899.6
1362.89183	17735
1366.37053	17596.6
1369.84688	16218.2
1373.32088	14373.5
1376.79254	13072.1
1380.26186	12421
1383.72883	12185.8
1387.19347	12040.7
1390.65578	11844.8
1394.11575	11740.3
1397.57339	11751.9
1401.0287	11891
1404.48168	12100.6
1407.93234	12115
1411.38068	12018.4
1414.82669	11781.5
1418.27039	11503.9
1421.71177	11171.8
1425.15083	10850.1
1428.58758	10672.6
1432.02203	10665.6
1435.45416	10804.7
1438.88399	11032.2
1442.31151	11187.1
1445.73673	11286.2
1449.15965	11382.2
1452.58027	11474.7
1455.9986	11537.2
1459.41463	11554.1
1462.82837	11704.2
1466.23982	11877
1469.64898	12063.4
1473.05586	12193.5
1476.46045	12238.7
1479.86276	12214
1483.26279	12203.5
1486.66054	12210.8
1490.05602	12267.6
1493.44922	12445.6
1496.84016	12687.3
1500.22882	13154.5
1503.61521	13850.2
1506.99934	14663.4
1510.38121	15341.5
1513.76081	15564.9
1517.13816	15116.9
1520.51324	14192.7
1523.88607	13362.7
1527.25665	12789.7
1530.62498	12485.4
1533.99105	12312.7
1537.35488	12172.4
1540.71647	12038.2
1544.07581	11858.1
1547.4329	11681.3
1550.78776	11520.3
1554.14038	11409
1557.49077	11348
1560.83892	11347.8
1564.18484	11375.9
1567.52853	11468
1570.86999	11611.4
1574.20922	11814.6
1577.54624	11918.4
1580.88103	11853.1
1584.2136	11628.1
1587.54395	11611.9
1590.87208	11890.4
1594.19801	12384.3
1597.52172	13072.3
1600.84321	13409.4
1604.16251	13155.9
1607.47959	12439.7
1610.79447	11613.1
1614.10715	10780.9
1617.41763	10082.3
1620.7259	9566.4
1624.03199	9266.6
1627.33587	9177.8
1630.63757	9307.3
1633.93707	9697.8
1637.23439	10332.3
1640.52951	11295.8
1643.82246	12529.3
1647.11321	13679.6
1650.40179	14215.3
1653.68819	13656.6
1656.97241	12238.2
1660.25446	10691.6
1663.53433	9531.2
1666.81203	8800.4
1670.08756	8394.2
1673.36092	8095.5
1676.63211	7934.1
1679.90115	7813.6
1683.16801	7711.8
1686.43272	7618.3
1689.69527	7552.6
1692.95567	7482
1696.2139	7430.2
1699.46999	7359.2
1702.72392	7311.9
1705.97571	7346.6
1709.22535	7357.3
1712.47284	7369
1715.71819	7354.2
1718.96139	7385.6
1722.20246	7337.1
1725.44139	7328.9
1728.67818	7299.3
1731.91284	7259.8
1735.14537	7242.1
1738.37576	7229.8
1741.60403	7204
1744.83017	7176
1748.05418	7171.9
1751.27607	7191.7
1754.49584	7177.1
1757.71349	7162.1
1760.92903	7138.6
1764.14244	7091.7
1767.35375	7057.3
1770.56294	7020.1
1773.77002	6998.1
1776.97499	6984.7
1780.17785	6983
1783.37861	6983.4
1786.57727	6959.3
1789.77382	6964.9
1792.96828	6933.7
1796.16064	6922.7
1799.3509	6898.7
1802.53907	6885.6
1805.72514	6861
1808.90913	6843.7
1812.09102	6846.3
1815.27083	6815.9
1818.44856	6789.1
1821.6242	6790.8
1824.79776	6760.1
1827.96924	6790.6
1831.13864	6775.8
1834.30597	6775.6
1837.47122	6762.4
1840.6344	6746.8
1843.7955	6749.2
1846.95454	6756.6
1850.11151	6740.3
1853.26642	6747.5
1856.41926	6737.6
1859.57004	6744.7
1862.71876	6717.1
1865.86542	6725.3
1869.01003	6731
1872.15258	6700.7
1875.29308	6711.1
1878.43152	6705
1881.56792	6668.9
1884.70227	6677.4
1887.83457	6658.2
1890.96482	6658
1894.09304	6662.2
1897.21921	6644.5
1900.34335	6637.3
1903.46544	6616.2
1906.58551	6632.8
1909.70353	6594.5
1912.81953	6595
1915.93349	6588.6
1919.04543	6561.4
1922.15534	6570.5
1925.26322	6546.2
1928.36908	6542.4
1931.47292	6529.1
1934.57473	6486.9
1937.67453	6482.4
1940.77232	6468.6
1943.86808	6448.6
1946.96184	6433.8
1950.05358	6417
1953.14331	6388.3
1956.23103	6390.2
1959.31675	6368.1
1962.40046	6351.8
1965.48217	6334.3
1968.56188	6297.1
1971.63959	6273.9
1974.7153	6293.2
1977.78901	6272.5
1980.86073	6233.6
1983.93046	6225.7
1986.99819	6209.6
1990.06394	6176.3
1993.1277	6165.2
1996.18947	6127.3
1999.24925	6123.5
2002.30706	6130.5
2005.36288	6097.1
2008.41672	6078.9
2011.46859	6067.4
2014.51848	6064.4
2017.56639	6019.5
2020.61233	6026
2023.6563	6003.2
2026.6983	5985.3
2029.73833	5989.5
2032.7764	5972.3
2035.8125	5951
2038.84664	5926.6
2041.87881	5930
2044.90903	5931.4
2047.93729	5897
2050.96359	5900.9
2053.98794	5884.8
2057.01034	5873.1
2060.03078	5867.4
2063.04927	5874.2
2066.06582	5870.1
2069.08042	5854.9
2072.09307	5849.3
2075.10378	5852.1
2078.11255	5852
2081.11938	5861.1
2084.12426	5829.8
2087.12722	5848
2090.12824	5829.3
2093.12732	5838
2096.12447	5823
2099.11969	5845.1
2102.11299	5836.3
2105.10435	5836.7
2108.09379	5849.8
2111.08131	5847.5
2114.0669	5861.7
2117.05057	5853.9
2120.03233	5853.8
2123.01216	5867.7
2125.99008	5876.1
2128.96609	5880.6
2131.94018	5872.1
2134.91236	5888.1
2137.88263	5893.7
2140.851	5883.2
2143.81746	5877.8
2146.78201	5882.8
2149.74466	5891.1
2152.7054	5893
2155.66425	5895.9
2158.6212	5876
2161.57625	5861.8
2164.52941	5866.9
2167.48067	5874.9
2170.43004	5886.6
2173.37752	5880.7
2176.32311	5882.2
2179.26681	5881.8
2182.20863	5864.9
2185.14856	5857.1
2188.08661	5872.4
2191.02278	5875
2193.95707	5863.5
2196.88948	5855.4
2199.82001	5847.2
2202.74867	5848
2205.67545	5849.5
2208.60037	5848.1
2211.52341	5800.1
2214.44458	5819
2217.36388	5803.8
2220.28132	5810.3
2223.1969	5781.9
2226.11061	5790.8
2229.02246	5758.3
2231.93245	5756.9
2234.84058	5763.7
2237.74686	5739.9
2240.65128	5740.4
2243.55385	5714.6
2246.45456	5715.3
2249.35343	5701.2
2252.25044	5683.6
2255.14561	5679.6
2258.03893	5669.2
2260.93041	5669.8
2263.82004	5647.2
2266.70783	5649.9
2269.59378	5624.4
2272.4779	5607.5
2275.36017	5601.6
2278.24061	5590.7
2281.11922	5588.4
2283.996	5583.5
2286.87094	5573.9
2289.74405	5550.8
2292.61534	5552.1
2295.4848	5542.5
2298.35243	5531.3
2301.21824	5542.9
2304.08223	5538.2
2306.94439	5532.5
2309.80474	5554.9
2312.66327	5517.6
2315.51999	5526.1
2318.37489	5534.3
2321.22797	5512
2324.07925	5515.5
2326.92871	5506.9
2329.77637	5498.5
2332.62222	5491.7
2335.46626	5485.2
2338.3085	5484.1
2341.14893	5475.2
2343.98756	5471.9
2346.8244	5467.7
2349.65943	5458.9
2352.49267	5466
2355.32411	5458.4
2358.15376	5460.5
2360.98161	5451.8
2363.80768	5450.8
2366.63195	5467.6
2369.45444	5442.4
2372.27514	5429.6
2375.09405	5432.7
2377.91118	5439.6
2380.72652	5397
2383.54009	5381.7
2386.35187	5374.2
2389.16188	5364.7
2391.97011	5352.8
2394.77657	5352.4
2397.58125	5336.7
2400.38416	5315
2403.18529	5313.5
2405.98466	5321.1
2408.78226	5294.5
2411.57809	5299.8
2414.37216	5282.1
2417.16446	5282.8
2419.955	5245.8
2422.74378	5278.7
2425.5308	5268.3
2428.31606	5273.7
2431.09956	5267.3
2433.88131	5270.4
2436.6613	5256.2
2439.43954	5254.1
2442.21603	5244.1
2444.99077	5240
2447.76377	5248
2450.53501	5236.8
2453.30451	5227.6
2456.07226	5242.5
2458.83827	5225.9
2461.60254	5220.1
2464.36507	5222.4
2467.12586	5216.8
2469.88492	5210.8
2472.64224	5236.9
2475.39782	5209.7
2478.15167	5199.7
2480.90379	5202.7
2483.65417	5216.1
2486.40283	5209.8
2489.14976	5212.7
2491.89497	5199.3
2494.63845	5187
2497.3802	5174.3
2500.12024	5186.7
2502.85855	5198.4
2505.59514	5193.4
2508.33002	5188.2
2511.06318	5160.5
2513.79462	5163.8
2516.52435	5157.7
2519.25237	5145.4
2521.97867	5136.7
2524.70327	5141.2
2527.42616	5132
2530.14734	5131.7
2532.86681	5131.3
2535.58458	5103.8
2538.30065	5103.3
2541.01501	5113.3
2543.72768	5111
2546.43864	5110.4
2549.14791	5092.1
2551.85548	5088.8
2554.56136	5075.6
2557.26554	5071.7
2559.96803	5063.8
2562.66883	5064.7
2565.36794	5052.9
2568.06536	5044
2570.7611	5016.1
2573.45514	5051.7
2576.14751	5020
2578.83819	5017.3
2581.52719	5002.6
2584.21451	5002.6
2586.90015	5005.4
2589.58411	4993.8
2592.2664	4992
2594.94701	4980.7
2597.62594	4969.8
2600.30321	4972.3
2602.9788	4947.5
2605.65273	4957.7
2608.32498	4942.3
2610.99557	4956.7
2613.66449	4950.5
2616.33175	4948.5
2618.99734	4938.5
2621.66128	4940.6
2624.32355	4917.5
2626.98416	4932.6
2629.64311	4936.5
2632.30041	4936.2
2634.95605	4912.4
2637.61004	4891.5
2640.26238	4886.9
2642.91306	4891
2645.56209	4884.9
2648.20948	4883.1
2650.85521	4860.6
2653.4993	4886.2
2656.14175	4898.2
2658.78255	4899.7
2661.42171	4892.9
2664.05923	4902.5
2666.6951	4886.6
2669.32934	4903.2
2671.96194	4885.9
2674.59291	4889.1
2677.22224	4890.2
2679.84993	4893.8
2682.476	4883.6
2685.10043	4886.8
2687.72324	4874.1
2690.34441	4879.5
2692.96396	4871.3
2695.58188	4878
2698.19818	4883.9
2700.81285	4876.9
2703.4259	4883.9
2706.03733	4853.6
2708.64714	4853.7
2711.25533	4872
2713.86191	4856.3
2716.46687	4868.8
2719.07021	4866.4
2721.67194	4889.1
2724.27206	4886.7
2726.87057	4908.4
2729.46747	4900.9
2732.06276	4891.1
2734.65644	4891.6
2737.24852	4889.2
2739.83899	4895.3
2742.42786	4887.7
2745.01513	4864
2747.60079	4858.4
2750.18486	4859.1
2752.76733	4862.4
2755.3482	4846
2757.92747	4847.8
2760.50515	4850.1
2763.08123	4836.6
2765.65573	4834.4
2768.22863	4849.5
2770.79994	4831.6
2773.36967	4830.7
2775.9378	4846.2
2778.50435	4834.6
2781.06932	4824.9
2783.6327	4830.8
2786.1945	4827.8
2788.75471	4809.8
2791.31335	4798.5
2793.87041	4800.6
2796.42589	4783.9
2798.97979	4789.4
2801.53212	4786.1
2804.08288	4768
2806.63206	4765.5
2809.17967	4753.1
2811.72571	4766.2
2814.27018	4751.9
2816.81308	4723.1
2819.35442	4724.6
2821.89419	4734.4
2824.43239	4717.3
2826.96904	4716.8
2829.50412	4730.3
2832.03763	4706.4
2834.56959	4709.9
2837.1	4713.3
2839.62884	4738.2
2842.15613	4745.8
2844.68186	4781.2
2847.20604	4777.2
2849.72867	4795.5
2852.24974	4805.2
2854.76927	4783.3
2857.28724	4777.7
2859.80367	4790
2862.31855	4785.9
2864.83189	4774.8
2867.34368	4762.3
2869.85393	4778.1
2872.36264	4771.1
2874.8698	4768.9
2877.37543	4755.1
2879.87952	4765
2882.38207	4766.1
2884.88308	4760.3
2887.38256	4763.4
2889.88051	4760.8
2892.37692	4763.6
2894.8718	4770.8
2897.36515	4789.1
2899.85698	4797.4
2902.34727	4803.7
2904.83604	4829.6
2907.32328	4813.7
2909.809	4809.4
2912.29319	4824.2
2914.77587	4836.8
2917.25702	4826.1
2919.73665	4823.5
2922.21476	4842.4
2924.69136	4831.6
2927.16644	4831.8
2929.64	4833.5
2932.11205	4834.9
2934.58258	4817.4
2937.05161	4819.6
2939.51912	4840.4
2941.98513	4808.9
2944.44962	4793.5
2946.91261	4781.3
2949.37409	4778.5
2951.83407	4771.5
2954.29254	4756.7
2956.74951	4742.1
2959.20498	4751.5
2961.65895	4732.9
2964.11142	4749.7
2966.56239	4715.5
2969.01186	4691.6
2971.45984	4691.3
2973.90632	4697.1
2976.35131	4681.2
2978.7948	4658.7
2981.23681	4666.6
2983.67732	4635.6
2986.11635	4638.6
2988.55388	4620.3
2990.98993	4599.7
2993.4245	4594.2
2995.85758	4583.5
2998.28917	4586.4
3000.71928	4574.1
3003.14791	4563.5
3005.57506	4566.5
3008.00073	4554.7
3010.42493	4546.9
3012.84764	4539.7
3015.26888	4539.5
3017.68865	4536.8
3020.10694	4531.5
3022.52376	4515.4
3024.9391	4500.4
3027.35298	4514.8
3029.76539	4498.8
3032.17632	4492.2
3034.5858	4494.3
3036.9938	4497.1
3039.40034	4490.4
3041.80542	4485
3044.20903	4484.6
3046.61118	4487.6
3049.01187	4475.7
3051.4111	4482.5
3053.80888	4459.4
3056.20519	4479
3058.60005	4448.9
3060.99345	4444.5
3063.3854	4419.8
3065.7759	4441.4
3068.16494	4436.8
3070.55254	4424.4
3072.93868	4422
3075.32338	4400.3
3077.70662	4414.7
3080.08842	4383.9
3082.46878	4397.3
3084.84769	4415.3
3087.22515	4407.7
3089.60118	4403.3
3091.97576	4405.6
3094.3489	4405.9
3096.72061	4417.7
3099.09087	4418.9
3101.4597	4400.2
3103.82709	4416.4
3106.19305	4416.3
3108.55757	4430
3110.92066	4414.8
3113.28232	4406.2
3115.64255	4398.1
3118.00134	4405.1
3120.35871	4412.9
3122.71466	4403.6
3125.06917	4402.6
3127.42226	4397.2
3129.77393	4404.6
3132.12417	4400.5
3134.47299	4401.9
3136.82039	4404.2
3139.16636	4420.8
3141.51092	4413.8
3143.85406	4420.3
3146.19579	4440.7
3148.53609	4438.2
3150.87499	4459.9
3153.21246	4465.8
3155.54853	4471.1
3157.88318	4474.5
3160.21642	4468.3
3162.54826	4491.6
3164.87868	4481.9
3167.2077	4475
3169.5353	4498.2
3171.86151	4488.6
3174.18631	4489.5
3176.5097	4496.3
3178.83169	4500.4
3181.15228	4497.7
3183.47147	4492.8
3185.78926	4480.2
3188.10565	4505.1
3190.42065	4488.5
3192.73424	4492
3195.04645	4490.8
3197.35725	4507.4
3199.66667	4512.2
3201.97469	4503.5
3204.28132	4500.2
3206.58656	4524.7
3208.8904	4532.5
3211.19287	4532.7
3213.49394	4537.6
3215.79363	4538
3218.09193	4532.5
3220.38884	4559.7
3222.68438	4539
3224.97853	4538
3227.2713	4547.3
3229.56269	4560.2
3231.8527	4543.1
3234.14133	4541.1
3236.42858	4526
3238.71446	4532
3240.99896	4535.5
3243.28209	4537.9
3245.56384	4531
3247.84423	4532.4
3250.12324	4536
3252.40088	4517.2
3254.67715	4527.8
3256.95205	4513.7
3259.22558	4516.8
3261.49775	4519.3
3263.76855	4519.7
3266.03799	4485.3
3268.30606	4499.9
3270.57277	4482.2
3272.83812	4487.4
3275.10211	4477.2
3277.36474	4470.3
3279.62601	4460.5
3281.88593	4462.5
3284.14448	4456.5
3286.40168	4484.5
3288.65753	4465.8
3290.91202	4470.7
3293.16516	4462.1
3295.41695	4455.3
3297.66738	4426.7
3299.91647	4399.6
3302.16421	4391.5
3304.4106	4365.5
3306.65564	4344.8
3308.89933	4334.2
3311.14169	4295.4
3313.38269	4255.9
3315.62236	4241.7
3317.86068	4208.9
3320.09766	4183
3322.3333	4160
3324.5676	4146.1
3326.80056	4076.2
3329.03219	4048
3331.26248	1.3
3333.49143	0.4
3335.71905	0.4
