Data from AgNPs_FTO_APTES_UA_1uM_CRN_0uM_R6G_10uM_NaF_0.1M_Addition_RamanShift__18__11-26-39-426.txt Node

Date: Thu Jan 27 11:26:39 GMT 2022
User: TCL
Spectrometer: QEP01345
Trigger mode: 4
Integration Time (sec): 7.000000E0
Scans to average: 10
Electric dark correction enabled: true
Nonlinearity correction enabled: false
Boxcar width: 0
XAxis mode: Raman Shifts
Number of Pixels in Spectrum: 1044
>>>>>Begin Spectral Data<<<<<
46.04893	0.8
50.45542	1.4
54.85868	-1.5
59.25871	-0.2
63.6555	26.7
68.04907	28.6
72.43941	29.3
76.82654	34.1
81.21044	36.5
85.59113	35
89.96862	35.3
94.34289	37.8
98.71396	40.5
103.08183	40.2
107.4465	41.5
111.80798	37.2
116.16626	38.9
120.52136	43.3
124.87327	41.2
129.222	37.4
133.56755	41.5
137.90993	38.7
142.24913	41.5
146.58517	42.9
150.91804	47.9
155.24774	50.8
159.57429	56.6
163.89768	66.4
168.21792	81.8
172.53501	99.2
176.84895	126.8
181.15975	168
185.46741	218.4
189.77193	296.7
194.07331	389
198.37157	496.5
202.6667	607.8
206.9587	714.6
211.24758	815.2
215.53334	931.1
219.81599	1048.6
224.09553	1182.8
228.37195	1334
232.64527	1491.2
236.91549	1657.7
241.18261	1811.6
245.44663	1928.1
249.70755	2026.1
253.96539	2105.2
258.22014	2158.1
262.4718	2209.4
266.72039	2256.5
270.96589	2274.8
275.20832	2262.9
279.44768	2223
283.68397	2163.3
287.91719	2122.3
292.14735	2106
296.37445	2139.2
300.59849	2215.9
304.81948	2340.4
309.03742	2397.8
313.25231	2402.4
317.46415	2275.6
321.67296	2078.5
325.87872	1925.9
330.08145	1858.2
334.28114	1860.4
338.47781	1899.2
342.67145	1951.1
346.86207	2039.7
351.04966	2187.5
355.23424	2346.9
359.4158	2491.7
363.59435	2554.7
367.76989	2598.4
371.94243	2607.3
376.11196	2598.7
380.27849	2602.5
384.44203	2546.3
388.60257	2492.7
392.76012	2440.8
396.91468	2441.2
401.06626	2499.5
405.21485	2544.2
409.36047	2483.9
413.50311	2335.7
417.64277	2180.1
421.77947	2089.8
425.9132	2041.5
430.04396	2017
434.17176	2034.3
438.2966	2067.2
442.41849	2126.2
446.53742	2197.8
450.6534	2256.3
454.76644	2307.4
458.87653	2304.7
462.98368	2280.1
467.08789	2267.4
471.18916	2212.3
475.2875	2157.2
479.38291	2124
483.4754	2095.9
487.56496	2067.9
491.6516	2066
495.73531	2064.3
499.81612	2050.9
503.89401	2076.7
507.96899	2141.1
512.04106	2179.6
516.11023	2253
520.1765	2304.6
524.23987	2302.8
528.30034	2247.4
532.35792	2154.9
536.41261	2095.7
540.46441	2026.7
544.51333	1992
548.55936	1984.7
552.60252	2010.9
556.64279	2047.9
560.6802	2077
564.71473	2096.7
568.7464	2171
572.7752	2227.2
576.80114	2126.2
580.82422	2030
584.84444	1959.3
588.86181	1945
592.87633	1959.6
596.888	1984.2
600.89682	2058.9
604.9028	2298
608.90594	3011.5
612.90624	4084
616.90371	4159.9
620.89834	2907.6
624.89015	2216.1
628.87913	2055.4
632.86528	2032.2
636.84862	2075.4
640.82913	2070.3
644.80683	1999.6
648.78172	1937
652.75379	1946.1
656.72306	2065.5
660.68952	2191.1
664.65319	2146.9
668.61405	1983.6
672.57211	1893.1
676.52738	1872.8
680.47986	1886.4
684.42955	1874.1
688.37646	1873
692.32058	1883.3
696.26192	1895.1
700.20048	1928
704.13626	1946.7
708.06928	1941
711.99952	1912.9
715.927	1892.2
719.85171	1907.2
723.77365	1913.8
727.69284	1905.1
731.60928	1894.8
735.52295	1883
739.43388	1891.8
743.34206	1904.3
747.24749	1903.9
751.15017	1902.7
755.05012	1930.3
758.94733	2019.2
762.8418	2207.5
766.73354	2585.3
770.62254	3038.5
774.50882	3386.4
778.39237	3376.3
782.27321	2934.1
786.15132	2423.8
790.02671	2135.7
793.89938	2033.1
797.76935	1979
801.6366	1974.4
805.50115	1965.5
809.36299	1956.5
813.22213	1955.2
817.07857	1948.2
820.93231	1950
824.78336	1934.4
828.63172	1932.3
832.47738	1945.2
836.32036	1926.4
840.16066	1936.6
843.99827	1913.1
847.8332	1905.9
851.66546	1902.3
855.49504	1915.5
859.32195	1910.5
863.1462	1884.3
866.96777	1873.6
870.78668	1868
874.60293	1868.7
878.41652	1872.7
882.22745	1891.4
886.03573	1911.8
889.84136	1919.9
893.64433	1900.3
897.44466	1900.6
901.24235	1895.8
905.0374	1878.6
908.8298	1870.2
912.61957	1865.1
916.40671	1863.7
920.19121	1873.6
923.97308	1894.6
927.75233	1931
931.52895	1968.3
935.30295	1958.2
939.07433	1913
942.84309	1868.9
946.60924	1827
950.37278	1810.7
954.13371	1793.5
957.89203	1758.5
961.64774	1754.7
965.40086	1744.8
969.15137	1727
972.89929	1723.8
976.64461	1726.1
980.38733	1715
984.12747	1707.3
987.86502	1714.2
991.59999	1714.3
995.33237	1719.9
999.06217	1734.3
1002.78939	1754.9
1006.51404	1759.6
1010.23611	1798.5
1013.95561	1832.8
1017.67255	1813
1021.38692	1810.4
1025.09872	1789.8
1028.80796	1783.9
1032.51465	1790.9
1036.21877	1818.7
1039.92035	1873.1
1043.61937	1904
1047.31584	1881.9
1051.00976	1858.2
1054.70114	1805
1058.38998	1780.3
1062.07627	1774.2
1065.76003	1754.7
1069.44126	1744
1073.11995	1769.5
1076.79611	1808
1080.46974	1854
1084.14085	1895.4
1087.80943	1953.6
1091.47549	1948.9
1095.13903	1892.9
1098.80005	1808.8
1102.45857	1732.8
1106.11456	1724.6
1109.76805	1747.7
1113.41903	1814.3
1117.06751	1894.7
1120.71348	1997.4
1124.35696	2107.9
1127.99793	2217.6
1131.63641	2215.2
1135.2724	2064.2
1138.90589	1921.1
1142.5369	1824.8
1146.16542	1751.7
1149.79145	1703.3
1153.415	1683.7
1157.03607	1706
1160.65467	1735.5
1164.27079	1794.5
1167.88443	1878.8
1171.49561	2044.4
1175.10432	2331
1178.71056	2738
1182.31434	3060.7
1185.91565	3151.4
1189.51451	3064.6
1193.11091	2847.8
1196.70485	2613.1
1200.29634	2411
1203.88538	2260.7
1207.47197	2076.3
1211.05612	1897.4
1214.63782	1793.5
1218.21708	1744
1221.79391	1724.7
1225.36829	1718.6
1228.94024	1714.9
1232.50976	1697.9
1236.07685	1714.6
1239.6415	1735.7
1243.20374	1754.9
1246.76355	1753.8
1250.32093	1775.3
1253.8759	1813.3
1257.42845	1862.9
1260.97859	1938.3
1264.52631	2014.3
1268.07163	2084.6
1271.61453	2150.6
1275.15503	2187.4
1278.69312	2180
1282.22882	2162.9
1285.76211	2184.3
1289.29301	2266.3
1292.82151	2362.2
1296.34761	2450.4
1299.87133	2588.7
1303.39266	2813.4
1306.9116	3159.1
1310.42815	3564.4
1313.94233	3781.6
1317.45412	3667.1
1320.96354	3294.1
1324.47058	2882.6
1327.97525	2540.9
1331.47754	2331.1
1334.97747	2260.8
1338.47502	2282.7
1341.97022	2372.4
1345.46305	2534.5
1348.95352	2830.5
1352.44163	3254.1
1355.92738	3811.8
1359.41078	4557.2
1362.89183	5173
1366.37053	5090.1
1369.84688	4307.5
1373.32088	3462.2
1376.79254	2861.7
1380.26186	2497.2
1383.72883	2300
1387.19347	2149.6
1390.65578	1997.4
1394.11575	1882.7
1397.57339	1803.2
1401.0287	1759.8
1404.48168	1745.1
1407.93234	1735.7
1411.38068	1736.6
1414.82669	1753.2
1418.27039	1764.2
1421.71177	1785
1425.15083	1791.9
1428.58758	1794.8
1432.02203	1813.2
1435.45416	1850.2
1438.88399	1873.5
1442.31151	1855.7
1445.73673	1853.9
1449.15965	1835.2
1452.58027	1825.7
1455.9986	1783.5
1459.41463	1751
1462.82837	1746.2
1466.23982	1775.7
1469.64898	1821.6
1473.05586	1852.4
1476.46045	1851.6
1479.86276	1885.3
1483.26279	1928.5
1486.66054	1999.3
1490.05602	2062.8
1493.44922	2194.3
1496.84016	2419.1
1500.22882	2801.7
1503.61521	3344.8
1506.99934	3937.1
1510.38121	4461.4
1513.76081	4683.4
1517.13816	4364.3
1520.51324	3647.4
1523.88607	2917.3
1527.25665	2445.9
1530.62498	2196.9
1533.99105	2074
1537.35488	2003.4
1540.71647	1950.2
1544.07581	1958.9
1547.4329	1979.3
1550.78776	1991.3
1554.14038	2025.6
1557.49077	2063.3
1560.83892	2096.5
1564.18484	2165.9
1567.52853	2272.5
1570.86999	2416.7
1574.20922	2529.5
1577.54624	2542.9
1580.88103	2371.3
1584.2136	2092.2
1587.54395	1898.7
1590.87208	1838.2
1594.19801	1883.2
1597.52172	2024.1
1600.84321	2092.2
1604.16251	2031.4
1607.47959	1926.8
1610.79447	1821.3
1614.10715	1683.4
1617.41763	1578.4
1620.7259	1510.4
1624.03199	1483.8
1627.33587	1471.5
1630.63757	1479.8
1633.93707	1516.1
1637.23439	1581.9
1640.52951	1717.7
1643.82246	1945.8
1647.11321	2278.9
1650.40179	2604.4
1653.68819	2637.6
1656.97241	2296.2
1660.25446	1857.8
1663.53433	1539.4
1666.81203	1383.1
1670.08756	1297.7
1673.36092	1244.5
1676.63211	1217.9
1679.90115	1189.8
1683.16801	1170.4
1686.43272	1145
1689.69527	1133.3
1692.95567	1094
1696.2139	1044.3
1699.46999	997.4
1702.72392	984.5
1705.97571	1007.8
1709.22535	1040.3
1712.47284	1072.7
1715.71819	1086.8
1718.96139	1097.5
1722.20246	1098.6
1725.44139	1089.6
1728.67818	1080.1
1731.91284	1050.4
1735.14537	1034.5
1738.37576	1025
1741.60403	996.3
1744.83017	985.3
1748.05418	969.5
1751.27607	954.5
1754.49584	936.6
1757.71349	907.9
1760.92903	881.8
1764.14244	876.9
1767.35375	873.8
1770.56294	873
1773.77002	869
1776.97499	871.6
1780.17785	901.5
1783.37861	906.2
1786.57727	906.7
1789.77382	915.4
1792.96828	909.4
1796.16064	908.7
1799.3509	917.1
1802.53907	906.4
1805.72514	900
1808.90913	897.5
1812.09102	891.8
1815.27083	885.6
1818.44856	884.6
1821.6242	882.6
1824.79776	870.2
1827.96924	875.9
1831.13864	874
1834.30597	865.8
1837.47122	859
1840.6344	860.2
1843.7955	860.8
1846.95454	852.3
1850.11151	856.7
1853.26642	850.5
1856.41926	843.5
1859.57004	846.4
1862.71876	851.2
1865.86542	844.7
1869.01003	845.5
1872.15258	842
1875.29308	840.5
1878.43152	828.6
1881.56792	835.3
1884.70227	835.1
1887.83457	825.1
1890.96482	821.6
1894.09304	824.4
1897.21921	827
1900.34335	819.9
1903.46544	823
1906.58551	818.1
1909.70353	819.1
1912.81953	818.2
1915.93349	816.8
1919.04543	815.3
1922.15534	802.1
1925.26322	804.9
1928.36908	802.5
1931.47292	800
1934.57473	797.7
1937.67453	791.5
1940.77232	789.1
1943.86808	782.1
1946.96184	778.6
1950.05358	779.2
1953.14331	771.7
1956.23103	778.7
1959.31675	775.8
1962.40046	773.7
1965.48217	763.3
1968.56188	765.2
1971.63959	759.9
1974.7153	772.3
1977.78901	759.6
1980.86073	749.5
1983.93046	747.2
1986.99819	744.4
1990.06394	750.4
1993.1277	739.2
1996.18947	731.3
1999.24925	729.7
2002.30706	726.3
2005.36288	728.9
2008.41672	725.2
2011.46859	719.4
2014.51848	711.4
2017.56639	720
2020.61233	708.2
2023.6563	714
2026.6983	701.9
2029.73833	704
2032.7764	702.2
2035.8125	702.2
2038.84664	696.3
2041.87881	693.7
2044.90903	694.9
2047.93729	686.5
2050.96359	687.8
2053.98794	685.4
2057.01034	685.1
2060.03078	681.8
2063.04927	681.6
2066.06582	679.8
2069.08042	683.5
2072.09307	680
2075.10378	679.1
2078.11255	688.6
2081.11938	684.6
2084.12426	680.9
2087.12722	680.2
2090.12824	680.6
2093.12732	684.2
2096.12447	674.7
2099.11969	677.5
2102.11299	682.1
2105.10435	682.2
2108.09379	672.8
2111.08131	677.5
2114.0669	675.5
2117.05057	667.8
2120.03233	670.5
2123.01216	673.5
2125.99008	671.1
2128.96609	673.5
2131.94018	672.1
2134.91236	671.2
2137.88263	667.4
2140.851	661.9
2143.81746	667.6
2146.78201	666.6
2149.74466	663.7
2152.7054	662.3
2155.66425	661.2
2158.6212	661.4
2161.57625	655.5
2164.52941	652.8
2167.48067	651
2170.43004	659.3
2173.37752	656.8
2176.32311	654.8
2179.26681	653.1
2182.20863	653.1
2185.14856	650.4
2188.08661	653.8
2191.02278	650.1
2193.95707	650.7
2196.88948	643.4
2199.82001	647.5
2202.74867	639.2
2205.67545	644
2208.60037	646.1
2211.52341	641.8
2214.44458	633.3
2217.36388	631.6
2220.28132	633.6
2223.1969	618.3
2226.11061	624.1
2229.02246	626.3
2231.93245	621
2234.84058	625
2237.74686	611.9
2240.65128	621.7
2243.55385	620.7
2246.45456	614
2249.35343	613.2
2252.25044	617.1
2255.14561	607.2
2258.03893	605.2
2260.93041	597.4
2263.82004	603.7
2266.70783	614
2269.59378	608
2272.4779	603.2
2275.36017	603.3
2278.24061	605.2
2281.11922	604.1
2283.996	593.3
2286.87094	599.7
2289.74405	588
2292.61534	591.2
2295.4848	589.5
2298.35243	593.1
2301.21824	590.3
2304.08223	586.1
2306.94439	581
2309.80474	586.4
2312.66327	582.5
2315.51999	582.8
2318.37489	579.1
2321.22797	581.5
2324.07925	577
2326.92871	579.6
2329.77637	580.5
2332.62222	573.6
2335.46626	572.1
2338.3085	572.3
2341.14893	569.3
2343.98756	565.4
2346.8244	566.7
2349.65943	571.9
2352.49267	566.5
2355.32411	570.2
2358.15376	563.9
2360.98161	567.3
2363.80768	574.9
2366.63195	573.1
2369.45444	582.3
2372.27514	584.6
2375.09405	577.5
2377.91118	576.5
2380.72652	571
2383.54009	559.4
2386.35187	562.3
2389.16188	558.2
2391.97011	553.6
2394.77657	552.6
2397.58125	545.8
2400.38416	542.9
2403.18529	543.6
2405.98466	540.7
2408.78226	536.9
2411.57809	540.4
2414.37216	541.2
2417.16446	540.8
2419.955	534.3
2422.74378	535.6
2425.5308	542
2428.31606	539.7
2431.09956	536
2433.88131	535
2436.6613	536.8
2439.43954	539.7
2442.21603	535.8
2444.99077	541.5
2447.76377	539.8
2450.53501	538.9
2453.30451	536.3
2456.07226	537.3
2458.83827	537.2
2461.60254	541
2464.36507	530.8
2467.12586	533.9
2469.88492	536.1
2472.64224	532.4
2475.39782	534.8
2478.15167	522.6
2480.90379	527.9
2483.65417	535.9
2486.40283	535.4
2489.14976	540.5
2491.89497	543.8
2494.63845	539.7
2497.3802	529.5
2500.12024	530.7
2502.85855	532.7
2505.59514	531.3
2508.33002	528.7
2511.06318	526.1
2513.79462	525.3
2516.52435	512.7
2519.25237	516.4
2521.97867	510.3
2524.70327	506.5
2527.42616	505.5
2530.14734	508.2
2532.86681	505.2
2535.58458	511.1
2538.30065	508.4
2541.01501	506.6
2543.72768	506.7
2546.43864	501.7
2549.14791	513.4
2551.85548	503.1
2554.56136	513.6
2557.26554	508.7
2559.96803	508.3
2562.66883	506.8
2565.36794	511.2
2568.06536	505.2
2570.7611	505.2
2573.45514	506.9
2576.14751	508.3
2578.83819	499.5
2581.52719	502.7
2584.21451	502.2
2586.90015	500.4
2589.58411	496.9
2592.2664	498.5
2594.94701	496.1
2597.62594	500.7
2600.30321	497.6
2602.9788	495.4
2605.65273	492.1
2608.32498	494.5
2610.99557	495.4
2613.66449	502.2
2616.33175	495.6
2618.99734	495.3
2621.66128	500.4
2624.32355	495.4
2626.98416	489.1
2629.64311	489.5
2632.30041	494.2
2634.95605	489.8
2637.61004	489.2
2640.26238	485.5
2642.91306	483.9
2645.56209	483.7
2648.20948	481.5
2650.85521	481.8
2653.4993	493.4
2656.14175	497.1
2658.78255	494.6
2661.42171	498.5
2664.05923	498.6
2666.6951	499.9
2669.32934	509.7
2671.96194	504.6
2674.59291	513.6
2677.22224	513.4
2679.84993	519.6
2682.476	519.1
2685.10043	511.3
2687.72324	515.4
2690.34441	518.8
2692.96396	520.5
2695.58188	524.8
2698.19818	530.3
2700.81285	537
2703.4259	537.6
2706.03733	509.4
2708.64714	513.8
2711.25533	540.1
2713.86191	544.4
2716.46687	551.7
2719.07021	564
2721.67194	563.1
2724.27206	570.3
2726.87057	569.5
2729.46747	566.9
2732.06276	575.5
2734.65644	568.8
2737.24852	577.3
2739.83899	577.8
2742.42786	580.7
2745.01513	575.8
2747.60079	577.1
2750.18486	581.6
2752.76733	591
2755.3482	582.5
2757.92747	601
2760.50515	603.4
2763.08123	607.4
2765.65573	615.8
2768.22863	622.4
2770.79994	630.4
2773.36967	627.6
2775.9378	647.8
2778.50435	655.7
2781.06932	663.9
2783.6327	676.1
2786.1945	686.9
2788.75471	709.6
2791.31335	712.4
2793.87041	733.2
2796.42589	753.6
2798.97979	769.7
2801.53212	785.4
2804.08288	801.2
2806.63206	821.8
2809.17967	835.4
2811.72571	850.8
2814.27018	870.4
2816.81308	893.6
2819.35442	901.3
2821.89419	912.5
2824.43239	905.6
2826.96904	916.4
2829.50412	913.4
2832.03763	918
2834.56959	906.6
2837.1	918.5
2839.62884	931.9
2842.15613	952.6
2844.68186	982
2847.20604	1016.9
2849.72867	1056.1
2852.24974	1064.4
2854.76927	1061.3
2857.28724	1048.2
2859.80367	1040.7
2862.31855	1036.9
2864.83189	1023.6
2867.34368	1010.1
2869.85393	1011.6
2872.36264	999.5
2874.8698	996.1
2877.37543	983.1
2879.87952	965.9
2882.38207	964.3
2884.88308	963.4
2887.38256	950
2889.88051	943.7
2892.37692	942.7
2894.8718	939.6
2897.36515	932.7
2899.85698	935.9
2902.34727	931.9
2904.83604	940.5
2907.32328	931.5
2909.809	922.7
2912.29319	919.7
2914.77587	915.8
2917.25702	909.1
2919.73665	912.9
2922.21476	912.2
2924.69136	905.2
2927.16644	899.8
2929.64	892.8
2932.11205	886.8
2934.58258	865.5
2937.05161	845.3
2939.51912	829.6
2941.98513	802.4
2944.44962	772.6
2946.91261	738.1
2949.37409	713.8
2951.83407	685.9
2954.29254	663.1
2956.74951	656.1
2959.20498	646.4
2961.65895	630
2964.11142	620.9
2966.56239	613.5
2969.01186	595.9
2971.45984	585.5
2973.90632	582.4
2976.35131	570.7
2978.7948	567.6
2981.23681	568.4
2983.67732	554.9
2986.11635	554.4
2988.55388	539.5
2990.98993	538.3
2993.4245	530.4
2995.85758	519.6
2998.28917	517.1
3000.71928	506.1
3003.14791	508.8
3005.57506	507.9
3008.00073	508.9
3010.42493	501.9
3012.84764	505.5
3015.26888	506.6
3017.68865	507.5
3020.10694	503.9
3022.52376	505
3024.9391	504.9
3027.35298	505.4
3029.76539	511.2
3032.17632	507.8
3034.5858	509
3036.9938	513.5
3039.40034	513.6
3041.80542	522.6
3044.20903	515.7
3046.61118	516.6
3049.01187	521
3051.4111	524.1
3053.80888	520.9
3056.20519	523.7
3058.60005	521.8
3060.99345	524.5
3063.3854	528.2
3065.7759	534.3
3068.16494	531.1
3070.55254	539.3
3072.93868	535.8
3075.32338	545.3
3077.70662	547.6
3080.08842	543.6
3082.46878	548.3
3084.84769	544.9
3087.22515	544.1
3089.60118	544.1
3091.97576	547.7
3094.3489	551.1
3096.72061	553.3
3099.09087	557.1
3101.4597	557.4
3103.82709	561.3
3106.19305	567
3108.55757	567.8
3110.92066	577.5
3113.28232	574.1
3115.64255	578.3
3118.00134	589
3120.35871	586.9
3122.71466	587
3125.06917	594.2
3127.42226	596.5
3129.77393	607.6
3132.12417	607.3
3134.47299	616.5
3136.82039	622
3139.16636	626.3
3141.51092	629.8
3143.85406	643.4
3146.19579	647.2
3148.53609	652.9
3150.87499	665.1
3153.21246	674.4
3155.54853	668.3
3157.88318	683.2
3160.21642	688.8
3162.54826	694.5
3164.87868	689.7
3167.2077	705.6
3169.5353	710.3
3171.86151	708.5
3174.18631	711.3
3176.5097	725.2
3178.83169	728.9
3181.15228	729.1
3183.47147	739.7
3185.78926	749.5
3188.10565	758.2
3190.42065	754.2
3192.73424	752.5
3195.04645	763.7
3197.35725	761.3
3199.66667	777.4
3201.97469	771.9
3204.28132	775
3206.58656	784.5
3208.8904	788.7
3211.19287	793.8
3213.49394	794.7
3215.79363	801.8
3218.09193	808.4
3220.38884	807.4
3222.68438	798.2
3224.97853	798.3
3227.2713	813
3229.56269	808.9
3231.8527	820.9
3234.14133	825.2
3236.42858	821.6
3238.71446	817
3240.99896	818.7
3243.28209	823.6
3245.56384	824.5
3247.84423	828.6
3250.12324	834.8
3252.40088	836.1
3254.67715	834.3
3256.95205	840.5
3259.22558	835.9
3261.49775	837.6
3263.76855	842.1
3266.03799	838.4
3268.30606	844.3
3270.57277	847.9
3272.83812	846.6
3275.10211	847.3
3277.36474	845.6
3279.62601	852
3281.88593	844.9
3284.14448	846.5
3286.40168	843.9
3288.65753	850.5
3290.91202	841.7
3293.16516	850.9
3295.41695	842.8
3297.66738	835.4
3299.91647	835.1
3302.16421	827.4
3304.4106	827.2
3306.65564	823.9
3308.89933	817.6
3311.14169	808.8
3313.38269	801.4
3315.62236	789.8
3317.86068	787.3
3320.09766	789.9
3322.3333	774.5
3324.5676	775.8
3326.80056	757.4
3329.03219	754.8
3331.26248	0.2
3333.49143	0.7
3335.71905	-1.5
