Data from AgNPs_FTO_APTES_UA_1uM_CRN_500uM_R6G_10uM_NaF_0.1M_Addition_RamanShift__1__17-45-49-859.txt Node

Date: Thu Jan 27 17:45:49 GMT 2022
User: TCL
Spectrometer: QEP01345
Trigger mode: 4
Integration Time (sec): 7.000000E0
Scans to average: 10
Electric dark correction enabled: true
Nonlinearity correction enabled: false
Boxcar width: 0
XAxis mode: Raman Shifts
Number of Pixels in Spectrum: 1044
>>>>>Begin Spectral Data<<<<<
46.04893	-0.3625
50.45542	1.2375
54.85868	-1.0625
59.25871	-1.2625
63.6555	51.2375
68.04907	45.9375
72.43941	45.1375
76.82654	49.4375
81.21044	49.5375
85.59113	49.0375
89.96862	51.3375
94.34289	53.5375
98.71396	60.5375
103.08183	55.5375
107.4465	62.4375
111.80798	64.1375
116.16626	60.9375
120.52136	67.4375
124.87327	64.8375
129.222	63.7375
133.56755	67.3375
137.90993	70.4375
142.24913	78.5375
146.58517	81.7375
150.91804	94.1375
155.24774	106.7375
159.57429	126.3375
163.89768	155.6375
168.21792	209.2375
172.53501	277.6375
176.84895	381.0375
181.15975	530.1375
185.46741	738.8375
189.77193	1019.5375
194.07331	1367.5375
198.37157	1753.8375
202.6667	2165.2375
206.9587	2603.0375
211.24758	3003.7375
215.53334	3407.2375
219.81599	3853.5375
224.09553	4312.5375
228.37195	4846.3375
232.64527	5430.0375
236.91549	6019.4375
241.18261	6635.6375
245.44663	7208.9375
249.70755	7704.5375
253.96539	8163.5375
258.22014	8536.6375
262.4718	8797.3375
266.72039	8984.3375
270.96589	9080.9375
275.20832	9063.6375
279.44768	8963.0375
283.68397	8819.6375
287.91719	8666.3375
292.14735	8595.1375
296.37445	8518.3375
300.59849	8542.8375
304.81948	8568.5375
309.03742	8595.3375
313.25231	8575.1375
317.46415	8438.7375
321.67296	8284.7375
325.87872	8117.3375
330.08145	8050.3375
334.28114	8056.0375
338.47781	8135.5375
342.67145	8210.1375
346.86207	8348.3375
351.04966	8514.0375
355.23424	8637.7375
359.4158	8779.7375
363.59435	8863.5375
367.76989	8949.1375
371.94243	9013.6375
376.11196	9047.3375
380.27849	9100.9375
384.44203	9168.4375
388.60257	9210.2375
392.76012	9283.0375
396.91468	9351.6375
401.06626	9553.9375
405.21485	9673.3375
409.36047	9630.3375
413.50311	9524.7375
417.64277	9411.9375
421.77947	9379.3375
425.9132	9356.4375
430.04396	9384.7375
434.17176	9407.5375
438.2966	9434.6375
442.41849	9546.4375
446.53742	9763.5375
450.6534	9975.3375
454.76644	10117.5375
458.87653	10070.6375
462.98368	10008.4375
467.08789	9877.2375
471.18916	9770.1375
475.2875	9633.9375
479.38291	9505.8375
483.4754	9458.3375
487.56496	9377.5375
491.6516	9344.8375
495.73531	9308.8375
499.81612	9302.9375
503.89401	9333.5375
507.96899	9397.5375
512.04106	9354.7375
516.11023	9350.2375
520.1765	9311.9375
524.23987	9315.3375
528.30034	9308.9375
532.35792	9255.4375
536.41261	9161.3375
540.46441	9042.5375
544.51333	8970.4375
548.55936	9051.9375
552.60252	9174.4375
556.64279	9376.8375
560.6802	9469.0375
564.71473	9503.3375
568.7464	9532.4375
572.7752	9651.9375
576.80114	9778.9375
580.82422	9976.2375
584.84444	10339.4375
588.86181	10817.7375
592.87633	11245.3375
596.888	11265.9375
600.89682	10836.4375
604.9028	10652.7375
608.90594	11371.4375
612.90624	12403.1375
616.90371	12007.7375
620.89834	10217.0375
624.89015	9321.1375
628.87913	9202.1375
632.86528	9242.7375
636.84862	9299.5375
640.82913	9231.4375
644.80683	9066.5375
648.78172	8967.6375
652.75379	8965.8375
656.72306	9036.8375
660.68952	9131.9375
664.65319	9092.1375
668.61405	8971.7375
672.57211	8954.3375
676.52738	9007.7375
680.47986	9032.6375
684.42955	8986.8375
688.37646	8945.7375
692.32058	8917.5375
696.26192	8974.1375
700.20048	9047.7375
704.13626	9103.5375
708.06928	9091.8375
711.99952	9065.6375
715.927	9082.8375
719.85171	9114.8375
723.77365	9117.3375
727.69284	9031.6375
731.60928	8981.0375
735.52295	8948.6375
739.43388	8948.5375
743.34206	8985.8375
747.24749	9011.9375
751.15017	9060.1375
755.05012	9131.8375
758.94733	9315.2375
762.8418	9653.9375
766.73354	10249.7375
770.62254	10940.8375
774.50882	11275.5375
778.39237	11013.3375
782.27321	10321.3375
786.15132	9668.2375
790.02671	9237.1375
793.89938	9064.8375
797.76935	8971.3375
801.6366	8928.1375
805.50115	8897.8375
809.36299	8865.7375
813.22213	8806.9375
817.07857	8758.6375
820.93231	8750.3375
824.78336	8730.4375
828.63172	8712.1375
832.47738	8736.8375
836.32036	8746.5375
840.16066	8767.4375
843.99827	8762.9375
847.8332	8772.9375
851.66546	8732.4375
855.49504	8730.5375
859.32195	8737.8375
863.1462	8723.4375
866.96777	8719.2375
870.78668	8723.6375
874.60293	8712.3375
878.41652	8712.9375
882.22745	8733.8375
886.03573	8777.4375
889.84136	8797.4375
893.64433	8762.4375
897.44466	8725.5375
901.24235	8698.2375
905.0374	8651.4375
908.8298	8622.1375
912.61957	8621.2375
916.40671	8631.7375
920.19121	8697.2375
923.97308	8789.5375
927.75233	8854.1375
931.52895	8878.2375
935.30295	8778.0375
939.07433	8671.1375
942.84309	8528.6375
946.60924	8455.1375
950.37278	8418.4375
954.13371	8378.1375
957.89203	8348.3375
961.64774	8355.0375
965.40086	8360.0375
969.15137	8295.8375
972.89929	8287.1375
976.64461	8283.4375
980.38733	8273.6375
984.12747	8274.8375
987.86502	8320.5375
991.59999	8368.0375
995.33237	8426.1375
999.06217	8520.9375
1002.78939	8667.3375
1006.51404	8763.1375
1010.23611	8844.0375
1013.95561	8924.2375
1017.67255	8982.3375
1021.38692	8934.2375
1025.09872	8839.4375
1028.80796	8745.8375
1032.51465	8762.6375
1036.21877	8834.7375
1039.92035	8878.3375
1043.61937	8884.9375
1047.31584	8866.7375
1051.00976	8857.1375
1054.70114	8833.8375
1058.38998	8813.0375
1062.07627	8866.2375
1065.76003	8947.0375
1069.44126	9048.6375
1073.11995	9172.4375
1076.79611	9263.1375
1080.46974	9300.0375
1084.14085	9280.9375
1087.80943	9285.0375
1091.47549	9339.0375
1095.13903	9350.7375
1098.80005	9258.2375
1102.45857	9096.8375
1106.11456	8950.9375
1109.76805	8889.6375
1113.41903	8897.4375
1117.06751	8953.8375
1120.71348	9069.9375
1124.35696	9204.1375
1127.99793	9383.7375
1131.63641	9483.4375
1135.2724	9384.8375
1138.90589	9207.6375
1142.5369	9138.7375
1146.16542	9127.5375
1149.79145	9123.0375
1153.415	9111.5375
1157.03607	9172.8375
1160.65467	9326.1375
1164.27079	9601.5375
1167.88443	9989.3375
1171.49561	10480.2375
1175.10432	11092.9375
1178.71056	11931.9375
1182.31434	12683.6375
1185.91565	13044.5375
1189.51451	12845.2375
1193.11091	12391.6375
1196.70485	11873.8375
1200.29634	11409.5375
1203.88538	11022.1375
1207.47197	10719.7375
1211.05612	10485.1375
1214.63782	10273.9375
1218.21708	10127.8375
1221.79391	10061.9375
1225.36829	10040.0375
1228.94024	10043.2375
1232.50976	9983.1375
1236.07685	9878.7375
1239.6415	9748.3375
1243.20374	9735.0375
1246.76355	9741.2375
1250.32093	9813.1375
1253.8759	9927.5375
1257.42845	10120.8375
1260.97859	10329.5375
1264.52631	10581.2375
1268.07163	10795.8375
1271.61453	11036.9375
1275.15503	11226.2375
1278.69312	11499.9375
1282.22882	11738.1375
1285.76211	12085.5375
1289.29301	12462.7375
1292.82151	12902.9375
1296.34761	13426.3375
1299.87133	14042.3375
1303.39266	14720.3375
1306.9116	15510.3375
1310.42815	16247.6375
1313.94233	16684.9375
1317.45412	16592.2375
1320.96354	16037.0375
1324.47058	15347.7375
1327.97525	14803.2375
1331.47754	14354.7375
1334.97747	14055.0375
1338.47502	13808.8375
1341.97022	13613.1375
1345.46305	13552.4375
1348.95352	13736.8375
1352.44163	14311.0375
1355.92738	15216.2375
1359.41078	16382.6375
1362.89183	17342.4375
1366.37053	17307.9375
1369.84688	15949.8375
1373.32088	14051.7375
1376.79254	12626.5375
1380.26186	11987.8375
1383.72883	11733.5375
1387.19347	11527.9375
1390.65578	11254.5375
1394.11575	11092.2375
1397.57339	11103.7375
1401.0287	11249.9375
1404.48168	11389.8375
1407.93234	11397.5375
1411.38068	11291.1375
1414.82669	11126.2375
1418.27039	10902.7375
1421.71177	10691.1375
1425.15083	10440.4375
1428.58758	10334.5375
1432.02203	10370.5375
1435.45416	10517.7375
1438.88399	10676.2375
1442.31151	10750.0375
1445.73673	10791.5375
1449.15965	10796.8375
1452.58027	10780.6375
1455.9986	10720.1375
1459.41463	10690.3375
1462.82837	10781.2375
1466.23982	10996.1375
1469.64898	11227.1375
1473.05586	11376.9375
1476.46045	11468.9375
1479.86276	11558.8375
1483.26279	11594.8375
1486.66054	11701.4375
1490.05602	11881.6375
1493.44922	12125.8375
1496.84016	12404.7375
1500.22882	12819.7375
1503.61521	13473.7375
1506.99934	14159.3375
1510.38121	14723.6375
1513.76081	14793.5375
1517.13816	14260.0375
1520.51324	13429.9375
1523.88607	12663.2375
1527.25665	12184.2375
1530.62498	11952.2375
1533.99105	11780.2375
1537.35488	11591.7375
1540.71647	11414.9375
1544.07581	11207.1375
1547.4329	11009.8375
1550.78776	10837.5375
1554.14038	10662.5375
1557.49077	10593.8375
1560.83892	10593.8375
1564.18484	10612.2375
1567.52853	10711.9375
1570.86999	10883.2375
1574.20922	11078.3375
1577.54624	11194.3375
1580.88103	11133.7375
1584.2136	10970.9375
1587.54395	10980.7375
1590.87208	11280.8375
1594.19801	11762.9375
1597.52172	12419.8375
1600.84321	12760.6375
1604.16251	12521.5375
1607.47959	11793.3375
1610.79447	10911.4375
1614.10715	10110.4375
1617.41763	9490.0375
1620.7259	9092.4375
1624.03199	8888.5375
1627.33587	8892.3375
1630.63757	9031.9375
1633.93707	9365.8375
1637.23439	9988.9375
1640.52951	10987.8375
1643.82246	12383.9375
1647.11321	13719.4375
1650.40179	14275.3375
1653.68819	13557.5375
1656.97241	11999.2375
1660.25446	10444.8375
1663.53433	9317.7375
1666.81203	8655.0375
1670.08756	8272.3375
1673.36092	8022.8375
1676.63211	7895.7375
1679.90115	7783.4375
1683.16801	7682.5375
1686.43272	7626.0375
1689.69527	7534.6375
1692.95567	7523.4375
1696.2139	7484.7375
1699.46999	7388.2375
1702.72392	7362.3375
1705.97571	7379.5375
1709.22535	7402.7375
1712.47284	7444.8375
1715.71819	7424.2375
1718.96139	7447.5375
1722.20246	7425.6375
1725.44139	7412.0375
1728.67818	7373.7375
1731.91284	7335.8375
1735.14537	7306.5375
1738.37576	7290.6375
1741.60403	7263.4375
1744.83017	7253.8375
1748.05418	7244.3375
1751.27607	7211.0375
1754.49584	7208.2375
1757.71349	7185.1375
1760.92903	7161.2375
1764.14244	7171.5375
1767.35375	7151.0375
1770.56294	7100.3375
1773.77002	7123.0375
1776.97499	7082.4375
1780.17785	7109.9375
1783.37861	7108.7375
1786.57727	7113.2375
1789.77382	7102.6375
1792.96828	7080.5375
1796.16064	7078.3375
1799.3509	7033.7375
1802.53907	7024.6375
1805.72514	7016.5375
1808.90913	7023.0375
1812.09102	7003.5375
1815.27083	6985.3375
1818.44856	6986.9375
1821.6242	6966.0375
1824.79776	6935.6375
1827.96924	6943.3375
1831.13864	6939.5375
1834.30597	6946.7375
1837.47122	6939.2375
1840.6344	6923.3375
1843.7955	6923.3375
1846.95454	6937.4375
1850.11151	6910.2375
1853.26642	6931.8375
1856.41926	6906.2375
1859.57004	6925.3375
1862.71876	6912.0375
1865.86542	6890.5375
1869.01003	6897.1375
1872.15258	6896.8375
1875.29308	6874.9375
1878.43152	6865.5375
1881.56792	6855.1375
1884.70227	6852.9375
1887.83457	6846.8375
1890.96482	6824.6375
1894.09304	6801.8375
1897.21921	6814.9375
1900.34335	6815.1375
1903.46544	6804.2375
1906.58551	6803.4375
1909.70353	6797.8375
1912.81953	6789.5375
1915.93349	6777.5375
1919.04543	6744.6375
1922.15534	6733.9375
1925.26322	6736.2375
1928.36908	6717.9375
1931.47292	6689.7375
1934.57473	6679.4375
1937.67453	6675.9375
1940.77232	6634.3375
1943.86808	6626.5375
1946.96184	6617.6375
1950.05358	6584.1375
1953.14331	6585.4375
1956.23103	6571.7375
1959.31675	6550.1375
1962.40046	6520.7375
1965.48217	6528.4375
1968.56188	6490.0375
1971.63959	6473.7375
1974.7153	6451.5375
1977.78901	6435.4375
1980.86073	6427.2375
1983.93046	6414.2375
1986.99819	6388.3375
1990.06394	6376.2375
1993.1277	6341.2375
1996.18947	6321.9375
1999.24925	6319.5375
2002.30706	6293.6375
2005.36288	6277.3375
2008.41672	6269.2375
2011.46859	6251.6375
2014.51848	6231.8375
2017.56639	6229.2375
2020.61233	6191.5375
2023.6563	6193.0375
2026.6983	6159.8375
2029.73833	6169.8375
2032.7764	6146.0375
2035.8125	6119.9375
2038.84664	6108.8375
2041.87881	6105.4375
2044.90903	6099.6375
2047.93729	6080.1375
2050.96359	6069.3375
2053.98794	6061.5375
2057.01034	6059.7375
2060.03078	6071.0375
2063.04927	6064.7375
2066.06582	6058.6375
2069.08042	6050.7375
2072.09307	6045.6375
2075.10378	6040.8375
2078.11255	6034.4375
2081.11938	6049.8375
2084.12426	6041.0375
2087.12722	6029.2375
2090.12824	6024.0375
2093.12732	6049.5375
2096.12447	6034.5375
2099.11969	6029.3375
2102.11299	6048.3375
2105.10435	6039.5375
2108.09379	6030.9375
2111.08131	6041.8375
2114.0669	6051.0375
2117.05057	6044.5375
2120.03233	6049.8375
2123.01216	6053.0375
2125.99008	6066.0375
2128.96609	6087.3375
2131.94018	6066.4375
2134.91236	6093.1375
2137.88263	6088.6375
2140.851	6081.2375
2143.81746	6084.0375
2146.78201	6072.6375
2149.74466	6079.5375
2152.7054	6092.6375
2155.66425	6097.5375
2158.6212	6080.5375
2161.57625	6066.8375
2164.52941	6063.7375
2167.48067	6064.7375
2170.43004	6064.8375
2173.37752	6071.1375
2176.32311	6080.2375
2179.26681	6062.0375
2182.20863	6073.5375
2185.14856	6061.4375
2188.08661	6059.3375
2191.02278	6073.1375
2193.95707	6062.5375
2196.88948	6043.5375
2199.82001	6050.0375
2202.74867	6047.4375
2205.67545	6047.8375
2208.60037	6048.3375
2211.52341	6016.3375
2214.44458	6004.8375
2217.36388	6000.5375
2220.28132	5990.0375
2223.1969	5989.2375
2226.11061	5994.1375
2229.02246	5966.6375
2231.93245	5971.3375
2234.84058	5949.6375
2237.74686	5923.6375
2240.65128	5948.2375
2243.55385	5939.8375
2246.45456	5912.9375
2249.35343	5913.6375
2252.25044	5896.7375
2255.14561	5893.1375
2258.03893	5885.9375
2260.93041	5856.8375
2263.82004	5861.1375
2266.70783	5854.8375
2269.59378	5825.8375
2272.4779	5817.0375
2275.36017	5827.0375
2278.24061	5815.5375
2281.11922	5815.4375
2283.996	5785.7375
2286.87094	5788.7375
2289.74405	5767.0375
2292.61534	5754.7375
2295.4848	5751.7375
2298.35243	5752.3375
2301.21824	5748.4375
2304.08223	5758.3375
2306.94439	5739.4375
2309.80474	5744.2375
2312.66327	5741.3375
2315.51999	5709.7375
2318.37489	5705.5375
2321.22797	5709.4375
2324.07925	5715.3375
2326.92871	5694.0375
2329.77637	5710.2375
2332.62222	5693.9375
2335.46626	5668.5375
2338.3085	5669.4375
2341.14893	5667.1375
2343.98756	5675.7375
2346.8244	5662.3375
2349.65943	5668.8375
2352.49267	5652.7375
2355.32411	5644.2375
2358.15376	5653.4375
2360.98161	5647.2375
2363.80768	5661.4375
2366.63195	5637.9375
2369.45444	5645.1375
2372.27514	5651.5375
2375.09405	5631.0375
2377.91118	5633.2375
2380.72652	5616.0375
2383.54009	5600.5375
2386.35187	5591.6375
2389.16188	5571.5375
2391.97011	5542.2375
2394.77657	5545.3375
2397.58125	5541.0375
2400.38416	5529.8375
2403.18529	5513.9375
2405.98466	5511.8375
2408.78226	5507.3375
2411.57809	5505.3375
2414.37216	5468.0375
2417.16446	5485.0375
2419.955	5463.9375
2422.74378	5475.5375
2425.5308	5502.1375
2428.31606	5476.3375
2431.09956	5463.6375
2433.88131	5456.5375
2436.6613	5467.1375
2439.43954	5450.9375
2442.21603	5455.8375
2444.99077	5458.8375
2447.76377	5452.3375
2450.53501	5449.1375
2453.30451	5442.0375
2456.07226	5442.1375
2458.83827	5430.0375
2461.60254	5435.6375
2464.36507	5440.5375
2467.12586	5442.0375
2469.88492	5423.9375
2472.64224	5411.6375
2475.39782	5416.9375
2478.15167	5393.2375
2480.90379	5388.6375
2483.65417	5392.9375
2486.40283	5414.8375
2489.14976	5404.8375
2491.89497	5420.4375
2494.63845	5409.7375
2497.3802	5391.1375
2500.12024	5398.0375
2502.85855	5398.0375
2505.59514	5401.3375
2508.33002	5381.6375
2511.06318	5372.5375
2513.79462	5364.8375
2516.52435	5339.0375
2519.25237	5332.3375
2521.97867	5330.6375
2524.70327	5312.0375
2527.42616	5324.1375
2530.14734	5313.0375
2532.86681	5313.0375
2535.58458	5293.7375
2538.30065	5314.2375
2541.01501	5307.6375
2543.72768	5288.6375
2546.43864	5269.0375
2549.14791	5267.8375
2551.85548	5281.7375
2554.56136	5276.3375
2557.26554	5254.3375
2559.96803	5250.4375
2562.66883	5254.1375
2565.36794	5247.5375
2568.06536	5227.4375
2570.7611	5242.8375
2573.45514	5216.6375
2576.14751	5218.2375
2578.83819	5205.8375
2581.52719	5210.6375
2584.21451	5191.6375
2586.90015	5194.5375
2589.58411	5182.8375
2592.2664	5178.1375
2594.94701	5165.5375
2597.62594	5165.4375
2600.30321	5132.2375
2602.9788	5127.4375
2605.65273	5124.7375
2608.32498	5132.1375
2610.99557	5129.0375
2613.66449	5120.2375
2616.33175	5102.5375
2618.99734	5103.2375
2621.66128	5100.0375
2624.32355	5103.6375
2626.98416	5094.5375
2629.64311	5090.1375
2632.30041	5083.8375
2634.95605	5067.3375
2637.61004	5057.8375
2640.26238	5063.0375
2642.91306	5064.7375
2645.56209	5046.4375
2648.20948	5048.9375
2650.85521	5049.9375
2653.4993	5056.9375
2656.14175	5057.2375
2658.78255	5058.6375
2661.42171	5062.5375
2664.05923	5061.5375
2666.6951	5058.1375
2669.32934	5062.2375
2671.96194	5051.0375
2674.59291	5057.0375
2677.22224	5040.3375
2679.84993	5058.4375
2682.476	5039.5375
2685.10043	5057.3375
2687.72324	5051.1375
2690.34441	5032.9375
2692.96396	5038.5375
2695.58188	5058.7375
2698.19818	5054.4375
2700.81285	5053.7375
2703.4259	5052.8375
2706.03733	5054.9375
2708.64714	5036.0375
2711.25533	5052.9375
2713.86191	5051.9375
2716.46687	5044.2375
2719.07021	5059.4375
2721.67194	5060.9375
2724.27206	5068.7375
2726.87057	5062.5375
2729.46747	5080.3375
2732.06276	5059.5375
2734.65644	5051.0375
2737.24852	5067.6375
2739.83899	5055.4375
2742.42786	5059.2375
2745.01513	5031.1375
2747.60079	5048.3375
2750.18486	5044.8375
2752.76733	5024.9375
2755.3482	5023.9375
2757.92747	5014.8375
2760.50515	5005.9375
2763.08123	5017.5375
2765.65573	5006.8375
2768.22863	5004.1375
2770.79994	5001.6375
2773.36967	4974.1375
2775.9378	5000.3375
2778.50435	4987.1375
2781.06932	4998.3375
2783.6327	4980.8375
2786.1945	4970.6375
2788.75471	4971.9375
2791.31335	4950.5375
2793.87041	4945.3375
2796.42589	4938.0375
2798.97979	4959.2375
2801.53212	4946.7375
2804.08288	4911.7375
2806.63206	4913.1375
2809.17967	4902.4375
2811.72571	4909.4375
2814.27018	4886.9375
2816.81308	4885.6375
2819.35442	4899.2375
2821.89419	4863.8375
2824.43239	4875.8375
2826.96904	4874.8375
2829.50412	4883.8375
2832.03763	4853.5375
2834.56959	4872.2375
2837.1	4881.6375
2839.62884	4875.6375
2842.15613	4904.9375
2844.68186	4944.4375
2847.20604	4956.4375
2849.72867	4970.3375
2852.24974	4973.1375
2854.76927	4958.5375
2857.28724	4967.9375
2859.80367	4954.2375
2862.31855	4953.4375
2864.83189	4940.2375
2867.34368	4937.5375
2869.85393	4941.3375
2872.36264	4942.6375
2874.8698	4929.6375
2877.37543	4913.1375
2879.87952	4924.5375
2882.38207	4942.8375
2884.88308	4930.7375
2887.38256	4918.5375
2889.88051	4925.7375
2892.37692	4912.1375
2894.8718	4950.5375
2897.36515	4933.2375
2899.85698	4948.7375
2902.34727	4954.7375
2904.83604	4970.1375
2907.32328	4962.3375
2909.809	4954.5375
2912.29319	4978.1375
2914.77587	4954.0375
2917.25702	4951.7375
2919.73665	4959.6375
2922.21476	4971.6375
2924.69136	4947.3375
2927.16644	4973.9375
2929.64	4962.6375
2932.11205	4974.4375
2934.58258	4941.5375
2937.05161	4962.8375
2939.51912	4943.8375
2941.98513	4930.8375
2944.44962	4902.5375
2946.91261	4875.0375
2949.37409	4893.3375
2951.83407	4887.3375
2954.29254	4864.7375
2956.74951	4857.3375
2959.20498	4878.6375
2961.65895	4846.6375
2964.11142	4856.7375
2966.56239	4814.7375
2969.01186	4802.3375
2971.45984	4801.2375
2973.90632	4809.0375
2976.35131	4800.5375
2978.7948	4774.3375
2981.23681	4778.8375
2983.67732	4767.9375
2986.11635	4746.4375
2988.55388	4732.0375
2990.98993	4712.0375
2993.4245	4698.6375
2995.85758	4714.7375
2998.28917	4705.2375
3000.71928	4693.3375
3003.14791	4692.5375
3005.57506	4676.6375
3008.00073	4680.3375
3010.42493	4649.0375
3012.84764	4683.6375
3015.26888	4653.0375
3017.68865	4668.3375
3020.10694	4650.5375
3022.52376	4635.7375
3024.9391	4645.3375
3027.35298	4625.8375
3029.76539	4621.6375
3032.17632	4636.0375
3034.5858	4609.3375
3036.9938	4609.5375
3039.40034	4614.5375
3041.80542	4633.5375
3044.20903	4588.8375
3046.61118	4596.8375
3049.01187	4602.2375
3051.4111	4612.9375
3053.80888	4591.0375
3056.20519	4585.7375
3058.60005	4574.6375
3060.99345	4575.9375
3063.3854	4564.3375
3065.7759	4547.8375
3068.16494	4556.7375
3070.55254	4525.5375
3072.93868	4541.5375
3075.32338	4531.8375
3077.70662	4545.5375
3080.08842	4505.7375
3082.46878	4521.1375
3084.84769	4530.0375
3087.22515	4542.9375
3089.60118	4538.0375
3091.97576	4521.9375
3094.3489	4530.1375
3096.72061	4552.0375
3099.09087	4540.7375
3101.4597	4527.7375
3103.82709	4542.2375
3106.19305	4542.8375
3108.55757	4551.5375
3110.92066	4535.4375
3113.28232	4524.7375
3115.64255	4520.4375
3118.00134	4520.0375
3120.35871	4503.2375
3122.71466	4517.6375
3125.06917	4522.9375
3127.42226	4501.7375
3129.77393	4501.9375
3132.12417	4509.7375
3134.47299	4528.4375
3136.82039	4510.1375
3139.16636	4523.7375
3141.51092	4523.2375
3143.85406	4519.9375
3146.19579	4537.8375
3148.53609	4545.4375
3150.87499	4563.6375
3153.21246	4574.4375
3155.54853	4568.8375
3157.88318	4587.5375
3160.21642	4589.3375
3162.54826	4588.9375
3164.87868	4586.4375
3167.2077	4588.5375
3169.5353	4603.8375
3171.86151	4611.5375
3174.18631	4605.4375
3176.5097	4600.3375
3178.83169	4601.6375
3181.15228	4611.0375
3183.47147	4621.3375
3185.78926	4599.5375
3188.10565	4595.8375
3190.42065	4595.3375
3192.73424	4599.5375
3195.04645	4602.1375
3197.35725	4619.4375
3199.66667	4609.7375
3201.97469	4606.3375
3204.28132	4613.8375
3206.58656	4621.8375
3208.8904	4620.4375
3211.19287	4636.4375
3213.49394	4645.8375
3215.79363	4641.6375
3218.09193	4646.3375
3220.38884	4647.7375
3222.68438	4631.5375
3224.97853	4632.2375
3227.2713	4644.1375
3229.56269	4639.5375
3231.8527	4637.1375
3234.14133	4646.7375
3236.42858	4636.6375
3238.71446	4617.1375
3240.99896	4609.3375
3243.28209	4612.7375
3245.56384	4601.4375
3247.84423	4617.7375
3250.12324	4598.2375
3252.40088	4618.4375
3254.67715	4600.8375
3256.95205	4600.8375
3259.22558	4606.8375
3261.49775	4610.4375
3263.76855	4595.8375
3266.03799	4567.7375
3268.30606	4575.6375
3270.57277	4580.0375
3272.83812	4568.6375
3275.10211	4549.5375
3277.36474	4536.7375
3279.62601	4545.0375
3281.88593	4543.8375
3284.14448	4548.5375
3286.40168	4541.7375
3288.65753	4539.9375
3290.91202	4545.7375
3293.16516	4539.7375
3295.41695	4524.9375
3297.66738	4494.5375
3299.91647	4491.9375
3302.16421	4451.1375
3304.4106	4428.6375
3306.65564	4422.0375
3308.89933	4405.2375
3311.14169	4367.9375
3313.38269	4346.5375
3315.62236	4310.6375
3317.86068	4278.5375
3320.09766	4249.3375
3322.3333	4228.7375
3324.5676	4212.5375
3326.80056	4134.5375
3329.03219	4122.5375
3331.26248	1.7375
3333.49143	0.5375
3335.71905	-0.1625
