Data from AgNPs_FTO_APTES_UA_1uM_CRN_10uM_R6G_20uM_NaF_0.1M_Addition_RamanShift__22__15-23-29-697.txt Node

Date: Thu Jan 27 15:23:29 GMT 2022
User: TCL
Spectrometer: QEP01345
Trigger mode: 4
Integration Time (sec): 7.000000E0
Scans to average: 10
Electric dark correction enabled: true
Nonlinearity correction enabled: false
Boxcar width: 0
XAxis mode: Raman Shifts
Number of Pixels in Spectrum: 1044
>>>>>Begin Spectral Data<<<<<
46.04893	1.6
50.45542	0.1
54.85868	-1.8
59.25871	-1.8
63.6555	47.3
68.04907	51.7
72.43941	54.8
76.82654	56.6
81.21044	60.6
85.59113	58.6
89.96862	63.6
94.34289	63.9
98.71396	69.5
103.08183	64.3
107.4465	71.8
111.80798	73
116.16626	71.4
120.52136	78.1
124.87327	76.8
129.222	78.4
133.56755	85.6
137.90993	82.6
142.24913	92.2
146.58517	106.5
150.91804	118.4
155.24774	139.7
159.57429	172.4
163.89768	208.9
168.21792	276.1
172.53501	374.7
176.84895	501
181.15975	707
185.46741	989.5
189.77193	1357.6
194.07331	1823.5
198.37157	2346.4
202.6667	2893
206.9587	3442.4
211.24758	3967.8
215.53334	4514.5
219.81599	5098.7
224.09553	5726.1
228.37195	6424.1
232.64527	7202.3
236.91549	8026.8
241.18261	8838
245.44663	9587.4
249.70755	10262.4
253.96539	10839.2
258.22014	11367.7
262.4718	11830
266.72039	12140.1
270.96589	12337.2
275.20832	12389.2
279.44768	12374.5
283.68397	12257.3
287.91719	12226.6
292.14735	12231.5
296.37445	12253.3
300.59849	12327.7
304.81948	12405.1
309.03742	12373.9
313.25231	12213.2
317.46415	11876.7
321.67296	11447.8
325.87872	11119.9
330.08145	10973.6
334.28114	10951.2
338.47781	11072.8
342.67145	11232.2
346.86207	11451.3
351.04966	11739.3
355.23424	12014.9
359.4158	12280.8
363.59435	12486.4
367.76989	12535.6
371.94243	12663
376.11196	12701.7
380.27849	12771.7
384.44203	12830.2
388.60257	12860.8
392.76012	12963.3
396.91468	13117.9
401.06626	13373.8
405.21485	13496.7
409.36047	13451.5
413.50311	13199.8
417.64277	13012.9
421.77947	12968.1
425.9132	13006
430.04396	13100.3
434.17176	13202
438.2966	13315.5
442.41849	13522.3
446.53742	13869
450.6534	14249.5
454.76644	14583.9
458.87653	14694
462.98368	14634.1
467.08789	14497.5
471.18916	14306.3
475.2875	14121.8
479.38291	14000.9
483.4754	13909.2
487.56496	13709.1
491.6516	13530.9
495.73531	13331.1
499.81612	13239.4
503.89401	13313.2
507.96899	13334.7
512.04106	13333.6
516.11023	13297.2
520.1765	13226.1
524.23987	13147.1
528.30034	13033.3
532.35792	12873.2
536.41261	12728.3
540.46441	12603.2
544.51333	12584
548.55936	12756.8
552.60252	12980
556.64279	13293.5
560.6802	13435.5
564.71473	13546.3
568.7464	13722.3
572.7752	13999.9
576.80114	14126
580.82422	14238.6
584.84444	14351.8
588.86181	14474.9
592.87633	14659
596.888	14828.1
600.89682	14967.2
604.9028	15453.4
608.90594	16888.6
612.90624	18598.7
616.90371	17728.2
620.89834	14813
624.89015	13500.2
628.87913	13345.3
632.86528	13366.8
636.84862	13306.6
640.82913	13096.7
644.80683	12751.3
648.78172	12484.8
652.75379	12411.2
656.72306	12566.8
660.68952	12791.7
664.65319	12796.6
668.61405	12570
672.57211	12483
676.52738	12438.8
680.47986	12467.2
684.42955	12428.2
688.37646	12410.5
692.32058	12431
696.26192	12520.9
700.20048	12628.8
704.13626	12730.1
708.06928	12706.3
711.99952	12596.9
715.927	12541.4
719.85171	12559.8
723.77365	12529.3
727.69284	12456
731.60928	12359.1
735.52295	12319.8
739.43388	12347.5
743.34206	12404
747.24749	12456.6
751.15017	12553.2
755.05012	12757.1
758.94733	13126.1
762.8418	13783.6
766.73354	14833.8
770.62254	15945.1
774.50882	16267.4
778.39237	15554.9
782.27321	14352.1
786.15132	13346.3
790.02671	12765.8
793.89938	12504.3
797.76935	12396.2
801.6366	12353.5
805.50115	12324.6
809.36299	12292.1
813.22213	12218.1
817.07857	12185
820.93231	12172.9
824.78336	12169.2
828.63172	12165.7
832.47738	12169.7
836.32036	12203.1
840.16066	12251.9
843.99827	12257
847.8332	12239.7
851.66546	12175.8
855.49504	12141.2
859.32195	12124.4
863.1462	12059.7
866.96777	12041.6
870.78668	11979.3
874.60293	11998.2
878.41652	11995.3
882.22745	12047.5
886.03573	12064.8
889.84136	12093.6
893.64433	12018.8
897.44466	11942.7
901.24235	11929.9
905.0374	11899.5
908.8298	11893.6
912.61957	11885.8
916.40671	11985.8
920.19121	12165.3
923.97308	12305.4
927.75233	12356.1
931.52895	12314.9
935.30295	12204.7
939.07433	12003.3
942.84309	11832.1
946.60924	11728.6
950.37278	11710.9
954.13371	11642.9
957.89203	11585.7
961.64774	11553
965.40086	11488.6
969.15137	11455.2
972.89929	11399.3
976.64461	11353.6
980.38733	11360.6
984.12747	11411
987.86502	11511.4
991.59999	11693.4
995.33237	11921.4
999.06217	12312.2
1002.78939	12763.8
1006.51404	13030.1
1010.23611	13180.6
1013.95561	13258
1017.67255	13264
1021.38692	13185.7
1025.09872	13058.9
1028.80796	13202.9
1032.51465	13647.5
1036.21877	14017.4
1039.92035	14030.4
1043.61937	13790.8
1047.31584	13396.6
1051.00976	12987.7
1054.70114	12759.8
1058.38998	12743.1
1062.07627	12748.8
1065.76003	12818.2
1069.44126	12850.2
1073.11995	12989.7
1076.79611	13056.8
1080.46974	13128.3
1084.14085	13227
1087.80943	13331
1091.47549	13411.7
1095.13903	13378
1098.80005	13170
1102.45857	12955.3
1106.11456	12756.4
1109.76805	12759.5
1113.41903	12846.6
1117.06751	12953.3
1120.71348	13118.4
1124.35696	13283.3
1127.99793	13452.4
1131.63641	13513.1
1135.2724	13382.8
1138.90589	13213.8
1142.5369	13122.1
1146.16542	13049.6
1149.79145	13081.8
1153.415	13144.5
1157.03607	13301
1160.65467	13581.9
1164.27079	14012
1167.88443	14638.2
1171.49561	15533.7
1175.10432	16729.4
1178.71056	18250.5
1182.31434	19628.6
1185.91565	20400.2
1189.51451	20426.1
1193.11091	19851.5
1196.70485	18979.9
1200.29634	18070.5
1203.88538	17380.3
1207.47197	16799
1211.05612	16345.4
1214.63782	16080.6
1218.21708	15920
1221.79391	15903.2
1225.36829	15905.5
1228.94024	15814.2
1232.50976	15586.2
1236.07685	15415
1239.6415	15309.4
1243.20374	15282.7
1246.76355	15382.2
1250.32093	15557.2
1253.8759	15884
1257.42845	16303
1260.97859	16698
1264.52631	17090.3
1268.07163	17444
1271.61453	17914.8
1275.15503	18461.2
1278.69312	19017.3
1282.22882	19472.9
1285.76211	19862.5
1289.29301	20315.5
1292.82151	20860.1
1296.34761	21627.5
1299.87133	22652.2
1303.39266	23953.5
1306.9116	25529.2
1310.42815	27169.7
1313.94233	28259.7
1317.45412	28280.2
1320.96354	27656.4
1324.47058	26911.7
1327.97525	26217.6
1331.47754	25690.1
1334.97747	25533.6
1338.47502	25663.3
1341.97022	25818
1345.46305	25715.5
1348.95352	25403.3
1352.44163	25135.7
1355.92738	25322.6
1359.41078	26299
1362.89183	27487
1366.37053	27154.9
1369.84688	24883.6
1373.32088	22272.4
1376.79254	20467.1
1380.26186	19676.9
1383.72883	19447
1387.19347	19425.1
1390.65578	19249.6
1394.11575	19271.4
1397.57339	19520.4
1401.0287	19961.8
1404.48168	20438.3
1407.93234	20685.4
1411.38068	20728.1
1414.82669	20344.3
1418.27039	19650.3
1421.71177	18871.6
1425.15083	18195.7
1428.58758	17759.8
1432.02203	17701.6
1435.45416	17861.8
1438.88399	18215.1
1442.31151	18505.5
1445.73673	18805.5
1449.15965	19064.5
1452.58027	19242.1
1455.9986	19317.9
1459.41463	19449.8
1462.82837	19628.5
1466.23982	20010
1469.64898	20308.2
1473.05586	20545.1
1476.46045	20518
1479.86276	20493.1
1483.26279	20378
1486.66054	20332.7
1490.05602	20377
1493.44922	20586.5
1496.84016	20728.5
1500.22882	21026.6
1503.61521	21536.7
1506.99934	22327.9
1510.38121	23134.5
1513.76081	23549.5
1517.13816	23196.6
1520.51324	22203.6
1523.88607	21172.8
1527.25665	20456.8
1530.62498	20062.3
1533.99105	19805.8
1537.35488	19617.9
1540.71647	19531.9
1544.07581	19353.7
1547.4329	19108.4
1550.78776	18865.6
1554.14038	18690.3
1557.49077	18666
1560.83892	18699.9
1564.18484	18715.2
1567.52853	18668.6
1570.86999	18660.6
1574.20922	18793.6
1577.54624	18912.4
1580.88103	18929.8
1584.2136	18928.9
1587.54395	19303.9
1590.87208	20085.3
1594.19801	21288.8
1597.52172	22569.8
1600.84321	23089
1604.16251	22331.1
1607.47959	20759.1
1610.79447	19081.3
1614.10715	17549.9
1617.41763	16235.3
1620.7259	15395
1624.03199	14904
1627.33587	14878.7
1630.63757	15288
1633.93707	16097
1637.23439	17311.1
1640.52951	18898
1643.82246	20573.3
1647.11321	21785.5
1650.40179	22085.5
1653.68819	20917.5
1656.97241	18628.8
1660.25446	16277.2
1663.53433	14489.2
1666.81203	13325.5
1670.08756	12577.3
1673.36092	12165.4
1676.63211	11839.4
1679.90115	11652.8
1683.16801	11485.1
1686.43272	11385.6
1689.69527	11310.2
1692.95567	11188.8
1696.2139	11094.9
1699.46999	11038.5
1702.72392	10992.8
1705.97571	11012.3
1709.22535	11007.8
1712.47284	11031.6
1715.71819	11013.1
1718.96139	11023.5
1722.20246	11002.7
1725.44139	10974.8
1728.67818	10907.2
1731.91284	10855
1735.14537	10806.2
1738.37576	10769.3
1741.60403	10731.3
1744.83017	10693.1
1748.05418	10666.9
1751.27607	10656.5
1754.49584	10606.5
1757.71349	10601.1
1760.92903	10548.1
1764.14244	10551.6
1767.35375	10545.4
1770.56294	10527.4
1773.77002	10548.5
1776.97499	10529.5
1780.17785	10567.4
1783.37861	10554.6
1786.57727	10539.4
1789.77382	10537.9
1792.96828	10526.1
1796.16064	10513
1799.3509	10532.9
1802.53907	10508.6
1805.72514	10483
1808.90913	10441.6
1812.09102	10429.2
1815.27083	10395.4
1818.44856	10412
1821.6242	10373.9
1824.79776	10364.5
1827.96924	10383.4
1831.13864	10355
1834.30597	10352.6
1837.47122	10357.3
1840.6344	10355.5
1843.7955	10363.1
1846.95454	10366.6
1850.11151	10368
1853.26642	10397.2
1856.41926	10398.2
1859.57004	10402.7
1862.71876	10378.7
1865.86542	10379.5
1869.01003	10383.3
1872.15258	10418.6
1875.29308	10377.8
1878.43152	10368.3
1881.56792	10377
1884.70227	10390.5
1887.83457	10382.1
1890.96482	10372.9
1894.09304	10387.8
1897.21921	10394.1
1900.34335	10377.3
1903.46544	10370.5
1906.58551	10364.9
1909.70353	10364.8
1912.81953	10346
1915.93349	10371.5
1919.04543	10338.9
1922.15534	10330
1925.26322	10284.6
1928.36908	10275.6
1931.47292	10242.8
1934.57473	10217.1
1937.67453	10193.5
1940.77232	10155
1943.86808	10108.6
1946.96184	10070.8
1950.05358	10037.5
1953.14331	10024.9
1956.23103	9985.3
1959.31675	9944.3
1962.40046	9917.2
1965.48217	9895.3
1968.56188	9884.1
1971.63959	9854.3
1974.7153	9813.6
1977.78901	9790.7
1980.86073	9731.4
1983.93046	9740.4
1986.99819	9688.8
1990.06394	9652.4
1993.1277	9646.8
1996.18947	9591.5
1999.24925	9577
2002.30706	9550.4
2005.36288	9508.5
2008.41672	9492.7
2011.46859	9475.6
2014.51848	9441.5
2017.56639	9407.2
2020.61233	9424.9
2023.6563	9408.5
2026.6983	9354.8
2029.73833	9343.9
2032.7764	9356.6
2035.8125	9326.7
2038.84664	9312.9
2041.87881	9320.2
2044.90903	9289.9
2047.93729	9268.9
2050.96359	9264.7
2053.98794	9236.3
2057.01034	9236.3
2060.03078	9251.9
2063.04927	9230.1
2066.06582	9215.7
2069.08042	9235
2072.09307	9220.5
2075.10378	9204.6
2078.11255	9210.7
2081.11938	9190.4
2084.12426	9185.1
2087.12722	9172.7
2090.12824	9159.6
2093.12732	9173.1
2096.12447	9153.8
2099.11969	9171.7
2102.11299	9174.6
2105.10435	9194
2108.09379	9181.3
2111.08131	9204.4
2114.0669	9198
2117.05057	9217.7
2120.03233	9193.7
2123.01216	9215.5
2125.99008	9234.6
2128.96609	9242.1
2131.94018	9237.9
2134.91236	9223.2
2137.88263	9242.7
2140.851	9236.1
2143.81746	9256.5
2146.78201	9261
2149.74466	9276.2
2152.7054	9265.9
2155.66425	9265.6
2158.6212	9283.1
2161.57625	9259.7
2164.52941	9266.7
2167.48067	9246
2170.43004	9246.7
2173.37752	9267.4
2176.32311	9241.6
2179.26681	9243
2182.20863	9255.3
2185.14856	9257.6
2188.08661	9255.4
2191.02278	9297.7
2193.95707	9268.4
2196.88948	9261.1
2199.82001	9263.7
2202.74867	9270.3
2205.67545	9268.9
2208.60037	9264.2
2211.52341	9240.4
2214.44458	9230.1
2217.36388	9220.6
2220.28132	9215.9
2223.1969	9191
2226.11061	9198.9
2229.02246	9180.7
2231.93245	9163.6
2234.84058	9139.6
2237.74686	9094.2
2240.65128	9108.4
2243.55385	9097
2246.45456	9097.8
2249.35343	9079.6
2252.25044	9069.8
2255.14561	9058.1
2258.03893	9057.5
2260.93041	9021.5
2263.82004	8999.1
2266.70783	8996.7
2269.59378	8963.8
2272.4779	8939.1
2275.36017	8911.6
2278.24061	8916.2
2281.11922	8903.1
2283.996	8893.5
2286.87094	8882.7
2289.74405	8890.4
2292.61534	8851.4
2295.4848	8843.1
2298.35243	8869.4
2301.21824	8861.9
2304.08223	8890.6
2306.94439	8883
2309.80474	8892.2
2312.66327	8892.9
2315.51999	8895
2318.37489	8907.8
2321.22797	8880
2324.07925	8885
2326.92871	8875.6
2329.77637	8859.2
2332.62222	8838.7
2335.46626	8867.3
2338.3085	8862.8
2341.14893	8839.1
2343.98756	8858.9
2346.8244	8863.6
2349.65943	8856.6
2352.49267	8856.5
2355.32411	8851.9
2358.15376	8856.2
2360.98161	8835
2363.80768	8836.1
2366.63195	8826
2369.45444	8801.7
2372.27514	8796.7
2375.09405	8782.6
2377.91118	8762.4
2380.72652	8740.8
2383.54009	8714.5
2386.35187	8706.1
2389.16188	8696.2
2391.97011	8676.7
2394.77657	8649.9
2397.58125	8636.2
2400.38416	8662.7
2403.18529	8624.3
2405.98466	8614.1
2408.78226	8598.5
2411.57809	8575.7
2414.37216	8572.6
2417.16446	8566
2419.955	8549.1
2422.74378	8536.5
2425.5308	8539.9
2428.31606	8544
2431.09956	8521.4
2433.88131	8513.9
2436.6613	8537.3
2439.43954	8529.4
2442.21603	8523.2
2444.99077	8503
2447.76377	8496.9
2450.53501	8497.9
2453.30451	8487.8
2456.07226	8469.4
2458.83827	8478.6
2461.60254	8494.8
2464.36507	8470.5
2467.12586	8458.8
2469.88492	8485.9
2472.64224	8501.6
2475.39782	8491.2
2478.15167	8480
2480.90379	8485.7
2483.65417	8506.1
2486.40283	8496
2489.14976	8527.6
2491.89497	8511.8
2494.63845	8527.5
2497.3802	8517.1
2500.12024	8524.6
2502.85855	8538.4
2505.59514	8543.2
2508.33002	8509.1
2511.06318	8508.6
2513.79462	8499
2516.52435	8473.9
2519.25237	8479.5
2521.97867	8472.2
2524.70327	8476.1
2527.42616	8465.9
2530.14734	8455.5
2532.86681	8431.6
2535.58458	8443.5
2538.30065	8443.4
2541.01501	8441.8
2543.72768	8438.5
2546.43864	8435.3
2549.14791	8406.1
2551.85548	8419.8
2554.56136	8399.2
2557.26554	8403.8
2559.96803	8378.4
2562.66883	8400
2565.36794	8374.5
2568.06536	8378.4
2570.7611	8371.5
2573.45514	8356.1
2576.14751	8344.3
2578.83819	8357.1
2581.52719	8372.9
2584.21451	8364.1
2586.90015	8368.3
2589.58411	8345.5
2592.2664	8366.3
2594.94701	8334.9
2597.62594	8343.1
2600.30321	8328.7
2602.9788	8333.9
2605.65273	8322.1
2608.32498	8341.1
2610.99557	8335.8
2613.66449	8319.4
2616.33175	8337.8
2618.99734	8343.6
2621.66128	8356.6
2624.32355	8327.8
2626.98416	8341.6
2629.64311	8340.4
2632.30041	8357.2
2634.95605	8336
2637.61004	8349.3
2640.26238	8310
2642.91306	8286.9
2645.56209	8306.3
2648.20948	8294.2
2650.85521	8313.1
2653.4993	8283.5
2656.14175	8291.5
2658.78255	8296.1
2661.42171	8299.7
2664.05923	8318.4
2666.6951	8295.2
2669.32934	8325.4
2671.96194	8326.7
2674.59291	8344.2
2677.22224	8324
2679.84993	8318.4
2682.476	8296
2685.10043	8301
2687.72324	8308.7
2690.34441	8271.8
2692.96396	8290.4
2695.58188	8288.6
2698.19818	8311
2700.81285	8288
2703.4259	8259.8
2706.03733	8250.6
2708.64714	8258
2711.25533	8305.2
2713.86191	8299.8
2716.46687	8307.8
2719.07021	8312.7
2721.67194	8307.1
2724.27206	8329.5
2726.87057	8323.4
2729.46747	8329.7
2732.06276	8319.2
2734.65644	8331.3
2737.24852	8320.7
2739.83899	8317.6
2742.42786	8330
2745.01513	8306.7
2747.60079	8341.1
2750.18486	8318.7
2752.76733	8310.8
2755.3482	8314.8
2757.92747	8335.4
2760.50515	8308.3
2763.08123	8304.9
2765.65573	8309.2
2768.22863	8302.1
2770.79994	8307.6
2773.36967	8298.8
2775.9378	8305.8
2778.50435	8284.4
2781.06932	8296.6
2783.6327	8296
2786.1945	8295.4
2788.75471	8281.5
2791.31335	8252.9
2793.87041	8263.2
2796.42589	8221.2
2798.97979	8244.7
2801.53212	8209.5
2804.08288	8210.1
2806.63206	8188
2809.17967	8162.3
2811.72571	8161.2
2814.27018	8161.6
2816.81308	8153.2
2819.35442	8151.5
2821.89419	8130.7
2824.43239	8155.1
2826.96904	8128.7
2829.50412	8128
2832.03763	8098.4
2834.56959	8126.5
2837.1	8111.4
2839.62884	8102.6
2842.15613	8116.1
2844.68186	8124.4
2847.20604	8135.7
2849.72867	8117.4
2852.24974	8114.2
2854.76927	8137.6
2857.28724	8102.2
2859.80367	8077.5
2862.31855	8075.4
2864.83189	8086.5
2867.34368	8066
2869.85393	8082.7
2872.36264	8071.7
2874.8698	8066.9
2877.37543	8057.9
2879.87952	8060.8
2882.38207	8067.7
2884.88308	8064.5
2887.38256	8072.1
2889.88051	8058.3
2892.37692	8052.2
2894.8718	8070.4
2897.36515	8077.9
2899.85698	8056.8
2902.34727	8110.7
2904.83604	8105.4
2907.32328	8128.1
2909.809	8106.3
2912.29319	8122
2914.77587	8128
2917.25702	8126
2919.73665	8130.9
2922.21476	8120.6
2924.69136	8126.1
2927.16644	8127
2929.64	8102.8
2932.11205	8082
2934.58258	8052.5
2937.05161	8087.2
2939.51912	8070.8
2941.98513	8060.3
2944.44962	8056.9
2946.91261	8017.9
2949.37409	8028.7
2951.83407	8034.4
2954.29254	8023.4
2956.74951	7980.1
2959.20498	8013.3
2961.65895	7981.6
2964.11142	7999.4
2966.56239	7965.6
2969.01186	7969.1
2971.45984	7954.8
2973.90632	7933.8
2976.35131	7931.4
2978.7948	7912.6
2981.23681	7887.5
2983.67732	7882.6
2986.11635	7858.6
2988.55388	7864.1
2990.98993	7832.9
2993.4245	7813
2995.85758	7794.9
2998.28917	7793.2
3000.71928	7762.4
3003.14791	7742.8
3005.57506	7748.1
3008.00073	7744.1
3010.42493	7733.2
3012.84764	7717.7
3015.26888	7738.7
3017.68865	7695.4
3020.10694	7699
3022.52376	7691
3024.9391	7686.6
3027.35298	7671.9
3029.76539	7678.2
3032.17632	7669.7
3034.5858	7654.8
3036.9938	7636
3039.40034	7650.6
3041.80542	7637.8
3044.20903	7631.1
3046.61118	7632.1
3049.01187	7617.3
3051.4111	7609.1
3053.80888	7602.7
3056.20519	7586.2
3058.60005	7556.1
3060.99345	7540.3
3063.3854	7544.7
3065.7759	7521.4
3068.16494	7496.1
3070.55254	7480.5
3072.93868	7460
3075.32338	7443.4
3077.70662	7447.7
3080.08842	7398.1
3082.46878	7422.8
3084.84769	7404.3
3087.22515	7403
3089.60118	7388.6
3091.97576	7383.1
3094.3489	7389.6
3096.72061	7399.8
3099.09087	7405.6
3101.4597	7384.6
3103.82709	7399.4
3106.19305	7382.7
3108.55757	7404.9
3110.92066	7356.9
3113.28232	7359.1
3115.64255	7332.2
3118.00134	7367.7
3120.35871	7344.8
3122.71466	7336
3125.06917	7301.4
3127.42226	7284.8
3129.77393	7310.1
3132.12417	7302.9
3134.47299	7292
3136.82039	7287.6
3139.16636	7300.3
3141.51092	7287.2
3143.85406	7313.3
3146.19579	7332.7
3148.53609	7313.4
3150.87499	7362.3
3153.21246	7321.3
3155.54853	7347.3
3157.88318	7329.2
3160.21642	7324.9
3162.54826	7338.5
3164.87868	7335.9
3167.2077	7335.4
3169.5353	7336
3171.86151	7370.1
3174.18631	7335.5
3176.5097	7347.1
3178.83169	7334.7
3181.15228	7329.7
3183.47147	7318.7
3185.78926	7298.4
3188.10565	7311.7
3190.42065	7309.2
3192.73424	7319.9
3195.04645	7317.7
3197.35725	7313
3199.66667	7323.6
3201.97469	7332.2
3204.28132	7328.6
3206.58656	7344.1
3208.8904	7334.4
3211.19287	7365.9
3213.49394	7362
3215.79363	7350.8
3218.09193	7351.7
3220.38884	7364
3222.68438	7343
3224.97853	7359.9
3227.2713	7355.4
3229.56269	7311.5
3231.8527	7339.4
3234.14133	7331.9
3236.42858	7304.2
3238.71446	7306.5
3240.99896	7314.8
3243.28209	7293.9
3245.56384	7275.4
3247.84423	7290.6
3250.12324	7266.2
3252.40088	7283.5
3254.67715	7268.2
3256.95205	7255
3259.22558	7275.7
3261.49775	7271.3
3263.76855	7247.8
3266.03799	7233.2
3268.30606	7241.3
3270.57277	7203.9
3272.83812	7208.6
3275.10211	7171.6
3277.36474	7170
3279.62601	7187.3
3281.88593	7173.5
3284.14448	7165.2
3286.40168	7182.2
3288.65753	7177.4
3290.91202	7178.4
3293.16516	7146.7
3295.41695	7142
3297.66738	7108.6
3299.91647	7058.5
3302.16421	7015.6
3304.4106	7015.2
3306.65564	6977.2
3308.89933	6924
3311.14169	6883.3
3313.38269	6838.8
3315.62236	6784.4
3317.86068	6742.5
3320.09766	6702.1
3322.3333	6644.3
3324.5676	6622.9
3326.80056	6548
3329.03219	6499.3
3331.26248	2.5
3333.49143	0.9
3335.71905	-0.6
