Data from AgNPs_FTO_APTES_UA_1uM_CRN_200uM_R6G_10uM_NaF_0.1M_Addition_RamanShift__29__17-38-49-851.txt Node

Date: Thu Jan 27 17:38:49 GMT 2022
User: TCL
Spectrometer: QEP01345
Trigger mode: 4
Integration Time (sec): 7.000000E0
Scans to average: 10
Electric dark correction enabled: true
Nonlinearity correction enabled: false
Boxcar width: 0
XAxis mode: Raman Shifts
Number of Pixels in Spectrum: 1044
>>>>>Begin Spectral Data<<<<<
46.04893	0.0875
50.45542	-0.1125
54.85868	-0.5125
59.25871	-0.3125
63.6555	33.0875
68.04907	35.3875
72.43941	36.5875
76.82654	42.7875
81.21044	40.4875
85.59113	42.5875
89.96862	43.9875
94.34289	48.6875
98.71396	52.4875
103.08183	49.8875
107.4465	51.7875
111.80798	53.9875
116.16626	49.5875
120.52136	54.7875
124.87327	56.5875
129.222	50.1875
133.56755	53.1875
137.90993	54.4875
142.24913	55.8875
146.58517	62.6875
150.91804	65.4875
155.24774	70.2875
159.57429	80.4875
163.89768	95.6875
168.21792	122.0875
172.53501	162.7875
176.84895	210.6875
181.15975	288.3875
185.46741	389.6875
189.77193	537.2875
194.07331	715.3875
198.37157	920.0875
202.6667	1137.9875
206.9587	1350.1875
211.24758	1555.0875
215.53334	1779.5875
219.81599	2010.5875
224.09553	2255.6875
228.37195	2551.9875
232.64527	2863.1875
236.91549	3193.1875
241.18261	3503.1875
245.44663	3761.2875
249.70755	4000.9875
253.96539	4203.0875
258.22014	4363.5875
262.4718	4489.2875
266.72039	4579.0875
270.96589	4645.1875
275.20832	4647.3875
279.44768	4583.4875
283.68397	4529.3875
287.91719	4469.1875
292.14735	4460.5875
296.37445	4501.1875
300.59849	4596.9875
304.81948	4745.9875
309.03742	4845.9875
313.25231	4831.3875
317.46415	4672.7875
321.67296	4395.5875
325.87872	4156.4875
330.08145	4061.7875
334.28114	4056.1875
338.47781	4108.1875
342.67145	4214.8875
346.86207	4350.8875
351.04966	4594.9875
355.23424	4820.0875
359.4158	4987.4875
363.59435	5085.9875
367.76989	5121.0875
371.94243	5126.8875
376.11196	5105.1875
380.27849	5090.1875
384.44203	5053.3875
388.60257	5000.1875
392.76012	5005.6875
396.91468	5051.9875
401.06626	5166.6875
405.21485	5277.8875
409.36047	5249.7875
413.50311	5063.0875
417.64277	4864.0875
421.77947	4738.2875
425.9132	4686.1875
430.04396	4674.8875
434.17176	4687.7875
438.2966	4760.6875
442.41849	4853.4875
446.53742	4961.0875
450.6534	5080.0875
454.76644	5155.9875
458.87653	5184.6875
462.98368	5147.6875
467.08789	5090.6875
471.18916	5019.3875
475.2875	4933.0875
479.38291	4861.7875
483.4754	4799.0875
487.56496	4749.5875
491.6516	4729.2875
495.73531	4722.9875
499.81612	4726.2875
503.89401	4763.8875
507.96899	4801.4875
512.04106	4857.4875
516.11023	4922.1875
520.1765	4976.6875
524.23987	4964.5875
528.30034	4884.8875
532.35792	4788.2875
536.41261	4710.3875
540.46441	4626.4875
544.51333	4595.2875
548.55936	4601.0875
552.60252	4672.3875
556.64279	4753.6875
560.6802	4807.1875
564.71473	4860.2875
568.7464	5005.2875
572.7752	5095.4875
576.80114	5027.6875
580.82422	4932.1875
584.84444	4884.2875
588.86181	4872.0875
592.87633	4874.2875
596.888	4915.8875
600.89682	5025.0875
604.9028	5415.0875
608.90594	6450.1875
612.90624	7885.6875
616.90371	7759.5875
620.89834	5940.3875
624.89015	5019.4875
628.87913	4820.3875
632.86528	4806.1875
636.84862	4854.0875
640.82913	4834.7875
644.80683	4706.1875
648.78172	4625.7875
652.75379	4631.4875
656.72306	4771.7875
660.68952	4958.2875
664.65319	4959.0875
668.61405	4781.9875
672.57211	4697.7875
676.52738	4713.6875
680.47986	4740.4875
684.42955	4708.6875
688.37646	4710.6875
692.32058	4712.0875
696.26192	4731.3875
700.20048	4776.3875
704.13626	4791.3875
708.06928	4779.1875
711.99952	4739.1875
715.927	4716.0875
719.85171	4703.6875
723.77365	4710.9875
727.69284	4669.1875
731.60928	4655.8875
735.52295	4648.3875
739.43388	4655.3875
743.34206	4689.5875
747.24749	4692.1875
751.15017	4747.1875
755.05012	4807.2875
758.94733	4974.4875
762.8418	5307.0875
766.73354	5897.9875
770.62254	6529.3875
774.50882	6895.3875
778.39237	6736.8875
782.27321	6060.8875
786.15132	5364.1875
790.02671	4970.4875
793.89938	4789.9875
797.76935	4722.6875
801.6366	4688.2875
805.50115	4660.8875
809.36299	4652.6875
813.22213	4652.8875
817.07857	4652.1875
820.93231	4638.0875
824.78336	4649.3875
828.63172	4670.9875
832.47738	4680.5875
836.32036	4675.0875
840.16066	4670.1875
843.99827	4664.1875
847.8332	4643.3875
851.66546	4626.6875
855.49504	4639.1875
859.32195	4622.5875
863.1462	4602.4875
866.96777	4596.5875
870.78668	4582.4875
874.60293	4583.7875
878.41652	4612.2875
882.22745	4615.6875
886.03573	4635.9875
889.84136	4654.1875
893.64433	4631.1875
897.44466	4622.4875
901.24235	4604.4875
905.0374	4588.3875
908.8298	4574.4875
912.61957	4565.3875
916.40671	4583.0875
920.19121	4628.7875
923.97308	4656.2875
927.75233	4700.7875
931.52895	4716.9875
935.30295	4692.7875
939.07433	4589.6875
942.84309	4510.1875
946.60924	4448.7875
950.37278	4392.9875
954.13371	4377.3875
957.89203	4346.6875
961.64774	4334.5875
965.40086	4332.0875
969.15137	4306.6875
972.89929	4286.4875
976.64461	4297.3875
980.38733	4295.4875
984.12747	4297.9875
987.86502	4305.1875
991.59999	4327.2875
995.33237	4352.5875
999.06217	4420.7875
1002.78939	4482.8875
1006.51404	4532.4875
1010.23611	4595.1875
1013.95561	4635.4875
1017.67255	4637.0875
1021.38692	4598.4875
1025.09872	4539.5875
1028.80796	4513.5875
1032.51465	4522.7875
1036.21877	4569.1875
1039.92035	4645.9875
1043.61937	4659.9875
1047.31584	4649.3875
1051.00976	4659.6875
1054.70114	4635.5875
1058.38998	4639.8875
1062.07627	4644.1875
1065.76003	4684.6875
1069.44126	4689.5875
1073.11995	4745.6875
1076.79611	4797.7875
1080.46974	4841.4875
1084.14085	4905.7875
1087.80943	4937.8875
1091.47549	4975.9875
1095.13903	4919.4875
1098.80005	4797.2875
1102.45857	4678.3875
1106.11456	4613.8875
1109.76805	4625.0875
1113.41903	4687.8875
1117.06751	4789.4875
1120.71348	4933.7875
1124.35696	5100.7875
1127.99793	5275.3875
1131.63641	5259.2875
1135.2724	5036.5875
1138.90589	4867.0875
1142.5369	4760.6875
1146.16542	4687.4875
1149.79145	4640.1875
1153.415	4654.5875
1157.03607	4670.8875
1160.65467	4730.7875
1164.27079	4827.8875
1167.88443	5001.6875
1171.49561	5297.3875
1175.10432	5771.5875
1178.71056	6372.7875
1182.31434	6780.1875
1185.91565	6823.6875
1189.51451	6654.8875
1193.11091	6339.2875
1196.70485	5997.0875
1200.29634	5727.1875
1203.88538	5499.2875
1207.47197	5274.8875
1211.05612	5053.0875
1214.63782	4955.9875
1218.21708	4916.9875
1221.79391	4951.8875
1225.36829	4974.4875
1228.94024	5025.1875
1232.50976	5065.7875
1236.07685	5092.8875
1239.6415	5102.9875
1243.20374	5095.9875
1246.76355	5117.9875
1250.32093	5138.4875
1253.8759	5200.9875
1257.42845	5315.4875
1260.97859	5402.1875
1264.52631	5509.7875
1268.07163	5612.7875
1271.61453	5715.3875
1275.15503	5779.6875
1278.69312	5807.8875
1282.22882	5829.1875
1285.76211	5921.7875
1289.29301	6046.5875
1292.82151	6207.2875
1296.34761	6358.3875
1299.87133	6587.7875
1303.39266	6921.8875
1306.9116	7457.7875
1310.42815	8088.3875
1313.94233	8467.2875
1317.45412	8343.2875
1320.96354	7894.6875
1324.47058	7412.4875
1327.97525	7021.1875
1331.47754	6817.2875
1334.97747	6755.2875
1338.47502	6756.6875
1341.97022	6884.6875
1345.46305	7066.2875
1348.95352	7334.5875
1352.44163	7755.3875
1355.92738	8373.7875
1359.41078	9276.2875
1362.89183	10103.4875
1366.37053	9823.7875
1369.84688	8643.5875
1373.32088	7481.2875
1376.79254	6656.6875
1380.26186	6202.2875
1383.72883	5973.1875
1387.19347	5787.3875
1390.65578	5604.5875
1394.11575	5431.1875
1397.57339	5344.6875
1401.0287	5347.7875
1404.48168	5406.7875
1407.93234	5443.4875
1411.38068	5509.3875
1414.82669	5514.1875
1418.27039	5479.2875
1421.71177	5402.0875
1425.15083	5350.6875
1428.58758	5330.9875
1432.02203	5342.7875
1435.45416	5395.2875
1438.88399	5404.6875
1442.31151	5386.4875
1445.73673	5344.6875
1449.15965	5356.5875
1452.58027	5335.7875
1455.9986	5299.6875
1459.41463	5270.9875
1462.82837	5312.7875
1466.23982	5360.0875
1469.64898	5456.4875
1473.05586	5508.1875
1476.46045	5548.5875
1479.86276	5618.0875
1483.26279	5719.3875
1486.66054	5848.2875
1490.05602	6019.8875
1493.44922	6259.6875
1496.84016	6610.2875
1500.22882	7116.8875
1503.61521	7763.5875
1506.99934	8421.5875
1510.38121	9024.9875
1513.76081	9288.0875
1517.13816	8914.9875
1520.51324	7991.7875
1523.88607	7079.4875
1527.25665	6489.8875
1530.62498	6161.1875
1533.99105	5964.6875
1537.35488	5857.5875
1540.71647	5775.6875
1544.07581	5752.4875
1547.4329	5748.5875
1550.78776	5730.4875
1554.14038	5734.3875
1557.49077	5740.4875
1560.83892	5813.1875
1564.18484	5929.9875
1567.52853	6051.9875
1570.86999	6154.4875
1574.20922	6232.5875
1577.54624	6215.9875
1580.88103	6020.5875
1584.2136	5697.9875
1587.54395	5533.7875
1590.87208	5544.0875
1594.19801	5740.3875
1597.52172	6007.0875
1600.84321	6161.2875
1604.16251	6054.2875
1607.47959	5761.6875
1610.79447	5469.0875
1614.10715	5165.0875
1617.41763	4923.7875
1620.7259	4768.7875
1624.03199	4702.5875
1627.33587	4700.0875
1630.63757	4745.0875
1633.93707	4890.0875
1637.23439	5091.0875
1640.52951	5403.5875
1643.82246	5826.2875
1647.11321	6329.0875
1650.40179	6701.7875
1653.68819	6571.0875
1656.97241	5926.1875
1660.25446	5209.5875
1663.53433	4700.9875
1666.81203	4407.9875
1670.08756	4247.1875
1673.36092	4160.0875
1676.63211	4090.8875
1679.90115	4048.9875
1683.16801	3998.5875
1686.43272	3955.6875
1689.69527	3914.1875
1692.95567	3889.0875
1696.2139	3842.0875
1699.46999	3792.6875
1702.72392	3779.7875
1705.97571	3798.3875
1709.22535	3824.4875
1712.47284	3835.3875
1715.71819	3874.5875
1718.96139	3884.7875
1722.20246	3886.4875
1725.44139	3880.2875
1728.67818	3853.2875
1731.91284	3829.5875
1735.14537	3810.1875
1738.37576	3788.3875
1741.60403	3761.5875
1744.83017	3760.7875
1748.05418	3747.4875
1751.27607	3726.3875
1754.49584	3687.2875
1757.71349	3691.9875
1760.92903	3655.2875
1764.14244	3632.1875
1767.35375	3643.7875
1770.56294	3630.2875
1773.77002	3619.7875
1776.97499	3620.8875
1780.17785	3630.6875
1783.37861	3639.2875
1786.57727	3638.7875
1789.77382	3625.4875
1792.96828	3621.5875
1796.16064	3614.4875
1799.3509	3606.5875
1802.53907	3601.1875
1805.72514	3601.7875
1808.90913	3589.5875
1812.09102	3578.5875
1815.27083	3582.7875
1818.44856	3559.6875
1821.6242	3558.6875
1824.79776	3543.6875
1827.96924	3544.3875
1831.13864	3539.9875
1834.30597	3543.4875
1837.47122	3537.3875
1840.6344	3521.4875
1843.7955	3532.2875
1846.95454	3514.9875
1850.11151	3526.7875
1853.26642	3528.6875
1856.41926	3518.2875
1859.57004	3529.4875
1862.71876	3523.8875
1865.86542	3529.3875
1869.01003	3514.0875
1872.15258	3520.0875
1875.29308	3516.0875
1878.43152	3516.0875
1881.56792	3504.0875
1884.70227	3512.0875
1887.83457	3497.0875
1890.96482	3507.3875
1894.09304	3484.8875
1897.21921	3487.3875
1900.34335	3485.0875
1903.46544	3497.4875
1906.58551	3485.9875
1909.70353	3493.7875
1912.81953	3486.3875
1915.93349	3483.8875
1919.04543	3483.0875
1922.15534	3470.2875
1925.26322	3465.7875
1928.36908	3461.6875
1931.47292	3447.8875
1934.57473	3437.7875
1937.67453	3428.2875
1940.77232	3413.4875
1943.86808	3405.9875
1946.96184	3390.9875
1950.05358	3379.8875
1953.14331	3350.9875
1956.23103	3363.8875
1959.31675	3331.7875
1962.40046	3325.2875
1965.48217	3321.3875
1968.56188	3309.1875
1971.63959	3287.2875
1974.7153	3291.2875
1977.78901	3285.5875
1980.86073	3270.0875
1983.93046	3252.4875
1986.99819	3243.1875
1990.06394	3220.7875
1993.1277	3222.5875
1996.18947	3223.4875
1999.24925	3212.5875
2002.30706	3198.0875
2005.36288	3190.2875
2008.41672	3172.4875
2011.46859	3174.8875
2014.51848	3162.7875
2017.56639	3159.2875
2020.61233	3151.2875
2023.6563	3141.5875
2026.6983	3122.3875
2029.73833	3128.8875
2032.7764	3114.2875
2035.8125	3093.8875
2038.84664	3104.6875
2041.87881	3094.7875
2044.90903	3091.6875
2047.93729	3082.6875
2050.96359	3079.6875
2053.98794	3064.3875
2057.01034	3060.5875
2060.03078	3055.7875
2063.04927	3062.1875
2066.06582	3057.3875
2069.08042	3062.5875
2072.09307	3060.9875
2075.10378	3041.9875
2078.11255	3045.2875
2081.11938	3047.7875
2084.12426	3042.5875
2087.12722	3032.0875
2090.12824	3046.9875
2093.12732	3045.0875
2096.12447	3039.0875
2099.11969	3029.5875
2102.11299	3030.7875
2105.10435	3038.5875
2108.09379	3031.7875
2111.08131	3045.0875
2114.0669	3046.5875
2117.05057	3043.7875
2120.03233	3050.6875
2123.01216	3049.5875
2125.99008	3050.5875
2128.96609	3042.1875
2131.94018	3056.1875
2134.91236	3051.6875
2137.88263	3059.0875
2140.851	3062.6875
2143.81746	3057.8875
2146.78201	3052.0875
2149.74466	3050.8875
2152.7054	3054.2875
2155.66425	3047.5875
2158.6212	3044.0875
2161.57625	3039.5875
2164.52941	3035.5875
2167.48067	3030.7875
2170.43004	3033.4875
2173.37752	3033.6875
2176.32311	3046.3875
2179.26681	3034.6875
2182.20863	3027.9875
2185.14856	3031.3875
2188.08661	3034.9875
2191.02278	3038.1875
2193.95707	3024.6875
2196.88948	3016.2875
2199.82001	3013.8875
2202.74867	3005.3875
2205.67545	3021.6875
2208.60037	3010.4875
2211.52341	2996.7875
2214.44458	2996.2875
2217.36388	2994.8875
2220.28132	2986.3875
2223.1969	2971.5875
2226.11061	2968.1875
2229.02246	2967.2875
2231.93245	2952.9875
2234.84058	2954.5875
2237.74686	2949.1875
2240.65128	2951.8875
2243.55385	2931.4875
2246.45456	2937.8875
2249.35343	2941.8875
2252.25044	2923.7875
2255.14561	2937.8875
2258.03893	2907.6875
2260.93041	2920.2875
2263.82004	2910.9875
2266.70783	2910.8875
2269.59378	2901.3875
2272.4779	2895.2875
2275.36017	2892.2875
2278.24061	2867.9875
2281.11922	2875.6875
2283.996	2879.2875
2286.87094	2854.9875
2289.74405	2844.6875
2292.61534	2860.2875
2295.4848	2844.0875
2298.35243	2846.5875
2301.21824	2832.3875
2304.08223	2846.9875
2306.94439	2837.0875
2309.80474	2838.5875
2312.66327	2828.8875
2315.51999	2817.8875
2318.37489	2826.7875
2321.22797	2825.3875
2324.07925	2818.9875
2326.92871	2814.0875
2329.77637	2809.0875
2332.62222	2807.2875
2335.46626	2790.7875
2338.3085	2795.7875
2341.14893	2796.7875
2343.98756	2805.3875
2346.8244	2785.5875
2349.65943	2778.6875
2352.49267	2794.5875
2355.32411	2793.5875
2358.15376	2784.4875
2360.98161	2785.6875
2363.80768	2787.1875
2366.63195	2781.4875
2369.45444	2787.4875
2372.27514	2776.7875
2375.09405	2776.4875
2377.91118	2785.1875
2380.72652	2759.1875
2383.54009	2752.1875
2386.35187	2737.6875
2389.16188	2739.7875
2391.97011	2732.9875
2394.77657	2723.4875
2397.58125	2701.9875
2400.38416	2711.0875
2403.18529	2704.4875
2405.98466	2703.9875
2408.78226	2695.3875
2411.57809	2699.1875
2414.37216	2687.7875
2417.16446	2678.3875
2419.955	2691.7875
2422.74378	2679.1875
2425.5308	2676.4875
2428.31606	2671.2875
2431.09956	2671.2875
2433.88131	2676.9875
2436.6613	2672.7875
2439.43954	2677.3875
2442.21603	2669.3875
2444.99077	2660.7875
2447.76377	2659.2875
2450.53501	2655.5875
2453.30451	2662.0875
2456.07226	2655.4875
2458.83827	2633.6875
2461.60254	2649.0875
2464.36507	2654.8875
2467.12586	2646.1875
2469.88492	2648.4875
2472.64224	2642.7875
2475.39782	2635.9875
2478.15167	2622.0875
2480.90379	2636.4875
2483.65417	2640.0875
2486.40283	2646.7875
2489.14976	2639.6875
2491.89497	2638.9875
2494.63845	2633.2875
2497.3802	2633.1875
2500.12024	2640.8875
2502.85855	2621.8875
2505.59514	2627.2875
2508.33002	2612.5875
2511.06318	2611.5875
2513.79462	2609.2875
2516.52435	2595.9875
2519.25237	2581.8875
2521.97867	2580.7875
2524.70327	2572.9875
2527.42616	2569.9875
2530.14734	2568.9875
2532.86681	2562.7875
2535.58458	2557.3875
2538.30065	2566.6875
2541.01501	2563.4875
2543.72768	2556.0875
2546.43864	2550.9875
2549.14791	2552.4875
2551.85548	2547.0875
2554.56136	2541.9875
2557.26554	2540.8875
2559.96803	2534.7875
2562.66883	2526.1875
2565.36794	2531.1875
2568.06536	2526.0875
2570.7611	2521.0875
2573.45514	2520.4875
2576.14751	2512.5875
2578.83819	2494.5875
2581.52719	2503.0875
2584.21451	2497.6875
2586.90015	2486.5875
2589.58411	2491.7875
2592.2664	2490.1875
2594.94701	2488.3875
2597.62594	2482.8875
2600.30321	2485.4875
2602.9788	2482.2875
2605.65273	2462.5875
2608.32498	2469.6875
2610.99557	2464.7875
2613.66449	2467.3875
2616.33175	2454.9875
2618.99734	2463.0875
2621.66128	2450.1875
2624.32355	2455.2875
2626.98416	2452.2875
2629.64311	2441.2875
2632.30041	2439.7875
2634.95605	2431.0875
2637.61004	2437.6875
2640.26238	2434.1875
2642.91306	2426.7875
2645.56209	2431.3875
2648.20948	2414.8875
2650.85521	2425.0875
2653.4993	2424.9875
2656.14175	2431.3875
2658.78255	2415.6875
2661.42171	2432.7875
2664.05923	2428.1875
2666.6951	2418.4875
2669.32934	2428.8875
2671.96194	2409.1875
2674.59291	2434.1875
2677.22224	2427.9875
2679.84993	2420.7875
2682.476	2422.3875
2685.10043	2424.6875
2687.72324	2425.9875
2690.34441	2423.1875
2692.96396	2431.9875
2695.58188	2429.1875
2698.19818	2417.4875
2700.81285	2429.4875
2703.4259	2439.8875
2706.03733	2414.4875
2708.64714	2425.1875
2711.25533	2423.0875
2713.86191	2443.9875
2716.46687	2435.3875
2719.07021	2444.7875
2721.67194	2439.2875
2724.27206	2455.9875
2726.87057	2453.4875
2729.46747	2451.9875
2732.06276	2451.0875
2734.65644	2447.1875
2737.24852	2435.7875
2739.83899	2431.7875
2742.42786	2428.8875
2745.01513	2415.8875
2747.60079	2416.5875
2750.18486	2406.4875
2752.76733	2411.6875
2755.3482	2404.6875
2757.92747	2391.5875
2760.50515	2402.5875
2763.08123	2397.5875
2765.65573	2399.3875
2768.22863	2385.7875
2770.79994	2390.2875
2773.36967	2382.2875
2775.9378	2383.7875
2778.50435	2378.9875
2781.06932	2382.7875
2783.6327	2383.9875
2786.1945	2371.7875
2788.75471	2390.7875
2791.31335	2375.3875
2793.87041	2366.3875
2796.42589	2379.0875
2798.97979	2375.8875
2801.53212	2383.7875
2804.08288	2372.0875
2806.63206	2373.8875
2809.17967	2370.8875
2811.72571	2381.6875
2814.27018	2371.2875
2816.81308	2387.6875
2819.35442	2385.4875
2821.89419	2395.3875
2824.43239	2390.8875
2826.96904	2385.5875
2829.50412	2396.2875
2832.03763	2401.9875
2834.56959	2407.9875
2837.1	2427.9875
2839.62884	2439.7875
2842.15613	2480.0875
2844.68186	2543.2875
2847.20604	2596.1875
2849.72867	2648.5875
2852.24974	2667.5875
2854.76927	2662.8875
2857.28724	2653.8875
2859.80367	2634.2875
2862.31855	2620.6875
2864.83189	2613.1875
2867.34368	2602.1875
2869.85393	2603.6875
2872.36264	2584.1875
2874.8698	2587.0875
2877.37543	2596.2875
2879.87952	2580.9875
2882.38207	2572.0875
2884.88308	2584.2875
2887.38256	2586.4875
2889.88051	2570.5875
2892.37692	2579.5875
2894.8718	2580.9875
2897.36515	2590.7875
2899.85698	2596.9875
2902.34727	2601.7875
2904.83604	2599.3875
2907.32328	2601.2875
2909.809	2600.3875
2912.29319	2591.0875
2914.77587	2590.6875
2917.25702	2579.1875
2919.73665	2574.1875
2922.21476	2576.4875
2924.69136	2576.1875
2927.16644	2581.7875
2929.64	2575.7875
2932.11205	2570.0875
2934.58258	2558.7875
2937.05161	2555.5875
2939.51912	2539.2875
2941.98513	2505.9875
2944.44962	2480.1875
2946.91261	2439.8875
2949.37409	2417.5875
2951.83407	2401.8875
2954.29254	2389.6875
2956.74951	2368.5875
2959.20498	2359.2875
2961.65895	2352.0875
2964.11142	2345.1875
2966.56239	2331.4875
2969.01186	2325.8875
2971.45984	2308.3875
2973.90632	2306.9875
2976.35131	2298.1875
2978.7948	2280.6875
2981.23681	2268.4875
2983.67732	2276.4875
2986.11635	2257.7875
2988.55388	2258.5875
2990.98993	2248.5875
2993.4245	2237.3875
2995.85758	2232.5875
2998.28917	2245.7875
3000.71928	2226.3875
3003.14791	2218.9875
3005.57506	2209.1875
3008.00073	2207.7875
3010.42493	2208.2875
3012.84764	2214.1875
3015.26888	2199.2875
3017.68865	2206.3875
3020.10694	2200.5875
3022.52376	2205.4875
3024.9391	2185.7875
3027.35298	2191.1875
3029.76539	2188.5875
3032.17632	2193.9875
3034.5858	2187.1875
3036.9938	2186.1875
3039.40034	2181.4875
3041.80542	2192.2875
3044.20903	2183.4875
3046.61118	2187.4875
3049.01187	2184.7875
3051.4111	2179.2875
3053.80888	2183.2875
3056.20519	2180.4875
3058.60005	2189.0875
3060.99345	2177.4875
3063.3854	2176.3875
3065.7759	2164.9875
3068.16494	2177.0875
3070.55254	2170.0875
3072.93868	2166.2875
3075.32338	2165.3875
3077.70662	2170.6875
3080.08842	2161.6875
3082.46878	2165.4875
3084.84769	2157.9875
3087.22515	2151.0875
3089.60118	2156.2875
3091.97576	2161.0875
3094.3489	2157.9875
3096.72061	2162.8875
3099.09087	2177.2875
3101.4597	2164.7875
3103.82709	2173.8875
3106.19305	2168.5875
3108.55757	2167.1875
3110.92066	2171.4875
3113.28232	2176.2875
3115.64255	2167.2875
3118.00134	2167.8875
3120.35871	2171.4875
3122.71466	2168.8875
3125.06917	2174.4875
3127.42226	2166.6875
3129.77393	2177.0875
3132.12417	2190.0875
3134.47299	2188.1875
3136.82039	2192.2875
3139.16636	2192.5875
3141.51092	2216.7875
3143.85406	2208.3875
3146.19579	2202.3875
3148.53609	2221.6875
3150.87499	2237.4875
3153.21246	2239.9875
3155.54853	2244.4875
3157.88318	2250.9875
3160.21642	2261.0875
3162.54826	2261.1875
3164.87868	2263.5875
3167.2077	2267.6875
3169.5353	2275.6875
3171.86151	2276.2875
3174.18631	2288.0875
3176.5097	2287.2875
3178.83169	2292.1875
3181.15228	2294.7875
3183.47147	2291.5875
3185.78926	2299.4875
3188.10565	2300.6875
3190.42065	2302.8875
3192.73424	2311.7875
3195.04645	2318.2875
3197.35725	2314.6875
3199.66667	2322.3875
3201.97469	2322.4875
3204.28132	2328.1875
3206.58656	2328.1875
3208.8904	2330.3875
3211.19287	2347.7875
3213.49394	2344.8875
3215.79363	2351.7875
3218.09193	2350.3875
3220.38884	2351.8875
3222.68438	2344.0875
3224.97853	2350.2875
3227.2713	2357.8875
3229.56269	2356.3875
3231.8527	2352.8875
3234.14133	2357.9875
3236.42858	2344.5875
3238.71446	2352.8875
3240.99896	2344.8875
3243.28209	2354.3875
3245.56384	2342.7875
3247.84423	2340.2875
3250.12324	2343.7875
3252.40088	2348.1875
3254.67715	2337.0875
3256.95205	2345.1875
3259.22558	2353.5875
3261.49775	2347.6875
3263.76855	2336.9875
3266.03799	2336.1875
3268.30606	2343.3875
3270.57277	2342.2875
3272.83812	2318.4875
3275.10211	2326.4875
3277.36474	2308.5875
3279.62601	2333.1875
3281.88593	2310.9875
3284.14448	2321.4875
3286.40168	2314.4875
3288.65753	2320.7875
3290.91202	2318.1875
3293.16516	2306.4875
3295.41695	2299.9875
3297.66738	2294.9875
3299.91647	2286.0875
3302.16421	2278.7875
3304.4106	2265.7875
3306.65564	2247.2875
3308.89933	2243.7875
3311.14169	2225.0875
3313.38269	2208.2875
3315.62236	2196.2875
3317.86068	2178.9875
3320.09766	2172.3875
3322.3333	2144.1875
3324.5676	2146.8875
3326.80056	2106.6875
3329.03219	2104.0875
3331.26248	1.2875
3333.49143	0.1875
3335.71905	-0.6125
