Data from AgNPs_FTO_APTES_UA_1uM_CRN_10uM_R6G_10uM_NaF_0.1M_Addition_RamanShift__1__14-16-59-621.txt Node

Date: Thu Jan 27 14:16:59 GMT 2022
User: TCL
Spectrometer: QEP01345
Trigger mode: 4
Integration Time (sec): 7.000000E0
Scans to average: 10
Electric dark correction enabled: true
Nonlinearity correction enabled: false
Boxcar width: 0
XAxis mode: Raman Shifts
Number of Pixels in Spectrum: 1044
>>>>>Begin Spectral Data<<<<<
46.04893	1.7
50.45542	-1
54.85868	-0.7
59.25871	-1.6
63.6555	49.2
68.04907	52.7
72.43941	58.4
76.82654	59.3
81.21044	60.5
85.59113	59.6
89.96862	64.6
94.34289	66.3
98.71396	68.9
103.08183	67.5
107.4465	73
111.80798	75.7
116.16626	76.5
120.52136	77.8
124.87327	79.8
129.222	83.4
133.56755	83.7
137.90993	90.6
142.24913	98.8
146.58517	108.4
150.91804	126.1
155.24774	140.7
159.57429	173.2
163.89768	216.2
168.21792	286.9
172.53501	388.4
176.84895	531.9
181.15975	741.7
185.46741	1035.7
189.77193	1434.6
194.07331	1912.5
198.37157	2478.3
202.6667	3072.8
206.9587	3644.5
211.24758	4207.2
215.53334	4802.9
219.81599	5398.1
224.09553	6079.8
228.37195	6825.4
232.64527	7643.8
236.91549	8486.2
241.18261	9348.9
245.44663	10139.1
249.70755	10872.3
253.96539	11523.6
258.22014	12074.6
262.4718	12518.2
266.72039	12838.5
270.96589	12992.1
275.20832	13004.3
279.44768	12922.7
283.68397	12763.6
287.91719	12640.4
292.14735	12530.3
296.37445	12498.8
300.59849	12549.1
304.81948	12663.9
309.03742	12739.5
313.25231	12683.4
317.46415	12494
321.67296	12189.6
325.87872	11950.7
330.08145	11835
334.28114	11854.7
338.47781	11949.9
342.67145	12070.8
346.86207	12277
351.04966	12545.8
355.23424	12805.2
359.4158	13075.1
363.59435	13261.4
367.76989	13392.6
371.94243	13495.5
376.11196	13551.6
380.27849	13621.3
384.44203	13663
388.60257	13736.6
392.76012	13839.2
396.91468	13992.3
401.06626	14175.1
405.21485	14360.2
409.36047	14333.4
413.50311	14134.5
417.64277	13992.5
421.77947	13931
425.9132	13928.7
430.04396	13979.4
434.17176	14022.3
438.2966	14134.4
442.41849	14324.8
446.53742	14670.7
450.6534	15061.9
454.76644	15343.1
458.87653	15417.6
462.98368	15342.6
467.08789	15217.2
471.18916	15012.2
475.2875	14806.1
479.38291	14642.5
483.4754	14538.1
487.56496	14464.1
491.6516	14284.2
495.73531	14234.6
499.81612	14163.7
503.89401	14247.1
507.96899	14308.7
512.04106	14285.7
516.11023	14214.9
520.1765	14203.5
524.23987	14159.8
528.30034	14141.8
532.35792	14049.2
536.41261	13924.2
540.46441	13750.4
544.51333	13709
548.55936	13771
552.60252	13997
556.64279	14249.4
560.6802	14433
564.71473	14494.6
568.7464	14580.3
572.7752	14819.4
576.80114	14956.6
580.82422	15120.9
584.84444	15419.9
588.86181	15854.4
592.87633	16257.6
596.888	16336.8
600.89682	16127.4
604.9028	16347.2
608.90594	17662.3
612.90624	19267.8
616.90371	18538.1
620.89834	15941.8
624.89015	14691.4
628.87913	14497.7
632.86528	14506
636.84862	14438.1
640.82913	14246.8
644.80683	13935.8
648.78172	13749.9
652.75379	13785.9
656.72306	13964.4
660.68952	14205.7
664.65319	14156.5
668.61405	13920.3
672.57211	13898.1
676.52738	13940.6
680.47986	13925
684.42955	13847.5
688.37646	13781.2
692.32058	13854.1
696.26192	14043.8
700.20048	14211.1
704.13626	14303.7
708.06928	14229.4
711.99952	14150
715.927	14155.7
719.85171	14210.7
723.77365	14229.1
727.69284	14061.2
731.60928	13906.2
735.52295	13854.9
739.43388	13874.8
743.34206	13920.3
747.24749	13940.3
751.15017	14049.6
755.05012	14179.9
758.94733	14505
762.8418	15029.9
766.73354	15920.7
770.62254	16814.5
774.50882	17138.9
778.39237	16703.2
782.27321	15784.6
786.15132	14955.1
790.02671	14414.6
793.89938	14208
797.76935	14104.3
801.6366	14048.6
805.50115	13985
809.36299	13916
813.22213	13855.7
817.07857	13814.1
820.93231	13803.1
824.78336	13825.9
828.63172	13808.5
832.47738	13860.8
836.32036	13909.4
840.16066	14014
843.99827	14053.1
847.8332	14038.5
851.66546	13921
855.49504	13884.1
859.32195	13878.8
863.1462	13867.8
866.96777	13837.8
870.78668	13806.5
874.60293	13802.1
878.41652	13813.8
882.22745	13849.6
886.03573	13903.2
889.84136	13885.4
893.64433	13878.1
897.44466	13792.4
901.24235	13771.2
905.0374	13726.6
908.8298	13668.8
912.61957	13692.8
916.40671	13799.7
920.19121	13920.4
923.97308	14064.2
927.75233	14201.4
931.52895	14192.4
935.30295	14121
939.07433	13949.3
942.84309	13782
946.60924	13706
950.37278	13697.9
954.13371	13654.6
957.89203	13562.2
961.64774	13532.6
965.40086	13517.2
969.15137	13505.9
972.89929	13498.6
976.64461	13516.4
980.38733	13597
984.12747	13643.8
987.86502	13786.8
991.59999	13943.5
995.33237	14147.7
999.06217	14509.7
1002.78939	14859.1
1006.51404	15074.7
1010.23611	15167.7
1013.95561	15207.4
1017.67255	15187.3
1021.38692	15064.7
1025.09872	14993.8
1028.80796	15132.1
1032.51465	15638.7
1036.21877	16120.6
1039.92035	16286.9
1043.61937	16097.3
1047.31584	15683.8
1051.00976	15234.4
1054.70114	14958.3
1058.38998	14852.1
1062.07627	14827.8
1065.76003	14878.7
1069.44126	14919.5
1073.11995	15101.4
1076.79611	15286.1
1080.46974	15431.1
1084.14085	15520
1087.80943	15631.7
1091.47549	15670.1
1095.13903	15637.5
1098.80005	15490.9
1102.45857	15260.5
1106.11456	15086.9
1109.76805	15036.8
1113.41903	15036
1117.06751	15107.3
1120.71348	15179.1
1124.35696	15309.8
1127.99793	15446.8
1131.63641	15538.4
1135.2724	15415.2
1138.90589	15264.8
1142.5369	15206.6
1146.16542	15197.2
1149.79145	15191.8
1153.415	15213.1
1157.03607	15315.8
1160.65467	15549.4
1164.27079	16025.2
1167.88443	16610.7
1171.49561	17349.8
1175.10432	18281.8
1178.71056	19517.3
1182.31434	20690
1185.91565	21291.1
1189.51451	21238
1193.11091	20721.4
1196.70485	19975.2
1200.29634	19345.6
1203.88538	18905.6
1207.47197	18561.4
1211.05612	18168.7
1214.63782	17842.2
1218.21708	17618.2
1221.79391	17435.6
1225.36829	17339.3
1228.94024	17174
1232.50976	16944
1236.07685	16769
1239.6415	16642.8
1243.20374	16666.1
1246.76355	16818
1250.32093	17083.9
1253.8759	17365.3
1257.42845	17734
1260.97859	18145.6
1264.52631	18575.9
1268.07163	19039.5
1271.61453	19496.3
1275.15503	19992.6
1278.69312	20450.3
1282.22882	20785.3
1285.76211	21133.8
1289.29301	21543.3
1292.82151	22136.1
1296.34761	22961.1
1299.87133	24070.6
1303.39266	25440.4
1306.9116	26892.3
1310.42815	28044.1
1313.94233	28498.5
1317.45412	28093
1320.96354	27180.3
1324.47058	26285.6
1327.97525	25505.2
1331.47754	24916.8
1334.97747	24602.9
1338.47502	24331.5
1341.97022	24092.3
1345.46305	23916.3
1348.95352	23984.6
1352.44163	24420.7
1355.92738	25318
1359.41078	26809.7
1362.89183	28052.3
1366.37053	27799.6
1369.84688	25651.4
1373.32088	23016.5
1376.79254	21214.5
1380.26186	20466.4
1383.72883	20274.4
1387.19347	20107.6
1390.65578	19833.7
1394.11575	19572.9
1397.57339	19520.7
1401.0287	19631.5
1404.48168	19786.7
1407.93234	19749.9
1411.38068	19635.8
1414.82669	19346.1
1418.27039	18981.7
1421.71177	18522.7
1425.15083	18155.7
1428.58758	17990.6
1432.02203	18022.8
1435.45416	18368.1
1438.88399	18685.9
1442.31151	18960.2
1445.73673	19092.4
1449.15965	19142.7
1452.58027	19133
1455.9986	19007.2
1459.41463	19000.5
1462.82837	19143.6
1466.23982	19439
1469.64898	19761.6
1473.05586	20067.7
1476.46045	20203.2
1479.86276	20258.2
1483.26279	20227.8
1486.66054	20212.2
1490.05602	20317.6
1493.44922	20568.3
1496.84016	20890.8
1500.22882	21267.4
1503.61521	21910.5
1506.99934	22729
1510.38121	23482.6
1513.76081	23767.1
1517.13816	23332.5
1520.51324	22340.6
1523.88607	21428.1
1527.25665	20817.4
1530.62498	20577.4
1533.99105	20366.5
1537.35488	20136.5
1540.71647	19884.7
1544.07581	19557.3
1547.4329	19246.2
1550.78776	19009
1554.14038	18908.4
1557.49077	18810.2
1560.83892	18794
1564.18484	18800.8
1567.52853	18900.6
1570.86999	19056.4
1574.20922	19255.3
1577.54624	19434.3
1580.88103	19399.8
1584.2136	19416.2
1587.54395	19733.7
1590.87208	20516.6
1594.19801	21549.6
1597.52172	22533.4
1600.84321	22842.4
1604.16251	22065.7
1607.47959	20668.2
1610.79447	19192.7
1614.10715	17877.4
1617.41763	16872.1
1620.7259	16264.1
1624.03199	15993.1
1627.33587	16046.7
1630.63757	16432.4
1633.93707	17027.7
1637.23439	18090.2
1640.52951	19600.1
1643.82246	21405.8
1647.11321	22948.9
1650.40179	23440.3
1653.68819	22278.1
1656.97241	19952.3
1660.25446	17651.9
1663.53433	15996.2
1666.81203	15020.2
1670.08756	14431.4
1673.36092	14033
1676.63211	13812.3
1679.90115	13609.7
1683.16801	13482.6
1686.43272	13381.8
1689.69527	13296.4
1692.95567	13218
1696.2139	13187.3
1699.46999	13128.6
1702.72392	13080.4
1705.97571	13082.2
1709.22535	13115.2
1712.47284	13153.7
1715.71819	13181.8
1718.96139	13158.1
1722.20246	13114.7
1725.44139	13112.2
1728.67818	13054
1731.91284	12992.1
1735.14537	12930.5
1738.37576	12893.2
1741.60403	12850.1
1744.83017	12809.7
1748.05418	12801.1
1751.27607	12760
1754.49584	12745.5
1757.71349	12716.6
1760.92903	12694.5
1764.14244	12671.9
1767.35375	12706.9
1770.56294	12674
1773.77002	12682.1
1776.97499	12687.1
1780.17785	12666.7
1783.37861	12695.1
1786.57727	12699.1
1789.77382	12667.3
1792.96828	12661.2
1796.16064	12660.7
1799.3509	12640.5
1802.53907	12623.3
1805.72514	12603.5
1808.90913	12564.2
1812.09102	12548.9
1815.27083	12529.1
1818.44856	12549.3
1821.6242	12550.8
1824.79776	12477.4
1827.96924	12489.9
1831.13864	12468
1834.30597	12469.3
1837.47122	12462.9
1840.6344	12476
1843.7955	12474.7
1846.95454	12452.3
1850.11151	12463.6
1853.26642	12453.2
1856.41926	12472.9
1859.57004	12492.5
1862.71876	12490.3
1865.86542	12456.3
1869.01003	12435
1872.15258	12446.6
1875.29308	12423.9
1878.43152	12426.2
1881.56792	12425.5
1884.70227	12406.7
1887.83457	12394.8
1890.96482	12381.8
1894.09304	12377.2
1897.21921	12358.1
1900.34335	12343.5
1903.46544	12340.2
1906.58551	12363.6
1909.70353	12299.2
1912.81953	12328.8
1915.93349	12311.7
1919.04543	12294.4
1922.15534	12271.8
1925.26322	12254.7
1928.36908	12234.1
1931.47292	12233.3
1934.57473	12176
1937.67453	12183.2
1940.77232	12162.3
1943.86808	12136.1
1946.96184	12096.1
1950.05358	12051.2
1953.14331	12024.8
1956.23103	11988.6
1959.31675	11999
1962.40046	11976.6
1965.48217	11965.2
1968.56188	11905.5
1971.63959	11867.1
1974.7153	11836.4
1977.78901	11797.4
1980.86073	11775.3
1983.93046	11763.7
1986.99819	11730.4
1990.06394	11695.5
1993.1277	11674.9
1996.18947	11607.9
1999.24925	11588.9
2002.30706	11554.8
2005.36288	11543
2008.41672	11512.5
2011.46859	11482.5
2014.51848	11457.8
2017.56639	11439.8
2020.61233	11435.9
2023.6563	11400.8
2026.6983	11351.4
2029.73833	11356.2
2032.7764	11336.3
2035.8125	11324.8
2038.84664	11330.1
2041.87881	11295.5
2044.90903	11272.5
2047.93729	11280.8
2050.96359	11265.1
2053.98794	11230.9
2057.01034	11235.3
2060.03078	11241.1
2063.04927	11227.4
2066.06582	11273.7
2069.08042	11235.6
2072.09307	11237.2
2075.10378	11202.5
2078.11255	11185.6
2081.11938	11208.1
2084.12426	11203.2
2087.12722	11193.6
2090.12824	11206
2093.12732	11218.4
2096.12447	11195.1
2099.11969	11208.9
2102.11299	11220
2105.10435	11250
2108.09379	11251
2111.08131	11260.8
2114.0669	11251.5
2117.05057	11255.3
2120.03233	11298.7
2123.01216	11306.4
2125.99008	11326.7
2128.96609	11323
2131.94018	11340.7
2134.91236	11338.5
2137.88263	11379.1
2140.851	11375.4
2143.81746	11392.9
2146.78201	11376.8
2149.74466	11408.9
2152.7054	11393.7
2155.66425	11407.6
2158.6212	11397.7
2161.57625	11390.1
2164.52941	11395.4
2167.48067	11395.7
2170.43004	11402.9
2173.37752	11396.4
2176.32311	11392.7
2179.26681	11420.4
2182.20863	11393.1
2185.14856	11439.2
2188.08661	11444.8
2191.02278	11449.1
2193.95707	11464.9
2196.88948	11416.7
2199.82001	11439.7
2202.74867	11434.2
2205.67545	11436.9
2208.60037	11436.2
2211.52341	11418.9
2214.44458	11416.9
2217.36388	11368.1
2220.28132	11368.2
2223.1969	11360
2226.11061	11352.8
2229.02246	11307.8
2231.93245	11339.6
2234.84058	11302
2237.74686	11271.3
2240.65128	11269.2
2243.55385	11282.3
2246.45456	11256.4
2249.35343	11251.2
2252.25044	11257.8
2255.14561	11200.5
2258.03893	11194.9
2260.93041	11208.7
2263.82004	11159.3
2266.70783	11187.8
2269.59378	11139.1
2272.4779	11120.5
2275.36017	11088.7
2278.24061	11091.3
2281.11922	11089.2
2283.996	11084.1
2286.87094	11062.1
2289.74405	11059.3
2292.61534	11035.3
2295.4848	11037.4
2298.35243	11066.1
2301.21824	11063.7
2304.08223	11067.3
2306.94439	11090.6
2309.80474	11066.1
2312.66327	11051.9
2315.51999	11087.1
2318.37489	11056.1
2321.22797	11055.7
2324.07925	11060
2326.92871	11052.2
2329.77637	11005.4
2332.62222	11014.7
2335.46626	11002.2
2338.3085	11016.5
2341.14893	10984.1
2343.98756	11000.7
2346.8244	10996.7
2349.65943	10990.8
2352.49267	10978.6
2355.32411	10971.4
2358.15376	10967.1
2360.98161	10965.7
2363.80768	10961.3
2366.63195	10941.1
2369.45444	10930.7
2372.27514	10923.8
2375.09405	10909.1
2377.91118	10899.9
2380.72652	10879.2
2383.54009	10868.3
2386.35187	10842.4
2389.16188	10836.7
2391.97011	10801.1
2394.77657	10811.3
2397.58125	10785.1
2400.38416	10786.5
2403.18529	10796.7
2405.98466	10766.6
2408.78226	10759.1
2411.57809	10737.9
2414.37216	10706.6
2417.16446	10741.9
2419.955	10721.7
2422.74378	10703.4
2425.5308	10715.6
2428.31606	10690.4
2431.09956	10707
2433.88131	10683.2
2436.6613	10702.2
2439.43954	10670.5
2442.21603	10682
2444.99077	10684.8
2447.76377	10659.6
2450.53501	10672.7
2453.30451	10677.9
2456.07226	10675.8
2458.83827	10665.2
2461.60254	10654.7
2464.36507	10649.3
2467.12586	10661.2
2469.88492	10637.9
2472.64224	10666.3
2475.39782	10687.2
2478.15167	10678.3
2480.90379	10644.8
2483.65417	10670.5
2486.40283	10675.3
2489.14976	10709
2491.89497	10691.2
2494.63845	10671.2
2497.3802	10681.9
2500.12024	10678.4
2502.85855	10672.2
2505.59514	10673.5
2508.33002	10660.6
2511.06318	10635.6
2513.79462	10663.8
2516.52435	10636.1
2519.25237	10620.9
2521.97867	10613.2
2524.70327	10610.1
2527.42616	10614.9
2530.14734	10605.2
2532.86681	10595.9
2535.58458	10568.1
2538.30065	10574
2541.01501	10571
2543.72768	10594
2546.43864	10565.7
2549.14791	10568.2
2551.85548	10547.2
2554.56136	10548.4
2557.26554	10522.2
2559.96803	10531.4
2562.66883	10521.2
2565.36794	10521.4
2568.06536	10501.4
2570.7611	10498.2
2573.45514	10487.1
2576.14751	10478.3
2578.83819	10479.9
2581.52719	10471.6
2584.21451	10466.7
2586.90015	10452
2589.58411	10443.6
2592.2664	10449.7
2594.94701	10448.7
2597.62594	10438.1
2600.30321	10411.7
2602.9788	10376.6
2605.65273	10402.7
2608.32498	10395.8
2610.99557	10396.1
2613.66449	10374.9
2616.33175	10381.2
2618.99734	10379.6
2621.66128	10378
2624.32355	10387
2626.98416	10377.9
2629.64311	10356.6
2632.30041	10353.8
2634.95605	10346.3
2637.61004	10312.3
2640.26238	10321.1
2642.91306	10300.7
2645.56209	10308.4
2648.20948	10300.6
2650.85521	10278.9
2653.4993	10305.7
2656.14175	10308.4
2658.78255	10303.9
2661.42171	10291.1
2664.05923	10328.2
2666.6951	10340.7
2669.32934	10350.1
2671.96194	10326.9
2674.59291	10326.6
2677.22224	10327.8
2679.84993	10334.7
2682.476	10326.5
2685.10043	10306.9
2687.72324	10288.8
2690.34441	10326.4
2692.96396	10317.1
2695.58188	10337
2698.19818	10282.4
2700.81285	10330.4
2703.4259	10325
2706.03733	10322.8
2708.64714	10282.4
2711.25533	10344.9
2713.86191	10345.7
2716.46687	10365.9
2719.07021	10370.4
2721.67194	10365.5
2724.27206	10372.3
2726.87057	10409.8
2729.46747	10402
2732.06276	10397.2
2734.65644	10367.1
2737.24852	10369.2
2739.83899	10387.3
2742.42786	10388.7
2745.01513	10349.4
2747.60079	10364.7
2750.18486	10346.3
2752.76733	10357.6
2755.3482	10378
2757.92747	10343
2760.50515	10325.1
2763.08123	10345.7
2765.65573	10340.2
2768.22863	10324.4
2770.79994	10316.8
2773.36967	10329.5
2775.9378	10323.6
2778.50435	10299.6
2781.06932	10279.3
2783.6327	10295.4
2786.1945	10283.8
2788.75471	10266.6
2791.31335	10262.4
2793.87041	10254.9
2796.42589	10243.4
2798.97979	10226.8
2801.53212	10228.6
2804.08288	10208.3
2806.63206	10199.3
2809.17967	10159.7
2811.72571	10130.3
2814.27018	10123.5
2816.81308	10142.9
2819.35442	10113.3
2821.89419	10117
2824.43239	10116.4
2826.96904	10092.8
2829.50412	10119
2832.03763	10078.7
2834.56959	10078.1
2837.1	10065.2
2839.62884	10084.4
2842.15613	10052.9
2844.68186	10104
2847.20604	10105.7
2849.72867	10102.4
2852.24974	10094.4
2854.76927	10099.9
2857.28724	10091.3
2859.80367	10083.6
2862.31855	10078.3
2864.83189	10052.2
2867.34368	10065.6
2869.85393	10058.4
2872.36264	10046.2
2874.8698	10062.4
2877.37543	10037.4
2879.87952	10030
2882.38207	10054.2
2884.88308	10030.3
2887.38256	10051.6
2889.88051	10044.6
2892.37692	10048.3
2894.8718	10053.6
2897.36515	10085.4
2899.85698	10091.1
2902.34727	10110
2904.83604	10102.1
2907.32328	10113.6
2909.809	10115.8
2912.29319	10119.7
2914.77587	10104.3
2917.25702	10118.1
2919.73665	10123.4
2922.21476	10113.4
2924.69136	10124.3
2927.16644	10094.6
2929.64	10094.1
2932.11205	10105.3
2934.58258	10046
2937.05161	10088.8
2939.51912	10089
2941.98513	10049.3
2944.44962	10051.7
2946.91261	10001.2
2949.37409	10045
2951.83407	10023.5
2954.29254	10034.1
2956.74951	9991.1
2959.20498	10021.5
2961.65895	10009.2
2964.11142	10017.5
2966.56239	10006.2
2969.01186	10000.9
2971.45984	9968.1
2973.90632	9985.8
2976.35131	9959.6
2978.7948	9955.5
2981.23681	9937.9
2983.67732	9904.6
2986.11635	9901.6
2988.55388	9866
2990.98993	9863.7
2993.4245	9850.3
2995.85758	9838.1
2998.28917	9815.8
3000.71928	9814
3003.14791	9795.5
3005.57506	9804.5
3008.00073	9794.8
3010.42493	9779.5
3012.84764	9770.5
3015.26888	9774.5
3017.68865	9758.2
3020.10694	9763.8
3022.52376	9741.5
3024.9391	9737.3
3027.35298	9705.6
3029.76539	9709
3032.17632	9700.6
3034.5858	9688.7
3036.9938	9693.2
3039.40034	9684.3
3041.80542	9682.8
3044.20903	9662.7
3046.61118	9653.9
3049.01187	9655.2
3051.4111	9646.3
3053.80888	9633.9
3056.20519	9628.1
3058.60005	9588.9
3060.99345	9574.1
3063.3854	9567.5
3065.7759	9552.4
3068.16494	9565.8
3070.55254	9529
3072.93868	9517.9
3075.32338	9499.1
3077.70662	9498.8
3080.08842	9471.1
3082.46878	9465.1
3084.84769	9454.7
3087.22515	9457.9
3089.60118	9462.3
3091.97576	9481.1
3094.3489	9473
3096.72061	9460.7
3099.09087	9493.5
3101.4597	9453.8
3103.82709	9478.1
3106.19305	9461.3
3108.55757	9464.7
3110.92066	9432.7
3113.28232	9446.1
3115.64255	9427.2
3118.00134	9406.8
3120.35871	9425.2
3122.71466	9392.8
3125.06917	9383.2
3127.42226	9365
3129.77393	9366.2
3132.12417	9345.7
3134.47299	9355
3136.82039	9365.7
3139.16636	9388.4
3141.51092	9371.4
3143.85406	9394.8
3146.19579	9405.2
3148.53609	9401.5
3150.87499	9427.8
3153.21246	9401.8
3155.54853	9443.9
3157.88318	9413.4
3160.21642	9432.9
3162.54826	9419.2
3164.87868	9399.4
3167.2077	9420.7
3169.5353	9452
3171.86151	9448.2
3174.18631	9431.6
3176.5097	9439
3178.83169	9412.3
3181.15228	9413.5
3183.47147	9406.8
3185.78926	9402.1
3188.10565	9377.4
3190.42065	9400
3192.73424	9382.6
3195.04645	9370.2
3197.35725	9364.1
3199.66667	9361.2
3201.97469	9379.1
3204.28132	9394.3
3206.58656	9400.5
3208.8904	9417.9
3211.19287	9433
3213.49394	9432.3
3215.79363	9453.8
3218.09193	9425.9
3220.38884	9424.8
3222.68438	9428.8
3224.97853	9429.2
3227.2713	9406.4
3229.56269	9399.9
3231.8527	9407.1
3234.14133	9400.3
3236.42858	9366.7
3238.71446	9353
3240.99896	9347.4
3243.28209	9377.5
3245.56384	9331.5
3247.84423	9347.3
3250.12324	9333.9
3252.40088	9329.1
3254.67715	9349
3256.95205	9302.6
3259.22558	9343.7
3261.49775	9314.8
3263.76855	9343.6
3266.03799	9273.4
3268.30606	9293.9
3270.57277	9307.9
3272.83812	9259.6
3275.10211	9236
3277.36474	9223.5
3279.62601	9222.6
3281.88593	9232
3284.14448	9211.5
3286.40168	9227
3288.65753	9248.1
3290.91202	9244.9
3293.16516	9196.7
3295.41695	9184.4
3297.66738	9124.4
3299.91647	9085.4
3302.16421	9027.6
3304.4106	9006.4
3306.65564	8939.9
3308.89933	8937.5
3311.14169	8872
3313.38269	8803.1
3315.62236	8752.7
3317.86068	8679.2
3320.09766	8612.6
3322.3333	8568.4
3324.5676	8539.6
3326.80056	8432.4
3329.03219	8363.4
3331.26248	1.8
3333.49143	0.3
3335.71905	-0.9
