Data from AgNPs_FTO_APTES_UA_1uM_CRN_200uM_R6G_10uM_NaF_0.1M_Addition_RamanShift__18__17-25-59-837.txt Node

Date: Thu Jan 27 17:25:59 GMT 2022
User: TCL
Spectrometer: QEP01345
Trigger mode: 4
Integration Time (sec): 7.000000E0
Scans to average: 10
Electric dark correction enabled: true
Nonlinearity correction enabled: false
Boxcar width: 0
XAxis mode: Raman Shifts
Number of Pixels in Spectrum: 1044
>>>>>Begin Spectral Data<<<<<
46.04893	1.1625
50.45542	0.5625
54.85868	-1.2375
59.25871	-1.1375
63.6555	41.2625
68.04907	45.8625
72.43941	47.9625
76.82654	50.7625
81.21044	51.9625
85.59113	53.3625
89.96862	56.3625
94.34289	58.6625
98.71396	63.4625
103.08183	57.5625
107.4465	62.7625
111.80798	66.0625
116.16626	65.5625
120.52136	72.3625
124.87327	71.9625
129.222	71.1625
133.56755	72.3625
137.90993	74.5625
142.24913	82.5625
146.58517	88.1625
150.91804	101.7625
155.24774	113.5625
159.57429	134.1625
163.89768	167.3625
168.21792	217.3625
172.53501	291.4625
176.84895	397.5625
181.15975	550.0625
185.46741	767.0625
189.77193	1069.9625
194.07331	1421.6625
198.37157	1842.1625
202.6667	2278.2625
206.9587	2721.0625
211.24758	3153.3625
215.53334	3566.2625
219.81599	4041.5625
224.09553	4528.9625
228.37195	5051.9625
232.64527	5636.5625
236.91549	6289.0625
241.18261	6934.9625
245.44663	7498.8625
249.70755	8038.1625
253.96539	8521.0625
258.22014	8894.6625
262.4718	9212.5625
266.72039	9427.4625
270.96589	9542.5625
275.20832	9518.7625
279.44768	9419.6625
283.68397	9331.0625
287.91719	9200.4625
292.14735	9119.8625
296.37445	9105.6625
300.59849	9134.9625
304.81948	9163.9625
309.03742	9172.1625
313.25231	9080.8625
317.46415	8864.0625
321.67296	8629.7625
325.87872	8446.6625
330.08145	8368.8625
334.28114	8387.0625
338.47781	8424.7625
342.67145	8494.9625
346.86207	8641.4625
351.04966	8808.0625
355.23424	8977.7625
359.4158	9077.4625
363.59435	9194.7625
367.76989	9289.8625
371.94243	9380.6625
376.11196	9418.0625
380.27849	9491.6625
384.44203	9561.3625
388.60257	9627.9625
392.76012	9678.8625
396.91468	9773.2625
401.06626	9914.0625
405.21485	10004.1625
409.36047	9987.9625
413.50311	9874.6625
417.64277	9742.8625
421.77947	9726.7625
425.9132	9744.7625
430.04396	9788.9625
434.17176	9821.6625
438.2966	9899.2625
442.41849	10034.0625
446.53742	10202.6625
450.6534	10441.7625
454.76644	10634.2625
458.87653	10684.5625
462.98368	10649.4625
467.08789	10544.0625
471.18916	10420.4625
475.2875	10327.4625
479.38291	10261.8625
483.4754	10190.9625
487.56496	10115.6625
491.6516	9982.8625
495.73531	9924.6625
499.81612	9931.3625
503.89401	9950.3625
507.96899	9995.9625
512.04106	9985.6625
516.11023	9968.0625
520.1765	9957.4625
524.23987	9891.0625
528.30034	9801.3625
532.35792	9731.6625
536.41261	9654.1625
540.46441	9563.9625
544.51333	9532.2625
548.55936	9618.8625
552.60252	9771.5625
556.64279	9915.6625
560.6802	10028.4625
564.71473	10086.7625
568.7464	10179.0625
572.7752	10359.1625
576.80114	10471.9625
580.82422	10616.7625
584.84444	10807.0625
588.86181	11000.4625
592.87633	11212.1625
596.888	11243.2625
600.89682	11187.5625
604.9028	11395.9625
608.90594	12143.3625
612.90624	13067.6625
616.90371	12530.4625
620.89834	10781.2625
624.89015	9988.5625
628.87913	9920.1625
632.86528	10000.4625
636.84862	9958.9625
640.82913	9865.0625
644.80683	9646.9625
648.78172	9535.4625
652.75379	9496.6625
656.72306	9537.1625
660.68952	9670.4625
664.65319	9653.2625
668.61405	9565.7625
672.57211	9561.9625
676.52738	9642.2625
680.47986	9677.6625
684.42955	9669.2625
688.37646	9595.8625
692.32058	9542.1625
696.26192	9574.8625
700.20048	9595.4625
704.13626	9625.8625
708.06928	9623.8625
711.99952	9554.0625
715.927	9551.8625
719.85171	9551.3625
723.77365	9546.9625
727.69284	9496.6625
731.60928	9435.4625
735.52295	9418.1625
739.43388	9406.4625
743.34206	9399.1625
747.24749	9451.2625
751.15017	9510.2625
755.05012	9587.7625
758.94733	9794.8625
762.8418	10160.1625
766.73354	10781.5625
770.62254	11476.9625
774.50882	11779.8625
778.39237	11413.4625
782.27321	10656.7625
786.15132	9987.0625
790.02671	9619.7625
793.89938	9449.8625
797.76935	9392.7625
801.6366	9371.2625
805.50115	9335.2625
809.36299	9276.1625
813.22213	9240.7625
817.07857	9201.5625
820.93231	9172.1625
824.78336	9114.8625
828.63172	9120.3625
832.47738	9132.5625
836.32036	9142.6625
840.16066	9180.6625
843.99827	9231.5625
847.8332	9181.9625
851.66546	9144.3625
855.49504	9112.1625
859.32195	9139.9625
863.1462	9126.6625
866.96777	9117.1625
870.78668	9112.2625
874.60293	9091.3625
878.41652	9104.3625
882.22745	9104.5625
886.03573	9143.8625
889.84136	9140.5625
893.64433	9114.1625
897.44466	9074.4625
901.24235	9045.4625
905.0374	9006.8625
908.8298	8967.5625
912.61957	8979.1625
916.40671	9020.1625
920.19121	9128.0625
923.97308	9227.8625
927.75233	9273.5625
931.52895	9260.2625
935.30295	9224.0625
939.07433	9052.4625
942.84309	8930.3625
946.60924	8828.8625
950.37278	8792.4625
954.13371	8756.0625
957.89203	8713.2625
961.64774	8686.9625
965.40086	8672.6625
969.15137	8630.0625
972.89929	8590.6625
976.64461	8573.0625
980.38733	8559.0625
984.12747	8576.5625
987.86502	8626.1625
991.59999	8704.2625
995.33237	8814.9625
999.06217	9020.4625
1002.78939	9267.0625
1006.51404	9328.7625
1010.23611	9388.0625
1013.95561	9423.2625
1017.67255	9451.4625
1021.38692	9417.9625
1025.09872	9347.6625
1028.80796	9402.0625
1032.51465	9584.7625
1036.21877	9829.9625
1039.92035	9871.3625
1043.61937	9791.0625
1047.31584	9597.7625
1051.00976	9418.7625
1054.70114	9333.9625
1058.38998	9321.3625
1062.07627	9339.0625
1065.76003	9363.6625
1069.44126	9426.9625
1073.11995	9474.6625
1076.79611	9596.1625
1080.46974	9627.0625
1084.14085	9623.7625
1087.80943	9646.1625
1091.47549	9648.1625
1095.13903	9646.4625
1098.80005	9586.4625
1102.45857	9415.1625
1106.11456	9316.1625
1109.76805	9262.9625
1113.41903	9310.0625
1117.06751	9388.0625
1120.71348	9481.4625
1124.35696	9620.4625
1127.99793	9752.7625
1131.63641	9840.8625
1135.2724	9768.0625
1138.90589	9623.7625
1142.5369	9539.6625
1146.16542	9517.2625
1149.79145	9487.8625
1153.415	9531.0625
1157.03607	9620.0625
1160.65467	9792.9625
1164.27079	10128.2625
1167.88443	10544.2625
1171.49561	11075.6625
1175.10432	11777.2625
1178.71056	12676.2625
1182.31434	13525.1625
1185.91565	13973.1625
1189.51451	13862.5625
1193.11091	13400.0625
1196.70485	12839.5625
1200.29634	12291.8625
1203.88538	11858.6625
1207.47197	11546.5625
1211.05612	11306.9625
1214.63782	11079.5625
1218.21708	10988.8625
1221.79391	10912.0625
1225.36829	10913.2625
1228.94024	10837.7625
1232.50976	10677.5625
1236.07685	10510.7625
1239.6415	10394.8625
1243.20374	10381.3625
1246.76355	10428.4625
1250.32093	10535.1625
1253.8759	10726.2625
1257.42845	10932.8625
1260.97859	11129.5625
1264.52631	11402.9625
1268.07163	11663.9625
1271.61453	11962.2625
1275.15503	12245.4625
1278.69312	12617.1625
1282.22882	12887.4625
1285.76211	13171.4625
1289.29301	13458.3625
1292.82151	13866.6625
1296.34761	14385.4625
1299.87133	15130.1625
1303.39266	16027.3625
1306.9116	17017.3625
1310.42815	17980.8625
1313.94233	18571.2625
1317.45412	18482.1625
1320.96354	17922.9625
1324.47058	17278.7625
1327.97525	16764.2625
1331.47754	16377.6625
1334.97747	16150.4625
1338.47502	15998.9625
1341.97022	15906.0625
1345.46305	15819.2625
1348.95352	15844.3625
1352.44163	16050.1625
1355.92738	16624.2625
1359.41078	17476.6625
1362.89183	18267.2625
1366.37053	18191.8625
1369.84688	16819.5625
1373.32088	14999.3625
1376.79254	13648.0625
1380.26186	13001.4625
1383.72883	12833.1625
1387.19347	12715.3625
1390.65578	12516.2625
1394.11575	12422.6625
1397.57339	12503.9625
1401.0287	12753.7625
1404.48168	12964.9625
1407.93234	13046.8625
1411.38068	12931.7625
1414.82669	12661.3625
1418.27039	12320.8625
1421.71177	11957.8625
1425.15083	11582.6625
1428.58758	11367.0625
1432.02203	11377.2625
1435.45416	11537.4625
1438.88399	11790.9625
1442.31151	11981.6625
1445.73673	12156.8625
1449.15965	12266.5625
1452.58027	12350.2625
1455.9986	12331.3625
1459.41463	12325.9625
1462.82837	12486.5625
1466.23982	12702.4625
1469.64898	12896.9625
1473.05586	13061.3625
1476.46045	13152.4625
1479.86276	13180.2625
1483.26279	13069.3625
1486.66054	13025.5625
1490.05602	13054.6625
1493.44922	13154.4625
1496.84016	13275.6625
1500.22882	13553.2625
1503.61521	14032.5625
1506.99934	14637.7625
1510.38121	15217.0625
1513.76081	15352.7625
1517.13816	14988.5625
1520.51324	14281.3625
1523.88607	13609.4625
1527.25665	13155.9625
1530.62498	12959.9625
1533.99105	12844.0625
1537.35488	12715.6625
1540.71647	12604.5625
1544.07581	12427.2625
1547.4329	12272.1625
1550.78776	12079.1625
1554.14038	11960.8625
1557.49077	11901.2625
1560.83892	11875.0625
1564.18484	11861.9625
1567.52853	11914.5625
1570.86999	12006.6625
1574.20922	12209.5625
1577.54624	12366.1625
1580.88103	12326.0625
1584.2136	12220.8625
1587.54395	12338.6625
1590.87208	12718.8625
1594.19801	13400.8625
1597.52172	14208.0625
1600.84321	14659.8625
1604.16251	14277.8625
1607.47959	13387.0625
1610.79447	12366.8625
1614.10715	11447.5625
1617.41763	10655.7625
1620.7259	10091.7625
1624.03199	9837.7625
1627.33587	9776.9625
1630.63757	9964.8625
1633.93707	10416.6625
1637.23439	11148.5625
1640.52951	12207.3625
1643.82246	13551.4625
1647.11321	14707.0625
1650.40179	15104.3625
1653.68819	14339.1625
1656.97241	12756.1625
1660.25446	11147.4625
1663.53433	9981.8625
1666.81203	9259.4625
1670.08756	8818.2625
1673.36092	8555.6625
1676.63211	8380.2625
1679.90115	8247.9625
1683.16801	8137.6625
1686.43272	8055.7625
1689.69527	7988.0625
1692.95567	7926.5625
1696.2139	7847.9625
1699.46999	7793.5625
1702.72392	7783.8625
1705.97571	7764.7625
1709.22535	7801.7625
1712.47284	7791.2625
1715.71819	7790.0625
1718.96139	7821.2625
1722.20246	7794.9625
1725.44139	7755.9625
1728.67818	7720.1625
1731.91284	7714.6625
1735.14537	7668.6625
1738.37576	7653.8625
1741.60403	7633.1625
1744.83017	7625.4625
1748.05418	7626.4625
1751.27607	7622.7625
1754.49584	7608.5625
1757.71349	7582.5625
1760.92903	7558.2625
1764.14244	7515.5625
1767.35375	7499.4625
1770.56294	7454.8625
1773.77002	7448.3625
1776.97499	7443.8625
1780.17785	7426.8625
1783.37861	7436.7625
1786.57727	7420.9625
1789.77382	7420.0625
1792.96828	7393.2625
1796.16064	7369.1625
1799.3509	7366.9625
1802.53907	7356.9625
1805.72514	7322.1625
1808.90913	7326.0625
1812.09102	7299.6625
1815.27083	7292.5625
1818.44856	7289.2625
1821.6242	7263.1625
1824.79776	7256.4625
1827.96924	7244.0625
1831.13864	7242.9625
1834.30597	7222.9625
1837.47122	7235.7625
1840.6344	7220.8625
1843.7955	7229.8625
1846.95454	7194.9625
1850.11151	7224.3625
1853.26642	7219.9625
1856.41926	7201.4625
1859.57004	7229.9625
1862.71876	7218.4625
1865.86542	7205.6625
1869.01003	7202.1625
1872.15258	7204.3625
1875.29308	7217.8625
1878.43152	7203.4625
1881.56792	7183.6625
1884.70227	7164.4625
1887.83457	7168.3625
1890.96482	7147.9625
1894.09304	7131.7625
1897.21921	7136.8625
1900.34335	7102.9625
1903.46544	7112.7625
1906.58551	7115.8625
1909.70353	7095.5625
1912.81953	7102.4625
1915.93349	7102.6625
1919.04543	7079.1625
1922.15534	7088.7625
1925.26322	7077.5625
1928.36908	7057.1625
1931.47292	7038.6625
1934.57473	7015.2625
1937.67453	7007.7625
1940.77232	6993.9625
1943.86808	6959.3625
1946.96184	6945.8625
1950.05358	6924.5625
1953.14331	6915.5625
1956.23103	6874.1625
1959.31675	6864.9625
1962.40046	6857.2625
1965.48217	6837.4625
1968.56188	6820.2625
1971.63959	6808.8625
1974.7153	6792.0625
1977.78901	6779.1625
1980.86073	6744.9625
1983.93046	6736.8625
1986.99819	6710.3625
1990.06394	6686.3625
1993.1277	6681.7625
1996.18947	6661.0625
1999.24925	6610.9625
2002.30706	6608.9625
2005.36288	6603.1625
2008.41672	6591.0625
2011.46859	6559.4625
2014.51848	6535.4625
2017.56639	6513.9625
2020.61233	6507.9625
2023.6563	6505.4625
2026.6983	6514.1625
2029.73833	6501.3625
2032.7764	6467.3625
2035.8125	6453.8625
2038.84664	6437.0625
2041.87881	6440.9625
2044.90903	6429.3625
2047.93729	6429.0625
2050.96359	6399.0625
2053.98794	6396.1625
2057.01034	6401.8625
2060.03078	6398.9625
2063.04927	6407.6625
2066.06582	6392.9625
2069.08042	6394.5625
2072.09307	6388.9625
2075.10378	6390.8625
2078.11255	6392.9625
2081.11938	6378.2625
2084.12426	6362.0625
2087.12722	6360.8625
2090.12824	6351.2625
2093.12732	6371.9625
2096.12447	6358.2625
2099.11969	6357.7625
2102.11299	6368.8625
2105.10435	6386.7625
2108.09379	6372.5625
2111.08131	6383.6625
2114.0669	6398.9625
2117.05057	6393.3625
2120.03233	6402.1625
2123.01216	6394.5625
2125.99008	6412.3625
2128.96609	6408.9625
2131.94018	6422.4625
2134.91236	6403.5625
2137.88263	6412.8625
2140.851	6441.6625
2143.81746	6440.8625
2146.78201	6426.6625
2149.74466	6444.0625
2152.7054	6444.1625
2155.66425	6445.6625
2158.6212	6434.0625
2161.57625	6430.9625
2164.52941	6434.8625
2167.48067	6414.9625
2170.43004	6440.2625
2173.37752	6440.2625
2176.32311	6435.7625
2179.26681	6428.2625
2182.20863	6439.3625
2185.14856	6441.6625
2188.08661	6458.5625
2191.02278	6461.5625
2193.95707	6453.3625
2196.88948	6435.6625
2199.82001	6444.8625
2202.74867	6430.9625
2205.67545	6437.7625
2208.60037	6445.2625
2211.52341	6408.0625
2214.44458	6397.1625
2217.36388	6388.8625
2220.28132	6388.5625
2223.1969	6388.7625
2226.11061	6383.7625
2229.02246	6366.2625
2231.93245	6358.4625
2234.84058	6334.0625
2237.74686	6329.9625
2240.65128	6326.1625
2243.55385	6312.2625
2246.45456	6306.5625
2249.35343	6290.2625
2252.25044	6289.3625
2255.14561	6263.6625
2258.03893	6276.6625
2260.93041	6254.8625
2263.82004	6256.8625
2266.70783	6237.3625
2269.59378	6215.1625
2272.4779	6202.6625
2275.36017	6198.5625
2278.24061	6190.8625
2281.11922	6190.7625
2283.996	6188.1625
2286.87094	6163.7625
2289.74405	6154.0625
2292.61534	6151.9625
2295.4848	6144.2625
2298.35243	6155.0625
2301.21824	6143.6625
2304.08223	6159.3625
2306.94439	6158.9625
2309.80474	6162.1625
2312.66327	6154.9625
2315.51999	6147.9625
2318.37489	6141.2625
2321.22797	6142.2625
2324.07925	6130.4625
2326.92871	6127.4625
2329.77637	6120.5625
2332.62222	6111.2625
2335.46626	6108.6625
2338.3085	6109.4625
2341.14893	6119.5625
2343.98756	6118.9625
2346.8244	6107.1625
2349.65943	6113.2625
2352.49267	6106.5625
2355.32411	6102.5625
2358.15376	6109.7625
2360.98161	6107.6625
2363.80768	6088.2625
2366.63195	6101.8625
2369.45444	6103.6625
2372.27514	6070.7625
2375.09405	6080.7625
2377.91118	6056.9625
2380.72652	6044.2625
2383.54009	6021.8625
2386.35187	6017.3625
2389.16188	6002.3625
2391.97011	5998.7625
2394.77657	5995.6625
2397.58125	5986.1625
2400.38416	5986.2625
2403.18529	5953.8625
2405.98466	5960.6625
2408.78226	5970.1625
2411.57809	5935.1625
2414.37216	5921.2625
2417.16446	5905.6625
2419.955	5919.8625
2422.74378	5900.1625
2425.5308	5907.3625
2428.31606	5915.5625
2431.09956	5905.2625
2433.88131	5898.4625
2436.6613	5894.8625
2439.43954	5900.6625
2442.21603	5906.0625
2444.99077	5894.6625
2447.76377	5892.9625
2450.53501	5885.8625
2453.30451	5888.1625
2456.07226	5854.7625
2458.83827	5865.1625
2461.60254	5873.2625
2464.36507	5860.3625
2467.12586	5877.7625
2469.88492	5881.6625
2472.64224	5877.2625
2475.39782	5874.7625
2478.15167	5863.6625
2480.90379	5869.7625
2483.65417	5875.2625
2486.40283	5879.4625
2489.14976	5886.8625
2491.89497	5877.9625
2494.63845	5884.1625
2497.3802	5867.3625
2500.12024	5880.1625
2502.85855	5878.2625
2505.59514	5870.8625
2508.33002	5860.2625
2511.06318	5857.8625
2513.79462	5863.8625
2516.52435	5849.9625
2519.25237	5822.3625
2521.97867	5815.0625
2524.70327	5816.6625
2527.42616	5806.0625
2530.14734	5822.7625
2532.86681	5809.1625
2535.58458	5795.4625
2538.30065	5799.8625
2541.01501	5804.0625
2543.72768	5781.7625
2546.43864	5798.9625
2549.14791	5769.9625
2551.85548	5783.3625
2554.56136	5767.4625
2557.26554	5757.1625
2559.96803	5767.4625
2562.66883	5744.6625
2565.36794	5742.6625
2568.06536	5756.8625
2570.7611	5740.2625
2573.45514	5722.0625
2576.14751	5720.0625
2578.83819	5705.6625
2581.52719	5730.3625
2584.21451	5713.1625
2586.90015	5710.5625
2589.58411	5697.8625
2592.2664	5723.6625
2594.94701	5684.1625
2597.62594	5694.9625
2600.30321	5670.3625
2602.9788	5680.5625
2605.65273	5682.6625
2608.32498	5679.5625
2610.99557	5669.7625
2613.66449	5658.4625
2616.33175	5647.6625
2618.99734	5660.3625
2621.66128	5665.5625
2624.32355	5652.0625
2626.98416	5670.4625
2629.64311	5649.5625
2632.30041	5647.4625
2634.95605	5641.3625
2637.61004	5623.6625
2640.26238	5630.9625
2642.91306	5623.5625
2645.56209	5629.6625
2648.20948	5627.6625
2650.85521	5602.6625
2653.4993	5626.7625
2656.14175	5624.2625
2658.78255	5624.7625
2661.42171	5635.0625
2664.05923	5640.1625
2666.6951	5628.7625
2669.32934	5627.5625
2671.96194	5623.7625
2674.59291	5636.9625
2677.22224	5625.7625
2679.84993	5616.6625
2682.476	5621.0625
2685.10043	5622.5625
2687.72324	5607.1625
2690.34441	5605.0625
2692.96396	5612.5625
2695.58188	5632.0625
2698.19818	5611.4625
2700.81285	5615.0625
2703.4259	5618.1625
2706.03733	5618.4625
2708.64714	5595.8625
2711.25533	5620.8625
2713.86191	5620.8625
2716.46687	5621.0625
2719.07021	5628.8625
2721.67194	5648.8625
2724.27206	5630.9625
2726.87057	5644.5625
2729.46747	5640.0625
2732.06276	5657.9625
2734.65644	5624.2625
2737.24852	5637.3625
2739.83899	5622.2625
2742.42786	5642.6625
2745.01513	5615.0625
2747.60079	5614.2625
2750.18486	5624.4625
2752.76733	5636.5625
2755.3482	5604.3625
2757.92747	5612.3625
2760.50515	5617.7625
2763.08123	5618.1625
2765.65573	5611.2625
2768.22863	5600.5625
2770.79994	5597.6625
2773.36967	5613.1625
2775.9378	5613.7625
2778.50435	5602.2625
2781.06932	5592.7625
2783.6327	5583.5625
2786.1945	5591.0625
2788.75471	5590.7625
2791.31335	5591.4625
2793.87041	5565.6625
2796.42589	5558.1625
2798.97979	5561.1625
2801.53212	5572.1625
2804.08288	5539.2625
2806.63206	5544.7625
2809.17967	5531.2625
2811.72571	5498.7625
2814.27018	5505.8625
2816.81308	5500.1625
2819.35442	5516.4625
2821.89419	5504.0625
2824.43239	5500.7625
2826.96904	5507.6625
2829.50412	5498.8625
2832.03763	5479.2625
2834.56959	5503.9625
2837.1	5506.0625
2839.62884	5509.6625
2842.15613	5519.3625
2844.68186	5537.7625
2847.20604	5555.2625
2849.72867	5566.1625
2852.24974	5566.3625
2854.76927	5557.9625
2857.28724	5531.2625
2859.80367	5545.0625
2862.31855	5556.4625
2864.83189	5525.3625
2867.34368	5529.0625
2869.85393	5538.4625
2872.36264	5533.4625
2874.8698	5526.9625
2877.37543	5536.6625
2879.87952	5547.3625
2882.38207	5553.0625
2884.88308	5535.0625
2887.38256	5548.6625
2889.88051	5544.7625
2892.37692	5543.6625
2894.8718	5552.6625
2897.36515	5584.0625
2899.85698	5580.2625
2902.34727	5583.6625
2904.83604	5592.1625
2907.32328	5618.4625
2909.809	5621.1625
2912.29319	5631.2625
2914.77587	5616.6625
2917.25702	5622.6625
2919.73665	5607.8625
2922.21476	5639.8625
2924.69136	5641.8625
2927.16644	5644.5625
2929.64	5632.9625
2932.11205	5641.5625
2934.58258	5611.9625
2937.05161	5627.2625
2939.51912	5626.6625
2941.98513	5612.9625
2944.44962	5605.6625
2946.91261	5580.6625
2949.37409	5590.5625
2951.83407	5566.7625
2954.29254	5579.3625
2956.74951	5566.6625
2959.20498	5567.7625
2961.65895	5552.2625
2964.11142	5551.4625
2966.56239	5520.2625
2969.01186	5521.9625
2971.45984	5506.1625
2973.90632	5488.6625
2976.35131	5481.0625
2978.7948	5465.3625
2981.23681	5453.4625
2983.67732	5460.0625
2986.11635	5437.4625
2988.55388	5419.2625
2990.98993	5410.6625
2993.4245	5416.9625
2995.85758	5417.6625
2998.28917	5399.3625
3000.71928	5389.3625
3003.14791	5374.5625
3005.57506	5367.6625
3008.00073	5362.0625
3010.42493	5352.7625
3012.84764	5355.9625
3015.26888	5348.4625
3017.68865	5331.2625
3020.10694	5339.4625
3022.52376	5321.7625
3024.9391	5297.4625
3027.35298	5310.8625
3029.76539	5312.3625
3032.17632	5301.8625
3034.5858	5291.2625
3036.9938	5310.9625
3039.40034	5312.5625
3041.80542	5297.2625
3044.20903	5292.4625
3046.61118	5291.3625
3049.01187	5282.4625
3051.4111	5301.0625
3053.80888	5293.4625
3056.20519	5285.8625
3058.60005	5260.5625
3060.99345	5252.5625
3063.3854	5248.1625
3065.7759	5235.2625
3068.16494	5241.3625
3070.55254	5224.5625
3072.93868	5214.4625
3075.32338	5214.6625
3077.70662	5211.1625
3080.08842	5205.1625
3082.46878	5205.7625
3084.84769	5211.7625
3087.22515	5209.8625
3089.60118	5203.2625
3091.97576	5202.9625
3094.3489	5210.3625
3096.72061	5238.2625
3099.09087	5219.0625
3101.4597	5228.5625
3103.82709	5237.6625
3106.19305	5229.2625
3108.55757	5230.4625
3110.92066	5227.5625
3113.28232	5242.0625
3115.64255	5221.8625
3118.00134	5219.4625
3120.35871	5209.7625
3122.71466	5197.5625
3125.06917	5207.8625
3127.42226	5212.1625
3129.77393	5206.4625
3132.12417	5196.9625
3134.47299	5212.4625
3136.82039	5213.1625
3139.16636	5228.6625
3141.51092	5227.8625
3143.85406	5241.2625
3146.19579	5228.2625
3148.53609	5264.9625
3150.87499	5257.6625
3153.21246	5272.7625
3155.54853	5277.3625
3157.88318	5281.2625
3160.21642	5299.5625
3162.54826	5308.0625
3164.87868	5314.3625
3167.2077	5314.4625
3169.5353	5330.1625
3171.86151	5310.9625
3174.18631	5316.1625
3176.5097	5326.4625
3178.83169	5327.1625
3181.15228	5324.8625
3183.47147	5336.0625
3185.78926	5321.5625
3188.10565	5324.4625
3190.42065	5328.4625
3192.73424	5331.1625
3195.04645	5333.1625
3197.35725	5353.0625
3199.66667	5351.8625
3201.97469	5342.8625
3204.28132	5354.0625
3206.58656	5389.9625
3208.8904	5362.0625
3211.19287	5369.2625
3213.49394	5386.5625
3215.79363	5380.0625
3218.09193	5384.9625
3220.38884	5393.5625
3222.68438	5379.8625
3224.97853	5402.0625
3227.2713	5405.4625
3229.56269	5405.3625
3231.8527	5422.2625
3234.14133	5397.4625
3236.42858	5379.5625
3238.71446	5383.7625
3240.99896	5374.9625
3243.28209	5396.3625
3245.56384	5370.3625
3247.84423	5368.1625
3250.12324	5373.9625
3252.40088	5362.0625
3254.67715	5369.4625
3256.95205	5391.3625
3259.22558	5373.0625
3261.49775	5388.3625
3263.76855	5358.2625
3266.03799	5332.9625
3268.30606	5335.4625
3270.57277	5337.0625
3272.83812	5335.6625
3275.10211	5325.2625
3277.36474	5322.2625
3279.62601	5322.4625
3281.88593	5330.6625
3284.14448	5318.6625
3286.40168	5333.9625
3288.65753	5334.9625
3290.91202	5327.0625
3293.16516	5308.4625
3295.41695	5315.4625
3297.66738	5267.4625
3299.91647	5232.4625
3302.16421	5229.5625
3304.4106	5216.1625
3306.65564	5170.4625
3308.89933	5170.5625
3311.14169	5144.4625
3313.38269	5096.6625
3315.62236	5058.8625
3317.86068	5016.5625
3320.09766	5002.1625
3322.3333	4966.8625
3324.5676	4948.6625
3326.80056	4883.0625
3329.03219	4842.2625
3331.26248	0.8625
3333.49143	0.0625
3335.71905	-0.6375
