Data from AgNPs_FTO_APTES_UA_1uM_CRN_500uM_R6G_10uM_NaF_0.1M_Addition_RamanShift__10__17-56-19-871.txt Node

Date: Thu Jan 27 17:56:19 GMT 2022
User: TCL
Spectrometer: QEP01345
Trigger mode: 4
Integration Time (sec): 7.000000E0
Scans to average: 10
Electric dark correction enabled: true
Nonlinearity correction enabled: false
Boxcar width: 0
XAxis mode: Raman Shifts
Number of Pixels in Spectrum: 1044
>>>>>Begin Spectral Data<<<<<
46.04893	0.8625
50.45542	-0.2375
54.85868	-0.6375
59.25871	-0.7375
63.6555	42.8625
68.04907	40.9625
72.43941	45.7625
76.82654	51.4625
81.21044	49.7625
85.59113	51.1625
89.96862	51.7625
94.34289	54.6625
98.71396	59.7625
103.08183	60.4625
107.4465	62.0625
111.80798	64.1625
116.16626	60.4625
120.52136	69.3625
124.87327	67.6625
129.222	66.9625
133.56755	70.6625
137.90993	69.9625
142.24913	77.3625
146.58517	83.4625
150.91804	94.0625
155.24774	108.4625
159.57429	125.0625
163.89768	159.1625
168.21792	208.2625
172.53501	278.8625
176.84895	382.5625
181.15975	529.5625
185.46741	737.7625
189.77193	1019.1625
194.07331	1367.9625
198.37157	1773.8625
202.6667	2180.5625
206.9587	2594.5625
211.24758	3004.9625
215.53334	3412.6625
219.81599	3831.5625
224.09553	4289.8625
228.37195	4802.4625
232.64527	5368.1625
236.91549	5960.4625
241.18261	6554.2625
245.44663	7128.0625
249.70755	7673.4625
253.96539	8111.0625
258.22014	8515.9625
262.4718	8835.5625
266.72039	9010.8625
270.96589	9107.8625
275.20832	9099.9625
279.44768	9011.8625
283.68397	8917.3625
287.91719	8811.1625
292.14735	8701.4625
296.37445	8666.1625
300.59849	8655.6625
304.81948	8697.0625
309.03742	8664.8625
313.25231	8620.2625
317.46415	8453.8625
321.67296	8309.6625
325.87872	8169.5625
330.08145	8097.3625
334.28114	8064.6625
338.47781	8120.4625
342.67145	8204.8625
346.86207	8303.4625
351.04966	8458.8625
355.23424	8578.9625
359.4158	8705.7625
363.59435	8798.5625
367.76989	8845.4625
371.94243	8924.7625
376.11196	8963.6625
380.27849	8996.1625
384.44203	9038.9625
388.60257	9120.4625
392.76012	9199.6625
396.91468	9284.6625
401.06626	9401.8625
405.21485	9487.6625
409.36047	9470.1625
413.50311	9409.6625
417.64277	9362.1625
421.77947	9383.5625
425.9132	9448.3625
430.04396	9491.3625
434.17176	9533.2625
438.2966	9548.1625
442.41849	9613.0625
446.53742	9735.9625
450.6534	9922.0625
454.76644	9991.9625
458.87653	10029.2625
462.98368	10000.5625
467.08789	9941.1625
471.18916	9834.3625
475.2875	9740.0625
479.38291	9639.4625
483.4754	9567.6625
487.56496	9498.1625
491.6516	9409.0625
495.73531	9372.0625
499.81612	9393.7625
503.89401	9446.5625
507.96899	9502.0625
512.04106	9479.0625
516.11023	9480.7625
520.1765	9385.9625
524.23987	9325.6625
528.30034	9256.7625
532.35792	9202.2625
536.41261	9124.3625
540.46441	9023.7625
544.51333	9017.9625
548.55936	9080.3625
552.60252	9250.1625
556.64279	9414.9625
560.6802	9500.7625
564.71473	9521.3625
568.7464	9582.6625
572.7752	9750.0625
576.80114	9995.6625
580.82422	10243.1625
584.84444	10686.6625
588.86181	11172.0625
592.87633	11543.0625
596.888	11440.7625
600.89682	10884.4625
604.9028	10649.1625
608.90594	11055.9625
612.90624	11701.0625
616.90371	11246.6625
620.89834	9876.4625
624.89015	9212.1625
628.87913	9116.4625
632.86528	9190.0625
636.84862	9246.0625
640.82913	9172.9625
644.80683	9041.4625
648.78172	8945.7625
652.75379	8951.7625
656.72306	9021.3625
660.68952	9080.7625
664.65319	9044.9625
668.61405	8949.7625
672.57211	8930.8625
676.52738	9012.4625
680.47986	9049.2625
684.42955	9029.4625
688.37646	8959.8625
692.32058	8932.9625
696.26192	8972.3625
700.20048	9056.1625
704.13626	9085.2625
708.06928	9109.1625
711.99952	9087.0625
715.927	9073.7625
719.85171	9083.0625
723.77365	9055.1625
727.69284	8977.6625
731.60928	8914.8625
735.52295	8854.6625
739.43388	8862.3625
743.34206	8885.5625
747.24749	8934.1625
751.15017	8980.0625
755.05012	9079.0625
758.94733	9263.1625
762.8418	9545.1625
766.73354	10035.4625
770.62254	10577.9625
774.50882	10763.7625
778.39237	10486.4625
782.27321	9917.2625
786.15132	9389.9625
790.02671	9084.4625
793.89938	8930.0625
797.76935	8875.0625
801.6366	8851.6625
805.50115	8795.2625
809.36299	8756.5625
813.22213	8691.9625
817.07857	8691.2625
820.93231	8658.0625
824.78336	8611.4625
828.63172	8589.3625
832.47738	8564.6625
836.32036	8558.5625
840.16066	8591.7625
843.99827	8556.4625
847.8332	8535.4625
851.66546	8534.1625
855.49504	8520.0625
859.32195	8551.4625
863.1462	8537.0625
866.96777	8549.0625
870.78668	8538.3625
874.60293	8539.4625
878.41652	8548.3625
882.22745	8548.4625
886.03573	8582.3625
889.84136	8613.4625
893.64433	8599.8625
897.44466	8581.4625
901.24235	8532.5625
905.0374	8511.7625
908.8298	8471.0625
912.61957	8468.2625
916.40671	8514.3625
920.19121	8581.3625
923.97308	8645.9625
927.75233	8655.5625
931.52895	8619.9625
935.30295	8521.0625
939.07433	8395.9625
942.84309	8291.4625
946.60924	8227.8625
950.37278	8192.0625
954.13371	8183.8625
957.89203	8154.2625
961.64774	8148.4625
965.40086	8140.6625
969.15137	8132.5625
972.89929	8061.5625
976.64461	8036.4625
980.38733	8027.3625
984.12747	8007.0625
987.86502	8018.4625
991.59999	8043.6625
995.33237	8063.4625
999.06217	8123.7625
1002.78939	8238.6625
1006.51404	8314.3625
1010.23611	8412.9625
1013.95561	8520.1625
1017.67255	8547.1625
1021.38692	8511.2625
1025.09872	8413.0625
1028.80796	8335.4625
1032.51465	8259.0625
1036.21877	8264.7625
1039.92035	8269.9625
1043.61937	8334.0625
1047.31584	8344.5625
1051.00976	8403.1625
1054.70114	8435.6625
1058.38998	8448.2625
1062.07627	8527.3625
1065.76003	8612.8625
1069.44126	8699.9625
1073.11995	8807.9625
1076.79611	8903.2625
1080.46974	8948.6625
1084.14085	8876.8625
1087.80943	8885.7625
1091.47549	8931.4625
1095.13903	8967.0625
1098.80005	8912.0625
1102.45857	8743.1625
1106.11456	8608.9625
1109.76805	8508.3625
1113.41903	8484.9625
1117.06751	8544.2625
1120.71348	8605.7625
1124.35696	8730.0625
1127.99793	8874.3625
1131.63641	9007.1625
1135.2724	8896.1625
1138.90589	8795.4625
1142.5369	8763.1625
1146.16542	8794.6625
1149.79145	8816.0625
1153.415	8826.4625
1157.03607	8895.8625
1160.65467	9072.8625
1164.27079	9381.4625
1167.88443	9779.7625
1171.49561	10185.8625
1175.10432	10678.1625
1178.71056	11331.0625
1182.31434	11955.3625
1185.91565	12274.2625
1189.51451	12205.6625
1193.11091	11906.0625
1196.70485	11542.2625
1200.29634	11142.0625
1203.88538	10832.3625
1207.47197	10650.5625
1211.05612	10449.7625
1214.63782	10267.4625
1218.21708	10045.3625
1221.79391	9848.3625
1225.36829	9703.7625
1228.94024	9673.6625
1232.50976	9579.3625
1236.07685	9513.8625
1239.6415	9460.8625
1243.20374	9405.3625
1246.76355	9435.7625
1250.32093	9479.8625
1253.8759	9582.5625
1257.42845	9772.0625
1260.97859	9985.3625
1264.52631	10210.9625
1268.07163	10385.1625
1271.61453	10592.4625
1275.15503	10763.5625
1278.69312	10969.7625
1282.22882	11256.1625
1285.76211	11599.0625
1289.29301	11968.4625
1292.82151	12468.2625
1296.34761	13012.1625
1299.87133	13689.8625
1303.39266	14364.3625
1306.9116	15011.2625
1310.42815	15557.1625
1313.94233	15821.9625
1317.45412	15621.6625
1320.96354	15233.6625
1324.47058	14799.4625
1327.97525	14521.3625
1331.47754	14354.4625
1334.97747	14201.9625
1338.47502	14085.1625
1341.97022	13929.6625
1345.46305	13861.8625
1348.95352	13953.4625
1352.44163	14206.4625
1355.92738	14739.0625
1359.41078	15468.7625
1362.89183	16092.5625
1366.37053	15985.7625
1369.84688	14851.7625
1373.32088	13272.4625
1376.79254	12074.1625
1380.26186	11556.8625
1383.72883	11401.5625
1387.19347	11277.3625
1390.65578	11064.7625
1394.11575	10973.6625
1397.57339	11037.6625
1401.0287	11245.9625
1404.48168	11405.0625
1407.93234	11438.6625
1411.38068	11284.0625
1414.82669	11000.0625
1418.27039	10704.0625
1421.71177	10373.2625
1425.15083	10069.0625
1428.58758	9919.9625
1432.02203	9962.9625
1435.45416	10151.2625
1438.88399	10359.8625
1442.31151	10491.2625
1445.73673	10540.2625
1449.15965	10546.8625
1452.58027	10545.9625
1455.9986	10533.1625
1459.41463	10551.9625
1462.82837	10681.7625
1466.23982	10873.3625
1469.64898	11091.3625
1473.05586	11221.6625
1476.46045	11306.2625
1479.86276	11311.1625
1483.26279	11252.5625
1486.66054	11295.4625
1490.05602	11355.8625
1493.44922	11533.4625
1496.84016	11767.0625
1500.22882	12080.4625
1503.61521	12520.1625
1506.99934	13000.2625
1510.38121	13356.5625
1513.76081	13400.3625
1517.13816	13051.7625
1520.51324	12533.9625
1523.88607	12120.1625
1527.25665	11900.8625
1530.62498	11782.6625
1533.99105	11666.8625
1537.35488	11492.4625
1540.71647	11292.4625
1544.07581	11039.2625
1547.4329	10820.4625
1550.78776	10579.2625
1554.14038	10377.7625
1557.49077	10246.6625
1560.83892	10190.8625
1564.18484	10204.8625
1567.52853	10239.2625
1570.86999	10388.3625
1574.20922	10570.0625
1577.54624	10682.8625
1580.88103	10700.9625
1584.2136	10630.9625
1587.54395	10726.7625
1590.87208	11054.2625
1594.19801	11621.1625
1597.52172	12249.5625
1600.84321	12545.3625
1604.16251	12267.1625
1607.47959	11508.4625
1610.79447	10651.5625
1614.10715	9843.7625
1617.41763	9216.5625
1620.7259	8776.9625
1624.03199	8526.6625
1627.33587	8461.1625
1630.63757	8598.3625
1633.93707	8953.6625
1637.23439	9604.7625
1640.52951	10649.9625
1643.82246	12048.0625
1647.11321	13313.5625
1650.40179	13743.7625
1653.68819	12918.8625
1656.97241	11391.4625
1660.25446	9877.5625
1663.53433	8794.0625
1666.81203	8141.8625
1670.08756	7741.7625
1673.36092	7497.7625
1676.63211	7331.3625
1679.90115	7248.0625
1683.16801	7129.6625
1686.43272	7051.7625
1689.69527	6993.7625
1692.95567	6954.5625
1696.2139	6884.7625
1699.46999	6818.7625
1702.72392	6772.8625
1705.97571	6793.8625
1709.22535	6815.0625
1712.47284	6839.6625
1715.71819	6842.3625
1718.96139	6836.4625
1722.20246	6833.5625
1725.44139	6796.0625
1728.67818	6758.4625
1731.91284	6719.7625
1735.14537	6704.6625
1738.37576	6689.2625
1741.60403	6649.5625
1744.83017	6619.2625
1748.05418	6615.3625
1751.27607	6602.2625
1754.49584	6588.0625
1757.71349	6589.2625
1760.92903	6587.2625
1764.14244	6557.8625
1767.35375	6543.2625
1770.56294	6525.4625
1773.77002	6501.0625
1776.97499	6487.3625
1780.17785	6501.6625
1783.37861	6483.3625
1786.57727	6482.8625
1789.77382	6469.6625
1792.96828	6438.0625
1796.16064	6430.1625
1799.3509	6414.1625
1802.53907	6395.9625
1805.72514	6377.0625
1808.90913	6388.9625
1812.09102	6342.1625
1815.27083	6338.2625
1818.44856	6335.1625
1821.6242	6322.3625
1824.79776	6295.0625
1827.96924	6299.0625
1831.13864	6297.0625
1834.30597	6286.5625
1837.47122	6288.9625
1840.6344	6292.0625
1843.7955	6265.1625
1846.95454	6269.3625
1850.11151	6255.1625
1853.26642	6267.4625
1856.41926	6255.9625
1859.57004	6233.7625
1862.71876	6244.1625
1865.86542	6238.4625
1869.01003	6235.1625
1872.15258	6216.0625
1875.29308	6206.4625
1878.43152	6194.5625
1881.56792	6190.9625
1884.70227	6175.5625
1887.83457	6144.7625
1890.96482	6148.1625
1894.09304	6153.2625
1897.21921	6121.0625
1900.34335	6122.9625
1903.46544	6109.4625
1906.58551	6107.3625
1909.70353	6094.9625
1912.81953	6087.5625
1915.93349	6077.4625
1919.04543	6058.3625
1922.15534	6051.6625
1925.26322	6024.2625
1928.36908	6014.7625
1931.47292	6001.9625
1934.57473	5995.4625
1937.67453	5959.8625
1940.77232	5957.7625
1943.86808	5938.4625
1946.96184	5916.5625
1950.05358	5891.4625
1953.14331	5892.1625
1956.23103	5872.6625
1959.31675	5860.0625
1962.40046	5840.3625
1965.48217	5793.8625
1968.56188	5776.6625
1971.63959	5793.9625
1974.7153	5762.3625
1977.78901	5752.6625
1980.86073	5727.0625
1983.93046	5701.8625
1986.99819	5697.8625
1990.06394	5669.5625
1993.1277	5664.4625
1996.18947	5634.6625
1999.24925	5622.1625
2002.30706	5600.2625
2005.36288	5576.7625
2008.41672	5580.1625
2011.46859	5567.4625
2014.51848	5536.2625
2017.56639	5538.0625
2020.61233	5518.8625
2023.6563	5493.0625
2026.6983	5483.6625
2029.73833	5480.6625
2032.7764	5462.1625
2035.8125	5459.6625
2038.84664	5433.4625
2041.87881	5401.8625
2044.90903	5402.6625
2047.93729	5386.3625
2050.96359	5379.3625
2053.98794	5364.5625
2057.01034	5368.9625
2060.03078	5353.7625
2063.04927	5359.9625
2066.06582	5349.2625
2069.08042	5380.6625
2072.09307	5356.9625
2075.10378	5352.1625
2078.11255	5318.4625
2081.11938	5341.0625
2084.12426	5318.5625
2087.12722	5321.7625
2090.12824	5320.3625
2093.12732	5321.4625
2096.12447	5324.6625
2099.11969	5305.0625
2102.11299	5316.8625
2105.10435	5313.9625
2108.09379	5323.6625
2111.08131	5309.9625
2114.0669	5316.8625
2117.05057	5334.2625
2120.03233	5322.8625
2123.01216	5345.1625
2125.99008	5345.5625
2128.96609	5345.7625
2131.94018	5337.4625
2134.91236	5352.2625
2137.88263	5339.1625
2140.851	5348.4625
2143.81746	5335.4625
2146.78201	5326.3625
2149.74466	5340.5625
2152.7054	5328.0625
2155.66425	5331.9625
2158.6212	5318.8625
2161.57625	5309.2625
2164.52941	5320.9625
2167.48067	5321.8625
2170.43004	5323.0625
2173.37752	5311.3625
2176.32311	5310.6625
2179.26681	5314.1625
2182.20863	5298.6625
2185.14856	5315.0625
2188.08661	5308.5625
2191.02278	5312.7625
2193.95707	5309.6625
2196.88948	5291.8625
2199.82001	5287.5625
2202.74867	5257.7625
2205.67545	5261.1625
2208.60037	5255.5625
2211.52341	5257.5625
2214.44458	5232.1625
2217.36388	5234.5625
2220.28132	5211.6625
2223.1969	5192.6625
2226.11061	5193.4625
2229.02246	5195.5625
2231.93245	5188.1625
2234.84058	5180.8625
2237.74686	5169.9625
2240.65128	5146.8625
2243.55385	5131.9625
2246.45456	5136.3625
2249.35343	5124.4625
2252.25044	5129.6625
2255.14561	5090.6625
2258.03893	5088.6625
2260.93041	5074.7625
2263.82004	5069.1625
2266.70783	5058.1625
2269.59378	5062.4625
2272.4779	5032.1625
2275.36017	5026.4625
2278.24061	5015.9625
2281.11922	5009.3625
2283.996	4997.2625
2286.87094	4981.2625
2289.74405	4977.8625
2292.61534	4967.2625
2295.4848	4944.1625
2298.35243	4950.1625
2301.21824	4936.8625
2304.08223	4944.5625
2306.94439	4929.5625
2309.80474	4934.0625
2312.66327	4935.1625
2315.51999	4912.9625
2318.37489	4908.6625
2321.22797	4916.0625
2324.07925	4884.5625
2326.92871	4895.4625
2329.77637	4900.8625
2332.62222	4877.9625
2335.46626	4867.1625
2338.3085	4862.4625
2341.14893	4861.2625
2343.98756	4849.4625
2346.8244	4838.8625
2349.65943	4830.2625
2352.49267	4827.9625
2355.32411	4829.2625
2358.15376	4813.3625
2360.98161	4823.4625
2363.80768	4828.7625
2366.63195	4820.7625
2369.45444	4821.0625
2372.27514	4806.0625
2375.09405	4803.7625
2377.91118	4802.9625
2380.72652	4795.6625
2383.54009	4767.0625
2386.35187	4760.6625
2389.16188	4748.0625
2391.97011	4736.8625
2394.77657	4724.6625
2397.58125	4711.4625
2400.38416	4702.6625
2403.18529	4708.6625
2405.98466	4692.3625
2408.78226	4687.3625
2411.57809	4674.4625
2414.37216	4672.1625
2417.16446	4653.4625
2419.955	4671.5625
2422.74378	4654.0625
2425.5308	4655.4625
2428.31606	4661.6625
2431.09956	4654.8625
2433.88131	4650.5625
2436.6613	4640.9625
2439.43954	4636.4625
2442.21603	4633.7625
2444.99077	4620.2625
2447.76377	4627.9625
2450.53501	4619.6625
2453.30451	4612.1625
2456.07226	4606.5625
2458.83827	4597.4625
2461.60254	4600.1625
2464.36507	4591.8625
2467.12586	4591.7625
2469.88492	4577.3625
2472.64224	4585.9625
2475.39782	4601.7625
2478.15167	4575.0625
2480.90379	4546.8625
2483.65417	4561.2625
2486.40283	4565.7625
2489.14976	4574.6625
2491.89497	4555.5625
2494.63845	4535.8625
2497.3802	4542.3625
2500.12024	4547.7625
2502.85855	4549.4625
2505.59514	4548.1625
2508.33002	4535.3625
2511.06318	4521.7625
2513.79462	4521.2625
2516.52435	4492.0625
2519.25237	4501.5625
2521.97867	4497.9625
2524.70327	4482.7625
2527.42616	4483.8625
2530.14734	4492.4625
2532.86681	4474.8625
2535.58458	4474.5625
2538.30065	4460.1625
2541.01501	4465.0625
2543.72768	4448.3625
2546.43864	4457.2625
2549.14791	4422.0625
2551.85548	4437.1625
2554.56136	4425.1625
2557.26554	4402.5625
2559.96803	4412.3625
2562.66883	4390.1625
2565.36794	4392.4625
2568.06536	4386.4625
2570.7611	4384.4625
2573.45514	4374.7625
2576.14751	4355.8625
2578.83819	4341.6625
2581.52719	4363.8625
2584.21451	4341.6625
2586.90015	4329.3625
2589.58411	4332.8625
2592.2664	4323.6625
2594.94701	4326.1625
2597.62594	4290.3625
2600.30321	4280.5625
2602.9788	4292.7625
2605.65273	4291.4625
2608.32498	4288.7625
2610.99557	4272.4625
2613.66449	4273.6625
2616.33175	4269.6625
2618.99734	4266.6625
2621.66128	4248.8625
2624.32355	4251.0625
2626.98416	4251.0625
2629.64311	4247.7625
2632.30041	4237.0625
2634.95605	4214.8625
2637.61004	4208.9625
2640.26238	4191.4625
2642.91306	4219.3625
2645.56209	4206.3625
2648.20948	4198.8625
2650.85521	4199.7625
2653.4993	4221.9625
2656.14175	4202.2625
2658.78255	4201.3625
2661.42171	4210.6625
2664.05923	4210.5625
2666.6951	4219.0625
2669.32934	4222.3625
2671.96194	4204.9625
2674.59291	4204.7625
2677.22224	4187.5625
2679.84993	4197.1625
2682.476	4177.5625
2685.10043	4196.3625
2687.72324	4191.3625
2690.34441	4194.4625
2692.96396	4187.2625
2695.58188	4191.6625
2698.19818	4190.5625
2700.81285	4196.3625
2703.4259	4196.8625
2706.03733	4183.5625
2708.64714	4162.6625
2711.25533	4178.3625
2713.86191	4178.7625
2716.46687	4187.2625
2719.07021	4181.8625
2721.67194	4180.0625
2724.27206	4201.4625
2726.87057	4198.9625
2729.46747	4206.0625
2732.06276	4202.4625
2734.65644	4180.2625
2737.24852	4195.0625
2739.83899	4183.4625
2742.42786	4182.2625
2745.01513	4166.9625
2747.60079	4166.1625
2750.18486	4155.4625
2752.76733	4158.0625
2755.3482	4143.2625
2757.92747	4141.4625
2760.50515	4142.8625
2763.08123	4135.7625
2765.65573	4135.4625
2768.22863	4133.1625
2770.79994	4124.4625
2773.36967	4119.1625
2775.9378	4127.6625
2778.50435	4101.8625
2781.06932	4105.1625
2783.6327	4117.4625
2786.1945	4110.0625
2788.75471	4103.6625
2791.31335	4066.3625
2793.87041	4077.0625
2796.42589	4068.2625
2798.97979	4070.5625
2801.53212	4061.9625
2804.08288	4053.2625
2806.63206	4046.2625
2809.17967	4046.1625
2811.72571	4033.7625
2814.27018	4023.1625
2816.81308	4017.1625
2819.35442	4008.6625
2821.89419	4000.5625
2824.43239	4005.1625
2826.96904	4002.3625
2829.50412	4002.2625
2832.03763	4002.4625
2834.56959	3993.4625
2837.1	4002.1625
2839.62884	4006.8625
2842.15613	4029.4625
2844.68186	4052.6625
2847.20604	4071.0625
2849.72867	4089.5625
2852.24974	4080.9625
2854.76927	4080.3625
2857.28724	4068.2625
2859.80367	4073.1625
2862.31855	4059.5625
2864.83189	4034.0625
2867.34368	4038.7625
2869.85393	4047.4625
2872.36264	4038.9625
2874.8698	4048.5625
2877.37543	4043.9625
2879.87952	4020.7625
2882.38207	4028.7625
2884.88308	4017.7625
2887.38256	4026.8625
2889.88051	4017.9625
2892.37692	4016.4625
2894.8718	4040.8625
2897.36515	4033.1625
2899.85698	4030.7625
2902.34727	4037.8625
2904.83604	4045.8625
2907.32328	4066.1625
2909.809	4051.4625
2912.29319	4047.6625
2914.77587	4058.5625
2917.25702	4057.5625
2919.73665	4056.2625
2922.21476	4066.0625
2924.69136	4062.1625
2927.16644	4059.4625
2929.64	4066.2625
2932.11205	4053.6625
2934.58258	4048.8625
2937.05161	4053.8625
2939.51912	4061.4625
2941.98513	4040.5625
2944.44962	4023.4625
2946.91261	3993.5625
2949.37409	4003.9625
2951.83407	3985.5625
2954.29254	3983.7625
2956.74951	3963.2625
2959.20498	3972.9625
2961.65895	3951.3625
2964.11142	3952.3625
2966.56239	3945.5625
2969.01186	3911.8625
2971.45984	3914.9625
2973.90632	3912.4625
2976.35131	3889.6625
2978.7948	3901.2625
2981.23681	3878.1625
2983.67732	3862.1625
2986.11635	3837.9625
2988.55388	3841.8625
2990.98993	3847.6625
2993.4245	3821.9625
2995.85758	3804.0625
2998.28917	3817.7625
3000.71928	3808.1625
3003.14791	3790.0625
3005.57506	3794.8625
3008.00073	3781.9625
3010.42493	3786.6625
3012.84764	3778.6625
3015.26888	3771.6625
3017.68865	3772.7625
3020.10694	3771.4625
3022.52376	3739.8625
3024.9391	3747.7625
3027.35298	3743.0625
3029.76539	3735.8625
3032.17632	3711.3625
3034.5858	3735.4625
3036.9938	3743.0625
3039.40034	3724.4625
3041.80542	3720.8625
3044.20903	3727.8625
3046.61118	3718.4625
3049.01187	3719.5625
3051.4111	3712.5625
3053.80888	3701.9625
3056.20519	3690.9625
3058.60005	3684.8625
3060.99345	3684.4625
3063.3854	3675.2625
3065.7759	3671.1625
3068.16494	3664.2625
3070.55254	3669.7625
3072.93868	3652.8625
3075.32338	3649.1625
3077.70662	3650.1625
3080.08842	3629.3625
3082.46878	3645.0625
3084.84769	3643.1625
3087.22515	3637.0625
3089.60118	3631.9625
3091.97576	3642.3625
3094.3489	3637.6625
3096.72061	3644.7625
3099.09087	3656.4625
3101.4597	3645.1625
3103.82709	3648.4625
3106.19305	3644.6625
3108.55757	3647.7625
3110.92066	3652.5625
3113.28232	3633.1625
3115.64255	3639.0625
3118.00134	3639.1625
3120.35871	3640.1625
3122.71466	3626.6625
3125.06917	3630.6625
3127.42226	3624.7625
3129.77393	3625.1625
3132.12417	3622.5625
3134.47299	3635.5625
3136.82039	3640.7625
3139.16636	3645.6625
3141.51092	3646.0625
3143.85406	3655.6625
3146.19579	3648.7625
3148.53609	3642.1625
3150.87499	3670.6625
3153.21246	3665.7625
3155.54853	3665.8625
3157.88318	3675.1625
3160.21642	3691.6625
3162.54826	3688.7625
3164.87868	3687.5625
3167.2077	3698.7625
3169.5353	3707.1625
3171.86151	3693.3625
3174.18631	3709.2625
3176.5097	3712.3625
3178.83169	3694.1625
3181.15228	3700.5625
3183.47147	3707.2625
3185.78926	3697.6625
3188.10565	3710.1625
3190.42065	3702.8625
3192.73424	3687.5625
3195.04645	3702.0625
3197.35725	3701.9625
3199.66667	3702.8625
3201.97469	3708.2625
3204.28132	3708.3625
3206.58656	3717.6625
3208.8904	3719.9625
3211.19287	3729.0625
3213.49394	3723.4625
3215.79363	3728.2625
3218.09193	3736.8625
3220.38884	3729.9625
3222.68438	3741.8625
3224.97853	3727.8625
3227.2713	3725.1625
3229.56269	3726.3625
3231.8527	3740.6625
3234.14133	3726.5625
3236.42858	3724.9625
3238.71446	3712.1625
3240.99896	3704.0625
3243.28209	3705.9625
3245.56384	3702.7625
3247.84423	3705.7625
3250.12324	3698.9625
3252.40088	3702.3625
3254.67715	3692.5625
3256.95205	3693.1625
3259.22558	3688.0625
3261.49775	3684.9625
3263.76855	3688.3625
3266.03799	3655.4625
3268.30606	3673.2625
3270.57277	3658.1625
3272.83812	3644.2625
3275.10211	3640.3625
3277.36474	3636.8625
3279.62601	3634.8625
3281.88593	3620.4625
3284.14448	3636.4625
3286.40168	3626.7625
3288.65753	3637.0625
3290.91202	3645.0625
3293.16516	3620.2625
3295.41695	3617.6625
3297.66738	3591.7625
3299.91647	3574.3625
3302.16421	3562.2625
3304.4106	3540.7625
3306.65564	3518.3625
3308.89933	3517.5625
3311.14169	3480.7625
3313.38269	3455.4625
3315.62236	3432.4625
3317.86068	3403.1625
3320.09766	3388.0625
3322.3333	3352.7625
3324.5676	3335.4625
3326.80056	3293.8625
3329.03219	3277.8625
3331.26248	0.7625
3333.49143	0.9625
3335.71905	-0.6375
