Data from AgNPs_FTO_APTES_UA_1uM_CRN_500uM_R6G_10uM_NaF_0.1M_Addition_RamanShift__27__18-16-09-881.txt Node

Date: Thu Jan 27 18:16:09 GMT 2022
User: TCL
Spectrometer: QEP01345
Trigger mode: 4
Integration Time (sec): 7.000000E0
Scans to average: 10
Electric dark correction enabled: true
Nonlinearity correction enabled: false
Boxcar width: 0
XAxis mode: Raman Shifts
Number of Pixels in Spectrum: 1044
>>>>>Begin Spectral Data<<<<<
46.04893	0.9
50.45542	0
54.85868	-1.7
59.25871	-0.8
63.6555	46.7
68.04907	49.6
72.43941	50.2
76.82654	53.5
81.21044	56.7
85.59113	56.9
89.96862	58
94.34289	65.1
98.71396	67.6
103.08183	65.5
107.4465	69.7
111.80798	69.1
116.16626	69.6
120.52136	77.2
124.87327	74.8
129.222	73.5
133.56755	79.3
137.90993	83.9
142.24913	89.9
146.58517	99.7
150.91804	114.9
155.24774	132.8
159.57429	160.2
163.89768	205.8
168.21792	271.4
172.53501	359.3
176.84895	490.1
181.15975	683.7
185.46741	956.1
189.77193	1320.9
194.07331	1765.8
198.37157	2303.7
202.6667	2839.3
206.9587	3393
211.24758	3933.3
215.53334	4483.1
219.81599	5095.4
224.09553	5764.6
228.37195	6511.1
232.64527	7324
236.91549	8169.1
241.18261	8951.5
245.44663	9626.3
249.70755	10197.7
253.96539	10681.8
258.22014	11115.7
262.4718	11492.7
266.72039	11777.5
270.96589	11925.4
275.20832	11960.6
279.44768	11839.9
283.68397	11668.7
287.91719	11515.9
292.14735	11507
296.37445	11617.5
300.59849	11906.2
304.81948	12264.8
309.03742	12494.1
313.25231	12427.4
317.46415	11918.6
321.67296	11208.9
325.87872	10590.5
330.08145	10281.8
334.28114	10266.2
338.47781	10404.2
342.67145	10626.2
346.86207	10977.5
351.04966	11488
355.23424	12071
359.4158	12533.9
363.59435	12788.3
367.76989	12919.8
371.94243	12963
376.11196	12974.3
380.27849	12958.7
384.44203	12885.6
388.60257	12797
392.76012	12721.7
396.91468	12821.1
401.06626	13076.7
405.21485	13305.5
409.36047	13127.9
413.50311	12603.7
417.64277	12077.9
421.77947	11784.8
425.9132	11693.2
430.04396	11681
434.17176	11766.7
438.2966	11930.1
442.41849	12181.7
446.53742	12536.8
450.6534	12898.3
454.76644	13144.7
458.87653	13187.4
462.98368	13084.7
467.08789	12892.3
471.18916	12666.8
475.2875	12454.6
479.38291	12310.8
483.4754	12116.9
487.56496	11943.6
491.6516	11770.8
495.73531	11696.8
499.81612	11690.7
503.89401	11741.8
507.96899	11859.6
512.04106	11982.7
516.11023	12144.6
520.1765	12211.8
524.23987	12184.2
528.30034	11993
532.35792	11803.9
536.41261	11618.3
540.46441	11388.6
544.51333	11295.2
548.55936	11358.4
552.60252	11546.8
556.64279	11817.3
560.6802	11991.8
564.71473	12151.2
568.7464	12531.3
572.7752	12851.9
576.80114	12662.5
580.82422	12330.6
584.84444	12142.1
588.86181	12217
592.87633	12364.1
596.888	12525.3
600.89682	12723.1
604.9028	13625.2
608.90594	16319
612.90624	20112.6
616.90371	19727.3
620.89834	14691.8
624.89015	12140.1
628.87913	11659.7
632.86528	11693.3
636.84862	11768
640.82913	11659.1
644.80683	11274.6
648.78172	10985.6
652.75379	10983.7
656.72306	11276.5
660.68952	11713.2
664.65319	11694.9
668.61405	11276.7
672.57211	11068.7
676.52738	11093.1
680.47986	11097.3
684.42955	11042.9
688.37646	10976.8
692.32058	10956.6
696.26192	11048
700.20048	11152
704.13626	11244.2
708.06928	11193.2
711.99952	11061.3
715.927	11005.5
719.85171	11039.5
723.77365	11048.8
727.69284	11009.4
731.60928	10936.6
735.52295	10930.8
739.43388	10957.4
743.34206	10997.3
747.24749	11005.9
751.15017	11072.3
755.05012	11210.7
758.94733	11595
762.8418	12405.8
766.73354	13958.1
770.62254	15746.7
774.50882	16766
778.39237	16213.5
782.27321	14383.9
786.15132	12583.9
790.02671	11572.8
793.89938	11111.2
797.76935	10940.4
801.6366	10846.5
805.50115	10787.7
809.36299	10732.5
813.22213	10710.3
817.07857	10698.7
820.93231	10692.2
824.78336	10701
828.63172	10750.8
832.47738	10771.4
836.32036	10734.9
840.16066	10713
843.99827	10692.9
847.8332	10686.7
851.66546	10661.4
855.49504	10639
859.32195	10653.3
863.1462	10628.7
866.96777	10627.5
870.78668	10592.9
874.60293	10572.6
878.41652	10550.2
882.22745	10600.1
886.03573	10660.3
889.84136	10641.4
893.64433	10604.3
897.44466	10521.8
901.24235	10513.3
905.0374	10460.9
908.8298	10425.6
912.61957	10402.4
916.40671	10442.9
920.19121	10551.2
923.97308	10665.6
927.75233	10735.4
931.52895	10848.8
935.30295	10783.7
939.07433	10551.9
942.84309	10321.7
946.60924	10158
950.37278	10095.8
954.13371	10025.1
957.89203	9952.2
961.64774	9926
965.40086	9881.6
969.15137	9831.5
972.89929	9803.5
976.64461	9776
980.38733	9783.3
984.12747	9804.7
987.86502	9882.4
991.59999	9970.7
995.33237	10095.7
999.06217	10315.7
1002.78939	10576.6
1006.51404	10741.3
1010.23611	10844.1
1013.95561	10952.8
1017.67255	10977.8
1021.38692	10839.6
1025.09872	10716.1
1028.80796	10659.6
1032.51465	10771.1
1036.21877	10924.2
1039.92035	10997.2
1043.61937	10925.1
1047.31584	10813.5
1051.00976	10690.7
1054.70114	10612.3
1058.38998	10591.6
1062.07627	10603
1065.76003	10667.8
1069.44126	10684.3
1073.11995	10758.1
1076.79611	10881.3
1080.46974	11004
1084.14085	11142.5
1087.80943	11331.4
1091.47549	11437.9
1095.13903	11344.5
1098.80005	11075.6
1102.45857	10810.7
1106.11456	10703.9
1109.76805	10742.9
1113.41903	10917.8
1117.06751	11182.7
1120.71348	11518.5
1124.35696	11892.6
1127.99793	12217
1131.63641	12282.6
1135.2724	11850.5
1138.90589	11404.5
1142.5369	11118.4
1146.16542	10946.8
1149.79145	10846.5
1153.415	10811.1
1157.03607	10868.1
1160.65467	11053.1
1164.27079	11390.1
1167.88443	11929.4
1171.49561	12744.3
1175.10432	14051.3
1178.71056	15773.2
1182.31434	17156.2
1185.91565	17551.4
1189.51451	17173.4
1193.11091	16246
1196.70485	15089.4
1200.29634	14223.4
1203.88538	13600.7
1207.47197	13001.2
1211.05612	12452.8
1214.63782	12173.3
1218.21708	12114.3
1221.79391	12101.8
1225.36829	12121
1228.94024	12073.8
1232.50976	11936.3
1236.07685	11886.6
1239.6415	11840.3
1243.20374	11836.6
1246.76355	11880.8
1250.32093	12041.9
1253.8759	12255.9
1257.42845	12576
1260.97859	12880.8
1264.52631	13203.1
1268.07163	13520.9
1271.61453	13875.7
1275.15503	14179.1
1278.69312	14377.7
1282.22882	14509.8
1285.76211	14697.8
1289.29301	15099.7
1292.82151	15604.9
1296.34761	16130.4
1299.87133	16935.4
1303.39266	18136.9
1306.9116	19861
1310.42815	21883.8
1313.94233	23228.3
1317.45412	23112.4
1320.96354	21905.9
1324.47058	20408.9
1327.97525	19152.9
1331.47754	18270.9
1334.97747	17883.6
1338.47502	17924.3
1341.97022	18107.5
1345.46305	18335.6
1348.95352	18800.8
1352.44163	19669.6
1355.92738	21136.7
1359.41078	23607.1
1362.89183	26204.4
1366.37053	26026.6
1369.84688	22588.8
1373.32088	18932
1376.79254	16474.8
1380.26186	15323
1383.72883	14841.5
1387.19347	14561.4
1390.65578	14192.2
1394.11575	13969.4
1397.57339	13956.2
1401.0287	14142.1
1404.48168	14445.1
1407.93234	14607.7
1411.38068	14688.4
1414.82669	14588.9
1418.27039	14265.1
1421.71177	13858.8
1425.15083	13473
1428.58758	13251.8
1432.02203	13236.2
1435.45416	13372
1438.88399	13498.1
1442.31151	13592.7
1445.73673	13665.8
1449.15965	13808.6
1452.58027	13873.6
1455.9986	13827
1459.41463	13833.9
1462.82837	13935.4
1466.23982	14235.1
1469.64898	14534.8
1473.05586	14751.6
1476.46045	14835.4
1479.86276	14938.4
1483.26279	15038.2
1486.66054	15207.7
1490.05602	15440.5
1493.44922	15778.4
1496.84016	16297.9
1500.22882	17163.8
1503.61521	18544.5
1506.99934	20330.2
1510.38121	22248.3
1513.76081	23290.9
1517.13816	22491.7
1520.51324	20242.6
1523.88607	17827.2
1527.25665	16167.2
1530.62498	15218.4
1533.99105	14728.2
1537.35488	14446.1
1540.71647	14301.4
1544.07581	14188.3
1547.4329	14139.4
1550.78776	14066.9
1554.14038	14020.8
1557.49077	14142.1
1560.83892	14289.1
1564.18484	14496
1567.52853	14771.2
1570.86999	15041.9
1574.20922	15211.3
1577.54624	15282.6
1580.88103	14814.6
1584.2136	14235.9
1587.54395	13954.3
1590.87208	14195.9
1594.19801	14950
1597.52172	15988.4
1600.84321	16579.6
1604.16251	16196.9
1607.47959	15162
1610.79447	13933.3
1614.10715	12783.5
1617.41763	11893.7
1620.7259	11325.9
1624.03199	11057.1
1627.33587	11063.2
1630.63757	11310.4
1633.93707	11793.3
1637.23439	12621.3
1640.52951	13783.3
1643.82246	15298.9
1647.11321	16967.4
1650.40179	18045.5
1653.68819	17607.3
1656.97241	15468.1
1660.25446	13126.9
1663.53433	11433
1666.81203	10462.4
1670.08756	9913.6
1673.36092	9558.6
1676.63211	9337.5
1679.90115	9214.2
1683.16801	9069.6
1686.43272	8965.9
1689.69527	8917
1692.95567	8857.7
1696.2139	8770
1699.46999	8715.7
1702.72392	8675.2
1705.97571	8685.7
1709.22535	8710.7
1712.47284	8742.8
1715.71819	8758.4
1718.96139	8759.7
1722.20246	8733.1
1725.44139	8724.8
1728.67818	8691
1731.91284	8632.7
1735.14537	8567.4
1738.37576	8533.8
1741.60403	8531.6
1744.83017	8462.9
1748.05418	8444.2
1751.27607	8468.6
1754.49584	8443.8
1757.71349	8404.8
1760.92903	8367.7
1764.14244	8339.9
1767.35375	8329.2
1770.56294	8317.6
1773.77002	8295.7
1776.97499	8319.7
1780.17785	8305.6
1783.37861	8294.9
1786.57727	8269.4
1789.77382	8285
1792.96828	8275.7
1796.16064	8247.3
1799.3509	8235.2
1802.53907	8221.3
1805.72514	8195.5
1808.90913	8203.3
1812.09102	8175.5
1815.27083	8151.1
1818.44856	8147.7
1821.6242	8109.1
1824.79776	8101.3
1827.96924	8089.3
1831.13864	8075.1
1834.30597	8084.3
1837.47122	8068.8
1840.6344	8055.3
1843.7955	8062.7
1846.95454	8043.2
1850.11151	8051.3
1853.26642	8062.5
1856.41926	8035.5
1859.57004	8086.9
1862.71876	8075.8
1865.86542	8054.5
1869.01003	8074.1
1872.15258	8052.2
1875.29308	8051.2
1878.43152	8046.1
1881.56792	8034.5
1884.70227	8053
1887.83457	8050.8
1890.96482	8012.7
1894.09304	8028.3
1897.21921	8014.2
1900.34335	8031.4
1903.46544	8013
1906.58551	8024.1
1909.70353	8026.7
1912.81953	8039.3
1915.93349	8002.1
1919.04543	7992.7
1922.15534	7985.8
1925.26322	7981.3
1928.36908	7965.7
1931.47292	7919
1934.57473	7893.5
1937.67453	7882.8
1940.77232	7854.5
1943.86808	7824.6
1946.96184	7786.9
1950.05358	7763.6
1953.14331	7740.1
1956.23103	7710.3
1959.31675	7688.3
1962.40046	7687.8
1965.48217	7658.3
1968.56188	7623.1
1971.63959	7617.8
1974.7153	7588.7
1977.78901	7572.5
1980.86073	7552.1
1983.93046	7517.3
1986.99819	7477.7
1990.06394	7476
1993.1277	7447.3
1996.18947	7429.9
1999.24925	7403.2
2002.30706	7377.8
2005.36288	7370.7
2008.41672	7339.2
2011.46859	7317.6
2014.51848	7315.3
2017.56639	7297.3
2020.61233	7250.1
2023.6563	7266.1
2026.6983	7246.1
2029.73833	7220.6
2032.7764	7214
2035.8125	7199.1
2038.84664	7170.5
2041.87881	7158
2044.90903	7158.2
2047.93729	7142.5
2050.96359	7125.9
2053.98794	7117.1
2057.01034	7101.5
2060.03078	7112.4
2063.04927	7102.8
2066.06582	7090.1
2069.08042	7096.6
2072.09307	7077.9
2075.10378	7079.5
2078.11255	7067.3
2081.11938	7072.5
2084.12426	7059.7
2087.12722	7073.3
2090.12824	7067.1
2093.12732	7052.4
2096.12447	7062.3
2099.11969	7065
2102.11299	7058.2
2105.10435	7061.1
2108.09379	7066.3
2111.08131	7059.1
2114.0669	7081.2
2117.05057	7087.3
2120.03233	7088.3
2123.01216	7074.3
2125.99008	7080.3
2128.96609	7088.8
2131.94018	7088.7
2134.91236	7112.4
2137.88263	7101.9
2140.851	7125.6
2143.81746	7107.1
2146.78201	7106.9
2149.74466	7119.5
2152.7054	7113.4
2155.66425	7096.4
2158.6212	7101.5
2161.57625	7085.9
2164.52941	7107.5
2167.48067	7098.1
2170.43004	7103.6
2173.37752	7103.3
2176.32311	7109.3
2179.26681	7102.2
2182.20863	7078.2
2185.14856	7105.1
2188.08661	7101.5
2191.02278	7112.4
2193.95707	7079.8
2196.88948	7080.9
2199.82001	7064.5
2202.74867	7045.1
2205.67545	7084.3
2208.60037	7079.6
2211.52341	7045.7
2214.44458	7047.5
2217.36388	7044.1
2220.28132	7025.6
2223.1969	7016
2226.11061	7013.4
2229.02246	6985.4
2231.93245	6963.9
2234.84058	6951
2237.74686	6935.6
2240.65128	6937.9
2243.55385	6926.5
2246.45456	6919
2249.35343	6898.7
2252.25044	6885.3
2255.14561	6889.5
2258.03893	6905.4
2260.93041	6890.7
2263.82004	6869.6
2266.70783	6829.1
2269.59378	6820.7
2272.4779	6820.8
2275.36017	6816.5
2278.24061	6806.3
2281.11922	6771.8
2283.996	6761.8
2286.87094	6770
2289.74405	6741.7
2292.61534	6739.3
2295.4848	6719.6
2298.35243	6732.8
2301.21824	6735.5
2304.08223	6723.7
2306.94439	6729.3
2309.80474	6743.1
2312.66327	6729.8
2315.51999	6714.5
2318.37489	6725.9
2321.22797	6711.1
2324.07925	6698.6
2326.92871	6686.8
2329.77637	6676.9
2332.62222	6682.5
2335.46626	6677
2338.3085	6681.2
2341.14893	6665.9
2343.98756	6682.8
2346.8244	6678.9
2349.65943	6677.6
2352.49267	6661.4
2355.32411	6672.1
2358.15376	6666.6
2360.98161	6678.5
2363.80768	6691.3
2366.63195	6703.6
2369.45444	6658.3
2372.27514	6657
2375.09405	6671.1
2377.91118	6646.3
2380.72652	6625.6
2383.54009	6586.2
2386.35187	6585.9
2389.16188	6550.9
2391.97011	6540.9
2394.77657	6533.8
2397.58125	6516.5
2400.38416	6506.7
2403.18529	6483.5
2405.98466	6469.6
2408.78226	6465.2
2411.57809	6466.8
2414.37216	6451.8
2417.16446	6432.3
2419.955	6424.9
2422.74378	6436.2
2425.5308	6447.7
2428.31606	6438.7
2431.09956	6436
2433.88131	6410.3
2436.6613	6425.8
2439.43954	6437.2
2442.21603	6396.7
2444.99077	6398.3
2447.76377	6404
2450.53501	6391
2453.30451	6411.2
2456.07226	6403.9
2458.83827	6406.6
2461.60254	6398.1
2464.36507	6386.2
2467.12586	6370.2
2469.88492	6389.1
2472.64224	6380.1
2475.39782	6387.2
2478.15167	6370.2
2480.90379	6379.5
2483.65417	6415.3
2486.40283	6390.3
2489.14976	6407.4
2491.89497	6414.5
2494.63845	6409
2497.3802	6412.9
2500.12024	6406.7
2502.85855	6380.2
2505.59514	6375.3
2508.33002	6371.8
2511.06318	6360.8
2513.79462	6353.5
2516.52435	6326.1
2519.25237	6316.8
2521.97867	6288.3
2524.70327	6311.5
2527.42616	6279.3
2530.14734	6277
2532.86681	6266.3
2535.58458	6280.1
2538.30065	6263.9
2541.01501	6274.3
2543.72768	6268.2
2546.43864	6256.8
2549.14791	6237.3
2551.85548	6225
2554.56136	6236
2557.26554	6219.5
2559.96803	6219.6
2562.66883	6192.9
2565.36794	6190.5
2568.06536	6196.2
2570.7611	6193.5
2573.45514	6178.6
2576.14751	6176.3
2578.83819	6159.1
2581.52719	6167.9
2584.21451	6161.7
2586.90015	6135.6
2589.58411	6136.8
2592.2664	6149.3
2594.94701	6114.6
2597.62594	6105.5
2600.30321	6111.6
2602.9788	6095.5
2605.65273	6094.8
2608.32498	6097.2
2610.99557	6101.6
2613.66449	6102.8
2616.33175	6082.6
2618.99734	6091.8
2621.66128	6092.1
2624.32355	6093.4
2626.98416	6087.9
2629.64311	6075
2632.30041	6084.8
2634.95605	6048.6
2637.61004	6046.9
2640.26238	6035.9
2642.91306	6039.5
2645.56209	6017.8
2648.20948	6035.5
2650.85521	6011.1
2653.4993	6016.3
2656.14175	6025.6
2658.78255	6025.9
2661.42171	6025.4
2664.05923	6050.7
2666.6951	6046.3
2669.32934	6056.7
2671.96194	6045.4
2674.59291	6037.7
2677.22224	6041.4
2679.84993	6045.1
2682.476	6038.2
2685.10043	6024.8
2687.72324	6011
2690.34441	6016.6
2692.96396	6025
2695.58188	6040.1
2698.19818	6012.8
2700.81285	6028.2
2703.4259	6031.9
2706.03733	6009.2
2708.64714	6000.2
2711.25533	6034.8
2713.86191	6037.2
2716.46687	6028.4
2719.07021	6035.4
2721.67194	6037.3
2724.27206	6046.9
2726.87057	6051.5
2729.46747	6052.6
2732.06276	6051.6
2734.65644	6044.6
2737.24852	6030
2739.83899	6037.1
2742.42786	6034.2
2745.01513	6007.3
2747.60079	6001
2750.18486	6007.5
2752.76733	5996
2755.3482	5983.5
2757.92747	5995.3
2760.50515	5971.7
2763.08123	5989.7
2765.65573	5967.9
2768.22863	5975.2
2770.79994	5977.3
2773.36967	5953.3
2775.9378	5970.1
2778.50435	5961.7
2781.06932	5940.6
2783.6327	5964.2
2786.1945	5941.4
2788.75471	5954.4
2791.31335	5931.1
2793.87041	5924.6
2796.42589	5916
2798.97979	5921.9
2801.53212	5915.4
2804.08288	5913.4
2806.63206	5885.7
2809.17967	5886.2
2811.72571	5875.1
2814.27018	5853.8
2816.81308	5874
2819.35442	5881.7
2821.89419	5861.2
2824.43239	5877.5
2826.96904	5884
2829.50412	5869.6
2832.03763	5868.7
2834.56959	5861.7
2837.1	5879.8
2839.62884	5888.5
2842.15613	5913.8
2844.68186	5974.5
2847.20604	6006.8
2849.72867	6026.1
2852.24974	6010.8
2854.76927	6016.8
2857.28724	5997.7
2859.80367	5992.7
2862.31855	5974.3
2864.83189	5978.4
2867.34368	5961.3
2869.85393	5964.1
2872.36264	5965.9
2874.8698	5979.4
2877.37543	5944.9
2879.87952	5965.8
2882.38207	5957.9
2884.88308	5974.1
2887.38256	5966.9
2889.88051	5955.3
2892.37692	5964.6
2894.8718	5967.3
2897.36515	5994.4
2899.85698	5976
2902.34727	6000
2904.83604	6006.9
2907.32328	6007.2
2909.809	6012.2
2912.29319	6019
2914.77587	6033.2
2917.25702	6015.7
2919.73665	6001.1
2922.21476	5998.7
2924.69136	5989.6
2927.16644	6005.1
2929.64	5997.2
2932.11205	6014.3
2934.58258	5979.8
2937.05161	5982.4
2939.51912	5973.5
2941.98513	5931.4
2944.44962	5912.7
2946.91261	5871.9
2949.37409	5850
2951.83407	5860
2954.29254	5850.7
2956.74951	5823.4
2959.20498	5827.9
2961.65895	5786.5
2964.11142	5807
2966.56239	5771.8
2969.01186	5765.5
2971.45984	5748
2973.90632	5733.2
2976.35131	5732.8
2978.7948	5713.3
2981.23681	5714.3
2983.67732	5681
2986.11635	5674.5
2988.55388	5664.5
2990.98993	5644
2993.4245	5624.4
2995.85758	5639.7
2998.28917	5626.9
3000.71928	5593.2
3003.14791	5587.3
3005.57506	5592.3
3008.00073	5590.6
3010.42493	5578.4
3012.84764	5559.8
3015.26888	5566.2
3017.68865	5556.3
3020.10694	5545.1
3022.52376	5530.8
3024.9391	5518.2
3027.35298	5522.8
3029.76539	5509.2
3032.17632	5515.8
3034.5858	5513.2
3036.9938	5502.4
3039.40034	5484.7
3041.80542	5502.5
3044.20903	5476.7
3046.61118	5477.9
3049.01187	5463.9
3051.4111	5456.1
3053.80888	5435.5
3056.20519	5465.4
3058.60005	5433.7
3060.99345	5411.3
3063.3854	5396
3065.7759	5397.2
3068.16494	5378.3
3070.55254	5381.6
3072.93868	5369.9
3075.32338	5349.8
3077.70662	5359.5
3080.08842	5333.2
3082.46878	5355
3084.84769	5325.6
3087.22515	5341.9
3089.60118	5342.4
3091.97576	5337.1
3094.3489	5344.5
3096.72061	5338.9
3099.09087	5354.6
3101.4597	5331.9
3103.82709	5348.4
3106.19305	5324.6
3108.55757	5352.3
3110.92066	5331.9
3113.28232	5305.6
3115.64255	5308
3118.00134	5300.8
3120.35871	5292.7
3122.71466	5295
3125.06917	5288.7
3127.42226	5282.8
3129.77393	5280.4
3132.12417	5297.5
3134.47299	5299.1
3136.82039	5300
3139.16636	5303.4
3141.51092	5315.5
3143.85406	5300
3146.19579	5310.8
3148.53609	5322.1
3150.87499	5321.2
3153.21246	5324
3155.54853	5341
3157.88318	5338.3
3160.21642	5355.7
3162.54826	5360
3164.87868	5351.6
3167.2077	5352.5
3169.5353	5378.3
3171.86151	5360.4
3174.18631	5376.7
3176.5097	5364.3
3178.83169	5370.6
3181.15228	5359.8
3183.47147	5362.7
3185.78926	5369.2
3188.10565	5358.4
3190.42065	5353.1
3192.73424	5349.1
3195.04645	5365.7
3197.35725	5364
3199.66667	5374.1
3201.97469	5360.5
3204.28132	5369.5
3206.58656	5365.5
3208.8904	5377.3
3211.19287	5383.8
3213.49394	5381.7
3215.79363	5395.8
3218.09193	5403
3220.38884	5420.7
3222.68438	5405.5
3224.97853	5394
3227.2713	5397.7
3229.56269	5410
3231.8527	5407.9
3234.14133	5391.5
3236.42858	5381
3238.71446	5372
3240.99896	5366.9
3243.28209	5378.1
3245.56384	5359
3247.84423	5370.1
3250.12324	5358.5
3252.40088	5358
3254.67715	5363.2
3256.95205	5359.2
3259.22558	5353.7
3261.49775	5349.7
3263.76855	5347.1
3266.03799	5336.2
3268.30606	5328.6
3270.57277	5324
3272.83812	5316.2
3275.10211	5299.1
3277.36474	5280.3
3279.62601	5301.4
3281.88593	5279.8
3284.14448	5295.6
3286.40168	5289.1
3288.65753	5305.4
3290.91202	5305.3
3293.16516	5278.7
3295.41695	5254
3297.66738	5228.4
3299.91647	5217.5
3302.16421	5195.4
3304.4106	5156
3306.65564	5132.7
3308.89933	5103.1
3311.14169	5062.8
3313.38269	5046.7
3315.62236	5020.1
3317.86068	4973.9
3320.09766	4940.3
3322.3333	4914.4
3324.5676	4897.6
3326.80056	4809
3329.03219	4776.8
3331.26248	1
3333.49143	1.5
3335.71905	-0.1
