Data from AgNPs_FTO_APTES_UA_1uM_CRN_10uM_R6G_20uM_NaF_0.1M_Addition_RamanShift__26__15-28-09-703.txt Node

Date: Thu Jan 27 15:28:09 GMT 2022
User: TCL
Spectrometer: QEP01345
Trigger mode: 4
Integration Time (sec): 7.000000E0
Scans to average: 10
Electric dark correction enabled: true
Nonlinearity correction enabled: false
Boxcar width: 0
XAxis mode: Raman Shifts
Number of Pixels in Spectrum: 1044
>>>>>Begin Spectral Data<<<<<
46.04893	0.9625
50.45542	0.7625
54.85868	-1.5375
59.25871	-1.6375
63.6555	44.9625
68.04907	47.5625
72.43941	46.9625
76.82654	54.8625
81.21044	52.5625
85.59113	53.9625
89.96862	57.5625
94.34289	57.8625
98.71396	65.1625
103.08183	64.3625
107.4465	68.1625
111.80798	67.1625
116.16626	67.0625
120.52136	73.0625
124.87327	72.0625
129.222	70.4625
133.56755	74.8625
137.90993	75.2625
142.24913	82.0625
146.58517	93.9625
150.91804	106.3625
155.24774	120.1625
159.57429	141.9625
163.89768	177.5625
168.21792	231.5625
172.53501	310.6625
176.84895	426.2625
181.15975	586.0625
185.46741	820.4625
189.77193	1110.3625
194.07331	1502.6625
198.37157	1931.0625
202.6667	2391.2625
206.9587	2832.6625
211.24758	3290.8625
215.53334	3733.5625
219.81599	4229.8625
224.09553	4780.5625
228.37195	5401.1625
232.64527	6082.9625
236.91549	6787.0625
241.18261	7445.2625
245.44663	8015.8625
249.70755	8513.1625
253.96539	8966.4625
258.22014	9343.0625
262.4718	9711.9625
266.72039	9976.4625
270.96589	10126.0625
275.20832	10177.4625
279.44768	10163.8625
283.68397	10123.0625
287.91719	10049.5625
292.14735	10071.0625
296.37445	10155.8625
300.59849	10363.3625
304.81948	10593.6625
309.03742	10710.5625
313.25231	10593.3625
317.46415	10188.4625
321.67296	9600.6625
325.87872	9143.3625
330.08145	8912.1625
334.28114	8881.1625
338.47781	9001.7625
342.67145	9181.1625
346.86207	9493.5625
351.04966	9899.3625
355.23424	10321.5625
359.4158	10658.7625
363.59435	10842.0625
367.76989	10927.1625
371.94243	10953.0625
376.11196	10956.9625
380.27849	10935.0625
384.44203	10890.5625
388.60257	10847.1625
392.76012	10869.3625
396.91468	10976.6625
401.06626	11201.4625
405.21485	11392.0625
409.36047	11292.3625
413.50311	10908.8625
417.64277	10565.4625
421.77947	10393.1625
425.9132	10356.0625
430.04396	10369.4625
434.17176	10425.0625
438.2966	10558.6625
442.41849	10733.6625
446.53742	11015.8625
450.6534	11322.2625
454.76644	11584.9625
458.87653	11662.6625
462.98368	11632.2625
467.08789	11462.8625
471.18916	11322.8625
475.2875	11101.1625
479.38291	10954.0625
483.4754	10800.9625
487.56496	10680.6625
491.6516	10526.4625
495.73531	10453.3625
499.81612	10451.1625
503.89401	10528.7625
507.96899	10587.0625
512.04106	10616.7625
516.11023	10673.7625
520.1765	10712.2625
524.23987	10680.7625
528.30034	10496.9625
532.35792	10349.3625
536.41261	10196.4625
540.46441	10049.9625
544.51333	9996.1625
548.55936	10145.8625
552.60252	10351.5625
556.64279	10637.3625
560.6802	10733.4625
564.71473	10853.0625
568.7464	11113.4625
572.7752	11375.7625
576.80114	11319.8625
580.82422	11166.9625
584.84444	11109.5625
588.86181	11130.7625
592.87633	11156.1625
596.888	11248.3625
600.89682	11491.6625
604.9028	12332.9625
608.90594	14452.8625
612.90624	17188.8625
616.90371	16608.2625
620.89834	12768.5625
624.89015	10922.4625
628.87913	10632.2625
632.86528	10658.5625
636.84862	10646.1625
640.82913	10510.1625
644.80683	10150.3625
648.78172	9916.1625
652.75379	9917.3625
656.72306	10187.1625
660.68952	10537.3625
664.65319	10483.2625
668.61405	10169.8625
672.57211	10015.0625
676.52738	10006.0625
680.47986	9987.2625
684.42955	9975.9625
688.37646	9913.6625
692.32058	9946.4625
696.26192	10054.3625
700.20048	10158.6625
704.13626	10236.1625
708.06928	10245.5625
711.99952	10121.3625
715.927	10100.2625
719.85171	10098.5625
723.77365	10097.7625
727.69284	9996.1625
731.60928	9920.5625
735.52295	9885.7625
739.43388	9928.0625
743.34206	9977.7625
747.24749	10020.2625
751.15017	10126.4625
755.05012	10316.5625
758.94733	10692.4625
762.8418	11464.8625
766.73354	12793.1625
770.62254	14151.2625
774.50882	14757.6625
778.39237	14065.4625
782.27321	12612.0625
786.15132	11292.1625
790.02671	10531.6625
793.89938	10171.7625
797.76935	10018.7625
801.6366	9953.2625
805.50115	9903.3625
809.36299	9877.0625
813.22213	9824.8625
817.07857	9810.6625
820.93231	9815.1625
824.78336	9830.0625
828.63172	9863.6625
832.47738	9873.1625
836.32036	9876.4625
840.16066	9896.6625
843.99827	9862.7625
847.8332	9841.2625
851.66546	9796.8625
855.49504	9780.3625
859.32195	9785.0625
863.1462	9728.3625
866.96777	9694.4625
870.78668	9655.8625
874.60293	9688.2625
878.41652	9666.3625
882.22745	9735.7625
886.03573	9793.3625
889.84136	9745.3625
893.64433	9719.9625
897.44466	9667.6625
901.24235	9689.6625
905.0374	9665.2625
908.8298	9648.3625
912.61957	9650.2625
916.40671	9754.4625
920.19121	9850.7625
923.97308	9947.3625
927.75233	9992.2625
931.52895	10049.8625
935.30295	9945.5625
939.07433	9728.1625
942.84309	9560.5625
946.60924	9450.9625
950.37278	9389.6625
954.13371	9358.3625
957.89203	9291.2625
961.64774	9258.7625
965.40086	9255.4625
969.15137	9205.6625
972.89929	9181.5625
976.64461	9152.8625
980.38733	9172.9625
984.12747	9194.4625
987.86502	9243.5625
991.59999	9351.2625
995.33237	9514.8625
999.06217	9748.2625
1002.78939	10045.9625
1006.51404	10286.4625
1010.23611	10455.1625
1013.95561	10590.5625
1017.67255	10617.8625
1021.38692	10530.2625
1025.09872	10417.9625
1028.80796	10455.1625
1032.51465	10627.0625
1036.21877	10836.6625
1039.92035	10857.7625
1043.61937	10737.8625
1047.31584	10522.9625
1051.00976	10308.4625
1054.70114	10192.3625
1058.38998	10210.8625
1062.07627	10226.0625
1065.76003	10307.4625
1069.44126	10361.4625
1073.11995	10432.3625
1076.79611	10525.1625
1080.46974	10598.5625
1084.14085	10734.1625
1087.80943	10880.9625
1091.47549	10952.8625
1095.13903	10899.2625
1098.80005	10656.2625
1102.45857	10406.4625
1106.11456	10254.8625
1109.76805	10260.0625
1113.41903	10364.1625
1117.06751	10571.4625
1120.71348	10823.2625
1124.35696	11070.4625
1127.99793	11298.4625
1131.63641	11336.6625
1135.2724	11081.7625
1138.90589	10779.7625
1142.5369	10625.6625
1146.16542	10509.5625
1149.79145	10468.3625
1153.415	10468.6625
1157.03607	10585.0625
1160.65467	10770.9625
1164.27079	11121.6625
1167.88443	11579.5625
1171.49561	12328.4625
1175.10432	13455.9625
1178.71056	14956.1625
1182.31434	16169.7625
1185.91565	16682.1625
1189.51451	16568.6625
1193.11091	15910.8625
1196.70485	14994.5625
1200.29634	14145.6625
1203.88538	13550.3625
1207.47197	12925.7625
1211.05612	12404.3625
1214.63782	12166.6625
1218.21708	12078.5625
1221.79391	12085.5625
1225.36829	12155.8625
1228.94024	12187.8625
1232.50976	12168.6625
1236.07685	12122.8625
1239.6415	12073.9625
1243.20374	12050.5625
1246.76355	12090.7625
1250.32093	12240.6625
1253.8759	12477.9625
1257.42845	12855.3625
1260.97859	13174.3625
1264.52631	13449.3625
1268.07163	13748.4625
1271.61453	14051.8625
1275.15503	14418.2625
1278.69312	14714.4625
1282.22882	14965.2625
1285.76211	15218.3625
1289.29301	15554.3625
1292.82151	15962.1625
1296.34761	16438.2625
1299.87133	17094.5625
1303.39266	18139.0625
1306.9116	19571.8625
1310.42815	21279.9625
1313.94233	22472.2625
1317.45412	22559.5625
1320.96354	21786.5625
1324.47058	20785.4625
1327.97525	19925.2625
1331.47754	19301.5625
1334.97747	19101.7625
1338.47502	19146.7625
1341.97022	19373.5625
1345.46305	19561.0625
1348.95352	19697.1625
1352.44163	19987.8625
1355.92738	20756.6625
1359.41078	22379.7625
1362.89183	24270.0625
1366.37053	24023.5625
1369.84688	21357.8625
1373.32088	18463.0625
1376.79254	16585.5625
1380.26186	15695.5625
1383.72883	15327.7625
1387.19347	15076.9625
1390.65578	14811.0625
1394.11575	14649.5625
1397.57339	14670.1625
1401.0287	14894.2625
1404.48168	15217.0625
1407.93234	15494.8625
1411.38068	15618.2625
1414.82669	15477.1625
1418.27039	15067.4625
1421.71177	14594.2625
1425.15083	14158.1625
1428.58758	13876.7625
1432.02203	13790.0625
1435.45416	13871.0625
1438.88399	14011.4625
1442.31151	14112.4625
1445.73673	14211.3625
1449.15965	14366.7625
1452.58027	14437.7625
1455.9986	14420.1625
1459.41463	14451.0625
1462.82837	14576.2625
1466.23982	14822.1625
1469.64898	15076.0625
1473.05586	15279.2625
1476.46045	15354.7625
1479.86276	15445.6625
1483.26279	15583.4625
1486.66054	15721.1625
1490.05602	15989.5625
1493.44922	16354.7625
1496.84016	16838.1625
1500.22882	17502.1625
1503.61521	18493.5625
1506.99934	19774.7625
1510.38121	21156.4625
1513.76081	22041.7625
1517.13816	21611.1625
1520.51324	20046.8625
1523.88607	18310.0625
1527.25665	17021.7625
1530.62498	16238.0625
1533.99105	15758.6625
1537.35488	15460.4625
1540.71647	15261.3625
1544.07581	15125.6625
1547.4329	15003.3625
1550.78776	14869.4625
1554.14038	14842.5625
1557.49077	14912.1625
1560.83892	15029.5625
1564.18484	15255.1625
1567.52853	15329.1625
1570.86999	15423.0625
1574.20922	15529.6625
1577.54624	15488.5625
1580.88103	15188.6625
1584.2136	14830.7625
1587.54395	14779.8625
1590.87208	15215.5625
1594.19801	16069.8625
1597.52172	17066.1625
1600.84321	17505.6625
1604.16251	16985.2625
1607.47959	15912.6625
1610.79447	14720.4625
1614.10715	13626.8625
1617.41763	12745.5625
1620.7259	12105.8625
1624.03199	11803.4625
1627.33587	11796.8625
1630.63757	12068.6625
1633.93707	12675.9625
1637.23439	13497.5625
1640.52951	14603.2625
1643.82246	15845.4625
1647.11321	17030.3625
1650.40179	17710.6625
1653.68819	17195.0625
1656.97241	15399.5625
1660.25446	13317.5625
1663.53433	11780.0625
1666.81203	10807.3625
1670.08756	10216.7625
1673.36092	9871.5625
1676.63211	9671.4625
1679.90115	9514.9625
1683.16801	9379.6625
1686.43272	9290.9625
1689.69527	9215.3625
1692.95567	9136.2625
1696.2139	9085.3625
1699.46999	9023.4625
1702.72392	8987.5625
1705.97571	8991.0625
1709.22535	9017.7625
1712.47284	9026.9625
1715.71819	9073.4625
1718.96139	9071.6625
1722.20246	9063.7625
1725.44139	9035.3625
1728.67818	8996.1625
1731.91284	8930.5625
1735.14537	8905.3625
1738.37576	8858.5625
1741.60403	8821.8625
1744.83017	8798.4625
1748.05418	8760.6625
1751.27607	8749.9625
1754.49584	8722.7625
1757.71349	8719.5625
1760.92903	8666.9625
1764.14244	8674.0625
1767.35375	8663.8625
1770.56294	8655.2625
1773.77002	8644.4625
1776.97499	8660.5625
1780.17785	8651.4625
1783.37861	8677.1625
1786.57727	8649.7625
1789.77382	8670.2625
1792.96828	8646.5625
1796.16064	8644.4625
1799.3509	8643.0625
1802.53907	8612.5625
1805.72514	8620.3625
1808.90913	8585.3625
1812.09102	8577.4625
1815.27083	8546.6625
1818.44856	8553.1625
1821.6242	8538.2625
1824.79776	8509.0625
1827.96924	8515.1625
1831.13864	8512.9625
1834.30597	8512.3625
1837.47122	8513.7625
1840.6344	8517.7625
1843.7955	8521.9625
1846.95454	8502.4625
1850.11151	8504.9625
1853.26642	8506.1625
1856.41926	8526.5625
1859.57004	8542.9625
1862.71876	8544.4625
1865.86542	8529.0625
1869.01003	8555.9625
1872.15258	8532.8625
1875.29308	8543.4625
1878.43152	8550.0625
1881.56792	8568.4625
1884.70227	8531.6625
1887.83457	8539.3625
1890.96482	8545.9625
1894.09304	8553.0625
1897.21921	8542.1625
1900.34335	8564.7625
1903.46544	8554.5625
1906.58551	8570.8625
1909.70353	8567.8625
1912.81953	8548.0625
1915.93349	8558.2625
1919.04543	8552.7625
1922.15534	8548.9625
1925.26322	8504.7625
1928.36908	8513.0625
1931.47292	8482.9625
1934.57473	8425.0625
1937.67453	8424.5625
1940.77232	8386.9625
1943.86808	8340.0625
1946.96184	8310.8625
1950.05358	8282.3625
1953.14331	8239.3625
1956.23103	8201.6625
1959.31675	8183.0625
1962.40046	8146.1625
1965.48217	8142.5625
1968.56188	8124.1625
1971.63959	8092.1625
1974.7153	8087.2625
1977.78901	8063.0625
1980.86073	8026.2625
1983.93046	7999.8625
1986.99819	7976.1625
1990.06394	7948.2625
1993.1277	7923.5625
1996.18947	7912.6625
1999.24925	7878.8625
2002.30706	7862.4625
2005.36288	7853.6625
2008.41672	7821.3625
2011.46859	7802.6625
2014.51848	7795.5625
2017.56639	7755.6625
2020.61233	7747.0625
2023.6563	7739.5625
2026.6983	7727.0625
2029.73833	7701.7625
2032.7764	7693.2625
2035.8125	7668.8625
2038.84664	7657.2625
2041.87881	7647.3625
2044.90903	7629.2625
2047.93729	7604.8625
2050.96359	7596.5625
2053.98794	7596.2625
2057.01034	7595.7625
2060.03078	7575.6625
2063.04927	7602.1625
2066.06582	7583.5625
2069.08042	7571.5625
2072.09307	7579.6625
2075.10378	7570.4625
2078.11255	7527.4625
2081.11938	7541.9625
2084.12426	7539.6625
2087.12722	7530.7625
2090.12824	7524.5625
2093.12732	7556.6625
2096.12447	7542.4625
2099.11969	7525.5625
2102.11299	7533.6625
2105.10435	7549.4625
2108.09379	7557.3625
2111.08131	7539.4625
2114.0669	7551.4625
2117.05057	7570.6625
2120.03233	7549.6625
2123.01216	7583.0625
2125.99008	7579.6625
2128.96609	7581.7625
2131.94018	7590.8625
2134.91236	7596.0625
2137.88263	7603.2625
2140.851	7598.4625
2143.81746	7606.7625
2146.78201	7618.6625
2149.74466	7636.6625
2152.7054	7636.8625
2155.66425	7599.0625
2158.6212	7625.0625
2161.57625	7589.8625
2164.52941	7595.5625
2167.48067	7602.8625
2170.43004	7610.3625
2173.37752	7587.7625
2176.32311	7583.2625
2179.26681	7608.5625
2182.20863	7599.7625
2185.14856	7596.0625
2188.08661	7617.5625
2191.02278	7622.4625
2193.95707	7595.2625
2196.88948	7591.7625
2199.82001	7605.7625
2202.74867	7590.8625
2205.67545	7588.2625
2208.60037	7577.7625
2211.52341	7560.4625
2214.44458	7577.6625
2217.36388	7547.4625
2220.28132	7547.4625
2223.1969	7532.8625
2226.11061	7528.9625
2229.02246	7519.5625
2231.93245	7499.2625
2234.84058	7475.0625
2237.74686	7482.7625
2240.65128	7463.4625
2243.55385	7446.5625
2246.45456	7437.6625
2249.35343	7441.4625
2252.25044	7435.1625
2255.14561	7408.9625
2258.03893	7405.4625
2260.93041	7411.9625
2263.82004	7381.6625
2266.70783	7370.0625
2269.59378	7348.4625
2272.4779	7343.6625
2275.36017	7328.9625
2278.24061	7306.0625
2281.11922	7302.5625
2283.996	7306.5625
2286.87094	7276.6625
2289.74405	7266.1625
2292.61534	7245.3625
2295.4848	7245.5625
2298.35243	7250.7625
2301.21824	7252.0625
2304.08223	7254.0625
2306.94439	7253.4625
2309.80474	7254.1625
2312.66327	7281.6625
2315.51999	7271.2625
2318.37489	7261.5625
2321.22797	7247.5625
2324.07925	7250.6625
2326.92871	7240.0625
2329.77637	7245.5625
2332.62222	7219.8625
2335.46626	7238.5625
2338.3085	7206.5625
2341.14893	7217.1625
2343.98756	7232.7625
2346.8244	7235.3625
2349.65943	7237.2625
2352.49267	7234.1625
2355.32411	7230.2625
2358.15376	7220.9625
2360.98161	7235.2625
2363.80768	7228.1625
2366.63195	7215.7625
2369.45444	7226.2625
2372.27514	7191.0625
2375.09405	7194.9625
2377.91118	7164.5625
2380.72652	7138.0625
2383.54009	7117.1625
2386.35187	7128.2625
2389.16188	7086.5625
2391.97011	7076.4625
2394.77657	7083.3625
2397.58125	7072.8625
2400.38416	7060.7625
2403.18529	7050.2625
2405.98466	7023.0625
2408.78226	7017.7625
2411.57809	7007.6625
2414.37216	6985.2625
2417.16446	6986.6625
2419.955	6974.1625
2422.74378	6962.0625
2425.5308	6961.6625
2428.31606	6965.3625
2431.09956	6968.7625
2433.88131	6946.7625
2436.6613	6980.7625
2439.43954	6947.8625
2442.21603	6945.4625
2444.99077	6941.9625
2447.76377	6942.9625
2450.53501	6946.4625
2453.30451	6939.0625
2456.07226	6912.7625
2458.83827	6927.3625
2461.60254	6914.3625
2464.36507	6935.8625
2467.12586	6916.7625
2469.88492	6900.4625
2472.64224	6912.3625
2475.39782	6907.7625
2478.15167	6933.0625
2480.90379	6923.5625
2483.65417	6936.0625
2486.40283	6931.4625
2489.14976	6946.6625
2491.89497	6962.5625
2494.63845	6971.1625
2497.3802	6954.9625
2500.12024	6971.0625
2502.85855	6941.3625
2505.59514	6937.2625
2508.33002	6918.8625
2511.06318	6926.4625
2513.79462	6902.8625
2516.52435	6889.1625
2519.25237	6887.5625
2521.97867	6884.6625
2524.70327	6868.1625
2527.42616	6859.2625
2530.14734	6852.6625
2532.86681	6846.0625
2535.58458	6850.3625
2538.30065	6828.8625
2541.01501	6842.9625
2543.72768	6831.3625
2546.43864	6831.3625
2549.14791	6817.4625
2551.85548	6819.4625
2554.56136	6808.4625
2557.26554	6806.3625
2559.96803	6813.2625
2562.66883	6795.4625
2565.36794	6791.3625
2568.06536	6770.6625
2570.7611	6780.1625
2573.45514	6767.6625
2576.14751	6738.6625
2578.83819	6751.6625
2581.52719	6760.7625
2584.21451	6745.9625
2586.90015	6736.9625
2589.58411	6737.2625
2592.2664	6748.1625
2594.94701	6736.5625
2597.62594	6728.2625
2600.30321	6737.1625
2602.9788	6721.6625
2605.65273	6725.3625
2608.32498	6711.8625
2610.99557	6716.7625
2613.66449	6703.7625
2616.33175	6717.4625
2618.99734	6710.6625
2621.66128	6696.8625
2624.32355	6720.2625
2626.98416	6728.3625
2629.64311	6722.8625
2632.30041	6725.4625
2634.95605	6704.5625
2637.61004	6680.6625
2640.26238	6687.9625
2642.91306	6673.2625
2645.56209	6676.7625
2648.20948	6658.5625
2650.85521	6664.8625
2653.4993	6641.5625
2656.14175	6655.3625
2658.78255	6666.3625
2661.42171	6664.9625
2664.05923	6663.7625
2666.6951	6678.6625
2669.32934	6681.0625
2671.96194	6677.1625
2674.59291	6687.9625
2677.22224	6674.0625
2679.84993	6690.9625
2682.476	6677.8625
2685.10043	6670.6625
2687.72324	6657.6625
2690.34441	6681.4625
2692.96396	6673.8625
2695.58188	6661.1625
2698.19818	6670.7625
2700.81285	6668.2625
2703.4259	6661.2625
2706.03733	6634.5625
2708.64714	6637.1625
2711.25533	6666.9625
2713.86191	6672.9625
2716.46687	6681.1625
2719.07021	6695.1625
2721.67194	6674.6625
2724.27206	6691.8625
2726.87057	6705.9625
2729.46747	6714.0625
2732.06276	6688.7625
2734.65644	6695.3625
2737.24852	6685.4625
2739.83899	6688.4625
2742.42786	6692.1625
2745.01513	6684.8625
2747.60079	6679.5625
2750.18486	6665.4625
2752.76733	6677.3625
2755.3482	6655.4625
2757.92747	6684.4625
2760.50515	6674.9625
2763.08123	6652.7625
2765.65573	6653.0625
2768.22863	6624.2625
2770.79994	6623.6625
2773.36967	6638.2625
2775.9378	6648.2625
2778.50435	6644.1625
2781.06932	6638.7625
2783.6327	6622.3625
2786.1945	6633.0625
2788.75471	6608.4625
2791.31335	6607.7625
2793.87041	6605.5625
2796.42589	6560.7625
2798.97979	6597.8625
2801.53212	6581.9625
2804.08288	6563.9625
2806.63206	6544.3625
2809.17967	6519.9625
2811.72571	6526.3625
2814.27018	6524.2625
2816.81308	6510.7625
2819.35442	6511.4625
2821.89419	6518.0625
2824.43239	6524.7625
2826.96904	6514.0625
2829.50412	6501.1625
2832.03763	6516.1625
2834.56959	6497.5625
2837.1	6512.5625
2839.62884	6508.8625
2842.15613	6525.0625
2844.68186	6522.1625
2847.20604	6527.1625
2849.72867	6549.5625
2852.24974	6535.2625
2854.76927	6544.2625
2857.28724	6513.9625
2859.80367	6525.3625
2862.31855	6501.8625
2864.83189	6500.9625
2867.34368	6507.5625
2869.85393	6505.9625
2872.36264	6493.7625
2874.8698	6502.0625
2877.37543	6483.5625
2879.87952	6507.6625
2882.38207	6483.7625
2884.88308	6483.2625
2887.38256	6500.1625
2889.88051	6475.8625
2892.37692	6504.0625
2894.8718	6487.1625
2897.36515	6467.7625
2899.85698	6489.8625
2902.34727	6500.7625
2904.83604	6509.0625
2907.32328	6520.4625
2909.809	6516.4625
2912.29319	6519.8625
2914.77587	6520.1625
2917.25702	6536.3625
2919.73665	6508.0625
2922.21476	6511.8625
2924.69136	6511.3625
2927.16644	6534.0625
2929.64	6524.3625
2932.11205	6508.5625
2934.58258	6475.8625
2937.05161	6486.1625
2939.51912	6485.8625
2941.98513	6454.7625
2944.44962	6437.1625
2946.91261	6431.3625
2949.37409	6435.6625
2951.83407	6442.3625
2954.29254	6414.3625
2956.74951	6397.7625
2959.20498	6394.1625
2961.65895	6381.7625
2964.11142	6382.7625
2966.56239	6389.0625
2969.01186	6377.3625
2971.45984	6365.6625
2973.90632	6363.2625
2976.35131	6340.7625
2978.7948	6331.5625
2981.23681	6327.0625
2983.67732	6323.9625
2986.11635	6293.2625
2988.55388	6292.3625
2990.98993	6273.7625
2993.4245	6257.5625
2995.85758	6245.4625
2998.28917	6255.5625
3000.71928	6217.4625
3003.14791	6216.6625
3005.57506	6196.8625
3008.00073	6201.8625
3010.42493	6206.3625
3012.84764	6207.7625
3015.26888	6179.1625
3017.68865	6163.8625
3020.10694	6165.1625
3022.52376	6155.8625
3024.9391	6142.5625
3027.35298	6130.3625
3029.76539	6145.3625
3032.17632	6115.9625
3034.5858	6122.7625
3036.9938	6094.7625
3039.40034	6122.2625
3041.80542	6129.1625
3044.20903	6103.6625
3046.61118	6107.6625
3049.01187	6090.8625
3051.4111	6083.5625
3053.80888	6086.1625
3056.20519	6071.5625
3058.60005	6041.4625
3060.99345	6030.6625
3063.3854	6008.7625
3065.7759	6018.2625
3068.16494	5985.2625
3070.55254	5962.5625
3072.93868	5970.1625
3075.32338	5948.3625
3077.70662	5958.5625
3080.08842	5927.6625
3082.46878	5923.9625
3084.84769	5922.2625
3087.22515	5909.7625
3089.60118	5917.3625
3091.97576	5912.9625
3094.3489	5922.6625
3096.72061	5918.8625
3099.09087	5934.7625
3101.4597	5909.4625
3103.82709	5926.2625
3106.19305	5920.9625
3108.55757	5918.1625
3110.92066	5901.9625
3113.28232	5875.7625
3115.64255	5878.0625
3118.00134	5876.2625
3120.35871	5868.9625
3122.71466	5856.2625
3125.06917	5840.4625
3127.42226	5835.3625
3129.77393	5841.0625
3132.12417	5853.5625
3134.47299	5863.9625
3136.82039	5839.5625
3139.16636	5862.8625
3141.51092	5843.4625
3143.85406	5860.7625
3146.19579	5869.6625
3148.53609	5863.6625
3150.87499	5870.8625
3153.21246	5882.0625
3155.54853	5897.3625
3157.88318	5884.4625
3160.21642	5893.8625
3162.54826	5889.6625
3164.87868	5890.8625
3167.2077	5888.6625
3169.5353	5897.3625
3171.86151	5896.7625
3174.18631	5894.6625
3176.5097	5883.3625
3178.83169	5903.0625
3181.15228	5901.4625
3183.47147	5882.2625
3185.78926	5894.9625
3188.10565	5878.6625
3190.42065	5879.1625
3192.73424	5868.6625
3195.04645	5849.1625
3197.35725	5873.9625
3199.66667	5878.6625
3201.97469	5879.7625
3204.28132	5886.1625
3206.58656	5894.0625
3208.8904	5907.1625
3211.19287	5916.6625
3213.49394	5909.1625
3215.79363	5918.5625
3218.09193	5914.0625
3220.38884	5908.4625
3222.68438	5920.2625
3224.97853	5901.4625
3227.2713	5913.7625
3229.56269	5896.6625
3231.8527	5902.2625
3234.14133	5882.7625
3236.42858	5869.4625
3238.71446	5865.7625
3240.99896	5864.0625
3243.28209	5866.5625
3245.56384	5868.2625
3247.84423	5870.0625
3250.12324	5853.0625
3252.40088	5850.1625
3254.67715	5844.9625
3256.95205	5845.5625
3259.22558	5855.5625
3261.49775	5834.0625
3263.76855	5836.6625
3266.03799	5840.2625
3268.30606	5812.4625
3270.57277	5818.5625
3272.83812	5785.2625
3275.10211	5772.8625
3277.36474	5774.3625
3279.62601	5798.9625
3281.88593	5753.7625
3284.14448	5781.0625
3286.40168	5772.6625
3288.65753	5781.4625
3290.91202	5783.9625
3293.16516	5753.5625
3295.41695	5740.0625
3297.66738	5709.5625
3299.91647	5670.5625
3302.16421	5637.4625
3304.4106	5635.6625
3306.65564	5620.0625
3308.89933	5583.5625
3311.14169	5530.8625
3313.38269	5501.9625
3315.62236	5446.6625
3317.86068	5421.3625
3320.09766	5375.9625
3322.3333	5353.0625
3324.5676	5325.6625
3326.80056	5241.2625
3329.03219	5213.8625
3331.26248	2.3625
3333.49143	-0.1375
3335.71905	-0.7375
