Data from AgNPs_FTO_APTES_UA_1uM_CRN_10uM_R6G_50uM_NaF_0.1M_Addition_RamanShift__27__16-12-29-753.txt Node

Date: Thu Jan 27 16:12:29 GMT 2022
User: TCL
Spectrometer: QEP01345
Trigger mode: 4
Integration Time (sec): 7.000000E0
Scans to average: 10
Electric dark correction enabled: true
Nonlinearity correction enabled: false
Boxcar width: 0
XAxis mode: Raman Shifts
Number of Pixels in Spectrum: 1044
>>>>>Begin Spectral Data<<<<<
46.04893	1.4
50.45542	-0.2
54.85868	-1.7
59.25871	-1.7
63.6555	44.4
68.04907	46.9
72.43941	51.8
76.82654	50.3
81.21044	50.8
85.59113	54
89.96862	59.4
94.34289	58.3
98.71396	60.4
103.08183	57.6
107.4465	65.5
111.80798	65.9
116.16626	67
120.52136	73.7
124.87327	74.2
129.222	67.7
133.56755	75
137.90993	79.3
142.24913	90.6
146.58517	94.8
150.91804	106.3
155.24774	123.9
159.57429	147.7
163.89768	190.3
168.21792	246.3
172.53501	330
176.84895	459
181.15975	634.5
185.46741	880.8
189.77193	1222
194.07331	1625.7
198.37157	2085.2
202.6667	2595.1
206.9587	3078.1
211.24758	3575.6
215.53334	4070.3
219.81599	4578.5
224.09553	5206.6
228.37195	5867.7
232.64527	6594
236.91549	7335.7
241.18261	8062.2
245.44663	8704.6
249.70755	9289.2
253.96539	9760.4
258.22014	10199.4
262.4718	10574.4
266.72039	10884.1
270.96589	11069
275.20832	11114.7
279.44768	11083
283.68397	11017.1
287.91719	10952.7
292.14735	10979.9
296.37445	11086.3
300.59849	11261
304.81948	11475.8
309.03742	11566.2
313.25231	11437.8
317.46415	10999.9
321.67296	10429.8
325.87872	9972.6
330.08145	9743.6
334.28114	9733.1
338.47781	9811.9
342.67145	10007.7
346.86207	10296.1
351.04966	10694.9
355.23424	11163.4
359.4158	11493.5
363.59435	11675.3
367.76989	11755.9
371.94243	11796.7
376.11196	11801.9
380.27849	11836.8
384.44203	11787.8
388.60257	11741.1
392.76012	11753.3
396.91468	11903.1
401.06626	12117.1
405.21485	12298.7
409.36047	12198.9
413.50311	11853.4
417.64277	11460
421.77947	11308.2
425.9132	11299
430.04396	11318.1
434.17176	11383.1
438.2966	11526.9
442.41849	11737.7
446.53742	12063.8
450.6534	12380.8
454.76644	12650.1
458.87653	12735.7
462.98368	12701.6
467.08789	12561
471.18916	12393.3
475.2875	12208.9
479.38291	12082.9
483.4754	11953.8
487.56496	11771.6
491.6516	11633.7
495.73531	11489.7
499.81612	11457.3
503.89401	11510.6
507.96899	11556.8
512.04106	11605
516.11023	11673.7
520.1765	11676.5
524.23987	11643.9
528.30034	11481.7
532.35792	11321
536.41261	11169.7
540.46441	11030.1
544.51333	11011.7
548.55936	11096.6
552.60252	11356.3
556.64279	11625.9
560.6802	11794.5
564.71473	11866.3
568.7464	12173.5
572.7752	12435.8
576.80114	12398.3
580.82422	12220.6
584.84444	12182.3
588.86181	12205.8
592.87633	12267
596.888	12413.8
600.89682	12621.2
604.9028	13367.5
608.90594	15486.7
612.90624	18223.7
616.90371	17577.2
620.89834	13729.1
624.89015	11875.4
628.87913	11608.7
632.86528	11616.2
636.84862	11616.5
640.82913	11486.8
644.80683	11128.4
648.78172	10846.1
652.75379	10831.2
656.72306	11090.8
660.68952	11429
664.65319	11406.2
668.61405	11090.2
672.57211	10952.8
676.52738	10949.7
680.47986	10929.8
684.42955	10886.3
688.37646	10913.8
692.32058	10885.9
696.26192	10995.5
700.20048	11084.3
704.13626	11188.2
708.06928	11112.6
711.99952	11087.5
715.927	11024
719.85171	11060.1
723.77365	11021.1
727.69284	10946.1
731.60928	10874.2
735.52295	10855.6
739.43388	10874.6
743.34206	10901.3
747.24749	10969.9
751.15017	11075.6
755.05012	11250.2
758.94733	11637.8
762.8418	12389.6
766.73354	13707.6
770.62254	15117.9
774.50882	15706.5
778.39237	15019.1
782.27321	13511.8
786.15132	12176.1
790.02671	11416.4
793.89938	11078.6
797.76935	10920.6
801.6366	10867.5
805.50115	10802.4
809.36299	10795.7
813.22213	10753.5
817.07857	10730.7
820.93231	10750.6
824.78336	10736.2
828.63172	10769.2
832.47738	10788.3
836.32036	10789.7
840.16066	10795.4
843.99827	10761.3
847.8332	10730.5
851.66546	10700.8
855.49504	10678.6
859.32195	10694.5
863.1462	10633.2
866.96777	10617.1
870.78668	10592.2
874.60293	10561.5
878.41652	10596.2
882.22745	10627.7
886.03573	10688.8
889.84136	10671.5
893.64433	10618.1
897.44466	10567.1
901.24235	10569.1
905.0374	10538.7
908.8298	10515.3
912.61957	10524.8
916.40671	10608.3
920.19121	10719.3
923.97308	10827.8
927.75233	10870.5
931.52895	10876.2
935.30295	10813.8
939.07433	10596.7
942.84309	10426.6
946.60924	10317.9
950.37278	10258.5
954.13371	10192.2
957.89203	10164.2
961.64774	10148.4
965.40086	10114.7
969.15137	10075.7
972.89929	10050.4
976.64461	10015.1
980.38733	10007.1
984.12747	10065.1
987.86502	10099
991.59999	10210.1
995.33237	10364.4
999.06217	10608.1
1002.78939	10917.4
1006.51404	11171.5
1010.23611	11304.9
1013.95561	11431
1017.67255	11423.7
1021.38692	11333.2
1025.09872	11207.8
1028.80796	11220.3
1032.51465	11433.4
1036.21877	11650.8
1039.92035	11698.9
1043.61937	11563.2
1047.31584	11371.4
1051.00976	11158.8
1054.70114	11033
1058.38998	11046.4
1062.07627	11100.4
1065.76003	11184.5
1069.44126	11240.8
1073.11995	11283.7
1076.79611	11387.4
1080.46974	11449.6
1084.14085	11573.7
1087.80943	11722.3
1091.47549	11823.6
1095.13903	11741
1098.80005	11519.2
1102.45857	11272.7
1106.11456	11129.7
1109.76805	11139.9
1113.41903	11271.3
1117.06751	11479.7
1120.71348	11710.9
1124.35696	11973.1
1127.99793	12200.6
1131.63641	12249.3
1135.2724	11949.4
1138.90589	11654.3
1142.5369	11491.4
1146.16542	11363.4
1149.79145	11341.6
1153.415	11390.5
1157.03607	11497
1160.65467	11695.4
1164.27079	12052.9
1167.88443	12583.5
1171.49561	13342.8
1175.10432	14520.9
1178.71056	16010
1182.31434	17281.5
1185.91565	17783.7
1189.51451	17669
1193.11091	16994.8
1196.70485	16071.9
1200.29634	15274.8
1203.88538	14668.7
1207.47197	14056.4
1211.05612	13596.1
1214.63782	13267.1
1218.21708	13143.1
1221.79391	13116
1225.36829	13155
1228.94024	13112.3
1232.50976	13050.1
1236.07685	12987.8
1239.6415	12925.5
1243.20374	12947.9
1246.76355	13005.5
1250.32093	13166.8
1253.8759	13422.5
1257.42845	13799.9
1260.97859	14099.3
1264.52631	14370.6
1268.07163	14676
1271.61453	15038.8
1275.15503	15348.5
1278.69312	15665.7
1282.22882	15934.9
1285.76211	16172.7
1289.29301	16583.2
1292.82151	17036.5
1296.34761	17638
1299.87133	18412.8
1303.39266	19472.7
1306.9116	20959.8
1310.42815	22697.4
1313.94233	23901.9
1317.45412	23950.1
1320.96354	23184.8
1324.47058	22195.9
1327.97525	21339.8
1331.47754	20750
1334.97747	20536.4
1338.47502	20640.1
1341.97022	20885.2
1345.46305	21057.1
1348.95352	21117.5
1352.44163	21328.8
1355.92738	21999.7
1359.41078	23573.3
1362.89183	25462.7
1366.37053	25176
1369.84688	22474.9
1373.32088	19505.6
1376.79254	17612.4
1380.26186	16697.8
1383.72883	16390
1387.19347	16266.8
1390.65578	16072.2
1394.11575	15969.3
1397.57339	16070.9
1401.0287	16348.9
1404.48168	16678.6
1407.93234	16931
1411.38068	16976
1414.82669	16762.1
1418.27039	16247.3
1421.71177	15686.9
1425.15083	15177.8
1428.58758	14861.5
1432.02203	14793.8
1435.45416	14857.3
1438.88399	15049.6
1442.31151	15184.6
1445.73673	15338
1449.15965	15588.7
1452.58027	15702.3
1455.9986	15779.8
1459.41463	15799.4
1462.82837	15973.9
1466.23982	16205.9
1469.64898	16479.9
1473.05586	16639.5
1476.46045	16662.4
1479.86276	16685.9
1483.26279	16746.9
1486.66054	16864.6
1490.05602	17067.1
1493.44922	17359
1496.84016	17741.3
1500.22882	18400.7
1503.61521	19367.3
1506.99934	20650.7
1510.38121	22053.3
1513.76081	22908.1
1517.13816	22490.1
1520.51324	20938.9
1523.88607	19231.3
1527.25665	17966.7
1530.62498	17233
1533.99105	16820
1537.35488	16543.1
1540.71647	16375.9
1544.07581	16226.6
1547.4329	16073.9
1550.78776	15917.1
1554.14038	15840.7
1557.49077	15921.3
1560.83892	16043.5
1564.18484	16228.3
1567.52853	16366.6
1570.86999	16430.1
1574.20922	16545.8
1577.54624	16553.7
1580.88103	16328.7
1584.2136	15957.3
1587.54395	15993.4
1590.87208	16488.3
1594.19801	17348.3
1597.52172	18344.3
1600.84321	18803.4
1604.16251	18281.7
1607.47959	17114.8
1610.79447	15855.9
1614.10715	14686.7
1617.41763	13711.3
1620.7259	13079.4
1624.03199	12700.2
1627.33587	12648.8
1630.63757	12939.3
1633.93707	13488.6
1637.23439	14405.5
1640.52951	15609
1643.82246	16957.6
1647.11321	18298.2
1650.40179	19060.3
1653.68819	18481.2
1656.97241	16547.7
1660.25446	14345.6
1663.53433	12702.7
1666.81203	11655.5
1670.08756	11027.5
1673.36092	10666.6
1676.63211	10426.4
1679.90115	10248.3
1683.16801	10102.7
1686.43272	10004.1
1689.69527	9933.6
1692.95567	9838.1
1696.2139	9795.5
1699.46999	9748.5
1702.72392	9699.4
1705.97571	9714
1709.22535	9730.1
1712.47284	9757.4
1715.71819	9760.4
1718.96139	9761.9
1722.20246	9745.1
1725.44139	9718.2
1728.67818	9684.4
1731.91284	9622.4
1735.14537	9594.5
1738.37576	9550.2
1741.60403	9481.9
1744.83017	9463.9
1748.05418	9455.4
1751.27607	9443.8
1754.49584	9410.9
1757.71349	9385.9
1760.92903	9384.9
1764.14244	9351.8
1767.35375	9368.2
1770.56294	9326.2
1773.77002	9341.6
1776.97499	9313.8
1780.17785	9329.7
1783.37861	9349.4
1786.57727	9315.5
1789.77382	9330
1792.96828	9337.5
1796.16064	9313.7
1799.3509	9305.2
1802.53907	9274.6
1805.72514	9262.5
1808.90913	9240.7
1812.09102	9239.2
1815.27083	9222
1818.44856	9197.7
1821.6242	9179.4
1824.79776	9143.9
1827.96924	9160.4
1831.13864	9157.8
1834.30597	9157.6
1837.47122	9149.4
1840.6344	9152.1
1843.7955	9135
1846.95454	9116
1850.11151	9150.7
1853.26642	9162.7
1856.41926	9137.8
1859.57004	9160.9
1862.71876	9177
1865.86542	9163.5
1869.01003	9143.8
1872.15258	9139.1
1875.29308	9152.9
1878.43152	9150.6
1881.56792	9160
1884.70227	9145.5
1887.83457	9158.6
1890.96482	9144.5
1894.09304	9144.8
1897.21921	9130.9
1900.34335	9142.9
1903.46544	9128.8
1906.58551	9136.3
1909.70353	9136.9
1912.81953	9120.8
1915.93349	9139.7
1919.04543	9138.3
1922.15534	9104.6
1925.26322	9100
1928.36908	9084.8
1931.47292	9035
1934.57473	9019.5
1937.67453	8982.1
1940.77232	8961.1
1943.86808	8943.8
1946.96184	8898.4
1950.05358	8849
1953.14331	8823.9
1956.23103	8792.4
1959.31675	8786.8
1962.40046	8763.8
1965.48217	8735.4
1968.56188	8704.3
1971.63959	8681
1974.7153	8667.6
1977.78901	8634.2
1980.86073	8603.1
1983.93046	8591.6
1986.99819	8570
1990.06394	8519.3
1993.1277	8506
1996.18947	8475.5
1999.24925	8466.1
2002.30706	8410.1
2005.36288	8401.2
2008.41672	8404.6
2011.46859	8379.2
2014.51848	8347.7
2017.56639	8345.1
2020.61233	8325
2023.6563	8316.5
2026.6983	8260.7
2029.73833	8258
2032.7764	8239.1
2035.8125	8239
2038.84664	8194.3
2041.87881	8189.4
2044.90903	8175.7
2047.93729	8157
2050.96359	8185.9
2053.98794	8137.8
2057.01034	8140.3
2060.03078	8167.7
2063.04927	8143.3
2066.06582	8137.6
2069.08042	8133.5
2072.09307	8106.6
2075.10378	8093.1
2078.11255	8112.4
2081.11938	8123.1
2084.12426	8105.4
2087.12722	8110.9
2090.12824	8081.5
2093.12732	8109
2096.12447	8089.5
2099.11969	8093.4
2102.11299	8106.3
2105.10435	8092.7
2108.09379	8100.4
2111.08131	8112.6
2114.0669	8116.3
2117.05057	8113.6
2120.03233	8111.8
2123.01216	8109.3
2125.99008	8137.9
2128.96609	8145.7
2131.94018	8134.4
2134.91236	8160.2
2137.88263	8166.8
2140.851	8161.5
2143.81746	8164.9
2146.78201	8160.1
2149.74466	8174.3
2152.7054	8169.9
2155.66425	8168.6
2158.6212	8159.8
2161.57625	8153.5
2164.52941	8143
2167.48067	8131.9
2170.43004	8139.2
2173.37752	8165.2
2176.32311	8166.8
2179.26681	8167
2182.20863	8153.2
2185.14856	8157
2188.08661	8153.5
2191.02278	8150.2
2193.95707	8175.2
2196.88948	8141.7
2199.82001	8131.9
2202.74867	8139.4
2205.67545	8124.2
2208.60037	8138.1
2211.52341	8106.5
2214.44458	8129.1
2217.36388	8087.6
2220.28132	8112
2223.1969	8073.8
2226.11061	8071.3
2229.02246	8040.2
2231.93245	8031.9
2234.84058	8026.7
2237.74686	8004.5
2240.65128	8005.3
2243.55385	7997.6
2246.45456	7962
2249.35343	7961.7
2252.25044	7974.1
2255.14561	7947.9
2258.03893	7939.8
2260.93041	7926.6
2263.82004	7912.9
2266.70783	7898.9
2269.59378	7854.9
2272.4779	7862
2275.36017	7833.5
2278.24061	7846.5
2281.11922	7831.7
2283.996	7829.6
2286.87094	7795
2289.74405	7770.2
2292.61534	7759.8
2295.4848	7780
2298.35243	7777.1
2301.21824	7777.4
2304.08223	7771.6
2306.94439	7767.2
2309.80474	7794.3
2312.66327	7782.2
2315.51999	7773.1
2318.37489	7783.3
2321.22797	7770.3
2324.07925	7769.8
2326.92871	7745.6
2329.77637	7746.5
2332.62222	7715.7
2335.46626	7738.7
2338.3085	7717.9
2341.14893	7708.5
2343.98756	7731.1
2346.8244	7734.5
2349.65943	7720.2
2352.49267	7730.3
2355.32411	7741.7
2358.15376	7728.1
2360.98161	7730.9
2363.80768	7715.7
2366.63195	7722.7
2369.45444	7712.6
2372.27514	7704.8
2375.09405	7695.4
2377.91118	7692.8
2380.72652	7639.9
2383.54009	7610.4
2386.35187	7630.5
2389.16188	7599.3
2391.97011	7590.9
2394.77657	7576.7
2397.58125	7547.4
2400.38416	7533.1
2403.18529	7521.3
2405.98466	7517.9
2408.78226	7497.7
2411.57809	7492.9
2414.37216	7476.6
2417.16446	7476.2
2419.955	7447.2
2422.74378	7460.9
2425.5308	7457.6
2428.31606	7457
2431.09956	7453.3
2433.88131	7429.7
2436.6613	7445.2
2439.43954	7437.6
2442.21603	7436.1
2444.99077	7410.6
2447.76377	7437.3
2450.53501	7421
2453.30451	7430.8
2456.07226	7414.3
2458.83827	7405
2461.60254	7398.4
2464.36507	7395.2
2467.12586	7395.1
2469.88492	7391.2
2472.64224	7402.6
2475.39782	7413.3
2478.15167	7403.5
2480.90379	7370
2483.65417	7406.6
2486.40283	7430.8
2489.14976	7432.6
2491.89497	7438.8
2494.63845	7420.3
2497.3802	7418.6
2500.12024	7435.7
2502.85855	7420.4
2505.59514	7424.3
2508.33002	7397.7
2511.06318	7388
2513.79462	7390.3
2516.52435	7373
2519.25237	7363.1
2521.97867	7358.3
2524.70327	7349.5
2527.42616	7353.3
2530.14734	7332.8
2532.86681	7334.6
2535.58458	7340.4
2538.30065	7307.5
2541.01501	7321.2
2543.72768	7315.8
2546.43864	7280.4
2549.14791	7312
2551.85548	7305.5
2554.56136	7267.2
2557.26554	7274.6
2559.96803	7261.8
2562.66883	7266.8
2565.36794	7253.1
2568.06536	7236.5
2570.7611	7235.8
2573.45514	7213.7
2576.14751	7221.5
2578.83819	7224.3
2581.52719	7232.9
2584.21451	7201
2586.90015	7217.1
2589.58411	7193.3
2592.2664	7187.9
2594.94701	7186
2597.62594	7190.1
2600.30321	7199.5
2602.9788	7167.8
2605.65273	7178.3
2608.32498	7167.4
2610.99557	7167.9
2613.66449	7165.8
2616.33175	7164.2
2618.99734	7182.7
2621.66128	7162.2
2624.32355	7160.4
2626.98416	7182.3
2629.64311	7167.9
2632.30041	7163
2634.95605	7146.6
2637.61004	7139.1
2640.26238	7141
2642.91306	7139.5
2645.56209	7117.3
2648.20948	7093.7
2650.85521	7085.1
2653.4993	7119.7
2656.14175	7108.2
2658.78255	7119.8
2661.42171	7117.2
2664.05923	7139
2666.6951	7139.9
2669.32934	7143.3
2671.96194	7114.6
2674.59291	7144.3
2677.22224	7117.7
2679.84993	7151.6
2682.476	7118.4
2685.10043	7146.3
2687.72324	7121.8
2690.34441	7126.6
2692.96396	7121.9
2695.58188	7138.1
2698.19818	7116.3
2700.81285	7124.9
2703.4259	7108.9
2706.03733	7110.8
2708.64714	7110.6
2711.25533	7126.6
2713.86191	7112.5
2716.46687	7124.2
2719.07021	7147.5
2721.67194	7120.6
2724.27206	7140.1
2726.87057	7167.4
2729.46747	7141.5
2732.06276	7147.9
2734.65644	7149.8
2737.24852	7174.4
2739.83899	7138.1
2742.42786	7142.3
2745.01513	7114.8
2747.60079	7127.4
2750.18486	7132.2
2752.76733	7140.6
2755.3482	7126.8
2757.92747	7105.5
2760.50515	7105.5
2763.08123	7102.9
2765.65573	7135.2
2768.22863	7112.5
2770.79994	7077.7
2773.36967	7098.1
2775.9378	7100
2778.50435	7104.9
2781.06932	7088.5
2783.6327	7083.2
2786.1945	7070.3
2788.75471	7093.2
2791.31335	7051.3
2793.87041	7056.4
2796.42589	7023.2
2798.97979	7013.8
2801.53212	7019
2804.08288	7008.9
2806.63206	7009.6
2809.17967	6980.5
2811.72571	6985
2814.27018	6995.3
2816.81308	6958
2819.35442	6950.7
2821.89419	6964.3
2824.43239	6962.9
2826.96904	6940
2829.50412	6940.8
2832.03763	6942.1
2834.56959	6937.6
2837.1	6950.7
2839.62884	6951.5
2842.15613	6935.7
2844.68186	6962.3
2847.20604	6964.6
2849.72867	6974.6
2852.24974	6981.4
2854.76927	6962.6
2857.28724	6942.8
2859.80367	6958.8
2862.31855	6948
2864.83189	6934.4
2867.34368	6948.4
2869.85393	6922.9
2872.36264	6917.3
2874.8698	6931.5
2877.37543	6924.8
2879.87952	6912.7
2882.38207	6896.7
2884.88308	6913.6
2887.38256	6924.9
2889.88051	6909.1
2892.37692	6911.6
2894.8718	6911.4
2897.36515	6941.7
2899.85698	6916.2
2902.34727	6949.5
2904.83604	6938.3
2907.32328	6942
2909.809	6944.9
2912.29319	6955.8
2914.77587	6960.8
2917.25702	6970.7
2919.73665	6953.9
2922.21476	6934.4
2924.69136	6927.9
2927.16644	6911.4
2929.64	6930.1
2932.11205	6933.8
2934.58258	6891.2
2937.05161	6914.6
2939.51912	6896.7
2941.98513	6887.5
2944.44962	6873.4
2946.91261	6849.8
2949.37409	6840.4
2951.83407	6841.2
2954.29254	6827.1
2956.74951	6824.4
2959.20498	6828.9
2961.65895	6814.5
2964.11142	6833.5
2966.56239	6819.6
2969.01186	6796
2971.45984	6771.1
2973.90632	6785.4
2976.35131	6782.9
2978.7948	6763.3
2981.23681	6747.8
2983.67732	6750.4
2986.11635	6737.8
2988.55388	6699
2990.98993	6700.9
2993.4245	6692.8
2995.85758	6685
2998.28917	6680.6
3000.71928	6646.1
3003.14791	6627.1
3005.57506	6639.4
3008.00073	6626.5
3010.42493	6621.8
3012.84764	6617.1
3015.26888	6602.8
3017.68865	6599.7
3020.10694	6583.6
3022.52376	6565.8
3024.9391	6554.7
3027.35298	6547.7
3029.76539	6543.2
3032.17632	6530.5
3034.5858	6546.6
3036.9938	6550.9
3039.40034	6536.9
3041.80542	6519.8
3044.20903	6524.7
3046.61118	6508
3049.01187	6502.9
3051.4111	6471.1
3053.80888	6494.5
3056.20519	6474.5
3058.60005	6459.6
3060.99345	6429.1
3063.3854	6420.8
3065.7759	6398
3068.16494	6391.6
3070.55254	6391.9
3072.93868	6374.1
3075.32338	6380
3077.70662	6341.2
3080.08842	6331
3082.46878	6337.9
3084.84769	6332.2
3087.22515	6337.1
3089.60118	6304.8
3091.97576	6305.9
3094.3489	6326.8
3096.72061	6316.3
3099.09087	6314.4
3101.4597	6329.7
3103.82709	6317.7
3106.19305	6294.6
3108.55757	6316.3
3110.92066	6299.9
3113.28232	6288
3115.64255	6270.5
3118.00134	6269.3
3120.35871	6270.4
3122.71466	6251.3
3125.06917	6233
3127.42226	6231.3
3129.77393	6243.9
3132.12417	6219.5
3134.47299	6225.4
3136.82039	6225.4
3139.16636	6228.4
3141.51092	6232.3
3143.85406	6244.2
3146.19579	6222.8
3148.53609	6244.8
3150.87499	6259.6
3153.21246	6260
3155.54853	6256.3
3157.88318	6267.7
3160.21642	6251.6
3162.54826	6275.6
3164.87868	6280.9
3167.2077	6282.9
3169.5353	6266.4
3171.86151	6286.8
3174.18631	6264.7
3176.5097	6282.7
3178.83169	6260.6
3181.15228	6262.2
3183.47147	6260.6
3185.78926	6260.6
3188.10565	6266.9
3190.42065	6274.9
3192.73424	6258.2
3195.04645	6245.9
3197.35725	6253.9
3199.66667	6250.1
3201.97469	6248.8
3204.28132	6265.3
3206.58656	6273.6
3208.8904	6260.7
3211.19287	6286.5
3213.49394	6284.9
3215.79363	6298.3
3218.09193	6302.8
3220.38884	6295.1
3222.68438	6281.9
3224.97853	6294
3227.2713	6300.8
3229.56269	6283.9
3231.8527	6293.7
3234.14133	6271.8
3236.42858	6244.9
3238.71446	6264.9
3240.99896	6228.1
3243.28209	6251.4
3245.56384	6238.1
3247.84423	6226.7
3250.12324	6224.1
3252.40088	6209.5
3254.67715	6222.5
3256.95205	6202
3259.22558	6211.4
3261.49775	6205
3263.76855	6211.5
3266.03799	6184.9
3268.30606	6167.7
3270.57277	6170.2
3272.83812	6156.2
3275.10211	6136.3
3277.36474	6130.4
3279.62601	6145.7
3281.88593	6127.8
3284.14448	6124.8
3286.40168	6135.2
3288.65753	6126.4
3290.91202	6127
3293.16516	6118
3295.41695	6095.1
3297.66738	6058.1
3299.91647	6042.3
3302.16421	6007.2
3304.4106	5986.7
3306.65564	5949.5
3308.89933	5925.5
3311.14169	5899.8
3313.38269	5828.7
3315.62236	5802.3
3317.86068	5765
3320.09766	5719.8
3322.3333	5674.2
3324.5676	5663.3
3326.80056	5576.9
3329.03219	5532.3
3331.26248	2.6
3333.49143	0.5
3335.71905	-1.1
