Data from AgNPs_FTO_APTES_UA_1uM_CRN_10uM_R6G_10uM_NaF_0.1M_Addition_RamanShift__11__14-28-39-634.txt Node

Date: Thu Jan 27 14:28:39 GMT 2022
User: TCL
Spectrometer: QEP01345
Trigger mode: 4
Integration Time (sec): 7.000000E0
Scans to average: 10
Electric dark correction enabled: true
Nonlinearity correction enabled: false
Boxcar width: 0
XAxis mode: Raman Shifts
Number of Pixels in Spectrum: 1044
>>>>>Begin Spectral Data<<<<<
46.04893	0.9625
50.45542	-0.0375
54.85868	-0.3375
59.25871	-1.1375
63.6555	51.2625
68.04907	54.7625
72.43941	55.5625
76.82654	62.6625
81.21044	60.6625
85.59113	64.4625
89.96862	62.6625
94.34289	66.2625
98.71396	70.2625
103.08183	69.5625
107.4465	72.8625
111.80798	77.8625
116.16626	78.2625
120.52136	80.9625
124.87327	81.1625
129.222	80.2625
133.56755	85.8625
137.90993	90.9625
142.24913	99.5625
146.58517	111.9625
150.91804	129.1625
155.24774	148.7625
159.57429	181.7625
163.89768	229.7625
168.21792	306.1625
172.53501	408.1625
176.84895	565.8625
181.15975	786.5625
185.46741	1103.3625
189.77193	1527.8625
194.07331	2050.4625
198.37157	2663.2625
202.6667	3270.8625
206.9587	3905.7625
211.24758	4503.6625
215.53334	5114.7625
219.81599	5727.2625
224.09553	6412.0625
228.37195	7177.8625
232.64527	8011.4625
236.91549	8915.0625
241.18261	9834.2625
245.44663	10698.9625
249.70755	11522.3625
253.96539	12236.2625
258.22014	12856.8625
262.4718	13316.1625
266.72039	13669.0625
270.96589	13841.8625
275.20832	13866.4625
279.44768	13813.9625
283.68397	13715.9625
287.91719	13571.8625
292.14735	13464.8625
296.37445	13401.2625
300.59849	13394.6625
304.81948	13375.6625
309.03742	13380.7625
313.25231	13304.2625
317.46415	13147.1625
321.67296	12924.3625
325.87872	12749.9625
330.08145	12636.7625
334.28114	12635.2625
338.47781	12739.8625
342.67145	12879.7625
346.86207	13046.8625
351.04966	13232.1625
355.23424	13430.2625
359.4158	13598.1625
363.59435	13755.3625
367.76989	13840.2625
371.94243	13954.8625
376.11196	14036.9625
380.27849	14055.1625
384.44203	14109.5625
388.60257	14188.1625
392.76012	14312.2625
396.91468	14525.2625
401.06626	14716.1625
405.21485	14864.0625
409.36047	14815.0625
413.50311	14703.9625
417.64277	14614.3625
421.77947	14623.5625
425.9132	14724.3625
430.04396	14794.0625
434.17176	14836.8625
438.2966	14916.7625
442.41849	15033.0625
446.53742	15240.5625
450.6534	15453.6625
454.76644	15670.5625
458.87653	15735.2625
462.98368	15779.3625
467.08789	15737.5625
471.18916	15632.2625
475.2875	15523.8625
479.38291	15456.1625
483.4754	15349.5625
487.56496	15271.2625
491.6516	15132.3625
495.73531	15031.2625
499.81612	14975.2625
503.89401	15004.5625
507.96899	15101.6625
512.04106	15146.1625
516.11023	15090.9625
520.1765	14975.2625
524.23987	14887.5625
528.30034	14783.8625
532.35792	14665.0625
536.41261	14567.5625
540.46441	14475.4625
544.51333	14488.1625
548.55936	14569.8625
552.60252	14768.5625
556.64279	14990.7625
560.6802	15154.4625
564.71473	15251.4625
568.7464	15409.9625
572.7752	15689.2625
576.80114	16097.4625
580.82422	16476.1625
584.84444	16841.0625
588.86181	17255.6625
592.87633	17589.8625
596.888	17537.3625
600.89682	17115.4625
604.9028	16954.7625
608.90594	17530.1625
612.90624	18321.8625
616.90371	17603.9625
620.89834	15764.7625
624.89015	14954.9625
628.87913	14893.6625
632.86528	15018.7625
636.84862	15075.2625
640.82913	14937.6625
644.80683	14692.0625
648.78172	14504.9625
652.75379	14484.7625
656.72306	14589.6625
660.68952	14767.2625
664.65319	14731.6625
668.61405	14583.7625
672.57211	14551.4625
676.52738	14569.0625
680.47986	14584.9625
684.42955	14533.6625
688.37646	14483.4625
692.32058	14514.8625
696.26192	14603.3625
700.20048	14741.9625
704.13626	14834.1625
708.06928	14890.1625
711.99952	14884.0625
715.927	14876.1625
719.85171	14802.1625
723.77365	14759.0625
727.69284	14627.1625
731.60928	14502.6625
735.52295	14418.5625
739.43388	14411.9625
743.34206	14422.4625
747.24749	14493.4625
751.15017	14617.3625
755.05012	14777.3625
758.94733	15019.6625
762.8418	15495.1625
766.73354	16190.7625
770.62254	16845.6625
774.50882	16974.4625
778.39237	16535.6625
782.27321	15828.2625
786.15132	15233.4625
790.02671	14818.2625
793.89938	14570.3625
797.76935	14499.6625
801.6366	14429.8625
805.50115	14353.1625
809.36299	14313.9625
813.22213	14260.2625
817.07857	14231.3625
820.93231	14208.9625
824.78336	14192.8625
828.63172	14168.0625
832.47738	14146.1625
836.32036	14137.5625
840.16066	14103.8625
843.99827	14082.7625
847.8332	14120.2625
851.66546	14109.9625
855.49504	14137.8625
859.32195	14131.9625
863.1462	14137.4625
866.96777	14105.9625
870.78668	14092.6625
874.60293	14114.2625
878.41652	14152.4625
882.22745	14163.7625
886.03573	14172.9625
889.84136	14189.6625
893.64433	14173.2625
897.44466	14138.9625
901.24235	14092.8625
905.0374	14088.5625
908.8298	14052.2625
912.61957	14078.8625
916.40671	14120.9625
920.19121	14288.3625
923.97308	14347.4625
927.75233	14349.3625
931.52895	14269.9625
935.30295	14119.0625
939.07433	13931.4625
942.84309	13818.8625
946.60924	13718.3625
950.37278	13696.0625
954.13371	13674.0625
957.89203	13671.0625
961.64774	13659.0625
965.40086	13607.7625
969.15137	13595.9625
972.89929	13553.8625
976.64461	13548.8625
980.38733	13452.9625
984.12747	13494.9625
987.86502	13524.9625
991.59999	13563.0625
995.33237	13613.8625
999.06217	13723.1625
1002.78939	13890.6625
1006.51404	13998.0625
1010.23611	14196.2625
1013.95561	14306.8625
1017.67255	14330.3625
1021.38692	14259.0625
1025.09872	14135.0625
1028.80796	13987.1625
1032.51465	13904.6625
1036.21877	13933.3625
1039.92035	13942.4625
1043.61937	14000.1625
1047.31584	14031.4625
1051.00976	14070.9625
1054.70114	14127.5625
1058.38998	14230.7625
1062.07627	14321.0625
1065.76003	14424.5625
1069.44126	14574.2625
1073.11995	14804.3625
1076.79611	14968.9625
1080.46974	15027.0625
1084.14085	15050.7625
1087.80943	15094.4625
1091.47549	15203.8625
1095.13903	15260.3625
1098.80005	15178.1625
1102.45857	14940.9625
1106.11456	14703.0625
1109.76805	14538.0625
1113.41903	14514.8625
1117.06751	14532.4625
1120.71348	14613.6625
1124.35696	14705.9625
1127.99793	14838.5625
1131.63641	14918.1625
1135.2724	14865.4625
1138.90589	14790.3625
1142.5369	14816.3625
1146.16542	14865.8625
1149.79145	14896.5625
1153.415	14972.2625
1157.03607	15080.5625
1160.65467	15275.1625
1164.27079	15659.0625
1167.88443	16180.3625
1171.49561	16763.9625
1175.10432	17385.0625
1178.71056	18226.7625
1182.31434	18979.8625
1185.91565	19443.0625
1189.51451	19598.2625
1193.11091	19443.9625
1196.70485	19053.4625
1200.29634	18590.0625
1203.88538	18194.6625
1207.47197	17905.6625
1211.05612	17780.8625
1214.63782	17502.4625
1218.21708	17169.0625
1221.79391	16802.5625
1225.36829	16513.4625
1228.94024	16328.4625
1232.50976	16222.0625
1236.07685	16150.5625
1239.6415	16075.6625
1243.20374	16155.7625
1246.76355	16203.7625
1250.32093	16335.1625
1253.8759	16485.9625
1257.42845	16802.9625
1260.97859	17133.8625
1264.52631	17462.5625
1268.07163	17778.6625
1271.61453	18060.0625
1275.15503	18387.0625
1278.69312	18708.9625
1282.22882	19097.0625
1285.76211	19506.8625
1289.29301	19956.6625
1292.82151	20582.3625
1296.34761	21257.6625
1299.87133	22088.7625
1303.39266	22822.0625
1306.9116	23523.6625
1310.42815	24059.8625
1313.94233	24294.3625
1317.45412	24185.8625
1320.96354	23948.3625
1324.47058	23787.5625
1327.97525	23674.9625
1331.47754	23663.2625
1334.97747	23614.1625
1338.47502	23606.3625
1341.97022	23689.1625
1345.46305	23703.8625
1348.95352	23753.3625
1352.44163	23712.3625
1355.92738	23747.3625
1359.41078	24050.0625
1362.89183	24368.8625
1366.37053	24057.1625
1369.84688	22802.1625
1373.32088	21079.3625
1376.79254	19790.7625
1380.26186	19228.3625
1383.72883	19115.1625
1387.19347	19106.6625
1390.65578	18894.4625
1394.11575	18756.1625
1397.57339	18726.9625
1401.0287	18853.4625
1404.48168	18933.3625
1407.93234	18871.9625
1411.38068	18607.0625
1414.82669	18209.8625
1418.27039	17682.7625
1421.71177	17212.0625
1425.15083	16852.5625
1428.58758	16661.6625
1432.02203	16688.0625
1435.45416	16961.2625
1438.88399	17268.1625
1442.31151	17481.3625
1445.73673	17624.4625
1449.15965	17727.6625
1452.58027	17816.9625
1455.9986	17875.0625
1459.41463	17976.0625
1462.82837	18196.8625
1466.23982	18446.2625
1469.64898	18659.6625
1473.05586	18830.3625
1476.46045	18847.7625
1479.86276	18820.2625
1483.26279	18734.2625
1486.66054	18698.2625
1490.05602	18788.6625
1493.44922	19013.1625
1496.84016	19419.0625
1500.22882	19856.3625
1503.61521	20414.2625
1506.99934	20993.9625
1510.38121	21402.3625
1513.76081	21478.0625
1517.13816	21173.6625
1520.51324	20706.1625
1523.88607	20354.5625
1527.25665	20124.8625
1530.62498	20018.4625
1533.99105	19854.5625
1537.35488	19546.4625
1540.71647	19175.4625
1544.07581	18743.5625
1547.4329	18322.5625
1550.78776	18012.5625
1554.14038	17783.6625
1557.49077	17669.8625
1560.83892	17632.1625
1564.18484	17645.9625
1567.52853	17684.7625
1570.86999	17817.1625
1574.20922	18065.5625
1577.54624	18273.0625
1580.88103	18308.7625
1584.2136	18317.5625
1587.54395	18545.7625
1590.87208	18958.1625
1594.19801	19592.8625
1597.52172	20263.9625
1600.84321	20411.0625
1604.16251	19770.5625
1607.47959	18789.7625
1610.79447	17762.2625
1614.10715	16753.3625
1617.41763	15932.8625
1620.7259	15290.8625
1624.03199	14915.6625
1627.33587	14849.8625
1630.63757	15060.2625
1633.93707	15615.9625
1637.23439	16608.9625
1640.52951	18165.1625
1643.82246	19941.6625
1647.11321	21451.5625
1650.40179	21899.7625
1653.68819	20894.7625
1656.97241	18874.6625
1660.25446	16789.0625
1663.53433	15222.5625
1666.81203	14163.9625
1670.08756	13520.6625
1673.36092	13097.9625
1676.63211	12830.7625
1679.90115	12620.1625
1683.16801	12492.8625
1686.43272	12398.2625
1689.69527	12262.3625
1692.95567	12193.6625
1696.2139	12108.1625
1699.46999	12055.4625
1702.72392	12005.5625
1705.97571	12010.1625
1709.22535	12032.9625
1712.47284	12035.9625
1715.71819	12034.8625
1718.96139	12035.8625
1722.20246	11992.0625
1725.44139	11931.1625
1728.67818	11902.9625
1731.91284	11826.2625
1735.14537	11765.2625
1738.37576	11761.1625
1741.60403	11679.1625
1744.83017	11657.3625
1748.05418	11605.0625
1751.27607	11580.4625
1754.49584	11565.5625
1757.71349	11516.7625
1760.92903	11521.9625
1764.14244	11467.7625
1767.35375	11489.0625
1770.56294	11475.9625
1773.77002	11458.0625
1776.97499	11444.3625
1780.17785	11429.1625
1783.37861	11441.9625
1786.57727	11429.9625
1789.77382	11407.8625
1792.96828	11396.0625
1796.16064	11368.6625
1799.3509	11331.6625
1802.53907	11327.8625
1805.72514	11291.2625
1808.90913	11263.6625
1812.09102	11266.8625
1815.27083	11256.5625
1818.44856	11240.1625
1821.6242	11211.1625
1824.79776	11168.3625
1827.96924	11179.8625
1831.13864	11158.9625
1834.30597	11140.1625
1837.47122	11147.1625
1840.6344	11126.3625
1843.7955	11138.9625
1846.95454	11143.6625
1850.11151	11124.4625
1853.26642	11096.8625
1856.41926	11101.4625
1859.57004	11125.4625
1862.71876	11074.3625
1865.86542	11042.5625
1869.01003	11033.6625
1872.15258	11027.0625
1875.29308	11020.3625
1878.43152	10980.1625
1881.56792	10955.4625
1884.70227	10939.3625
1887.83457	10938.4625
1890.96482	10897.4625
1894.09304	10892.3625
1897.21921	10861.8625
1900.34335	10880.7625
1903.46544	10857.6625
1906.58551	10857.0625
1909.70353	10814.1625
1912.81953	10813.0625
1915.93349	10788.2625
1919.04543	10779.8625
1922.15534	10719.7625
1925.26322	10704.5625
1928.36908	10685.5625
1931.47292	10685.3625
1934.57473	10646.4625
1937.67453	10618.8625
1940.77232	10579.4625
1943.86808	10554.9625
1946.96184	10528.5625
1950.05358	10492.7625
1953.14331	10467.4625
1956.23103	10420.1625
1959.31675	10402.6625
1962.40046	10381.5625
1965.48217	10359.7625
1968.56188	10320.8625
1971.63959	10278.1625
1974.7153	10220.0625
1977.78901	10212.5625
1980.86073	10188.6625
1983.93046	10154.4625
1986.99819	10144.7625
1990.06394	10107.0625
1993.1277	10057.2625
1996.18947	10023.7625
1999.24925	10000.1625
2002.30706	9953.0625
2005.36288	9931.2625
2008.41672	9888.5625
2011.46859	9844.1625
2014.51848	9840.5625
2017.56639	9823.3625
2020.61233	9795.4625
2023.6563	9781.1625
2026.6983	9750.6625
2029.73833	9703.7625
2032.7764	9687.3625
2035.8125	9660.0625
2038.84664	9652.9625
2041.87881	9631.7625
2044.90903	9609.4625
2047.93729	9579.3625
2050.96359	9566.3625
2053.98794	9547.3625
2057.01034	9548.8625
2060.03078	9537.4625
2063.04927	9520.6625
2066.06582	9536.3625
2069.08042	9511.6625
2072.09307	9505.5625
2075.10378	9485.6625
2078.11255	9495.9625
2081.11938	9503.4625
2084.12426	9493.0625
2087.12722	9478.6625
2090.12824	9469.0625
2093.12732	9474.5625
2096.12447	9468.3625
2099.11969	9461.8625
2102.11299	9474.8625
2105.10435	9491.0625
2108.09379	9483.6625
2111.08131	9498.5625
2114.0669	9489.0625
2117.05057	9471.4625
2120.03233	9455.6625
2123.01216	9484.1625
2125.99008	9508.6625
2128.96609	9507.1625
2131.94018	9509.4625
2134.91236	9512.0625
2137.88263	9505.0625
2140.851	9509.6625
2143.81746	9513.7625
2146.78201	9516.3625
2149.74466	9503.6625
2152.7054	9509.9625
2155.66425	9522.8625
2158.6212	9515.0625
2161.57625	9487.8625
2164.52941	9479.7625
2167.48067	9487.7625
2170.43004	9476.5625
2173.37752	9484.7625
2176.32311	9482.2625
2179.26681	9450.5625
2182.20863	9467.1625
2185.14856	9456.3625
2188.08661	9482.5625
2191.02278	9474.5625
2193.95707	9435.4625
2196.88948	9426.5625
2199.82001	9429.9625
2202.74867	9418.5625
2205.67545	9404.5625
2208.60037	9387.9625
2211.52341	9363.6625
2214.44458	9371.5625
2217.36388	9343.3625
2220.28132	9295.0625
2223.1969	9282.9625
2226.11061	9270.2625
2229.02246	9253.4625
2231.93245	9252.1625
2234.84058	9232.3625
2237.74686	9197.1625
2240.65128	9198.4625
2243.55385	9180.7625
2246.45456	9189.2625
2249.35343	9148.9625
2252.25044	9132.3625
2255.14561	9146.4625
2258.03893	9135.3625
2260.93041	9117.7625
2263.82004	9046.0625
2266.70783	9051.3625
2269.59378	9023.9625
2272.4779	9002.1625
2275.36017	8997.0625
2278.24061	8994.3625
2281.11922	8946.8625
2283.996	8936.8625
2286.87094	8911.5625
2289.74405	8874.3625
2292.61534	8882.0625
2295.4848	8875.1625
2298.35243	8910.4625
2301.21824	8857.8625
2304.08223	8857.0625
2306.94439	8835.8625
2309.80474	8810.0625
2312.66327	8822.8625
2315.51999	8819.1625
2318.37489	8809.3625
2321.22797	8771.0625
2324.07925	8764.9625
2326.92871	8754.1625
2329.77637	8752.7625
2332.62222	8733.8625
2335.46626	8710.6625
2338.3085	8700.8625
2341.14893	8670.5625
2343.98756	8664.4625
2346.8244	8664.1625
2349.65943	8656.6625
2352.49267	8659.5625
2355.32411	8648.9625
2358.15376	8639.6625
2360.98161	8652.1625
2363.80768	8641.9625
2366.63195	8639.4625
2369.45444	8615.8625
2372.27514	8608.4625
2375.09405	8585.6625
2377.91118	8594.5625
2380.72652	8578.1625
2383.54009	8544.0625
2386.35187	8525.7625
2389.16188	8502.9625
2391.97011	8486.0625
2394.77657	8469.7625
2397.58125	8471.4625
2400.38416	8432.4625
2403.18529	8433.1625
2405.98466	8398.0625
2408.78226	8397.1625
2411.57809	8387.5625
2414.37216	8373.8625
2417.16446	8363.6625
2419.955	8362.5625
2422.74378	8368.1625
2425.5308	8354.5625
2428.31606	8360.4625
2431.09956	8334.5625
2433.88131	8313.5625
2436.6613	8332.5625
2439.43954	8328.9625
2442.21603	8292.8625
2444.99077	8297.6625
2447.76377	8290.5625
2450.53501	8289.3625
2453.30451	8279.1625
2456.07226	8246.2625
2458.83827	8252.9625
2461.60254	8259.5625
2464.36507	8242.5625
2467.12586	8235.3625
2469.88492	8224.1625
2472.64224	8217.7625
2475.39782	8211.1625
2478.15167	8205.9625
2480.90379	8205.5625
2483.65417	8197.2625
2486.40283	8179.5625
2489.14976	8191.9625
2491.89497	8184.6625
2494.63845	8158.1625
2497.3802	8167.5625
2500.12024	8150.6625
2502.85855	8138.8625
2505.59514	8143.0625
2508.33002	8138.5625
2511.06318	8115.5625
2513.79462	8098.4625
2516.52435	8111.9625
2519.25237	8088.2625
2521.97867	8098.2625
2524.70327	8066.2625
2527.42616	8059.8625
2530.14734	8052.6625
2532.86681	8030.4625
2535.58458	8003.7625
2538.30065	8023.3625
2541.01501	8011.9625
2543.72768	7994.6625
2546.43864	7977.1625
2549.14791	7963.1625
2551.85548	7939.2625
2554.56136	7937.1625
2557.26554	7920.9625
2559.96803	7943.5625
2562.66883	7929.8625
2565.36794	7895.1625
2568.06536	7905.5625
2570.7611	7876.9625
2573.45514	7842.6625
2576.14751	7824.7625
2578.83819	7839.5625
2581.52719	7817.0625
2584.21451	7796.3625
2586.90015	7803.4625
2589.58411	7761.1625
2592.2664	7774.9625
2594.94701	7759.1625
2597.62594	7740.8625
2600.30321	7740.4625
2602.9788	7712.7625
2605.65273	7703.4625
2608.32498	7696.8625
2610.99557	7710.8625
2613.66449	7683.6625
2616.33175	7706.4625
2618.99734	7682.6625
2621.66128	7689.0625
2624.32355	7649.8625
2626.98416	7638.2625
2629.64311	7636.3625
2632.30041	7634.5625
2634.95605	7617.9625
2637.61004	7611.3625
2640.26238	7589.6625
2642.91306	7595.4625
2645.56209	7605.9625
2648.20948	7579.9625
2650.85521	7578.1625
2653.4993	7580.5625
2656.14175	7575.3625
2658.78255	7578.8625
2661.42171	7566.5625
2664.05923	7579.2625
2666.6951	7580.3625
2669.32934	7579.5625
2671.96194	7558.8625
2674.59291	7593.2625
2677.22224	7549.7625
2679.84993	7551.2625
2682.476	7560.7625
2685.10043	7563.7625
2687.72324	7557.3625
2690.34441	7564.4625
2692.96396	7547.1625
2695.58188	7549.3625
2698.19818	7539.7625
2700.81285	7538.1625
2703.4259	7535.4625
2706.03733	7513.5625
2708.64714	7504.8625
2711.25533	7547.0625
2713.86191	7527.1625
2716.46687	7540.0625
2719.07021	7553.1625
2721.67194	7541.2625
2724.27206	7538.3625
2726.87057	7558.4625
2729.46747	7554.3625
2732.06276	7548.8625
2734.65644	7545.7625
2737.24852	7535.3625
2739.83899	7519.9625
2742.42786	7512.4625
2745.01513	7495.4625
2747.60079	7496.0625
2750.18486	7480.6625
2752.76733	7471.0625
2755.3482	7472.7625
2757.92747	7462.6625
2760.50515	7450.5625
2763.08123	7456.1625
2765.65573	7449.5625
2768.22863	7430.7625
2770.79994	7422.0625
2773.36967	7386.6625
2775.9378	7424.0625
2778.50435	7410.6625
2781.06932	7370.8625
2783.6327	7389.8625
2786.1945	7355.6625
2788.75471	7354.7625
2791.31335	7341.5625
2793.87041	7322.0625
2796.42589	7326.6625
2798.97979	7315.3625
2801.53212	7286.3625
2804.08288	7278.3625
2806.63206	7236.1625
2809.17967	7249.2625
2811.72571	7235.7625
2814.27018	7208.9625
2816.81308	7187.1625
2819.35442	7193.9625
2821.89419	7189.3625
2824.43239	7165.3625
2826.96904	7163.9625
2829.50412	7157.9625
2832.03763	7147.5625
2834.56959	7144.9625
2837.1	7123.3625
2839.62884	7117.9625
2842.15613	7128.1625
2844.68186	7137.4625
2847.20604	7142.0625
2849.72867	7140.3625
2852.24974	7123.8625
2854.76927	7116.9625
2857.28724	7107.5625
2859.80367	7095.7625
2862.31855	7091.5625
2864.83189	7061.4625
2867.34368	7050.1625
2869.85393	7057.4625
2872.36264	7047.0625
2874.8698	7072.9625
2877.37543	7024.4625
2879.87952	6998.7625
2882.38207	7013.4625
2884.88308	7006.1625
2887.38256	7007.0625
2889.88051	7015.2625
2892.37692	6999.6625
2894.8718	6992.8625
2897.36515	7009.2625
2899.85698	7013.7625
2902.34727	7019.2625
2904.83604	7017.3625
2907.32328	7010.9625
2909.809	7000.2625
2912.29319	7023.4625
2914.77587	6997.9625
2917.25702	7007.3625
2919.73665	7017.5625
2922.21476	7000.2625
2924.69136	6991.5625
2927.16644	7009.5625
2929.64	6988.8625
2932.11205	6990.7625
2934.58258	6964.3625
2937.05161	6981.8625
2939.51912	6961.5625
2941.98513	6954.1625
2944.44962	6919.5625
2946.91261	6889.6625
2949.37409	6910.1625
2951.83407	6912.7625
2954.29254	6911.6625
2956.74951	6889.5625
2959.20498	6897.6625
2961.65895	6876.0625
2964.11142	6898.6625
2966.56239	6880.9625
2969.01186	6863.7625
2971.45984	6846.1625
2973.90632	6845.0625
2976.35131	6828.9625
2978.7948	6818.7625
2981.23681	6802.0625
2983.67732	6785.8625
2986.11635	6775.9625
2988.55388	6771.8625
2990.98993	6736.8625
2993.4245	6750.5625
2995.85758	6716.1625
2998.28917	6710.8625
3000.71928	6680.1625
3003.14791	6670.8625
3005.57506	6659.5625
3008.00073	6660.0625
3010.42493	6641.5625
3012.84764	6642.1625
3015.26888	6644.5625
3017.68865	6606.4625
3020.10694	6600.6625
3022.52376	6577.5625
3024.9391	6555.0625
3027.35298	6562.5625
3029.76539	6592.0625
3032.17632	6542.6625
3034.5858	6532.8625
3036.9938	6546.5625
3039.40034	6538.8625
3041.80542	6528.3625
3044.20903	6519.8625
3046.61118	6510.0625
3049.01187	6522.4625
3051.4111	6503.8625
3053.80888	6483.9625
3056.20519	6476.3625
3058.60005	6445.1625
3060.99345	6428.0625
3063.3854	6386.1625
3065.7759	6401.6625
3068.16494	6384.5625
3070.55254	6391.4625
3072.93868	6353.1625
3075.32338	6360.9625
3077.70662	6336.6625
3080.08842	6329.5625
3082.46878	6336.2625
3084.84769	6326.6625
3087.22515	6302.4625
3089.60118	6301.5625
3091.97576	6297.5625
3094.3489	6301.8625
3096.72061	6296.0625
3099.09087	6300.9625
3101.4597	6314.2625
3103.82709	6292.4625
3106.19305	6297.6625
3108.55757	6286.9625
3110.92066	6280.0625
3113.28232	6247.8625
3115.64255	6250.1625
3118.00134	6230.0625
3120.35871	6222.9625
3122.71466	6210.7625
3125.06917	6209.3625
3127.42226	6208.3625
3129.77393	6190.9625
3132.12417	6184.8625
3134.47299	6183.2625
3136.82039	6190.3625
3139.16636	6190.8625
3141.51092	6183.5625
3143.85406	6191.3625
3146.19579	6196.0625
3148.53609	6200.7625
3150.87499	6193.7625
3153.21246	6199.8625
3155.54853	6211.0625
3157.88318	6213.9625
3160.21642	6201.4625
3162.54826	6206.5625
3164.87868	6199.9625
3167.2077	6200.8625
3169.5353	6202.6625
3171.86151	6197.6625
3174.18631	6199.8625
3176.5097	6193.0625
3178.83169	6191.1625
3181.15228	6187.4625
3183.47147	6157.8625
3185.78926	6169.4625
3188.10565	6148.4625
3190.42065	6140.8625
3192.73424	6143.6625
3195.04645	6138.3625
3197.35725	6144.8625
3199.66667	6139.2625
3201.97469	6140.2625
3204.28132	6132.6625
3206.58656	6155.8625
3208.8904	6143.3625
3211.19287	6151.0625
3213.49394	6151.6625
3215.79363	6135.9625
3218.09193	6144.1625
3220.38884	6147.6625
3222.68438	6131.0625
3224.97853	6112.7625
3227.2713	6118.9625
3229.56269	6126.1625
3231.8527	6118.9625
3234.14133	6117.5625
3236.42858	6088.1625
3238.71446	6077.9625
3240.99896	6064.0625
3243.28209	6048.0625
3245.56384	6051.5625
3247.84423	6038.3625
3250.12324	6036.9625
3252.40088	6027.5625
3254.67715	6020.8625
3256.95205	6037.8625
3259.22558	6025.3625
3261.49775	6013.8625
3263.76855	6009.9625
3266.03799	5981.4625
3268.30606	5987.9625
3270.57277	5969.8625
3272.83812	5970.7625
3275.10211	5934.2625
3277.36474	5927.8625
3279.62601	5925.0625
3281.88593	5894.8625
3284.14448	5918.6625
3286.40168	5926.7625
3288.65753	5925.9625
3290.91202	5921.0625
3293.16516	5899.1625
3295.41695	5863.8625
3297.66738	5840.4625
3299.91647	5819.8625
3302.16421	5758.3625
3304.4106	5758.2625
3306.65564	5737.8625
3308.89933	5686.6625
3311.14169	5644.0625
3313.38269	5608.2625
3315.62236	5561.7625
3317.86068	5515.7625
3320.09766	5481.4625
3322.3333	5438.2625
3324.5676	5434.4625
3326.80056	5342.1625
3329.03219	5319.9625
3331.26248	1.6625
3333.49143	-0.2375
3335.71905	-1.0375
