Data from AgNPs_FTO_APTES_UA_1uM_CRN_2uM_R6G_10uM_NaF_0.1M_Addition_RamanShift__2__12-57-39-529.txt Node

Date: Thu Jan 27 12:57:39 GMT 2022
User: TCL
Spectrometer: QEP01345
Trigger mode: 4
Integration Time (sec): 7.000000E0
Scans to average: 10
Electric dark correction enabled: true
Nonlinearity correction enabled: false
Boxcar width: 0
XAxis mode: Raman Shifts
Number of Pixels in Spectrum: 1044
>>>>>Begin Spectral Data<<<<<
46.04893	-0.1625
50.45542	0.3375
54.85868	-0.4625
59.25871	-1.5625
63.6555	59.3375
68.04907	65.0375
72.43941	61.4375
76.82654	72.0375
81.21044	72.3375
85.59113	73.2375
89.96862	75.8375
94.34289	78.5375
98.71396	81.1375
103.08183	81.1375
107.4465	86.1375
111.80798	91.9375
116.16626	87.9375
120.52136	100.6375
124.87327	96.8375
129.222	98.9375
133.56755	105.7375
137.90993	109.4375
142.24913	120.9375
146.58517	134.1375
150.91804	155.2375
155.24774	179.5375
159.57429	219.0375
163.89768	275.2375
168.21792	354.9375
172.53501	489.3375
176.84895	673.6375
181.15975	940.7375
185.46741	1310.7375
189.77193	1814.4375
194.07331	2425.0375
198.37157	3128.6375
202.6667	3874.8375
206.9587	4601.6375
211.24758	5314.5375
215.53334	6053.4375
219.81599	6825.3375
224.09553	7666.9375
228.37195	8609.8375
232.64527	9630.9375
236.91549	10723.3375
241.18261	11809.7375
245.44663	12834.4375
249.70755	13742.3375
253.96539	14532.7375
258.22014	15214.0375
262.4718	15803.5375
266.72039	16190.9375
270.96589	16354.8375
275.20832	16353.7375
279.44768	16223.9375
283.68397	16011.7375
287.91719	15807.2375
292.14735	15677.5375
296.37445	15604.5375
300.59849	15629.3375
304.81948	15698.3375
309.03742	15749.9375
313.25231	15739.9375
317.46415	15553.8375
321.67296	15333.0375
325.87872	15134.5375
330.08145	15043.2375
334.28114	15050.4375
338.47781	15121.8375
342.67145	15314.8375
346.86207	15525.3375
351.04966	15835.0375
355.23424	16158.4375
359.4158	16448.5375
363.59435	16676.8375
367.76989	16834.2375
371.94243	16995.2375
376.11196	17078.4375
380.27849	17191.5375
384.44203	17322.7375
388.60257	17447.5375
392.76012	17595.5375
396.91468	17760.1375
401.06626	18015.3375
405.21485	18199.8375
409.36047	18190.6375
413.50311	18115.6375
417.64277	18024.0375
421.77947	18024.4375
425.9132	18170.9375
430.04396	18269.2375
434.17176	18357.1375
438.2966	18518.0375
442.41849	18761.3375
446.53742	19277.1375
450.6534	19864.5375
454.76644	20278.0375
458.87653	20296.9375
462.98368	20153.6375
467.08789	19860.5375
471.18916	19440.1375
475.2875	19030.2375
479.38291	18693.8375
483.4754	18466.0375
487.56496	18330.7375
491.6516	18193.1375
495.73531	18172.3375
499.81612	18205.4375
503.89401	18381.3375
507.96899	18430.4375
512.04106	18370.3375
516.11023	18248.3375
520.1765	18201.1375
524.23987	18137.5375
528.30034	18075.9375
532.35792	17978.4375
536.41261	17786.3375
540.46441	17528.3375
544.51333	17454.7375
548.55936	17527.1375
552.60252	17825.4375
556.64279	18182.6375
560.6802	18425.9375
564.71473	18433.9375
568.7464	18543.0375
572.7752	18809.9375
576.80114	19170.3375
580.82422	19672.9375
584.84444	20396.1375
588.86181	21352.7375
592.87633	22241.9375
596.888	22385.4375
600.89682	21676.9375
604.9028	21559.9375
608.90594	22937.2375
612.90624	24576.8375
616.90371	23514.4375
620.89834	20427.8375
624.89015	18997.5375
628.87913	18787.6375
632.86528	18638.4375
636.84862	18401.0375
640.82913	18031.1375
644.80683	17613.1375
648.78172	17468.0375
652.75379	17456.1375
656.72306	17690.1375
660.68952	17986.7375
664.65319	17926.6375
668.61405	17664.8375
672.57211	17622.7375
676.52738	17729.2375
680.47986	17687.5375
684.42955	17583.3375
688.37646	17510.9375
692.32058	17654.3375
696.26192	17926.0375
700.20048	18201.3375
704.13626	18284.5375
708.06928	18160.1375
711.99952	17976.5375
715.927	17984.7375
719.85171	18142.2375
723.77365	18076.5375
727.69284	17829.2375
731.60928	17589.0375
735.52295	17512.3375
739.43388	17555.3375
743.34206	17628.6375
747.24749	17706.8375
751.15017	17832.6375
755.05012	18100.2375
758.94733	18500.2375
762.8418	19088.7375
766.73354	20095.5375
770.62254	21086.9375
774.50882	21397.7375
778.39237	20855.0375
782.27321	19760.2375
786.15132	18848.6375
790.02671	18325.3375
793.89938	18051.4375
797.76935	17985.2375
801.6366	17957.4375
805.50115	17917.5375
809.36299	17801.3375
813.22213	17664.6375
817.07857	17563.1375
820.93231	17513.9375
824.78336	17513.1375
828.63172	17529.8375
832.47738	17581.6375
836.32036	17690.8375
840.16066	17891.6375
843.99827	17994.9375
847.8332	17907.8375
851.66546	17755.3375
855.49504	17686.0375
859.32195	17684.9375
863.1462	17597.3375
866.96777	17563.8375
870.78668	17436.4375
874.60293	17470.0375
878.41652	17474.5375
882.22745	17531.3375
886.03573	17635.8375
889.84136	17658.1375
893.64433	17538.5375
897.44466	17418.8375
901.24235	17368.0375
905.0374	17360.9375
908.8298	17271.4375
912.61957	17308.7375
916.40671	17460.2375
920.19121	17714.1375
923.97308	18013.3375
927.75233	18219.2375
931.52895	18227.4375
935.30295	18086.2375
939.07433	17817.0375
942.84309	17603.3375
946.60924	17584.4375
950.37278	17538.9375
954.13371	17457.0375
957.89203	17305.6375
961.64774	17232.5375
965.40086	17204.9375
969.15137	17190.9375
972.89929	17197.2375
976.64461	17230.4375
980.38733	17341.0375
984.12747	17473.1375
987.86502	17693.0375
991.59999	17990.6375
995.33237	18481.2375
999.06217	19176.0375
1002.78939	20019.9375
1006.51404	20476.4375
1010.23611	20678.7375
1013.95561	20668.2375
1017.67255	20538.1375
1021.38692	20261.1375
1025.09872	20115.0375
1028.80796	20555.5375
1032.51465	21715.3375
1036.21877	22833.8375
1039.92035	23138.8375
1043.61937	22680.4375
1047.31584	21759.7375
1051.00976	20682.4375
1054.70114	19992.8375
1058.38998	19666.1375
1062.07627	19546.9375
1065.76003	19452.8375
1069.44126	19499.3375
1073.11995	19750.6375
1076.79611	20039.0375
1080.46974	20264.4375
1084.14085	20397.1375
1087.80943	20470.0375
1091.47549	20497.5375
1095.13903	20439.5375
1098.80005	20134.3375
1102.45857	19859.8375
1106.11456	19594.2375
1109.76805	19495.9375
1113.41903	19474.3375
1117.06751	19507.1375
1120.71348	19543.9375
1124.35696	19634.6375
1127.99793	19815.0375
1131.63641	19966.6375
1135.2724	19880.2375
1138.90589	19789.2375
1142.5369	19771.1375
1146.16542	19807.8375
1149.79145	19839.4375
1153.415	19870.5375
1157.03607	20005.9375
1160.65467	20381.1375
1164.27079	21066.7375
1167.88443	22012.2375
1171.49561	23082.4375
1175.10432	24460.3375
1178.71056	26230.9375
1182.31434	28123.7375
1185.91565	29177.7375
1189.51451	29168.4375
1193.11091	28343.0375
1196.70485	27280.0375
1200.29634	26338.4375
1203.88538	25728.2375
1207.47197	25327.9375
1211.05612	24966.5375
1214.63782	24458.2375
1218.21708	24055.7375
1221.79391	23832.0375
1225.36829	23632.2375
1228.94024	23331.2375
1232.50976	22797.7375
1236.07685	22315.6375
1239.6415	22067.9375
1243.20374	22143.6375
1246.76355	22385.8375
1250.32093	22871.7375
1253.8759	23434.3375
1257.42845	24107.0375
1260.97859	24756.4375
1264.52631	25500.7375
1268.07163	26336.0375
1271.61453	27280.5375
1275.15503	28200.5375
1278.69312	29101.9375
1282.22882	29709.6375
1285.76211	30223.0375
1289.29301	30788.1375
1292.82151	31630.1375
1296.34761	32967.2375
1299.87133	34952.0375
1303.39266	37325.1375
1306.9116	39714.6375
1310.42815	41411.3375
1313.94233	41856.4375
1317.45412	40878.9375
1320.96354	39243.9375
1324.47058	37648.2375
1327.97525	36408.9375
1331.47754	35616.2375
1334.97747	35110.1375
1338.47502	34671.4375
1341.97022	34033.4375
1345.46305	33249.2375
1348.95352	32923.1375
1352.44163	33431.2375
1355.92738	35113.1375
1359.41078	37541.2375
1362.89183	39285.8375
1366.37053	38789.4375
1369.84688	35801.3375
1373.32088	32046.3375
1376.79254	29281.4375
1380.26186	28174.9375
1383.72883	27912.0375
1387.19347	27830.8375
1390.65578	27384.9375
1394.11575	27100.9375
1397.57339	27132.7375
1401.0287	27315.9375
1404.48168	27571.5375
1407.93234	27699.4375
1411.38068	27564.0375
1414.82669	27168.4375
1418.27039	26546.1375
1421.71177	25823.5375
1425.15083	25177.6375
1428.58758	24908.7375
1432.02203	25170.3375
1435.45416	25838.0375
1438.88399	26528.1375
1442.31151	26976.6375
1445.73673	27096.1375
1449.15965	27123.3375
1452.58027	26958.1375
1455.9986	26723.9375
1459.41463	26679.0375
1462.82837	27023.3375
1466.23982	27622.5375
1469.64898	28266.7375
1473.05586	28775.8375
1476.46045	29046.3375
1479.86276	28997.2375
1483.26279	28734.1375
1486.66054	28524.3375
1490.05602	28582.1375
1493.44922	28762.9375
1496.84016	28849.0375
1500.22882	28919.1375
1503.61521	29283.0375
1506.99934	29876.3375
1510.38121	30362.2375
1513.76081	30443.0375
1517.13816	29901.1375
1520.51324	28972.5375
1523.88607	28230.4375
1527.25665	27853.3375
1530.62498	27799.1375
1533.99105	27838.1375
1537.35488	27662.2375
1540.71647	27354.7375
1544.07581	26995.1375
1547.4329	26614.0375
1550.78776	26266.1375
1554.14038	25989.6375
1557.49077	25746.3375
1560.83892	25475.7375
1564.18484	25240.2375
1567.52853	25171.6375
1570.86999	25292.1375
1574.20922	25545.7375
1577.54624	25797.5375
1580.88103	25936.1375
1584.2136	26326.8375
1587.54395	27337.5375
1590.87208	29064.8375
1594.19801	31228.1375
1597.52172	33206.2375
1600.84321	33812.6375
1604.16251	32342.3375
1607.47959	29609.3375
1610.79447	26725.2375
1614.10715	24350.3375
1617.41763	22606.2375
1620.7259	21616.4375
1624.03199	21231.0375
1627.33587	21388.6375
1630.63757	22067.5375
1633.93707	23205.8375
1637.23439	24944.7375
1640.52951	27358.0375
1643.82246	30265.5375
1647.11321	32464.3375
1650.40179	32592.5375
1653.68819	30165.5375
1656.97241	26391.8375
1660.25446	23029.7375
1663.53433	20757.0375
1666.81203	19364.6375
1670.08756	18533.3375
1673.36092	18025.1375
1676.63211	17685.1375
1679.90115	17462.4375
1683.16801	17265.0375
1686.43272	17115.8375
1689.69527	17003.6375
1692.95567	16887.1375
1696.2139	16841.1375
1699.46999	16773.5375
1702.72392	16750.5375
1705.97571	16746.3375
1709.22535	16741.8375
1712.47284	16789.0375
1715.71819	16767.9375
1718.96139	16737.6375
1722.20246	16721.4375
1725.44139	16676.9375
1728.67818	16601.8375
1731.91284	16559.7375
1735.14537	16443.8375
1738.37576	16430.6375
1741.60403	16367.8375
1744.83017	16279.7375
1748.05418	16264.9375
1751.27607	16203.8375
1754.49584	16170.6375
1757.71349	16190.1375
1760.92903	16169.2375
1764.14244	16136.2375
1767.35375	16145.0375
1770.56294	16148.4375
1773.77002	16128.3375
1776.97499	16125.6375
1780.17785	16173.3375
1783.37861	16137.3375
1786.57727	16136.0375
1789.77382	16158.0375
1792.96828	16093.5375
1796.16064	16105.8375
1799.3509	16074.3375
1802.53907	16060.3375
1805.72514	16004.7375
1808.90913	15983.2375
1812.09102	15969.5375
1815.27083	15941.5375
1818.44856	15916.4375
1821.6242	15902.0375
1824.79776	15890.3375
1827.96924	15880.7375
1831.13864	15895.8375
1834.30597	15894.5375
1837.47122	15879.0375
1840.6344	15882.6375
1843.7955	15877.7375
1846.95454	15858.0375
1850.11151	15847.7375
1853.26642	15867.9375
1856.41926	15895.1375
1859.57004	15908.8375
1862.71876	15842.7375
1865.86542	15840.4375
1869.01003	15854.4375
1872.15258	15828.0375
1875.29308	15814.8375
1878.43152	15826.2375
1881.56792	15823.7375
1884.70227	15793.8375
1887.83457	15803.1375
1890.96482	15752.9375
1894.09304	15752.9375
1897.21921	15763.4375
1900.34335	15748.2375
1903.46544	15737.0375
1906.58551	15726.7375
1909.70353	15723.4375
1912.81953	15690.3375
1915.93349	15688.1375
1919.04543	15657.7375
1922.15534	15665.3375
1925.26322	15599.9375
1928.36908	15593.2375
1931.47292	15567.2375
1934.57473	15553.3375
1937.67453	15507.0375
1940.77232	15465.6375
1943.86808	15452.9375
1946.96184	15384.2375
1950.05358	15372.5375
1953.14331	15320.7375
1956.23103	15284.2375
1959.31675	15289.6375
1962.40046	15215.0375
1965.48217	15204.5375
1968.56188	15153.6375
1971.63959	15106.6375
1974.7153	15096.5375
1977.78901	15034.9375
1980.86073	14984.6375
1983.93046	14958.3375
1986.99819	14929.4375
1990.06394	14880.4375
1993.1277	14864.8375
1996.18947	14805.5375
1999.24925	14792.1375
2002.30706	14708.9375
2005.36288	14683.0375
2008.41672	14678.9375
2011.46859	14640.9375
2014.51848	14620.3375
2017.56639	14581.4375
2020.61233	14562.5375
2023.6563	14555.6375
2026.6983	14513.9375
2029.73833	14462.4375
2032.7764	14485.7375
2035.8125	14481.9375
2038.84664	14470.4375
2041.87881	14446.9375
2044.90903	14444.3375
2047.93729	14392.8375
2050.96359	14391.4375
2053.98794	14372.6375
2057.01034	14362.8375
2060.03078	14360.4375
2063.04927	14386.3375
2066.06582	14369.8375
2069.08042	14351.2375
2072.09307	14322.5375
2075.10378	14316.7375
2078.11255	14333.5375
2081.11938	14318.7375
2084.12426	14312.9375
2087.12722	14310.6375
2090.12824	14271.4375
2093.12732	14312.3375
2096.12447	14343.6375
2099.11969	14316.1375
2102.11299	14355.4375
2105.10435	14372.9375
2108.09379	14405.8375
2111.08131	14399.2375
2114.0669	14389.2375
2117.05057	14436.7375
2120.03233	14430.1375
2123.01216	14450.5375
2125.99008	14436.5375
2128.96609	14454.3375
2131.94018	14472.7375
2134.91236	14465.1375
2137.88263	14520.3375
2140.851	14489.3375
2143.81746	14568.7375
2146.78201	14559.8375
2149.74466	14563.4375
2152.7054	14569.2375
2155.66425	14573.2375
2158.6212	14571.5375
2161.57625	14554.8375
2164.52941	14557.9375
2167.48067	14574.6375
2170.43004	14543.4375
2173.37752	14557.4375
2176.32311	14563.2375
2179.26681	14592.8375
2182.20863	14586.3375
2185.14856	14576.2375
2188.08661	14620.5375
2191.02278	14637.5375
2193.95707	14634.4375
2196.88948	14657.0375
2199.82001	14671.3375
2202.74867	14646.6375
2205.67545	14661.8375
2208.60037	14621.8375
2211.52341	14609.9375
2214.44458	14593.3375
2217.36388	14588.0375
2220.28132	14592.1375
2223.1969	14566.6375
2226.11061	14597.5375
2229.02246	14549.5375
2231.93245	14539.3375
2234.84058	14506.8375
2237.74686	14484.9375
2240.65128	14487.1375
2243.55385	14474.8375
2246.45456	14452.7375
2249.35343	14423.7375
2252.25044	14404.6375
2255.14561	14391.5375
2258.03893	14374.8375
2260.93041	14333.8375
2263.82004	14324.2375
2266.70783	14328.0375
2269.59378	14268.3375
2272.4779	14233.9375
2275.36017	14241.2375
2278.24061	14242.2375
2281.11922	14209.2375
2283.996	14220.9375
2286.87094	14214.7375
2289.74405	14189.6375
2292.61534	14163.9375
2295.4848	14207.9375
2298.35243	14220.1375
2301.21824	14234.4375
2304.08223	14225.2375
2306.94439	14282.8375
2309.80474	14280.0375
2312.66327	14291.4375
2315.51999	14301.9375
2318.37489	14307.7375
2321.22797	14286.5375
2324.07925	14289.9375
2326.92871	14257.2375
2329.77637	14256.2375
2332.62222	14246.2375
2335.46626	14210.7375
2338.3085	14236.0375
2341.14893	14248.5375
2343.98756	14260.6375
2346.8244	14250.2375
2349.65943	14260.0375
2352.49267	14242.2375
2355.32411	14229.3375
2358.15376	14202.9375
2360.98161	14192.1375
2363.80768	14195.1375
2366.63195	14165.4375
2369.45444	14123.6375
2372.27514	14099.3375
2375.09405	14082.7375
2377.91118	14064.6375
2380.72652	14068.8375
2383.54009	14028.5375
2386.35187	14010.8375
2389.16188	13997.9375
2391.97011	13980.6375
2394.77657	14004.3375
2397.58125	14001.0375
2400.38416	13983.8375
2403.18529	13955.7375
2405.98466	13932.9375
2408.78226	13921.2375
2411.57809	13886.0375
2414.37216	13853.2375
2417.16446	13854.5375
2419.955	13835.7375
2422.74378	13829.5375
2425.5308	13818.8375
2428.31606	13805.1375
2431.09956	13790.8375
2433.88131	13777.5375
2436.6613	13803.3375
2439.43954	13826.3375
2442.21603	13803.5375
2444.99077	13782.7375
2447.76377	13819.9375
2450.53501	13791.8375
2453.30451	13823.5375
2456.07226	13810.9375
2458.83827	13765.3375
2461.60254	13790.6375
2464.36507	13808.8375
2467.12586	13766.6375
2469.88492	13824.9375
2472.64224	13861.9375
2475.39782	13832.9375
2478.15167	13839.4375
2480.90379	13842.7375
2483.65417	13873.0375
2486.40283	13885.2375
2489.14976	13915.7375
2491.89497	13892.5375
2494.63845	13891.0375
2497.3802	13879.8375
2500.12024	13885.9375
2502.85855	13864.4375
2505.59514	13868.7375
2508.33002	13850.7375
2511.06318	13842.5375
2513.79462	13843.9375
2516.52435	13850.2375
2519.25237	13831.4375
2521.97867	13806.8375
2524.70327	13821.3375
2527.42616	13849.6375
2530.14734	13817.2375
2532.86681	13803.6375
2535.58458	13819.1375
2538.30065	13811.4375
2541.01501	13797.6375
2543.72768	13781.4375
2546.43864	13800.8375
2549.14791	13788.7375
2551.85548	13787.3375
2554.56136	13785.1375
2557.26554	13761.3375
2559.96803	13765.6375
2562.66883	13806.8375
2565.36794	13788.3375
2568.06536	13791.1375
2570.7611	13753.6375
2573.45514	13729.8375
2576.14751	13734.2375
2578.83819	13755.9375
2581.52719	13759.3375
2584.21451	13727.4375
2586.90015	13755.4375
2589.58411	13737.4375
2592.2664	13713.2375
2594.94701	13715.9375
2597.62594	13685.1375
2600.30321	13677.3375
2602.9788	13683.0375
2605.65273	13681.2375
2608.32498	13683.1375
2610.99557	13667.5375
2613.66449	13689.3375
2616.33175	13671.4375
2618.99734	13692.4375
2621.66128	13674.0375
2624.32355	13663.0375
2626.98416	13668.5375
2629.64311	13662.3375
2632.30041	13663.8375
2634.95605	13627.0375
2637.61004	13608.4375
2640.26238	13598.7375
2642.91306	13598.7375
2645.56209	13596.8375
2648.20948	13591.7375
2650.85521	13593.1375
2653.4993	13575.9375
2656.14175	13571.4375
2658.78255	13601.0375
2661.42171	13595.9375
2664.05923	13634.8375
2666.6951	13629.9375
2669.32934	13624.1375
2671.96194	13642.2375
2674.59291	13673.7375
2677.22224	13657.4375
2679.84993	13619.5375
2682.476	13603.3375
2685.10043	13613.1375
2687.72324	13602.3375
2690.34441	13575.4375
2692.96396	13589.8375
2695.58188	13605.4375
2698.19818	13572.8375
2700.81285	13601.2375
2703.4259	13587.9375
2706.03733	13564.0375
2708.64714	13571.4375
2711.25533	13621.6375
2713.86191	13610.6375
2716.46687	13645.8375
2719.07021	13619.3375
2721.67194	13650.0375
2724.27206	13673.4375
2726.87057	13706.5375
2729.46747	13669.1375
2732.06276	13683.5375
2734.65644	13689.3375
2737.24852	13699.2375
2739.83899	13693.8375
2742.42786	13708.4375
2745.01513	13668.8375
2747.60079	13664.5375
2750.18486	13648.0375
2752.76733	13666.8375
2755.3482	13672.3375
2757.92747	13681.0375
2760.50515	13654.1375
2763.08123	13649.4375
2765.65573	13649.0375
2768.22863	13641.9375
2770.79994	13626.4375
2773.36967	13645.6375
2775.9378	13661.9375
2778.50435	13632.0375
2781.06932	13642.6375
2783.6327	13639.8375
2786.1945	13613.3375
2788.75471	13586.1375
2791.31335	13603.6375
2793.87041	13587.3375
2796.42589	13557.6375
2798.97979	13550.5375
2801.53212	13528.1375
2804.08288	13524.4375
2806.63206	13481.2375
2809.17967	13450.5375
2811.72571	13426.8375
2814.27018	13412.7375
2816.81308	13419.1375
2819.35442	13411.4375
2821.89419	13412.9375
2824.43239	13412.1375
2826.96904	13380.0375
2829.50412	13404.4375
2832.03763	13348.4375
2834.56959	13353.8375
2837.1	13341.8375
2839.62884	13351.6375
2842.15613	13356.6375
2844.68186	13400.7375
2847.20604	13399.5375
2849.72867	13397.0375
2852.24974	13386.7375
2854.76927	13390.7375
2857.28724	13387.2375
2859.80367	13391.9375
2862.31855	13359.9375
2864.83189	13366.1375
2867.34368	13319.8375
2869.85393	13328.9375
2872.36264	13331.6375
2874.8698	13340.6375
2877.37543	13330.2375
2879.87952	13318.2375
2882.38207	13328.9375
2884.88308	13354.0375
2887.38256	13371.2375
2889.88051	13382.7375
2892.37692	13377.7375
2894.8718	13392.8375
2897.36515	13390.3375
2899.85698	13404.6375
2902.34727	13451.1375
2904.83604	13436.8375
2907.32328	13475.6375
2909.809	13497.1375
2912.29319	13487.5375
2914.77587	13492.1375
2917.25702	13481.3375
2919.73665	13452.6375
2922.21476	13487.3375
2924.69136	13463.1375
2927.16644	13429.8375
2929.64	13424.1375
2932.11205	13443.7375
2934.58258	13380.9375
2937.05161	13418.0375
2939.51912	13412.7375
2941.98513	13373.3375
2944.44962	13362.9375
2946.91261	13305.2375
2949.37409	13328.7375
2951.83407	13317.5375
2954.29254	13321.8375
2956.74951	13308.5375
2959.20498	13304.0375
2961.65895	13290.9375
2964.11142	13301.7375
2966.56239	13284.9375
2969.01186	13282.7375
2971.45984	13235.4375
2973.90632	13243.5375
2976.35131	13218.6375
2978.7948	13185.1375
2981.23681	13147.2375
2983.67732	13142.9375
2986.11635	13128.4375
2988.55388	13085.5375
2990.98993	13073.9375
2993.4245	13063.3375
2995.85758	13023.0375
2998.28917	12992.3375
3000.71928	12984.5375
3003.14791	12967.1375
3005.57506	12969.1375
3008.00073	12934.0375
3010.42493	12956.1375
3012.84764	12939.4375
3015.26888	12933.6375
3017.68865	12897.9375
3020.10694	12919.2375
3022.52376	12872.1375
3024.9391	12859.1375
3027.35298	12871.9375
3029.76539	12855.2375
3032.17632	12844.0375
3034.5858	12812.3375
3036.9938	12843.6375
3039.40034	12830.1375
3041.80542	12858.0375
3044.20903	12821.6375
3046.61118	12793.8375
3049.01187	12770.4375
3051.4111	12796.3375
3053.80888	12782.6375
3056.20519	12751.2375
3058.60005	12698.8375
3060.99345	12701.4375
3063.3854	12654.3375
3065.7759	12628.0375
3068.16494	12649.2375
3070.55254	12624.3375
3072.93868	12595.6375
3075.32338	12572.1375
3077.70662	12539.3375
3080.08842	12533.7375
3082.46878	12538.5375
3084.84769	12517.5375
3087.22515	12531.5375
3089.60118	12505.0375
3091.97576	12500.0375
3094.3489	12517.7375
3096.72061	12524.1375
3099.09087	12525.5375
3101.4597	12530.3375
3103.82709	12538.2375
3106.19305	12498.6375
3108.55757	12531.0375
3110.92066	12484.0375
3113.28232	12488.8375
3115.64255	12452.1375
3118.00134	12452.4375
3120.35871	12444.4375
3122.71466	12401.7375
3125.06917	12410.5375
3127.42226	12362.2375
3129.77393	12387.7375
3132.12417	12376.4375
3134.47299	12394.9375
3136.82039	12355.0375
3139.16636	12378.4375
3141.51092	12380.6375
3143.85406	12414.4375
3146.19579	12404.9375
3148.53609	12395.9375
3150.87499	12420.6375
3153.21246	12424.8375
3155.54853	12416.3375
3157.88318	12413.5375
3160.21642	12432.5375
3162.54826	12429.9375
3164.87868	12425.5375
3167.2077	12410.5375
3169.5353	12417.5375
3171.86151	12459.2375
3174.18631	12440.2375
3176.5097	12428.2375
3178.83169	12408.5375
3181.15228	12401.3375
3183.47147	12386.9375
3185.78926	12395.5375
3188.10565	12377.8375
3190.42065	12393.0375
3192.73424	12389.3375
3195.04645	12365.6375
3197.35725	12395.9375
3199.66667	12342.5375
3201.97469	12367.3375
3204.28132	12342.6375
3206.58656	12398.1375
3208.8904	12377.6375
3211.19287	12411.7375
3213.49394	12421.5375
3215.79363	12404.8375
3218.09193	12421.5375
3220.38884	12396.9375
3222.68438	12419.7375
3224.97853	12398.7375
3227.2713	12373.1375
3229.56269	12377.9375
3231.8527	12389.4375
3234.14133	12367.2375
3236.42858	12353.2375
3238.71446	12351.5375
3240.99896	12289.3375
3243.28209	12353.8375
3245.56384	12312.2375
3247.84423	12310.1375
3250.12324	12291.8375
3252.40088	12277.5375
3254.67715	12331.0375
3256.95205	12314.1375
3259.22558	12307.4375
3261.49775	12274.8375
3263.76855	12261.1375
3266.03799	12216.2375
3268.30606	12224.5375
3270.57277	12230.4375
3272.83812	12220.4375
3275.10211	12136.6375
3277.36474	12138.7375
3279.62601	12137.4375
3281.88593	12106.6375
3284.14448	12139.7375
3286.40168	12164.6375
3288.65753	12162.5375
3290.91202	12171.9375
3293.16516	12114.2375
3295.41695	12102.7375
3297.66738	12010.6375
3299.91647	11974.1375
3302.16421	11897.3375
3304.4106	11871.3375
3306.65564	11812.9375
3308.89933	11762.1375
3311.14169	11695.8375
3313.38269	11603.3375
3315.62236	11537.2375
3317.86068	11431.5375
3320.09766	11340.6375
3322.3333	11310.9375
3324.5676	11287.6375
3326.80056	11095.6375
3329.03219	11029.2375
3331.26248	3.4375
3333.49143	0.6375
3335.71905	-1.4625
