Data from AgNPs_FTO_APTES_UA_1uM_CRN_10uM_R6G_10uM_NaF_0.1M_Addition_RamanShift__32__14-53-09-663.txt Node

Date: Thu Jan 27 14:53:09 GMT 2022
User: TCL
Spectrometer: QEP01345
Trigger mode: 4
Integration Time (sec): 7.000000E0
Scans to average: 10
Electric dark correction enabled: true
Nonlinearity correction enabled: false
Boxcar width: 0
XAxis mode: Raman Shifts
Number of Pixels in Spectrum: 1044
>>>>>Begin Spectral Data<<<<<
46.04893	1.7875
50.45542	1.1875
54.85868	-0.9125
59.25871	-1.2125
63.6555	31.3875
68.04907	33.1875
72.43941	33.3875
76.82654	39.2875
81.21044	40.4875
85.59113	42.1875
89.96862	44.3875
94.34289	42.3875
98.71396	47.0875
103.08183	43.5875
107.4465	48.5875
111.80798	49.8875
116.16626	48.2875
120.52136	52.5875
124.87327	50.1875
129.222	45.7875
133.56755	49.6875
137.90993	52.4875
142.24913	55.9875
146.58517	55.0875
150.91804	61.9875
155.24774	71.3875
159.57429	79.8875
163.89768	97.4875
168.21792	127.1875
172.53501	164.3875
176.84895	216.0875
181.15975	299.4875
185.46741	406.8875
189.77193	555.5875
194.07331	742.5875
198.37157	952.9875
202.6667	1175.7875
206.9587	1391.3875
211.24758	1611.7875
215.53334	1854.2875
219.81599	2112.9875
224.09553	2414.5875
228.37195	2753.6875
232.64527	3113.3875
236.91549	3468.9875
241.18261	3800.5875
245.44663	4012.1875
249.70755	4201.1875
253.96539	4346.4875
258.22014	4497.8875
262.4718	4627.4875
266.72039	4756.4875
270.96589	4828.7875
275.20832	4831.7875
279.44768	4796.9875
283.68397	4733.2875
287.91719	4692.0875
292.14735	4721.8875
296.37445	4835.6875
300.59849	5075.0875
304.81948	5364.0875
309.03742	5583.2875
313.25231	5588.3875
317.46415	5287.4875
321.67296	4789.7875
325.87872	4368.1875
330.08145	4160.0875
334.28114	4128.6875
338.47781	4205.3875
342.67145	4359.7875
346.86207	4584.0875
351.04966	4932.6875
355.23424	5309.2875
359.4158	5621.5875
363.59435	5756.6875
367.76989	5780.9875
371.94243	5754.5875
376.11196	5679.1875
380.27849	5633.3875
384.44203	5513.6875
388.60257	5395.1875
392.76012	5325.2875
396.91468	5399.3875
401.06626	5544.7875
405.21485	5679.9875
409.36047	5548.1875
413.50311	5199.7875
417.64277	4835.7875
421.77947	4638.4875
425.9132	4540.3875
430.04396	4501.3875
434.17176	4525.2875
438.2966	4579.3875
442.41849	4682.4875
446.53742	4842.9875
450.6534	4969.2875
454.76644	5046.9875
458.87653	5059.7875
462.98368	5020.2875
467.08789	4917.5875
471.18916	4792.2875
475.2875	4673.8875
479.38291	4585.7875
483.4754	4486.3875
487.56496	4434.7875
491.6516	4391.7875
495.73531	4390.1875
499.81612	4414.9875
503.89401	4483.4875
507.96899	4548.9875
512.04106	4656.1875
516.11023	4748.3875
520.1765	4836.6875
524.23987	4822.8875
528.30034	4681.5875
532.35792	4541.7875
536.41261	4414.6875
540.46441	4287.2875
544.51333	4219.3875
548.55936	4242.6875
552.60252	4362.1875
556.64279	4511.5875
560.6802	4591.8875
564.71473	4665.5875
568.7464	4906.7875
572.7752	5082.2875
576.80114	4896.0875
580.82422	4655.9875
584.84444	4554.6875
588.86181	4491.0875
592.87633	4480.0875
596.888	4532.0875
600.89682	4726.9875
604.9028	5397.9875
608.90594	7249.3875
612.90624	9841.0875
616.90371	9657.8875
620.89834	6388.8875
624.89015	4752.3875
628.87913	4414.7875
632.86528	4447.4875
636.84862	4554.7875
640.82913	4517.7875
644.80683	4300.7875
648.78172	4125.2875
652.75379	4175.2875
656.72306	4390.0875
660.68952	4681.0875
664.65319	4635.1875
668.61405	4330.6875
672.57211	4176.1875
676.52738	4149.1875
680.47986	4165.6875
684.42955	4120.2875
688.37646	4080.8875
692.32058	4093.9875
696.26192	4132.2875
700.20048	4203.0875
704.13626	4238.4875
708.06928	4236.5875
711.99952	4206.1875
715.927	4185.8875
719.85171	4194.2875
723.77365	4196.4875
727.69284	4150.1875
731.60928	4124.4875
735.52295	4085.8875
739.43388	4120.9875
743.34206	4138.4875
747.24749	4156.3875
751.15017	4204.0875
755.05012	4296.4875
758.94733	4557.6875
762.8418	5136.5875
766.73354	6167.7875
770.62254	7324.8875
774.50882	7916.2875
778.39237	7586.3875
782.27321	6462.2875
786.15132	5314.2875
790.02671	4640.8875
793.89938	4342.6875
797.76935	4228.3875
801.6366	4172.0875
805.50115	4121.0875
809.36299	4094.8875
813.22213	4079.2875
817.07857	4047.5875
820.93231	4075.4875
824.78336	4089.9875
828.63172	4095.1875
832.47738	4112.5875
836.32036	4114.4875
840.16066	4062.4875
843.99827	4043.1875
847.8332	4010.8875
851.66546	4004.4875
855.49504	4020.1875
859.32195	4001.0875
863.1462	3978.5875
866.96777	3974.6875
870.78668	3965.6875
874.60293	3961.4875
878.41652	3965.8875
882.22745	4018.4875
886.03573	4044.8875
889.84136	4031.0875
893.64433	3993.5875
897.44466	3993.8875
901.24235	3972.0875
905.0374	3965.6875
908.8298	3952.1875
912.61957	3937.0875
916.40671	3967.2875
920.19121	4003.4875
923.97308	4040.2875
927.75233	4081.8875
931.52895	4139.9875
935.30295	4096.2875
939.07433	3966.7875
942.84309	3839.0875
946.60924	3762.3875
950.37278	3733.6875
954.13371	3704.2875
957.89203	3688.2875
961.64774	3672.7875
965.40086	3654.6875
969.15137	3662.4875
972.89929	3630.6875
976.64461	3630.5875
980.38733	3624.6875
984.12747	3633.4875
987.86502	3639.4875
991.59999	3651.7875
995.33237	3683.3875
999.06217	3757.2875
1002.78939	3829.0875
1006.51404	3942.6875
1010.23611	4045.9875
1013.95561	4121.2875
1017.67255	4103.5875
1021.38692	4032.8875
1025.09872	3954.4875
1028.80796	3899.8875
1032.51465	3903.7875
1036.21877	3937.5875
1039.92035	3997.4875
1043.61937	4027.5875
1047.31584	4033.1875
1051.00976	4011.3875
1054.70114	4002.1875
1058.38998	3996.5875
1062.07627	4025.2875
1065.76003	4037.9875
1069.44126	4062.1875
1073.11995	4108.9875
1076.79611	4178.6875
1080.46974	4268.3875
1084.14085	4389.3875
1087.80943	4540.7875
1091.47549	4606.1875
1095.13903	4527.2875
1098.80005	4328.1875
1102.45857	4173.0875
1106.11456	4098.0875
1109.76805	4103.6875
1113.41903	4208.3875
1117.06751	4375.8875
1120.71348	4594.8875
1124.35696	4839.2875
1127.99793	5062.8875
1131.63641	5079.9875
1135.2724	4785.0875
1138.90589	4490.9875
1142.5369	4317.9875
1146.16542	4222.5875
1149.79145	4147.8875
1153.415	4120.8875
1157.03607	4177.9875
1160.65467	4277.5875
1164.27079	4434.7875
1167.88443	4700.0875
1171.49561	5147.3875
1175.10432	5906.7875
1178.71056	6922.8875
1182.31434	7635.4875
1185.91565	7696.9875
1189.51451	7404.7875
1193.11091	6847.1875
1196.70485	6180.4875
1200.29634	5718.6875
1203.88538	5411.5875
1207.47197	5060.0875
1211.05612	4716.1875
1214.63782	4540.0875
1218.21708	4446.5875
1221.79391	4451.5875
1225.36829	4484.6875
1228.94024	4537.7875
1232.50976	4581.0875
1236.07685	4619.1875
1239.6415	4632.8875
1243.20374	4641.2875
1246.76355	4657.6875
1250.32093	4693.6875
1253.8759	4801.8875
1257.42845	4936.3875
1260.97859	5086.7875
1264.52631	5264.9875
1268.07163	5462.2875
1271.61453	5638.8875
1275.15503	5761.4875
1278.69312	5789.4875
1282.22882	5785.2875
1285.76211	5872.8875
1289.29301	6090.1875
1292.82151	6282.2875
1296.34761	6492.7875
1299.87133	6810.1875
1303.39266	7365.8875
1306.9116	8334.7875
1310.42815	9514.4875
1313.94233	10316.8875
1317.45412	10219.3875
1320.96354	9410.3875
1324.47058	8482.6875
1327.97525	7661.7875
1331.47754	7202.3875
1334.97747	6975.5875
1338.47502	6974.3875
1341.97022	7107.9875
1345.46305	7383.9875
1348.95352	7900.8875
1352.44163	8669.0875
1355.92738	9678.2875
1359.41078	11335.3875
1362.89183	13141.3875
1366.37053	13054.4875
1369.84688	10866.8875
1373.32088	8601.2875
1376.79254	7147.1875
1380.26186	6474.1875
1383.72883	6126.2875
1387.19347	5864.5875
1390.65578	5568.7875
1394.11575	5333.2875
1397.57339	5182.9875
1401.0287	5183.4875
1404.48168	5239.3875
1407.93234	5317.0875
1411.38068	5378.3875
1414.82669	5391.7875
1418.27039	5350.4875
1421.71177	5258.1875
1425.15083	5161.1875
1428.58758	5081.7875
1432.02203	5084.2875
1435.45416	5109.4875
1438.88399	5143.5875
1442.31151	5135.0875
1445.73673	5156.6875
1449.15965	5196.8875
1452.58027	5183.1875
1455.9986	5138.2875
1459.41463	5077.5875
1462.82837	5125.7875
1466.23982	5220.8875
1469.64898	5343.8875
1473.05586	5441.5875
1476.46045	5546.9875
1479.86276	5645.2875
1483.26279	5806.2875
1486.66054	5979.5875
1490.05602	6215.6875
1493.44922	6568.7875
1496.84016	7117.9875
1500.22882	7938.2875
1503.61521	9074.7875
1506.99934	10412.8875
1510.38121	11782.4875
1513.76081	12611.9875
1517.13816	12180.4875
1520.51324	10561.0875
1523.88607	8828.4875
1527.25665	7535.9875
1530.62498	6799.4875
1533.99105	6361.5875
1537.35488	6077.8875
1540.71647	5887.9875
1544.07581	5803.7875
1547.4329	5750.5875
1550.78776	5728.7875
1554.14038	5742.2875
1557.49077	5830.0875
1560.83892	6002.7875
1564.18484	6225.8875
1567.52853	6491.1875
1570.86999	6690.7875
1574.20922	6827.4875
1577.54624	6799.5875
1580.88103	6421.8875
1584.2136	5852.7875
1587.54395	5534.1875
1590.87208	5532.9875
1594.19801	5785.7875
1597.52172	6206.1875
1600.84321	6403.9875
1604.16251	6175.8875
1607.47959	5771.9875
1610.79447	5351.6875
1614.10715	4957.6875
1617.41763	4598.8875
1620.7259	4379.6875
1624.03199	4295.9875
1627.33587	4291.3875
1630.63757	4389.3875
1633.93707	4582.7875
1637.23439	4907.6875
1640.52951	5416.5875
1643.82246	6147.2875
1647.11321	7045.6875
1650.40179	7901.3875
1653.68819	7891.8875
1656.97241	6884.5875
1660.25446	5620.2875
1663.53433	4637.1875
1666.81203	4110.8875
1670.08756	3800.2875
1673.36092	3628.7875
1676.63211	3530.7875
1679.90115	3446.0875
1683.16801	3380.7875
1686.43272	3358.4875
1689.69527	3306.6875
1692.95567	3279.1875
1696.2139	3233.5875
1699.46999	3199.1875
1702.72392	3171.6875
1705.97571	3178.6875
1709.22535	3212.3875
1712.47284	3226.4875
1715.71819	3262.7875
1718.96139	3250.4875
1722.20246	3270.5875
1725.44139	3239.5875
1728.67818	3235.8875
1731.91284	3194.1875
1735.14537	3170.0875
1738.37576	3136.2875
1741.60403	3116.5875
1744.83017	3094.0875
1748.05418	3072.7875
1751.27607	3064.8875
1754.49584	3041.0875
1757.71349	3029.7875
1760.92903	2992.3875
1764.14244	2992.0875
1767.35375	2999.2875
1770.56294	2986.8875
1773.77002	2974.4875
1776.97499	2972.8875
1780.17785	2972.6875
1783.37861	2980.1875
1786.57727	2975.2875
1789.77382	2983.9875
1792.96828	2968.3875
1796.16064	2960.8875
1799.3509	2977.5875
1802.53907	2963.4875
1805.72514	2957.0875
1808.90913	2952.2875
1812.09102	2928.8875
1815.27083	2922.5875
1818.44856	2919.8875
1821.6242	2916.8875
1824.79776	2893.0875
1827.96924	2906.4875
1831.13864	2890.0875
1834.30597	2886.5875
1837.47122	2893.9875
1840.6344	2887.2875
1843.7955	2876.0875
1846.95454	2887.4875
1850.11151	2889.7875
1853.26642	2877.8875
1856.41926	2878.1875
1859.57004	2887.0875
1862.71876	2883.7875
1865.86542	2891.6875
1869.01003	2877.8875
1872.15258	2882.8875
1875.29308	2882.1875
1878.43152	2898.3875
1881.56792	2885.8875
1884.70227	2881.6875
1887.83457	2890.3875
1890.96482	2871.1875
1894.09304	2884.9875
1897.21921	2883.7875
1900.34335	2889.0875
1903.46544	2887.9875
1906.58551	2891.8875
1909.70353	2886.7875
1912.81953	2890.8875
1915.93349	2877.0875
1919.04543	2873.3875
1922.15534	2877.8875
1925.26322	2855.0875
1928.36908	2848.9875
1931.47292	2839.1875
1934.57473	2826.1875
1937.67453	2813.6875
1940.77232	2795.8875
1943.86808	2774.7875
1946.96184	2767.4875
1950.05358	2736.9875
1953.14331	2745.4875
1956.23103	2712.9875
1959.31675	2717.5875
1962.40046	2708.2875
1965.48217	2701.3875
1968.56188	2691.6875
1971.63959	2686.0875
1974.7153	2691.1875
1977.78901	2673.5875
1980.86073	2663.4875
1983.93046	2648.9875
1986.99819	2638.1875
1990.06394	2626.5875
1993.1277	2622.1875
1996.18947	2612.3875
1999.24925	2600.8875
2002.30706	2594.2875
2005.36288	2572.4875
2008.41672	2555.8875
2011.46859	2563.2875
2014.51848	2546.0875
2017.56639	2547.8875
2020.61233	2549.4875
2023.6563	2539.0875
2026.6983	2511.5875
2029.73833	2515.5875
2032.7764	2516.1875
2035.8125	2502.0875
2038.84664	2509.3875
2041.87881	2498.7875
2044.90903	2483.3875
2047.93729	2483.2875
2050.96359	2473.9875
2053.98794	2474.1875
2057.01034	2467.9875
2060.03078	2470.0875
2063.04927	2465.7875
2066.06582	2451.3875
2069.08042	2470.9875
2072.09307	2453.6875
2075.10378	2443.5875
2078.11255	2454.0875
2081.11938	2461.1875
2084.12426	2440.9875
2087.12722	2435.9875
2090.12824	2431.3875
2093.12732	2443.3875
2096.12447	2446.5875
2099.11969	2443.3875
2102.11299	2445.5875
2105.10435	2439.3875
2108.09379	2445.6875
2111.08131	2438.3875
2114.0669	2436.4875
2117.05057	2429.7875
2120.03233	2443.0875
2123.01216	2453.8875
2125.99008	2451.8875
2128.96609	2440.9875
2131.94018	2450.5875
2134.91236	2445.2875
2137.88263	2444.8875
2140.851	2452.1875
2143.81746	2450.9875
2146.78201	2444.1875
2149.74466	2432.9875
2152.7054	2437.9875
2155.66425	2437.6875
2158.6212	2427.7875
2161.57625	2418.7875
2164.52941	2421.1875
2167.48067	2423.1875
2170.43004	2437.0875
2173.37752	2422.2875
2176.32311	2424.7875
2179.26681	2419.6875
2182.20863	2408.9875
2185.14856	2418.3875
2188.08661	2419.6875
2191.02278	2417.0875
2193.95707	2419.5875
2196.88948	2407.8875
2199.82001	2416.8875
2202.74867	2401.3875
2205.67545	2400.2875
2208.60037	2400.6875
2211.52341	2389.7875
2214.44458	2380.3875
2217.36388	2375.5875
2220.28132	2369.9875
2223.1969	2363.5875
2226.11061	2364.6875
2229.02246	2365.2875
2231.93245	2351.6875
2234.84058	2353.9875
2237.74686	2345.3875
2240.65128	2341.0875
2243.55385	2341.4875
2246.45456	2330.2875
2249.35343	2327.4875
2252.25044	2330.3875
2255.14561	2335.3875
2258.03893	2340.0875
2260.93041	2320.4875
2263.82004	2321.5875
2266.70783	2317.1875
2269.59378	2301.8875
2272.4779	2300.4875
2275.36017	2304.7875
2278.24061	2304.8875
2281.11922	2290.4875
2283.996	2289.9875
2286.87094	2271.8875
2289.74405	2273.7875
2292.61534	2255.7875
2295.4848	2247.4875
2298.35243	2247.8875
2301.21824	2251.1875
2304.08223	2257.2875
2306.94439	2255.1875
2309.80474	2244.2875
2312.66327	2237.6875
2315.51999	2247.6875
2318.37489	2246.1875
2321.22797	2239.8875
2324.07925	2247.2875
2326.92871	2238.9875
2329.77637	2235.8875
2332.62222	2223.3875
2335.46626	2222.1875
2338.3085	2213.3875
2341.14893	2222.7875
2343.98756	2223.5875
2346.8244	2220.2875
2349.65943	2212.3875
2352.49267	2232.6875
2355.32411	2211.2875
2358.15376	2230.3875
2360.98161	2233.2875
2363.80768	2240.7875
2366.63195	2227.0875
2369.45444	2236.7875
2372.27514	2235.3875
2375.09405	2245.6875
2377.91118	2221.0875
2380.72652	2207.4875
2383.54009	2195.4875
2386.35187	2191.4875
2389.16188	2169.2875
2391.97011	2164.3875
2394.77657	2159.3875
2397.58125	2158.8875
2400.38416	2148.9875
2403.18529	2148.9875
2405.98466	2139.8875
2408.78226	2124.8875
2411.57809	2138.9875
2414.37216	2116.8875
2417.16446	2124.2875
2419.955	2123.9875
2422.74378	2116.5875
2425.5308	2119.5875
2428.31606	2113.3875
2431.09956	2118.7875
2433.88131	2120.0875
2436.6613	2120.2875
2439.43954	2130.9875
2442.21603	2117.4875
2444.99077	2125.3875
2447.76377	2120.7875
2450.53501	2107.4875
2453.30451	2113.7875
2456.07226	2124.0875
2458.83827	2114.9875
2461.60254	2118.2875
2464.36507	2112.4875
2467.12586	2106.2875
2469.88492	2103.6875
2472.64224	2114.1875
2475.39782	2104.6875
2478.15167	2106.2875
2480.90379	2108.6875
2483.65417	2105.8875
2486.40283	2119.5875
2489.14976	2127.9875
2491.89497	2139.0875
2494.63845	2131.9875
2497.3802	2127.1875
2500.12024	2122.8875
2502.85855	2110.5875
2505.59514	2111.1875
2508.33002	2103.0875
2511.06318	2086.7875
2513.79462	2085.7875
2516.52435	2074.5875
2519.25237	2056.4875
2521.97867	2063.3875
2524.70327	2054.3875
2527.42616	2045.0875
2530.14734	2046.3875
2532.86681	2046.7875
2535.58458	2038.6875
2538.30065	2035.2875
2541.01501	2036.8875
2543.72768	2026.9875
2546.43864	2038.1875
2549.14791	2033.6875
2551.85548	2038.2875
2554.56136	2030.5875
2557.26554	2026.6875
2559.96803	2021.1875
2562.66883	2028.6875
2565.36794	2018.3875
2568.06536	2013.8875
2570.7611	2015.0875
2573.45514	2009.1875
2576.14751	2002.2875
2578.83819	1986.6875
2581.52719	1994.8875
2584.21451	1991.4875
2586.90015	1994.1875
2589.58411	1983.3875
2592.2664	1987.0875
2594.94701	1983.0875
2597.62594	1980.9875
2600.30321	1966.9875
2602.9788	1972.0875
2605.65273	1983.1875
2608.32498	1969.2875
2610.99557	1972.1875
2613.66449	1964.3875
2616.33175	1968.3875
2618.99734	1965.5875
2621.66128	1969.2875
2624.32355	1959.3875
2626.98416	1956.3875
2629.64311	1962.7875
2632.30041	1958.5875
2634.95605	1950.6875
2637.61004	1946.2875
2640.26238	1943.6875
2642.91306	1944.5875
2645.56209	1933.9875
2648.20948	1930.4875
2650.85521	1926.1875
2653.4993	1933.0875
2656.14175	1936.0875
2658.78255	1943.7875
2661.42171	1946.5875
2664.05923	1934.0875
2666.6951	1940.3875
2669.32934	1945.9875
2671.96194	1942.2875
2674.59291	1951.8875
2677.22224	1948.5875
2679.84993	1946.0875
2682.476	1943.4875
2685.10043	1949.3875
2687.72324	1952.6875
2690.34441	1940.5875
2692.96396	1945.0875
2695.58188	1945.6875
2698.19818	1946.9875
2700.81285	1943.9875
2703.4259	1943.8875
2706.03733	1930.8875
2708.64714	1919.1875
2711.25533	1945.7875
2713.86191	1938.8875
2716.46687	1951.7875
2719.07021	1942.0875
2721.67194	1959.9875
2724.27206	1954.1875
2726.87057	1949.1875
2729.46747	1959.4875
2732.06276	1958.2875
2734.65644	1943.1875
2737.24852	1937.5875
2739.83899	1944.4875
2742.42786	1937.6875
2745.01513	1932.7875
2747.60079	1927.0875
2750.18486	1921.8875
2752.76733	1920.0875
2755.3482	1926.6875
2757.92747	1920.6875
2760.50515	1916.3875
2763.08123	1913.4875
2765.65573	1908.0875
2768.22863	1912.1875
2770.79994	1898.9875
2773.36967	1902.5875
2775.9378	1906.9875
2778.50435	1899.3875
2781.06932	1895.2875
2783.6327	1892.7875
2786.1945	1901.9875
2788.75471	1899.5875
2791.31335	1887.7875
2793.87041	1883.2875
2796.42589	1883.2875
2798.97979	1894.7875
2801.53212	1881.1875
2804.08288	1888.2875
2806.63206	1878.2875
2809.17967	1882.0875
2811.72571	1885.2875
2814.27018	1881.5875
2816.81308	1888.6875
2819.35442	1900.4875
2821.89419	1897.7875
2824.43239	1896.8875
2826.96904	1906.4875
2829.50412	1904.5875
2832.03763	1900.1875
2834.56959	1914.2875
2837.1	1912.6875
2839.62884	1914.8875
2842.15613	1925.9875
2844.68186	1949.2875
2847.20604	1978.0875
2849.72867	2002.3875
2852.24974	1997.3875
2854.76927	2007.1875
2857.28724	1994.7875
2859.80367	2000.7875
2862.31855	1988.3875
2864.83189	1973.3875
2867.34368	1972.8875
2869.85393	1974.3875
2872.36264	1975.2875
2874.8698	1976.9875
2877.37543	1965.6875
2879.87952	1961.4875
2882.38207	1973.8875
2884.88308	1959.8875
2887.38256	1967.9875
2889.88051	1966.1875
2892.37692	1963.5875
2894.8718	1960.8875
2897.36515	1958.0875
2899.85698	1955.0875
2902.34727	1960.4875
2904.83604	1964.3875
2907.32328	1974.4875
2909.809	1965.1875
2912.29319	1958.9875
2914.77587	1975.2875
2917.25702	1962.2875
2919.73665	1967.5875
2922.21476	1961.1875
2924.69136	1960.3875
2927.16644	1964.0875
2929.64	1961.6875
2932.11205	1948.9875
2934.58258	1938.7875
2937.05161	1940.8875
2939.51912	1941.0875
2941.98513	1920.7875
2944.44962	1898.9875
2946.91261	1883.2875
2949.37409	1880.3875
2951.83407	1862.9875
2954.29254	1866.4875
2956.74951	1856.7875
2959.20498	1851.2875
2961.65895	1843.6875
2964.11142	1843.9875
2966.56239	1846.0875
2969.01186	1832.4875
2971.45984	1819.0875
2973.90632	1828.9875
2976.35131	1826.8875
2978.7948	1821.7875
2981.23681	1810.3875
2983.67732	1813.0875
2986.11635	1786.3875
2988.55388	1799.2875
2990.98993	1790.0875
2993.4245	1788.9875
2995.85758	1782.9875
2998.28917	1776.0875
3000.71928	1768.4875
3003.14791	1767.4875
3005.57506	1773.5875
3008.00073	1771.6875
3010.42493	1769.9875
3012.84764	1761.6875
3015.26888	1769.0875
3017.68865	1764.2875
3020.10694	1765.4875
3022.52376	1751.7875
3024.9391	1762.4875
3027.35298	1759.4875
3029.76539	1748.1875
3032.17632	1759.3875
3034.5858	1751.3875
3036.9938	1745.5875
3039.40034	1749.9875
3041.80542	1749.8875
3044.20903	1743.0875
3046.61118	1750.5875
3049.01187	1738.6875
3051.4111	1742.2875
3053.80888	1746.7875
3056.20519	1747.1875
3058.60005	1738.2875
3060.99345	1738.7875
3063.3854	1731.1875
3065.7759	1732.7875
3068.16494	1728.8875
3070.55254	1736.4875
3072.93868	1728.4875
3075.32338	1728.0875
3077.70662	1722.9875
3080.08842	1720.9875
3082.46878	1710.6875
3084.84769	1721.1875
3087.22515	1720.8875
3089.60118	1716.7875
3091.97576	1714.6875
3094.3489	1710.0875
3096.72061	1714.3875
3099.09087	1724.3875
3101.4597	1712.0875
3103.82709	1723.6875
3106.19305	1715.6875
3108.55757	1722.3875
3110.92066	1720.7875
3113.28232	1720.2875
3115.64255	1718.7875
3118.00134	1715.8875
3120.35871	1716.2875
3122.71466	1727.6875
3125.06917	1714.0875
3127.42226	1717.9875
3129.77393	1730.7875
3132.12417	1735.9875
3134.47299	1736.3875
3136.82039	1739.3875
3139.16636	1746.0875
3141.51092	1749.5875
3143.85406	1752.5875
3146.19579	1757.6875
3148.53609	1754.2875
3150.87499	1772.5875
3153.21246	1780.8875
3155.54853	1779.6875
3157.88318	1785.4875
3160.21642	1782.7875
3162.54826	1793.5875
3164.87868	1797.7875
3167.2077	1798.3875
3169.5353	1803.0875
3171.86151	1806.6875
3174.18631	1811.6875
3176.5097	1812.7875
3178.83169	1811.8875
3181.15228	1819.1875
3183.47147	1815.3875
3185.78926	1820.1875
3188.10565	1821.2875
3190.42065	1840.2875
3192.73424	1829.3875
3195.04645	1829.8875
3197.35725	1839.2875
3199.66667	1841.1875
3201.97469	1849.5875
3204.28132	1847.1875
3206.58656	1846.9875
3208.8904	1863.0875
3211.19287	1852.1875
3213.49394	1859.2875
3215.79363	1875.3875
3218.09193	1880.2875
3220.38884	1867.5875
3222.68438	1872.0875
3224.97853	1871.2875
3227.2713	1867.3875
3229.56269	1876.1875
3231.8527	1866.1875
3234.14133	1871.7875
3236.42858	1864.5875
3238.71446	1869.9875
3240.99896	1865.1875
3243.28209	1876.9875
3245.56384	1860.4875
3247.84423	1861.4875
3250.12324	1860.7875
3252.40088	1873.9875
3254.67715	1869.0875
3256.95205	1865.9875
3259.22558	1862.7875
3261.49775	1862.3875
3263.76855	1859.3875
3266.03799	1850.7875
3268.30606	1856.2875
3270.57277	1855.2875
3272.83812	1850.2875
3275.10211	1840.9875
3277.36474	1838.8875
3279.62601	1840.7875
3281.88593	1837.1875
3284.14448	1831.3875
3286.40168	1838.9875
3288.65753	1845.3875
3290.91202	1842.3875
3293.16516	1833.8875
3295.41695	1837.4875
3297.66738	1812.7875
3299.91647	1820.6875
3302.16421	1802.3875
3304.4106	1797.3875
3306.65564	1784.1875
3308.89933	1774.4875
3311.14169	1761.3875
3313.38269	1745.1875
3315.62236	1723.5875
3317.86068	1721.8875
3320.09766	1712.8875
3322.3333	1704.6875
3324.5676	1702.2875
3326.80056	1668.4875
3329.03219	1645.7875
3331.26248	0.3875
3333.49143	-0.6125
3335.71905	-0.6125
