Data from AgNPs_FTO_APTES_UA_1uM_CRN_10uM_R6G_50uM_NaF_0.1M_Addition_RamanShift__18__16-01-59-741.txt Node

Date: Thu Jan 27 16:01:59 GMT 2022
User: TCL
Spectrometer: QEP01345
Trigger mode: 4
Integration Time (sec): 7.000000E0
Scans to average: 10
Electric dark correction enabled: true
Nonlinearity correction enabled: false
Boxcar width: 0
XAxis mode: Raman Shifts
Number of Pixels in Spectrum: 1044
>>>>>Begin Spectral Data<<<<<
46.04893	2.4375
50.45542	0.2375
54.85868	-0.8625
59.25871	-1.8625
63.6555	40.8375
68.04907	44.1375
72.43941	48.1375
76.82654	51.0375
81.21044	51.3375
85.59113	51.1375
89.96862	55.5375
94.34289	56.8375
98.71396	59.6375
103.08183	60.6375
107.4465	64.0375
111.80798	65.7375
116.16626	64.8375
120.52136	69.4375
124.87327	67.2375
129.222	66.6375
133.56755	70.6375
137.90993	75.9375
142.24913	82.5375
146.58517	93.6375
150.91804	103.8375
155.24774	122.1375
159.57429	146.8375
163.89768	182.2375
168.21792	242.8375
172.53501	322.2375
176.84895	445.3375
181.15975	615.9375
185.46741	859.2375
189.77193	1188.4375
194.07331	1586.4375
198.37157	2038.1375
202.6667	2517.2375
206.9587	3002.9375
211.24758	3455.2375
215.53334	3924.0375
219.81599	4412.5375
224.09553	4936.8375
228.37195	5527.6375
232.64527	6173.9375
236.91549	6866.1375
241.18261	7567.4375
245.44663	8223.5375
249.70755	8847.0375
253.96539	9343.2375
258.22014	9814.0375
262.4718	10194.0375
266.72039	10447.5375
270.96589	10594.3375
275.20832	10637.5375
279.44768	10634.5375
283.68397	10565.1375
287.91719	10509.3375
292.14735	10504.2375
296.37445	10497.2375
300.59849	10523.6375
304.81948	10505.9375
309.03742	10450.3375
313.25231	10315.7375
317.46415	10084.0375
321.67296	9797.5375
325.87872	9571.4375
330.08145	9476.0375
334.28114	9429.3375
338.47781	9527.3375
342.67145	9639.9375
346.86207	9748.1375
351.04966	9907.8375
355.23424	10067.5375
359.4158	10194.3375
363.59435	10321.1375
367.76989	10386.9375
371.94243	10450.8375
376.11196	10502.7375
380.27849	10566.8375
384.44203	10653.0375
388.60257	10731.5375
392.76012	10833.8375
396.91468	10986.0375
401.06626	11094.7375
405.21485	11196.8375
409.36047	11173.5375
413.50311	11039.0375
417.64277	10925.5375
421.77947	10941.6375
425.9132	10976.5375
430.04396	11039.4375
434.17176	11096.4375
438.2966	11209.5375
442.41849	11352.4375
446.53742	11606.6375
450.6534	11905.4375
454.76644	12172.2375
458.87653	12296.9375
462.98368	12279.3375
467.08789	12203.7375
471.18916	12104.4375
475.2875	12037.5375
479.38291	11996.0375
483.4754	11934.2375
487.56496	11784.2375
491.6516	11558.7375
495.73531	11393.4375
499.81612	11295.3375
503.89401	11327.2375
507.96899	11384.4375
512.04106	11329.0375
516.11023	11273.6375
520.1765	11153.7375
524.23987	11049.5375
528.30034	10964.5375
532.35792	10873.3375
536.41261	10779.5375
540.46441	10673.5375
544.51333	10700.9375
548.55936	10847.3375
552.60252	11087.1375
556.64279	11321.3375
560.6802	11463.4375
564.71473	11524.6375
568.7464	11681.7375
572.7752	11890.1375
576.80114	12113.2375
580.82422	12293.8375
584.84444	12469.8375
588.86181	12603.9375
592.87633	12739.8375
596.888	12830.9375
600.89682	12865.5375
604.9028	13147.9375
608.90594	13874.8375
612.90624	14553.1375
616.90371	13700.6375
620.89834	11920.0375
624.89015	11188.0375
628.87913	11244.4375
632.86528	11309.2375
636.84862	11223.8375
640.82913	11043.7375
644.80683	10783.0375
648.78172	10565.5375
652.75379	10468.9375
656.72306	10543.5375
660.68952	10671.5375
664.65319	10633.7375
668.61405	10471.3375
672.57211	10407.4375
676.52738	10434.1375
680.47986	10446.2375
684.42955	10418.0375
688.37646	10384.2375
692.32058	10395.8375
696.26192	10484.9375
700.20048	10561.1375
704.13626	10663.5375
708.06928	10625.0375
711.99952	10561.6375
715.927	10513.4375
719.85171	10536.1375
723.77365	10522.6375
727.69284	10442.5375
731.60928	10368.8375
735.52295	10315.2375
739.43388	10322.2375
743.34206	10350.2375
747.24749	10374.2375
751.15017	10462.8375
755.05012	10643.2375
758.94733	10922.2375
762.8418	11376.4375
766.73354	12095.4375
770.62254	12771.1375
774.50882	12858.3375
778.39237	12300.2375
782.27321	11525.2375
786.15132	10890.3375
790.02671	10527.4375
793.89938	10377.3375
797.76935	10331.6375
801.6366	10328.2375
805.50115	10282.8375
809.36299	10242.8375
813.22213	10156.8375
817.07857	10119.7375
820.93231	10100.3375
824.78336	10058.6375
828.63172	10029.7375
832.47738	10024.3375
836.32036	10043.3375
840.16066	10071.7375
843.99827	10122.1375
847.8332	10120.0375
851.66546	10048.6375
855.49504	10021.4375
859.32195	10008.6375
863.1462	9988.3375
866.96777	9962.9375
870.78668	9915.4375
874.60293	9889.7375
878.41652	9908.0375
882.22745	9920.1375
886.03573	9961.4375
889.84136	9941.5375
893.64433	9929.4375
897.44466	9853.5375
901.24235	9842.6375
905.0374	9828.5375
908.8298	9808.9375
912.61957	9782.7375
916.40671	9892.3375
920.19121	10042.8375
923.97308	10172.5375
927.75233	10192.4375
931.52895	10105.6375
935.30295	10034.0375
939.07433	9864.9375
942.84309	9700.3375
946.60924	9623.7375
950.37278	9585.0375
954.13371	9590.6375
957.89203	9510.2375
961.64774	9495.5375
965.40086	9486.0375
969.15137	9423.6375
972.89929	9381.0375
976.64461	9352.6375
980.38733	9349.3375
984.12747	9370.3375
987.86502	9448.0375
991.59999	9555.5375
995.33237	9754.5375
999.06217	10039.7375
1002.78939	10350.1375
1006.51404	10478.3375
1010.23611	10502.4375
1013.95561	10556.7375
1017.67255	10584.9375
1021.38692	10506.8375
1025.09872	10421.5375
1028.80796	10534.3375
1032.51465	10864.6375
1036.21877	11197.0375
1039.92035	11270.3375
1043.61937	11036.1375
1047.31584	10779.7375
1051.00976	10476.0375
1054.70114	10371.6375
1058.38998	10358.2375
1062.07627	10426.0375
1065.76003	10472.4375
1069.44126	10545.1375
1073.11995	10626.4375
1076.79611	10725.9375
1080.46974	10773.8375
1084.14085	10815.0375
1087.80943	10875.8375
1091.47549	10929.6375
1095.13903	10946.8375
1098.80005	10860.7375
1102.45857	10675.8375
1106.11456	10499.2375
1109.76805	10429.3375
1113.41903	10477.3375
1117.06751	10526.7375
1120.71348	10626.0375
1124.35696	10692.5375
1127.99793	10771.1375
1131.63641	10885.6375
1135.2724	10823.6375
1138.90589	10772.9375
1142.5369	10756.1375
1146.16542	10766.3375
1149.79145	10829.5375
1153.415	10924.9375
1157.03607	11110.5375
1160.65467	11371.3375
1164.27079	11775.5375
1167.88443	12363.9375
1171.49561	13103.7375
1175.10432	13964.1375
1178.71056	15050.7375
1182.31434	16108.9375
1185.91565	16690.9375
1189.51451	16744.6375
1193.11091	16361.8375
1196.70485	15770.0375
1200.29634	15085.2375
1203.88538	14592.2375
1207.47197	14220.0375
1211.05612	13977.2375
1214.63782	13734.3375
1218.21708	13546.3375
1221.79391	13337.3375
1225.36829	13228.0375
1228.94024	13096.1375
1232.50976	12840.5375
1236.07685	12596.1375
1239.6415	12464.6375
1243.20374	12464.5375
1246.76355	12508.9375
1250.32093	12674.6375
1253.8759	12911.0375
1257.42845	13242.1375
1260.97859	13572.9375
1264.52631	13876.4375
1268.07163	14270.0375
1271.61453	14645.1375
1275.15503	15109.4375
1278.69312	15640.1375
1282.22882	16092.0375
1285.76211	16505.6375
1289.29301	16859.5375
1292.82151	17419.7375
1296.34761	18223.0375
1299.87133	19195.2375
1303.39266	20371.9375
1306.9116	21572.6375
1310.42815	22672.9375
1313.94233	23344.4375
1317.45412	23327.2375
1320.96354	22919.1375
1324.47058	22518.0375
1327.97525	22156.4375
1331.47754	21847.9375
1334.97747	21691.3375
1338.47502	21602.0375
1341.97022	21576.7375
1345.46305	21422.7375
1348.95352	21064.0375
1352.44163	20690.6375
1355.92738	20639.3375
1359.41078	21013.2375
1362.89183	21461.8375
1366.37053	21079.6375
1369.84688	19626.3375
1373.32088	17889.1375
1376.79254	16695.9375
1380.26186	16191.0375
1383.72883	16167.3375
1387.19347	16282.4375
1390.65578	16265.5375
1394.11575	16272.9375
1397.57339	16443.7375
1401.0287	16795.6375
1404.48168	17147.4375
1407.93234	17118.0375
1411.38068	16815.2375
1414.82669	16242.7375
1418.27039	15531.3375
1421.71177	14813.7375
1425.15083	14266.2375
1428.58758	13938.7375
1432.02203	13918.3375
1435.45416	14175.7375
1438.88399	14584.1375
1442.31151	14970.0375
1445.73673	15276.7375
1449.15965	15564.3375
1452.58027	15789.3375
1455.9986	15945.1375
1459.41463	16069.8375
1462.82837	16296.6375
1466.23982	16547.2375
1469.64898	16758.9375
1473.05586	16879.4375
1476.46045	16853.9375
1479.86276	16704.9375
1483.26279	16434.7375
1486.66054	16231.2375
1490.05602	16122.9375
1493.44922	16126.1375
1496.84016	16192.3375
1500.22882	16350.8375
1503.61521	16720.6375
1506.99934	17177.6375
1510.38121	17647.2375
1513.76081	17847.6375
1517.13816	17623.3375
1520.51324	17175.9375
1523.88607	16736.8375
1527.25665	16523.0375
1530.62498	16424.6375
1533.99105	16412.4375
1537.35488	16347.0375
1540.71647	16187.9375
1544.07581	15927.9375
1547.4329	15580.9375
1550.78776	15282.9375
1554.14038	15074.1375
1557.49077	14969.2375
1560.83892	14900.3375
1564.18484	14851.3375
1567.52853	14859.2375
1570.86999	14941.8375
1574.20922	15128.3375
1577.54624	15374.3375
1580.88103	15475.4375
1584.2136	15589.1375
1587.54395	15979.5375
1590.87208	16668.4375
1594.19801	17548.3375
1597.52172	18470.6375
1600.84321	18790.6375
1604.16251	18085.2375
1607.47959	16799.5375
1610.79447	15474.4375
1614.10715	14216.7375
1617.41763	13177.0375
1620.7259	12414.8375
1624.03199	11969.3375
1627.33587	11938.9375
1630.63757	12209.1375
1633.93707	12886.5375
1637.23439	14005.1375
1640.52951	15502.8375
1643.82246	17174.3375
1647.11321	18450.6375
1650.40179	18696.9375
1653.68819	17627.4375
1656.97241	15632.7375
1660.25446	13564.4375
1663.53433	11992.8375
1666.81203	10929.0375
1670.08756	10239.1375
1673.36092	9816.9375
1676.63211	9513.9375
1679.90115	9329.6375
1683.16801	9172.9375
1686.43272	9058.9375
1689.69527	8956.5375
1692.95567	8862.5375
1696.2139	8816.1375
1699.46999	8763.7375
1702.72392	8689.6375
1705.97571	8676.5375
1709.22535	8711.4375
1712.47284	8699.4375
1715.71819	8690.0375
1718.96139	8666.6375
1722.20246	8655.8375
1725.44139	8606.9375
1728.67818	8595.7375
1731.91284	8543.2375
1735.14537	8491.9375
1738.37576	8454.9375
1741.60403	8412.9375
1744.83017	8386.7375
1748.05418	8366.6375
1751.27607	8342.6375
1754.49584	8318.9375
1757.71349	8285.9375
1760.92903	8286.5375
1764.14244	8261.4375
1767.35375	8254.2375
1770.56294	8240.4375
1773.77002	8222.9375
1776.97499	8229.4375
1780.17785	8223.6375
1783.37861	8232.1375
1786.57727	8245.0375
1789.77382	8194.5375
1792.96828	8184.4375
1796.16064	8191.8375
1799.3509	8172.8375
1802.53907	8149.2375
1805.72514	8152.1375
1808.90913	8126.3375
1812.09102	8097.1375
1815.27083	8066.8375
1818.44856	8054.2375
1821.6242	8052.0375
1824.79776	8028.3375
1827.96924	8029.9375
1831.13864	8020.7375
1834.30597	8009.6375
1837.47122	8030.3375
1840.6344	8021.0375
1843.7955	8009.4375
1846.95454	8011.4375
1850.11151	8012.1375
1853.26642	8005.3375
1856.41926	8005.4375
1859.57004	8015.9375
1862.71876	7979.2375
1865.86542	7998.8375
1869.01003	7991.1375
1872.15258	7978.1375
1875.29308	7963.4375
1878.43152	7950.7375
1881.56792	7975.7375
1884.70227	7955.9375
1887.83457	7945.4375
1890.96482	7939.7375
1894.09304	7931.0375
1897.21921	7926.5375
1900.34335	7910.7375
1903.46544	7917.2375
1906.58551	7912.7375
1909.70353	7887.8375
1912.81953	7884.2375
1915.93349	7873.9375
1919.04543	7866.5375
1922.15534	7828.8375
1925.26322	7840.7375
1928.36908	7804.0375
1931.47292	7803.7375
1934.57473	7793.3375
1937.67453	7774.7375
1940.77232	7734.2375
1943.86808	7703.8375
1946.96184	7689.5375
1950.05358	7679.5375
1953.14331	7624.2375
1956.23103	7609.4375
1959.31675	7596.7375
1962.40046	7572.6375
1965.48217	7568.4375
1968.56188	7544.5375
1971.63959	7522.9375
1974.7153	7508.2375
1977.78901	7478.2375
1980.86073	7457.9375
1983.93046	7448.4375
1986.99819	7418.7375
1990.06394	7382.2375
1993.1277	7364.7375
1996.18947	7346.8375
1999.24925	7312.3375
2002.30706	7286.0375
2005.36288	7290.6375
2008.41672	7249.0375
2011.46859	7230.8375
2014.51848	7224.6375
2017.56639	7208.6375
2020.61233	7203.1375
2023.6563	7164.2375
2026.6983	7177.6375
2029.73833	7136.2375
2032.7764	7157.5375
2035.8125	7133.2375
2038.84664	7111.1375
2041.87881	7113.7375
2044.90903	7104.7375
2047.93729	7082.4375
2050.96359	7074.6375
2053.98794	7065.7375
2057.01034	7066.6375
2060.03078	7071.1375
2063.04927	7068.5375
2066.06582	7080.2375
2069.08042	7040.4375
2072.09307	7041.2375
2075.10378	7057.3375
2078.11255	7036.3375
2081.11938	7023.5375
2084.12426	7019.1375
2087.12722	7045.4375
2090.12824	7016.9375
2093.12732	7027.6375
2096.12447	7008.4375
2099.11969	7019.5375
2102.11299	7010.5375
2105.10435	7004.2375
2108.09379	7005.9375
2111.08131	7023.5375
2114.0669	7038.6375
2117.05057	7039.2375
2120.03233	7039.1375
2123.01216	7032.8375
2125.99008	7066.7375
2128.96609	7043.2375
2131.94018	7081.8375
2134.91236	7056.3375
2137.88263	7089.8375
2140.851	7074.8375
2143.81746	7090.9375
2146.78201	7091.4375
2149.74466	7065.4375
2152.7054	7085.3375
2155.66425	7085.6375
2158.6212	7066.4375
2161.57625	7074.3375
2164.52941	7087.7375
2167.48067	7067.7375
2170.43004	7066.7375
2173.37752	7063.6375
2176.32311	7085.2375
2179.26681	7077.5375
2182.20863	7069.3375
2185.14856	7079.0375
2188.08661	7076.0375
2191.02278	7071.4375
2193.95707	7075.9375
2196.88948	7067.2375
2199.82001	7071.6375
2202.74867	7075.3375
2205.67545	7059.4375
2208.60037	7040.0375
2211.52341	7070.2375
2214.44458	7045.7375
2217.36388	7049.2375
2220.28132	7043.8375
2223.1969	7028.9375
2226.11061	7007.5375
2229.02246	7000.9375
2231.93245	7012.5375
2234.84058	6957.1375
2237.74686	6959.6375
2240.65128	6937.9375
2243.55385	6926.3375
2246.45456	6920.6375
2249.35343	6912.3375
2252.25044	6902.0375
2255.14561	6898.8375
2258.03893	6886.3375
2260.93041	6876.4375
2263.82004	6850.0375
2266.70783	6844.8375
2269.59378	6832.1375
2272.4779	6812.8375
2275.36017	6800.4375
2278.24061	6765.3375
2281.11922	6778.3375
2283.996	6769.7375
2286.87094	6756.0375
2289.74405	6746.5375
2292.61534	6749.6375
2295.4848	6728.0375
2298.35243	6738.9375
2301.21824	6750.2375
2304.08223	6743.5375
2306.94439	6739.8375
2309.80474	6770.5375
2312.66327	6758.0375
2315.51999	6749.2375
2318.37489	6747.3375
2321.22797	6757.7375
2324.07925	6731.6375
2326.92871	6728.5375
2329.77637	6717.7375
2332.62222	6717.0375
2335.46626	6716.9375
2338.3085	6710.4375
2341.14893	6727.6375
2343.98756	6736.1375
2346.8244	6729.7375
2349.65943	6734.5375
2352.49267	6702.0375
2355.32411	6728.0375
2358.15376	6721.9375
2360.98161	6712.5375
2363.80768	6696.6375
2366.63195	6686.5375
2369.45444	6688.0375
2372.27514	6657.6375
2375.09405	6653.7375
2377.91118	6634.6375
2380.72652	6627.9375
2383.54009	6605.3375
2386.35187	6577.5375
2389.16188	6577.8375
2391.97011	6565.1375
2394.77657	6577.4375
2397.58125	6537.1375
2400.38416	6549.1375
2403.18529	6538.0375
2405.98466	6533.0375
2408.78226	6523.2375
2411.57809	6497.2375
2414.37216	6487.4375
2417.16446	6493.0375
2419.955	6481.0375
2422.74378	6497.2375
2425.5308	6482.8375
2428.31606	6473.8375
2431.09956	6473.5375
2433.88131	6451.2375
2436.6613	6463.2375
2439.43954	6455.6375
2442.21603	6453.3375
2444.99077	6453.3375
2447.76377	6467.1375
2450.53501	6455.3375
2453.30451	6474.6375
2456.07226	6449.3375
2458.83827	6437.4375
2461.60254	6436.8375
2464.36507	6433.1375
2467.12586	6434.5375
2469.88492	6425.9375
2472.64224	6437.3375
2475.39782	6435.9375
2478.15167	6444.8375
2480.90379	6427.8375
2483.65417	6455.0375
2486.40283	6443.1375
2489.14976	6477.5375
2491.89497	6470.9375
2494.63845	6459.2375
2497.3802	6463.4375
2500.12024	6454.2375
2502.85855	6453.5375
2505.59514	6434.9375
2508.33002	6420.1375
2511.06318	6437.1375
2513.79462	6434.1375
2516.52435	6423.1375
2519.25237	6418.6375
2521.97867	6414.8375
2524.70327	6425.2375
2527.42616	6410.9375
2530.14734	6402.5375
2532.86681	6412.6375
2535.58458	6409.1375
2538.30065	6385.0375
2541.01501	6402.8375
2543.72768	6395.3375
2546.43864	6399.0375
2549.14791	6372.0375
2551.85548	6368.3375
2554.56136	6353.3375
2557.26554	6345.5375
2559.96803	6343.9375
2562.66883	6351.0375
2565.36794	6341.7375
2568.06536	6343.8375
2570.7611	6335.6375
2573.45514	6322.8375
2576.14751	6304.9375
2578.83819	6327.4375
2581.52719	6325.7375
2584.21451	6317.1375
2586.90015	6323.3375
2589.58411	6294.3375
2592.2664	6329.3375
2594.94701	6308.2375
2597.62594	6304.3375
2600.30321	6315.2375
2602.9788	6291.4375
2605.65273	6312.9375
2608.32498	6303.6375
2610.99557	6290.1375
2613.66449	6299.5375
2616.33175	6302.5375
2618.99734	6311.1375
2621.66128	6296.4375
2624.32355	6308.9375
2626.98416	6303.0375
2629.64311	6317.2375
2632.30041	6317.8375
2634.95605	6304.7375
2637.61004	6290.2375
2640.26238	6281.3375
2642.91306	6276.1375
2645.56209	6265.6375
2648.20948	6254.6375
2650.85521	6268.3375
2653.4993	6277.0375
2656.14175	6273.9375
2658.78255	6272.0375
2661.42171	6282.0375
2664.05923	6282.9375
2666.6951	6299.5375
2669.32934	6279.9375
2671.96194	6287.1375
2674.59291	6296.4375
2677.22224	6292.1375
2679.84993	6274.0375
2682.476	6267.0375
2685.10043	6268.1375
2687.72324	6273.0375
2690.34441	6262.9375
2692.96396	6252.7375
2695.58188	6259.9375
2698.19818	6268.1375
2700.81285	6258.3375
2703.4259	6266.2375
2706.03733	6262.7375
2708.64714	6248.1375
2711.25533	6258.6375
2713.86191	6260.4375
2716.46687	6282.2375
2719.07021	6260.5375
2721.67194	6299.2375
2724.27206	6283.0375
2726.87057	6291.3375
2729.46747	6289.6375
2732.06276	6310.2375
2734.65644	6287.1375
2737.24852	6287.3375
2739.83899	6298.9375
2742.42786	6295.9375
2745.01513	6280.1375
2747.60079	6264.7375
2750.18486	6278.9375
2752.76733	6275.9375
2755.3482	6274.2375
2757.92747	6276.3375
2760.50515	6269.5375
2763.08123	6265.9375
2765.65573	6269.3375
2768.22863	6273.8375
2770.79994	6257.0375
2773.36967	6250.8375
2775.9378	6268.2375
2778.50435	6267.8375
2781.06932	6275.6375
2783.6327	6257.8375
2786.1945	6261.0375
2788.75471	6258.4375
2791.31335	6240.6375
2793.87041	6248.3375
2796.42589	6212.5375
2798.97979	6213.0375
2801.53212	6217.0375
2804.08288	6217.1375
2806.63206	6190.3375
2809.17967	6175.5375
2811.72571	6156.4375
2814.27018	6167.5375
2816.81308	6156.6375
2819.35442	6148.9375
2821.89419	6155.7375
2824.43239	6150.4375
2826.96904	6133.6375
2829.50412	6146.3375
2832.03763	6125.5375
2834.56959	6124.0375
2837.1	6114.8375
2839.62884	6131.6375
2842.15613	6114.9375
2844.68186	6126.7375
2847.20604	6141.0375
2849.72867	6151.3375
2852.24974	6140.3375
2854.76927	6138.7375
2857.28724	6124.8375
2859.80367	6125.3375
2862.31855	6126.0375
2864.83189	6115.2375
2867.34368	6123.4375
2869.85393	6102.7375
2872.36264	6107.3375
2874.8698	6101.7375
2877.37543	6083.1375
2879.87952	6102.9375
2882.38207	6104.6375
2884.88308	6109.7375
2887.38256	6118.4375
2889.88051	6102.8375
2892.37692	6103.2375
2894.8718	6104.1375
2897.36515	6104.2375
2899.85698	6135.7375
2902.34727	6147.9375
2904.83604	6137.9375
2907.32328	6142.2375
2909.809	6157.3375
2912.29319	6165.8375
2914.77587	6171.1375
2917.25702	6159.9375
2919.73665	6150.3375
2922.21476	6147.7375
2924.69136	6159.0375
2927.16644	6170.6375
2929.64	6143.5375
2932.11205	6143.4375
2934.58258	6124.8375
2937.05161	6127.6375
2939.51912	6120.5375
2941.98513	6130.0375
2944.44962	6101.5375
2946.91261	6089.4375
2949.37409	6102.3375
2951.83407	6090.5375
2954.29254	6108.4375
2956.74951	6084.3375
2959.20498	6068.7375
2961.65895	6082.6375
2964.11142	6093.2375
2966.56239	6069.8375
2969.01186	6062.0375
2971.45984	6040.1375
2973.90632	6046.5375
2976.35131	6023.5375
2978.7948	6028.0375
2981.23681	6015.2375
2983.67732	6005.0375
2986.11635	5992.4375
2988.55388	5974.6375
2990.98993	5960.9375
2993.4245	5957.3375
2995.85758	5942.7375
2998.28917	5951.2375
3000.71928	5943.4375
3003.14791	5922.8375
3005.57506	5910.7375
3008.00073	5890.2375
3010.42493	5906.8375
3012.84764	5895.2375
3015.26888	5883.4375
3017.68865	5881.0375
3020.10694	5874.2375
3022.52376	5840.3375
3024.9391	5850.5375
3027.35298	5832.6375
3029.76539	5827.2375
3032.17632	5831.9375
3034.5858	5823.0375
3036.9938	5830.5375
3039.40034	5852.3375
3041.80542	5842.4375
3044.20903	5816.2375
3046.61118	5836.9375
3049.01187	5816.6375
3051.4111	5852.5375
3053.80888	5820.9375
3056.20519	5820.3375
3058.60005	5795.7375
3060.99345	5770.3375
3063.3854	5753.0375
3065.7759	5757.6375
3068.16494	5745.9375
3070.55254	5758.2375
3072.93868	5731.9375
3075.32338	5714.3375
3077.70662	5724.8375
3080.08842	5710.8375
3082.46878	5704.3375
3084.84769	5692.6375
3087.22515	5694.7375
3089.60118	5707.3375
3091.97576	5704.1375
3094.3489	5684.3375
3096.72061	5699.0375
3099.09087	5703.3375
3101.4597	5709.4375
3103.82709	5704.8375
3106.19305	5712.7375
3108.55757	5717.3375
3110.92066	5702.3375
3113.28232	5698.4375
3115.64255	5674.0375
3118.00134	5683.7375
3120.35871	5673.0375
3122.71466	5683.8375
3125.06917	5668.3375
3127.42226	5649.9375
3129.77393	5634.8375
3132.12417	5641.8375
3134.47299	5637.4375
3136.82039	5642.5375
3139.16636	5655.6375
3141.51092	5674.0375
3143.85406	5666.4375
3146.19579	5665.2375
3148.53609	5667.2375
3150.87499	5679.9375
3153.21246	5721.0375
3155.54853	5682.9375
3157.88318	5705.4375
3160.21642	5693.8375
3162.54826	5686.3375
3164.87868	5716.8375
3167.2077	5718.4375
3169.5353	5722.5375
3171.86151	5737.5375
3174.18631	5729.5375
3176.5097	5720.1375
3178.83169	5700.0375
3181.15228	5737.3375
3183.47147	5705.0375
3185.78926	5709.5375
3188.10565	5730.6375
3190.42065	5717.7375
3192.73424	5723.8375
3195.04645	5698.3375
3197.35725	5723.8375
3199.66667	5723.2375
3201.97469	5724.5375
3204.28132	5723.4375
3206.58656	5738.9375
3208.8904	5744.4375
3211.19287	5752.7375
3213.49394	5757.2375
3215.79363	5755.6375
3218.09193	5779.4375
3220.38884	5757.2375
3222.68438	5767.2375
3224.97853	5747.0375
3227.2713	5740.7375
3229.56269	5752.1375
3231.8527	5761.9375
3234.14133	5746.7375
3236.42858	5742.8375
3238.71446	5735.7375
3240.99896	5729.9375
3243.28209	5738.0375
3245.56384	5715.7375
3247.84423	5726.8375
3250.12324	5705.4375
3252.40088	5709.9375
3254.67715	5723.3375
3256.95205	5727.2375
3259.22558	5705.7375
3261.49775	5704.9375
3263.76855	5706.2375
3266.03799	5690.7375
3268.30606	5675.1375
3270.57277	5695.9375
3272.83812	5668.9375
3275.10211	5662.8375
3277.36474	5646.3375
3279.62601	5639.8375
3281.88593	5640.5375
3284.14448	5654.0375
3286.40168	5653.5375
3288.65753	5666.0375
3290.91202	5663.5375
3293.16516	5648.2375
3295.41695	5624.4375
3297.66738	5594.0375
3299.91647	5568.4375
3302.16421	5522.9375
3304.4106	5520.6375
3306.65564	5490.4375
3308.89933	5465.4375
3311.14169	5438.1375
3313.38269	5400.0375
3315.62236	5362.7375
3317.86068	5311.4375
3320.09766	5286.9375
3322.3333	5241.8375
3324.5676	5254.1375
3326.80056	5130.2375
3329.03219	5125.8375
3331.26248	1.2375
3333.49143	-0.0625
3335.71905	-0.4625
