Data from AgNPs_FTO_APTES_UA_1uM_CRN_200uM_R6G_10uM_NaF_0.1M_Addition_RamanShift__20__17-28-19-839.txt Node

Date: Thu Jan 27 17:28:19 GMT 2022
User: TCL
Spectrometer: QEP01345
Trigger mode: 4
Integration Time (sec): 7.000000E0
Scans to average: 10
Electric dark correction enabled: true
Nonlinearity correction enabled: false
Boxcar width: 0
XAxis mode: Raman Shifts
Number of Pixels in Spectrum: 1044
>>>>>Begin Spectral Data<<<<<
46.04893	1.7
50.45542	0.3
54.85868	-1.5
59.25871	-1.8
63.6555	45.3
68.04907	48
72.43941	52.9
76.82654	53.9
81.21044	53.2
85.59113	54.2
89.96862	55.5
94.34289	58.8
98.71396	61.8
103.08183	63.4
107.4465	64.8
111.80798	67.2
116.16626	70.8
120.52136	74.8
124.87327	72.9
129.222	76
133.56755	78
137.90993	79.5
142.24913	87.5
146.58517	94.6
150.91804	109.5
155.24774	121.3
159.57429	147.5
163.89768	183.4
168.21792	234.6
172.53501	322.6
176.84895	435.1
181.15975	610.1
185.46741	857.5
189.77193	1166.4
194.07331	1573
198.37157	2020.2
202.6667	2509.7
206.9587	2991.6
211.24758	3469.2
215.53334	3938.1
219.81599	4441.1
224.09553	4970.4
228.37195	5563.2
232.64527	6233.4
236.91549	6927
241.18261	7634.8
245.44663	8308.7
249.70755	8903
253.96539	9409.3
258.22014	9836.9
262.4718	10213.9
266.72039	10441.5
270.96589	10550.6
275.20832	10575.9
279.44768	10507.9
283.68397	10369.3
287.91719	10228.4
292.14735	10169.8
296.37445	10147.4
300.59849	10204.9
304.81948	10243.3
309.03742	10241.9
313.25231	10129.2
317.46415	9894.9
321.67296	9620.9
325.87872	9398.6
330.08145	9280.1
334.28114	9309.7
338.47781	9380
342.67145	9494.3
346.86207	9659.8
351.04966	9830.7
355.23424	10036.1
359.4158	10223.1
363.59435	10381
367.76989	10496.4
371.94243	10598.5
376.11196	10649.4
380.27849	10733.8
384.44203	10806.8
388.60257	10858.7
392.76012	10928.2
396.91468	11006.8
401.06626	11192.1
405.21485	11304
409.36047	11291.8
413.50311	11116.5
417.64277	11011.8
421.77947	10942
425.9132	10955.6
430.04396	11025.6
434.17176	11067.7
438.2966	11168
442.41849	11356.3
446.53742	11603.2
450.6534	11889.1
454.76644	12126.9
458.87653	12159.7
462.98368	12116.9
467.08789	11980.7
471.18916	11829
475.2875	11692.8
479.38291	11597.7
483.4754	11519.3
487.56496	11405.4
491.6516	11302.8
495.73531	11204.9
499.81612	11199.6
503.89401	11243.4
507.96899	11311.8
512.04106	11292.7
516.11023	11288.1
520.1765	11266
524.23987	11210
528.30034	11160.4
532.35792	11069.3
536.41261	10974.6
540.46441	10844.3
544.51333	10812.8
548.55936	10906.6
552.60252	11045.2
556.64279	11229.9
560.6802	11335.2
564.71473	11429.9
568.7464	11537.6
572.7752	11711.5
576.80114	11802.8
580.82422	11911.6
584.84444	12045.9
588.86181	12256.5
592.87633	12503.2
596.888	12679.7
600.89682	12689.9
604.9028	12964.2
608.90594	13880.1
612.90624	15020.6
616.90371	14448.1
620.89834	12363.5
624.89015	11403.2
628.87913	11321.2
632.86528	11357
636.84862	11347.2
640.82913	11265.7
644.80683	11066.8
648.78172	10875.9
652.75379	10833.9
656.72306	10885.9
660.68952	11038.5
664.65319	11057.8
668.61405	10927
672.57211	10895.8
676.52738	10948.2
680.47986	11006.6
684.42955	10980.9
688.37646	10887.7
692.32058	10867
696.26192	10910.1
700.20048	11000.7
704.13626	11010.5
708.06928	11008.2
711.99952	10917.1
715.927	10910.7
719.85171	10873.5
723.77365	10880.9
727.69284	10847.9
731.60928	10810.3
735.52295	10761.2
739.43388	10797.7
743.34206	10808.7
747.24749	10861.6
751.15017	10912.4
755.05012	11009.9
758.94733	11232.7
762.8418	11684.1
766.73354	12396.9
770.62254	13195.6
774.50882	13566.6
778.39237	13153.6
782.27321	12287.3
786.15132	11508.3
790.02671	11020.4
793.89938	10822.2
797.76935	10751.9
801.6366	10733.6
805.50115	10709.2
809.36299	10663
813.22213	10601.9
817.07857	10579.3
820.93231	10552.6
824.78336	10535.8
828.63172	10546.2
832.47738	10549.2
836.32036	10561.8
840.16066	10612.2
843.99827	10609.6
847.8332	10610.3
851.66546	10546.5
855.49504	10569.9
859.32195	10587.6
863.1462	10589
866.96777	10578.1
870.78668	10525.2
874.60293	10516.6
878.41652	10518
882.22745	10512.2
886.03573	10572.4
889.84136	10581.1
893.64433	10542.2
897.44466	10481
901.24235	10443
905.0374	10413.2
908.8298	10391
912.61957	10380.1
916.40671	10446.8
920.19121	10528.3
923.97308	10657
927.75233	10730.7
931.52895	10718.9
935.30295	10655.9
939.07433	10502.9
942.84309	10360
946.60924	10267.5
950.37278	10188.8
954.13371	10183
957.89203	10124
961.64774	10110.6
965.40086	10046.4
969.15137	9989
972.89929	9954.7
976.64461	9931.5
980.38733	9938.1
984.12747	9968.3
987.86502	10072.6
991.59999	10173.6
995.33237	10333.1
999.06217	10564.5
1002.78939	10812.6
1006.51404	10907
1010.23611	10977.3
1013.95561	11019.3
1017.67255	11060.5
1021.38692	11008.7
1025.09872	10915.8
1028.80796	10947
1032.51465	11180.4
1036.21877	11421.5
1039.92035	11477.7
1043.61937	11365.8
1047.31584	11161.6
1051.00976	10938
1054.70114	10835.4
1058.38998	10821
1062.07627	10839
1065.76003	10883.8
1069.44126	10934.9
1073.11995	11032.2
1076.79611	11130.9
1080.46974	11152.1
1084.14085	11169.9
1087.80943	11194.1
1091.47549	11251.4
1095.13903	11247.8
1098.80005	11124.5
1102.45857	10968.6
1106.11456	10851.1
1109.76805	10846
1113.41903	10941.9
1117.06751	11050.9
1120.71348	11171.8
1124.35696	11321.2
1127.99793	11470.8
1131.63641	11558.8
1135.2724	11416.2
1138.90589	11225.2
1142.5369	11146.1
1146.16542	11081.3
1149.79145	11006
1153.415	11036.7
1157.03607	11148.5
1160.65467	11319.9
1164.27079	11647.1
1167.88443	12143.1
1171.49561	12731.8
1175.10432	13564.1
1178.71056	14582.8
1182.31434	15544.7
1185.91565	16045.6
1189.51451	15907.8
1193.11091	15392
1196.70485	14752.6
1200.29634	14127.5
1203.88538	13657.9
1207.47197	13317.8
1211.05612	12983.8
1214.63782	12755.7
1218.21708	12700.7
1221.79391	12678.1
1225.36829	12679.5
1228.94024	12625
1232.50976	12437
1236.07685	12221.5
1239.6415	12103.1
1243.20374	12103.9
1246.76355	12138.6
1250.32093	12255.4
1253.8759	12463.4
1257.42845	12736.3
1260.97859	12989
1264.52631	13222.8
1268.07163	13495.5
1271.61453	13835.1
1275.15503	14176.3
1278.69312	14544.9
1282.22882	14917.9
1285.76211	15169
1289.29301	15495
1292.82151	15913.6
1296.34761	16521.8
1299.87133	17295.3
1303.39266	18260.5
1306.9116	19446.1
1310.42815	20585.4
1313.94233	21301.2
1317.45412	21268.6
1320.96354	20605.8
1324.47058	19903.8
1327.97525	19194.8
1331.47754	18734.4
1334.97747	18509.5
1338.47502	18441.8
1341.97022	18453.2
1345.46305	18402.1
1348.95352	18388
1352.44163	18612.9
1355.92738	19125.3
1359.41078	20181.9
1362.89183	21146.2
1366.37053	21036.5
1369.84688	19438.3
1373.32088	17339
1376.79254	15753.2
1380.26186	14997.5
1383.72883	14700.7
1387.19347	14652.7
1390.65578	14500.9
1394.11575	14406.3
1397.57339	14514
1401.0287	14847.8
1404.48168	15154.3
1407.93234	15306.7
1411.38068	15236.5
1414.82669	15044.1
1418.27039	14642.7
1421.71177	14178.5
1425.15083	13754
1428.58758	13442.8
1432.02203	13471.9
1435.45416	13643.5
1438.88399	13902.5
1442.31151	14120
1445.73673	14280.7
1449.15965	14441.6
1452.58027	14541.7
1455.9986	14522.4
1459.41463	14530.4
1462.82837	14664.1
1466.23982	14944.6
1469.64898	15243.5
1473.05586	15420.4
1476.46045	15556.3
1479.86276	15529.1
1483.26279	15494.8
1486.66054	15426.7
1490.05602	15440.2
1493.44922	15506.1
1496.84016	15617.2
1500.22882	15836.6
1503.61521	16291.7
1506.99934	16961
1510.38121	17619.8
1513.76081	17866.1
1517.13816	17402.2
1520.51324	16591.4
1523.88607	15800.7
1527.25665	15218
1530.62498	14942.9
1533.99105	14856.2
1537.35488	14725
1540.71647	14646.4
1544.07581	14510.4
1547.4329	14376.7
1550.78776	14242
1554.14038	14131.8
1557.49077	14067.2
1560.83892	14029.3
1564.18484	14035.7
1567.52853	14078.2
1570.86999	14190.2
1574.20922	14349.6
1577.54624	14474.6
1580.88103	14417.2
1584.2136	14342.3
1587.54395	14439.3
1590.87208	14896
1594.19801	15730.6
1597.52172	16669.1
1600.84321	17199.8
1604.16251	16831.6
1607.47959	15841.4
1610.79447	14658.3
1614.10715	13496.6
1617.41763	12584.8
1620.7259	11977.2
1624.03199	11668.6
1627.33587	11624.3
1630.63757	11830.6
1633.93707	12349.9
1637.23439	13172.3
1640.52951	14318.8
1643.82246	15728.4
1647.11321	16933
1650.40179	17318
1653.68819	16503.1
1656.97241	14775.9
1660.25446	13018
1663.53433	11715.5
1666.81203	10945.9
1670.08756	10457.5
1673.36092	10152.5
1676.63211	9947.7
1679.90115	9814
1683.16801	9710.8
1686.43272	9567.7
1689.69527	9518.2
1692.95567	9475.6
1696.2139	9401.2
1699.46999	9347.3
1702.72392	9308.4
1705.97571	9298.6
1709.22535	9333.6
1712.47284	9356
1715.71819	9339
1718.96139	9333.5
1722.20246	9307.5
1725.44139	9303.8
1728.67818	9262.4
1731.91284	9223.3
1735.14537	9227.4
1738.37576	9178.9
1741.60403	9154
1744.83017	9132.2
1748.05418	9143.9
1751.27607	9107.2
1754.49584	9085.8
1757.71349	9107.8
1760.92903	9018.3
1764.14244	8988
1767.35375	9004.4
1770.56294	8972
1773.77002	8938.5
1776.97499	8949.4
1780.17785	8948.1
1783.37861	8944.3
1786.57727	8947.5
1789.77382	8922
1792.96828	8919.6
1796.16064	8898.2
1799.3509	8880.4
1802.53907	8866.6
1805.72514	8849.7
1808.90913	8861.6
1812.09102	8836.1
1815.27083	8817.6
1818.44856	8797.7
1821.6242	8751.2
1824.79776	8752.5
1827.96924	8755.4
1831.13864	8773.8
1834.30597	8766.1
1837.47122	8757.8
1840.6344	8737.8
1843.7955	8746.8
1846.95454	8741.2
1850.11151	8734.5
1853.26642	8731.8
1856.41926	8730.8
1859.57004	8766.2
1862.71876	8742.6
1865.86542	8769.3
1869.01003	8744.6
1872.15258	8722.1
1875.29308	8738.8
1878.43152	8727.8
1881.56792	8710.1
1884.70227	8713.2
1887.83457	8712.6
1890.96482	8720.8
1894.09304	8707.9
1897.21921	8685.1
1900.34335	8675.2
1903.46544	8704.1
1906.58551	8685.3
1909.70353	8672.4
1912.81953	8666.7
1915.93349	8671.8
1919.04543	8630.1
1922.15534	8620.9
1925.26322	8642.8
1928.36908	8590.5
1931.47292	8587.3
1934.57473	8561
1937.67453	8566.7
1940.77232	8526.7
1943.86808	8477
1946.96184	8484.5
1950.05358	8460.3
1953.14331	8437.6
1956.23103	8416
1959.31675	8396.3
1962.40046	8374.6
1965.48217	8339.8
1968.56188	8330.2
1971.63959	8309.1
1974.7153	8279.9
1977.78901	8259.2
1980.86073	8256.3
1983.93046	8234.9
1986.99819	8218.7
1990.06394	8168.8
1993.1277	8171.1
1996.18947	8116.3
1999.24925	8107.5
2002.30706	8076.5
2005.36288	8066.3
2008.41672	8058.6
2011.46859	8047.9
2014.51848	8012.8
2017.56639	7994.4
2020.61233	7970.9
2023.6563	7968.1
2026.6983	7948.7
2029.73833	7946.8
2032.7764	7935.7
2035.8125	7907.7
2038.84664	7868.2
2041.87881	7896.6
2044.90903	7884.2
2047.93729	7882.6
2050.96359	7865.7
2053.98794	7850.9
2057.01034	7824.6
2060.03078	7827.7
2063.04927	7846.6
2066.06582	7829.8
2069.08042	7832.4
2072.09307	7837.6
2075.10378	7813.7
2078.11255	7808.6
2081.11938	7821.5
2084.12426	7817.2
2087.12722	7797.4
2090.12824	7812.2
2093.12732	7795.5
2096.12447	7782.1
2099.11969	7814.1
2102.11299	7819.5
2105.10435	7817.9
2108.09379	7821.3
2111.08131	7807.3
2114.0669	7835.7
2117.05057	7832.2
2120.03233	7861.1
2123.01216	7859.2
2125.99008	7884.8
2128.96609	7874.5
2131.94018	7875.6
2134.91236	7898.4
2137.88263	7911.2
2140.851	7890.5
2143.81746	7908.1
2146.78201	7900.3
2149.74466	7905
2152.7054	7898.5
2155.66425	7920.2
2158.6212	7894
2161.57625	7908.7
2164.52941	7899.8
2167.48067	7909.3
2170.43004	7914.5
2173.37752	7921.8
2176.32311	7924.8
2179.26681	7922.5
2182.20863	7905.7
2185.14856	7907
2188.08661	7947.7
2191.02278	7929.7
2193.95707	7903.6
2196.88948	7906.5
2199.82001	7933.3
2202.74867	7894.3
2205.67545	7899.9
2208.60037	7909.8
2211.52341	7879.3
2214.44458	7869.7
2217.36388	7886.6
2220.28132	7866.2
2223.1969	7867.8
2226.11061	7846.9
2229.02246	7824.5
2231.93245	7820.1
2234.84058	7812.9
2237.74686	7807.6
2240.65128	7809
2243.55385	7777.3
2246.45456	7776.8
2249.35343	7766.4
2252.25044	7753.4
2255.14561	7748.8
2258.03893	7751.7
2260.93041	7713.8
2263.82004	7680.7
2266.70783	7680.7
2269.59378	7642.2
2272.4779	7639.8
2275.36017	7632.6
2278.24061	7646.6
2281.11922	7642.2
2283.996	7624.2
2286.87094	7603.1
2289.74405	7589.4
2292.61534	7580.6
2295.4848	7578.3
2298.35243	7573.1
2301.21824	7591
2304.08223	7597.7
2306.94439	7599.1
2309.80474	7596.2
2312.66327	7609.3
2315.51999	7600.2
2318.37489	7600.5
2321.22797	7583.5
2324.07925	7583.9
2326.92871	7570.5
2329.77637	7564.5
2332.62222	7557.4
2335.46626	7544.8
2338.3085	7548.5
2341.14893	7541.3
2343.98756	7558
2346.8244	7550
2349.65943	7537.3
2352.49267	7551.9
2355.32411	7542.3
2358.15376	7562.2
2360.98161	7542.2
2363.80768	7537.5
2366.63195	7526.1
2369.45444	7542.3
2372.27514	7501.4
2375.09405	7503.4
2377.91118	7497.5
2380.72652	7466.1
2383.54009	7438.4
2386.35187	7450.1
2389.16188	7404.5
2391.97011	7416
2394.77657	7391.1
2397.58125	7395.1
2400.38416	7396.2
2403.18529	7355.7
2405.98466	7376.5
2408.78226	7342.6
2411.57809	7323.2
2414.37216	7315.8
2417.16446	7316.4
2419.955	7306.6
2422.74378	7328.4
2425.5308	7310.5
2428.31606	7306.8
2431.09956	7289
2433.88131	7302.4
2436.6613	7292.5
2439.43954	7295.5
2442.21603	7290.6
2444.99077	7284.9
2447.76377	7300.9
2450.53501	7278.7
2453.30451	7277.6
2456.07226	7277.5
2458.83827	7278.8
2461.60254	7256.4
2464.36507	7274.3
2467.12586	7283
2469.88492	7252.4
2472.64224	7271.5
2475.39782	7279.4
2478.15167	7250.1
2480.90379	7247.1
2483.65417	7263.9
2486.40283	7258.7
2489.14976	7264
2491.89497	7274.6
2494.63845	7290.4
2497.3802	7263.7
2500.12024	7267.1
2502.85855	7255.3
2505.59514	7255.8
2508.33002	7234.8
2511.06318	7255.3
2513.79462	7229.1
2516.52435	7224
2519.25237	7232.4
2521.97867	7216.6
2524.70327	7223.5
2527.42616	7204.7
2530.14734	7202.7
2532.86681	7196.7
2535.58458	7185.8
2538.30065	7181.8
2541.01501	7175.5
2543.72768	7170
2546.43864	7161.9
2549.14791	7153.8
2551.85548	7155.4
2554.56136	7129.7
2557.26554	7135.3
2559.96803	7136.9
2562.66883	7130
2565.36794	7118.7
2568.06536	7120.3
2570.7611	7112.4
2573.45514	7120.7
2576.14751	7109
2578.83819	7093.6
2581.52719	7099.4
2584.21451	7069.9
2586.90015	7069.9
2589.58411	7077.8
2592.2664	7089.6
2594.94701	7051.2
2597.62594	7064.5
2600.30321	7062.6
2602.9788	7037.7
2605.65273	7049
2608.32498	7051.5
2610.99557	7032.6
2613.66449	7048.5
2616.33175	7018
2618.99734	7012.7
2621.66128	7042.5
2624.32355	7039.7
2626.98416	7033.9
2629.64311	7021.3
2632.30041	7036.1
2634.95605	7005
2637.61004	7017.1
2640.26238	7005.3
2642.91306	6988.9
2645.56209	6991.1
2648.20948	6968.3
2650.85521	6986.5
2653.4993	6985.3
2656.14175	6984.9
2658.78255	6998.1
2661.42171	6999.1
2664.05923	6998.9
2666.6951	7011.6
2669.32934	7009
2671.96194	6994.2
2674.59291	6989.9
2677.22224	7023
2679.84993	7010
2682.476	6995.5
2685.10043	6998.7
2687.72324	6994.2
2690.34441	6977.4
2692.96396	6977.6
2695.58188	6986.6
2698.19818	6986.4
2700.81285	7001.4
2703.4259	6986.8
2706.03733	6987
2708.64714	6974.1
2711.25533	7002.4
2713.86191	6992.5
2716.46687	7007
2719.07021	7004.7
2721.67194	7015
2724.27206	7022.1
2726.87057	7032.4
2729.46747	7028.9
2732.06276	7024.7
2734.65644	7029.3
2737.24852	7007.2
2739.83899	7010.1
2742.42786	7007.9
2745.01513	7000.6
2747.60079	6987.9
2750.18486	6994.6
2752.76733	7020
2755.3482	6985.5
2757.92747	6991.4
2760.50515	6997.9
2763.08123	6987.9
2765.65573	6989.4
2768.22863	7000.7
2770.79994	7002.7
2773.36967	6968.8
2775.9378	6968.7
2778.50435	6983
2781.06932	6986.4
2783.6327	6979.9
2786.1945	6969.9
2788.75471	6959.1
2791.31335	6957.4
2793.87041	6941
2796.42589	6923.4
2798.97979	6943.3
2801.53212	6913.1
2804.08288	6916.9
2806.63206	6904.8
2809.17967	6895.5
2811.72571	6879.5
2814.27018	6881.5
2816.81308	6851.9
2819.35442	6863.5
2821.89419	6853.9
2824.43239	6852.8
2826.96904	6869.3
2829.50412	6858.5
2832.03763	6850.4
2834.56959	6865.5
2837.1	6847.8
2839.62884	6866.6
2842.15613	6866.7
2844.68186	6913.8
2847.20604	6909.1
2849.72867	6924.4
2852.24974	6908
2854.76927	6900.7
2857.28724	6904.2
2859.80367	6896.1
2862.31855	6894
2864.83189	6890.2
2867.34368	6870.5
2869.85393	6884.7
2872.36264	6875.9
2874.8698	6886.2
2877.37543	6891.8
2879.87952	6880.6
2882.38207	6883.9
2884.88308	6890.5
2887.38256	6900.8
2889.88051	6892.2
2892.37692	6907.6
2894.8718	6893.1
2897.36515	6924.8
2899.85698	6933.5
2902.34727	6966.8
2904.83604	6958.3
2907.32328	6986.9
2909.809	6980.7
2912.29319	7000.6
2914.77587	6974.5
2917.25702	6981.2
2919.73665	6972.9
2922.21476	6983
2924.69136	6989.1
2927.16644	7002.9
2929.64	6979.5
2932.11205	6994.7
2934.58258	6940.2
2937.05161	6984.2
2939.51912	6973.1
2941.98513	6956.5
2944.44962	6936.6
2946.91261	6914.8
2949.37409	6930.9
2951.83407	6938.5
2954.29254	6927.6
2956.74951	6892.8
2959.20498	6893.9
2961.65895	6875.9
2964.11142	6866.7
2966.56239	6869.3
2969.01186	6873.7
2971.45984	6837
2973.90632	6819.5
2976.35131	6811
2978.7948	6795.8
2981.23681	6790.8
2983.67732	6777.1
2986.11635	6765.9
2988.55388	6741.2
2990.98993	6743.3
2993.4245	6716.5
2995.85758	6711.3
2998.28917	6721.1
3000.71928	6700.7
3003.14791	6686
3005.57506	6682.2
3008.00073	6664.3
3010.42493	6660.7
3012.84764	6663.3
3015.26888	6670.2
3017.68865	6658.9
3020.10694	6634.6
3022.52376	6623.6
3024.9391	6605
3027.35298	6615.9
3029.76539	6612.9
3032.17632	6591.8
3034.5858	6576
3036.9938	6587.4
3039.40034	6605.2
3041.80542	6592.2
3044.20903	6579.9
3046.61118	6564.8
3049.01187	6563.9
3051.4111	6583.8
3053.80888	6567
3056.20519	6554.6
3058.60005	6537.8
3060.99345	6519.7
3063.3854	6498.7
3065.7759	6509.5
3068.16494	6489.4
3070.55254	6467.6
3072.93868	6490.7
3075.32338	6477.6
3077.70662	6464.1
3080.08842	6442.6
3082.46878	6432.9
3084.84769	6446
3087.22515	6464.9
3089.60118	6449.4
3091.97576	6455.4
3094.3489	6449.4
3096.72061	6476.3
3099.09087	6475.3
3101.4597	6466.9
3103.82709	6479.4
3106.19305	6465.7
3108.55757	6473.8
3110.92066	6468.8
3113.28232	6459.5
3115.64255	6443.8
3118.00134	6446.9
3120.35871	6420
3122.71466	6433.2
3125.06917	6421.3
3127.42226	6415.6
3129.77393	6429
3132.12417	6420.1
3134.47299	6426.8
3136.82039	6425.9
3139.16636	6444
3141.51092	6437.6
3143.85406	6441.2
3146.19579	6446.9
3148.53609	6458.4
3150.87499	6484.5
3153.21246	6484.9
3155.54853	6502.2
3157.88318	6497.9
3160.21642	6495.7
3162.54826	6521.9
3164.87868	6529
3167.2077	6510.7
3169.5353	6527.1
3171.86151	6520
3174.18631	6523
3176.5097	6520.7
3178.83169	6526.1
3181.15228	6540.6
3183.47147	6548.6
3185.78926	6522.2
3188.10565	6516.9
3190.42065	6526.4
3192.73424	6520.6
3195.04645	6519.9
3197.35725	6525.4
3199.66667	6546.6
3201.97469	6539.6
3204.28132	6535.6
3206.58656	6560.5
3208.8904	6571.5
3211.19287	6584.9
3213.49394	6593.7
3215.79363	6566.3
3218.09193	6596.8
3220.38884	6567.1
3222.68438	6590.2
3224.97853	6569.3
3227.2713	6569.6
3229.56269	6574.9
3231.8527	6603.4
3234.14133	6580.8
3236.42858	6562.9
3238.71446	6580.3
3240.99896	6550.1
3243.28209	6563.8
3245.56384	6557.9
3247.84423	6542.5
3250.12324	6548.5
3252.40088	6542.5
3254.67715	6564.4
3256.95205	6544.4
3259.22558	6555.7
3261.49775	6535.5
3263.76855	6543
3266.03799	6511.9
3268.30606	6511.9
3270.57277	6511.2
3272.83812	6490.3
3275.10211	6471.6
3277.36474	6471.1
3279.62601	6479.1
3281.88593	6480.9
3284.14448	6482.6
3286.40168	6486.2
3288.65753	6486.5
3290.91202	6489.5
3293.16516	6459.4
3295.41695	6471.1
3297.66738	6423.4
3299.91647	6379
3302.16421	6350.4
3304.4106	6340.3
3306.65564	6307.6
3308.89933	6290.5
3311.14169	6238.6
3313.38269	6199.8
3315.62236	6162.4
3317.86068	6110.3
3320.09766	6065.1
3322.3333	6050.1
3324.5676	6016
3326.80056	5934.4
3329.03219	5902.4
3331.26248	2.2
3333.49143	0.3
3335.71905	-1
