Data from AgNPs_FTO_APTES_UA_1uM_CRN_10uM_R6G_20uM_NaF_0.1M_Addition_RamanShift__13__15-12-59-685.txt Node

Date: Thu Jan 27 15:12:59 GMT 2022
User: TCL
Spectrometer: QEP01345
Trigger mode: 4
Integration Time (sec): 7.000000E0
Scans to average: 10
Electric dark correction enabled: true
Nonlinearity correction enabled: false
Boxcar width: 0
XAxis mode: Raman Shifts
Number of Pixels in Spectrum: 1044
>>>>>Begin Spectral Data<<<<<
46.04893	1.8
50.45542	0.2
54.85868	-1.4
59.25871	-2.1
63.6555	49.8
68.04907	50.3
72.43941	55
76.82654	60.2
81.21044	55.7
85.59113	58.2
89.96862	64
94.34289	66.4
98.71396	70.1
103.08183	68
107.4465	71.5
111.80798	76.6
116.16626	75.8
120.52136	81.7
124.87327	82
129.222	77.4
133.56755	84.5
137.90993	87.1
142.24913	93.5
146.58517	110.8
150.91804	125.7
155.24774	143.3
159.57429	177.8
163.89768	221.8
168.21792	290.6
172.53501	395.1
176.84895	546.8
181.15975	756.8
185.46741	1068.2
189.77193	1463.5
194.07331	1981.7
198.37157	2570.1
202.6667	3172.8
206.9587	3788.8
211.24758	4373.8
215.53334	4964.6
219.81599	5577.7
224.09553	6202.2
228.37195	6946.2
232.64527	7754.8
236.91549	8618.5
241.18261	9500.2
245.44663	10333.6
249.70755	11180.3
253.96539	11865.3
258.22014	12457.3
262.4718	12951.9
266.72039	13262.9
270.96589	13468.8
275.20832	13471.3
279.44768	13447.7
283.68397	13363.7
287.91719	13204.4
292.14735	13115.7
296.37445	13067.4
300.59849	13036.4
304.81948	13029.5
309.03742	12992.9
313.25231	12905.5
317.46415	12754.2
321.67296	12544.6
325.87872	12351.4
330.08145	12293.4
334.28114	12295.2
338.47781	12401.3
342.67145	12505
346.86207	12645.9
351.04966	12852
355.23424	13013.1
359.4158	13167.2
363.59435	13284.4
367.76989	13378.9
371.94243	13513
376.11196	13566
380.27849	13638.4
384.44203	13669
388.60257	13780.8
392.76012	13902.6
396.91468	14042.3
401.06626	14227
405.21485	14355.5
409.36047	14348.8
413.50311	14224.9
417.64277	14135.7
421.77947	14129.8
425.9132	14205.3
430.04396	14280.3
434.17176	14308.3
438.2966	14429.2
442.41849	14510.2
446.53742	14695.3
450.6534	14898.1
454.76644	15070.1
458.87653	15173.6
462.98368	15222.7
467.08789	15192.3
471.18916	15114.4
475.2875	15036.3
479.38291	14985.2
483.4754	14950.3
487.56496	14895
491.6516	14762
495.73531	14652
499.81612	14605.1
503.89401	14634.9
507.96899	14729.8
512.04106	14728.9
516.11023	14730.4
520.1765	14652.9
524.23987	14557.7
528.30034	14451.8
532.35792	14375.5
536.41261	14297.6
540.46441	14237.3
544.51333	14249.4
548.55936	14319.7
552.60252	14518.7
556.64279	14708.6
560.6802	14810.3
564.71473	14895.5
568.7464	15057.6
572.7752	15277.5
576.80114	15576.1
580.82422	15899.6
584.84444	16146.8
588.86181	16277.7
592.87633	16391.4
596.888	16370.9
600.89682	16218.1
604.9028	16221
608.90594	16769.6
612.90624	17435.6
616.90371	16798.4
620.89834	15291.3
624.89015	14585.6
628.87913	14537.7
632.86528	14651.9
636.84862	14730.3
640.82913	14658.1
644.80683	14439.3
648.78172	14271.6
652.75379	14250.3
656.72306	14307.5
660.68952	14446.7
664.65319	14453.1
668.61405	14371
672.57211	14364.2
676.52738	14354.7
680.47986	14382.6
684.42955	14343
688.37646	14301.2
692.32058	14328.1
696.26192	14385.7
700.20048	14526.4
704.13626	14591.4
708.06928	14638.3
711.99952	14604.2
715.927	14595.4
719.85171	14545.5
723.77365	14502.6
727.69284	14410.8
731.60928	14270
735.52295	14236.7
739.43388	14233.8
743.34206	14231
747.24749	14277.4
751.15017	14357.7
755.05012	14488.4
758.94733	14729.7
762.8418	15102.3
766.73354	15739.3
770.62254	16284.7
774.50882	16385.2
778.39237	16028.7
782.27321	15434.3
786.15132	14930.9
790.02671	14510.9
793.89938	14352.1
797.76935	14255
801.6366	14200.5
805.50115	14143.3
809.36299	14102.5
813.22213	14074.9
817.07857	14063.1
820.93231	14070.4
824.78336	14066.3
828.63172	14038
832.47738	14020.1
836.32036	13982.5
840.16066	13976.2
843.99827	13951.6
847.8332	13941.3
851.66546	13965.6
855.49504	13972.8
859.32195	14011.4
863.1462	13980.3
866.96777	13991.8
870.78668	13981.7
874.60293	13993.4
878.41652	14013.2
882.22745	14011.3
886.03573	14058.1
889.84136	14029.8
893.64433	14023.1
897.44466	13986.4
901.24235	13979.8
905.0374	13929.5
908.8298	13944.8
912.61957	13947.8
916.40671	13996.2
920.19121	14097.1
923.97308	14174.7
927.75233	14173.7
931.52895	14075.8
935.30295	13943.5
939.07433	13815.7
942.84309	13721.1
946.60924	13624.2
950.37278	13590.4
954.13371	13563.3
957.89203	13571.7
961.64774	13534.3
965.40086	13519.2
969.15137	13490.5
972.89929	13447.4
976.64461	13392.1
980.38733	13381.2
984.12747	13386
987.86502	13404.4
991.59999	13447.9
995.33237	13468.2
999.06217	13557.5
1002.78939	13663
1006.51404	13801
1010.23611	13922.2
1013.95561	13987.4
1017.67255	14013
1021.38692	13988.2
1025.09872	13894.2
1028.80796	13787.2
1032.51465	13702.9
1036.21877	13729.5
1039.92035	13746.6
1043.61937	13792.9
1047.31584	13850.3
1051.00976	13878.1
1054.70114	13953.6
1058.38998	14021.3
1062.07627	14099.7
1065.76003	14247.1
1069.44126	14373.8
1073.11995	14505.6
1076.79611	14652.9
1080.46974	14701.1
1084.14085	14716.3
1087.80943	14735.7
1091.47549	14815
1095.13903	14820.2
1098.80005	14795.7
1102.45857	14614.9
1106.11456	14428.3
1109.76805	14295.4
1113.41903	14222.9
1117.06751	14254.8
1120.71348	14324.6
1124.35696	14385.8
1127.99793	14472.7
1131.63641	14546.1
1135.2724	14502.5
1138.90589	14452.7
1142.5369	14433.9
1146.16542	14433.7
1149.79145	14525.1
1153.415	14561
1157.03607	14626.6
1160.65467	14767.8
1164.27079	15028
1167.88443	15453.5
1171.49561	15928.3
1175.10432	16453.2
1178.71056	17140
1182.31434	17780.6
1185.91565	18201.2
1189.51451	18363.1
1193.11091	18313.5
1196.70485	18042
1200.29634	17615.2
1203.88538	17212.9
1207.47197	16944.5
1211.05612	16803.9
1214.63782	16550.3
1218.21708	16312.9
1221.79391	15970.2
1225.36829	15716.4
1228.94024	15584.5
1232.50976	15457.1
1236.07685	15418.4
1239.6415	15412
1243.20374	15442.2
1246.76355	15488
1250.32093	15614
1253.8759	15743
1257.42845	15986.6
1260.97859	16225.5
1264.52631	16504.1
1268.07163	16750.1
1271.61453	16983
1275.15503	17218.4
1278.69312	17476.3
1282.22882	17700
1285.76211	17995.6
1289.29301	18347.5
1292.82151	18780.9
1296.34761	19268.8
1299.87133	19861.4
1303.39266	20432.1
1306.9116	20946.9
1310.42815	21375.4
1313.94233	21583.7
1317.45412	21523.3
1320.96354	21420.9
1324.47058	21342
1327.97525	21354.6
1331.47754	21310.8
1334.97747	21402.2
1338.47502	21503.6
1341.97022	21697.8
1345.46305	21886.7
1348.95352	21946.4
1352.44163	21905.2
1355.92738	21782.3
1359.41078	21839.2
1362.89183	21906.1
1366.37053	21622.9
1369.84688	20581
1373.32088	19281.2
1376.79254	18324.4
1380.26186	17803.8
1383.72883	17635.8
1387.19347	17606.8
1390.65578	17444.7
1394.11575	17303.2
1397.57339	17253
1401.0287	17265.5
1404.48168	17328.3
1407.93234	17243.4
1411.38068	17008.7
1414.82669	16705.1
1418.27039	16316.6
1421.71177	15942.6
1425.15083	15673.4
1428.58758	15484.9
1432.02203	15504.3
1435.45416	15649.5
1438.88399	15853.3
1442.31151	16025.8
1445.73673	16147.9
1449.15965	16300.2
1452.58027	16410.9
1455.9986	16538.4
1459.41463	16620.5
1462.82837	16773.7
1466.23982	16970.5
1469.64898	17144.6
1473.05586	17279.9
1476.46045	17322.2
1479.86276	17283.5
1483.26279	17309.5
1486.66054	17277.3
1490.05602	17336.1
1493.44922	17557.3
1496.84016	17883.9
1500.22882	18311.7
1503.61521	18860.6
1506.99934	19431.9
1510.38121	19819.6
1513.76081	19844.7
1517.13816	19554.4
1520.51324	19129.4
1523.88607	18782.2
1527.25665	18574.7
1530.62498	18427.3
1533.99105	18280.2
1537.35488	18047.4
1540.71647	17753.4
1544.07581	17415.7
1547.4329	17124
1550.78776	16854.9
1554.14038	16655.8
1557.49077	16587.8
1560.83892	16596.2
1564.18484	16649.7
1567.52853	16660.5
1570.86999	16775.2
1574.20922	16963.6
1577.54624	17066
1580.88103	17068.1
1584.2136	17004.7
1587.54395	17065.8
1590.87208	17329.8
1594.19801	17755.7
1597.52172	18196.7
1600.84321	18275.7
1604.16251	17912.3
1607.47959	17232.4
1610.79447	16516.6
1614.10715	15765.8
1617.41763	15075.6
1620.7259	14534.5
1624.03199	14201.3
1627.33587	14142.6
1630.63757	14261.1
1633.93707	14659.1
1637.23439	15347
1640.52951	16420.2
1643.82246	17732.5
1647.11321	18886.8
1650.40179	19352.4
1653.68819	18757.6
1656.97241	17303.1
1660.25446	15781
1663.53433	14482.9
1666.81203	13598.7
1670.08756	13066.6
1673.36092	12715.2
1676.63211	12484.9
1679.90115	12294.7
1683.16801	12157.9
1686.43272	12049.8
1689.69527	11983.5
1692.95567	11916.8
1696.2139	11832.8
1699.46999	11751.5
1702.72392	11709.4
1705.97571	11733.1
1709.22535	11757.2
1712.47284	11721.5
1715.71819	11753.1
1718.96139	11741.9
1722.20246	11680.6
1725.44139	11676
1728.67818	11626.8
1731.91284	11601.4
1735.14537	11552.1
1738.37576	11460.7
1741.60403	11453.4
1744.83017	11394.9
1748.05418	11386.5
1751.27607	11347
1754.49584	11324.9
1757.71349	11292.9
1760.92903	11260.6
1764.14244	11239.5
1767.35375	11232.4
1770.56294	11220.3
1773.77002	11243.9
1776.97499	11224.3
1780.17785	11207.5
1783.37861	11211.3
1786.57727	11210.1
1789.77382	11207.2
1792.96828	11165.7
1796.16064	11124.7
1799.3509	11102.1
1802.53907	11109.3
1805.72514	11060.9
1808.90913	11052.9
1812.09102	11033.3
1815.27083	11017.7
1818.44856	11005.9
1821.6242	10958.5
1824.79776	10926.5
1827.96924	10939.7
1831.13864	10909.8
1834.30597	10923.2
1837.47122	10896.5
1840.6344	10893.6
1843.7955	10884.5
1846.95454	10864.4
1850.11151	10866.5
1853.26642	10876.2
1856.41926	10872.7
1859.57004	10905.6
1862.71876	10852.6
1865.86542	10869.1
1869.01003	10815.8
1872.15258	10819.4
1875.29308	10762.7
1878.43152	10765.5
1881.56792	10734.1
1884.70227	10709.5
1887.83457	10675.5
1890.96482	10659.2
1894.09304	10667.6
1897.21921	10648.4
1900.34335	10638
1903.46544	10607.9
1906.58551	10623.6
1909.70353	10568.6
1912.81953	10573.9
1915.93349	10546.7
1919.04543	10524.3
1922.15534	10503.3
1925.26322	10506.3
1928.36908	10456.3
1931.47292	10455.2
1934.57473	10417.7
1937.67453	10410.1
1940.77232	10369.1
1943.86808	10358
1946.96184	10304.4
1950.05358	10275
1953.14331	10260
1956.23103	10189.8
1959.31675	10207.2
1962.40046	10161.1
1965.48217	10140.6
1968.56188	10101.3
1971.63959	10043.7
1974.7153	10043.5
1977.78901	9981.5
1980.86073	9966.5
1983.93046	9948.1
1986.99819	9883.9
1990.06394	9841.6
1993.1277	9839.2
1996.18947	9798.7
1999.24925	9764.3
2002.30706	9744.4
2005.36288	9719.2
2008.41672	9695.8
2011.46859	9667.2
2014.51848	9616.8
2017.56639	9605.7
2020.61233	9572.7
2023.6563	9549.6
2026.6983	9528.4
2029.73833	9485.3
2032.7764	9471.5
2035.8125	9462.5
2038.84664	9424.3
2041.87881	9410
2044.90903	9373.2
2047.93729	9372.5
2050.96359	9360.3
2053.98794	9333.9
2057.01034	9322.1
2060.03078	9304.7
2063.04927	9314.5
2066.06582	9305.4
2069.08042	9309.6
2072.09307	9283.3
2075.10378	9296.6
2078.11255	9265.7
2081.11938	9274.1
2084.12426	9270.9
2087.12722	9240.4
2090.12824	9267.7
2093.12732	9259.9
2096.12447	9259.7
2099.11969	9237.6
2102.11299	9243.7
2105.10435	9254.4
2108.09379	9251.2
2111.08131	9261.6
2114.0669	9258.8
2117.05057	9268.4
2120.03233	9259.7
2123.01216	9259.3
2125.99008	9267.6
2128.96609	9291
2131.94018	9252.6
2134.91236	9286.6
2137.88263	9274.2
2140.851	9280.1
2143.81746	9286.8
2146.78201	9263.4
2149.74466	9287.2
2152.7054	9302.3
2155.66425	9278.7
2158.6212	9288.9
2161.57625	9270.9
2164.52941	9266.3
2167.48067	9261.8
2170.43004	9239.3
2173.37752	9232.5
2176.32311	9246.4
2179.26681	9272.6
2182.20863	9220.6
2185.14856	9222.5
2188.08661	9213.2
2191.02278	9233.6
2193.95707	9212.2
2196.88948	9198.5
2199.82001	9212.2
2202.74867	9186.7
2205.67545	9176.1
2208.60037	9139.5
2211.52341	9132.6
2214.44458	9111
2217.36388	9081.7
2220.28132	9085
2223.1969	9074.1
2226.11061	9055.4
2229.02246	9018.9
2231.93245	9001.6
2234.84058	8992.1
2237.74686	8965.2
2240.65128	8973.3
2243.55385	8952.9
2246.45456	8940.9
2249.35343	8929.4
2252.25044	8902.1
2255.14561	8898.7
2258.03893	8883.5
2260.93041	8869.3
2263.82004	8827
2266.70783	8829
2269.59378	8794.5
2272.4779	8765.9
2275.36017	8746.3
2278.24061	8729.2
2281.11922	8739.7
2283.996	8689
2286.87094	8696.9
2289.74405	8677.3
2292.61534	8636.7
2295.4848	8631.1
2298.35243	8611.4
2301.21824	8619.4
2304.08223	8597.2
2306.94439	8617
2309.80474	8601.2
2312.66327	8598.3
2315.51999	8565.1
2318.37489	8556
2321.22797	8532
2324.07925	8548.4
2326.92871	8509.6
2329.77637	8501.1
2332.62222	8501.4
2335.46626	8445
2338.3085	8449.9
2341.14893	8423
2343.98756	8438.8
2346.8244	8408.8
2349.65943	8405.2
2352.49267	8391.4
2355.32411	8392.6
2358.15376	8381.4
2360.98161	8369
2363.80768	8368.7
2366.63195	8393.6
2369.45444	8363.5
2372.27514	8352.1
2375.09405	8350.6
2377.91118	8336.3
2380.72652	8294.1
2383.54009	8309.1
2386.35187	8303.8
2389.16188	8271.4
2391.97011	8244.6
2394.77657	8221.9
2397.58125	8195.9
2400.38416	8185.5
2403.18529	8166.9
2405.98466	8152.2
2408.78226	8147.8
2411.57809	8133
2414.37216	8125.3
2417.16446	8127.7
2419.955	8094.7
2422.74378	8098.9
2425.5308	8097.1
2428.31606	8079.1
2431.09956	8084.1
2433.88131	8065.6
2436.6613	8059.3
2439.43954	8071.4
2442.21603	8052.7
2444.99077	8030.7
2447.76377	8006.6
2450.53501	8030.6
2453.30451	7995.2
2456.07226	7986.7
2458.83827	7968.9
2461.60254	7968.2
2464.36507	7962.3
2467.12586	7922.5
2469.88492	7942.4
2472.64224	7934.3
2475.39782	7933.6
2478.15167	7905.2
2480.90379	7900.8
2483.65417	7911.8
2486.40283	7898.8
2489.14976	7908.4
2491.89497	7888.6
2494.63845	7901.5
2497.3802	7880.2
2500.12024	7844.1
2502.85855	7857.5
2505.59514	7852.7
2508.33002	7816.7
2511.06318	7830.1
2513.79462	7825
2516.52435	7803.8
2519.25237	7824.7
2521.97867	7796.9
2524.70327	7789
2527.42616	7774.1
2530.14734	7754.4
2532.86681	7751.4
2535.58458	7723.6
2538.30065	7729.1
2541.01501	7715.2
2543.72768	7700.8
2546.43864	7688.2
2549.14791	7667.2
2551.85548	7661.4
2554.56136	7644.2
2557.26554	7626.8
2559.96803	7610.8
2562.66883	7609.1
2565.36794	7606.6
2568.06536	7573
2570.7611	7553.4
2573.45514	7543
2576.14751	7523.4
2578.83819	7532.8
2581.52719	7511.3
2584.21451	7518
2586.90015	7491.3
2589.58411	7478.1
2592.2664	7464.9
2594.94701	7437.8
2597.62594	7423.5
2600.30321	7408.9
2602.9788	7417
2605.65273	7408.4
2608.32498	7387.1
2610.99557	7383.4
2613.66449	7383.5
2616.33175	7366.8
2618.99734	7342.2
2621.66128	7339.1
2624.32355	7328.5
2626.98416	7316.4
2629.64311	7298.9
2632.30041	7315.5
2634.95605	7310.6
2637.61004	7269.8
2640.26238	7257.6
2642.91306	7268.7
2645.56209	7288
2648.20948	7262.6
2650.85521	7246.9
2653.4993	7263.2
2656.14175	7253.7
2658.78255	7253.6
2661.42171	7243.3
2664.05923	7235.1
2666.6951	7244.9
2669.32934	7243.5
2671.96194	7211.7
2674.59291	7242.5
2677.22224	7237.9
2679.84993	7241
2682.476	7236.5
2685.10043	7217.8
2687.72324	7217
2690.34441	7205
2692.96396	7216.4
2695.58188	7208.6
2698.19818	7201.9
2700.81285	7202.3
2703.4259	7200
2706.03733	7184
2708.64714	7181.5
2711.25533	7213.5
2713.86191	7174.2
2716.46687	7199.1
2719.07021	7196.9
2721.67194	7213.4
2724.27206	7212
2726.87057	7182.3
2729.46747	7193.4
2732.06276	7198.4
2734.65644	7205.9
2737.24852	7169.1
2739.83899	7164.9
2742.42786	7172.7
2745.01513	7144.3
2747.60079	7144.1
2750.18486	7152.7
2752.76733	7120.9
2755.3482	7115.7
2757.92747	7127
2760.50515	7098.2
2763.08123	7089.2
2765.65573	7081.1
2768.22863	7064.3
2770.79994	7057.6
2773.36967	7055.1
2775.9378	7047.9
2778.50435	7064.7
2781.06932	7019.7
2783.6327	7018.9
2786.1945	7003.5
2788.75471	7003.1
2791.31335	6965.6
2793.87041	6967.1
2796.42589	6941.1
2798.97979	6936.4
2801.53212	6941.4
2804.08288	6915.6
2806.63206	6895
2809.17967	6863.4
2811.72571	6857.9
2814.27018	6831.4
2816.81308	6854.4
2819.35442	6829.5
2821.89419	6821.6
2824.43239	6828.7
2826.96904	6796
2829.50412	6788.8
2832.03763	6775.8
2834.56959	6765.8
2837.1	6773.9
2839.62884	6762.1
2842.15613	6763.8
2844.68186	6788.5
2847.20604	6773.8
2849.72867	6763
2852.24974	6761.7
2854.76927	6753.5
2857.28724	6735.8
2859.80367	6733.1
2862.31855	6729.2
2864.83189	6704.6
2867.34368	6687.1
2869.85393	6693.6
2872.36264	6674.9
2874.8698	6684.6
2877.37543	6642.5
2879.87952	6643.9
2882.38207	6648.1
2884.88308	6631.3
2887.38256	6635.6
2889.88051	6634.4
2892.37692	6628.6
2894.8718	6640.3
2897.36515	6612.9
2899.85698	6614
2902.34727	6629.9
2904.83604	6626
2907.32328	6633.8
2909.809	6622
2912.29319	6628.7
2914.77587	6619.3
2917.25702	6640.9
2919.73665	6630.9
2922.21476	6618.5
2924.69136	6613.5
2927.16644	6623.3
2929.64	6611.9
2932.11205	6605.3
2934.58258	6589.2
2937.05161	6612.4
2939.51912	6587
2941.98513	6583.8
2944.44962	6556.1
2946.91261	6525.3
2949.37409	6543.6
2951.83407	6526.8
2954.29254	6518.5
2956.74951	6508.5
2959.20498	6527.4
2961.65895	6491
2964.11142	6509.2
2966.56239	6495.4
2969.01186	6488.6
2971.45984	6496.1
2973.90632	6463.6
2976.35131	6475.1
2978.7948	6458
2981.23681	6440.5
2983.67732	6432.9
2986.11635	6405.7
2988.55388	6394.1
2990.98993	6395.9
2993.4245	6389
2995.85758	6366.3
2998.28917	6346.7
3000.71928	6324.1
3003.14791	6307.3
3005.57506	6311
3008.00073	6291.3
3010.42493	6285.6
3012.84764	6263.7
3015.26888	6281.8
3017.68865	6242
3020.10694	6253.5
3022.52376	6212.8
3024.9391	6220.4
3027.35298	6237.5
3029.76539	6212.9
3032.17632	6210.7
3034.5858	6192.6
3036.9938	6202.2
3039.40034	6183.8
3041.80542	6188.9
3044.20903	6162.5
3046.61118	6152.2
3049.01187	6167.5
3051.4111	6152.8
3053.80888	6143.5
3056.20519	6140.4
3058.60005	6090.8
3060.99345	6079.2
3063.3854	6069.3
3065.7759	6063.1
3068.16494	6052.2
3070.55254	6044.6
3072.93868	6034.8
3075.32338	6017.3
3077.70662	6011.2
3080.08842	5982.7
3082.46878	5992.1
3084.84769	5988.9
3087.22515	5973
3089.60118	5957.2
3091.97576	5955.5
3094.3489	5971.1
3096.72061	5977.6
3099.09087	5974.9
3101.4597	5960.1
3103.82709	5961.2
3106.19305	5955.4
3108.55757	5968.9
3110.92066	5944.7
3113.28232	5929.9
3115.64255	5924.5
3118.00134	5922.4
3120.35871	5905.6
3122.71466	5892.2
3125.06917	5863.4
3127.42226	5861.1
3129.77393	5878.7
3132.12417	5858.8
3134.47299	5858.4
3136.82039	5872.6
3139.16636	5857.3
3141.51092	5872.5
3143.85406	5859.9
3146.19579	5885.7
3148.53609	5873.5
3150.87499	5906.3
3153.21246	5875.3
3155.54853	5883.9
3157.88318	5890.9
3160.21642	5902.1
3162.54826	5878.4
3164.87868	5883.5
3167.2077	5895
3169.5353	5890
3171.86151	5895.3
3174.18631	5890.1
3176.5097	5880.2
3178.83169	5870
3181.15228	5857.5
3183.47147	5841
3185.78926	5849.5
3188.10565	5840
3190.42065	5828
3192.73424	5825.1
3195.04645	5830
3197.35725	5836.8
3199.66667	5807.3
3201.97469	5862.6
3204.28132	5840.1
3206.58656	5840.8
3208.8904	5826.7
3211.19287	5852.8
3213.49394	5868.6
3215.79363	5855.8
3218.09193	5841
3220.38884	5845.8
3222.68438	5838.9
3224.97853	5813.8
3227.2713	5828.4
3229.56269	5824.2
3231.8527	5814.6
3234.14133	5800.7
3236.42858	5796.3
3238.71446	5769
3240.99896	5767.6
3243.28209	5763.5
3245.56384	5750.4
3247.84423	5762
3250.12324	5747.1
3252.40088	5730.7
3254.67715	5735.9
3256.95205	5743.5
3259.22558	5728.9
3261.49775	5725.4
3263.76855	5722.2
3266.03799	5700.6
3268.30606	5704.5
3270.57277	5687.6
3272.83812	5656
3275.10211	5646.8
3277.36474	5657.8
3279.62601	5641.9
3281.88593	5635.7
3284.14448	5637.6
3286.40168	5644.5
3288.65753	5629
3290.91202	5631.2
3293.16516	5630.5
3295.41695	5589.3
3297.66738	5565.4
3299.91647	5529.9
3302.16421	5493.8
3304.4106	5469.1
3306.65564	5444
3308.89933	5418.3
3311.14169	5394.7
3313.38269	5341.7
3315.62236	5304.6
3317.86068	5255.5
3320.09766	5221.6
3322.3333	5176.3
3324.5676	5164.8
3326.80056	5085.4
3329.03219	5058.1
3331.26248	1.7
3333.49143	1.5
3335.71905	-1.3
