Data from AgNPs_FTO_APTES_UA_1uM_CRN_10uM_R6G_10uM_NaF_0.1M_Addition_RamanShift__29__14-49-39-659.txt Node

Date: Thu Jan 27 14:49:39 GMT 2022
User: TCL
Spectrometer: QEP01345
Trigger mode: 4
Integration Time (sec): 7.000000E0
Scans to average: 10
Electric dark correction enabled: true
Nonlinearity correction enabled: false
Boxcar width: 0
XAxis mode: Raman Shifts
Number of Pixels in Spectrum: 1044
>>>>>Begin Spectral Data<<<<<
46.04893	1.125
50.45542	0.125
54.85868	-1.175
59.25871	-1.575
63.6555	30.925
68.04907	34.525
72.43941	37.225
76.82654	38.325
81.21044	41.525
85.59113	38.225
89.96862	44.325
94.34289	43.825
98.71396	45.625
103.08183	44.625
107.4465	51.725
111.80798	48.725
116.16626	49.625
120.52136	52.625
124.87327	54.225
129.222	51.025
133.56755	49.525
137.90993	51.625
142.24913	55.825
146.58517	57.025
150.91804	67.225
155.24774	77.025
159.57429	84.525
163.89768	101.825
168.21792	133.925
172.53501	175.725
176.84895	237.825
181.15975	323.025
185.46741	441.825
189.77193	606.925
194.07331	810.725
198.37157	1028.725
202.6667	1276.125
206.9587	1518.225
211.24758	1744.325
215.53334	1988.825
219.81599	2272.825
224.09553	2580.925
228.37195	2916.125
232.64527	3280.325
236.91549	3646.525
241.18261	3996.225
245.44663	4283.425
249.70755	4543.325
253.96539	4762.125
258.22014	4943.425
262.4718	5112.225
266.72039	5252.925
270.96589	5345.225
275.20832	5366.525
279.44768	5353.125
283.68397	5315.525
287.91719	5280.325
292.14735	5307.925
296.37445	5364.925
300.59849	5522.125
304.81948	5683.525
309.03742	5799.925
313.25231	5772.925
317.46415	5514.625
321.67296	5159.225
325.87872	4855.625
330.08145	4701.825
334.28114	4686.225
338.47781	4763.825
342.67145	4877.125
346.86207	5062.525
351.04966	5338.125
355.23424	5625.425
359.4158	5875.225
363.59435	5973.825
367.76989	6023.425
371.94243	5991.525
376.11196	5950.225
380.27849	5930.825
384.44203	5871.925
388.60257	5810.425
392.76012	5773.125
396.91468	5848.425
401.06626	6020.725
405.21485	6145.525
409.36047	6082.025
413.50311	5808.025
417.64277	5604.825
421.77947	5460.825
425.9132	5394.625
430.04396	5385.625
434.17176	5422.625
438.2966	5472.925
442.41849	5570.125
446.53742	5708.425
450.6534	5880.125
454.76644	5970.525
458.87653	5985.525
462.98368	5960.625
467.08789	5890.325
471.18916	5792.225
475.2875	5655.925
479.38291	5571.325
483.4754	5513.925
487.56496	5448.625
491.6516	5404.925
495.73531	5396.125
499.81612	5397.525
503.89401	5459.225
507.96899	5529.325
512.04106	5560.325
516.11023	5615.425
520.1765	5661.825
524.23987	5613.925
528.30034	5555.125
532.35792	5439.825
536.41261	5332.825
540.46441	5232.225
544.51333	5199.725
548.55936	5240.425
552.60252	5368.125
556.64279	5491.325
560.6802	5544.525
564.71473	5600.425
568.7464	5794.825
572.7752	5942.725
576.80114	5858.025
580.82422	5743.525
584.84444	5692.725
588.86181	5664.725
592.87633	5644.425
596.888	5667.525
600.89682	5818.025
604.9028	6364.725
608.90594	7781.825
612.90624	9644.325
616.90371	9411.925
620.89834	6954.025
624.89015	5715.625
628.87913	5478.325
632.86528	5502.125
636.84862	5576.825
640.82913	5506.325
644.80683	5321.325
648.78172	5182.625
652.75379	5214.625
656.72306	5398.725
660.68952	5650.725
664.65319	5634.025
668.61405	5398.425
672.57211	5290.325
676.52738	5269.725
680.47986	5280.225
684.42955	5252.125
688.37646	5231.425
692.32058	5259.425
696.26192	5286.225
700.20048	5366.525
704.13626	5403.125
708.06928	5404.825
711.99952	5349.025
715.927	5344.425
719.85171	5335.925
723.77365	5325.525
727.69284	5270.525
731.60928	5223.225
735.52295	5201.325
739.43388	5234.425
743.34206	5251.425
747.24749	5304.625
751.15017	5357.225
755.05012	5461.125
758.94733	5676.325
762.8418	6171.625
766.73354	6989.125
770.62254	7887.725
774.50882	8288.725
778.39237	7941.725
782.27321	7036.925
786.15132	6159.725
790.02671	5650.825
793.89938	5409.725
797.76935	5314.625
801.6366	5268.625
805.50115	5235.625
809.36299	5227.025
813.22213	5200.325
817.07857	5198.325
820.93231	5190.425
824.78336	5205.125
828.63172	5224.525
832.47738	5233.125
836.32036	5229.725
840.16066	5198.225
843.99827	5182.025
847.8332	5145.925
851.66546	5158.825
855.49504	5157.925
859.32195	5144.725
863.1462	5135.125
866.96777	5129.925
870.78668	5103.125
874.60293	5109.125
878.41652	5141.225
882.22745	5138.925
886.03573	5181.425
889.84136	5178.825
893.64433	5137.725
897.44466	5137.525
901.24235	5135.525
905.0374	5111.525
908.8298	5113.325
912.61957	5095.925
916.40671	5140.925
920.19121	5184.925
923.97308	5233.025
927.75233	5257.625
931.52895	5279.925
935.30295	5230.425
939.07433	5099.525
942.84309	5020.425
946.60924	4952.425
950.37278	4906.225
954.13371	4898.925
957.89203	4875.525
961.64774	4856.225
965.40086	4849.825
969.15137	4845.525
972.89929	4835.325
976.64461	4813.425
980.38733	4812.425
984.12747	4811.525
987.86502	4832.425
991.59999	4864.125
995.33237	4917.125
999.06217	4985.625
1002.78939	5124.725
1006.51404	5224.925
1010.23611	5327.825
1013.95561	5402.425
1017.67255	5379.025
1021.38692	5319.325
1025.09872	5237.425
1028.80796	5191.525
1032.51465	5201.925
1036.21877	5269.325
1039.92035	5303.725
1043.61937	5337.525
1047.31584	5297.825
1051.00976	5294.325
1054.70114	5282.525
1058.38998	5270.625
1062.07627	5312.025
1065.76003	5360.225
1069.44126	5412.525
1073.11995	5472.625
1076.79611	5494.825
1080.46974	5533.925
1084.14085	5629.825
1087.80943	5755.425
1091.47549	5801.225
1095.13903	5721.825
1098.80005	5566.525
1102.45857	5409.725
1106.11456	5328.325
1109.76805	5326.325
1113.41903	5383.925
1117.06751	5482.025
1120.71348	5668.425
1124.35696	5857.225
1127.99793	6021.125
1131.63641	6047.825
1135.2724	5848.825
1138.90589	5635.825
1142.5369	5499.025
1146.16542	5427.325
1149.79145	5381.425
1153.415	5392.725
1157.03607	5448.025
1160.65467	5549.725
1164.27079	5698.525
1167.88443	5923.925
1171.49561	6317.325
1175.10432	6961.925
1178.71056	7796.925
1182.31434	8412.825
1185.91565	8536.425
1189.51451	8393.025
1193.11091	7986.525
1196.70485	7452.225
1200.29634	7029.525
1203.88538	6720.025
1207.47197	6397.625
1211.05612	6090.325
1214.63782	5926.525
1218.21708	5893.525
1221.79391	5905.225
1225.36829	5967.725
1228.94024	6021.825
1232.50976	6085.925
1236.07685	6132.725
1239.6415	6134.825
1243.20374	6117.625
1246.76355	6118.725
1250.32093	6165.325
1253.8759	6267.725
1257.42845	6429.225
1260.97859	6597.425
1264.52631	6743.225
1268.07163	6893.025
1271.61453	7039.425
1275.15503	7199.425
1278.69312	7272.425
1282.22882	7344.825
1285.76211	7465.225
1289.29301	7661.725
1292.82151	7840.725
1296.34761	8049.825
1299.87133	8324.025
1303.39266	8804.725
1306.9116	9578.125
1310.42815	10520.825
1313.94233	11180.125
1317.45412	11161.825
1320.96354	10653.425
1324.47058	10020.425
1327.97525	9481.725
1331.47754	9145.325
1334.97747	9044.625
1338.47502	9072.925
1341.97022	9171.125
1345.46305	9344.225
1348.95352	9591.225
1352.44163	10014.725
1355.92738	10642.125
1359.41078	11789.325
1362.89183	13008.825
1366.37053	12885.025
1369.84688	11259.625
1373.32088	9563.425
1376.79254	8449.025
1380.26186	7920.025
1383.72883	7644.625
1387.19347	7415.825
1390.65578	7184.825
1394.11575	7002.825
1397.57339	6921.925
1401.0287	6947.425
1404.48168	7053.925
1407.93234	7208.525
1411.38068	7307.425
1414.82669	7313.925
1418.27039	7168.525
1421.71177	6998.725
1425.15083	6853.325
1428.58758	6768.825
1432.02203	6758.125
1435.45416	6772.125
1438.88399	6766.625
1442.31151	6797.525
1445.73673	6795.125
1449.15965	6841.125
1452.58027	6812.025
1455.9986	6792.925
1459.41463	6772.425
1462.82837	6808.825
1466.23982	6928.425
1469.64898	7045.825
1473.05586	7165.825
1476.46045	7207.625
1479.86276	7323.225
1483.26279	7460.525
1486.66054	7635.225
1490.05602	7850.925
1493.44922	8143.425
1496.84016	8582.625
1500.22882	9183.725
1503.61521	10002.425
1506.99934	10911.625
1510.38121	11823.125
1513.76081	12385.725
1517.13816	12021.725
1520.51324	10902.925
1523.88607	9643.025
1527.25665	8742.825
1530.62498	8204.925
1533.99105	7910.125
1537.35488	7666.625
1540.71647	7537.025
1544.07581	7463.125
1547.4329	7395.425
1550.78776	7334.125
1554.14038	7311.525
1557.49077	7370.625
1560.83892	7477.125
1564.18484	7656.825
1567.52853	7814.225
1570.86999	7914.125
1574.20922	7975.625
1577.54624	7946.325
1580.88103	7673.725
1584.2136	7305.125
1587.54395	7143.725
1590.87208	7243.925
1594.19801	7574.425
1597.52172	8038.925
1600.84321	8199.825
1604.16251	7968.025
1607.47959	7534.925
1610.79447	7017.925
1614.10715	6560.625
1617.41763	6182.625
1620.7259	5926.825
1624.03199	5804.925
1627.33587	5808.025
1630.63757	5926.225
1633.93707	6173.625
1637.23439	6557.625
1640.52951	7103.525
1643.82246	7683.525
1647.11321	8363.225
1650.40179	8864.925
1653.68819	8704.125
1656.97241	7799.925
1660.25446	6702.125
1663.53433	5885.725
1666.81203	5387.025
1670.08756	5117.625
1673.36092	4930.325
1676.63211	4823.425
1679.90115	4750.125
1683.16801	4707.725
1686.43272	4671.525
1689.69527	4611.925
1692.95567	4573.725
1696.2139	4540.425
1699.46999	4484.125
1702.72392	4458.125
1705.97571	4491.125
1709.22535	4507.525
1712.47284	4521.225
1715.71819	4548.625
1718.96139	4556.725
1722.20246	4548.725
1725.44139	4531.425
1728.67818	4523.725
1731.91284	4487.425
1735.14537	4444.125
1738.37576	4445.725
1741.60403	4415.325
1744.83017	4387.925
1748.05418	4373.825
1751.27607	4353.825
1754.49584	4344.725
1757.71349	4321.925
1760.92903	4292.525
1764.14244	4287.425
1767.35375	4293.025
1770.56294	4270.725
1773.77002	4277.225
1776.97499	4284.025
1780.17785	4287.325
1783.37861	4292.425
1786.57727	4292.325
1789.77382	4296.825
1792.96828	4289.025
1796.16064	4278.525
1799.3509	4267.825
1802.53907	4277.825
1805.72514	4261.125
1808.90913	4250.225
1812.09102	4230.025
1815.27083	4230.325
1818.44856	4220.125
1821.6242	4207.025
1824.79776	4210.125
1827.96924	4204.425
1831.13864	4198.525
1834.30597	4197.525
1837.47122	4211.725
1840.6344	4180.625
1843.7955	4205.325
1846.95454	4202.025
1850.11151	4201.625
1853.26642	4189.025
1856.41926	4200.725
1859.57004	4209.725
1862.71876	4209.825
1865.86542	4212.925
1869.01003	4201.525
1872.15258	4213.725
1875.29308	4212.825
1878.43152	4211.525
1881.56792	4221.025
1884.70227	4203.125
1887.83457	4220.225
1890.96482	4220.925
1894.09304	4217.325
1897.21921	4220.925
1900.34335	4215.625
1903.46544	4202.025
1906.58551	4210.725
1909.70353	4223.525
1912.81953	4203.725
1915.93349	4223.925
1919.04543	4212.925
1922.15534	4202.725
1925.26322	4210.125
1928.36908	4187.925
1931.47292	4166.725
1934.57473	4128.625
1937.67453	4135.825
1940.77232	4098.125
1943.86808	4083.125
1946.96184	4063.725
1950.05358	4036.825
1953.14331	4036.825
1956.23103	4000.125
1959.31675	3992.525
1962.40046	3988.125
1965.48217	3962.725
1968.56188	3957.925
1971.63959	3943.825
1974.7153	3942.725
1977.78901	3928.525
1980.86073	3916.425
1983.93046	3905.825
1986.99819	3879.425
1990.06394	3869.225
1993.1277	3848.225
1996.18947	3837.325
1999.24925	3843.825
2002.30706	3815.325
2005.36288	3820.725
2008.41672	3803.125
2011.46859	3789.825
2014.51848	3778.525
2017.56639	3777.025
2020.61233	3755.225
2023.6563	3737.025
2026.6983	3747.025
2029.73833	3732.725
2032.7764	3720.325
2035.8125	3719.825
2038.84664	3701.825
2041.87881	3698.525
2044.90903	3693.925
2047.93729	3675.825
2050.96359	3669.525
2053.98794	3672.125
2057.01034	3657.925
2060.03078	3645.925
2063.04927	3656.425
2066.06582	3656.425
2069.08042	3649.825
2072.09307	3641.625
2075.10378	3641.825
2078.11255	3645.125
2081.11938	3647.325
2084.12426	3641.025
2087.12722	3639.725
2090.12824	3631.925
2093.12732	3631.125
2096.12447	3623.025
2099.11969	3629.425
2102.11299	3630.425
2105.10435	3635.925
2108.09379	3632.625
2111.08131	3631.225
2114.0669	3628.425
2117.05057	3636.825
2120.03233	3642.025
2123.01216	3637.225
2125.99008	3653.525
2128.96609	3655.125
2131.94018	3647.025
2134.91236	3646.825
2137.88263	3645.825
2140.851	3635.525
2143.81746	3642.625
2146.78201	3651.525
2149.74466	3657.425
2152.7054	3650.725
2155.66425	3633.425
2158.6212	3645.525
2161.57625	3632.225
2164.52941	3629.425
2167.48067	3618.725
2170.43004	3633.125
2173.37752	3623.825
2176.32311	3639.525
2179.26681	3635.825
2182.20863	3622.725
2185.14856	3622.225
2188.08661	3633.625
2191.02278	3627.825
2193.95707	3605.425
2196.88948	3618.825
2199.82001	3618.725
2202.74867	3617.525
2205.67545	3600.825
2208.60037	3611.425
2211.52341	3583.525
2214.44458	3588.825
2217.36388	3576.725
2220.28132	3566.725
2223.1969	3566.325
2226.11061	3554.525
2229.02246	3554.025
2231.93245	3548.925
2234.84058	3530.525
2237.74686	3530.825
2240.65128	3527.825
2243.55385	3521.125
2246.45456	3514.925
2249.35343	3517.525
2252.25044	3502.025
2255.14561	3498.825
2258.03893	3494.625
2260.93041	3490.025
2263.82004	3488.725
2266.70783	3484.325
2269.59378	3473.725
2272.4779	3460.525
2275.36017	3459.925
2278.24061	3452.225
2281.11922	3450.925
2283.996	3435.325
2286.87094	3434.525
2289.74405	3420.925
2292.61534	3409.725
2295.4848	3399.125
2298.35243	3400.725
2301.21824	3402.125
2304.08223	3388.125
2306.94439	3394.925
2309.80474	3397.525
2312.66327	3396.725
2315.51999	3389.025
2318.37489	3393.425
2321.22797	3382.625
2324.07925	3380.725
2326.92871	3379.225
2329.77637	3364.325
2332.62222	3376.425
2335.46626	3353.025
2338.3085	3340.725
2341.14893	3341.125
2343.98756	3344.625
2346.8244	3337.325
2349.65943	3352.825
2352.49267	3343.025
2355.32411	3348.825
2358.15376	3346.425
2360.98161	3355.825
2363.80768	3350.425
2366.63195	3355.125
2369.45444	3344.625
2372.27514	3340.325
2375.09405	3358.325
2377.91118	3341.025
2380.72652	3308.825
2383.54009	3318.725
2386.35187	3308.925
2389.16188	3298.825
2391.97011	3285.425
2394.77657	3270.725
2397.58125	3269.525
2400.38416	3241.825
2403.18529	3255.325
2405.98466	3245.625
2408.78226	3238.725
2411.57809	3237.825
2414.37216	3232.025
2417.16446	3219.825
2419.955	3209.225
2422.74378	3222.025
2425.5308	3220.125
2428.31606	3214.925
2431.09956	3207.725
2433.88131	3196.425
2436.6613	3207.425
2439.43954	3201.825
2442.21603	3203.425
2444.99077	3201.425
2447.76377	3205.125
2450.53501	3198.825
2453.30451	3191.125
2456.07226	3188.825
2458.83827	3187.825
2461.60254	3205.425
2464.36507	3185.925
2467.12586	3179.625
2469.88492	3176.225
2472.64224	3187.025
2475.39782	3183.025
2478.15167	3178.825
2480.90379	3161.025
2483.65417	3190.625
2486.40283	3187.825
2489.14976	3189.225
2491.89497	3192.525
2494.63845	3184.925
2497.3802	3180.625
2500.12024	3190.425
2502.85855	3185.925
2505.59514	3186.625
2508.33002	3169.525
2511.06318	3156.125
2513.79462	3150.925
2516.52435	3145.325
2519.25237	3126.425
2521.97867	3118.325
2524.70327	3126.625
2527.42616	3108.525
2530.14734	3108.725
2532.86681	3104.825
2535.58458	3093.325
2538.30065	3094.925
2541.01501	3099.925
2543.72768	3093.925
2546.43864	3095.025
2549.14791	3096.425
2551.85548	3095.925
2554.56136	3090.225
2557.26554	3077.625
2559.96803	3075.225
2562.66883	3069.825
2565.36794	3075.425
2568.06536	3066.525
2570.7611	3060.625
2573.45514	3044.025
2576.14751	3033.525
2578.83819	3032.525
2581.52719	3031.725
2584.21451	3031.825
2586.90015	3042.025
2589.58411	3029.225
2592.2664	3017.625
2594.94701	3018.225
2597.62594	3018.425
2600.30321	3007.225
2602.9788	2999.125
2605.65273	2999.725
2608.32498	3010.325
2610.99557	3001.725
2613.66449	3001.925
2616.33175	2997.825
2618.99734	2995.225
2621.66128	3001.525
2624.32355	2988.325
2626.98416	2996.825
2629.64311	2978.125
2632.30041	2991.225
2634.95605	2977.225
2637.61004	2967.625
2640.26238	2962.925
2642.91306	2955.225
2645.56209	2959.225
2648.20948	2964.825
2650.85521	2956.425
2653.4993	2962.225
2656.14175	2944.425
2658.78255	2944.025
2661.42171	2955.025
2664.05923	2962.825
2666.6951	2959.325
2669.32934	2964.225
2671.96194	2963.225
2674.59291	2973.325
2677.22224	2965.925
2679.84993	2978.525
2682.476	2957.925
2685.10043	2960.625
2687.72324	2967.125
2690.34441	2972.525
2692.96396	2964.325
2695.58188	2962.825
2698.19818	2977.325
2700.81285	2968.525
2703.4259	2962.425
2706.03733	2949.425
2708.64714	2930.325
2711.25533	2957.825
2713.86191	2965.725
2716.46687	2963.425
2719.07021	2964.525
2721.67194	2974.125
2724.27206	2956.925
2726.87057	2974.125
2729.46747	2974.725
2732.06276	2979.525
2734.65644	2960.925
2737.24852	2965.225
2739.83899	2961.725
2742.42786	2959.025
2745.01513	2946.225
2747.60079	2952.325
2750.18486	2945.025
2752.76733	2936.925
2755.3482	2937.325
2757.92747	2940.925
2760.50515	2918.825
2763.08123	2928.725
2765.65573	2939.325
2768.22863	2929.225
2770.79994	2921.225
2773.36967	2910.625
2775.9378	2921.425
2778.50435	2920.025
2781.06932	2915.425
2783.6327	2914.425
2786.1945	2900.325
2788.75471	2905.025
2791.31335	2896.425
2793.87041	2898.225
2796.42589	2884.225
2798.97979	2888.325
2801.53212	2885.225
2804.08288	2885.825
2806.63206	2867.325
2809.17967	2872.725
2811.72571	2864.225
2814.27018	2869.225
2816.81308	2869.725
2819.35442	2872.825
2821.89419	2867.625
2824.43239	2881.925
2826.96904	2881.925
2829.50412	2869.525
2832.03763	2874.525
2834.56959	2885.825
2837.1	2877.925
2839.62884	2883.625
2842.15613	2887.925
2844.68186	2907.025
2847.20604	2936.825
2849.72867	2966.925
2852.24974	2969.525
2854.76927	2964.325
2857.28724	2947.125
2859.80367	2941.625
2862.31855	2921.925
2864.83189	2926.125
2867.34368	2915.825
2869.85393	2913.125
2872.36264	2914.925
2874.8698	2916.925
2877.37543	2911.425
2879.87952	2921.825
2882.38207	2913.325
2884.88308	2893.325
2887.38256	2913.125
2889.88051	2900.925
2892.37692	2904.325
2894.8718	2900.825
2897.36515	2895.325
2899.85698	2905.425
2902.34727	2896.125
2904.83604	2925.125
2907.32328	2907.825
2909.809	2910.925
2912.29319	2915.625
2914.77587	2922.125
2917.25702	2904.725
2919.73665	2887.825
2922.21476	2903.925
2924.69136	2900.125
2927.16644	2909.925
2929.64	2894.125
2932.11205	2891.825
2934.58258	2880.625
2937.05161	2873.025
2939.51912	2857.825
2941.98513	2845.125
2944.44962	2831.225
2946.91261	2832.025
2949.37409	2821.325
2951.83407	2814.225
2954.29254	2818.025
2956.74951	2786.925
2959.20498	2799.025
2961.65895	2777.725
2964.11142	2782.425
2966.56239	2776.725
2969.01186	2771.725
2971.45984	2759.125
2973.90632	2757.925
2976.35131	2752.625
2978.7948	2741.925
2981.23681	2733.225
2983.67732	2728.625
2986.11635	2714.625
2988.55388	2710.925
2990.98993	2705.925
2993.4245	2710.625
2995.85758	2688.025
2998.28917	2693.625
3000.71928	2675.325
3003.14791	2685.125
3005.57506	2675.225
3008.00073	2678.725
3010.42493	2663.525
3012.84764	2669.025
3015.26888	2670.425
3017.68865	2659.225
3020.10694	2665.925
3022.52376	2657.125
3024.9391	2650.625
3027.35298	2650.725
3029.76539	2645.725
3032.17632	2650.825
3034.5858	2641.225
3036.9938	2629.025
3039.40034	2635.625
3041.80542	2636.325
3044.20903	2632.525
3046.61118	2625.825
3049.01187	2622.725
3051.4111	2616.025
3053.80888	2617.625
3056.20519	2614.025
3058.60005	2605.125
3060.99345	2605.425
3063.3854	2598.225
3065.7759	2587.325
3068.16494	2601.625
3070.55254	2593.425
3072.93868	2585.925
3075.32338	2578.725
3077.70662	2573.225
3080.08842	2582.425
3082.46878	2559.125
3084.84769	2565.325
3087.22515	2566.025
3089.60118	2550.925
3091.97576	2558.025
3094.3489	2566.925
3096.72061	2559.325
3099.09087	2569.525
3101.4597	2559.425
3103.82709	2564.425
3106.19305	2556.625
3108.55757	2576.025
3110.92066	2555.425
3113.28232	2568.325
3115.64255	2549.425
3118.00134	2551.325
3120.35871	2554.925
3122.71466	2544.425
3125.06917	2552.325
3127.42226	2536.925
3129.77393	2555.025
3132.12417	2552.825
3134.47299	2560.325
3136.82039	2559.825
3139.16636	2556.825
3141.51092	2562.525
3143.85406	2566.825
3146.19579	2571.425
3148.53609	2573.025
3150.87499	2579.925
3153.21246	2588.725
3155.54853	2588.825
3157.88318	2593.425
3160.21642	2597.625
3162.54826	2604.525
3164.87868	2598.525
3167.2077	2610.925
3169.5353	2613.225
3171.86151	2614.025
3174.18631	2611.325
3176.5097	2614.525
3178.83169	2609.525
3181.15228	2619.825
3183.47147	2621.425
3185.78926	2619.925
3188.10565	2616.725
3190.42065	2616.225
3192.73424	2624.825
3195.04645	2615.025
3197.35725	2632.725
3199.66667	2634.825
3201.97469	2638.725
3204.28132	2635.925
3206.58656	2644.125
3208.8904	2647.525
3211.19287	2648.625
3213.49394	2649.425
3215.79363	2665.625
3218.09193	2660.525
3220.38884	2654.425
3222.68438	2650.025
3224.97853	2658.325
3227.2713	2656.525
3229.56269	2654.425
3231.8527	2664.225
3234.14133	2647.625
3236.42858	2643.125
3238.71446	2644.225
3240.99896	2628.225
3243.28209	2645.325
3245.56384	2631.425
3247.84423	2642.325
3250.12324	2633.825
3252.40088	2634.725
3254.67715	2627.925
3256.95205	2625.425
3259.22558	2623.925
3261.49775	2616.225
3263.76855	2623.325
3266.03799	2608.725
3268.30606	2622.425
3270.57277	2619.525
3272.83812	2591.525
3275.10211	2604.225
3277.36474	2592.325
3279.62601	2594.625
3281.88593	2600.125
3284.14448	2589.925
3286.40168	2600.625
3288.65753	2590.125
3290.91202	2589.325
3293.16516	2581.225
3295.41695	2568.925
3297.66738	2545.825
3299.91647	2538.225
3302.16421	2526.725
3304.4106	2526.725
3306.65564	2510.125
3308.89933	2495.325
3311.14169	2468.825
3313.38269	2458.925
3315.62236	2445.625
3317.86068	2424.125
3320.09766	2401.525
3322.3333	2384.725
3324.5676	2373.825
3326.80056	2329.825
3329.03219	2324.725
3331.26248	1.025
3333.49143	0.525
3335.71905	0.425
