Data from AgNPs_FTO_APTES_UA_1uM_CRN_5uM_R6G_10uM_NaF_0.1M_Addition_RamanShift__3__13-39-39-578.txt Node

Date: Thu Jan 27 13:39:39 GMT 2022
User: TCL
Spectrometer: QEP01345
Trigger mode: 4
Integration Time (sec): 7.000000E0
Scans to average: 10
Electric dark correction enabled: true
Nonlinearity correction enabled: false
Boxcar width: 0
XAxis mode: Raman Shifts
Number of Pixels in Spectrum: 1044
>>>>>Begin Spectral Data<<<<<
46.04893	0.4375
50.45542	0.9375
54.85868	-1.4625
59.25871	-0.8625
63.6555	53.5375
68.04907	56.7375
72.43941	59.0375
76.82654	65.6375
81.21044	66.3375
85.59113	67.4375
89.96862	67.9375
94.34289	71.4375
98.71396	76.2375
103.08183	73.3375
107.4465	80.3375
111.80798	81.3375
116.16626	81.1375
120.52136	88.1375
124.87327	85.2375
129.222	87.3375
133.56755	91.2375
137.90993	97.5375
142.24913	107.7375
146.58517	119.7375
150.91804	137.7375
155.24774	159.1375
159.57429	193.1375
163.89768	242.8375
168.21792	327.6375
172.53501	436.5375
176.84895	601.0375
181.15975	828.9375
185.46741	1161.7375
189.77193	1601.6375
194.07331	2134.4375
198.37157	2774.0375
202.6667	3418.7375
206.9587	4054.7375
211.24758	4694.1375
215.53334	5330.8375
219.81599	6013.8375
224.09553	6765.5375
228.37195	7581.0375
232.64527	8490.5375
236.91549	9454.8375
241.18261	10392.8375
245.44663	11281.3375
249.70755	12095.6375
253.96539	12788.3375
258.22014	13381.2375
262.4718	13887.9375
266.72039	14185.9375
270.96589	14361.6375
275.20832	14377.9375
279.44768	14275.8375
283.68397	14116.6375
287.91719	13974.2375
292.14735	13907.6375
296.37445	13859.8375
300.59849	13884.0375
304.81948	13955.9375
309.03742	14001.2375
313.25231	13959.4375
317.46415	13756.0375
321.67296	13463.9375
325.87872	13269.3375
330.08145	13130.7375
334.28114	13099.5375
338.47781	13197.1375
342.67145	13351.2375
346.86207	13562.4375
351.04966	13799.3375
355.23424	14117.3375
359.4158	14354.9375
363.59435	14537.7375
367.76989	14684.8375
371.94243	14819.8375
376.11196	14882.5375
380.27849	14981.3375
384.44203	15061.0375
388.60257	15178.3375
392.76012	15338.5375
396.91468	15530.6375
401.06626	15747.2375
405.21485	15910.9375
409.36047	15858.9375
413.50311	15755.1375
417.64277	15666.1375
421.77947	15699.6375
425.9132	15720.5375
430.04396	15840.7375
434.17176	15902.6375
438.2966	15999.1375
442.41849	16212.0375
446.53742	16645.3375
450.6534	17128.7375
454.76644	17492.6375
458.87653	17549.0375
462.98368	17400.4375
467.08789	17161.0375
471.18916	16828.6375
475.2875	16546.7375
479.38291	16281.7375
483.4754	16117.0375
487.56496	16013.8375
491.6516	15864.9375
495.73531	15756.3375
499.81612	15775.3375
503.89401	15887.4375
507.96899	15977.7375
512.04106	15893.9375
516.11023	15819.2375
520.1765	15732.0375
524.23987	15628.4375
528.30034	15538.4375
532.35792	15436.2375
536.41261	15275.5375
540.46441	15076.8375
544.51333	14995.4375
548.55936	15122.0375
552.60252	15434.3375
556.64279	15726.6375
560.6802	15966.4375
564.71473	15986.0375
568.7464	16123.2375
572.7752	16442.5375
576.80114	16737.1375
580.82422	17211.0375
584.84444	17813.3375
588.86181	18607.1375
592.87633	19246.2375
596.888	19258.8375
600.89682	18633.6375
604.9028	18548.3375
608.90594	19758.6375
612.90624	21237.8375
616.90371	20235.7375
620.89834	17411.9375
624.89015	16147.3375
628.87913	15945.7375
632.86528	15863.5375
636.84862	15765.1375
640.82913	15459.8375
644.80683	15129.1375
648.78172	14921.5375
652.75379	14916.9375
656.72306	15129.8375
660.68952	15333.2375
664.65319	15250.0375
668.61405	15040.3375
672.57211	14995.0375
676.52738	15070.7375
680.47986	15040.9375
684.42955	14947.2375
688.37646	14871.0375
692.32058	14998.6375
696.26192	15234.0375
700.20048	15479.5375
704.13626	15571.7375
708.06928	15470.6375
711.99952	15340.3375
715.927	15327.7375
719.85171	15441.8375
723.77365	15405.0375
727.69284	15216.9375
731.60928	15007.3375
735.52295	14933.1375
739.43388	14941.2375
743.34206	14993.9375
747.24749	15089.4375
751.15017	15210.1375
755.05012	15433.5375
758.94733	15793.3375
762.8418	16420.1375
766.73354	17321.1375
770.62254	18275.8375
774.50882	18537.8375
778.39237	17934.0375
782.27321	16914.5375
786.15132	16025.2375
790.02671	15506.5375
793.89938	15294.7375
797.76935	15227.7375
801.6366	15165.2375
805.50115	15159.2375
809.36299	15078.6375
813.22213	14950.6375
817.07857	14850.8375
820.93231	14810.1375
824.78336	14769.6375
828.63172	14783.7375
832.47738	14840.4375
836.32036	14905.4375
840.16066	15017.6375
843.99827	15111.1375
847.8332	15045.3375
851.66546	14922.9375
855.49504	14850.7375
859.32195	14859.8375
863.1462	14821.4375
866.96777	14752.1375
870.78668	14708.8375
874.60293	14700.5375
878.41652	14704.0375
882.22745	14776.5375
886.03573	14847.6375
889.84136	14865.3375
893.64433	14779.0375
897.44466	14692.4375
901.24235	14613.8375
905.0374	14595.7375
908.8298	14573.6375
912.61957	14600.0375
916.40671	14708.4375
920.19121	14930.8375
923.97308	15153.8375
927.75233	15261.7375
931.52895	15282.4375
935.30295	15103.6375
939.07433	14860.4375
942.84309	14725.7375
946.60924	14629.6375
950.37278	14568.8375
954.13371	14538.2375
957.89203	14478.9375
961.64774	14433.6375
965.40086	14380.8375
969.15137	14358.7375
972.89929	14347.1375
976.64461	14343.1375
980.38733	14409.0375
984.12747	14497.2375
987.86502	14663.0375
991.59999	14905.4375
995.33237	15209.8375
999.06217	15710.8375
1002.78939	16334.5375
1006.51404	16643.9375
1010.23611	16818.3375
1013.95561	16869.1375
1017.67255	16827.4375
1021.38692	16627.9375
1025.09872	16474.3375
1028.80796	16716.9375
1032.51465	17481.2375
1036.21877	18212.2375
1039.92035	18449.1375
1043.61937	18138.5375
1047.31584	17496.9375
1051.00976	16779.8375
1054.70114	16347.4375
1058.38998	16187.1375
1062.07627	16115.9375
1065.76003	16104.0375
1069.44126	16195.2375
1073.11995	16416.2375
1076.79611	16625.3375
1080.46974	16785.6375
1084.14085	16888.1375
1087.80943	17024.5375
1091.47549	17093.1375
1095.13903	17033.3375
1098.80005	16807.8375
1102.45857	16504.6375
1106.11456	16282.8375
1109.76805	16209.0375
1113.41903	16218.9375
1117.06751	16252.9375
1120.71348	16330.2375
1124.35696	16444.8375
1127.99793	16599.3375
1131.63641	16716.2375
1135.2724	16671.0375
1138.90589	16577.3375
1142.5369	16564.3375
1146.16542	16584.4375
1149.79145	16594.9375
1153.415	16688.0375
1157.03607	16842.4375
1160.65467	17245.1375
1164.27079	17939.5375
1167.88443	18793.7375
1171.49561	19746.9375
1175.10432	20950.0375
1178.71056	22500.1375
1182.31434	24067.6375
1185.91565	24931.9375
1189.51451	24884.6375
1193.11091	24142.9375
1196.70485	23264.4375
1200.29634	22457.8375
1203.88538	21880.3375
1207.47197	21532.9375
1211.05612	21164.7375
1214.63782	20724.5375
1218.21708	20393.1375
1221.79391	20064.5375
1225.36829	19875.7375
1228.94024	19611.7375
1232.50976	19203.9375
1236.07685	18915.7375
1239.6415	18719.0375
1243.20374	18745.5375
1246.76355	18971.1375
1250.32093	19326.2375
1253.8759	19743.8375
1257.42845	20313.8375
1260.97859	20890.5375
1264.52631	21510.5375
1268.07163	22170.5375
1271.61453	22888.9375
1275.15503	23622.7375
1278.69312	24300.8375
1282.22882	24883.6375
1285.76211	25389.4375
1289.29301	25974.3375
1292.82151	26839.3375
1296.34761	28087.0375
1299.87133	29779.3375
1303.39266	31773.2375
1306.9116	33732.7375
1310.42815	35100.0375
1313.94233	35567.0375
1317.45412	34876.0375
1320.96354	33744.2375
1324.47058	32625.0375
1327.97525	31739.5375
1331.47754	31217.3375
1334.97747	30846.1375
1338.47502	30477.0375
1341.97022	29937.4375
1345.46305	29399.9375
1348.95352	29089.0375
1352.44163	29413.5375
1355.92738	30539.6375
1359.41078	32424.7375
1362.89183	33838.1375
1366.37053	33384.2375
1369.84688	30807.6375
1373.32088	27492.9375
1376.79254	25118.0375
1380.26186	24174.1375
1383.72883	24040.2375
1387.19347	23962.3375
1390.65578	23628.4375
1394.11575	23375.8375
1397.57339	23488.4375
1401.0287	23754.2375
1404.48168	24069.0375
1407.93234	24168.0375
1411.38068	23944.9375
1414.82669	23563.4375
1418.27039	22908.8375
1421.71177	22160.2375
1425.15083	21552.3375
1428.58758	21262.5375
1432.02203	21406.5375
1435.45416	21995.6375
1438.88399	22635.7375
1442.31151	23048.1375
1445.73673	23208.7375
1449.15965	23290.9375
1452.58027	23182.5375
1455.9986	22995.2375
1459.41463	22937.7375
1462.82837	23193.5375
1466.23982	23670.8375
1469.64898	24228.2375
1473.05586	24672.2375
1476.46045	24849.9375
1479.86276	24839.1375
1483.26279	24605.1375
1486.66054	24446.9375
1490.05602	24478.2375
1493.44922	24665.5375
1496.84016	24787.8375
1500.22882	24975.3375
1503.61521	25381.9375
1506.99934	26035.7375
1510.38121	26548.9375
1513.76081	26686.9375
1517.13816	26151.7375
1520.51324	25341.8375
1523.88607	24640.7375
1527.25665	24334.6375
1530.62498	24235.1375
1533.99105	24225.3375
1537.35488	24035.2375
1540.71647	23707.5375
1544.07581	23296.8375
1547.4329	22874.4375
1550.78776	22484.0375
1554.14038	22197.3375
1557.49077	21965.5375
1560.83892	21774.6375
1564.18484	21603.6375
1567.52853	21599.5375
1570.86999	21733.4375
1574.20922	22027.0375
1577.54624	22303.5375
1580.88103	22422.0375
1584.2136	22686.4375
1587.54395	23490.2375
1590.87208	24924.6375
1594.19801	26706.5375
1597.52172	28316.9375
1600.84321	28791.3375
1604.16251	27532.0375
1607.47959	25260.0375
1610.79447	22833.4375
1614.10715	20780.3375
1617.41763	19320.0375
1620.7259	18368.8375
1624.03199	18000.2375
1627.33587	18110.6375
1630.63757	18643.6375
1633.93707	19667.9375
1637.23439	21269.8375
1640.52951	23584.9375
1643.82246	26319.8375
1647.11321	28438.6375
1650.40179	28699.8375
1653.68819	26563.3375
1656.97241	23119.1375
1660.25446	19919.9375
1663.53433	17775.3375
1666.81203	16465.0375
1670.08756	15655.4375
1673.36092	15148.7375
1676.63211	14833.3375
1679.90115	14568.5375
1683.16801	14392.5375
1686.43272	14249.3375
1689.69527	14141.6375
1692.95567	14042.7375
1696.2139	14007.6375
1699.46999	13947.6375
1702.72392	13884.8375
1705.97571	13882.7375
1709.22535	13915.7375
1712.47284	13901.2375
1715.71819	13936.7375
1718.96139	13887.3375
1722.20246	13884.4375
1725.44139	13857.7375
1728.67818	13779.8375
1731.91284	13712.8375
1735.14537	13645.6375
1738.37576	13561.9375
1741.60403	13526.7375
1744.83017	13494.6375
1748.05418	13447.5375
1751.27607	13431.0375
1754.49584	13398.3375
1757.71349	13362.5375
1760.92903	13327.3375
1764.14244	13346.3375
1767.35375	13342.8375
1770.56294	13313.2375
1773.77002	13325.2375
1776.97499	13323.5375
1780.17785	13305.0375
1783.37861	13302.9375
1786.57727	13326.6375
1789.77382	13316.3375
1792.96828	13332.0375
1796.16064	13283.9375
1799.3509	13220.1375
1802.53907	13241.7375
1805.72514	13185.6375
1808.90913	13179.9375
1812.09102	13163.4375
1815.27083	13134.3375
1818.44856	13139.2375
1821.6242	13112.3375
1824.79776	13094.3375
1827.96924	13090.6375
1831.13864	13094.8375
1834.30597	13098.7375
1837.47122	13102.1375
1840.6344	13087.2375
1843.7955	13105.4375
1846.95454	13079.7375
1850.11151	13090.6375
1853.26642	13093.8375
1856.41926	13087.4375
1859.57004	13113.5375
1862.71876	13110.9375
1865.86542	13047.0375
1869.01003	13075.0375
1872.15258	13038.7375
1875.29308	13064.7375
1878.43152	13023.0375
1881.56792	13058.4375
1884.70227	13015.1375
1887.83457	13002.5375
1890.96482	13012.6375
1894.09304	12987.5375
1897.21921	12970.5375
1900.34335	12967.8375
1903.46544	12956.8375
1906.58551	12920.0375
1909.70353	12923.1375
1912.81953	12899.4375
1915.93349	12899.4375
1919.04543	12874.9375
1922.15534	12832.9375
1925.26322	12841.9375
1928.36908	12831.4375
1931.47292	12798.7375
1934.57473	12772.0375
1937.67453	12752.5375
1940.77232	12710.0375
1943.86808	12662.5375
1946.96184	12617.1375
1950.05358	12617.1375
1953.14331	12572.5375
1956.23103	12514.3375
1959.31675	12525.2375
1962.40046	12501.5375
1965.48217	12487.0375
1968.56188	12443.0375
1971.63959	12414.1375
1974.7153	12374.7375
1977.78901	12361.0375
1980.86073	12285.8375
1983.93046	12287.0375
1986.99819	12259.7375
1990.06394	12206.8375
1993.1277	12173.1375
1996.18947	12154.3375
1999.24925	12124.1375
2002.30706	12064.2375
2005.36288	12064.1375
2008.41672	12016.6375
2011.46859	12000.2375
2014.51848	11992.3375
2017.56639	11955.1375
2020.61233	11939.5375
2023.6563	11937.5375
2026.6983	11914.0375
2029.73833	11854.1375
2032.7764	11876.3375
2035.8125	11864.8375
2038.84664	11830.6375
2041.87881	11837.4375
2044.90903	11810.5375
2047.93729	11802.0375
2050.96359	11789.6375
2053.98794	11762.2375
2057.01034	11775.0375
2060.03078	11762.8375
2063.04927	11764.2375
2066.06582	11774.4375
2069.08042	11756.3375
2072.09307	11762.6375
2075.10378	11726.5375
2078.11255	11735.4375
2081.11938	11738.9375
2084.12426	11717.7375
2087.12722	11736.4375
2090.12824	11750.0375
2093.12732	11745.2375
2096.12447	11708.3375
2099.11969	11731.6375
2102.11299	11726.6375
2105.10435	11762.4375
2108.09379	11748.2375
2111.08131	11775.6375
2114.0669	11782.2375
2117.05057	11809.4375
2120.03233	11797.1375
2123.01216	11811.5375
2125.99008	11820.1375
2128.96609	11825.8375
2131.94018	11832.0375
2134.91236	11868.5375
2137.88263	11863.5375
2140.851	11854.3375
2143.81746	11914.7375
2146.78201	11884.7375
2149.74466	11902.0375
2152.7054	11902.4375
2155.66425	11935.9375
2158.6212	11935.7375
2161.57625	11911.5375
2164.52941	11939.7375
2167.48067	11924.4375
2170.43004	11922.1375
2173.37752	11891.9375
2176.32311	11903.4375
2179.26681	11938.6375
2182.20863	11920.9375
2185.14856	11931.5375
2188.08661	11947.8375
2191.02278	11972.8375
2193.95707	11953.3375
2196.88948	11974.9375
2199.82001	11967.6375
2202.74867	11969.2375
2205.67545	11988.1375
2208.60037	11954.3375
2211.52341	11956.0375
2214.44458	11943.7375
2217.36388	11921.6375
2220.28132	11912.0375
2223.1969	11893.9375
2226.11061	11883.4375
2229.02246	11895.4375
2231.93245	11891.9375
2234.84058	11841.8375
2237.74686	11819.3375
2240.65128	11816.2375
2243.55385	11816.4375
2246.45456	11777.3375
2249.35343	11768.3375
2252.25044	11757.3375
2255.14561	11745.7375
2258.03893	11701.6375
2260.93041	11674.0375
2263.82004	11695.6375
2266.70783	11675.5375
2269.59378	11622.5375
2272.4779	11617.5375
2275.36017	11631.5375
2278.24061	11608.8375
2281.11922	11596.0375
2283.996	11590.2375
2286.87094	11581.3375
2289.74405	11556.3375
2292.61534	11557.9375
2295.4848	11562.4375
2298.35243	11582.8375
2301.21824	11605.6375
2304.08223	11591.6375
2306.94439	11619.5375
2309.80474	11626.0375
2312.66327	11618.8375
2315.51999	11656.1375
2318.37489	11646.0375
2321.22797	11603.3375
2324.07925	11632.0375
2326.92871	11597.9375
2329.77637	11602.9375
2332.62222	11564.3375
2335.46626	11586.6375
2338.3085	11564.2375
2341.14893	11558.1375
2343.98756	11596.5375
2346.8244	11588.2375
2349.65943	11556.4375
2352.49267	11583.6375
2355.32411	11572.5375
2358.15376	11545.4375
2360.98161	11519.4375
2363.80768	11538.1375
2366.63195	11525.1375
2369.45444	11523.7375
2372.27514	11458.4375
2375.09405	11459.8375
2377.91118	11471.3375
2380.72652	11431.4375
2383.54009	11412.3375
2386.35187	11431.3375
2389.16188	11386.0375
2391.97011	11389.1375
2394.77657	11381.1375
2397.58125	11373.1375
2400.38416	11356.3375
2403.18529	11341.0375
2405.98466	11306.5375
2408.78226	11310.5375
2411.57809	11290.9375
2414.37216	11259.3375
2417.16446	11253.9375
2419.955	11243.1375
2422.74378	11264.7375
2425.5308	11243.1375
2428.31606	11232.8375
2431.09956	11242.0375
2433.88131	11225.0375
2436.6613	11213.6375
2439.43954	11221.0375
2442.21603	11210.9375
2444.99077	11223.5375
2447.76377	11249.0375
2450.53501	11220.3375
2453.30451	11222.2375
2456.07226	11239.8375
2458.83827	11197.2375
2461.60254	11228.5375
2464.36507	11255.1375
2467.12586	11215.6375
2469.88492	11219.0375
2472.64224	11240.1375
2475.39782	11254.4375
2478.15167	11258.5375
2480.90379	11263.1375
2483.65417	11269.0375
2486.40283	11271.4375
2489.14976	11303.3375
2491.89497	11304.0375
2494.63845	11291.5375
2497.3802	11302.8375
2500.12024	11280.4375
2502.85855	11279.2375
2505.59514	11291.4375
2508.33002	11264.2375
2511.06318	11251.5375
2513.79462	11239.0375
2516.52435	11238.1375
2519.25237	11233.1375
2521.97867	11227.9375
2524.70327	11273.6375
2527.42616	11208.5375
2530.14734	11231.8375
2532.86681	11224.2375
2535.58458	11225.4375
2538.30065	11222.8375
2541.01501	11205.2375
2543.72768	11202.2375
2546.43864	11195.4375
2549.14791	11213.7375
2551.85548	11177.5375
2554.56136	11169.7375
2557.26554	11173.2375
2559.96803	11161.9375
2562.66883	11184.4375
2565.36794	11175.0375
2568.06536	11171.8375
2570.7611	11166.4375
2573.45514	11158.7375
2576.14751	11126.6375
2578.83819	11140.7375
2581.52719	11155.2375
2584.21451	11142.8375
2586.90015	11148.2375
2589.58411	11142.1375
2592.2664	11151.7375
2594.94701	11109.3375
2597.62594	11111.1375
2600.30321	11098.5375
2602.9788	11111.9375
2605.65273	11098.8375
2608.32498	11091.9375
2610.99557	11091.2375
2613.66449	11121.3375
2616.33175	11107.1375
2618.99734	11096.5375
2621.66128	11092.5375
2624.32355	11089.2375
2626.98416	11107.4375
2629.64311	11070.3375
2632.30041	11096.2375
2634.95605	11071.5375
2637.61004	11058.7375
2640.26238	11029.2375
2642.91306	11034.5375
2645.56209	11020.3375
2648.20948	11029.6375
2650.85521	11009.9375
2653.4993	11016.4375
2656.14175	11039.4375
2658.78255	11049.5375
2661.42171	11038.9375
2664.05923	11062.1375
2666.6951	11090.6375
2669.32934	11064.5375
2671.96194	11079.5375
2674.59291	11074.4375
2677.22224	11083.8375
2679.84993	11059.2375
2682.476	11068.4375
2685.10043	11054.3375
2687.72324	11035.2375
2690.34441	11037.1375
2692.96396	11070.7375
2695.58188	11040.5375
2698.19818	11028.1375
2700.81285	11028.9375
2703.4259	11064.0375
2706.03733	11027.5375
2708.64714	11040.4375
2711.25533	11071.1375
2713.86191	11071.3375
2716.46687	11081.3375
2719.07021	11096.0375
2721.67194	11115.1375
2724.27206	11088.1375
2726.87057	11124.2375
2729.46747	11126.0375
2732.06276	11126.7375
2734.65644	11109.6375
2737.24852	11154.0375
2739.83899	11128.5375
2742.42786	11158.4375
2745.01513	11128.6375
2747.60079	11116.9375
2750.18486	11097.7375
2752.76733	11149.6375
2755.3482	11127.3375
2757.92747	11105.7375
2760.50515	11110.0375
2763.08123	11090.6375
2765.65573	11098.3375
2768.22863	11113.2375
2770.79994	11127.9375
2773.36967	11107.2375
2775.9378	11102.2375
2778.50435	11106.8375
2781.06932	11078.9375
2783.6327	11101.9375
2786.1945	11084.1375
2788.75471	11075.6375
2791.31335	11044.9375
2793.87041	11053.0375
2796.42589	11007.0375
2798.97979	11020.6375
2801.53212	11013.8375
2804.08288	11009.8375
2806.63206	10977.5375
2809.17967	10962.9375
2811.72571	10926.8375
2814.27018	10917.5375
2816.81308	10925.1375
2819.35442	10929.7375
2821.89419	10908.8375
2824.43239	10914.8375
2826.96904	10880.5375
2829.50412	10884.5375
2832.03763	10881.0375
2834.56959	10887.1375
2837.1	10875.9375
2839.62884	10888.9375
2842.15613	10855.6375
2844.68186	10891.4375
2847.20604	10895.9375
2849.72867	10885.4375
2852.24974	10924.4375
2854.76927	10907.7375
2857.28724	10894.0375
2859.80367	10874.2375
2862.31855	10865.5375
2864.83189	10853.6375
2867.34368	10860.4375
2869.85393	10843.6375
2872.36264	10840.3375
2874.8698	10821.1375
2877.37543	10848.2375
2879.87952	10874.1375
2882.38207	10868.5375
2884.88308	10844.4375
2887.38256	10884.9375
2889.88051	10853.8375
2892.37692	10881.7375
2894.8718	10876.3375
2897.36515	10907.5375
2899.85698	10905.5375
2902.34727	10931.3375
2904.83604	10922.5375
2907.32328	10957.8375
2909.809	10939.7375
2912.29319	10959.4375
2914.77587	10959.7375
2917.25702	10936.3375
2919.73665	10943.2375
2922.21476	10960.0375
2924.69136	10917.7375
2927.16644	10933.9375
2929.64	10914.2375
2932.11205	10949.7375
2934.58258	10897.3375
2937.05161	10917.0375
2939.51912	10892.6375
2941.98513	10886.4375
2944.44962	10854.3375
2946.91261	10814.3375
2949.37409	10849.9375
2951.83407	10836.0375
2954.29254	10839.8375
2956.74951	10820.3375
2959.20498	10811.6375
2961.65895	10850.6375
2964.11142	10846.2375
2966.56239	10825.0375
2969.01186	10816.6375
2971.45984	10792.0375
2973.90632	10779.8375
2976.35131	10768.3375
2978.7948	10750.1375
2981.23681	10730.9375
2983.67732	10713.8375
2986.11635	10702.6375
2988.55388	10665.4375
2990.98993	10645.2375
2993.4245	10614.7375
2995.85758	10629.1375
2998.28917	10592.8375
3000.71928	10577.0375
3003.14791	10572.3375
3005.57506	10563.8375
3008.00073	10534.6375
3010.42493	10534.5375
3012.84764	10546.0375
3015.26888	10556.0375
3017.68865	10516.5375
3020.10694	10506.1375
3022.52376	10476.3375
3024.9391	10463.1375
3027.35298	10459.4375
3029.76539	10466.2375
3032.17632	10448.8375
3034.5858	10432.2375
3036.9938	10434.1375
3039.40034	10444.3375
3041.80542	10451.4375
3044.20903	10439.0375
3046.61118	10417.3375
3049.01187	10436.8375
3051.4111	10417.2375
3053.80888	10406.5375
3056.20519	10394.8375
3058.60005	10361.8375
3060.99345	10320.7375
3063.3854	10321.5375
3065.7759	10289.0375
3068.16494	10267.2375
3070.55254	10279.9375
3072.93868	10264.9375
3075.32338	10252.6375
3077.70662	10209.2375
3080.08842	10218.2375
3082.46878	10201.8375
3084.84769	10206.0375
3087.22515	10190.0375
3089.60118	10187.2375
3091.97576	10192.9375
3094.3489	10194.4375
3096.72061	10196.6375
3099.09087	10196.2375
3101.4597	10186.4375
3103.82709	10192.1375
3106.19305	10195.9375
3108.55757	10193.1375
3110.92066	10137.4375
3113.28232	10146.9375
3115.64255	10150.6375
3118.00134	10149.2375
3120.35871	10123.0375
3122.71466	10100.8375
3125.06917	10102.7375
3127.42226	10059.2375
3129.77393	10066.9375
3132.12417	10076.5375
3134.47299	10051.4375
3136.82039	10070.8375
3139.16636	10056.7375
3141.51092	10086.0375
3143.85406	10108.1375
3146.19579	10098.1375
3148.53609	10078.6375
3150.87499	10123.9375
3153.21246	10111.0375
3155.54853	10131.5375
3157.88318	10086.9375
3160.21642	10111.6375
3162.54826	10121.7375
3164.87868	10124.2375
3167.2077	10102.6375
3169.5353	10122.6375
3171.86151	10129.1375
3174.18631	10129.1375
3176.5097	10140.9375
3178.83169	10102.9375
3181.15228	10086.7375
3183.47147	10089.1375
3185.78926	10088.1375
3188.10565	10076.9375
3190.42065	10071.9375
3192.73424	10070.3375
3195.04645	10067.5375
3197.35725	10071.2375
3199.66667	10073.3375
3201.97469	10075.9375
3204.28132	10072.0375
3206.58656	10100.9375
3208.8904	10104.8375
3211.19287	10121.9375
3213.49394	10107.3375
3215.79363	10102.0375
3218.09193	10112.9375
3220.38884	10122.8375
3222.68438	10122.2375
3224.97853	10086.1375
3227.2713	10109.1375
3229.56269	10077.0375
3231.8527	10089.4375
3234.14133	10104.1375
3236.42858	10059.6375
3238.71446	10056.4375
3240.99896	10059.9375
3243.28209	10045.1375
3245.56384	10028.9375
3247.84423	10040.7375
3250.12324	10019.3375
3252.40088	10001.6375
3254.67715	10015.1375
3256.95205	10011.5375
3259.22558	10006.2375
3261.49775	10009.1375
3263.76855	9993.8375
3266.03799	9965.4375
3268.30606	9978.5375
3270.57277	9969.8375
3272.83812	9929.3375
3275.10211	9917.9375
3277.36474	9904.4375
3279.62601	9889.6375
3281.88593	9873.3375
3284.14448	9908.9375
3286.40168	9896.4375
3288.65753	9931.7375
3290.91202	9892.3375
3293.16516	9873.1375
3295.41695	9857.3375
3297.66738	9817.0375
3299.91647	9743.5375
3302.16421	9696.9375
3304.4106	9650.3375
3306.65564	9630.4375
3308.89933	9573.2375
3311.14169	9512.2375
3313.38269	9408.3375
3315.62236	9389.2375
3317.86068	9306.3375
3320.09766	9258.7375
3322.3333	9201.4375
3324.5676	9155.0375
3326.80056	9038.6375
3329.03219	8963.3375
3331.26248	3.0375
3333.49143	-0.6625
3335.71905	-0.7625
