Data from AgNPs_FTO_APTES_UA_1uM_CRN_5uM_R6G_10uM_NaF_0.1M_Addition_RamanShift__28__14-08-49-612.txt Node

Date: Thu Jan 27 14:08:49 GMT 2022
User: TCL
Spectrometer: QEP01345
Trigger mode: 4
Integration Time (sec): 7.000000E0
Scans to average: 10
Electric dark correction enabled: true
Nonlinearity correction enabled: false
Boxcar width: 0
XAxis mode: Raman Shifts
Number of Pixels in Spectrum: 1044
>>>>>Begin Spectral Data<<<<<
46.04893	1.5375
50.45542	0.6375
54.85868	-0.2625
59.25871	-2.7625
63.6555	39.7375
68.04907	39.3375
72.43941	41.2375
76.82654	48.2375
81.21044	48.0375
85.59113	49.1375
89.96862	54.1375
94.34289	55.7375
98.71396	56.0375
103.08183	56.0375
107.4465	57.6375
111.80798	62.3375
116.16626	59.9375
120.52136	64.0375
124.87327	62.2375
129.222	60.9375
133.56755	64.1375
137.90993	69.3375
142.24913	70.8375
146.58517	78.2375
150.91804	86.3375
155.24774	98.0375
159.57429	113.6375
163.89768	142.5375
168.21792	183.0375
172.53501	239.5375
176.84895	326.2375
181.15975	453.5375
185.46741	628.5375
189.77193	856.6375
194.07331	1149.3375
198.37157	1470.9375
202.6667	1821.0375
206.9587	2171.6375
211.24758	2499.0375
215.53334	2857.1375
219.81599	3254.4375
224.09553	3673.1375
228.37195	4156.3375
232.64527	4671.5375
236.91549	5201.1375
241.18261	5713.4375
245.44663	6143.3375
249.70755	6490.5375
253.96539	6810.1375
258.22014	7111.4375
262.4718	7366.9375
266.72039	7589.4375
270.96589	7707.6375
275.20832	7755.0375
279.44768	7745.1375
283.68397	7674.0375
287.91719	7618.1375
292.14735	7624.4375
296.37445	7683.5375
300.59849	7882.2375
304.81948	8071.0375
309.03742	8229.1375
313.25231	8189.2375
317.46415	7869.7375
321.67296	7392.6375
325.87872	6998.4375
330.08145	6825.5375
334.28114	6800.9375
338.47781	6899.2375
342.67145	7061.8375
346.86207	7322.8375
351.04966	7645.1375
355.23424	8036.8375
359.4158	8349.8375
363.59435	8495.4375
367.76989	8563.6375
371.94243	8533.0375
376.11196	8514.2375
380.27849	8493.6375
384.44203	8436.6375
388.60257	8359.4375
392.76012	8371.7375
396.91468	8468.1375
401.06626	8694.2375
405.21485	8865.3375
409.36047	8785.4375
413.50311	8470.3375
417.64277	8187.2375
421.77947	8043.3375
425.9132	7987.5375
430.04396	8002.9375
434.17176	8052.3375
438.2966	8140.8375
442.41849	8268.6375
446.53742	8505.5375
450.6534	8746.2375
454.76644	8915.7375
458.87653	8965.0375
462.98368	8947.1375
467.08789	8849.4375
471.18916	8654.3375
475.2875	8475.1375
479.38291	8326.1375
483.4754	8244.3375
487.56496	8170.6375
491.6516	8085.2375
495.73531	8036.7375
499.81612	8045.6375
503.89401	8103.9375
507.96899	8162.7375
512.04106	8231.4375
516.11023	8292.0375
520.1765	8332.7375
524.23987	8299.2375
528.30034	8185.3375
532.35792	8050.6375
536.41261	7912.9375
540.46441	7788.3375
544.51333	7767.1375
548.55936	7821.9375
552.60252	7998.5375
556.64279	8175.8375
560.6802	8237.9375
564.71473	8335.0375
568.7464	8565.7375
572.7752	8764.3375
576.80114	8718.3375
580.82422	8571.8375
584.84444	8559.9375
588.86181	8527.7375
592.87633	8547.3375
596.888	8610.1375
600.89682	8818.7375
604.9028	9518.2375
608.90594	11311.2375
612.90624	13645.3375
616.90371	13248.0375
620.89834	10101.3375
624.89015	8541.5375
628.87913	8242.1375
632.86528	8259.8375
636.84862	8303.1375
640.82913	8208.5375
644.80683	7935.2375
648.78172	7770.6375
652.75379	7798.2375
656.72306	8040.2375
660.68952	8352.9375
664.65319	8344.7375
668.61405	8043.8375
672.57211	7882.1375
676.52738	7898.2375
680.47986	7892.9375
684.42955	7853.8375
688.37646	7817.6375
692.32058	7880.2375
696.26192	7925.5375
700.20048	8039.3375
704.13626	8065.4375
708.06928	8079.0375
711.99952	8009.8375
715.927	7985.1375
719.85171	7959.6375
723.77365	7957.3375
727.69284	7891.9375
731.60928	7832.3375
735.52295	7797.7375
739.43388	7827.7375
743.34206	7885.4375
747.24749	7933.3375
751.15017	8027.8375
755.05012	8162.3375
758.94733	8480.8375
762.8418	9070.1375
766.73354	10175.6375
770.62254	11287.6375
774.50882	11750.6375
778.39237	11269.0375
782.27321	10130.6375
786.15132	9023.0375
790.02671	8384.5375
793.89938	8102.8375
797.76935	7974.1375
801.6366	7898.2375
805.50115	7865.6375
809.36299	7835.5375
813.22213	7800.4375
817.07857	7804.2375
820.93231	7802.7375
824.78336	7824.6375
828.63172	7848.0375
832.47738	7885.7375
836.32036	7878.0375
840.16066	7851.5375
843.99827	7839.7375
847.8332	7801.4375
851.66546	7799.2375
855.49504	7801.6375
859.32195	7789.7375
863.1462	7754.6375
866.96777	7726.6375
870.78668	7726.7375
874.60293	7733.7375
878.41652	7761.6375
882.22745	7769.3375
886.03573	7840.6375
889.84136	7819.0375
893.64433	7756.7375
897.44466	7758.3375
901.24235	7757.2375
905.0374	7746.5375
908.8298	7727.1375
912.61957	7728.3375
916.40671	7769.1375
920.19121	7847.8375
923.97308	7930.1375
927.75233	7970.1375
931.52895	8002.3375
935.30295	7949.5375
939.07433	7785.0375
942.84309	7636.3375
946.60924	7566.7375
950.37278	7539.7375
954.13371	7492.4375
957.89203	7449.6375
961.64774	7429.3375
965.40086	7390.6375
969.15137	7388.4375
972.89929	7364.6375
976.64461	7333.9375
980.38733	7373.1375
984.12747	7381.1375
987.86502	7422.4375
991.59999	7460.2375
995.33237	7572.2375
999.06217	7750.1375
1002.78939	7956.2375
1006.51404	8145.8375
1010.23611	8315.4375
1013.95561	8424.1375
1017.67255	8429.7375
1021.38692	8358.3375
1025.09872	8237.0375
1028.80796	8214.2375
1032.51465	8300.2375
1036.21877	8413.2375
1039.92035	8445.9375
1043.61937	8408.4375
1047.31584	8289.6375
1051.00976	8176.9375
1054.70114	8111.8375
1058.38998	8110.8375
1062.07627	8180.5375
1065.76003	8219.2375
1069.44126	8292.6375
1073.11995	8354.9375
1076.79611	8424.5375
1080.46974	8497.1375
1084.14085	8577.2375
1087.80943	8726.2375
1091.47549	8809.3375
1095.13903	8713.7375
1098.80005	8511.4375
1102.45857	8294.1375
1106.11456	8174.1375
1109.76805	8157.5375
1113.41903	8245.5375
1117.06751	8409.0375
1120.71348	8624.7375
1124.35696	8848.1375
1127.99793	9083.2375
1131.63641	9094.0375
1135.2724	8843.9375
1138.90589	8603.6375
1142.5369	8432.4375
1146.16542	8342.6375
1149.79145	8281.3375
1153.415	8272.0375
1157.03607	8383.9375
1160.65467	8503.1375
1164.27079	8755.9375
1167.88443	9100.5375
1171.49561	9658.3375
1175.10432	10518.4375
1178.71056	11653.7375
1182.31434	12571.9375
1185.91565	12929.1375
1189.51451	12810.3375
1193.11091	12277.4375
1196.70485	11539.1375
1200.29634	10910.6375
1203.88538	10433.5375
1207.47197	9960.9375
1211.05612	9552.2375
1214.63782	9346.7375
1218.21708	9286.6375
1221.79391	9314.0375
1225.36829	9398.6375
1228.94024	9489.4375
1232.50976	9572.4375
1236.07685	9597.0375
1239.6415	9581.4375
1243.20374	9543.3375
1246.76355	9565.2375
1250.32093	9617.3375
1253.8759	9776.9375
1257.42845	10053.5375
1260.97859	10316.8375
1264.52631	10522.7375
1268.07163	10740.7375
1271.61453	10964.2375
1275.15503	11201.0375
1278.69312	11361.2375
1282.22882	11515.8375
1285.76211	11754.5375
1289.29301	12059.3375
1292.82151	12354.9375
1296.34761	12656.4375
1299.87133	13099.7375
1303.39266	13806.6375
1306.9116	14877.4375
1310.42815	16181.2375
1313.94233	17143.7375
1317.45412	17163.4375
1320.96354	16544.7375
1324.47058	15775.0375
1327.97525	15085.2375
1331.47754	14610.7375
1334.97747	14455.2375
1338.47502	14507.7375
1341.97022	14648.3375
1345.46305	14796.3375
1348.95352	15018.8375
1352.44163	15379.0375
1355.92738	16129.4375
1359.41078	17506.1375
1362.89183	19050.0375
1366.37053	18901.0375
1369.84688	16755.6375
1373.32088	14482.4375
1376.79254	13011.5375
1380.26186	12284.3375
1383.72883	11951.3375
1387.19347	11702.5375
1390.65578	11428.3375
1394.11575	11185.7375
1397.57339	11133.7375
1401.0287	11243.0375
1404.48168	11462.1375
1407.93234	11696.4375
1411.38068	11852.9375
1414.82669	11863.5375
1418.27039	11632.3375
1421.71177	11313.3375
1425.15083	11051.6375
1428.58758	10871.9375
1432.02203	10835.6375
1435.45416	10852.7375
1438.88399	10917.1375
1442.31151	10940.6375
1445.73673	10996.1375
1449.15965	11035.5375
1452.58027	11065.7375
1455.9986	10958.2375
1459.41463	10956.9375
1462.82837	11011.1375
1466.23982	11171.1375
1469.64898	11348.3375
1473.05586	11499.0375
1476.46045	11597.5375
1479.86276	11729.9375
1483.26279	11899.4375
1486.66054	12091.3375
1490.05602	12391.1375
1493.44922	12721.0375
1496.84016	13215.5375
1500.22882	13867.4375
1503.61521	14808.6375
1506.99934	15903.8375
1510.38121	17042.6375
1513.76081	17690.0375
1517.13816	17331.3375
1520.51324	15944.5375
1523.88607	14423.3375
1527.25665	13326.1375
1530.62498	12651.7375
1533.99105	12241.3375
1537.35488	11953.5375
1540.71647	11756.0375
1544.07581	11684.5375
1547.4329	11587.4375
1550.78776	11514.0375
1554.14038	11466.5375
1557.49077	11521.5375
1560.83892	11663.9375
1564.18484	11839.4375
1567.52853	11976.5375
1570.86999	12065.8375
1574.20922	12152.7375
1577.54624	12075.2375
1580.88103	11817.7375
1584.2136	11427.5375
1587.54395	11307.5375
1590.87208	11613.4375
1594.19801	12222.3375
1597.52172	12954.6375
1600.84321	13329.2375
1604.16251	12928.6375
1607.47959	12157.2375
1610.79447	11294.6375
1614.10715	10505.5375
1617.41763	9885.4375
1620.7259	9488.5375
1624.03199	9291.9375
1627.33587	9264.4375
1630.63757	9492.8375
1633.93707	9902.8375
1637.23439	10547.1375
1640.52951	11376.5375
1643.82246	12253.8375
1647.11321	13138.7375
1650.40179	13682.9375
1653.68819	13324.4375
1656.97241	11992.8375
1660.25446	10423.6375
1663.53433	9231.7375
1666.81203	8541.2375
1670.08756	8123.0375
1673.36092	7872.5375
1676.63211	7692.6375
1679.90115	7580.1375
1683.16801	7506.6375
1686.43272	7426.5375
1689.69527	7361.5375
1692.95567	7327.5375
1696.2139	7269.6375
1699.46999	7242.6375
1702.72392	7207.9375
1705.97571	7212.4375
1709.22535	7239.5375
1712.47284	7263.8375
1715.71819	7290.1375
1718.96139	7273.4375
1722.20246	7288.0375
1725.44139	7257.6375
1728.67818	7242.6375
1731.91284	7178.3375
1735.14537	7142.5375
1738.37576	7093.5375
1741.60403	7060.1375
1744.83017	7063.6375
1748.05418	7048.0375
1751.27607	7015.8375
1754.49584	6988.7375
1757.71349	6986.9375
1760.92903	6970.2375
1764.14244	6938.3375
1767.35375	6957.2375
1770.56294	6952.6375
1773.77002	6955.8375
1776.97499	6927.3375
1780.17785	6924.5375
1783.37861	6929.7375
1786.57727	6926.5375
1789.77382	6943.7375
1792.96828	6945.0375
1796.16064	6910.9375
1799.3509	6907.5375
1802.53907	6913.1375
1805.72514	6894.4375
1808.90913	6880.8375
1812.09102	6870.0375
1815.27083	6843.1375
1818.44856	6849.7375
1821.6242	6831.8375
1824.79776	6842.6375
1827.96924	6820.7375
1831.13864	6805.3375
1834.30597	6795.9375
1837.47122	6805.0375
1840.6344	6800.6375
1843.7955	6794.1375
1846.95454	6834.2375
1850.11151	6814.6375
1853.26642	6827.8375
1856.41926	6836.0375
1859.57004	6857.4375
1862.71876	6836.0375
1865.86542	6865.4375
1869.01003	6825.3375
1872.15258	6839.1375
1875.29308	6854.3375
1878.43152	6853.0375
1881.56792	6850.9375
1884.70227	6853.8375
1887.83457	6878.7375
1890.96482	6868.5375
1894.09304	6869.9375
1897.21921	6862.3375
1900.34335	6868.6375
1903.46544	6872.4375
1906.58551	6875.2375
1909.70353	6866.7375
1912.81953	6851.1375
1915.93349	6863.8375
1919.04543	6842.0375
1922.15534	6849.0375
1925.26322	6826.1375
1928.36908	6821.1375
1931.47292	6801.6375
1934.57473	6763.5375
1937.67453	6734.2375
1940.77232	6675.7375
1943.86808	6666.9375
1946.96184	6629.4375
1950.05358	6594.1375
1953.14331	6578.3375
1956.23103	6555.0375
1959.31675	6542.6375
1962.40046	6523.4375
1965.48217	6489.0375
1968.56188	6467.9375
1971.63959	6461.7375
1974.7153	6444.4375
1977.78901	6411.3375
1980.86073	6388.2375
1983.93046	6372.4375
1986.99819	6356.7375
1990.06394	6313.5375
1993.1277	6301.4375
1996.18947	6286.5375
1999.24925	6290.6375
2002.30706	6251.6375
2005.36288	6240.3375
2008.41672	6226.9375
2011.46859	6204.1375
2014.51848	6204.9375
2017.56639	6181.4375
2020.61233	6183.0375
2023.6563	6146.8375
2026.6983	6128.0375
2029.73833	6110.6375
2032.7764	6092.6375
2035.8125	6100.4375
2038.84664	6085.6375
2041.87881	6075.7375
2044.90903	6059.9375
2047.93729	6038.1375
2050.96359	6029.4375
2053.98794	6026.3375
2057.01034	6011.8375
2060.03078	6025.6375
2063.04927	6008.6375
2066.06582	6014.8375
2069.08042	6009.5375
2072.09307	6005.5375
2075.10378	6001.6375
2078.11255	5998.8375
2081.11938	5959.7375
2084.12426	5994.5375
2087.12722	5975.3375
2090.12824	5985.2375
2093.12732	5990.7375
2096.12447	5976.0375
2099.11969	5980.5375
2102.11299	5986.9375
2105.10435	5984.4375
2108.09379	5995.4375
2111.08131	5971.5375
2114.0669	5984.1375
2117.05057	5994.1375
2120.03233	5976.8375
2123.01216	5998.5375
2125.99008	5996.1375
2128.96609	6003.8375
2131.94018	6004.2375
2134.91236	6009.6375
2137.88263	6024.0375
2140.851	6017.7375
2143.81746	6028.5375
2146.78201	6028.9375
2149.74466	6023.7375
2152.7054	6036.8375
2155.66425	6011.6375
2158.6212	6031.6375
2161.57625	6012.3375
2164.52941	6006.3375
2167.48067	6017.5375
2170.43004	6009.0375
2173.37752	6000.8375
2176.32311	6004.0375
2179.26681	6004.9375
2182.20863	6007.6375
2185.14856	6000.7375
2188.08661	6019.0375
2191.02278	6000.8375
2193.95707	5987.1375
2196.88948	6002.9375
2199.82001	5997.7375
2202.74867	5991.0375
2205.67545	5983.3375
2208.60037	5980.5375
2211.52341	5956.8375
2214.44458	5966.2375
2217.36388	5946.2375
2220.28132	5919.4375
2223.1969	5921.2375
2226.11061	5910.0375
2229.02246	5917.9375
2231.93245	5882.4375
2234.84058	5883.3375
2237.74686	5861.5375
2240.65128	5870.3375
2243.55385	5857.8375
2246.45456	5856.9375
2249.35343	5850.4375
2252.25044	5837.1375
2255.14561	5812.5375
2258.03893	5831.8375
2260.93041	5819.9375
2263.82004	5809.0375
2266.70783	5790.1375
2269.59378	5800.4375
2272.4779	5772.1375
2275.36017	5732.7375
2278.24061	5747.9375
2281.11922	5730.8375
2283.996	5727.2375
2286.87094	5716.4375
2289.74405	5689.8375
2292.61534	5705.8375
2295.4848	5684.5375
2298.35243	5678.2375
2301.21824	5679.7375
2304.08223	5684.5375
2306.94439	5675.4375
2309.80474	5677.2375
2312.66327	5687.6375
2315.51999	5684.4375
2318.37489	5671.4375
2321.22797	5656.7375
2324.07925	5666.7375
2326.92871	5651.3375
2329.77637	5644.4375
2332.62222	5638.6375
2335.46626	5621.1375
2338.3085	5625.5375
2341.14893	5609.9375
2343.98756	5616.0375
2346.8244	5609.9375
2349.65943	5639.0375
2352.49267	5630.0375
2355.32411	5618.1375
2358.15376	5628.7375
2360.98161	5620.2375
2363.80768	5623.7375
2366.63195	5612.5375
2369.45444	5620.7375
2372.27514	5624.2375
2375.09405	5596.8375
2377.91118	5596.1375
2380.72652	5566.0375
2383.54009	5556.6375
2386.35187	5535.1375
2389.16188	5531.8375
2391.97011	5513.8375
2394.77657	5516.7375
2397.58125	5476.0375
2400.38416	5489.8375
2403.18529	5475.1375
2405.98466	5463.6375
2408.78226	5425.2375
2411.57809	5442.4375
2414.37216	5442.5375
2417.16446	5436.7375
2419.955	5407.1375
2422.74378	5421.6375
2425.5308	5415.3375
2428.31606	5418.1375
2431.09956	5409.2375
2433.88131	5394.6375
2436.6613	5406.7375
2439.43954	5410.2375
2442.21603	5379.3375
2444.99077	5398.8375
2447.76377	5392.5375
2450.53501	5386.9375
2453.30451	5389.4375
2456.07226	5381.1375
2458.83827	5362.6375
2461.60254	5374.8375
2464.36507	5372.4375
2467.12586	5374.8375
2469.88492	5353.9375
2472.64224	5362.1375
2475.39782	5382.3375
2478.15167	5390.1375
2480.90379	5369.7375
2483.65417	5380.4375
2486.40283	5362.5375
2489.14976	5376.6375
2491.89497	5386.5375
2494.63845	5374.2375
2497.3802	5376.0375
2500.12024	5375.6375
2502.85855	5362.6375
2505.59514	5386.2375
2508.33002	5365.3375
2511.06318	5342.0375
2513.79462	5338.1375
2516.52435	5324.1375
2519.25237	5303.0375
2521.97867	5299.9375
2524.70327	5296.9375
2527.42616	5296.9375
2530.14734	5276.5375
2532.86681	5287.5375
2535.58458	5274.6375
2538.30065	5259.2375
2541.01501	5281.1375
2543.72768	5255.2375
2546.43864	5263.0375
2549.14791	5251.1375
2551.85548	5252.7375
2554.56136	5243.0375
2557.26554	5232.2375
2559.96803	5230.4375
2562.66883	5218.2375
2565.36794	5220.1375
2568.06536	5214.2375
2570.7611	5203.4375
2573.45514	5199.8375
2576.14751	5185.1375
2578.83819	5177.0375
2581.52719	5179.2375
2584.21451	5175.6375
2586.90015	5161.5375
2589.58411	5179.5375
2592.2664	5153.1375
2594.94701	5150.5375
2597.62594	5161.7375
2600.30321	5153.9375
2602.9788	5141.2375
2605.65273	5150.6375
2608.32498	5154.0375
2610.99557	5122.5375
2613.66449	5150.0375
2616.33175	5145.5375
2618.99734	5129.8375
2621.66128	5144.6375
2624.32355	5116.2375
2626.98416	5133.1375
2629.64311	5115.5375
2632.30041	5121.6375
2634.95605	5113.9375
2637.61004	5112.2375
2640.26238	5097.9375
2642.91306	5108.5375
2645.56209	5074.8375
2648.20948	5090.6375
2650.85521	5082.6375
2653.4993	5074.1375
2656.14175	5077.8375
2658.78255	5097.1375
2661.42171	5073.4375
2664.05923	5096.0375
2666.6951	5078.0375
2669.32934	5080.1375
2671.96194	5091.8375
2674.59291	5091.8375
2677.22224	5096.9375
2679.84993	5103.5375
2682.476	5094.2375
2685.10043	5112.7375
2687.72324	5088.0375
2690.34441	5080.6375
2692.96396	5071.5375
2695.58188	5086.1375
2698.19818	5082.8375
2700.81285	5103.0375
2703.4259	5094.7375
2706.03733	5077.0375
2708.64714	5067.8375
2711.25533	5089.1375
2713.86191	5090.4375
2716.46687	5103.7375
2719.07021	5102.8375
2721.67194	5088.1375
2724.27206	5108.2375
2726.87057	5112.9375
2729.46747	5105.9375
2732.06276	5119.1375
2734.65644	5083.5375
2737.24852	5100.1375
2739.83899	5095.5375
2742.42786	5105.1375
2745.01513	5093.3375
2747.60079	5083.5375
2750.18486	5074.6375
2752.76733	5064.4375
2755.3482	5063.2375
2757.92747	5074.4375
2760.50515	5050.8375
2763.08123	5047.3375
2765.65573	5052.0375
2768.22863	5052.2375
2770.79994	5046.4375
2773.36967	5023.4375
2775.9378	5031.8375
2778.50435	5019.9375
2781.06932	5025.5375
2783.6327	5017.1375
2786.1945	5020.4375
2788.75471	5015.6375
2791.31335	5011.9375
2793.87041	5007.2375
2796.42589	4984.6375
2798.97979	4989.3375
2801.53212	4974.1375
2804.08288	4978.4375
2806.63206	4954.1375
2809.17967	4948.0375
2811.72571	4939.9375
2814.27018	4945.1375
2816.81308	4952.5375
2819.35442	4945.6375
2821.89419	4936.1375
2824.43239	4937.5375
2826.96904	4955.2375
2829.50412	4949.8375
2832.03763	4931.3375
2834.56959	4932.6375
2837.1	4935.8375
2839.62884	4939.2375
2842.15613	4944.5375
2844.68186	4980.4375
2847.20604	5003.1375
2849.72867	5019.5375
2852.24974	5009.0375
2854.76927	5020.1375
2857.28724	5000.6375
2859.80367	4995.6375
2862.31855	4994.1375
2864.83189	4986.8375
2867.34368	4965.8375
2869.85393	4967.8375
2872.36264	4969.8375
2874.8698	4967.5375
2877.37543	4935.2375
2879.87952	4946.1375
2882.38207	4961.2375
2884.88308	4954.7375
2887.38256	4936.7375
2889.88051	4929.8375
2892.37692	4933.0375
2894.8718	4933.5375
2897.36515	4944.1375
2899.85698	4954.8375
2902.34727	4942.3375
2904.83604	4952.9375
2907.32328	4963.3375
2909.809	4959.5375
2912.29319	4932.3375
2914.77587	4950.3375
2917.25702	4956.0375
2919.73665	4936.8375
2922.21476	4938.4375
2924.69136	4936.3375
2927.16644	4941.4375
2929.64	4935.1375
2932.11205	4943.5375
2934.58258	4913.5375
2937.05161	4921.5375
2939.51912	4916.0375
2941.98513	4900.2375
2944.44962	4875.1375
2946.91261	4840.8375
2949.37409	4838.6375
2951.83407	4825.5375
2954.29254	4811.3375
2956.74951	4801.6375
2959.20498	4804.0375
2961.65895	4801.2375
2964.11142	4802.8375
2966.56239	4797.6375
2969.01186	4780.5375
2971.45984	4770.9375
2973.90632	4756.7375
2976.35131	4764.2375
2978.7948	4737.6375
2981.23681	4731.9375
2983.67732	4726.7375
2986.11635	4713.8375
2988.55388	4679.3375
2990.98993	4689.5375
2993.4245	4669.9375
2995.85758	4667.1375
2998.28917	4665.5375
3000.71928	4655.2375
3003.14791	4640.5375
3005.57506	4637.7375
3008.00073	4613.2375
3010.42493	4622.3375
3012.84764	4621.6375
3015.26888	4610.9375
3017.68865	4596.8375
3020.10694	4595.3375
3022.52376	4588.9375
3024.9391	4587.2375
3027.35298	4571.6375
3029.76539	4577.9375
3032.17632	4561.9375
3034.5858	4558.8375
3036.9938	4548.3375
3039.40034	4565.4375
3041.80542	4549.4375
3044.20903	4539.0375
3046.61118	4545.9375
3049.01187	4529.2375
3051.4111	4535.3375
3053.80888	4533.9375
3056.20519	4518.0375
3058.60005	4497.8375
3060.99345	4489.6375
3063.3854	4477.7375
3065.7759	4454.8375
3068.16494	4459.9375
3070.55254	4435.6375
3072.93868	4437.9375
3075.32338	4438.3375
3077.70662	4426.0375
3080.08842	4405.1375
3082.46878	4409.8375
3084.84769	4400.9375
3087.22515	4399.4375
3089.60118	4386.0375
3091.97576	4391.1375
3094.3489	4385.1375
3096.72061	4381.5375
3099.09087	4399.9375
3101.4597	4382.2375
3103.82709	4409.4375
3106.19305	4401.4375
3108.55757	4391.1375
3110.92066	4383.2375
3113.28232	4372.6375
3115.64255	4372.5375
3118.00134	4365.8375
3120.35871	4357.5375
3122.71466	4344.2375
3125.06917	4350.9375
3127.42226	4342.5375
3129.77393	4347.2375
3132.12417	4330.8375
3134.47299	4331.5375
3136.82039	4346.1375
3139.16636	4337.4375
3141.51092	4339.3375
3143.85406	4344.1375
3146.19579	4343.0375
3148.53609	4368.4375
3150.87499	4356.7375
3153.21246	4376.6375
3155.54853	4380.2375
3157.88318	4363.8375
3160.21642	4366.1375
3162.54826	4390.3375
3164.87868	4371.8375
3167.2077	4379.1375
3169.5353	4387.3375
3171.86151	4385.6375
3174.18631	4380.6375
3176.5097	4386.3375
3178.83169	4366.3375
3181.15228	4372.3375
3183.47147	4371.8375
3185.78926	4368.0375
3188.10565	4370.5375
3190.42065	4375.9375
3192.73424	4360.3375
3195.04645	4373.0375
3197.35725	4373.5375
3199.66667	4385.7375
3201.97469	4378.0375
3204.28132	4371.3375
3206.58656	4383.0375
3208.8904	4385.5375
3211.19287	4393.2375
3213.49394	4407.4375
3215.79363	4407.6375
3218.09193	4407.9375
3220.38884	4396.9375
3222.68438	4432.3375
3224.97853	4374.4375
3227.2713	4394.3375
3229.56269	4384.2375
3231.8527	4383.1375
3234.14133	4382.9375
3236.42858	4358.4375
3238.71446	4365.3375
3240.99896	4351.5375
3243.28209	4367.1375
3245.56384	4341.4375
3247.84423	4341.9375
3250.12324	4344.3375
3252.40088	4353.1375
3254.67715	4331.4375
3256.95205	4347.6375
3259.22558	4337.8375
3261.49775	4337.9375
3263.76855	4325.9375
3266.03799	4312.2375
3268.30606	4306.9375
3270.57277	4316.9375
3272.83812	4298.4375
3275.10211	4289.7375
3277.36474	4287.9375
3279.62601	4278.9375
3281.88593	4272.0375
3284.14448	4274.8375
3286.40168	4276.1375
3288.65753	4275.3375
3290.91202	4267.1375
3293.16516	4253.9375
3295.41695	4242.9375
3297.66738	4223.5375
3299.91647	4198.6375
3302.16421	4177.3375
3304.4106	4160.5375
3306.65564	4135.6375
3308.89933	4130.5375
3311.14169	4092.1375
3313.38269	4058.5375
3315.62236	4024.1375
3317.86068	3999.3375
3320.09766	3963.7375
3322.3333	3936.7375
3324.5676	3938.5375
3326.80056	3868.0375
3329.03219	3824.0375
3331.26248	1.6375
3333.49143	-0.7625
3335.71905	0.3375
