Data from AgNPs_FTO_APTES_UA_1uM_CRN_1uM_R6G_10uM_NaF_0.1M_Addition_RamanShift__13__12-27-19-495.txt Node

Date: Thu Jan 27 12:27:19 GMT 2022
User: TCL
Spectrometer: QEP01345
Trigger mode: 4
Integration Time (sec): 7.000000E0
Scans to average: 10
Electric dark correction enabled: true
Nonlinearity correction enabled: false
Boxcar width: 0
XAxis mode: Raman Shifts
Number of Pixels in Spectrum: 1044
>>>>>Begin Spectral Data<<<<<
46.04893	-0.0125
50.45542	1.0875
54.85868	-3.3125
59.25871	-1.1125
63.6555	62.8875
68.04907	68.5875
72.43941	71.0875
76.82654	72.7875
81.21044	77.5875
85.59113	76.9875
89.96862	83.9875
94.34289	82.3875
98.71396	89.1875
103.08183	87.7875
107.4465	92.3875
111.80798	98.1875
116.16626	94.9875
120.52136	102.5875
124.87327	106.2875
129.222	108.8875
133.56755	115.8875
137.90993	126.6875
142.24913	137.0875
146.58517	153.6875
150.91804	176.9875
155.24774	209.1875
159.57429	254.7875
163.89768	328.3875
168.21792	431.6875
172.53501	584.9875
176.84895	814.0875
181.15975	1134.7875
185.46741	1599.9875
189.77193	2217.2875
194.07331	2975.2875
198.37157	3870.7875
202.6667	4798.1875
206.9587	5741.8875
211.24758	6628.9875
215.53334	7534.5875
219.81599	8503.9875
224.09553	9533.7875
228.37195	10669.5875
232.64527	11926.7875
236.91549	13292.0875
241.18261	14698.9875
245.44663	15996.9875
249.70755	17226.4875
253.96539	18313.4875
258.22014	19195.3875
262.4718	19892.7875
266.72039	20379.4875
270.96589	20622.7875
275.20832	20590.9875
279.44768	20383.8875
283.68397	20117.5875
287.91719	19840.6875
292.14735	19623.4875
296.37445	19481.5875
300.59849	19403.7875
304.81948	19393.8875
309.03742	19402.1875
313.25231	19297.8875
317.46415	19118.4875
321.67296	18795.2875
325.87872	18591.1875
330.08145	18487.8875
334.28114	18523.9875
338.47781	18625.7875
342.67145	18856.6875
346.86207	19126.2875
351.04966	19480.9875
355.23424	19813.7875
359.4158	20136.1875
363.59435	20415.3875
367.76989	20620.5875
371.94243	20731.4875
376.11196	20800.3875
380.27849	20875.2875
384.44203	20957.3875
388.60257	21112.6875
392.76012	21267.4875
396.91468	21487.2875
401.06626	21751.3875
405.21485	21921.5875
409.36047	21878.2875
413.50311	21677.1875
417.64277	21493.1875
421.77947	21488.8875
425.9132	21513.8875
430.04396	21626.8875
434.17176	21717.8875
438.2966	21847.5875
442.41849	22006.2875
446.53742	22266.0875
450.6534	22528.6875
454.76644	22784.3875
458.87653	22856.2875
462.98368	22911.1875
467.08789	22857.8875
471.18916	22745.4875
475.2875	22518.4875
479.38291	22392.1875
483.4754	22267.9875
487.56496	22162.0875
491.6516	22095.7875
495.73531	22006.2875
499.81612	21984.0875
503.89401	22129.0875
507.96899	22233.5875
512.04106	22286.4875
516.11023	22303.0875
520.1765	22217.2875
524.23987	22191.9875
528.30034	22046.7875
532.35792	21963.3875
536.41261	21822.8875
540.46441	21712.2875
544.51333	21665.1875
548.55936	21779.8875
552.60252	22007.8875
556.64279	22247.7875
560.6802	22444.0875
564.71473	22490.8875
568.7464	22596.8875
572.7752	22769.0875
576.80114	23025.1875
580.82422	23354.1875
584.84444	23711.4875
588.86181	24261.3875
592.87633	24731.5875
596.888	24799.1875
600.89682	24467.9875
604.9028	24535.1875
608.90594	25876.6875
612.90624	27603.0875
616.90371	26822.2875
620.89834	23903.3875
624.89015	22511.4875
628.87913	22321.8875
632.86528	22432.4875
636.84862	22574.9875
640.82913	22442.2875
644.80683	22128.9875
648.78172	21856.2875
652.75379	21865.4875
656.72306	22029.9875
660.68952	22317.9875
664.65319	22327.2875
668.61405	22091.7875
672.57211	22023.0875
676.52738	22135.2875
680.47986	22090.9875
684.42955	21992.5875
688.37646	21918.3875
692.32058	21933.8875
696.26192	22063.1875
700.20048	22249.6875
704.13626	22358.6875
708.06928	22418.5875
711.99952	22339.6875
715.927	22294.0875
719.85171	22308.5875
723.77365	22238.9875
727.69284	22146.5875
731.60928	21971.9875
735.52295	21856.1875
739.43388	21834.6875
743.34206	21910.8875
747.24749	21986.3875
751.15017	22029.2875
755.05012	22221.9875
758.94733	22555.8875
762.8418	23140.8875
766.73354	24171.6875
770.62254	25233.3875
774.50882	25641.9875
778.39237	25189.6875
782.27321	24244.0875
786.15132	23366.3875
790.02671	22687.4875
793.89938	22281.1875
797.76935	22140.6875
801.6366	21993.3875
805.50115	21917.9875
809.36299	21840.0875
813.22213	21793.3875
817.07857	21733.6875
820.93231	21686.3875
824.78336	21663.2875
828.63172	21690.4875
832.47738	21684.2875
836.32036	21663.8875
840.16066	21636.4875
843.99827	21636.7875
847.8332	21639.4875
851.66546	21640.3875
855.49504	21626.1875
859.32195	21689.2875
863.1462	21679.2875
866.96777	21673.8875
870.78668	21714.0875
874.60293	21740.4875
878.41652	21746.5875
882.22745	21810.1875
886.03573	21877.4875
889.84136	21898.3875
893.64433	21875.0875
897.44466	21871.9875
901.24235	21833.6875
905.0374	21825.7875
908.8298	21758.7875
912.61957	21772.5875
916.40671	21755.6875
920.19121	21878.2875
923.97308	21995.4875
927.75233	22042.8875
931.52895	21994.4875
935.30295	21878.3875
939.07433	21676.7875
942.84309	21500.8875
946.60924	21391.4875
950.37278	21275.3875
954.13371	21274.4875
957.89203	21260.8875
961.64774	21206.0875
965.40086	21160.9875
969.15137	21142.7875
972.89929	21042.5875
976.64461	21035.0875
980.38733	21018.4875
984.12747	20977.3875
987.86502	21024.9875
991.59999	21090.6875
995.33237	21154.1875
999.06217	21324.4875
1002.78939	21461.8875
1006.51404	21704.9875
1010.23611	21997.5875
1013.95561	22137.4875
1017.67255	22185.4875
1021.38692	22092.2875
1025.09872	21922.3875
1028.80796	21732.7875
1032.51465	21601.0875
1036.21877	21561.4875
1039.92035	21628.9875
1043.61937	21662.5875
1047.31584	21741.4875
1051.00976	21841.8875
1054.70114	21889.9875
1058.38998	21930.7875
1062.07627	22039.0875
1065.76003	22178.7875
1069.44126	22356.1875
1073.11995	22615.7875
1076.79611	22944.0875
1080.46974	23107.0875
1084.14085	23168.0875
1087.80943	23198.3875
1091.47549	23280.4875
1095.13903	23372.8875
1098.80005	23217.7875
1102.45857	22996.5875
1106.11456	22732.6875
1109.76805	22565.9875
1113.41903	22435.6875
1117.06751	22446.4875
1120.71348	22508.7875
1124.35696	22623.5875
1127.99793	22828.2875
1131.63641	22958.4875
1135.2724	22868.9875
1138.90589	22673.8875
1142.5369	22527.4875
1146.16542	22532.0875
1149.79145	22577.1875
1153.415	22506.2875
1157.03607	22546.5875
1160.65467	22711.3875
1164.27079	23109.4875
1167.88443	23672.0875
1171.49561	24436.2875
1175.10432	25304.7875
1178.71056	26413.2875
1182.31434	27588.8875
1185.91565	28295.5875
1189.51451	28482.4875
1193.11091	28246.7875
1196.70485	27782.4875
1200.29634	27097.3875
1203.88538	26481.7875
1207.47197	25901.3875
1211.05612	25462.9875
1214.63782	25091.6875
1218.21708	24693.0875
1221.79391	24335.5875
1225.36829	24053.4875
1228.94024	23941.4875
1232.50976	23860.0875
1236.07685	23838.0875
1239.6415	23761.7875
1243.20374	23802.0875
1246.76355	23826.3875
1250.32093	24000.0875
1253.8759	24230.1875
1257.42845	24587.5875
1260.97859	25005.4875
1264.52631	25428.3875
1268.07163	25807.1875
1271.61453	26225.7875
1275.15503	26508.7875
1278.69312	26832.4875
1282.22882	27170.3875
1285.76211	27556.7875
1289.29301	27982.6875
1292.82151	28473.8875
1296.34761	29110.0875
1299.87133	29902.0875
1303.39266	30759.1875
1306.9116	31612.9875
1310.42815	32498.6875
1313.94233	33030.2875
1317.45412	33055.0875
1320.96354	32673.5875
1324.47058	32270.2875
1327.97525	31884.5875
1331.47754	31605.4875
1334.97747	31380.1875
1338.47502	31338.1875
1341.97022	31499.3875
1345.46305	31883.0875
1348.95352	32364.2875
1352.44163	32723.1875
1355.92738	33143.6875
1359.41078	33874.2875
1362.89183	34572.4875
1366.37053	34223.8875
1369.84688	32419.8875
1373.32088	29963.5875
1376.79254	28001.4875
1380.26186	27010.1875
1383.72883	26583.9875
1387.19347	26268.2875
1390.65578	25862.7875
1394.11575	25551.6875
1397.57339	25421.2875
1401.0287	25494.5875
1404.48168	25568.4875
1407.93234	25536.3875
1411.38068	25363.8875
1414.82669	25139.4875
1418.27039	24737.8875
1421.71177	24379.3875
1425.15083	24049.6875
1428.58758	23930.0875
1432.02203	23947.2875
1435.45416	24103.7875
1438.88399	24320.3875
1442.31151	24462.9875
1445.73673	24511.6875
1449.15965	24604.4875
1452.58027	24654.8875
1455.9986	24678.1875
1459.41463	24788.1875
1462.82837	25092.5875
1466.23982	25425.0875
1469.64898	25738.3875
1473.05586	25971.2875
1476.46045	26070.4875
1479.86276	26096.0875
1483.26279	26104.8875
1486.66054	26177.0875
1490.05602	26333.4875
1493.44922	26765.6875
1496.84016	27362.1875
1500.22882	28194.0875
1503.61521	29179.4875
1506.99934	30223.2875
1510.38121	31002.4875
1513.76081	31065.5875
1517.13816	30470.6875
1520.51324	29394.4875
1523.88607	28393.2875
1527.25665	27736.9875
1530.62498	27265.8875
1533.99105	26953.2875
1537.35488	26565.7875
1540.71647	26165.9875
1544.07581	25770.1875
1547.4329	25415.6875
1550.78776	25126.5875
1554.14038	24958.2875
1557.49077	24942.8875
1560.83892	25016.0875
1564.18484	25146.2875
1567.52853	25319.5875
1570.86999	25476.7875
1574.20922	25638.6875
1577.54624	25766.8875
1580.88103	25642.3875
1584.2136	25320.6875
1587.54395	25297.2875
1590.87208	25713.3875
1594.19801	26439.5875
1597.52172	27196.8875
1600.84321	27533.6875
1604.16251	27054.0875
1607.47959	26084.4875
1610.79447	24944.2875
1614.10715	23833.9875
1617.41763	22835.2875
1620.7259	22113.4875
1624.03199	21684.3875
1627.33587	21571.4875
1630.63757	21736.1875
1633.93707	22365.6875
1637.23439	23398.2875
1640.52951	24998.1875
1643.82246	27009.3875
1647.11321	28753.2875
1650.40179	29410.2875
1653.68819	28395.4875
1656.97241	26104.8875
1660.25446	23696.8875
1663.53433	21887.2875
1666.81203	20803.6875
1670.08756	20074.4875
1673.36092	19702.3875
1676.63211	19402.0875
1679.90115	19196.1875
1683.16801	19031.4875
1686.43272	18902.1875
1689.69527	18779.2875
1692.95567	18688.0875
1696.2139	18604.7875
1699.46999	18547.3875
1702.72392	18508.6875
1705.97571	18485.2875
1709.22535	18507.1875
1712.47284	18535.8875
1715.71819	18564.1875
1718.96139	18525.9875
1722.20246	18487.4875
1725.44139	18406.9875
1728.67818	18355.6875
1731.91284	18258.6875
1735.14537	18182.2875
1738.37576	18158.1875
1741.60403	18098.7875
1744.83017	18009.5875
1748.05418	17968.2875
1751.27607	17938.9875
1754.49584	17895.1875
1757.71349	17876.1875
1760.92903	17871.4875
1764.14244	17838.6875
1767.35375	17856.3875
1770.56294	17792.2875
1773.77002	17782.9875
1776.97499	17765.9875
1780.17785	17760.1875
1783.37861	17768.4875
1786.57727	17733.5875
1789.77382	17729.2875
1792.96828	17686.4875
1796.16064	17653.1875
1799.3509	17613.6875
1802.53907	17533.1875
1805.72514	17564.7875
1808.90913	17501.1875
1812.09102	17481.0875
1815.27083	17427.7875
1818.44856	17452.9875
1821.6242	17404.5875
1824.79776	17406.5875
1827.96924	17374.6875
1831.13864	17367.5875
1834.30597	17361.7875
1837.47122	17351.2875
1840.6344	17336.7875
1843.7955	17367.5875
1846.95454	17341.0875
1850.11151	17349.8875
1853.26642	17311.1875
1856.41926	17356.0875
1859.57004	17319.6875
1862.71876	17290.8875
1865.86542	17305.7875
1869.01003	17227.2875
1872.15258	17228.7875
1875.29308	17198.2875
1878.43152	17146.8875
1881.56792	17139.9875
1884.70227	17092.6875
1887.83457	17045.8875
1890.96482	17000.6875
1894.09304	16980.3875
1897.21921	16966.3875
1900.34335	16934.1875
1903.46544	16929.0875
1906.58551	16929.9875
1909.70353	16864.6875
1912.81953	16861.4875
1915.93349	16820.1875
1919.04543	16793.6875
1922.15534	16727.8875
1925.26322	16694.4875
1928.36908	16645.0875
1931.47292	16590.8875
1934.57473	16587.5875
1937.67453	16521.9875
1940.77232	16491.3875
1943.86808	16446.2875
1946.96184	16415.8875
1950.05358	16345.8875
1953.14331	16310.5875
1956.23103	16246.8875
1959.31675	16211.1875
1962.40046	16143.7875
1965.48217	16118.0875
1968.56188	16069.0875
1971.63959	16015.8875
1974.7153	15985.0875
1977.78901	15916.0875
1980.86073	15886.3875
1983.93046	15837.6875
1986.99819	15778.3875
1990.06394	15709.9875
1993.1277	15674.4875
1996.18947	15629.9875
1999.24925	15576.1875
2002.30706	15514.3875
2005.36288	15474.2875
2008.41672	15426.6875
2011.46859	15408.7875
2014.51848	15320.2875
2017.56639	15271.6875
2020.61233	15270.7875
2023.6563	15232.2875
2026.6983	15192.8875
2029.73833	15115.7875
2032.7764	15090.3875
2035.8125	15055.5875
2038.84664	15008.4875
2041.87881	15010.0875
2044.90903	14937.7875
2047.93729	14927.3875
2050.96359	14884.3875
2053.98794	14875.2875
2057.01034	14870.8875
2060.03078	14864.8875
2063.04927	14841.6875
2066.06582	14868.3875
2069.08042	14848.8875
2072.09307	14834.9875
2075.10378	14825.7875
2078.11255	14806.5875
2081.11938	14823.0875
2084.12426	14812.8875
2087.12722	14825.6875
2090.12824	14789.1875
2093.12732	14773.1875
2096.12447	14781.3875
2099.11969	14754.5875
2102.11299	14782.0875
2105.10435	14797.9875
2108.09379	14799.4875
2111.08131	14813.4875
2114.0669	14792.0875
2117.05057	14774.3875
2120.03233	14777.9875
2123.01216	14807.2875
2125.99008	14826.2875
2128.96609	14805.7875
2131.94018	14811.8875
2134.91236	14816.3875
2137.88263	14791.9875
2140.851	14822.2875
2143.81746	14839.5875
2146.78201	14823.4875
2149.74466	14835.7875
2152.7054	14806.1875
2155.66425	14812.4875
2158.6212	14793.2875
2161.57625	14790.0875
2164.52941	14798.0875
2167.48067	14755.6875
2170.43004	14732.3875
2173.37752	14773.8875
2176.32311	14761.3875
2179.26681	14773.3875
2182.20863	14741.2875
2185.14856	14754.7875
2188.08661	14743.8875
2191.02278	14732.7875
2193.95707	14717.0875
2196.88948	14724.1875
2199.82001	14716.4875
2202.74867	14669.5875
2205.67545	14658.4875
2208.60037	14633.5875
2211.52341	14615.7875
2214.44458	14620.0875
2217.36388	14526.2875
2220.28132	14523.0875
2223.1969	14469.2875
2226.11061	14435.4875
2229.02246	14429.7875
2231.93245	14405.6875
2234.84058	14391.1875
2237.74686	14375.1875
2240.65128	14333.7875
2243.55385	14324.2875
2246.45456	14305.3875
2249.35343	14272.3875
2252.25044	14280.2875
2255.14561	14247.2875
2258.03893	14205.7875
2260.93041	14165.5875
2263.82004	14164.1875
2266.70783	14083.3875
2269.59378	14099.0875
2272.4779	14042.6875
2275.36017	14028.1875
2278.24061	13992.3875
2281.11922	13957.3875
2283.996	13936.4875
2286.87094	13931.8875
2289.74405	13864.4875
2292.61534	13868.8875
2295.4848	13823.0875
2298.35243	13825.8875
2301.21824	13808.9875
2304.08223	13810.1875
2306.94439	13769.4875
2309.80474	13765.9875
2312.66327	13738.4875
2315.51999	13713.3875
2318.37489	13726.7875
2321.22797	13707.7875
2324.07925	13679.8875
2326.92871	13638.6875
2329.77637	13641.1875
2332.62222	13614.9875
2335.46626	13569.0875
2338.3085	13530.2875
2341.14893	13547.5875
2343.98756	13539.7875
2346.8244	13504.3875
2349.65943	13512.0875
2352.49267	13454.7875
2355.32411	13434.1875
2358.15376	13451.4875
2360.98161	13432.8875
2363.80768	13448.5875
2366.63195	13419.5875
2369.45444	13425.0875
2372.27514	13438.9875
2375.09405	13405.5875
2377.91118	13340.0875
2380.72652	13354.3875
2383.54009	13325.6875
2386.35187	13310.5875
2389.16188	13230.2875
2391.97011	13211.3875
2394.77657	13187.7875
2397.58125	13156.3875
2400.38416	13113.2875
2403.18529	13118.3875
2405.98466	13098.5875
2408.78226	13061.7875
2411.57809	13069.7875
2414.37216	13024.9875
2417.16446	13053.6875
2419.955	13018.5875
2422.74378	13015.7875
2425.5308	12997.5875
2428.31606	12996.1875
2431.09956	12937.4875
2433.88131	12925.0875
2436.6613	12922.7875
2439.43954	12939.0875
2442.21603	12904.4875
2444.99077	12928.5875
2447.76377	12912.0875
2450.53501	12880.0875
2453.30451	12833.0875
2456.07226	12823.6875
2458.83827	12787.4875
2461.60254	12796.4875
2464.36507	12769.7875
2467.12586	12780.0875
2469.88492	12748.4875
2472.64224	12770.8875
2475.39782	12751.0875
2478.15167	12756.6875
2480.90379	12727.1875
2483.65417	12730.7875
2486.40283	12708.0875
2489.14976	12695.9875
2491.89497	12686.3875
2494.63845	12664.1875
2497.3802	12674.0875
2500.12024	12640.3875
2502.85855	12629.4875
2505.59514	12619.0875
2508.33002	12605.9875
2511.06318	12568.0875
2513.79462	12577.3875
2516.52435	12530.4875
2519.25237	12542.1875
2521.97867	12488.9875
2524.70327	12491.1875
2527.42616	12469.9875
2530.14734	12444.3875
2532.86681	12446.4875
2535.58458	12401.7875
2538.30065	12400.9875
2541.01501	12404.9875
2543.72768	12400.6875
2546.43864	12339.8875
2549.14791	12313.7875
2551.85548	12308.6875
2554.56136	12262.8875
2557.26554	12279.9875
2559.96803	12238.4875
2562.66883	12209.5875
2565.36794	12185.3875
2568.06536	12183.9875
2570.7611	12182.7875
2573.45514	12128.0875
2576.14751	12109.9875
2578.83819	12085.6875
2581.52719	12070.8875
2584.21451	12056.1875
2586.90015	12031.7875
2589.58411	11992.5875
2592.2664	11956.7875
2594.94701	11941.5875
2597.62594	11922.5875
2600.30321	11895.9875
2602.9788	11888.8875
2605.65273	11867.8875
2608.32498	11841.5875
2610.99557	11831.2875
2613.66449	11830.0875
2616.33175	11805.7875
2618.99734	11804.8875
2621.66128	11768.3875
2624.32355	11749.2875
2626.98416	11699.6875
2629.64311	11734.5875
2632.30041	11710.1875
2634.95605	11691.8875
2637.61004	11636.9875
2640.26238	11626.7875
2642.91306	11632.2875
2645.56209	11631.1875
2648.20948	11622.8875
2650.85521	11593.2875
2653.4993	11597.5875
2656.14175	11588.3875
2658.78255	11611.0875
2661.42171	11599.7875
2664.05923	11603.9875
2666.6951	11583.5875
2669.32934	11588.2875
2671.96194	11593.2875
2674.59291	11585.6875
2677.22224	11570.3875
2679.84993	11591.2875
2682.476	11554.7875
2685.10043	11542.1875
2687.72324	11509.6875
2690.34441	11568.3875
2692.96396	11538.2875
2695.58188	11536.9875
2698.19818	11534.3875
2700.81285	11529.9875
2703.4259	11518.0875
2706.03733	11526.7875
2708.64714	11481.7875
2711.25533	11510.1875
2713.86191	11509.5875
2716.46687	11527.8875
2719.07021	11482.1875
2721.67194	11518.2875
2724.27206	11501.9875
2726.87057	11539.5875
2729.46747	11504.1875
2732.06276	11491.1875
2734.65644	11457.4875
2737.24852	11467.8875
2739.83899	11447.8875
2742.42786	11454.9875
2745.01513	11407.2875
2747.60079	11410.1875
2750.18486	11402.7875
2752.76733	11369.9875
2755.3482	11353.9875
2757.92747	11355.9875
2760.50515	11327.4875
2763.08123	11322.8875
2765.65573	11329.0875
2768.22863	11299.2875
2770.79994	11285.6875
2773.36967	11275.3875
2775.9378	11268.7875
2778.50435	11258.9875
2781.06932	11205.4875
2783.6327	11219.3875
2786.1945	11184.9875
2788.75471	11169.9875
2791.31335	11134.0875
2793.87041	11145.0875
2796.42589	11058.7875
2798.97979	11092.6875
2801.53212	11058.0875
2804.08288	11049.4875
2806.63206	11014.3875
2809.17967	10974.8875
2811.72571	10953.1875
2814.27018	10921.8875
2816.81308	10895.2875
2819.35442	10897.8875
2821.89419	10877.0875
2824.43239	10852.5875
2826.96904	10830.4875
2829.50412	10846.6875
2832.03763	10793.4875
2834.56959	10820.6875
2837.1	10792.7875
2839.62884	10806.8875
2842.15613	10770.7875
2844.68186	10813.9875
2847.20604	10772.0875
2849.72867	10792.7875
2852.24974	10743.0875
2854.76927	10739.7875
2857.28724	10733.5875
2859.80367	10706.8875
2862.31855	10678.3875
2864.83189	10678.7875
2867.34368	10661.5875
2869.85393	10647.4875
2872.36264	10633.9875
2874.8698	10606.9875
2877.37543	10613.4875
2879.87952	10622.2875
2882.38207	10607.2875
2884.88308	10626.6875
2887.38256	10610.1875
2889.88051	10614.1875
2892.37692	10607.5875
2894.8718	10596.3875
2897.36515	10597.8875
2899.85698	10590.4875
2902.34727	10596.7875
2904.83604	10613.6875
2907.32328	10623.9875
2909.809	10601.2875
2912.29319	10599.6875
2914.77587	10619.5875
2917.25702	10571.0875
2919.73665	10564.6875
2922.21476	10574.3875
2924.69136	10577.1875
2927.16644	10547.3875
2929.64	10529.0875
2932.11205	10544.6875
2934.58258	10504.3875
2937.05161	10500.5875
2939.51912	10508.2875
2941.98513	10507.5875
2944.44962	10453.4875
2946.91261	10427.7875
2949.37409	10425.7875
2951.83407	10425.9875
2954.29254	10386.0875
2956.74951	10393.0875
2959.20498	10400.4875
2961.65895	10367.5875
2964.11142	10392.3875
2966.56239	10355.6875
2969.01186	10358.8875
2971.45984	10330.1875
2973.90632	10295.7875
2976.35131	10281.6875
2978.7948	10245.5875
2981.23681	10255.2875
2983.67732	10238.6875
2986.11635	10198.6875
2988.55388	10173.2875
2990.98993	10135.0875
2993.4245	10119.5875
2995.85758	10091.5875
2998.28917	10047.7875
3000.71928	10062.1875
3003.14791	10029.3875
3005.57506	10034.6875
3008.00073	10005.8875
3010.42493	9970.2875
3012.84764	9975.3875
3015.26888	9960.3875
3017.68865	9956.6875
3020.10694	9917.1875
3022.52376	9899.9875
3024.9391	9889.9875
3027.35298	9877.7875
3029.76539	9857.2875
3032.17632	9851.2875
3034.5858	9820.3875
3036.9938	9808.6875
3039.40034	9810.6875
3041.80542	9810.7875
3044.20903	9781.3875
3046.61118	9760.9875
3049.01187	9725.3875
3051.4111	9737.3875
3053.80888	9687.3875
3056.20519	9707.8875
3058.60005	9660.7875
3060.99345	9639.6875
3063.3854	9597.8875
3065.7759	9607.8875
3068.16494	9596.3875
3070.55254	9569.3875
3072.93868	9547.0875
3075.32338	9511.5875
3077.70662	9516.4875
3080.08842	9497.8875
3082.46878	9488.8875
3084.84769	9462.6875
3087.22515	9446.4875
3089.60118	9440.4875
3091.97576	9464.9875
3094.3489	9441.3875
3096.72061	9468.0875
3099.09087	9448.7875
3101.4597	9445.0875
3103.82709	9431.9875
3106.19305	9404.6875
3108.55757	9419.0875
3110.92066	9387.7875
3113.28232	9362.8875
3115.64255	9337.7875
3118.00134	9329.2875
3120.35871	9315.0875
3122.71466	9278.2875
3125.06917	9282.3875
3127.42226	9255.3875
3129.77393	9261.8875
3132.12417	9251.5875
3134.47299	9218.6875
3136.82039	9210.0875
3139.16636	9217.4875
3141.51092	9246.1875
3143.85406	9252.0875
3146.19579	9230.6875
3148.53609	9236.6875
3150.87499	9244.0875
3153.21246	9245.3875
3155.54853	9260.5875
3157.88318	9241.2875
3160.21642	9245.8875
3162.54826	9242.1875
3164.87868	9219.5875
3167.2077	9197.8875
3169.5353	9224.4875
3171.86151	9224.2875
3174.18631	9220.7875
3176.5097	9220.2875
3178.83169	9166.6875
3181.15228	9177.9875
3183.47147	9127.7875
3185.78926	9155.1875
3188.10565	9114.5875
3190.42065	9118.0875
3192.73424	9108.8875
3195.04645	9096.2875
3197.35725	9111.0875
3199.66667	9090.9875
3201.97469	9100.6875
3204.28132	9070.1875
3206.58656	9117.9875
3208.8904	9108.7875
3211.19287	9131.4875
3213.49394	9104.3875
3215.79363	9086.9875
3218.09193	9117.9875
3220.38884	9107.8875
3222.68438	9087.5875
3224.97853	9078.1875
3227.2713	9063.7875
3229.56269	9036.6875
3231.8527	9051.9875
3234.14133	9045.4875
3236.42858	8991.3875
3238.71446	8994.3875
3240.99896	8978.4875
3243.28209	8960.4875
3245.56384	8950.6875
3247.84423	8941.8875
3250.12324	8933.1875
3252.40088	8924.8875
3254.67715	8937.1875
3256.95205	8922.4875
3259.22558	8909.8875
3261.49775	8902.0875
3263.76855	8902.6875
3266.03799	8872.3875
3268.30606	8848.8875
3270.57277	8855.2875
3272.83812	8827.8875
3275.10211	8792.0875
3277.36474	8784.3875
3279.62601	8757.1875
3281.88593	8754.8875
3284.14448	8755.2875
3286.40168	8757.0875
3288.65753	8767.3875
3290.91202	8758.3875
3293.16516	8696.1875
3295.41695	8696.9875
3297.66738	8624.8875
3299.91647	8599.0875
3302.16421	8538.9875
3304.4106	8495.6875
3306.65564	8455.8875
3308.89933	8406.3875
3311.14169	8334.8875
3313.38269	8273.4875
3315.62236	8232.1875
3317.86068	8162.0875
3320.09766	8123.4875
3322.3333	8028.5875
3324.5676	8031.4875
3326.80056	7895.0875
3329.03219	7834.8875
3331.26248	2.6875
3333.49143	0.0875
3335.71905	0.3875
