Data from AgNPs_FTO_APTES_UA_1uM_CRN_10uM_R6G_10uM_NaF_0.1M_Addition_RamanShift__21__14-40-19-648.txt Node

Date: Thu Jan 27 14:40:19 GMT 2022
User: TCL
Spectrometer: QEP01345
Trigger mode: 4
Integration Time (sec): 7.000000E0
Scans to average: 10
Electric dark correction enabled: true
Nonlinearity correction enabled: false
Boxcar width: 0
XAxis mode: Raman Shifts
Number of Pixels in Spectrum: 1044
>>>>>Begin Spectral Data<<<<<
46.04893	1.6375
50.45542	0.2375
54.85868	-0.9625
59.25871	-1.4625
63.6555	49.7375
68.04907	54.2375
72.43941	57.8375
76.82654	59.7375
81.21044	62.3375
85.59113	59.4375
89.96862	66.1375
94.34289	68.1375
98.71396	69.5375
103.08183	71.2375
107.4465	73.7375
111.80798	76.5375
116.16626	74.6375
120.52136	78.9375
124.87327	81.5375
129.222	81.2375
133.56755	85.3375
137.90993	91.3375
142.24913	102.4375
146.58517	110.2375
150.91804	123.3375
155.24774	145.3375
159.57429	176.8375
163.89768	225.5375
168.21792	288.7375
172.53501	395.1375
176.84895	538.4375
181.15975	745.9375
185.46741	1051.5375
189.77193	1446.6375
194.07331	1935.7375
198.37157	2495.1375
202.6667	3071.2375
206.9587	3669.5375
211.24758	4236.0375
215.53334	4806.0375
219.81599	5416.2375
224.09553	6093.5375
228.37195	6844.1375
232.64527	7679.1375
236.91549	8579.1375
241.18261	9418.2375
245.44663	10209.2375
249.70755	10981.1375
253.96539	11582.2375
258.22014	12144.5375
262.4718	12588.9375
266.72039	12940.3375
270.96589	13140.6375
275.20832	13206.9375
279.44768	13145.5375
283.68397	13058.0375
287.91719	12967.3375
292.14735	12973.4375
296.37445	12994.7375
300.59849	13100.1375
304.81948	13197.4375
309.03742	13171.7375
313.25231	13010.9375
317.46415	12634.1375
321.67296	12174.9375
325.87872	11810.5375
330.08145	11616.0375
334.28114	11612.9375
338.47781	11720.2375
342.67145	11926.2375
346.86207	12166.0375
351.04966	12466.7375
355.23424	12830.4375
359.4158	13144.3375
363.59435	13296.9375
367.76989	13429.9375
371.94243	13549.3375
376.11196	13609.7375
380.27849	13677.8375
384.44203	13716.5375
388.60257	13775.9375
392.76012	13842.4375
396.91468	14004.9375
401.06626	14250.0375
405.21485	14439.9375
409.36047	14397.5375
413.50311	14135.9375
417.64277	13882.0375
421.77947	13796.0375
425.9132	13826.5375
430.04396	13898.9375
434.17176	14023.8375
438.2966	14120.7375
442.41849	14334.5375
446.53742	14662.7375
450.6534	15114.3375
454.76644	15408.0375
458.87653	15557.7375
462.98368	15553.3375
467.08789	15395.4375
471.18916	15154.9375
475.2875	14918.5375
479.38291	14781.3375
483.4754	14662.2375
487.56496	14443.5375
491.6516	14249.8375
495.73531	14074.8375
499.81612	14023.6375
503.89401	14080.1375
507.96899	14132.5375
512.04106	14128.3375
516.11023	14128.5375
520.1765	14066.0375
524.23987	14022.2375
528.30034	13864.2375
532.35792	13701.9375
536.41261	13557.9375
540.46441	13393.1375
544.51333	13394.2375
548.55936	13523.8375
552.60252	13792.8375
556.64279	14089.0375
560.6802	14234.1375
564.71473	14330.2375
568.7464	14515.2375
572.7752	14776.5375
576.80114	14866.8375
580.82422	14974.8375
584.84444	15088.6375
588.86181	15187.8375
592.87633	15348.7375
596.888	15518.0375
600.89682	15644.0375
604.9028	16354.7375
608.90594	18066.3375
612.90624	20107.3375
616.90371	19250.4375
620.89834	15916.3375
624.89015	14441.9375
628.87913	14295.4375
632.86528	14267.0375
636.84862	14152.2375
640.82913	13913.7375
644.80683	13536.1375
648.78172	13258.7375
652.75379	13160.0375
656.72306	13383.5375
660.68952	13665.5375
664.65319	13649.6375
668.61405	13405.4375
672.57211	13273.8375
676.52738	13283.2375
680.47986	13264.0375
684.42955	13242.2375
688.37646	13201.9375
692.32058	13236.7375
696.26192	13368.9375
700.20048	13504.7375
704.13626	13563.7375
708.06928	13534.4375
711.99952	13407.5375
715.927	13376.6375
719.85171	13374.6375
723.77365	13357.7375
727.69284	13245.6375
731.60928	13125.3375
735.52295	13108.6375
739.43388	13150.8375
743.34206	13217.2375
747.24749	13265.5375
751.15017	13410.6375
755.05012	13591.9375
758.94733	14027.6375
762.8418	14716.0375
766.73354	15848.8375
770.62254	17040.6375
774.50882	17512.4375
778.39237	16736.5375
782.27321	15435.9375
786.15132	14318.7375
790.02671	13681.5375
793.89938	13373.3375
797.76935	13261.9375
801.6366	13216.6375
805.50115	13197.2375
809.36299	13138.5375
813.22213	13056.2375
817.07857	13031.9375
820.93231	12996.0375
824.78336	12969.3375
828.63172	13019.9375
832.47738	13030.1375
836.32036	13076.9375
840.16066	13125.3375
843.99827	13171.3375
847.8332	13135.1375
851.66546	13049.9375
855.49504	12994.5375
859.32195	12993.1375
863.1462	12923.9375
866.96777	12872.6375
870.78668	12815.3375
874.60293	12820.7375
878.41652	12846.8375
882.22745	12859.4375
886.03573	12926.6375
889.84136	12918.6375
893.64433	12888.7375
897.44466	12791.0375
901.24235	12763.6375
905.0374	12759.1375
908.8298	12705.7375
912.61957	12736.3375
916.40671	12839.0375
920.19121	13014.0375
923.97308	13190.4375
927.75233	13262.4375
931.52895	13228.7375
935.30295	13140.8375
939.07433	12890.1375
942.84309	12699.7375
946.60924	12602.8375
950.37278	12554.1375
954.13371	12501.6375
957.89203	12393.6375
961.64774	12350.1375
965.40086	12314.9375
969.15137	12259.9375
972.89929	12199.7375
976.64461	12172.1375
980.38733	12191.4375
984.12747	12257.9375
987.86502	12382.7375
991.59999	12569.0375
995.33237	12863.2375
999.06217	13284.4375
1002.78939	13809.7375
1006.51404	14072.8375
1010.23611	14229.5375
1013.95561	14320.1375
1017.67255	14381.4375
1021.38692	14250.1375
1025.09872	14127.3375
1028.80796	14345.6375
1032.51465	14903.7375
1036.21877	15377.9375
1039.92035	15407.5375
1043.61937	15140.3375
1047.31584	14624.3375
1051.00976	14093.6375
1054.70114	13804.7375
1058.38998	13732.3375
1062.07627	13738.3375
1065.76003	13759.4375
1069.44126	13829.5375
1073.11995	13917.2375
1076.79611	14056.4375
1080.46974	14114.7375
1084.14085	14217.0375
1087.80943	14363.0375
1091.47549	14407.0375
1095.13903	14358.5375
1098.80005	14164.7375
1102.45857	13889.2375
1106.11456	13710.4375
1109.76805	13671.8375
1113.41903	13807.9375
1117.06751	13932.1375
1120.71348	14121.7375
1124.35696	14309.3375
1127.99793	14490.0375
1131.63641	14583.8375
1135.2724	14387.5375
1138.90589	14199.0375
1142.5369	14077.8375
1146.16542	13990.8375
1149.79145	13962.3375
1153.415	14060.6375
1157.03607	14214.1375
1160.65467	14467.5375
1164.27079	14929.0375
1167.88443	15575.8375
1171.49561	16509.5375
1175.10432	17811.6375
1178.71056	19451.3375
1182.31434	21000.0375
1185.91565	21846.7375
1189.51451	21942.8375
1193.11091	21279.2375
1196.70485	20189.7375
1200.29634	19224.2375
1203.88538	18463.8375
1207.47197	17837.5375
1211.05612	17316.7375
1214.63782	17003.9375
1218.21708	16893.9375
1221.79391	16890.5375
1225.36829	16913.9375
1228.94024	16857.4375
1232.50976	16695.8375
1236.07685	16481.2375
1239.6415	16374.6375
1243.20374	16339.8375
1246.76355	16400.7375
1250.32093	16602.9375
1253.8759	16976.8375
1257.42845	17435.7375
1260.97859	17908.7375
1264.52631	18289.4375
1268.07163	18684.6375
1271.61453	19190.3375
1275.15503	19724.4375
1278.69312	20398.2375
1282.22882	20937.2375
1285.76211	21302.0375
1289.29301	21711.3375
1292.82151	22215.0375
1296.34761	22988.7375
1299.87133	23995.4375
1303.39266	25447.8375
1306.9116	27205.7375
1310.42815	29061.1375
1313.94233	30259.1375
1317.45412	30210.0375
1320.96354	29493.5375
1324.47058	28497.3375
1327.97525	27553.6375
1331.47754	26927.9375
1334.97747	26735.0375
1338.47502	26801.3375
1341.97022	27086.2375
1345.46305	27045.4375
1348.95352	26803.4375
1352.44163	26546.0375
1355.92738	26941.6375
1359.41078	28265.9375
1362.89183	29765.1375
1366.37053	29339.1375
1369.84688	26782.7375
1373.32088	23852.6375
1376.79254	21851.1375
1380.26186	20914.0375
1383.72883	20614.7375
1387.19347	20463.4375
1390.65578	20267.3375
1394.11575	20192.9375
1397.57339	20365.4375
1401.0287	20811.9375
1404.48168	21214.7375
1407.93234	21538.8375
1411.38068	21612.9375
1414.82669	21283.3375
1418.27039	20672.3375
1421.71177	19946.7375
1425.15083	19276.2375
1428.58758	18895.4375
1432.02203	18753.4375
1435.45416	18941.1375
1438.88399	19271.4375
1442.31151	19536.3375
1445.73673	19812.3375
1449.15965	20028.5375
1452.58027	20206.3375
1455.9986	20223.0375
1459.41463	20256.4375
1462.82837	20508.8375
1466.23982	20833.5375
1469.64898	21246.5375
1473.05586	21477.1375
1476.46045	21517.6375
1479.86276	21552.5375
1483.26279	21499.6375
1486.66054	21514.9375
1490.05602	21620.8375
1493.44922	21851.2375
1496.84016	22182.0375
1500.22882	22566.7375
1503.61521	23197.0375
1506.99934	24102.8375
1510.38121	25157.0375
1513.76081	25627.6375
1517.13816	25149.2375
1520.51324	23942.6375
1523.88607	22707.4375
1527.25665	21815.9375
1530.62498	21292.9375
1533.99105	20985.7375
1537.35488	20775.8375
1540.71647	20631.2375
1544.07581	20408.1375
1547.4329	20227.2375
1550.78776	20009.2375
1554.14038	19841.5375
1557.49077	19852.5375
1560.83892	19907.3375
1564.18484	19916.7375
1567.52853	19876.6375
1570.86999	19882.2375
1574.20922	20029.8375
1577.54624	20123.9375
1580.88103	20077.3375
1584.2136	20015.2375
1587.54395	20385.0375
1590.87208	21213.3375
1594.19801	22457.7375
1597.52172	23878.4375
1600.84321	24432.5375
1604.16251	23598.2375
1607.47959	21962.1375
1610.79447	20175.0375
1614.10715	18561.9375
1617.41763	17243.8375
1620.7259	16317.8375
1624.03199	15871.2375
1627.33587	15878.4375
1630.63757	16305.0375
1633.93707	17127.5375
1637.23439	18412.4375
1640.52951	19975.0375
1643.82246	21638.7375
1647.11321	22860.5375
1650.40179	23163.3375
1653.68819	22003.9375
1656.97241	19659.8375
1660.25446	17213.7375
1663.53433	15369.7375
1666.81203	14189.8375
1670.08756	13437.3375
1673.36092	12976.2375
1676.63211	12706.4375
1679.90115	12481.9375
1683.16801	12295.9375
1686.43272	12179.4375
1689.69527	12068.0375
1692.95567	11969.7375
1696.2139	11909.5375
1699.46999	11885.0375
1702.72392	11802.7375
1705.97571	11818.4375
1709.22535	11840.5375
1712.47284	11854.1375
1715.71819	11845.9375
1718.96139	11825.0375
1722.20246	11790.3375
1725.44139	11792.8375
1728.67818	11740.1375
1731.91284	11662.9375
1735.14537	11615.1375
1738.37576	11562.8375
1741.60403	11519.0375
1744.83017	11489.9375
1748.05418	11460.7375
1751.27607	11440.5375
1754.49584	11382.6375
1757.71349	11369.4375
1760.92903	11354.8375
1764.14244	11338.4375
1767.35375	11335.0375
1770.56294	11336.3375
1773.77002	11340.6375
1776.97499	11312.3375
1780.17785	11330.8375
1783.37861	11313.3375
1786.57727	11325.7375
1789.77382	11302.0375
1792.96828	11311.6375
1796.16064	11279.8375
1799.3509	11275.7375
1802.53907	11277.1375
1805.72514	11249.8375
1808.90913	11224.6375
1812.09102	11199.4375
1815.27083	11185.1375
1818.44856	11178.3375
1821.6242	11137.3375
1824.79776	11132.9375
1827.96924	11126.4375
1831.13864	11112.0375
1834.30597	11131.5375
1837.47122	11126.7375
1840.6344	11120.3375
1843.7955	11122.6375
1846.95454	11121.0375
1850.11151	11130.8375
1853.26642	11124.2375
1856.41926	11141.6375
1859.57004	11173.3375
1862.71876	11168.2375
1865.86542	11153.8375
1869.01003	11158.8375
1872.15258	11142.0375
1875.29308	11151.1375
1878.43152	11173.2375
1881.56792	11155.2375
1884.70227	11162.0375
1887.83457	11140.3375
1890.96482	11147.6375
1894.09304	11130.1375
1897.21921	11125.6375
1900.34335	11149.2375
1903.46544	11178.4375
1906.58551	11157.2375
1909.70353	11143.1375
1912.81953	11132.9375
1915.93349	11109.4375
1919.04543	11128.7375
1922.15534	11078.4375
1925.26322	11098.9375
1928.36908	11040.3375
1931.47292	11031.2375
1934.57473	10949.2375
1937.67453	10955.3375
1940.77232	10911.0375
1943.86808	10860.2375
1946.96184	10804.9375
1950.05358	10786.4375
1953.14331	10735.9375
1956.23103	10709.2375
1959.31675	10667.6375
1962.40046	10639.0375
1965.48217	10627.1375
1968.56188	10600.7375
1971.63959	10589.5375
1974.7153	10554.5375
1977.78901	10511.1375
1980.86073	10472.3375
1983.93046	10428.8375
1986.99819	10423.3375
1990.06394	10375.2375
1993.1277	10351.8375
1996.18947	10295.9375
1999.24925	10294.1375
2002.30706	10250.0375
2005.36288	10226.8375
2008.41672	10198.5375
2011.46859	10168.1375
2014.51848	10148.6375
2017.56639	10124.2375
2020.61233	10119.4375
2023.6563	10096.8375
2026.6983	10072.2375
2029.73833	10063.7375
2032.7764	10027.6375
2035.8125	10019.6375
2038.84664	9986.6375
2041.87881	9986.9375
2044.90903	9987.0375
2047.93729	9960.7375
2050.96359	9970.3375
2053.98794	9942.6375
2057.01034	9930.9375
2060.03078	9922.8375
2063.04927	9909.3375
2066.06582	9927.8375
2069.08042	9910.4375
2072.09307	9913.0375
2075.10378	9871.3375
2078.11255	9884.6375
2081.11938	9904.4375
2084.12426	9875.0375
2087.12722	9864.8375
2090.12824	9860.7375
2093.12732	9846.4375
2096.12447	9864.1375
2099.11969	9842.4375
2102.11299	9861.3375
2105.10435	9892.3375
2108.09379	9876.5375
2111.08131	9882.3375
2114.0669	9903.6375
2117.05057	9893.3375
2120.03233	9894.9375
2123.01216	9904.2375
2125.99008	9922.1375
2128.96609	9948.9375
2131.94018	9937.8375
2134.91236	9950.9375
2137.88263	9924.5375
2140.851	9943.0375
2143.81746	9969.1375
2146.78201	9951.0375
2149.74466	9978.5375
2152.7054	9981.0375
2155.66425	9969.0375
2158.6212	9979.3375
2161.57625	9953.7375
2164.52941	9966.7375
2167.48067	9960.1375
2170.43004	9958.6375
2173.37752	9965.6375
2176.32311	9951.7375
2179.26681	9950.6375
2182.20863	9948.2375
2185.14856	9965.2375
2188.08661	9977.0375
2191.02278	9981.2375
2193.95707	9980.7375
2196.88948	9962.3375
2199.82001	9966.7375
2202.74867	9971.8375
2205.67545	9984.6375
2208.60037	9981.2375
2211.52341	9966.9375
2214.44458	9953.7375
2217.36388	9935.1375
2220.28132	9922.6375
2223.1969	9924.5375
2226.11061	9889.1375
2229.02246	9889.7375
2231.93245	9866.9375
2234.84058	9847.7375
2237.74686	9815.4375
2240.65128	9824.2375
2243.55385	9825.6375
2246.45456	9791.0375
2249.35343	9792.7375
2252.25044	9769.5375
2255.14561	9746.8375
2258.03893	9723.6375
2260.93041	9722.0375
2263.82004	9698.5375
2266.70783	9690.0375
2269.59378	9655.7375
2272.4779	9643.4375
2275.36017	9630.5375
2278.24061	9621.4375
2281.11922	9608.2375
2283.996	9583.0375
2286.87094	9585.7375
2289.74405	9568.3375
2292.61534	9540.9375
2295.4848	9525.7375
2298.35243	9554.7375
2301.21824	9545.5375
2304.08223	9572.6375
2306.94439	9593.5375
2309.80474	9579.6375
2312.66327	9597.5375
2315.51999	9597.5375
2318.37489	9600.2375
2321.22797	9575.1375
2324.07925	9591.4375
2326.92871	9557.1375
2329.77637	9559.6375
2332.62222	9547.8375
2335.46626	9563.3375
2338.3085	9560.1375
2341.14893	9562.8375
2343.98756	9560.5375
2346.8244	9580.7375
2349.65943	9560.8375
2352.49267	9592.8375
2355.32411	9569.3375
2358.15376	9546.6375
2360.98161	9568.0375
2363.80768	9530.3375
2366.63195	9525.7375
2369.45444	9507.6375
2372.27514	9483.6375
2375.09405	9475.6375
2377.91118	9428.5375
2380.72652	9408.5375
2383.54009	9390.3375
2386.35187	9381.7375
2389.16188	9372.1375
2391.97011	9356.8375
2394.77657	9342.9375
2397.58125	9322.2375
2400.38416	9322.9375
2403.18529	9297.4375
2405.98466	9296.6375
2408.78226	9283.8375
2411.57809	9251.9375
2414.37216	9252.3375
2417.16446	9242.2375
2419.955	9205.2375
2422.74378	9204.6375
2425.5308	9202.4375
2428.31606	9210.8375
2431.09956	9198.7375
2433.88131	9170.2375
2436.6613	9181.6375
2439.43954	9184.4375
2442.21603	9171.3375
2444.99077	9176.5375
2447.76377	9186.3375
2450.53501	9156.6375
2453.30451	9166.2375
2456.07226	9147.7375
2458.83827	9167.5375
2461.60254	9155.5375
2464.36507	9163.6375
2467.12586	9150.2375
2469.88492	9136.7375
2472.64224	9158.1375
2475.39782	9154.1375
2478.15167	9158.3375
2480.90379	9168.1375
2483.65417	9168.2375
2486.40283	9176.9375
2489.14976	9195.0375
2491.89497	9192.3375
2494.63845	9218.5375
2497.3802	9195.6375
2500.12024	9198.2375
2502.85855	9184.1375
2505.59514	9177.6375
2508.33002	9176.9375
2511.06318	9185.2375
2513.79462	9158.9375
2516.52435	9146.6375
2519.25237	9125.0375
2521.97867	9105.8375
2524.70327	9143.9375
2527.42616	9103.6375
2530.14734	9123.1375
2532.86681	9108.4375
2535.58458	9107.7375
2538.30065	9091.0375
2541.01501	9116.5375
2543.72768	9080.0375
2546.43864	9101.0375
2549.14791	9072.8375
2551.85548	9056.0375
2554.56136	9044.0375
2557.26554	9047.8375
2559.96803	9057.6375
2562.66883	9171.1375
2565.36794	9045.6375
2568.06536	9030.0375
2570.7611	9017.1375
2573.45514	9018.9375
2576.14751	8998.7375
2578.83819	8977.4375
2581.52719	8996.0375
2584.21451	9024.2375
2586.90015	8996.9375
2589.58411	8976.0375
2592.2664	9009.7375
2594.94701	9012.2375
2597.62594	8989.6375
2600.30321	8976.1375
2602.9788	8954.1375
2605.65273	8981.0375
2608.32498	8973.2375
2610.99557	8962.3375
2613.66449	8975.2375
2616.33175	8984.2375
2618.99734	8991.5375
2621.66128	8997.2375
2624.32355	8976.2375
2626.98416	8969.9375
2629.64311	8989.7375
2632.30041	9008.6375
2634.95605	8995.4375
2637.61004	8969.3375
2640.26238	8958.5375
2642.91306	8954.3375
2645.56209	8935.7375
2648.20948	8918.7375
2650.85521	8929.0375
2653.4993	8915.7375
2656.14175	8923.1375
2658.78255	8914.4375
2661.42171	8931.7375
2664.05923	8957.4375
2666.6951	8942.5375
2669.32934	8948.1375
2671.96194	8963.0375
2674.59291	8968.5375
2677.22224	8986.1375
2679.84993	8963.3375
2682.476	8934.8375
2685.10043	8933.8375
2687.72324	8928.8375
2690.34441	8936.7375
2692.96396	8918.0375
2695.58188	8937.5375
2698.19818	8921.8375
2700.81285	8929.5375
2703.4259	8913.0375
2706.03733	8894.0375
2708.64714	8890.6375
2711.25533	8921.5375
2713.86191	8930.0375
2716.46687	8937.6375
2719.07021	8931.7375
2721.67194	8947.4375
2724.27206	8941.5375
2726.87057	8949.5375
2729.46747	8964.0375
2732.06276	8947.6375
2734.65644	8964.3375
2737.24852	8967.9375
2739.83899	8947.4375
2742.42786	8947.2375
2745.01513	8943.0375
2747.60079	8944.9375
2750.18486	8924.9375
2752.76733	8927.9375
2755.3482	8924.3375
2757.92747	8946.7375
2760.50515	8932.2375
2763.08123	8939.2375
2765.65573	8913.7375
2768.22863	8910.4375
2770.79994	8907.6375
2773.36967	8918.2375
2775.9378	8939.1375
2778.50435	8903.2375
2781.06932	8884.0375
2783.6327	8918.0375
2786.1945	8901.5375
2788.75471	8881.8375
2791.31335	8879.3375
2793.87041	8866.2375
2796.42589	8841.4375
2798.97979	8853.0375
2801.53212	8795.8375
2804.08288	8836.0375
2806.63206	8797.0375
2809.17967	8787.2375
2811.72571	8775.5375
2814.27018	8765.7375
2816.81308	8745.8375
2819.35442	8770.6375
2821.89419	8736.8375
2824.43239	8742.0375
2826.96904	8752.5375
2829.50412	8743.4375
2832.03763	8720.7375
2834.56959	8750.4375
2837.1	8715.7375
2839.62884	8727.0375
2842.15613	8714.4375
2844.68186	8739.4375
2847.20604	8745.1375
2849.72867	8746.1375
2852.24974	8740.0375
2854.76927	8740.3375
2857.28724	8724.3375
2859.80367	8703.9375
2862.31855	8702.8375
2864.83189	8692.5375
2867.34368	8662.5375
2869.85393	8699.8375
2872.36264	8683.7375
2874.8698	8679.2375
2877.37543	8681.8375
2879.87952	8675.1375
2882.38207	8681.1375
2884.88308	8679.0375
2887.38256	8702.8375
2889.88051	8682.8375
2892.37692	8674.5375
2894.8718	8654.2375
2897.36515	8691.4375
2899.85698	8703.9375
2902.34727	8722.5375
2904.83604	8712.5375
2907.32328	8708.9375
2909.809	8745.5375
2912.29319	8741.8375
2914.77587	8754.4375
2917.25702	8741.9375
2919.73665	8749.8375
2922.21476	8735.2375
2924.69136	8742.2375
2927.16644	8714.4375
2929.64	8726.3375
2932.11205	8713.7375
2934.58258	8675.6375
2937.05161	8682.5375
2939.51912	8698.7375
2941.98513	8669.9375
2944.44962	8615.1375
2946.91261	8610.1375
2949.37409	8638.3375
2951.83407	8622.7375
2954.29254	8617.2375
2956.74951	8604.6375
2959.20498	8586.4375
2961.65895	8593.9375
2964.11142	8596.3375
2966.56239	8570.8375
2969.01186	8551.1375
2971.45984	8538.6375
2973.90632	8548.6375
2976.35131	8521.7375
2978.7948	8507.2375
2981.23681	8483.6375
2983.67732	8484.5375
2986.11635	8465.4375
2988.55388	8439.2375
2990.98993	8417.1375
2993.4245	8408.8375
2995.85758	8397.1375
2998.28917	8387.0375
3000.71928	8363.2375
3003.14791	8357.5375
3005.57506	8360.8375
3008.00073	8331.2375
3010.42493	8327.6375
3012.84764	8298.3375
3015.26888	8317.6375
3017.68865	8310.1375
3020.10694	8265.7375
3022.52376	8240.7375
3024.9391	8246.9375
3027.35298	8237.3375
3029.76539	8256.8375
3032.17632	8226.3375
3034.5858	8243.8375
3036.9938	8195.2375
3039.40034	8209.7375
3041.80542	8214.6375
3044.20903	8190.3375
3046.61118	8197.6375
3049.01187	8174.2375
3051.4111	8187.9375
3053.80888	8142.0375
3056.20519	8150.2375
3058.60005	8113.5375
3060.99345	8105.3375
3063.3854	8092.9375
3065.7759	8064.2375
3068.16494	8053.1375
3070.55254	8039.8375
3072.93868	8024.8375
3075.32338	8004.6375
3077.70662	7981.2375
3080.08842	7974.3375
3082.46878	7985.5375
3084.84769	7963.2375
3087.22515	7959.9375
3089.60118	7936.8375
3091.97576	7938.2375
3094.3489	7955.1375
3096.72061	7954.8375
3099.09087	7951.0375
3101.4597	7958.4375
3103.82709	7947.2375
3106.19305	7930.2375
3108.55757	7950.9375
3110.92066	7913.8375
3113.28232	7904.3375
3115.64255	7887.7375
3118.00134	7885.3375
3120.35871	7885.3375
3122.71466	7844.1375
3125.06917	7859.1375
3127.42226	7830.2375
3129.77393	7833.8375
3132.12417	7822.0375
3134.47299	7811.3375
3136.82039	7830.0375
3139.16636	7818.5375
3141.51092	7836.7375
3143.85406	7847.5375
3146.19579	7854.0375
3148.53609	7847.3375
3150.87499	7863.1375
3153.21246	7855.5375
3155.54853	7868.5375
3157.88318	7849.7375
3160.21642	7866.2375
3162.54826	7869.1375
3164.87868	7861.0375
3167.2077	7857.6375
3169.5353	7868.1375
3171.86151	7880.1375
3174.18631	7879.1375
3176.5097	7849.1375
3178.83169	7853.6375
3181.15228	7852.7375
3183.47147	7830.9375
3185.78926	7837.8375
3188.10565	7829.4375
3190.42065	7843.2375
3192.73424	7828.9375
3195.04645	7827.9375
3197.35725	7861.9375
3199.66667	7836.2375
3201.97469	7861.4375
3204.28132	7852.7375
3206.58656	7866.9375
3208.8904	7878.6375
3211.19287	7877.4375
3213.49394	7873.4375
3215.79363	7869.0375
3218.09193	7864.4375
3220.38884	7883.3375
3222.68438	7882.5375
3224.97853	7882.9375
3227.2713	7869.7375
3229.56269	7865.3375
3231.8527	7888.0375
3234.14133	7841.3375
3236.42858	7828.5375
3238.71446	7835.6375
3240.99896	7822.0375
3243.28209	7820.2375
3245.56384	7803.9375
3247.84423	7801.2375
3250.12324	7796.7375
3252.40088	7786.6375
3254.67715	7788.5375
3256.95205	7790.6375
3259.22558	7792.2375
3261.49775	7764.8375
3263.76855	7783.5375
3266.03799	7761.3375
3268.30606	7752.5375
3270.57277	7754.2375
3272.83812	7739.1375
3275.10211	7701.7375
3277.36474	7705.8375
3279.62601	7712.2375
3281.88593	7675.9375
3284.14448	7711.0375
3286.40168	7704.7375
3288.65753	7699.4375
3290.91202	7693.9375
3293.16516	7685.7375
3295.41695	7645.8375
3297.66738	7602.9375
3299.91647	7595.8375
3302.16421	7512.0375
3304.4106	7504.3375
3306.65564	7478.6375
3308.89933	7441.9375
3311.14169	7397.7375
3313.38269	7322.5375
3315.62236	7294.7375
3317.86068	7205.6375
3320.09766	7182.2375
3322.3333	7135.7375
3324.5676	7103.1375
3326.80056	6999.3375
3329.03219	6972.1375
3331.26248	2.7375
3333.49143	-2.0625
3335.71905	-0.5625
