Data from AgNPs_FTO_APTES_UA_1uM_CRN_1uM_R6G_10uM_NaF_0.1M_Addition_RamanShift__22__12-37-49-507.txt Node

Date: Thu Jan 27 12:37:49 GMT 2022
User: TCL
Spectrometer: QEP01345
Trigger mode: 4
Integration Time (sec): 7.000000E0
Scans to average: 10
Electric dark correction enabled: true
Nonlinearity correction enabled: false
Boxcar width: 0
XAxis mode: Raman Shifts
Number of Pixels in Spectrum: 1044
>>>>>Begin Spectral Data<<<<<
46.04893	-0.1625
50.45542	0.8375
54.85868	-1.5625
59.25871	-1.2625
63.6555	63.8375
68.04907	65.5375
72.43941	68.9375
76.82654	70.7375
81.21044	76.5375
85.59113	74.4375
89.96862	77.2375
94.34289	83.4375
98.71396	83.3375
103.08183	85.0375
107.4465	90.3375
111.80798	91.8375
116.16626	94.1375
120.52136	97.6375
124.87327	102.7375
129.222	102.7375
133.56755	113.1375
137.90993	115.2375
142.24913	129.5375
146.58517	144.5375
150.91804	167.3375
155.24774	193.8375
159.57429	237.4375
163.89768	303.6375
168.21792	398.9375
172.53501	534.9375
176.84895	745.3375
181.15975	1044.2375
185.46741	1462.4375
189.77193	2021.2375
194.07331	2703.9375
198.37157	3487.7375
202.6667	4295.9375
206.9587	5141.8375
211.24758	5952.6375
215.53334	6777.0375
219.81599	7641.1375
224.09553	8646.2375
228.37195	9720.7375
232.64527	10907.8375
236.91549	12161.1375
241.18261	13420.6375
245.44663	14539.9375
249.70755	15489.6375
253.96539	16373.0375
258.22014	17105.1375
262.4718	17739.3375
266.72039	18236.0375
270.96589	18489.2375
275.20832	18559.5375
279.44768	18441.7375
283.68397	18217.4375
287.91719	18078.3375
292.14735	17922.0375
296.37445	17971.8375
300.59849	18176.7375
304.81948	18404.5375
309.03742	18545.0375
313.25231	18439.4375
317.46415	17917.3375
321.67296	17216.3375
325.87872	16663.6375
330.08145	16403.6375
334.28114	16409.2375
338.47781	16584.1375
342.67145	16902.9375
346.86207	17286.5375
351.04966	17804.5375
355.23424	18449.9375
359.4158	18999.0375
363.59435	19339.1375
367.76989	19573.3375
371.94243	19704.7375
376.11196	19755.6375
380.27849	19815.9375
384.44203	19874.0375
388.60257	19930.9375
392.76012	19963.8375
396.91468	20229.6375
401.06626	20654.6375
405.21485	20985.8375
409.36047	20856.0375
413.50311	20504.2375
417.64277	20073.6375
421.77947	19934.3375
425.9132	19950.8375
430.04396	20039.9375
434.17176	20118.6375
438.2966	20386.1375
442.41849	20818.4375
446.53742	21382.0375
450.6534	22095.7375
454.76644	22658.4375
458.87653	22836.8375
462.98368	22704.5375
467.08789	22318.6375
471.18916	21760.9375
475.2875	21274.4375
479.38291	20979.6375
483.4754	20737.7375
487.56496	20533.4375
491.6516	20313.8375
495.73531	20083.5375
499.81612	19991.7375
503.89401	20066.3375
507.96899	20154.4375
512.04106	20201.5375
516.11023	20265.3375
520.1765	20303.1375
524.23987	20253.4375
528.30034	20030.9375
532.35792	19795.6375
536.41261	19498.2375
540.46441	19265.4375
544.51333	19141.5375
548.55936	19328.6375
552.60252	19634.0375
556.64279	19998.3375
560.6802	20211.5375
564.71473	20264.3375
568.7464	20595.5375
572.7752	21017.7375
576.80114	21142.5375
580.82422	21260.0375
584.84444	21490.8375
588.86181	21770.0375
592.87633	22118.0375
596.888	22446.3375
600.89682	22792.3375
604.9028	23907.5375
608.90594	26881.8375
612.90624	30528.8375
616.90371	29434.0375
620.89834	23986.5375
624.89015	21468.8375
628.87913	21141.7375
632.86528	20974.2375
636.84862	20660.8375
640.82913	20271.3375
644.80683	19629.9375
648.78172	19195.6375
652.75379	19138.8375
656.72306	19477.9375
660.68952	19999.8375
664.65319	20050.7375
668.61405	19591.9375
672.57211	19350.3375
676.52738	19320.0375
680.47986	19249.7375
684.42955	19194.0375
688.37646	19223.7375
692.32058	19309.6375
696.26192	19431.3375
700.20048	19623.2375
704.13626	19767.5375
708.06928	19620.4375
711.99952	19426.7375
715.927	19374.6375
719.85171	19385.1375
723.77365	19344.4375
727.69284	19151.6375
731.60928	19039.1375
735.52295	18999.1375
739.43388	19071.2375
743.34206	19188.6375
747.24749	19319.1375
751.15017	19471.9375
755.05012	19779.2375
758.94733	20387.4375
762.8418	21415.8375
766.73354	23212.1375
770.62254	25205.2375
774.50882	25974.1375
778.39237	25023.0375
782.27321	22964.1375
786.15132	21142.5375
790.02671	20086.9375
793.89938	19596.3375
797.76935	19462.1375
801.6366	19354.9375
805.50115	19297.2375
809.36299	19164.8375
813.22213	19054.5375
817.07857	18999.9375
820.93231	18983.6375
824.78336	18955.5375
828.63172	19067.5375
832.47738	19115.9375
836.32036	19234.9375
840.16066	19358.8375
843.99827	19455.6375
847.8332	19422.8375
851.66546	19261.4375
855.49504	19185.9375
859.32195	19117.6375
863.1462	19063.6375
866.96777	18863.7375
870.78668	18813.1375
874.60293	18829.1375
878.41652	18825.5375
882.22745	18922.6375
886.03573	19008.6375
889.84136	18991.3375
893.64433	18878.8375
897.44466	18797.6375
901.24235	18762.8375
905.0374	18686.9375
908.8298	18674.6375
912.61957	18700.9375
916.40671	18839.6375
920.19121	19114.8375
923.97308	19401.4375
927.75233	19680.5375
931.52895	19775.2375
935.30295	19636.0375
939.07433	19214.2375
942.84309	18887.6375
946.60924	18710.6375
950.37278	18626.7375
954.13371	18482.3375
957.89203	18305.2375
961.64774	18191.1375
965.40086	18136.0375
969.15137	18034.8375
972.89929	17958.0375
976.64461	17946.3375
980.38733	18013.8375
984.12747	18140.0375
987.86502	18386.3375
991.59999	18763.5375
995.33237	19334.6375
999.06217	20210.6375
1002.78939	21194.9375
1006.51404	21743.6375
1010.23611	21889.0375
1013.95561	22061.5375
1017.67255	22069.5375
1021.38692	21807.8375
1025.09872	21746.6375
1028.80796	22215.3375
1032.51465	23401.2375
1036.21877	24450.4375
1039.92035	24496.4375
1043.61937	23803.2375
1047.31584	22690.2375
1051.00976	21529.9375
1054.70114	20821.0375
1058.38998	20585.1375
1062.07627	20517.8375
1065.76003	20447.0375
1069.44126	20456.4375
1073.11995	20623.8375
1076.79611	20851.8375
1080.46974	20978.2375
1084.14085	21167.8375
1087.80943	21454.0375
1091.47549	21553.0375
1095.13903	21354.1375
1098.80005	20906.2375
1102.45857	20516.7375
1106.11456	20275.3375
1109.76805	20352.3375
1113.41903	20545.5375
1117.06751	20788.6375
1120.71348	21094.4375
1124.35696	21373.1375
1127.99793	21670.5375
1131.63641	21772.4375
1135.2724	21478.2375
1138.90589	21100.5375
1142.5369	20800.3375
1146.16542	20605.7375
1149.79145	20537.1375
1153.415	20530.6375
1157.03607	20724.1375
1160.65467	21039.1375
1164.27079	21655.2375
1167.88443	22611.6375
1171.49561	24104.5375
1175.10432	26197.8375
1178.71056	28895.9375
1182.31434	31501.1375
1185.91565	32948.0375
1189.51451	32990.5375
1193.11091	31678.0375
1196.70485	29709.3375
1200.29634	27974.2375
1203.88538	26706.5375
1207.47197	25667.7375
1211.05612	24876.0375
1214.63782	24475.7375
1218.21708	24493.6375
1221.79391	24746.7375
1225.36829	25020.3375
1228.94024	25048.3375
1232.50976	24684.6375
1236.07685	24378.1375
1239.6415	24092.5375
1243.20374	23960.7375
1246.76355	24034.4375
1250.32093	24346.7375
1253.8759	24939.4375
1257.42845	25779.2375
1260.97859	26524.3375
1264.52631	27143.0375
1268.07163	27825.1375
1271.61453	28655.6375
1275.15503	29632.4375
1278.69312	30694.3375
1282.22882	31561.7375
1285.76211	32180.8375
1289.29301	32675.4375
1292.82151	33322.1375
1296.34761	34202.9375
1299.87133	35707.0375
1303.39266	37855.6375
1306.9116	40910.9375
1310.42815	44094.8375
1313.94233	46225.8375
1317.45412	46222.9375
1320.96354	44519.9375
1324.47058	42403.2375
1327.97525	40508.4375
1331.47754	39253.3375
1334.97747	38701.7375
1338.47502	38778.9375
1341.97022	39043.5375
1345.46305	39005.6375
1348.95352	38877.0375
1352.44163	38967.3375
1355.92738	40101.1375
1359.41078	42799.8375
1362.89183	45684.5375
1366.37053	45319.9375
1369.84688	41036.7375
1373.32088	35990.0375
1376.79254	32461.9375
1380.26186	30712.6375
1383.72883	30035.7375
1387.19347	29652.8375
1390.65578	29170.0375
1394.11575	28973.8375
1397.57339	29225.0375
1401.0287	29759.8375
1404.48168	30438.6375
1407.93234	30952.3375
1411.38068	31251.2375
1414.82669	31113.7375
1418.27039	30414.6375
1421.71177	29511.1375
1425.15083	28670.2375
1428.58758	28180.7375
1432.02203	28141.5375
1435.45416	28374.9375
1438.88399	28715.0375
1442.31151	28942.5375
1445.73673	29160.0375
1449.15965	29389.4375
1452.58027	29414.6375
1455.9986	29279.6375
1459.41463	29218.7375
1462.82837	29510.7375
1466.23982	30080.1375
1469.64898	30566.9375
1473.05586	30986.4375
1476.46045	31206.1375
1479.86276	31331.6375
1483.26279	31435.1375
1486.66054	31671.7375
1490.05602	32058.1375
1493.44922	32653.2375
1496.84016	33164.2375
1500.22882	33837.6375
1503.61521	34850.6375
1506.99934	36296.0375
1510.38121	37811.1375
1513.76081	38658.3375
1517.13816	37887.2375
1520.51324	35878.5375
1523.88607	33673.4375
1527.25665	32025.8375
1530.62498	30960.5375
1533.99105	30358.3375
1537.35488	29906.5375
1540.71647	29711.2375
1544.07581	29518.9375
1547.4329	29213.1375
1550.78776	28983.4375
1554.14038	28793.8375
1557.49077	28811.9375
1560.83892	28826.7375
1564.18484	28803.1375
1567.52853	28811.5375
1570.86999	28748.6375
1574.20922	28862.5375
1577.54624	28945.7375
1580.88103	28756.7375
1584.2136	28663.7375
1587.54395	29156.9375
1590.87208	30621.5375
1594.19801	32885.6375
1597.52172	35397.1375
1600.84321	36599.7375
1604.16251	35376.0375
1607.47959	32630.0375
1610.79447	29564.6375
1614.10715	26871.4375
1617.41763	24880.4375
1620.7259	23645.0375
1624.03199	23080.2375
1627.33587	23235.9375
1630.63757	24006.2375
1633.93707	25369.9375
1637.23439	27317.3375
1640.52951	29588.0375
1643.82246	31903.2375
1647.11321	33557.1375
1650.40179	33874.6375
1653.68819	32156.7375
1656.97241	28582.8375
1660.25446	24934.2375
1663.53433	22235.8375
1666.81203	20592.1375
1670.08756	19568.0375
1673.36092	18958.1375
1676.63211	18525.8375
1679.90115	18264.2375
1683.16801	18006.5375
1686.43272	17859.5375
1689.69527	17749.7375
1692.95567	17629.4375
1696.2139	17552.2375
1699.46999	17474.2375
1702.72392	17416.5375
1705.97571	17431.1375
1709.22535	17425.5375
1712.47284	17464.7375
1715.71819	17489.4375
1718.96139	17488.0375
1722.20246	17410.2375
1725.44139	17382.7375
1728.67818	17303.6375
1731.91284	17184.0375
1735.14537	17126.1375
1738.37576	17052.1375
1741.60403	17018.2375
1744.83017	16948.3375
1748.05418	16913.1375
1751.27607	16851.6375
1754.49584	16827.5375
1757.71349	16828.9375
1760.92903	16782.0375
1764.14244	16764.0375
1767.35375	16790.3375
1770.56294	16751.9375
1773.77002	16747.2375
1776.97499	16749.6375
1780.17785	16715.5375
1783.37861	16738.0375
1786.57727	16759.0375
1789.77382	16743.9375
1792.96828	16744.7375
1796.16064	16712.3375
1799.3509	16686.9375
1802.53907	16707.2375
1805.72514	16632.6375
1808.90913	16600.1375
1812.09102	16563.5375
1815.27083	16559.8375
1818.44856	16547.3375
1821.6242	16516.1375
1824.79776	16487.4375
1827.96924	16492.1375
1831.13864	16480.0375
1834.30597	16470.9375
1837.47122	16471.5375
1840.6344	16482.7375
1843.7955	16517.0375
1846.95454	16509.8375
1850.11151	16500.2375
1853.26642	16520.2375
1856.41926	16523.2375
1859.57004	16550.8375
1862.71876	16528.5375
1865.86542	16532.9375
1869.01003	16570.0375
1872.15258	16574.0375
1875.29308	16568.0375
1878.43152	16557.8375
1881.56792	16585.8375
1884.70227	16597.9375
1887.83457	16592.7375
1890.96482	16552.3375
1894.09304	16569.7375
1897.21921	16577.2375
1900.34335	16588.0375
1903.46544	16634.1375
1906.58551	16592.3375
1909.70353	16593.8375
1912.81953	16576.3375
1915.93349	16579.8375
1919.04543	16556.7375
1922.15534	16500.7375
1925.26322	16466.5375
1928.36908	16421.4375
1931.47292	16399.0375
1934.57473	16295.8375
1937.67453	16282.8375
1940.77232	16192.1375
1943.86808	16138.1375
1946.96184	16081.0375
1950.05358	16031.4375
1953.14331	15958.9375
1956.23103	15901.6375
1959.31675	15876.3375
1962.40046	15810.7375
1965.48217	15765.7375
1968.56188	15755.8375
1971.63959	15689.0375
1974.7153	15645.2375
1977.78901	15589.1375
1980.86073	15540.2375
1983.93046	15477.8375
1986.99819	15424.3375
1990.06394	15393.7375
1993.1277	15352.3375
1996.18947	15288.0375
1999.24925	15231.0375
2002.30706	15218.1375
2005.36288	15198.3375
2008.41672	15146.1375
2011.46859	15098.9375
2014.51848	15070.9375
2017.56639	15007.9375
2020.61233	15007.5375
2023.6563	14939.2375
2026.6983	14938.4375
2029.73833	14888.3375
2032.7764	14891.9375
2035.8125	14861.3375
2038.84664	14844.0375
2041.87881	14860.9375
2044.90903	14815.3375
2047.93729	14804.5375
2050.96359	14758.6375
2053.98794	14755.5375
2057.01034	14730.3375
2060.03078	14725.7375
2063.04927	14723.4375
2066.06582	14740.8375
2069.08042	14698.1375
2072.09307	14700.5375
2075.10378	14663.7375
2078.11255	14664.9375
2081.11938	14677.5375
2084.12426	14651.9375
2087.12722	14651.4375
2090.12824	14603.0375
2093.12732	14586.0375
2096.12447	14583.7375
2099.11969	14604.6375
2102.11299	14607.2375
2105.10435	14614.3375
2108.09379	14614.7375
2111.08131	14603.3375
2114.0669	14613.6375
2117.05057	14639.7375
2120.03233	14635.4375
2123.01216	14661.3375
2125.99008	14663.4375
2128.96609	14662.6375
2131.94018	14688.1375
2134.91236	14668.1375
2137.88263	14679.8375
2140.851	14693.4375
2143.81746	14698.5375
2146.78201	14731.9375
2149.74466	14724.8375
2152.7054	14756.8375
2155.66425	14723.3375
2158.6212	14717.9375
2161.57625	14726.8375
2164.52941	14734.7375
2167.48067	14708.7375
2170.43004	14674.0375
2173.37752	14690.9375
2176.32311	14733.2375
2179.26681	14727.2375
2182.20863	14684.6375
2185.14856	14737.1375
2188.08661	14742.3375
2191.02278	14750.6375
2193.95707	14753.8375
2196.88948	14752.3375
2199.82001	14774.1375
2202.74867	14769.0375
2205.67545	14755.4375
2208.60037	14765.5375
2211.52341	14742.6375
2214.44458	14760.0375
2217.36388	14711.5375
2220.28132	14704.2375
2223.1969	14694.4375
2226.11061	14660.8375
2229.02246	14655.2375
2231.93245	14632.7375
2234.84058	14591.7375
2237.74686	14550.7375
2240.65128	14538.2375
2243.55385	14540.2375
2246.45456	14493.7375
2249.35343	14484.3375
2252.25044	14469.4375
2255.14561	14427.2375
2258.03893	14404.7375
2260.93041	14374.1375
2263.82004	14364.6375
2266.70783	14362.8375
2269.59378	14300.7375
2272.4779	14252.4375
2275.36017	14247.9375
2278.24061	14217.0375
2281.11922	14197.0375
2283.996	14189.2375
2286.87094	14190.0375
2289.74405	14162.9375
2292.61534	14171.5375
2295.4848	14131.9375
2298.35243	14163.3375
2301.21824	14175.3375
2304.08223	14185.1375
2306.94439	14208.3375
2309.80474	14212.3375
2312.66327	14238.6375
2315.51999	14236.2375
2318.37489	14262.0375
2321.22797	14261.6375
2324.07925	14233.6375
2326.92871	14199.2375
2329.77637	14225.5375
2332.62222	14197.2375
2335.46626	14229.8375
2338.3085	14205.0375
2341.14893	14220.4375
2343.98756	14239.5375
2346.8244	14266.6375
2349.65943	14293.3375
2352.49267	14260.5375
2355.32411	14259.6375
2358.15376	14212.0375
2360.98161	14179.4375
2363.80768	14186.2375
2366.63195	14156.5375
2369.45444	14140.1375
2372.27514	14123.3375
2375.09405	14063.9375
2377.91118	14027.9375
2380.72652	13972.0375
2383.54009	13963.8375
2386.35187	13963.7375
2389.16188	13892.7375
2391.97011	13895.5375
2394.77657	13858.2375
2397.58125	13833.3375
2400.38416	13815.5375
2403.18529	13781.5375
2405.98466	13753.1375
2408.78226	13721.9375
2411.57809	13687.0375
2414.37216	13672.0375
2417.16446	13665.4375
2419.955	13645.2375
2422.74378	13649.8375
2425.5308	13643.1375
2428.31606	13589.7375
2431.09956	13589.7375
2433.88131	13570.0375
2436.6613	13579.3375
2439.43954	13578.8375
2442.21603	13576.4375
2444.99077	13601.2375
2447.76377	13562.1375
2450.53501	13583.0375
2453.30451	13562.4375
2456.07226	13566.8375
2458.83827	13532.7375
2461.60254	13546.9375
2464.36507	13560.6375
2467.12586	13549.9375
2469.88492	13550.2375
2472.64224	13581.3375
2475.39782	13589.9375
2478.15167	13595.7375
2480.90379	13607.2375
2483.65417	13616.9375
2486.40283	13629.0375
2489.14976	13656.3375
2491.89497	13622.0375
2494.63845	13657.5375
2497.3802	13644.7375
2500.12024	13653.7375
2502.85855	13635.7375
2505.59514	13638.5375
2508.33002	13615.5375
2511.06318	13579.9375
2513.79462	13554.9375
2516.52435	13538.9375
2519.25237	13531.7375
2521.97867	13516.7375
2524.70327	13536.1375
2527.42616	13503.3375
2530.14734	13488.5375
2532.86681	13487.2375
2535.58458	13484.5375
2538.30065	13476.8375
2541.01501	13515.6375
2543.72768	13475.9375
2546.43864	13513.6375
2549.14791	13472.3375
2551.85548	13459.3375
2554.56136	13431.5375
2557.26554	13418.5375
2559.96803	13413.5375
2562.66883	13380.8375
2565.36794	13397.8375
2568.06536	13368.2375
2570.7611	13363.8375
2573.45514	13363.0375
2576.14751	13372.7375
2578.83819	13360.6375
2581.52719	13363.2375
2584.21451	13386.8375
2586.90015	13372.2375
2589.58411	13354.0375
2592.2664	13342.5375
2594.94701	13355.2375
2597.62594	13340.3375
2600.30321	13362.0375
2602.9788	13309.6375
2605.65273	13340.4375
2608.32498	13311.8375
2610.99557	13348.5375
2613.66449	13339.6375
2616.33175	13338.1375
2618.99734	13344.4375
2621.66128	13315.8375
2624.32355	13344.3375
2626.98416	13349.4375
2629.64311	13343.0375
2632.30041	13372.9375
2634.95605	13349.2375
2637.61004	13306.9375
2640.26238	13255.6375
2642.91306	13247.4375
2645.56209	13256.6375
2648.20948	13228.1375
2650.85521	13225.4375
2653.4993	13211.5375
2656.14175	13211.8375
2658.78255	13214.6375
2661.42171	13218.1375
2664.05923	13256.4375
2666.6951	13242.4375
2669.32934	13258.2375
2671.96194	13268.9375
2674.59291	13285.1375
2677.22224	13280.4375
2679.84993	13298.8375
2682.476	13233.4375
2685.10043	13255.8375
2687.72324	13204.8375
2690.34441	13214.0375
2692.96396	13189.9375
2695.58188	13203.7375
2698.19818	13194.7375
2700.81285	13155.9375
2703.4259	13152.1375
2706.03733	13157.1375
2708.64714	13146.1375
2711.25533	13159.0375
2713.86191	13174.9375
2716.46687	13205.5375
2719.07021	13192.6375
2721.67194	13207.1375
2724.27206	13185.5375
2726.87057	13212.7375
2729.46747	13220.9375
2732.06276	13204.9375
2734.65644	13192.5375
2737.24852	13190.1375
2739.83899	13186.9375
2742.42786	13203.9375
2745.01513	13177.4375
2747.60079	13165.2375
2750.18486	13157.3375
2752.76733	13158.5375
2755.3482	13153.3375
2757.92747	13165.1375
2760.50515	13157.4375
2763.08123	13150.9375
2765.65573	13160.6375
2768.22863	13148.7375
2770.79994	13150.2375
2773.36967	13154.6375
2775.9378	13153.8375
2778.50435	13167.5375
2781.06932	13132.3375
2783.6327	13126.9375
2786.1945	13127.8375
2788.75471	13111.6375
2791.31335	13079.0375
2793.87041	13094.3375
2796.42589	13043.6375
2798.97979	13044.3375
2801.53212	13011.4375
2804.08288	12992.1375
2806.63206	12994.6375
2809.17967	12928.5375
2811.72571	12933.6375
2814.27018	12932.3375
2816.81308	12894.5375
2819.35442	12891.4375
2821.89419	12885.7375
2824.43239	12870.2375
2826.96904	12878.1375
2829.50412	12889.1375
2832.03763	12886.2375
2834.56959	12874.0375
2837.1	12884.9375
2839.62884	12881.5375
2842.15613	12863.8375
2844.68186	12896.0375
2847.20604	12901.4375
2849.72867	12885.0375
2852.24974	12877.1375
2854.76927	12861.6375
2857.28724	12856.8375
2859.80367	12820.2375
2862.31855	12829.7375
2864.83189	12816.1375
2867.34368	12791.7375
2869.85393	12772.0375
2872.36264	12781.1375
2874.8698	12792.9375
2877.37543	12785.3375
2879.87952	12783.2375
2882.38207	12805.0375
2884.88308	12780.3375
2887.38256	12802.8375
2889.88051	12790.2375
2892.37692	12798.2375
2894.8718	12828.4375
2897.36515	12838.8375
2899.85698	12840.5375
2902.34727	12856.8375
2904.83604	12882.2375
2907.32328	12894.7375
2909.809	12884.9375
2912.29319	12914.1375
2914.77587	12875.8375
2917.25702	12860.0375
2919.73665	12846.3375
2922.21476	12864.8375
2924.69136	12836.3375
2927.16644	12831.2375
2929.64	12809.3375
2932.11205	12780.4375
2934.58258	12760.0375
2937.05161	12786.8375
2939.51912	12748.0375
2941.98513	12747.3375
2944.44962	12713.5375
2946.91261	12688.6375
2949.37409	12697.1375
2951.83407	12679.4375
2954.29254	12661.1375
2956.74951	12653.0375
2959.20498	12641.6375
2961.65895	12615.9375
2964.11142	12640.5375
2966.56239	12580.2375
2969.01186	12558.9375
2971.45984	12530.6375
2973.90632	12503.9375
2976.35131	12488.8375
2978.7948	12460.1375
2981.23681	12436.4375
2983.67732	12415.8375
2986.11635	12376.2375
2988.55388	12330.6375
2990.98993	12296.2375
2993.4245	12276.2375
2995.85758	12270.1375
2998.28917	12226.5375
3000.71928	12227.3375
3003.14791	12191.4375
3005.57506	12182.1375
3008.00073	12131.1375
3010.42493	12163.2375
3012.84764	12144.6375
3015.26888	12118.8375
3017.68865	12062.9375
3020.10694	12064.0375
3022.52376	12050.5375
3024.9391	12065.4375
3027.35298	12043.5375
3029.76539	12007.3375
3032.17632	11999.7375
3034.5858	11983.2375
3036.9938	11950.5375
3039.40034	11973.2375
3041.80542	11970.1375
3044.20903	11939.0375
3046.61118	11903.4375
3049.01187	11948.2375
3051.4111	11888.9375
3053.80888	11862.3375
3056.20519	11875.0375
3058.60005	11827.7375
3060.99345	11801.6375
3063.3854	11757.3375
3065.7759	11731.4375
3068.16494	11710.6375
3070.55254	11676.4375
3072.93868	11652.8375
3075.32338	11623.5375
3077.70662	11610.8375
3080.08842	11572.3375
3082.46878	11572.5375
3084.84769	11552.6375
3087.22515	11521.3375
3089.60118	11561.0375
3091.97576	11534.0375
3094.3489	11535.7375
3096.72061	11545.6375
3099.09087	11532.6375
3101.4597	11511.7375
3103.82709	11537.2375
3106.19305	11516.1375
3108.55757	11494.7375
3110.92066	11468.4375
3113.28232	11448.0375
3115.64255	11386.4375
3118.00134	11426.3375
3120.35871	11415.6375
3122.71466	11373.0375
3125.06917	11397.8375
3127.42226	11358.9375
3129.77393	11342.0375
3132.12417	11332.2375
3134.47299	11329.7375
3136.82039	11315.7375
3139.16636	11304.7375
3141.51092	11307.1375
3143.85406	11323.5375
3146.19579	11305.0375
3148.53609	11335.6375
3150.87499	11353.9375
3153.21246	11363.4375
3155.54853	11378.9375
3157.88318	11347.2375
3160.21642	11350.6375
3162.54826	11341.5375
3164.87868	11337.8375
3167.2077	11324.9375
3169.5353	11329.6375
3171.86151	11315.5375
3174.18631	11346.4375
3176.5097	11324.7375
3178.83169	11321.6375
3181.15228	11306.8375
3183.47147	11270.2375
3185.78926	11261.0375
3188.10565	11283.1375
3190.42065	11253.3375
3192.73424	11271.4375
3195.04645	11260.5375
3197.35725	11248.4375
3199.66667	11264.6375
3201.97469	11287.4375
3204.28132	11273.0375
3206.58656	11277.0375
3208.8904	11314.4375
3211.19287	11299.6375
3213.49394	11327.0375
3215.79363	11326.8375
3218.09193	11317.0375
3220.38884	11273.3375
3222.68438	11298.2375
3224.97853	11288.2375
3227.2713	11288.9375
3229.56269	11275.4375
3231.8527	11287.2375
3234.14133	11247.6375
3236.42858	11207.1375
3238.71446	11216.4375
3240.99896	11218.8375
3243.28209	11198.2375
3245.56384	11198.4375
3247.84423	11186.6375
3250.12324	11192.5375
3252.40088	11184.6375
3254.67715	11177.1375
3256.95205	11171.9375
3259.22558	11190.5375
3261.49775	11156.9375
3263.76855	11157.0375
3266.03799	11108.3375
3268.30606	11093.2375
3270.57277	11074.5375
3272.83812	11084.9375
3275.10211	11034.9375
3277.36474	11024.0375
3279.62601	11010.4375
3281.88593	11020.3375
3284.14448	11030.3375
3286.40168	11051.1375
3288.65753	11044.2375
3290.91202	11014.5375
3293.16516	10985.0375
3295.41695	10957.7375
3297.66738	10888.3375
3299.91647	10842.2375
3302.16421	10804.3375
3304.4106	10772.7375
3306.65564	10724.2375
3308.89933	10664.6375
3311.14169	10586.9375
3313.38269	10500.4375
3315.62236	10447.8375
3317.86068	10341.9375
3320.09766	10276.0375
3322.3333	10225.1375
3324.5676	10208.9375
3326.80056	10042.4375
3329.03219	9996.5375
3331.26248	4.6375
3333.49143	-1.1625
3335.71905	0.1375
