Data from AgNPs_FTO_APTES_UA_1uM_CRN_10uM_R6G_20uM_NaF_0.1M_Addition_RamanShift__6__15-04-49-676.txt Node

Date: Thu Jan 27 15:04:49 GMT 2022
User: TCL
Spectrometer: QEP01345
Trigger mode: 4
Integration Time (sec): 7.000000E0
Scans to average: 10
Electric dark correction enabled: true
Nonlinearity correction enabled: false
Boxcar width: 0
XAxis mode: Raman Shifts
Number of Pixels in Spectrum: 1044
>>>>>Begin Spectral Data<<<<<
46.04893	1.9
50.45542	0.6
54.85868	-1.5
59.25871	-2.1
63.6555	46.6
68.04907	48.6
72.43941	49.8
76.82654	58.8
81.21044	57.3
85.59113	61.9
89.96862	59.4
94.34289	60.9
98.71396	69
103.08183	66.6
107.4465	73.8
111.80798	74.9
116.16626	73.2
120.52136	78
124.87327	78
129.222	80.5
133.56755	82.7
137.90993	91.6
142.24913	99.9
146.58517	111.6
150.91804	130.1
155.24774	147.7
159.57429	180.5
163.89768	225.6
168.21792	296.6
172.53501	401.7
176.84895	553
181.15975	779.9
185.46741	1078.1
189.77193	1485.2
194.07331	2000.1
198.37157	2574.7
202.6667	3178.4
206.9587	3797.3
211.24758	4371.4
215.53334	4984.6
219.81599	5586.9
224.09553	6254.7
228.37195	7002.3
232.64527	7822.9
236.91549	8714.2
241.18261	9575.1
245.44663	10411.9
249.70755	11161.9
253.96539	11851.1
258.22014	12398
262.4718	12875.8
266.72039	13196.7
270.96589	13360.6
275.20832	13367.6
279.44768	13325.1
283.68397	13200.7
287.91719	13060
292.14735	12989.2
296.37445	12955.6
300.59849	12954.5
304.81948	13011.6
309.03742	12993.8
313.25231	12931.8
317.46415	12769.1
321.67296	12556.6
325.87872	12397.6
330.08145	12284.5
334.28114	12270.4
338.47781	12334.9
342.67145	12441.8
346.86207	12651.5
351.04966	12836.7
355.23424	13023.2
359.4158	13231.7
363.59435	13366.1
367.76989	13495.4
371.94243	13546.1
376.11196	13646.8
380.27849	13692.4
384.44203	13758.2
388.60257	13840.7
392.76012	13984
396.91468	14172.6
401.06626	14370.8
405.21485	14493.7
409.36047	14470.4
413.50311	14343.6
417.64277	14294.2
421.77947	14348
425.9132	14436.8
430.04396	14515.7
434.17176	14571.1
438.2966	14638.3
442.41849	14799.4
446.53742	15121.3
450.6534	15463.8
454.76644	15683.7
458.87653	15761.9
462.98368	15680.7
467.08789	15540.8
471.18916	15355.3
475.2875	15163.1
479.38291	15030.8
483.4754	14932.3
487.56496	14786.7
491.6516	14649.4
495.73531	14481.1
499.81612	14432.4
503.89401	14526.9
507.96899	14604.6
512.04106	14589.4
516.11023	14522.9
520.1765	14382.4
524.23987	14255.6
528.30034	14153.6
532.35792	14062.7
536.41261	13931.4
540.46441	13801.4
544.51333	13807
548.55936	13921.5
552.60252	14130
556.64279	14398
560.6802	14604.5
564.71473	14715.5
568.7464	14895.1
572.7752	15179.5
576.80114	15576.1
580.82422	16056.7
584.84444	16645.1
588.86181	17374.7
592.87633	17975.9
596.888	17930.2
600.89682	17202.2
604.9028	16795.1
608.90594	17369.6
612.90624	18136.8
616.90371	17272.6
620.89834	15225.2
624.89015	14270.5
628.87913	14174.8
632.86528	14280.4
636.84862	14255.8
640.82913	14062.5
644.80683	13806.6
648.78172	13676.7
652.75379	13686.3
656.72306	13783.5
660.68952	13946.4
664.65319	13866.2
668.61405	13695.3
672.57211	13678.2
676.52738	13751.9
680.47986	13737.1
684.42955	13668
688.37646	13587.5
692.32058	13643.5
696.26192	13820.2
700.20048	13983.2
704.13626	14077.3
708.06928	14096.3
711.99952	14075.1
715.927	14056.7
719.85171	14101.1
723.77365	14057.8
727.69284	13871
731.60928	13677.4
735.52295	13612.3
739.43388	13601.2
743.34206	13664.3
747.24749	13744.1
751.15017	13833.4
755.05012	14042.7
758.94733	14357.3
762.8418	14854.5
766.73354	15601.3
770.62254	16267.9
774.50882	16382.5
778.39237	15857.9
782.27321	15057.9
786.15132	14386.1
790.02671	13966.3
793.89938	13752.3
797.76935	13679.7
801.6366	13648.1
805.50115	13577.5
809.36299	13532.9
813.22213	13447.7
817.07857	13429.7
820.93231	13371.3
824.78336	13305.6
828.63172	13291.7
832.47738	13251.4
836.32036	13254.6
840.16066	13257.2
843.99827	13263
847.8332	13258.6
851.66546	13214.5
855.49504	13265.3
859.32195	13228.2
863.1462	13240.1
866.96777	13184.3
870.78668	13206.7
874.60293	13198.3
878.41652	13221.6
882.22745	13250.5
886.03573	13297.5
889.84136	13273.8
893.64433	13260
897.44466	13204.2
901.24235	13164.3
905.0374	13140.7
908.8298	13103.5
912.61957	13111.4
916.40671	13200
920.19121	13340.6
923.97308	13492.1
927.75233	13493.2
931.52895	13402.3
935.30295	13200.6
939.07433	13028.9
942.84309	12913.3
946.60924	12788.1
950.37278	12782.5
954.13371	12798.9
957.89203	12765.2
961.64774	12759.9
965.40086	12742.1
969.15137	12705.9
972.89929	12688.1
976.64461	12634.2
980.38733	12647.1
984.12747	12679.6
987.86502	12700.6
991.59999	12793.7
995.33237	12891
999.06217	13019
1002.78939	13282.5
1006.51404	13516.6
1010.23611	13695.1
1013.95561	13814
1017.67255	13875.6
1021.38692	13776
1025.09872	13590.1
1028.80796	13419.8
1032.51465	13499.1
1036.21877	13594.4
1039.92035	13638
1043.61937	13635.1
1047.31584	13580.8
1051.00976	13507.9
1054.70114	13461.7
1058.38998	13517.1
1062.07627	13614.8
1065.76003	13730
1069.44126	13899
1073.11995	14084.3
1076.79611	14264.7
1080.46974	14333.6
1084.14085	14396.4
1087.80943	14510.6
1091.47549	14549.3
1095.13903	14613.1
1098.80005	14431.6
1102.45857	14165.7
1106.11456	13960.3
1109.76805	13842.7
1113.41903	13807.6
1117.06751	13849.5
1120.71348	13952.6
1124.35696	14075.3
1127.99793	14178.4
1131.63641	14289.2
1135.2724	14238.1
1138.90589	14196
1142.5369	14207.4
1146.16542	14317.6
1149.79145	14410
1153.415	14481.8
1157.03607	14605.5
1160.65467	14915
1164.27079	15482.3
1167.88443	16164.4
1171.49561	16888.7
1175.10432	17651.4
1178.71056	18707.4
1182.31434	19705.7
1185.91565	20177.8
1189.51451	20143.1
1193.11091	19816.9
1196.70485	19292.8
1200.29634	18771.6
1203.88538	18375.1
1207.47197	18192.1
1211.05612	18008.3
1214.63782	17765.4
1218.21708	17311.8
1221.79391	16855.9
1225.36829	16529.9
1228.94024	16322.2
1232.50976	16185.2
1236.07685	15998.5
1239.6415	15887.4
1243.20374	15867.3
1246.76355	15961.9
1250.32093	16200.5
1253.8759	16431.1
1257.42845	16772.2
1260.97859	17174.6
1264.52631	17570.7
1268.07163	17994.3
1271.61453	18396.3
1275.15503	18814.1
1278.69312	19267.8
1282.22882	19694.1
1285.76211	20323.8
1289.29301	21021.2
1292.82151	21875.3
1296.34761	22849.1
1299.87133	24088.6
1303.39266	25306.9
1306.9116	26362.6
1310.42815	27165
1313.94233	27439.6
1317.45412	27210
1320.96354	26733.6
1324.47058	26304.7
1327.97525	26082.8
1331.47754	25907.9
1334.97747	25799.5
1338.47502	25591.7
1341.97022	25387
1345.46305	25065.1
1348.95352	24780.8
1352.44163	24783.8
1355.92738	25141.7
1359.41078	26000.5
1362.89183	26674.6
1366.37053	26396.3
1369.84688	24727.3
1373.32088	22406.5
1376.79254	20703.5
1380.26186	20054
1383.72883	20061.3
1387.19347	20131.2
1390.65578	19942.9
1394.11575	19775.4
1397.57339	19877.3
1401.0287	20159.6
1404.48168	20456.6
1407.93234	20494.1
1411.38068	20149.9
1414.82669	19633.9
1418.27039	18971.3
1421.71177	18307.6
1425.15083	17740.3
1428.58758	17495.8
1432.02203	17588.3
1435.45416	18004.8
1438.88399	18515.4
1442.31151	18882.1
1445.73673	19064.3
1449.15965	19186.5
1452.58027	19171.1
1455.9986	19099.4
1459.41463	19127.2
1462.82837	19353.4
1466.23982	19678.5
1469.64898	20017.8
1473.05586	20248.2
1476.46045	20297.9
1479.86276	20207.4
1483.26279	20047.3
1486.66054	19930.4
1490.05602	19974.5
1493.44922	20161.5
1496.84016	20395
1500.22882	20663.1
1503.61521	21028.7
1506.99934	21453.7
1510.38121	21855
1513.76081	21900.7
1517.13816	21604.3
1520.51324	21149.2
1523.88607	20800.5
1527.25665	20697
1530.62498	20722.9
1533.99105	20652.4
1537.35488	20365.8
1540.71647	19999.5
1544.07581	19487.3
1547.4329	18994.8
1550.78776	18552.1
1554.14038	18221.9
1557.49077	18105.8
1560.83892	18004.5
1564.18484	17952.5
1567.52853	17957.3
1570.86999	18112.6
1574.20922	18434.4
1577.54624	18681.5
1580.88103	18850.2
1584.2136	19054.8
1587.54395	19525.8
1590.87208	20376
1594.19801	21530.2
1597.52172	22538.9
1600.84321	22840.1
1604.16251	21941.2
1607.47959	20369.6
1610.79447	18731.4
1614.10715	17282.4
1617.41763	16136.5
1620.7259	15367
1624.03199	14995.7
1627.33587	14972.9
1630.63757	15332.7
1633.93707	16112.1
1637.23439	17483.6
1640.52951	19568.8
1643.82246	22037.6
1647.11321	24037.3
1650.40179	24469.6
1653.68819	22781.8
1656.97241	19945.4
1660.25446	17218.6
1663.53433	15232.3
1666.81203	14020.6
1670.08756	13262.8
1673.36092	12793.4
1676.63211	12497.8
1679.90115	12265.2
1683.16801	12121.7
1686.43272	11994
1689.69527	11877.9
1692.95567	11810.6
1696.2139	11717.3
1699.46999	11619.7
1702.72392	11570.4
1705.97571	11598.3
1709.22535	11618.4
1712.47284	11589.2
1715.71819	11593.2
1718.96139	11605.3
1722.20246	11554.9
1725.44139	11515.9
1728.67818	11483.6
1731.91284	11401.9
1735.14537	11349.7
1738.37576	11309.2
1741.60403	11254.9
1744.83017	11203.3
1748.05418	11163.9
1751.27607	11161.2
1754.49584	11138.1
1757.71349	11082.2
1760.92903	11055.5
1764.14244	11060.2
1767.35375	11028.7
1770.56294	11040.7
1773.77002	11032.5
1776.97499	11023.9
1780.17785	11037.1
1783.37861	11049.2
1786.57727	11031.6
1789.77382	11015.8
1792.96828	11002.1
1796.16064	10948.2
1799.3509	10949.4
1802.53907	10933.4
1805.72514	10903.6
1808.90913	10871.8
1812.09102	10850.1
1815.27083	10842.2
1818.44856	10813.3
1821.6242	10799.2
1824.79776	10786.1
1827.96924	10802.1
1831.13864	10741
1834.30597	10768.8
1837.47122	10759
1840.6344	10745
1843.7955	10754.3
1846.95454	10759.7
1850.11151	10765
1853.26642	10742.4
1856.41926	10746.2
1859.57004	10764
1862.71876	10707
1865.86542	10733.9
1869.01003	10715.6
1872.15258	10694.2
1875.29308	10683
1878.43152	10661.1
1881.56792	10625
1884.70227	10615.8
1887.83457	10594.8
1890.96482	10593.1
1894.09304	10578
1897.21921	10586.8
1900.34335	10549
1903.46544	10557.9
1906.58551	10558.5
1909.70353	10521.9
1912.81953	10491.2
1915.93349	10492.8
1919.04543	10463.5
1922.15534	10451.3
1925.26322	10431
1928.36908	10401.2
1931.47292	10380.6
1934.57473	10349.5
1937.67453	10330.4
1940.77232	10328.5
1943.86808	10294.2
1946.96184	10253.3
1950.05358	10215.7
1953.14331	10202.3
1956.23103	10183.4
1959.31675	10185.1
1962.40046	10134.1
1965.48217	10110.2
1968.56188	10064.3
1971.63959	10055.3
1974.7153	10021.7
1977.78901	9966.7
1980.86073	9945.6
1983.93046	9928.6
1986.99819	9893.6
1990.06394	9835.8
1993.1277	9828.2
1996.18947	9813.7
1999.24925	9776.2
2002.30706	9738.7
2005.36288	9720.1
2008.41672	9695.4
2011.46859	9670
2014.51848	9660.6
2017.56639	9613.5
2020.61233	9607.3
2023.6563	9608.2
2026.6983	9548.1
2029.73833	9523.5
2032.7764	9531.9
2035.8125	9504.6
2038.84664	9494.6
2041.87881	9469.1
2044.90903	9448.4
2047.93729	9408.3
2050.96359	9400
2053.98794	9391.5
2057.01034	9387
2060.03078	9379
2063.04927	9381.9
2066.06582	9403.2
2069.08042	9368.8
2072.09307	9368.3
2075.10378	9348.4
2078.11255	9369.4
2081.11938	9349.8
2084.12426	9343.9
2087.12722	9345.4
2090.12824	9360.4
2093.12732	9345.6
2096.12447	9329.3
2099.11969	9353.9
2102.11299	9344.4
2105.10435	9365.8
2108.09379	9355.4
2111.08131	9361.3
2114.0669	9354.3
2117.05057	9377.8
2120.03233	9364.1
2123.01216	9360.6
2125.99008	9389.7
2128.96609	9410
2131.94018	9387.7
2134.91236	9398.7
2137.88263	9405.8
2140.851	9413.8
2143.81746	9393.4
2146.78201	9410
2149.74466	9409.5
2152.7054	9442
2155.66425	9423.3
2158.6212	9419.9
2161.57625	9394.6
2164.52941	9399.9
2167.48067	9405.9
2170.43004	9409.3
2173.37752	9384.6
2176.32311	9406.3
2179.26681	9405.3
2182.20863	9399.9
2185.14856	9384.7
2188.08661	9400.3
2191.02278	9412.6
2193.95707	9379
2196.88948	9398.9
2199.82001	9379.7
2202.74867	9367
2205.67545	9362.4
2208.60037	9339
2211.52341	9334
2214.44458	9306.7
2217.36388	9302.3
2220.28132	9276.4
2223.1969	9264.3
2226.11061	9263.8
2229.02246	9232
2231.93245	9238.7
2234.84058	9198.5
2237.74686	9194.2
2240.65128	9209.6
2243.55385	9175.1
2246.45456	9160.4
2249.35343	9166.9
2252.25044	9129.9
2255.14561	9119.4
2258.03893	9118.3
2260.93041	9085.3
2263.82004	9059.5
2266.70783	9035.9
2269.59378	9017.6
2272.4779	9000.6
2275.36017	8985.2
2278.24061	8956.7
2281.11922	8976
2283.996	8962.2
2286.87094	8933.2
2289.74405	8912.1
2292.61534	8917.1
2295.4848	8894.2
2298.35243	8891.5
2301.21824	8896.2
2304.08223	8883.4
2306.94439	8909.4
2309.80474	8877
2312.66327	8875.4
2315.51999	8887.2
2318.37489	8866.5
2321.22797	8876.3
2324.07925	8851
2326.92871	8816.6
2329.77637	8829.9
2332.62222	8816
2335.46626	8787.9
2338.3085	8773.5
2341.14893	8785.3
2343.98756	8785.7
2346.8244	8793
2349.65943	8755.2
2352.49267	8763.8
2355.32411	8738.8
2358.15376	8740.2
2360.98161	8757.6
2363.80768	8741.7
2366.63195	8748.9
2369.45444	8716.6
2372.27514	8730.8
2375.09405	8711.4
2377.91118	8694.1
2380.72652	8679
2383.54009	8642.7
2386.35187	8653.3
2389.16188	8608.2
2391.97011	8606
2394.77657	8599.7
2397.58125	8581.4
2400.38416	8564.7
2403.18529	8544.5
2405.98466	8546.1
2408.78226	8560.3
2411.57809	8528.6
2414.37216	8508
2417.16446	8533.9
2419.955	8508.8
2422.74378	8486.4
2425.5308	8486.9
2428.31606	8502.5
2431.09956	8488.4
2433.88131	8471.4
2436.6613	8483.2
2439.43954	8460.2
2442.21603	8467.7
2444.99077	8442.3
2447.76377	8456.4
2450.53501	8454
2453.30451	8436
2456.07226	8425.8
2458.83827	8430.4
2461.60254	8434.5
2464.36507	8407.1
2467.12586	8407.7
2469.88492	8400.3
2472.64224	8401.6
2475.39782	8402.2
2478.15167	8408.6
2480.90379	8400.3
2483.65417	8399
2486.40283	8401.6
2489.14976	8418.6
2491.89497	8387.4
2494.63845	8384.1
2497.3802	8381.4
2500.12024	8390.3
2502.85855	8388.9
2505.59514	8364.6
2508.33002	8373.2
2511.06318	8352.8
2513.79462	8356.2
2516.52435	8349.4
2519.25237	8342.6
2521.97867	8317.7
2524.70327	8335.5
2527.42616	8310
2530.14734	8310.6
2532.86681	8293.8
2535.58458	8290.7
2538.30065	8279.1
2541.01501	8273.1
2543.72768	8282.3
2546.43864	8272.2
2549.14791	8240.8
2551.85548	8239.5
2554.56136	8227
2557.26554	8229.2
2559.96803	8214.5
2562.66883	8209.7
2565.36794	8189.9
2568.06536	8194.7
2570.7611	8191.1
2573.45514	8165.2
2576.14751	8158
2578.83819	8159
2581.52719	8149.5
2584.21451	8155
2586.90015	8135.2
2589.58411	8106.2
2592.2664	8135.4
2594.94701	8092.3
2597.62594	8096.5
2600.30321	8076.5
2602.9788	8092.2
2605.65273	8078
2608.32498	8071.6
2610.99557	8066.5
2613.66449	8066.3
2616.33175	8070.5
2618.99734	8059.5
2621.66128	8045.6
2624.32355	8027.2
2626.98416	8040.8
2629.64311	8019.7
2632.30041	8039.4
2634.95605	7992
2637.61004	7983.4
2640.26238	7983.1
2642.91306	8002.5
2645.56209	7997.1
2648.20948	8003.5
2650.85521	7979.5
2653.4993	7984.3
2656.14175	7974.8
2658.78255	8013.7
2661.42171	8012.9
2664.05923	8003
2666.6951	8019.6
2669.32934	8004.7
2671.96194	7986.6
2674.59291	8009.6
2677.22224	8006.7
2679.84993	8012.2
2682.476	7979.6
2685.10043	7985.4
2687.72324	7985.6
2690.34441	7981.5
2692.96396	7975
2695.58188	8003.4
2698.19818	7976
2700.81285	7975.8
2703.4259	7980.9
2706.03733	7964.5
2708.64714	7955
2711.25533	7986
2713.86191	7989.4
2716.46687	8006.7
2719.07021	7994.8
2721.67194	8014.5
2724.27206	8021.6
2726.87057	8016.1
2729.46747	8014.5
2732.06276	8026.4
2734.65644	8007.6
2737.24852	8016.9
2739.83899	8009
2742.42786	8018.7
2745.01513	7988.9
2747.60079	7996.1
2750.18486	7981.4
2752.76733	7982.6
2755.3482	7992.1
2757.92747	7999.4
2760.50515	7974.2
2763.08123	7959.1
2765.65573	7933.3
2768.22863	7967.2
2770.79994	7951.9
2773.36967	7938.7
2775.9378	7951.8
2778.50435	7941.7
2781.06932	7925
2783.6327	7926.9
2786.1945	7916.5
2788.75471	7901.1
2791.31335	7899.2
2793.87041	7887
2796.42589	7883.6
2798.97979	7860.1
2801.53212	7863.7
2804.08288	7834.4
2806.63206	7809.2
2809.17967	7808.9
2811.72571	7766.6
2814.27018	7772.2
2816.81308	7786
2819.35442	7742
2821.89419	7752
2824.43239	7733.8
2826.96904	7747.7
2829.50412	7742.9
2832.03763	7714.8
2834.56959	7731.9
2837.1	7728.2
2839.62884	7712.1
2842.15613	7689.5
2844.68186	7717.6
2847.20604	7718.7
2849.72867	7712.1
2852.24974	7709.3
2854.76927	7709.3
2857.28724	7706.1
2859.80367	7688
2862.31855	7655.3
2864.83189	7685.1
2867.34368	7656.2
2869.85393	7641
2872.36264	7633.6
2874.8698	7638.8
2877.37543	7613.5
2879.87952	7626.8
2882.38207	7642.4
2884.88308	7627.9
2887.38256	7616.6
2889.88051	7620.2
2892.37692	7634.7
2894.8718	7630.6
2897.36515	7625.5
2899.85698	7625.1
2902.34727	7643
2904.83604	7635.3
2907.32328	7643
2909.809	7639.1
2912.29319	7644.7
2914.77587	7658.5
2917.25702	7651.4
2919.73665	7645.3
2922.21476	7637.8
2924.69136	7648.5
2927.16644	7633.8
2929.64	7630.4
2932.11205	7625.3
2934.58258	7609.9
2937.05161	7627.4
2939.51912	7619
2941.98513	7620.1
2944.44962	7573.4
2946.91261	7541.8
2949.37409	7562.8
2951.83407	7550.8
2954.29254	7567.5
2956.74951	7555.6
2959.20498	7563
2961.65895	7517.4
2964.11142	7522.5
2966.56239	7511.2
2969.01186	7531.6
2971.45984	7507.7
2973.90632	7512.9
2976.35131	7492.4
2978.7948	7476.6
2981.23681	7453.9
2983.67732	7465.4
2986.11635	7424.8
2988.55388	7414.9
2990.98993	7394.4
2993.4245	7368.4
2995.85758	7365.5
2998.28917	7351.8
3000.71928	7332.9
3003.14791	7318.6
3005.57506	7319.8
3008.00073	7300.5
3010.42493	7308.3
3012.84764	7297.1
3015.26888	7312.2
3017.68865	7284.9
3020.10694	7263
3022.52376	7234.3
3024.9391	7227.2
3027.35298	7228.6
3029.76539	7260.9
3032.17632	7203.7
3034.5858	7210.5
3036.9938	7199.3
3039.40034	7204.6
3041.80542	7203.1
3044.20903	7184.3
3046.61118	7170.1
3049.01187	7160.9
3051.4111	7172.4
3053.80888	7154.3
3056.20519	7155.1
3058.60005	7120.1
3060.99345	7090.4
3063.3854	7091.9
3065.7759	7066.1
3068.16494	7061.6
3070.55254	7036.8
3072.93868	7040
3075.32338	7025.7
3077.70662	7001.2
3080.08842	6987.8
3082.46878	6998.6
3084.84769	6996.4
3087.22515	6964.5
3089.60118	6972.6
3091.97576	6970.4
3094.3489	6966.9
3096.72061	6956.3
3099.09087	6984.6
3101.4597	6962.4
3103.82709	6975.2
3106.19305	6960.1
3108.55757	6962.9
3110.92066	6943.5
3113.28232	6926.7
3115.64255	6927.5
3118.00134	6896.3
3120.35871	6913.7
3122.71466	6884.7
3125.06917	6871
3127.42226	6852.4
3129.77393	6868.6
3132.12417	6851.1
3134.47299	6866.4
3136.82039	6848.2
3139.16636	6844.3
3141.51092	6866
3143.85406	6872.6
3146.19579	6877.6
3148.53609	6874.7
3150.87499	6872.3
3153.21246	6862.8
3155.54853	6891.2
3157.88318	6886.3
3160.21642	6882
3162.54826	6878.2
3164.87868	6860.6
3167.2077	6885.7
3169.5353	6888.2
3171.86151	6883.7
3174.18631	6880
3176.5097	6882.2
3178.83169	6861.6
3181.15228	6861.6
3183.47147	6858.4
3185.78926	6842.9
3188.10565	6842.5
3190.42065	6849
3192.73424	6830.7
3195.04645	6824.9
3197.35725	6840.2
3199.66667	6848.9
3201.97469	6823.6
3204.28132	6820.5
3206.58656	6814.5
3208.8904	6829
3211.19287	6846.3
3213.49394	6851.8
3215.79363	6856.5
3218.09193	6863.3
3220.38884	6845.9
3222.68438	6837.7
3224.97853	6809.5
3227.2713	6820
3229.56269	6819.8
3231.8527	6815.2
3234.14133	6791.5
3236.42858	6790.6
3238.71446	6790.6
3240.99896	6805.3
3243.28209	6786.8
3245.56384	6766.8
3247.84423	6767.7
3250.12324	6738.2
3252.40088	6758.8
3254.67715	6756.1
3256.95205	6756.6
3259.22558	6723.1
3261.49775	6742.1
3263.76855	6729
3266.03799	6704.1
3268.30606	6708.6
3270.57277	6688.4
3272.83812	6681.1
3275.10211	6642.8
3277.36474	6637.2
3279.62601	6640.6
3281.88593	6635.9
3284.14448	6657.3
3286.40168	6660.1
3288.65753	6642.8
3290.91202	6625.6
3293.16516	6623.2
3295.41695	6609.8
3297.66738	6554.2
3299.91647	6534.8
3302.16421	6498
3304.4106	6474.5
3306.65564	6437.8
3308.89933	6396
3311.14169	6338.1
3313.38269	6286.1
3315.62236	6262
3317.86068	6197.5
3320.09766	6161.6
3322.3333	6120.7
3324.5676	6118.7
3326.80056	6010.7
3329.03219	5963.6
3331.26248	2.8
3333.49143	-0.6
3335.71905	-1.4
