Data from AgNPs_FTO_APTES_UA_1uM_CRN_500uM_R6G_10uM_NaF_0.1M_Addition_RamanShift__34__18-24-19-903.txt Node

Date: Thu Jan 27 18:24:19 GMT 2022
User: TCL
Spectrometer: QEP01345
Trigger mode: 4
Integration Time (sec): 7.000000E0
Scans to average: 10
Electric dark correction enabled: true
Nonlinearity correction enabled: false
Boxcar width: 0
XAxis mode: Raman Shifts
Number of Pixels in Spectrum: 1044
>>>>>Begin Spectral Data<<<<<
46.04893	1.2
50.45542	0.7
54.85868	-1
59.25871	-1.1
63.6555	42.6
68.04907	45.7
72.43941	45.3
76.82654	51.3
81.21044	52.3
85.59113	51.3
89.96862	59.1
94.34289	57.4
98.71396	61.9
103.08183	57.7
107.4465	64.1
111.80798	63.2
116.16626	64.6
120.52136	68.3
124.87327	67.7
129.222	68
133.56755	74
137.90993	74.5
142.24913	76.3
146.58517	86.4
150.91804	93.2
155.24774	110
159.57429	130.8
163.89768	159.8
168.21792	212.8
172.53501	282.5
176.84895	387.5
181.15975	537.7
185.46741	753.7
189.77193	1036.1
194.07331	1375.3
198.37157	1783.2
202.6667	2196.9
206.9587	2632.9
211.24758	3030.4
215.53334	3441.4
219.81599	3884.6
224.09553	4385.1
228.37195	4920.7
232.64527	5509.9
236.91549	6121.8
241.18261	6730.4
245.44663	7297.7
249.70755	7819.4
253.96539	8236
258.22014	8625.3
262.4718	8944.2
266.72039	9154.5
270.96589	9292.8
275.20832	9254
279.44768	9160.8
283.68397	9036.6
287.91719	8847.4
292.14735	8751.8
296.37445	8718
300.59849	8761.3
304.81948	8835.5
309.03742	8871
313.25231	8845.9
317.46415	8724.5
321.67296	8513.4
325.87872	8352.1
330.08145	8299.3
334.28114	8338.1
338.47781	8416.3
342.67145	8504.7
346.86207	8639.9
351.04966	8791.3
355.23424	8998.8
359.4158	9176.5
363.59435	9317.2
367.76989	9417.2
371.94243	9485.2
376.11196	9544.3
380.27849	9595.8
384.44203	9647.1
388.60257	9650.5
392.76012	9672.3
396.91468	9751
401.06626	9883.5
405.21485	10015.4
409.36047	10002.1
413.50311	9837.8
417.64277	9669.3
421.77947	9556.6
425.9132	9533.8
430.04396	9608.1
434.17176	9713.3
438.2966	9872.4
442.41849	10162.5
446.53742	10556.6
450.6534	10977.7
454.76644	11202.1
458.87653	11193.8
462.98368	10999
467.08789	10722.8
471.18916	10476.3
475.2875	10260.5
479.38291	10095.3
483.4754	9981.5
487.56496	9859.2
491.6516	9746.4
495.73531	9674
499.81612	9651.7
503.89401	9648.4
507.96899	9697.3
512.04106	9688
516.11023	9741.9
520.1765	9771.8
524.23987	9827.7
528.30034	9779
532.35792	9754.8
536.41261	9637.4
540.46441	9479
544.51333	9404
548.55936	9467.4
552.60252	9610.6
556.64279	9818.4
560.6802	9962.5
564.71473	9997
568.7464	10051.2
572.7752	10148.7
576.80114	10155.6
580.82422	10162.1
584.84444	10330.3
588.86181	10745.8
592.87633	11398.5
596.888	11839.9
600.89682	11744
604.9028	11727.4
608.90594	12428.2
612.90624	13542.3
616.90371	13054.2
620.89834	10991.3
624.89015	9898.1
628.87913	9739.5
632.86528	9726.2
636.84862	9733.8
640.82913	9655.4
644.80683	9470.1
648.78172	9339.2
652.75379	9312.3
656.72306	9438
660.68952	9619.2
664.65319	9586.7
668.61405	9397.3
672.57211	9354.3
676.52738	9386.7
680.47986	9417.8
684.42955	9376.8
688.37646	9318.2
692.32058	9290.9
696.26192	9373.8
700.20048	9423.2
704.13626	9467.3
708.06928	9416.4
711.99952	9372
715.927	9370.8
719.85171	9396.1
723.77365	9423.1
727.69284	9362.9
731.60928	9297.3
735.52295	9307.3
739.43388	9327
743.34206	9350.2
747.24749	9397.3
751.15017	9425.4
755.05012	9512.6
758.94733	9671.5
762.8418	10082.7
766.73354	10744.2
770.62254	11556.2
774.50882	11988.1
778.39237	11713.2
782.27321	10881.3
786.15132	10064.7
790.02671	9594.3
793.89938	9391.6
797.76935	9306.9
801.6366	9288.9
805.50115	9253.3
809.36299	9227.3
813.22213	9171.1
817.07857	9163.6
820.93231	9187.7
824.78336	9155.1
828.63172	9177.6
832.47738	9171.6
836.32036	9201.2
840.16066	9226.1
843.99827	9199.2
847.8332	9169.2
851.66546	9161.9
855.49504	9147.4
859.32195	9141.6
863.1462	9121.7
866.96777	9159.6
870.78668	9111.4
874.60293	9139.7
878.41652	9099.7
882.22745	9113.8
886.03573	9210.7
889.84136	9203.3
893.64433	9162.5
897.44466	9127.4
901.24235	9052.9
905.0374	9030.9
908.8298	9005.6
912.61957	9005.3
916.40671	9020.1
920.19121	9144.3
923.97308	9205.7
927.75233	9285.8
931.52895	9275
935.30295	9233.5
939.07433	9068.6
942.84309	8905.5
946.60924	8832.8
950.37278	8814.4
954.13371	8774.4
957.89203	8717.5
961.64774	8698.7
965.40086	8666.5
969.15137	8649.7
972.89929	8634.9
976.64461	8597.5
980.38733	8621.2
984.12747	8622.8
987.86502	8696.6
991.59999	8758.8
995.33237	8868.6
999.06217	9081.4
1002.78939	9294.4
1006.51404	9423.1
1010.23611	9453.5
1013.95561	9542.3
1017.67255	9530.6
1021.38692	9422.9
1025.09872	9307.7
1028.80796	9236.7
1032.51465	9331.9
1036.21877	9451.6
1039.92035	9506.6
1043.61937	9477.3
1047.31584	9389.8
1051.00976	9279.9
1054.70114	9241.8
1058.38998	9213.7
1062.07627	9233.4
1065.76003	9306.5
1069.44126	9329.8
1073.11995	9409.2
1076.79611	9491.5
1080.46974	9551.9
1084.14085	9586.7
1087.80943	9626.9
1091.47549	9697.2
1095.13903	9665.6
1098.80005	9531.9
1102.45857	9373.8
1106.11456	9269
1109.76805	9286.5
1113.41903	9361.7
1117.06751	9456.2
1120.71348	9617.3
1124.35696	9780.4
1127.99793	9941.8
1131.63641	10030.4
1135.2724	9868.5
1138.90589	9637.1
1142.5369	9543.5
1146.16542	9532.6
1149.79145	9528.9
1153.415	9552.9
1157.03607	9617.6
1160.65467	9754.2
1164.27079	9961.3
1167.88443	10385.6
1171.49561	10949.6
1175.10432	11776.8
1178.71056	12794.4
1182.31434	13746.8
1185.91565	14133.1
1189.51451	13823.2
1193.11091	13170
1196.70485	12501.4
1200.29634	11937.1
1203.88538	11546.6
1207.47197	11172
1211.05612	10920.8
1214.63782	10781.3
1218.21708	10801
1221.79391	10918
1225.36829	11005.8
1228.94024	10947.8
1232.50976	10733.9
1236.07685	10538.3
1239.6415	10394.8
1243.20374	10402.1
1246.76355	10447.8
1250.32093	10567.8
1253.8759	10740.6
1257.42845	10932.7
1260.97859	11162.6
1264.52631	11365.1
1268.07163	11580
1271.61453	11794.4
1275.15503	11988.1
1278.69312	12215.2
1282.22882	12418.9
1285.76211	12657.6
1289.29301	13083.2
1292.82151	13576.3
1296.34761	14128.3
1299.87133	14813.4
1303.39266	15596.3
1306.9116	16604.3
1310.42815	17716.8
1313.94233	18565.7
1317.45412	18639.9
1320.96354	18013
1324.47058	17121.1
1327.97525	16198.3
1331.47754	15514.7
1334.97747	15178.6
1338.47502	15084.2
1341.97022	14911.5
1345.46305	14769.3
1348.95352	14929.1
1352.44163	15468.7
1355.92738	16563.2
1359.41078	17971.6
1362.89183	19306.3
1366.37053	19415.2
1369.84688	17733.7
1373.32088	15363.4
1376.79254	13729
1380.26186	13037.1
1383.72883	12896.6
1387.19347	12748.5
1390.65578	12445.3
1394.11575	12216
1397.57339	12300.7
1401.0287	12608.1
1404.48168	12912.1
1407.93234	13001
1411.38068	12920.8
1414.82669	12676.7
1418.27039	12314.5
1421.71177	11899.6
1425.15083	11604.6
1428.58758	11457.4
1432.02203	11564.2
1435.45416	11818
1438.88399	12080.1
1442.31151	12244.2
1445.73673	12352.3
1449.15965	12447.2
1452.58027	12415.4
1455.9986	12245.2
1459.41463	12069.1
1462.82837	12103.1
1466.23982	12346
1469.64898	12627.2
1473.05586	12866.6
1476.46045	13029.2
1479.86276	13168.6
1483.26279	13211.3
1486.66054	13197.2
1490.05602	13251.3
1493.44922	13286.4
1496.84016	13341.8
1500.22882	13427.3
1503.61521	13828.6
1506.99934	14422.8
1510.38121	14993.9
1513.76081	15245.8
1517.13816	14878.9
1520.51324	14073.2
1523.88607	13261.7
1527.25665	12742.9
1530.62498	12591.5
1533.99105	12498.1
1537.35488	12444
1540.71647	12321.2
1544.07581	12186.1
1547.4329	12006.8
1550.78776	11831.2
1554.14038	11645.1
1557.49077	11495.2
1560.83892	11438.4
1564.18484	11430.1
1567.52853	11504.4
1570.86999	11703.5
1574.20922	11938.5
1577.54624	12065.3
1580.88103	11957.7
1584.2136	11773.1
1587.54395	11805
1590.87208	12150.3
1594.19801	12901.9
1597.52172	13847
1600.84321	14490.2
1604.16251	14309
1607.47959	13317.2
1610.79447	12048
1614.10715	10952.4
1617.41763	10210.4
1620.7259	9765.9
1624.03199	9535.4
1627.33587	9572.5
1630.63757	9757
1633.93707	10213.4
1637.23439	10938.2
1640.52951	12062.8
1643.82246	13561.8
1647.11321	14897.9
1650.40179	15246
1653.68819	14302.9
1656.97241	12491.2
1660.25446	10808.7
1663.53433	9634.9
1666.81203	8976
1670.08756	8622.1
1673.36092	8366.7
1676.63211	8208.1
1679.90115	8119.4
1683.16801	7997.7
1686.43272	7901.3
1689.69527	7879.6
1692.95567	7808.8
1696.2139	7755.4
1699.46999	7686.7
1702.72392	7684.9
1705.97571	7683.6
1709.22535	7701.4
1712.47284	7736
1715.71819	7755.8
1718.96139	7740
1722.20246	7724.8
1725.44139	7728.4
1728.67818	7692.2
1731.91284	7630.9
1735.14537	7610.2
1738.37576	7578.6
1741.60403	7552.5
1744.83017	7524.3
1748.05418	7500.5
1751.27607	7502.5
1754.49584	7478.2
1757.71349	7450.2
1760.92903	7425.7
1764.14244	7421.1
1767.35375	7378.1
1770.56294	7359.7
1773.77002	7371.4
1776.97499	7374.9
1780.17785	7399.3
1783.37861	7397.1
1786.57727	7363.1
1789.77382	7370.3
1792.96828	7362.7
1796.16064	7331.9
1799.3509	7312
1802.53907	7311.6
1805.72514	7299.6
1808.90913	7260.9
1812.09102	7239.5
1815.27083	7248
1818.44856	7243.4
1821.6242	7213.8
1824.79776	7214.4
1827.96924	7199.7
1831.13864	7202.8
1834.30597	7170.5
1837.47122	7164.9
1840.6344	7155.3
1843.7955	7153.3
1846.95454	7143.2
1850.11151	7146.2
1853.26642	7147.3
1856.41926	7141.7
1859.57004	7157.7
1862.71876	7124.3
1865.86542	7138.6
1869.01003	7133
1872.15258	7119.4
1875.29308	7116
1878.43152	7112.2
1881.56792	7105.7
1884.70227	7088.4
1887.83457	7065.5
1890.96482	7059.3
1894.09304	7065.2
1897.21921	7078.1
1900.34335	7036.7
1903.46544	7050
1906.58551	7032.7
1909.70353	7013
1912.81953	7035.5
1915.93349	7017.9
1919.04543	7007.9
1922.15534	6992
1925.26322	6962.3
1928.36908	6950.4
1931.47292	6975.9
1934.57473	6937.6
1937.67453	6923.6
1940.77232	6882.5
1943.86808	6873.8
1946.96184	6851
1950.05358	6829.2
1953.14331	6808.9
1956.23103	6796.1
1959.31675	6787.5
1962.40046	6764
1965.48217	6765.2
1968.56188	6724.8
1971.63959	6697.1
1974.7153	6688.6
1977.78901	6654.9
1980.86073	6655.4
1983.93046	6619.9
1986.99819	6601.7
1990.06394	6570.7
1993.1277	6558.4
1996.18947	6532.9
1999.24925	6552
2002.30706	6499.3
2005.36288	6491.2
2008.41672	6477.1
2011.46859	6461.2
2014.51848	6444.2
2017.56639	6428.9
2020.61233	6397.1
2023.6563	6396.8
2026.6983	6391.9
2029.73833	6377.7
2032.7764	6342.7
2035.8125	6329.5
2038.84664	6324.6
2041.87881	6304.8
2044.90903	6305.8
2047.93729	6287.6
2050.96359	6280.8
2053.98794	6266.8
2057.01034	6254.3
2060.03078	6257.9
2063.04927	6263
2066.06582	6242.6
2069.08042	6241
2072.09307	6231.2
2075.10378	6242.4
2078.11255	6234.5
2081.11938	6214.5
2084.12426	6212.9
2087.12722	6209.6
2090.12824	6217.7
2093.12732	6222.8
2096.12447	6220.4
2099.11969	6210.9
2102.11299	6212.8
2105.10435	6221.1
2108.09379	6204.6
2111.08131	6208.3
2114.0669	6221.4
2117.05057	6241.3
2120.03233	6220.9
2123.01216	6223.8
2125.99008	6231.1
2128.96609	6246.9
2131.94018	6240.6
2134.91236	6241.5
2137.88263	6253.2
2140.851	6245
2143.81746	6243.3
2146.78201	6236
2149.74466	6232.8
2152.7054	6227
2155.66425	6234.7
2158.6212	6222
2161.57625	6218.2
2164.52941	6239
2167.48067	6211.6
2170.43004	6218.5
2173.37752	6241.9
2176.32311	6227.3
2179.26681	6216.7
2182.20863	6197.1
2185.14856	6225.8
2188.08661	6212.6
2191.02278	6210
2193.95707	6195.5
2196.88948	6203.4
2199.82001	6194
2202.74867	6178
2205.67545	6185
2208.60037	6169.5
2211.52341	6154
2214.44458	6145.1
2217.36388	6132.7
2220.28132	6138.4
2223.1969	6126.2
2226.11061	6094.8
2229.02246	6097.8
2231.93245	6106.7
2234.84058	6074.6
2237.74686	6063.5
2240.65128	6055.5
2243.55385	6049.9
2246.45456	6032
2249.35343	6028
2252.25044	6025.8
2255.14561	6017.5
2258.03893	5998.8
2260.93041	5996.3
2263.82004	5971.7
2266.70783	5969.7
2269.59378	5944.2
2272.4779	5923
2275.36017	5915.8
2278.24061	5916.4
2281.11922	5917.9
2283.996	5891.8
2286.87094	5875
2289.74405	5848.8
2292.61534	5860.4
2295.4848	5854.3
2298.35243	5863.9
2301.21824	5865.4
2304.08223	5859.6
2306.94439	5855.8
2309.80474	5843.1
2312.66327	5858.5
2315.51999	5830.6
2318.37489	5832.8
2321.22797	5824.9
2324.07925	5820.8
2326.92871	5798.2
2329.77637	5794.5
2332.62222	5792.5
2335.46626	5797.9
2338.3085	5784
2341.14893	5774
2343.98756	5772.9
2346.8244	5764.5
2349.65943	5761.8
2352.49267	5726.2
2355.32411	5750.6
2358.15376	5747.1
2360.98161	5737
2363.80768	5738
2366.63195	5740.1
2369.45444	5721.4
2372.27514	5732.1
2375.09405	5714
2377.91118	5706.7
2380.72652	5712.1
2383.54009	5677.2
2386.35187	5686.6
2389.16188	5652.3
2391.97011	5635.5
2394.77657	5625.1
2397.58125	5616.8
2400.38416	5617.3
2403.18529	5591.4
2405.98466	5589.4
2408.78226	5573.2
2411.57809	5582.8
2414.37216	5562.4
2417.16446	5557.1
2419.955	5538.2
2422.74378	5559.6
2425.5308	5545.3
2428.31606	5533.6
2431.09956	5537.3
2433.88131	5533.8
2436.6613	5529.7
2439.43954	5532.3
2442.21603	5510.7
2444.99077	5515.8
2447.76377	5532.4
2450.53501	5503.7
2453.30451	5502.5
2456.07226	5510.1
2458.83827	5507.8
2461.60254	5498.9
2464.36507	5489.1
2467.12586	5489.9
2469.88492	5482.8
2472.64224	5505.3
2475.39782	5495.2
2478.15167	5477.5
2480.90379	5469
2483.65417	5475.4
2486.40283	5480.1
2489.14976	5487.7
2491.89497	5480.2
2494.63845	5474.6
2497.3802	5456.6
2500.12024	5465.8
2502.85855	5466.7
2505.59514	5461.7
2508.33002	5457.9
2511.06318	5445.1
2513.79462	5429.8
2516.52435	5413.5
2519.25237	5410.7
2521.97867	5419.4
2524.70327	5400.7
2527.42616	5386.9
2530.14734	5399.4
2532.86681	5385.3
2535.58458	5373.1
2538.30065	5352.9
2541.01501	5376.7
2543.72768	5359.5
2546.43864	5357.7
2549.14791	5346.8
2551.85548	5342.7
2554.56136	5341.7
2557.26554	5336.9
2559.96803	5307.6
2562.66883	5318.1
2565.36794	5308.8
2568.06536	5314
2570.7611	5291.6
2573.45514	5280.5
2576.14751	5294.9
2578.83819	5263.8
2581.52719	5266.7
2584.21451	5274
2586.90015	5258
2589.58411	5240.5
2592.2664	5266.6
2594.94701	5224.2
2597.62594	5239.7
2600.30321	5215.1
2602.9788	5196.3
2605.65273	5201.3
2608.32498	5203.2
2610.99557	5184.3
2613.66449	5178.9
2616.33175	5165.1
2618.99734	5180.4
2621.66128	5189.9
2624.32355	5172.9
2626.98416	5179.5
2629.64311	5176.9
2632.30041	5152.5
2634.95605	5136.1
2637.61004	5139.6
2640.26238	5135.7
2642.91306	5129.5
2645.56209	5123.2
2648.20948	5118.5
2650.85521	5126.9
2653.4993	5129.9
2656.14175	5124.4
2658.78255	5157.3
2661.42171	5132.1
2664.05923	5159
2666.6951	5137.3
2669.32934	5161.7
2671.96194	5131.3
2674.59291	5125.4
2677.22224	5132.7
2679.84993	5136.3
2682.476	5117.8
2685.10043	5135.9
2687.72324	5124.5
2690.34441	5106.5
2692.96396	5132
2695.58188	5131.4
2698.19818	5115.4
2700.81285	5116.7
2703.4259	5123.6
2706.03733	5115
2708.64714	5108.1
2711.25533	5119.3
2713.86191	5116.4
2716.46687	5145.1
2719.07021	5121.3
2721.67194	5136.9
2724.27206	5152.5
2726.87057	5146.8
2729.46747	5150.6
2732.06276	5145.5
2734.65644	5128.2
2737.24852	5127.7
2739.83899	5141.5
2742.42786	5127.9
2745.01513	5094.2
2747.60079	5129.2
2750.18486	5108.9
2752.76733	5103.8
2755.3482	5091.5
2757.92747	5097.1
2760.50515	5082.3
2763.08123	5089.7
2765.65573	5092.7
2768.22863	5091.8
2770.79994	5082.3
2773.36967	5063.5
2775.9378	5072
2778.50435	5071.6
2781.06932	5062.7
2783.6327	5065.5
2786.1945	5055
2788.75471	5054
2791.31335	5031.5
2793.87041	5032.8
2796.42589	5021.9
2798.97979	5029.6
2801.53212	5027.4
2804.08288	5028.9
2806.63206	4992.2
2809.17967	5003.4
2811.72571	4981.9
2814.27018	4978.5
2816.81308	4968.7
2819.35442	4968
2821.89419	4959.8
2824.43239	4956.9
2826.96904	4969.5
2829.50412	4953
2832.03763	4956.7
2834.56959	4976.3
2837.1	4966.4
2839.62884	5001.9
2842.15613	5021.4
2844.68186	5072.8
2847.20604	5095.9
2849.72867	5122.5
2852.24974	5128.6
2854.76927	5121.2
2857.28724	5110.8
2859.80367	5117.3
2862.31855	5099.5
2864.83189	5074.4
2867.34368	5064.3
2869.85393	5083.4
2872.36264	5084.3
2874.8698	5066.4
2877.37543	5078.3
2879.87952	5076.3
2882.38207	5049.9
2884.88308	5065.1
2887.38256	5060.9
2889.88051	5050.4
2892.37692	5066.3
2894.8718	5069.2
2897.36515	5090.3
2899.85698	5085
2902.34727	5100.5
2904.83604	5091.6
2907.32328	5097.9
2909.809	5112.5
2912.29319	5123.6
2914.77587	5098.9
2917.25702	5099.5
2919.73665	5093.5
2922.21476	5092.4
2924.69136	5101.8
2927.16644	5101.2
2929.64	5084.7
2932.11205	5099.1
2934.58258	5072.4
2937.05161	5079.5
2939.51912	5074.9
2941.98513	5034.1
2944.44962	5001
2946.91261	4952.9
2949.37409	4960.5
2951.83407	4940.6
2954.29254	4929.3
2956.74951	4934.5
2959.20498	4918.1
2961.65895	4924.1
2964.11142	4907
2966.56239	4888.2
2969.01186	4889.7
2971.45984	4854.7
2973.90632	4866.3
2976.35131	4842.5
2978.7948	4816
2981.23681	4801.5
2983.67732	4815.8
2986.11635	4781.3
2988.55388	4770.8
2990.98993	4758.6
2993.4245	4768
2995.85758	4737.8
2998.28917	4735.8
3000.71928	4721.9
3003.14791	4713.5
3005.57506	4716.2
3008.00073	4694.4
3010.42493	4695.7
3012.84764	4693.5
3015.26888	4718.5
3017.68865	4693.4
3020.10694	4695.1
3022.52376	4674.5
3024.9391	4666.4
3027.35298	4672.5
3029.76539	4657.5
3032.17632	4654.8
3034.5858	4642.9
3036.9938	4642
3039.40034	4652.1
3041.80542	4645
3044.20903	4616
3046.61118	4618.8
3049.01187	4627.8
3051.4111	4639.7
3053.80888	4607.9
3056.20519	4608.9
3058.60005	4613.8
3060.99345	4606.5
3063.3854	4601.4
3065.7759	4585.5
3068.16494	4585.8
3070.55254	4587.1
3072.93868	4579.4
3075.32338	4558.5
3077.70662	4557.1
3080.08842	4545.2
3082.46878	4538.9
3084.84769	4541.4
3087.22515	4535.1
3089.60118	4552
3091.97576	4543.1
3094.3489	4545.7
3096.72061	4547.6
3099.09087	4565.5
3101.4597	4533.4
3103.82709	4546.8
3106.19305	4542
3108.55757	4544.7
3110.92066	4538.2
3113.28232	4534.9
3115.64255	4507
3118.00134	4523
3120.35871	4524.9
3122.71466	4512.8
3125.06917	4501
3127.42226	4503.5
3129.77393	4511
3132.12417	4504.8
3134.47299	4505.9
3136.82039	4524.4
3139.16636	4528.9
3141.51092	4530
3143.85406	4530.2
3146.19579	4521.2
3148.53609	4532.8
3150.87499	4535.5
3153.21246	4545.7
3155.54853	4562.8
3157.88318	4555.8
3160.21642	4556.9
3162.54826	4564.1
3164.87868	4565.6
3167.2077	4551.2
3169.5353	4593.3
3171.86151	4576.2
3174.18631	4573.1
3176.5097	4578.1
3178.83169	4584.3
3181.15228	4578.3
3183.47147	4576
3185.78926	4566.7
3188.10565	4576.5
3190.42065	4580.8
3192.73424	4571
3195.04645	4571.5
3197.35725	4581.9
3199.66667	4573.7
3201.97469	4575.8
3204.28132	4585.1
3206.58656	4585.5
3208.8904	4594.3
3211.19287	4578.2
3213.49394	4602.1
3215.79363	4609.3
3218.09193	4608.2
3220.38884	4625.3
3222.68438	4593.7
3224.97853	4593
3227.2713	4597.8
3229.56269	4602.4
3231.8527	4615.4
3234.14133	4616.1
3236.42858	4583.9
3238.71446	4584.9
3240.99896	4582.1
3243.28209	4575.2
3245.56384	4578.8
3247.84423	4578.2
3250.12324	4574.2
3252.40088	4581.6
3254.67715	4593.7
3256.95205	4580.5
3259.22558	4574.7
3261.49775	4562.5
3263.76855	4552.5
3266.03799	4550
3268.30606	4557.6
3270.57277	4530
3272.83812	4542.9
3275.10211	4509.9
3277.36474	4522
3279.62601	4517.3
3281.88593	4511.8
3284.14448	4523.8
3286.40168	4506.2
3288.65753	4506.1
3290.91202	4522.1
3293.16516	4503
3295.41695	4493.1
3297.66738	4470.3
3299.91647	4455.2
3302.16421	4422.5
3304.4106	4404.9
3306.65564	4395.9
3308.89933	4361.1
3311.14169	4324.3
3313.38269	4307.7
3315.62236	4280.5
3317.86068	4237.3
3320.09766	4210.2
3322.3333	4180.9
3324.5676	4170.7
3326.80056	4102.5
3329.03219	4070.8
3331.26248	0.8
3333.49143	-0.1
3335.71905	-0.8
