Data from AgNPs_FTO_APTES_UA_1uM_CRN_1uM_R6G_10uM_NaF_0.1M_Addition_RamanShift__17__12-31-59-501.txt Node

Date: Thu Jan 27 12:31:59 GMT 2022
User: TCL
Spectrometer: QEP01345
Trigger mode: 4
Integration Time (sec): 7.000000E0
Scans to average: 10
Electric dark correction enabled: true
Nonlinearity correction enabled: false
Boxcar width: 0
XAxis mode: Raman Shifts
Number of Pixels in Spectrum: 1044
>>>>>Begin Spectral Data<<<<<
46.04893	-0.6125
50.45542	0.9875
54.85868	-1.7125
59.25871	-0.4125
63.6555	56.6875
68.04907	57.1875
72.43941	63.2875
76.82654	64.4875
81.21044	68.7875
85.59113	65.7875
89.96862	70.1875
94.34289	70.3875
98.71396	76.7875
103.08183	74.2875
107.4465	80.1875
111.80798	81.6875
116.16626	82.4875
120.52136	88.0875
124.87327	87.8875
129.222	91.8875
133.56755	96.2875
137.90993	102.5875
142.24913	114.2875
146.58517	125.1875
150.91804	147.3875
155.24774	177.2875
159.57429	207.5875
163.89768	263.2875
168.21792	348.4875
172.53501	475.5875
176.84895	654.5875
181.15975	914.6875
185.46741	1282.3875
189.77193	1758.5875
194.07331	2356.3875
198.37157	3048.1875
202.6667	3755.4875
206.9587	4479.3875
211.24758	5167.1875
215.53334	5866.6875
219.81599	6631.9875
224.09553	7467.9875
228.37195	8412.0875
232.64527	9437.1875
236.91549	10512.6875
241.18261	11625.5875
245.44663	12589.4875
249.70755	13444.2875
253.96539	14213.5875
258.22014	14811.3875
262.4718	15333.1875
266.72039	15752.2875
270.96589	15907.0875
275.20832	15911.7875
279.44768	15774.9875
283.68397	15562.0875
287.91719	15405.1875
292.14735	15303.5875
296.37445	15305.4875
300.59849	15430.4875
304.81948	15570.0875
309.03742	15641.0875
313.25231	15553.1875
317.46415	15160.2875
321.67296	14677.5875
325.87872	14248.6875
330.08145	14000.4875
334.28114	14017.2875
338.47781	14139.1875
342.67145	14344.4875
346.86207	14596.7875
351.04966	14955.3875
355.23424	15350.6875
359.4158	15716.2875
363.59435	15976.9875
367.76989	16101.9875
371.94243	16222.7875
376.11196	16308.0875
380.27849	16374.2875
384.44203	16461.4875
388.60257	16523.8875
392.76012	16631.4875
396.91468	16860.3875
401.06626	17102.6875
405.21485	17303.1875
409.36047	17200.9875
413.50311	16848.2875
417.64277	16584.0875
421.77947	16443.6875
425.9132	16457.3875
430.04396	16502.5875
434.17176	16573.3875
438.2966	16730.0875
442.41849	16950.9875
446.53742	17365.7875
450.6534	17849.4875
454.76644	18208.0875
458.87653	18354.5875
462.98368	18272.9875
467.08789	18007.0875
471.18916	17708.8875
475.2875	17404.3875
479.38291	17261.7875
483.4754	17118.1875
487.56496	16959.4875
491.6516	16794.2875
495.73531	16648.9875
499.81612	16629.7875
503.89401	16719.1875
507.96899	16816.7875
512.04106	16782.4875
516.11023	16789.9875
520.1765	16746.6875
524.23987	16660.8875
528.30034	16527.1875
532.35792	16341.2875
536.41261	16099.7875
540.46441	15883.3875
544.51333	15800.7875
548.55936	15971.2875
552.60252	16279.0875
556.64279	16620.3875
560.6802	16816.2875
564.71473	16876.7875
568.7464	17057.8875
572.7752	17394.4875
576.80114	17604.9875
580.82422	17900.7875
584.84444	18187.5875
588.86181	18481.4875
592.87633	18735.4875
596.888	18840.2875
600.89682	18878.1875
604.9028	19587.8875
608.90594	21829.4875
612.90624	24420.0875
616.90371	23302.0875
620.89834	19146.6875
624.89015	17287.9875
628.87913	17128.7875
632.86528	17114.1875
636.84862	16897.3875
640.82913	16584.3875
644.80683	16086.9875
648.78172	15705.6875
652.75379	15613.2875
656.72306	15856.9875
660.68952	16216.2875
664.65319	16181.2875
668.61405	15832.9875
672.57211	15663.5875
676.52738	15697.0875
680.47986	15651.3875
684.42955	15529.0875
688.37646	15493.8875
692.32058	15544.5875
696.26192	15731.6875
700.20048	15933.9875
704.13626	16063.9875
708.06928	15960.7875
711.99952	15804.4875
715.927	15767.2875
719.85171	15801.2875
723.77365	15824.8875
727.69284	15630.1875
731.60928	15453.0875
735.52295	15425.4875
739.43388	15480.6875
743.34206	15514.9875
747.24749	15604.5875
751.15017	15718.1875
755.05012	15958.7875
758.94733	16436.8875
762.8418	17293.0875
766.73354	18697.8875
770.62254	20234.8875
774.50882	20828.4875
778.39237	20021.6875
782.27321	18467.3875
786.15132	17133.8875
790.02671	16305.9875
793.89938	15926.0875
797.76935	15790.7875
801.6366	15713.4875
805.50115	15656.5875
809.36299	15542.9875
813.22213	15396.1875
817.07857	15302.6875
820.93231	15227.0875
824.78336	15193.2875
828.63172	15252.5875
832.47738	15218.8875
836.32036	15282.4875
840.16066	15383.6875
843.99827	15495.3875
847.8332	15494.2875
851.66546	15358.6875
855.49504	15275.9875
859.32195	15274.2875
863.1462	15208.6875
866.96777	15157.3875
870.78668	15083.5875
874.60293	15099.2875
878.41652	15081.0875
882.22745	15166.9875
886.03573	15215.1875
889.84136	15254.3875
893.64433	15185.6875
897.44466	15097.0875
901.24235	15012.1875
905.0374	14961.9875
908.8298	14880.7875
912.61957	14926.5875
916.40671	15038.0875
920.19121	15266.1875
923.97308	15535.4875
927.75233	15690.5875
931.52895	15726.5875
935.30295	15639.1875
939.07433	15290.8875
942.84309	14987.2875
946.60924	14885.3875
950.37278	14819.0875
954.13371	14754.9875
957.89203	14643.5875
961.64774	14575.5875
965.40086	14497.4875
969.15137	14456.3875
972.89929	14385.6875
976.64461	14405.0875
980.38733	14427.3875
984.12747	14503.2875
987.86502	14692.7875
991.59999	14953.9875
995.33237	15376.5875
999.06217	15977.1875
1002.78939	16714.1875
1006.51404	17050.8875
1010.23611	17136.1875
1013.95561	17216.3875
1017.67255	17188.7875
1021.38692	16983.7875
1025.09872	16800.3875
1028.80796	17098.6875
1032.51465	17909.9875
1036.21877	18674.9875
1039.92035	18746.7875
1043.61937	18331.4875
1047.31584	17590.4875
1051.00976	16839.5875
1054.70114	16461.9875
1058.38998	16356.4875
1062.07627	16413.5875
1065.76003	16405.1875
1069.44126	16469.6875
1073.11995	16661.7875
1076.79611	16931.4875
1080.46974	17099.1875
1084.14085	17273.7875
1087.80943	17420.2875
1091.47549	17559.0875
1095.13903	17460.4875
1098.80005	17202.6875
1102.45857	16828.9875
1106.11456	16551.7875
1109.76805	16486.0875
1113.41903	16540.8875
1117.06751	16648.8875
1120.71348	16819.9875
1124.35696	17004.5875
1127.99793	17219.0875
1131.63641	17421.4875
1135.2724	17262.4875
1138.90589	17022.6875
1142.5369	16850.3875
1146.16542	16759.0875
1149.79145	16723.6875
1153.415	16729.9875
1157.03607	16859.9875
1160.65467	17163.7875
1164.27079	17765.4875
1167.88443	18683.3875
1171.49561	19921.8875
1175.10432	21577.6875
1178.71056	23691.5875
1182.31434	25808.1875
1185.91565	26948.9875
1189.51451	26922.6875
1193.11091	25874.1875
1196.70485	24426.2875
1200.29634	23143.7875
1203.88538	22178.5875
1207.47197	21439.5875
1211.05612	20822.4875
1214.63782	20398.9875
1218.21708	20247.8875
1221.79391	20227.3875
1225.36829	20319.6875
1228.94024	20219.9875
1232.50976	19819.4875
1236.07685	19451.7875
1239.6415	19180.0875
1243.20374	19080.0875
1246.76355	19172.3875
1250.32093	19475.5875
1253.8759	19988.0875
1257.42845	20655.0875
1260.97859	21249.9875
1264.52631	21928.5875
1268.07163	22619.3875
1271.61453	23437.5875
1275.15503	24220.5875
1278.69312	25029.6875
1282.22882	25679.8875
1285.76211	26068.4875
1289.29301	26351.8875
1292.82151	26901.4875
1296.34761	27789.5875
1299.87133	29099.5875
1303.39266	31010.8875
1306.9116	33459.1875
1310.42815	35959.8875
1313.94233	37570.6875
1317.45412	37588.4875
1320.96354	36415.4875
1324.47058	34948.4875
1327.97525	33616.2875
1331.47754	32648.9875
1334.97747	31911.4875
1338.47502	31540.1875
1341.97022	31375.6875
1345.46305	31125.2875
1348.95352	31000.0875
1352.44163	31097.1875
1355.92738	32079.3875
1359.41078	34153.0875
1362.89183	36099.0875
1366.37053	35877.3875
1369.84688	32758.6875
1373.32088	28914.3875
1376.79254	26107.0875
1380.26186	24751.8875
1383.72883	24301.3875
1387.19347	24053.1875
1390.65578	23684.4875
1394.11575	23368.0875
1397.57339	23440.1875
1401.0287	23751.2875
1404.48168	24136.4875
1407.93234	24237.0875
1411.38068	24110.0875
1414.82669	23634.3875
1418.27039	22949.0875
1421.71177	22278.4875
1425.15083	21659.8875
1428.58758	21346.0875
1432.02203	21395.8875
1435.45416	21778.5875
1438.88399	22314.1875
1442.31151	22701.1875
1445.73673	22967.9875
1449.15965	23184.3875
1452.58027	23298.5875
1455.9986	23264.7875
1459.41463	23431.1875
1462.82837	23895.3875
1466.23982	24446.0875
1469.64898	24977.2875
1473.05586	25320.8875
1476.46045	25407.9875
1479.86276	25279.5875
1483.26279	25054.6875
1486.66054	24883.3875
1490.05602	24933.0875
1493.44922	25158.9875
1496.84016	25577.8875
1500.22882	26240.4875
1503.61521	27404.7875
1506.99934	28799.3875
1510.38121	30002.1875
1513.76081	30425.3875
1517.13816	29593.2875
1520.51324	27878.5875
1523.88607	26288.4875
1527.25665	25154.7875
1530.62498	24455.7875
1533.99105	24136.3875
1537.35488	23898.5875
1540.71647	23697.5875
1544.07581	23477.7875
1547.4329	23201.6875
1550.78776	22931.7875
1554.14038	22795.5875
1557.49077	22686.3875
1560.83892	22628.9875
1564.18484	22610.4875
1567.52853	22747.2875
1570.86999	22956.7875
1574.20922	23210.6875
1577.54624	23358.3875
1580.88103	23136.8875
1584.2136	22965.7875
1587.54395	23280.6875
1590.87208	24377.9875
1594.19801	26003.5875
1597.52172	27893.0875
1600.84321	28756.8875
1604.16251	27649.7875
1607.47959	25428.5875
1610.79447	23115.6875
1614.10715	21127.4875
1617.41763	19532.1875
1620.7259	18491.4875
1624.03199	17935.4875
1627.33587	17962.8875
1630.63757	18500.2875
1633.93707	19572.1875
1637.23439	21321.6875
1640.52951	23567.6875
1643.82246	26129.2875
1647.11321	28123.0875
1650.40179	28518.2875
1653.68819	26874.0875
1656.97241	23605.8875
1660.25446	20328.6875
1663.53433	17929.5875
1666.81203	16382.2875
1670.08756	15431.4875
1673.36092	14919.2875
1676.63211	14552.2875
1679.90115	14232.4875
1683.16801	14015.6875
1686.43272	13890.6875
1689.69527	13782.2875
1692.95567	13675.1875
1696.2139	13600.3875
1699.46999	13504.0875
1702.72392	13476.2875
1705.97571	13465.2875
1709.22535	13468.3875
1712.47284	13516.5875
1715.71819	13499.0875
1718.96139	13485.5875
1722.20246	13428.8875
1725.44139	13372.4875
1728.67818	13313.5875
1731.91284	13240.2875
1735.14537	13161.5875
1738.37576	13114.8875
1741.60403	13078.4875
1744.83017	13033.8875
1748.05418	12995.8875
1751.27607	12971.9875
1754.49584	12909.2875
1757.71349	12903.1875
1760.92903	12851.5875
1764.14244	12865.1875
1767.35375	12877.5875
1770.56294	12804.4875
1773.77002	12818.3875
1776.97499	12806.5875
1780.17785	12809.5875
1783.37861	12805.4875
1786.57727	12803.2875
1789.77382	12798.0875
1792.96828	12789.3875
1796.16064	12759.9875
1799.3509	12713.5875
1802.53907	12706.5875
1805.72514	12666.9875
1808.90913	12654.7875
1812.09102	12620.0875
1815.27083	12593.4875
1818.44856	12612.0875
1821.6242	12583.0875
1824.79776	12546.1875
1827.96924	12561.9875
1831.13864	12548.1875
1834.30597	12552.3875
1837.47122	12555.4875
1840.6344	12568.0875
1843.7955	12566.9875
1846.95454	12608.7875
1850.11151	12587.3875
1853.26642	12580.5875
1856.41926	12601.8875
1859.57004	12595.6875
1862.71876	12587.3875
1865.86542	12598.6875
1869.01003	12593.1875
1872.15258	12562.5875
1875.29308	12550.5875
1878.43152	12585.3875
1881.56792	12568.8875
1884.70227	12546.6875
1887.83457	12556.8875
1890.96482	12526.7875
1894.09304	12519.6875
1897.21921	12559.8875
1900.34335	12538.0875
1903.46544	12508.1875
1906.58551	12531.1875
1909.70353	12522.6875
1912.81953	12480.7875
1915.93349	12457.0875
1919.04543	12440.4875
1922.15534	12369.2875
1925.26322	12314.4875
1928.36908	12325.8875
1931.47292	12285.6875
1934.57473	12230.6875
1937.67453	12198.6875
1940.77232	12158.9875
1943.86808	12121.7875
1946.96184	12073.7875
1950.05358	12029.9875
1953.14331	11992.8875
1956.23103	11945.0875
1959.31675	11927.7875
1962.40046	11886.5875
1965.48217	11868.8875
1968.56188	11833.4875
1971.63959	11787.8875
1974.7153	11770.4875
1977.78901	11758.0875
1980.86073	11688.5875
1983.93046	11685.6875
1986.99819	11608.2875
1990.06394	11610.3875
1993.1277	11562.6875
1996.18947	11516.3875
1999.24925	11529.3875
2002.30706	11455.9875
2005.36288	11453.3875
2008.41672	11384.3875
2011.46859	11377.5875
2014.51848	11348.8875
2017.56639	11335.9875
2020.61233	11276.4875
2023.6563	11279.2875
2026.6983	11259.7875
2029.73833	11214.8875
2032.7764	11232.2875
2035.8125	11226.1875
2038.84664	11176.0875
2041.87881	11187.1875
2044.90903	11158.1875
2047.93729	11132.4875
2050.96359	11159.0875
2053.98794	11107.6875
2057.01034	11091.4875
2060.03078	11088.2875
2063.04927	11100.5875
2066.06582	11139.2875
2069.08042	11095.2875
2072.09307	11087.9875
2075.10378	11065.1875
2078.11255	11071.1875
2081.11938	11064.8875
2084.12426	11045.6875
2087.12722	11070.4875
2090.12824	11032.6875
2093.12732	11050.3875
2096.12447	11037.9875
2099.11969	11026.6875
2102.11299	11042.6875
2105.10435	11033.2875
2108.09379	11043.9875
2111.08131	11070.4875
2114.0669	11060.1875
2117.05057	11070.2875
2120.03233	11086.4875
2123.01216	11084.3875
2125.99008	11067.9875
2128.96609	11106.4875
2131.94018	11116.0875
2134.91236	11108.8875
2137.88263	11107.9875
2140.851	11155.9875
2143.81746	11138.7875
2146.78201	11161.7875
2149.74466	11150.4875
2152.7054	11183.6875
2155.66425	11162.7875
2158.6212	11167.8875
2161.57625	11164.5875
2164.52941	11174.2875
2167.48067	11140.8875
2170.43004	11153.8875
2173.37752	11146.2875
2176.32311	11174.7875
2179.26681	11184.2875
2182.20863	11182.2875
2185.14856	11169.8875
2188.08661	11198.7875
2191.02278	11182.7875
2193.95707	11176.9875
2196.88948	11186.2875
2199.82001	11180.5875
2202.74867	11151.4875
2205.67545	11181.7875
2208.60037	11208.4875
2211.52341	11173.8875
2214.44458	11174.3875
2217.36388	11123.7875
2220.28132	11135.5875
2223.1969	11131.3875
2226.11061	11102.2875
2229.02246	11092.9875
2231.93245	11073.6875
2234.84058	11043.2875
2237.74686	11035.2875
2240.65128	11005.8875
2243.55385	10982.5875
2246.45456	10978.5875
2249.35343	10958.4875
2252.25044	10943.7875
2255.14561	10938.3875
2258.03893	10927.6875
2260.93041	10895.7875
2263.82004	10878.3875
2266.70783	10881.5875
2269.59378	10827.5875
2272.4779	10838.1875
2275.36017	10815.0875
2278.24061	10801.4875
2281.11922	10764.2875
2283.996	10756.2875
2286.87094	10748.5875
2289.74405	10718.1875
2292.61534	10723.1875
2295.4848	10717.0875
2298.35243	10752.0875
2301.21824	10736.0875
2304.08223	10751.4875
2306.94439	10764.3875
2309.80474	10760.7875
2312.66327	10751.0875
2315.51999	10761.8875
2318.37489	10788.7875
2321.22797	10782.7875
2324.07925	10763.8875
2326.92871	10743.2875
2329.77637	10754.7875
2332.62222	10760.5875
2335.46626	10727.9875
2338.3085	10734.0875
2341.14893	10765.3875
2343.98756	10777.6875
2346.8244	10767.4875
2349.65943	10753.8875
2352.49267	10765.0875
2355.32411	10763.8875
2358.15376	10752.5875
2360.98161	10742.5875
2363.80768	10733.3875
2366.63195	10703.1875
2369.45444	10690.2875
2372.27514	10693.5875
2375.09405	10679.8875
2377.91118	10632.5875
2380.72652	10590.2875
2383.54009	10555.8875
2386.35187	10569.7875
2389.16188	10516.1875
2391.97011	10525.5875
2394.77657	10502.9875
2397.58125	10488.1875
2400.38416	10477.5875
2403.18529	10453.7875
2405.98466	10434.1875
2408.78226	10396.5875
2411.57809	10399.1875
2414.37216	10379.9875
2417.16446	10361.3875
2419.955	10367.4875
2422.74378	10343.3875
2425.5308	10340.9875
2428.31606	10341.4875
2431.09956	10347.4875
2433.88131	10291.8875
2436.6613	10306.3875
2439.43954	10330.0875
2442.21603	10321.1875
2444.99077	10341.5875
2447.76377	10327.9875
2450.53501	10308.2875
2453.30451	10322.8875
2456.07226	10307.8875
2458.83827	10332.9875
2461.60254	10315.9875
2464.36507	10334.0875
2467.12586	10304.6875
2469.88492	10329.1875
2472.64224	10346.3875
2475.39782	10352.2875
2478.15167	10331.4875
2480.90379	10337.8875
2483.65417	10355.2875
2486.40283	10370.4875
2489.14976	10374.6875
2491.89497	10376.3875
2494.63845	10382.2875
2497.3802	10373.1875
2500.12024	10375.1875
2502.85855	10333.6875
2505.59514	10362.2875
2508.33002	10347.4875
2511.06318	10292.8875
2513.79462	10293.5875
2516.52435	10293.9875
2519.25237	10303.2875
2521.97867	10277.7875
2524.70327	10297.8875
2527.42616	10263.2875
2530.14734	10244.0875
2532.86681	10275.4875
2535.58458	10266.8875
2538.30065	10289.6875
2541.01501	10295.8875
2543.72768	10253.0875
2546.43864	10258.8875
2549.14791	10233.1875
2551.85548	10234.7875
2554.56136	10232.3875
2557.26554	10219.2875
2559.96803	10173.2875
2562.66883	10194.1875
2565.36794	10185.1875
2568.06536	10191.2875
2570.7611	10175.3875
2573.45514	10163.9875
2576.14751	10174.5875
2578.83819	10138.0875
2581.52719	10162.1875
2584.21451	10162.8875
2586.90015	10172.0875
2589.58411	10154.4875
2592.2664	10135.5875
2594.94701	10131.1875
2597.62594	10131.1875
2600.30321	10133.1875
2602.9788	10087.2875
2605.65273	10110.7875
2608.32498	10098.4875
2610.99557	10102.3875
2613.66449	10088.1875
2616.33175	10091.9875
2618.99734	10118.3875
2621.66128	10095.4875
2624.32355	10083.2875
2626.98416	10103.5875
2629.64311	10111.3875
2632.30041	10087.4875
2634.95605	10093.8875
2637.61004	10086.5875
2640.26238	10045.7875
2642.91306	10032.4875
2645.56209	10047.0875
2648.20948	10012.6875
2650.85521	10019.0875
2653.4993	10002.1875
2656.14175	10011.7875
2658.78255	10051.2875
2661.42171	10045.9875
2664.05923	10053.9875
2666.6951	10051.7875
2669.32934	10048.3875
2671.96194	10034.7875
2674.59291	10065.7875
2677.22224	10063.6875
2679.84993	10068.8875
2682.476	10038.2875
2685.10043	10015.5875
2687.72324	9998.0875
2690.34441	10000.8875
2692.96396	9994.1875
2695.58188	9997.9875
2698.19818	9961.5875
2700.81285	9973.7875
2703.4259	9962.3875
2706.03733	9962.7875
2708.64714	9948.3875
2711.25533	9980.9875
2713.86191	10002.2875
2716.46687	10022.0875
2719.07021	9978.9875
2721.67194	10002.8875
2724.27206	9993.0875
2726.87057	10053.8875
2729.46747	10033.7875
2732.06276	10040.2875
2734.65644	10001.8875
2737.24852	9997.5875
2739.83899	9985.9875
2742.42786	10007.5875
2745.01513	9986.3875
2747.60079	9979.9875
2750.18486	9976.1875
2752.76733	9969.2875
2755.3482	9950.5875
2757.92747	9960.3875
2760.50515	9974.1875
2763.08123	9964.5875
2765.65573	9950.8875
2768.22863	9967.4875
2770.79994	9963.0875
2773.36967	9962.5875
2775.9378	9953.4875
2778.50435	9963.2875
2781.06932	9913.3875
2783.6327	9931.3875
2786.1945	9935.0875
2788.75471	9930.9875
2791.31335	9906.7875
2793.87041	9926.6875
2796.42589	9877.1875
2798.97979	9892.8875
2801.53212	9839.9875
2804.08288	9850.4875
2806.63206	9820.4875
2809.17967	9804.7875
2811.72571	9773.8875
2814.27018	9774.5875
2816.81308	9743.9875
2819.35442	9758.7875
2821.89419	9738.7875
2824.43239	9729.7875
2826.96904	9737.9875
2829.50412	9709.6875
2832.03763	9701.8875
2834.56959	9715.1875
2837.1	9715.6875
2839.62884	9703.9875
2842.15613	9689.7875
2844.68186	9739.4875
2847.20604	9734.4875
2849.72867	9745.7875
2852.24974	9724.1875
2854.76927	9723.4875
2857.28724	9687.7875
2859.80367	9704.5875
2862.31855	9690.0875
2864.83189	9680.2875
2867.34368	9677.3875
2869.85393	9683.3875
2872.36264	9679.9875
2874.8698	9687.1875
2877.37543	9667.7875
2879.87952	9691.0875
2882.38207	9675.8875
2884.88308	9705.7875
2887.38256	9699.7875
2889.88051	9690.2875
2892.37692	9706.9875
2894.8718	9696.4875
2897.36515	9736.1875
2899.85698	9709.4875
2902.34727	9761.9875
2904.83604	9757.0875
2907.32328	9789.6875
2909.809	9765.9875
2912.29319	9783.3875
2914.77587	9782.8875
2917.25702	9790.7875
2919.73665	9763.9875
2922.21476	9771.0875
2924.69136	9745.6875
2927.16644	9723.3875
2929.64	9730.5875
2932.11205	9721.3875
2934.58258	9685.0875
2937.05161	9687.6875
2939.51912	9720.1875
2941.98513	9678.8875
2944.44962	9677.5875
2946.91261	9624.3875
2949.37409	9639.6875
2951.83407	9613.5875
2954.29254	9582.0875
2956.74951	9591.2875
2959.20498	9572.5875
2961.65895	9585.0875
2964.11142	9598.9875
2966.56239	9578.0875
2969.01186	9549.6875
2971.45984	9529.7875
2973.90632	9529.0875
2976.35131	9488.8875
2978.7948	9481.8875
2981.23681	9460.7875
2983.67732	9451.4875
2986.11635	9429.0875
2988.55388	9383.6875
2990.98993	9356.0875
2993.4245	9340.4875
2995.85758	9325.9875
2998.28917	9295.6875
3000.71928	9275.6875
3003.14791	9272.7875
3005.57506	9269.1875
3008.00073	9259.0875
3010.42493	9229.7875
3012.84764	9221.1875
3015.26888	9244.6875
3017.68865	9212.6875
3020.10694	9205.7875
3022.52376	9190.8875
3024.9391	9168.4875
3027.35298	9186.3875
3029.76539	9185.3875
3032.17632	9164.5875
3034.5858	9139.1875
3036.9938	9153.8875
3039.40034	9149.8875
3041.80542	9154.6875
3044.20903	9120.7875
3046.61118	9123.9875
3049.01187	9093.0875
3051.4111	9082.0875
3053.80888	9090.3875
3056.20519	9076.4875
3058.60005	9033.2875
3060.99345	9036.5875
3063.3854	9025.3875
3065.7759	8957.0875
3068.16494	8994.2875
3070.55254	8940.9875
3072.93868	8958.9875
3075.32338	8918.0875
3077.70662	8924.5875
3080.08842	8928.5875
3082.46878	8912.1875
3084.84769	8852.4875
3087.22515	8872.8875
3089.60118	8854.9875
3091.97576	8875.3875
3094.3489	8891.8875
3096.72061	8881.1875
3099.09087	8884.9875
3101.4597	8872.7875
3103.82709	8868.7875
3106.19305	8859.2875
3108.55757	8884.2875
3110.92066	8872.9875
3113.28232	8855.3875
3115.64255	8818.0875
3118.00134	8815.0875
3120.35871	8827.0875
3122.71466	8794.0875
3125.06917	8790.2875
3127.42226	8776.1875
3129.77393	8786.7875
3132.12417	8759.9875
3134.47299	8770.6875
3136.82039	8748.9875
3139.16636	8753.0875
3141.51092	8781.3875
3143.85406	8767.6875
3146.19579	8768.3875
3148.53609	8773.4875
3150.87499	8786.0875
3153.21246	8810.3875
3155.54853	8818.4875
3157.88318	8805.7875
3160.21642	8833.2875
3162.54826	8799.6875
3164.87868	8804.7875
3167.2077	8827.7875
3169.5353	8827.3875
3171.86151	8819.2875
3174.18631	8822.4875
3176.5097	8816.9875
3178.83169	8812.3875
3181.15228	8797.5875
3183.47147	8768.3875
3185.78926	8790.3875
3188.10565	8773.0875
3190.42065	8786.0875
3192.73424	8767.1875
3195.04645	8753.2875
3197.35725	8790.8875
3199.66667	8782.1875
3201.97469	8804.7875
3204.28132	8782.2875
3206.58656	8813.2875
3208.8904	8834.9875
3211.19287	8822.9875
3213.49394	8814.4875
3215.79363	8835.2875
3218.09193	8839.0875
3220.38884	8811.6875
3222.68438	8827.2875
3224.97853	8809.6875
3227.2713	8827.1875
3229.56269	8802.9875
3231.8527	8804.9875
3234.14133	8793.1875
3236.42858	8777.6875
3238.71446	8769.9875
3240.99896	8738.7875
3243.28209	8765.2875
3245.56384	8764.6875
3247.84423	8746.0875
3250.12324	8750.7875
3252.40088	8747.3875
3254.67715	8741.3875
3256.95205	8737.4875
3259.22558	8739.5875
3261.49775	8718.9875
3263.76855	8723.7875
3266.03799	8692.7875
3268.30606	8689.2875
3270.57277	8684.2875
3272.83812	8659.2875
3275.10211	8671.7875
3277.36474	8632.6875
3279.62601	8619.4875
3281.88593	8600.7875
3284.14448	8636.1875
3286.40168	8664.5875
3288.65753	8647.1875
3290.91202	8630.7875
3293.16516	8598.5875
3295.41695	8590.3875
3297.66738	8540.6875
3299.91647	8516.7875
3302.16421	8464.4875
3304.4106	8429.7875
3306.65564	8383.7875
3308.89933	8341.1875
3311.14169	8288.4875
3313.38269	8213.7875
3315.62236	8178.0875
3317.86068	8120.8875
3320.09766	8064.8875
3322.3333	8006.1875
3324.5676	8017.9875
3326.80056	7886.4875
3329.03219	7816.0875
3331.26248	1.4875
3333.49143	0.6875
3335.71905	-0.3125
