Data from AgNPs_FTO_APTES_UA_1uM_CRN_2uM_R6G_10uM_NaF_0.1M_Addition_RamanShift__14__13-11-39-546.txt Node

Date: Thu Jan 27 13:11:39 GMT 2022
User: TCL
Spectrometer: QEP01345
Trigger mode: 4
Integration Time (sec): 7.000000E0
Scans to average: 10
Electric dark correction enabled: true
Nonlinearity correction enabled: false
Boxcar width: 0
XAxis mode: Raman Shifts
Number of Pixels in Spectrum: 1044
>>>>>Begin Spectral Data<<<<<
46.04893	0.2
50.45542	0.2
54.85868	-0.6
59.25871	-1.2
63.6555	65
68.04907	66
72.43941	67.4
76.82654	74.2
81.21044	70.4
85.59113	77.6
89.96862	81.1
94.34289	84.6
98.71396	85.6
103.08183	86.8
107.4465	89.4
111.80798	90.5
116.16626	95.2
120.52136	98.3
124.87327	102.1
129.222	105.5
133.56755	111.7
137.90993	117.6
142.24913	127.5
146.58517	146.1
150.91804	169.7
155.24774	199.4
159.57429	243.7
163.89768	307.8
168.21792	414.8
172.53501	559.1
176.84895	773.3
181.15975	1084.2
185.46741	1527.7
189.77193	2113.4
194.07331	2855.9
198.37157	3681.4
202.6667	4565
206.9587	5444.3
211.24758	6299.8
215.53334	7143.1
219.81599	8036.2
224.09553	8998.5
228.37195	10040.8
232.64527	11219.1
236.91549	12487.5
241.18261	13793.8
245.44663	15051.6
249.70755	16246.4
253.96539	17260
258.22014	18144.2
262.4718	18857.6
266.72039	19304.2
270.96589	19531.7
275.20832	19612.7
279.44768	19491.7
283.68397	19290.4
287.91719	19079.2
292.14735	18886.4
296.37445	18725.4
300.59849	18675.6
304.81948	18678.5
309.03742	18629.6
313.25231	18522
317.46415	18346.7
321.67296	18079.2
325.87872	17843.6
330.08145	17747.6
334.28114	17800.9
338.47781	17989
342.67145	18144.3
346.86207	18401.3
351.04966	18676.3
355.23424	18972.4
359.4158	19206.8
363.59435	19453.1
367.76989	19665.3
371.94243	19779.5
376.11196	19869.1
380.27849	19987
384.44203	20064.7
388.60257	20202.1
392.76012	20354.1
396.91468	20630.1
401.06626	20881.9
405.21485	21018.4
409.36047	21048.9
413.50311	20896
417.64277	20753.8
421.77947	20787.1
425.9132	20876.3
430.04396	20994.2
434.17176	21104.5
438.2966	21210.2
442.41849	21385.5
446.53742	21644.7
450.6534	21930.3
454.76644	22166.2
458.87653	22261.8
462.98368	22272.3
467.08789	22240.5
471.18916	22138.8
475.2875	21943.8
479.38291	21823.2
483.4754	21727.8
487.56496	21624.3
491.6516	21495.5
495.73531	21383.2
499.81612	21338
503.89401	21446.1
507.96899	21572.8
512.04106	21633.2
516.11023	21585.6
520.1765	21501.3
524.23987	21375.1
528.30034	21241.7
532.35792	21157.2
536.41261	21066.5
540.46441	20896.4
544.51333	20854
548.55936	20986.7
552.60252	21229
556.64279	21503.3
560.6802	21683.1
564.71473	21770.3
568.7464	21900.1
572.7752	22211.5
576.80114	22627.6
580.82422	23015.8
584.84444	23521.6
588.86181	24056.8
592.87633	24474.6
596.888	24434.1
600.89682	24030.4
604.9028	23948.4
608.90594	24859.7
612.90624	26018.6
616.90371	25132.3
620.89834	22764
624.89015	21636.2
628.87913	21568.7
632.86528	21668.1
636.84862	21764.2
640.82913	21580.4
644.80683	21278.7
648.78172	21062.3
652.75379	21005.9
656.72306	21165.3
660.68952	21370.9
664.65319	21409.3
668.61405	21239.7
672.57211	21179.2
676.52738	21246.7
680.47986	21220
684.42955	21144.8
688.37646	21118.7
692.32058	21119
696.26192	21271.5
700.20048	21461
704.13626	21547.2
708.06928	21604.1
711.99952	21605.3
715.927	21547.6
719.85171	21525.6
723.77365	21469.1
727.69284	21358.8
731.60928	21172.6
735.52295	21104.4
739.43388	21085.1
743.34206	21124.4
747.24749	21165.8
751.15017	21292.2
755.05012	21510.4
758.94733	21798.1
762.8418	22343.9
766.73354	23245.1
770.62254	24082.6
774.50882	24372.2
778.39237	23856.3
782.27321	22980.5
786.15132	22230.8
790.02671	21683
793.89938	21365.9
797.76935	21210.5
801.6366	21121.1
805.50115	21083.5
809.36299	21018.5
813.22213	20958.3
817.07857	20920.6
820.93231	20897.7
824.78336	20863.5
828.63172	20846.1
832.47738	20828.7
836.32036	20846.7
840.16066	20818
843.99827	20819.8
847.8332	20753.6
851.66546	20760.1
855.49504	20828.8
859.32195	20818.3
863.1462	20815.2
866.96777	20848.2
870.78668	20874.2
874.60293	20871.4
878.41652	20871.3
882.22745	20935.2
886.03573	20986.7
889.84136	21018.6
893.64433	20940
897.44466	20930.4
901.24235	20913
905.0374	20855.3
908.8298	20819.2
912.61957	20817.5
916.40671	20926.5
920.19121	21020.4
923.97308	21150.2
927.75233	21165
931.52895	21077.8
935.30295	20911.5
939.07433	20743.6
942.84309	20512.6
946.60924	20449.2
950.37278	20387.6
954.13371	20379
957.89203	20346.1
961.64774	20287.9
965.40086	20248.9
969.15137	20240.3
972.89929	20180
976.64461	20153.4
980.38733	20133.1
984.12747	20140.5
987.86502	20154.5
991.59999	20225.3
995.33237	20308.6
999.06217	20448.5
1002.78939	20657.2
1006.51404	20841.1
1010.23611	21066.7
1013.95561	21260.7
1017.67255	21287.2
1021.38692	21138.8
1025.09872	20975.3
1028.80796	20784.5
1032.51465	20711.7
1036.21877	20718.5
1039.92035	20782.5
1043.61937	20862.4
1047.31584	20879.6
1051.00976	20925.7
1054.70114	20984.4
1058.38998	21044.1
1062.07627	21188.3
1065.76003	21327
1069.44126	21545.9
1073.11995	21721.6
1076.79611	21987.2
1080.46974	22114
1084.14085	22145.1
1087.80943	22214.3
1091.47549	22308
1095.13903	22446.8
1098.80005	22321.4
1102.45857	22068.6
1106.11456	21779.7
1109.76805	21575.9
1113.41903	21495.3
1117.06751	21501.6
1120.71348	21599.3
1124.35696	21696.4
1127.99793	21839.9
1131.63641	21946.4
1135.2724	21847
1138.90589	21759.8
1142.5369	21726.3
1146.16542	21758.1
1149.79145	21803.5
1153.415	21818.8
1157.03607	21919.7
1160.65467	22144.2
1164.27079	22595.2
1167.88443	23178.7
1171.49561	23897.1
1175.10432	24734.7
1178.71056	25712.3
1182.31434	26745.1
1185.91565	27359.8
1189.51451	27535.9
1193.11091	27401
1196.70485	26916.5
1200.29634	26305.6
1203.88538	25738
1207.47197	25390.6
1211.05612	25118.5
1214.63782	24841.5
1218.21708	24446.8
1221.79391	24001.9
1225.36829	23666.5
1228.94024	23490.5
1232.50976	23368.5
1236.07685	23275.8
1239.6415	23215.9
1243.20374	23228.9
1246.76355	23309
1250.32093	23455.9
1253.8759	23682.1
1257.42845	24050
1260.97859	24485.4
1264.52631	24864.4
1268.07163	25273.4
1271.61453	25653.3
1275.15503	25992.1
1278.69312	26397.3
1282.22882	26762.4
1285.76211	27207.7
1289.29301	27724.7
1292.82151	28316.1
1296.34761	29097
1299.87133	30001.5
1303.39266	30915.9
1306.9116	31860.6
1310.42815	32606.3
1313.94233	33036.4
1317.45412	32981.6
1320.96354	32651.2
1324.47058	32389.3
1327.97525	32224.3
1331.47754	32103.8
1334.97747	32001.3
1338.47502	32036.6
1341.97022	32133.1
1345.46305	32244.3
1348.95352	32389.2
1352.44163	32410.2
1355.92738	32525.5
1359.41078	32958.6
1362.89183	33377.8
1366.37053	32936.5
1369.84688	31323.4
1373.32088	29173.8
1376.79254	27517.7
1380.26186	26723.8
1383.72883	26494.1
1387.19347	26381
1390.65578	26047.4
1394.11575	25868.1
1397.57339	25807.6
1401.0287	25961.1
1404.48168	26126.1
1407.93234	26095.2
1411.38068	25893.9
1414.82669	25468.7
1418.27039	24951.2
1421.71177	24422.4
1425.15083	23955.4
1428.58758	23714.3
1432.02203	23777.3
1435.45416	24032.7
1438.88399	24334.2
1442.31151	24569.5
1445.73673	24778.1
1449.15965	24821
1452.58027	24939.6
1455.9986	24977.4
1459.41463	25088
1462.82837	25351
1466.23982	25663.3
1469.64898	25956.2
1473.05586	26152.2
1476.46045	26243.1
1479.86276	26237.4
1483.26279	26130.8
1486.66054	26104.5
1490.05602	26200.5
1493.44922	26560.2
1496.84016	26970.8
1500.22882	27535.8
1503.61521	28269.5
1506.99934	28997.5
1510.38121	29514.8
1513.76081	29568.7
1517.13816	29113.4
1520.51324	28463.8
1523.88607	27852.5
1527.25665	27484.9
1530.62498	27214.9
1533.99105	27029.5
1537.35488	26663.1
1540.71647	26240.5
1544.07581	25800.3
1547.4329	25399.9
1550.78776	25062.4
1554.14038	24835.9
1557.49077	24795.6
1560.83892	24746.9
1564.18484	24779.8
1567.52853	24879.8
1570.86999	25009.3
1574.20922	25292.6
1577.54624	25476.2
1580.88103	25461.8
1584.2136	25489.9
1587.54395	25661
1590.87208	26228.9
1594.19801	27007.2
1597.52172	27868.9
1600.84321	28179.7
1604.16251	27512.6
1607.47959	26313.5
1610.79447	25010.2
1614.10715	23737.4
1617.41763	22652.5
1620.7259	21877.8
1624.03199	21404.7
1627.33587	21348.2
1630.63757	21596.2
1633.93707	22251.1
1637.23439	23427.7
1640.52951	25181.6
1643.82246	27293.8
1647.11321	29129.3
1650.40179	29672.2
1653.68819	28539.6
1656.97241	26054.5
1660.25446	23601.3
1663.53433	21713
1666.81203	20492.7
1670.08756	19712.4
1673.36092	19229.7
1676.63211	18943.3
1679.90115	18706.8
1683.16801	18512.1
1686.43272	18371.8
1689.69527	18236.7
1692.95567	18117.6
1696.2139	18058.6
1699.46999	18006
1702.72392	17942.9
1705.97571	17944.7
1709.22535	17953
1712.47284	17978.8
1715.71819	17954.5
1718.96139	17937.1
1722.20246	17875.2
1725.44139	17824.7
1728.67818	17787.3
1731.91284	17704.1
1735.14537	17626.8
1738.37576	17548.5
1741.60403	17518.3
1744.83017	17475.4
1748.05418	17405.3
1751.27607	17363.4
1754.49584	17323.1
1757.71349	17290.3
1760.92903	17294
1764.14244	17244.5
1767.35375	17245.7
1770.56294	17201.9
1773.77002	17196.9
1776.97499	17227.5
1780.17785	17217.5
1783.37861	17224.8
1786.57727	17157.3
1789.77382	17164.2
1792.96828	17103.8
1796.16064	17057.6
1799.3509	17023.2
1802.53907	17027
1805.72514	16965.2
1808.90913	16950.5
1812.09102	16927.5
1815.27083	16876
1818.44856	16875.5
1821.6242	16836.4
1824.79776	16826.4
1827.96924	16777.4
1831.13864	16774.2
1834.30597	16774.3
1837.47122	16764.1
1840.6344	16732.8
1843.7955	16744.1
1846.95454	16780.1
1850.11151	16767.5
1853.26642	16744.3
1856.41926	16747.7
1859.57004	16761.5
1862.71876	16728.5
1865.86542	16679.5
1869.01003	16644.9
1872.15258	16605.6
1875.29308	16617.5
1878.43152	16571.4
1881.56792	16535.4
1884.70227	16532.9
1887.83457	16484.5
1890.96482	16427.2
1894.09304	16437.6
1897.21921	16439.1
1900.34335	16413.8
1903.46544	16372.3
1906.58551	16343.8
1909.70353	16310.9
1912.81953	16303
1915.93349	16271.6
1919.04543	16224.6
1922.15534	16190.1
1925.26322	16137.9
1928.36908	16113.7
1931.47292	16099.3
1934.57473	16039
1937.67453	16009.1
1940.77232	15977.7
1943.86808	15936.8
1946.96184	15870.8
1950.05358	15815
1953.14331	15793
1956.23103	15736.9
1959.31675	15711.6
1962.40046	15646
1965.48217	15588.2
1968.56188	15536.5
1971.63959	15489
1974.7153	15428.9
1977.78901	15383.9
1980.86073	15368.4
1983.93046	15276
1986.99819	15252.9
1990.06394	15199.8
1993.1277	15154.4
1996.18947	15084.9
1999.24925	15063.5
2002.30706	15001.9
2005.36288	14947.2
2008.41672	14918.1
2011.46859	14898
2014.51848	14840.6
2017.56639	14777.5
2020.61233	14745.7
2023.6563	14714.1
2026.6983	14677
2029.73833	14644.7
2032.7764	14606.7
2035.8125	14577
2038.84664	14549.9
2041.87881	14504.1
2044.90903	14458.3
2047.93729	14418.6
2050.96359	14417.7
2053.98794	14383
2057.01034	14375.1
2060.03078	14355.1
2063.04927	14344.9
2066.06582	14369.5
2069.08042	14346.6
2072.09307	14332.1
2075.10378	14325.7
2078.11255	14286.2
2081.11938	14292.8
2084.12426	14278.6
2087.12722	14281.9
2090.12824	14289.9
2093.12732	14246.2
2096.12447	14288.4
2099.11969	14253.7
2102.11299	14296.2
2105.10435	14294.9
2108.09379	14283.8
2111.08131	14302
2114.0669	14300.4
2117.05057	14309.6
2120.03233	14283
2123.01216	14312.4
2125.99008	14300.7
2128.96609	14326.1
2131.94018	14328.3
2134.91236	14323.1
2137.88263	14343.4
2140.851	14315.3
2143.81746	14349.1
2146.78201	14341.7
2149.74466	14349.6
2152.7054	14364
2155.66425	14335.7
2158.6212	14322.5
2161.57625	14301.8
2164.52941	14336.2
2167.48067	14341.4
2170.43004	14315.3
2173.37752	14277.6
2176.32311	14242.8
2179.26681	14231.5
2182.20863	14229.7
2185.14856	14244.7
2188.08661	14275.8
2191.02278	14261.4
2193.95707	14243.4
2196.88948	14210.9
2199.82001	14218.6
2202.74867	14183
2205.67545	14197.7
2208.60037	14148.9
2211.52341	14104.3
2214.44458	14098.7
2217.36388	14058.1
2220.28132	14045
2223.1969	14021
2226.11061	14015.2
2229.02246	13960.2
2231.93245	13947.6
2234.84058	13897.8
2237.74686	13860.7
2240.65128	13865.9
2243.55385	13849.1
2246.45456	13842.8
2249.35343	13803
2252.25044	13760.1
2255.14561	13758.3
2258.03893	13706
2260.93041	13711.4
2263.82004	13676.2
2266.70783	13632
2269.59378	13623.4
2272.4779	13573.9
2275.36017	13541.5
2278.24061	13526.4
2281.11922	13475.7
2283.996	13493
2286.87094	13460.3
2289.74405	13400.1
2292.61534	13391.6
2295.4848	13342.3
2298.35243	13386.1
2301.21824	13378.3
2304.08223	13342.8
2306.94439	13314.5
2309.80474	13328.6
2312.66327	13316.5
2315.51999	13277
2318.37489	13279.3
2321.22797	13242.9
2324.07925	13217.5
2326.92871	13200.7
2329.77637	13189.8
2332.62222	13131.5
2335.46626	13140.2
2338.3085	13077.6
2341.14893	13076.4
2343.98756	13065.8
2346.8244	13055.8
2349.65943	13043.1
2352.49267	13029.5
2355.32411	13018.1
2358.15376	12989.3
2360.98161	13000.1
2363.80768	13001
2366.63195	12984.9
2369.45444	12985.4
2372.27514	12948.6
2375.09405	12931.8
2377.91118	12913.1
2380.72652	12893.8
2383.54009	12844
2386.35187	12832.2
2389.16188	12784.3
2391.97011	12785.2
2394.77657	12749.1
2397.58125	12717.8
2400.38416	12677.5
2403.18529	12667.9
2405.98466	12665.6
2408.78226	12642
2411.57809	12607.1
2414.37216	12588
2417.16446	12585.9
2419.955	12554.3
2422.74378	12594.1
2425.5308	12567.3
2428.31606	12544.8
2431.09956	12499.3
2433.88131	12495.7
2436.6613	12502.1
2439.43954	12508.1
2442.21603	12466.6
2444.99077	12433.3
2447.76377	12432.5
2450.53501	12437
2453.30451	12412.2
2456.07226	12390.2
2458.83827	12378.3
2461.60254	12344
2464.36507	12385.4
2467.12586	12324.4
2469.88492	12326.2
2472.64224	12324.6
2475.39782	12326.5
2478.15167	12280
2480.90379	12293.5
2483.65417	12293.8
2486.40283	12271.4
2489.14976	12263.8
2491.89497	12253.2
2494.63845	12229.5
2497.3802	12218
2500.12024	12202.7
2502.85855	12214.3
2505.59514	12194.5
2508.33002	12160.6
2511.06318	12177.1
2513.79462	12139.9
2516.52435	12095.3
2519.25237	12099.9
2521.97867	12076.9
2524.70327	12081.2
2527.42616	12043.3
2530.14734	12049.4
2532.86681	12039.7
2535.58458	11997
2538.30065	11996.8
2541.01501	11991.5
2543.72768	11969.4
2546.43864	11943.3
2549.14791	11919.9
2551.85548	11904.8
2554.56136	11869.3
2557.26554	11837.5
2559.96803	11827.3
2562.66883	11800.7
2565.36794	11816.7
2568.06536	11778.8
2570.7611	11773.8
2573.45514	11720.1
2576.14751	11682.6
2578.83819	11694.7
2581.52719	11685.9
2584.21451	11643.7
2586.90015	11611.9
2589.58411	11593
2592.2664	11578.7
2594.94701	11550.4
2597.62594	11542
2600.30321	11517.3
2602.9788	11513.5
2605.65273	11493
2608.32498	11494.7
2610.99557	11453.9
2613.66449	11466.1
2616.33175	11426.9
2618.99734	11432.2
2621.66128	11420.7
2624.32355	11368.8
2626.98416	11372.5
2629.64311	11369.4
2632.30041	11342.5
2634.95605	11321.2
2637.61004	11300.3
2640.26238	11280.3
2642.91306	11284.2
2645.56209	11288.5
2648.20948	11254
2650.85521	11266.4
2653.4993	11259.3
2656.14175	11238.4
2658.78255	11239.4
2661.42171	11243.9
2664.05923	11243
2666.6951	11262.4
2669.32934	11266.9
2671.96194	11241.4
2674.59291	11243.7
2677.22224	11217.3
2679.84993	11243.2
2682.476	11230.4
2685.10043	11188.4
2687.72324	11211.7
2690.34441	11198.4
2692.96396	11182.2
2695.58188	11204.9
2698.19818	11187.5
2700.81285	11190
2703.4259	11212.5
2706.03733	11180
2708.64714	11134.3
2711.25533	11164.2
2713.86191	11170.2
2716.46687	11168.8
2719.07021	11166.3
2721.67194	11197.3
2724.27206	11182.1
2726.87057	11163.6
2729.46747	11186.1
2732.06276	11190.4
2734.65644	11152
2737.24852	11133
2739.83899	11130.5
2742.42786	11119.8
2745.01513	11093.1
2747.60079	11082.4
2750.18486	11075.6
2752.76733	11085.7
2755.3482	11023.9
2757.92747	11048
2760.50515	11003.8
2763.08123	10986.2
2765.65573	10991.7
2768.22863	10992.4
2770.79994	10973
2773.36967	10956.1
2775.9378	10943.9
2778.50435	10913.9
2781.06932	10899.9
2783.6327	10904.8
2786.1945	10874.6
2788.75471	10875.9
2791.31335	10819.2
2793.87041	10811.9
2796.42589	10749.8
2798.97979	10762.9
2801.53212	10731.3
2804.08288	10717.7
2806.63206	10682.1
2809.17967	10645.1
2811.72571	10621.6
2814.27018	10617.7
2816.81308	10609.9
2819.35442	10574.2
2821.89419	10568
2824.43239	10559.5
2826.96904	10531
2829.50412	10531.5
2832.03763	10512.6
2834.56959	10517
2837.1	10479.9
2839.62884	10480.1
2842.15613	10463.7
2844.68186	10483
2847.20604	10491.9
2849.72867	10475.3
2852.24974	10470.6
2854.76927	10467.8
2857.28724	10434.2
2859.80367	10423.6
2862.31855	10400.2
2864.83189	10374
2867.34368	10366.3
2869.85393	10340.4
2872.36264	10317.6
2874.8698	10319.7
2877.37543	10310.3
2879.87952	10318.9
2882.38207	10289.7
2884.88308	10260.5
2887.38256	10284.3
2889.88051	10282
2892.37692	10270
2894.8718	10247.8
2897.36515	10275.5
2899.85698	10261.3
2902.34727	10273
2904.83604	10259
2907.32328	10295.1
2909.809	10280
2912.29319	10268.6
2914.77587	10281.6
2917.25702	10268.3
2919.73665	10253.7
2922.21476	10225
2924.69136	10242.7
2927.16644	10243.7
2929.64	10224.7
2932.11205	10216.5
2934.58258	10197.8
2937.05161	10182.2
2939.51912	10191
2941.98513	10160.7
2944.44962	10140.6
2946.91261	10091.2
2949.37409	10123.6
2951.83407	10119.5
2954.29254	10114.3
2956.74951	10074.1
2959.20498	10082.1
2961.65895	10085.4
2964.11142	10054
2966.56239	10044
2969.01186	10058.9
2971.45984	10009.4
2973.90632	9996
2976.35131	9995.4
2978.7948	9953.6
2981.23681	9924.9
2983.67732	9930.4
2986.11635	9907.2
2988.55388	9864
2990.98993	9835.4
2993.4245	9830
2995.85758	9806
2998.28917	9782.1
3000.71928	9766.4
3003.14791	9753.4
3005.57506	9740
3008.00073	9700.6
3010.42493	9715.4
3012.84764	9686.7
3015.26888	9667.2
3017.68865	9669.2
3020.10694	9652.4
3022.52376	9626
3024.9391	9603.6
3027.35298	9607.3
3029.76539	9575.7
3032.17632	9570.8
3034.5858	9538.3
3036.9938	9538.3
3039.40034	9529.3
3041.80542	9527.7
3044.20903	9496.9
3046.61118	9486.1
3049.01187	9462.6
3051.4111	9458.6
3053.80888	9436.7
3056.20519	9429.7
3058.60005	9384.3
3060.99345	9371.8
3063.3854	9346.7
3065.7759	9322
3068.16494	9322.1
3070.55254	9287.1
3072.93868	9301.6
3075.32338	9238.7
3077.70662	9235.9
3080.08842	9225.2
3082.46878	9182
3084.84769	9201.4
3087.22515	9194
3089.60118	9186.1
3091.97576	9176.6
3094.3489	9153.3
3096.72061	9177.1
3099.09087	9156.5
3101.4597	9137
3103.82709	9140.5
3106.19305	9144.6
3108.55757	9145.3
3110.92066	9098.7
3113.28232	9087.3
3115.64255	9057.6
3118.00134	9056.4
3120.35871	9044.3
3122.71466	9007.2
3125.06917	9003.4
3127.42226	8966.5
3129.77393	8975.8
3132.12417	8948.9
3134.47299	8952.6
3136.82039	8962.9
3139.16636	8958.7
3141.51092	8963.5
3143.85406	8980
3146.19579	8960.8
3148.53609	8972.1
3150.87499	8967.1
3153.21246	8968.6
3155.54853	8969.9
3157.88318	8953
3160.21642	8927.2
3162.54826	8940.4
3164.87868	8936
3167.2077	8954.3
3169.5353	8949.8
3171.86151	8952.7
3174.18631	8948.7
3176.5097	8924.2
3178.83169	8896.8
3181.15228	8921.8
3183.47147	8870.2
3185.78926	8861.2
3188.10565	8864.6
3190.42065	8841.3
3192.73424	8839.6
3195.04645	8833.9
3197.35725	8827.6
3199.66667	8819.2
3201.97469	8816.6
3204.28132	8815.4
3206.58656	8810.5
3208.8904	8818.5
3211.19287	8829.6
3213.49394	8831.7
3215.79363	8831.7
3218.09193	8832
3220.38884	8811.9
3222.68438	8811.4
3224.97853	8789.4
3227.2713	8784.4
3229.56269	8769.6
3231.8527	8776.3
3234.14133	8761.2
3236.42858	8752.1
3238.71446	8726.7
3240.99896	8695.7
3243.28209	8710.9
3245.56384	8680.8
3247.84423	8679.5
3250.12324	8681.5
3252.40088	8656.8
3254.67715	8669.6
3256.95205	8665.1
3259.22558	8651.7
3261.49775	8644.7
3263.76855	8605
3266.03799	8590.2
3268.30606	8584.3
3270.57277	8566.9
3272.83812	8554.6
3275.10211	8520.4
3277.36474	8493.5
3279.62601	8490.3
3281.88593	8469.7
3284.14448	8498.4
3286.40168	8499.9
3288.65753	8499.3
3290.91202	8480.3
3293.16516	8443.3
3295.41695	8411.8
3297.66738	8331.7
3299.91647	8316.3
3302.16421	8265.4
3304.4106	8244.5
3306.65564	8185.5
3308.89933	8150.2
3311.14169	8079
3313.38269	8012.8
3315.62236	7969.4
3317.86068	7901.5
3320.09766	7859.5
3322.3333	7803.8
3324.5676	7767.8
3326.80056	7631.2
3329.03219	7598.8
3331.26248	2.2
3333.49143	0.4
3335.71905	-0.4
