Data from AgNPs_FTO_APTES_UA_1uM_CRN_10uM_R6G_10uM_NaF_0.1M_Addition_RamanShift__22__14-41-29-649.txt Node

Date: Thu Jan 27 14:41:29 GMT 2022
User: TCL
Spectrometer: QEP01345
Trigger mode: 4
Integration Time (sec): 7.000000E0
Scans to average: 10
Electric dark correction enabled: true
Nonlinearity correction enabled: false
Boxcar width: 0
XAxis mode: Raman Shifts
Number of Pixels in Spectrum: 1044
>>>>>Begin Spectral Data<<<<<
46.04893	1.5375
50.45542	1.3375
54.85868	-2.6625
59.25871	-1.4625
63.6555	48.1375
68.04907	52.3375
72.43941	54.8375
76.82654	54.4375
81.21044	61.4375
85.59113	58.2375
89.96862	61.3375
94.34289	65.2375
98.71396	68.0375
103.08183	67.8375
107.4465	76.5375
111.80798	73.4375
116.16626	76.1375
120.52136	79.9375
124.87327	76.9375
129.222	77.3375
133.56755	80.7375
137.90993	87.3375
142.24913	96.6375
146.58517	104.8375
150.91804	121.1375
155.24774	142.9375
159.57429	171.0375
163.89768	216.1375
168.21792	283.0375
172.53501	380.9375
176.84895	523.7375
181.15975	726.2375
185.46741	1022.3375
189.77193	1410.5375
194.07331	1889.5375
198.37157	2425.9375
202.6667	2996.0375
206.9587	3565.4375
211.24758	4114.7375
215.53334	4688.5375
219.81599	5283.3375
224.09553	5942.3375
228.37195	6672.1375
232.64527	7491.0375
236.91549	8354.1375
241.18261	9200.0375
245.44663	9987.3375
249.70755	10652.8375
253.96539	11266.0375
258.22014	11794.4375
262.4718	12270.9375
266.72039	12594.5375
270.96589	12811.8375
275.20832	12837.7375
279.44768	12808.5375
283.68397	12728.9375
287.91719	12635.7375
292.14735	12604.7375
296.37445	12642.0375
300.59849	12783.8375
304.81948	12888.9375
309.03742	12888.4375
313.25231	12726.3375
317.46415	12351.8375
321.67296	11886.1375
325.87872	11495.5375
330.08145	11305.3375
334.28114	11307.3375
338.47781	11416.1375
342.67145	11593.0375
346.86207	11847.2375
351.04966	12193.4375
355.23424	12542.6375
359.4158	12828.8375
363.59435	13056.2375
367.76989	13152.4375
371.94243	13209.2375
376.11196	13282.5375
380.27849	13342.3375
384.44203	13386.0375
388.60257	13425.2375
392.76012	13486.9375
396.91468	13656.6375
401.06626	13894.3375
405.21485	14064.0375
409.36047	14010.6375
413.50311	13737.5375
417.64277	13514.1375
421.77947	13430.9375
425.9132	13429.8375
430.04396	13568.9375
434.17176	13588.0375
438.2966	13702.9375
442.41849	13946.2375
446.53742	14261.0375
450.6534	14668.5375
454.76644	14987.3375
458.87653	15128.8375
462.98368	15124.7375
467.08789	14966.2375
471.18916	14723.4375
475.2875	14470.1375
479.38291	14322.2375
483.4754	14211.5375
487.56496	14058.7375
491.6516	13858.9375
495.73531	13675.9375
499.81612	13605.2375
503.89401	13670.4375
507.96899	13689.1375
512.04106	13706.0375
516.11023	13711.3375
520.1765	13703.7375
524.23987	13598.0375
528.30034	13463.8375
532.35792	13299.1375
536.41261	13156.3375
540.46441	12999.7375
544.51333	12988.9375
548.55936	13131.8375
552.60252	13396.7375
556.64279	13665.4375
560.6802	13843.4375
564.71473	13892.0375
568.7464	14110.9375
572.7752	14373.5375
576.80114	14467.9375
580.82422	14559.2375
584.84444	14661.0375
588.86181	14730.6375
592.87633	14903.4375
596.888	15030.3375
600.89682	15249.9375
604.9028	15885.8375
608.90594	17676.2375
612.90624	19731.1375
616.90371	18935.1375
620.89834	15548.7375
624.89015	13990.6375
628.87913	13794.2375
632.86528	13814.3375
636.84862	13736.9375
640.82913	13523.7375
644.80683	13132.7375
648.78172	12838.8375
652.75379	12797.3375
656.72306	12986.9375
660.68952	13276.6375
664.65319	13280.4375
668.61405	12985.6375
672.57211	12863.3375
676.52738	12876.5375
680.47986	12860.0375
684.42955	12821.2375
688.37646	12785.2375
692.32058	12831.9375
696.26192	12949.5375
700.20048	13077.9375
704.13626	13151.0375
708.06928	13099.3375
711.99952	13016.9375
715.927	12985.2375
719.85171	12994.4375
723.77365	12957.1375
727.69284	12822.6375
731.60928	12745.7375
735.52295	12696.9375
739.43388	12728.5375
743.34206	12781.7375
747.24749	12840.2375
751.15017	12980.3375
755.05012	13188.9375
758.94733	13551.3375
762.8418	14305.7375
766.73354	15495.1375
770.62254	16699.6375
774.50882	17150.7375
778.39237	16416.8375
782.27321	15066.5375
786.15132	13908.2375
790.02671	13265.1375
793.89938	12974.0375
797.76935	12855.8375
801.6366	12812.4375
805.50115	12755.7375
809.36299	12678.9375
813.22213	12625.1375
817.07857	12609.4375
820.93231	12611.8375
824.78336	12586.4375
828.63172	12623.6375
832.47738	12622.9375
836.32036	12671.4375
840.16066	12684.8375
843.99827	12740.4375
847.8332	12693.2375
851.66546	12623.5375
855.49504	12576.6375
859.32195	12548.9375
863.1462	12518.2375
866.96777	12439.4375
870.78668	12424.5375
874.60293	12412.6375
878.41652	12404.8375
882.22745	12459.9375
886.03573	12516.5375
889.84136	12521.7375
893.64433	12454.3375
897.44466	12384.2375
901.24235	12349.6375
905.0374	12328.1375
908.8298	12306.4375
912.61957	12319.8375
916.40671	12439.3375
920.19121	12570.3375
923.97308	12743.1375
927.75233	12806.7375
931.52895	12826.9375
935.30295	12700.1375
939.07433	12493.4375
942.84309	12291.7375
946.60924	12195.0375
950.37278	12150.0375
954.13371	12053.4375
957.89203	11982.1375
961.64774	11942.0375
965.40086	11902.6375
969.15137	11860.2375
972.89929	11805.5375
976.64461	11772.2375
980.38733	11770.6375
984.12747	11849.8375
987.86502	11946.8375
991.59999	12137.4375
995.33237	12405.0375
999.06217	12812.0375
1002.78939	13310.8375
1006.51404	13649.9375
1010.23611	13759.7375
1013.95561	13823.4375
1017.67255	13872.0375
1021.38692	13740.9375
1025.09872	13670.8375
1028.80796	13826.3375
1032.51465	14350.8375
1036.21877	14828.1375
1039.92035	14855.0375
1043.61937	14544.9375
1047.31584	14070.1375
1051.00976	13592.3375
1054.70114	13333.4375
1058.38998	13242.8375
1062.07627	13275.2375
1065.76003	13290.4375
1069.44126	13331.9375
1073.11995	13473.7375
1076.79611	13560.9375
1080.46974	13639.3375
1084.14085	13736.5375
1087.80943	13897.8375
1091.47549	13953.0375
1095.13903	13887.8375
1098.80005	13678.5375
1102.45857	13404.7375
1106.11456	13268.3375
1109.76805	13245.5375
1113.41903	13324.4375
1117.06751	13477.5375
1120.71348	13661.2375
1124.35696	13837.4375
1127.99793	14061.3375
1131.63641	14134.6375
1135.2724	13956.7375
1138.90589	13722.1375
1142.5369	13614.4375
1146.16542	13537.5375
1149.79145	13484.4375
1153.415	13588.5375
1157.03607	13713.0375
1160.65467	13972.7375
1164.27079	14429.3375
1167.88443	15078.3375
1171.49561	16007.1375
1175.10432	17273.9375
1178.71056	18914.6375
1182.31434	20431.4375
1185.91565	21237.3375
1189.51451	21293.7375
1193.11091	20633.7375
1196.70485	19574.1375
1200.29634	18606.4375
1203.88538	17861.5375
1207.47197	17238.4375
1211.05612	16741.6375
1214.63782	16431.7375
1218.21708	16315.3375
1221.79391	16279.3375
1225.36829	16326.4375
1228.94024	16274.8375
1232.50976	16105.2375
1236.07685	15968.7375
1239.6415	15834.0375
1243.20374	15818.2375
1246.76355	15856.2375
1250.32093	16031.0375
1253.8759	16420.0375
1257.42845	16890.4375
1260.97859	17295.4375
1264.52631	17694.5375
1268.07163	18092.9375
1271.61453	18595.6375
1275.15503	19143.3375
1278.69312	19757.0375
1282.22882	20220.2375
1285.76211	20613.0375
1289.29301	21018.6375
1292.82151	21528.6375
1296.34761	22259.4375
1299.87133	23338.8375
1303.39266	24646.6375
1306.9116	26366.9375
1310.42815	28191.3375
1313.94233	29416.6375
1317.45412	29445.2375
1320.96354	28660.6375
1324.47058	27627.3375
1327.97525	26803.6375
1331.47754	26207.5375
1334.97747	25991.3375
1338.47502	26085.3375
1341.97022	26261.2375
1345.46305	26256.2375
1348.95352	26011.8375
1352.44163	25858.8375
1355.92738	26255.0375
1359.41078	27562.9375
1362.89183	29131.1375
1366.37053	28741.9375
1369.84688	26191.7375
1373.32088	23233.5375
1376.79254	21224.4375
1380.26186	20297.7375
1383.72883	20017.8375
1387.19347	19860.8375
1390.65578	19643.3375
1394.11575	19583.0375
1397.57339	19796.7375
1401.0287	20210.4375
1404.48168	20617.1375
1407.93234	20893.3375
1411.38068	21004.6375
1414.82669	20698.2375
1418.27039	20103.6375
1421.71177	19344.6375
1425.15083	18692.9375
1428.58758	18286.3375
1432.02203	18221.7375
1435.45416	18405.2375
1438.88399	18680.6375
1442.31151	18949.4375
1445.73673	19176.8375
1449.15965	19429.9375
1452.58027	19558.0375
1455.9986	19630.7375
1459.41463	19678.7375
1462.82837	19884.6375
1466.23982	20244.7375
1469.64898	20621.5375
1473.05586	20818.3375
1476.46045	20910.0375
1479.86276	20892.7375
1483.26279	20864.6375
1486.66054	20876.6375
1490.05602	20999.2375
1493.44922	21280.0375
1496.84016	21562.5375
1500.22882	21965.4375
1503.61521	22671.3375
1506.99934	23597.7375
1510.38121	24658.4375
1513.76081	25187.0375
1517.13816	24706.6375
1520.51324	23476.1375
1523.88607	22169.7375
1527.25665	21225.1375
1530.62498	20694.0375
1533.99105	20372.1375
1537.35488	20145.5375
1540.71647	19991.7375
1544.07581	19799.5375
1547.4329	19593.4375
1550.78776	19394.9375
1554.14038	19217.7375
1557.49077	19238.4375
1560.83892	19295.1375
1564.18484	19328.3375
1567.52853	19317.5375
1570.86999	19321.6375
1574.20922	19515.1375
1577.54624	19548.1375
1580.88103	19448.3375
1584.2136	19445.4375
1587.54395	19733.9375
1590.87208	20567.7375
1594.19801	21799.3375
1597.52172	23121.7375
1600.84321	23684.0375
1604.16251	22892.4375
1607.47959	21278.5375
1610.79447	19538.0375
1614.10715	17962.0375
1617.41763	16694.8375
1620.7259	15785.7375
1624.03199	15360.4375
1627.33587	15352.5375
1630.63757	15744.2375
1633.93707	16599.2375
1637.23439	17871.5375
1640.52951	19423.7375
1643.82246	21005.0375
1647.11321	22249.2375
1650.40179	22608.5375
1653.68819	21462.3375
1656.97241	19149.3375
1660.25446	16735.0375
1663.53433	14907.1375
1666.81203	13694.4375
1670.08756	12995.2375
1673.36092	12530.4375
1676.63211	12243.2375
1679.90115	12014.9375
1683.16801	11856.9375
1686.43272	11725.5375
1689.69527	11635.6375
1692.95567	11539.2375
1696.2139	11482.6375
1699.46999	11429.0375
1702.72392	11382.5375
1705.97571	11357.2375
1709.22535	11395.4375
1712.47284	11405.0375
1715.71819	11394.7375
1718.96139	11403.3375
1722.20246	11371.6375
1725.44139	11329.3375
1728.67818	11267.8375
1731.91284	11244.5375
1735.14537	11163.4375
1738.37576	11124.2375
1741.60403	11104.7375
1744.83017	11051.3375
1748.05418	11038.1375
1751.27607	10999.3375
1754.49584	10971.7375
1757.71349	10930.2375
1760.92903	10919.6375
1764.14244	10895.9375
1767.35375	10909.8375
1770.56294	10910.7375
1773.77002	10899.4375
1776.97499	10890.9375
1780.17785	10892.4375
1783.37861	10910.3375
1786.57727	10886.2375
1789.77382	10882.4375
1792.96828	10875.5375
1796.16064	10860.5375
1799.3509	10848.6375
1802.53907	10865.8375
1805.72514	10827.4375
1808.90913	10782.1375
1812.09102	10772.5375
1815.27083	10756.1375
1818.44856	10735.6375
1821.6242	10722.6375
1824.79776	10706.7375
1827.96924	10702.6375
1831.13864	10719.3375
1834.30597	10699.5375
1837.47122	10701.6375
1840.6344	10705.3375
1843.7955	10707.6375
1846.95454	10709.4375
1850.11151	10697.4375
1853.26642	10709.9375
1856.41926	10743.4375
1859.57004	10753.6375
1862.71876	10743.0375
1865.86542	10736.2375
1869.01003	10741.2375
1872.15258	10722.6375
1875.29308	10729.9375
1878.43152	10706.2375
1881.56792	10742.3375
1884.70227	10732.4375
1887.83457	10761.4375
1890.96482	10734.3375
1894.09304	10727.0375
1897.21921	10734.1375
1900.34335	10740.5375
1903.46544	10744.4375
1906.58551	10734.8375
1909.70353	10751.3375
1912.81953	10725.3375
1915.93349	10725.1375
1919.04543	10693.7375
1922.15534	10684.5375
1925.26322	10673.4375
1928.36908	10650.4375
1931.47292	10666.9375
1934.57473	10566.5375
1937.67453	10532.6375
1940.77232	10498.8375
1943.86808	10442.1375
1946.96184	10395.1375
1950.05358	10375.6375
1953.14331	10344.4375
1956.23103	10286.9375
1959.31675	10257.1375
1962.40046	10235.3375
1965.48217	10221.3375
1968.56188	10171.4375
1971.63959	10131.6375
1974.7153	10144.0375
1977.78901	10099.9375
1980.86073	10059.4375
1983.93046	10029.3375
1986.99819	10000.3375
1990.06394	9948.7375
1993.1277	9938.1375
1996.18947	9897.5375
1999.24925	9888.4375
2002.30706	9856.5375
2005.36288	9818.5375
2008.41672	9804.8375
2011.46859	9799.0375
2014.51848	9763.3375
2017.56639	9729.5375
2020.61233	9712.5375
2023.6563	9707.4375
2026.6983	9689.3375
2029.73833	9659.9375
2032.7764	9634.5375
2035.8125	9633.2375
2038.84664	9613.9375
2041.87881	9608.6375
2044.90903	9587.6375
2047.93729	9577.6375
2050.96359	9575.2375
2053.98794	9555.5375
2057.01034	9550.6375
2060.03078	9531.6375
2063.04927	9553.9375
2066.06582	9538.9375
2069.08042	9518.2375
2072.09307	9514.9375
2075.10378	9504.3375
2078.11255	9503.5375
2081.11938	9503.2375
2084.12426	9480.8375
2087.12722	9484.9375
2090.12824	9456.2375
2093.12732	9477.2375
2096.12447	9465.9375
2099.11969	9442.6375
2102.11299	9462.9375
2105.10435	9490.6375
2108.09379	9465.3375
2111.08131	9505.5375
2114.0669	9489.3375
2117.05057	9507.3375
2120.03233	9516.3375
2123.01216	9505.3375
2125.99008	9508.2375
2128.96609	9535.9375
2131.94018	9539.5375
2134.91236	9525.3375
2137.88263	9552.8375
2140.851	9537.5375
2143.81746	9550.4375
2146.78201	9564.6375
2149.74466	9567.8375
2152.7054	9569.4375
2155.66425	9553.1375
2158.6212	9575.0375
2161.57625	9578.3375
2164.52941	9562.8375
2167.48067	9559.8375
2170.43004	9559.0375
2173.37752	9581.2375
2176.32311	9559.8375
2179.26681	9560.2375
2182.20863	9555.9375
2185.14856	9554.1375
2188.08661	9592.7375
2191.02278	9602.4375
2193.95707	9588.8375
2196.88948	9571.4375
2199.82001	9568.3375
2202.74867	9573.1375
2205.67545	9575.5375
2208.60037	9559.1375
2211.52341	9558.0375
2214.44458	9542.3375
2217.36388	9520.5375
2220.28132	9544.5375
2223.1969	9508.1375
2226.11061	9516.8375
2229.02246	9467.9375
2231.93245	9503.5375
2234.84058	9457.5375
2237.74686	9439.2375
2240.65128	9410.3375
2243.55385	9417.9375
2246.45456	9383.7375
2249.35343	9384.5375
2252.25044	9361.8375
2255.14561	9362.2375
2258.03893	9351.7375
2260.93041	9344.2375
2263.82004	9298.1375
2266.70783	9307.3375
2269.59378	9266.6375
2272.4779	9250.3375
2275.36017	9233.9375
2278.24061	9209.2375
2281.11922	9198.2375
2283.996	9197.4375
2286.87094	9193.8375
2289.74405	9175.6375
2292.61534	9166.2375
2295.4848	9159.2375
2298.35243	9164.8375
2301.21824	9152.1375
2304.08223	9176.5375
2306.94439	9178.6375
2309.80474	9214.3375
2312.66327	9201.2375
2315.51999	9194.3375
2318.37489	9202.7375
2321.22797	9177.5375
2324.07925	9184.3375
2326.92871	9155.6375
2329.77637	9164.6375
2332.62222	9167.0375
2335.46626	9165.9375
2338.3085	9161.9375
2341.14893	9149.3375
2343.98756	9164.9375
2346.8244	9175.4375
2349.65943	9145.1375
2352.49267	9182.4375
2355.32411	9147.0375
2358.15376	9150.7375
2360.98161	9159.8375
2363.80768	9142.0375
2366.63195	9128.6375
2369.45444	9122.0375
2372.27514	9094.5375
2375.09405	9069.4375
2377.91118	9056.8375
2380.72652	9048.5375
2383.54009	9018.6375
2386.35187	9022.6375
2389.16188	8966.1375
2391.97011	8983.6375
2394.77657	8957.6375
2397.58125	8949.6375
2400.38416	8945.9375
2403.18529	8920.5375
2405.98466	8917.9375
2408.78226	8884.4375
2411.57809	8872.2375
2414.37216	8817.3375
2417.16446	8845.6375
2419.955	8813.2375
2422.74378	8828.1375
2425.5308	8825.6375
2428.31606	8813.7375
2431.09956	8803.6375
2433.88131	8799.9375
2436.6613	8805.0375
2439.43954	8804.3375
2442.21603	8807.1375
2444.99077	8767.5375
2447.76377	8790.1375
2450.53501	8797.9375
2453.30451	8769.3375
2456.07226	8770.2375
2458.83827	8781.1375
2461.60254	8767.7375
2464.36507	8777.2375
2467.12586	8751.0375
2469.88492	8761.1375
2472.64224	8777.9375
2475.39782	8785.1375
2478.15167	8770.7375
2480.90379	8771.6375
2483.65417	8803.9375
2486.40283	8806.1375
2489.14976	8819.0375
2491.89497	8803.4375
2494.63845	8824.7375
2497.3802	8803.7375
2500.12024	8815.4375
2502.85855	8825.5375
2505.59514	8813.8375
2508.33002	8819.9375
2511.06318	8795.5375
2513.79462	8778.9375
2516.52435	8782.7375
2519.25237	8760.4375
2521.97867	8744.4375
2524.70327	8769.0375
2527.42616	8740.8375
2530.14734	8717.3375
2532.86681	8712.1375
2535.58458	8731.3375
2538.30065	8701.2375
2541.01501	8702.1375
2543.72768	8680.0375
2546.43864	8701.7375
2549.14791	8674.3375
2551.85548	8700.3375
2554.56136	8678.0375
2557.26554	8670.2375
2559.96803	8660.3375
2562.66883	8653.8375
2565.36794	8656.6375
2568.06536	8656.4375
2570.7611	8653.8375
2573.45514	8627.6375
2576.14751	8614.6375
2578.83819	8619.8375
2581.52719	8631.7375
2584.21451	8625.5375
2586.90015	8617.2375
2589.58411	8620.5375
2592.2664	8619.0375
2594.94701	8607.2375
2597.62594	8623.5375
2600.30321	8602.5375
2602.9788	8618.7375
2605.65273	8594.6375
2608.32498	8578.9375
2610.99557	8605.3375
2613.66449	8620.3375
2616.33175	8615.0375
2618.99734	8612.6375
2621.66128	8611.5375
2624.32355	8600.2375
2626.98416	8631.1375
2629.64311	8626.1375
2632.30041	8630.8375
2634.95605	8606.3375
2637.61004	8588.8375
2640.26238	8594.4375
2642.91306	8596.9375
2645.56209	8572.1375
2648.20948	8544.1375
2650.85521	8540.3375
2653.4993	8539.0375
2656.14175	8551.9375
2658.78255	8548.1375
2661.42171	8543.4375
2664.05923	8589.8375
2666.6951	8574.0375
2669.32934	8578.9375
2671.96194	8570.1375
2674.59291	8575.2375
2677.22224	8577.8375
2679.84993	8600.4375
2682.476	8572.6375
2685.10043	8586.9375
2687.72324	8539.6375
2690.34441	8542.3375
2692.96396	8547.0375
2695.58188	8557.5375
2698.19818	8546.9375
2700.81285	8544.6375
2703.4259	8535.8375
2706.03733	8525.7375
2708.64714	8528.7375
2711.25533	8547.2375
2713.86191	8539.1375
2716.46687	8545.8375
2719.07021	8545.5375
2721.67194	8557.7375
2724.27206	8593.5375
2726.87057	8583.6375
2729.46747	8589.6375
2732.06276	8566.9375
2734.65644	8569.4375
2737.24852	8591.7375
2739.83899	8592.1375
2742.42786	8596.0375
2745.01513	8561.3375
2747.60079	8567.1375
2750.18486	8576.7375
2752.76733	8561.0375
2755.3482	8555.7375
2757.92747	8551.1375
2760.50515	8544.6375
2763.08123	8547.9375
2765.65573	8536.8375
2768.22863	8570.0375
2770.79994	8563.1375
2773.36967	8538.5375
2775.9378	8542.8375
2778.50435	8524.4375
2781.06932	8524.4375
2783.6327	8518.7375
2786.1945	8532.2375
2788.75471	8521.7375
2791.31335	8512.9375
2793.87041	8501.4375
2796.42589	8471.9375
2798.97979	8469.4375
2801.53212	8463.0375
2804.08288	8453.6375
2806.63206	8436.4375
2809.17967	8417.9375
2811.72571	8397.1375
2814.27018	8409.5375
2816.81308	8389.5375
2819.35442	8393.9375
2821.89419	8393.5375
2824.43239	8395.0375
2826.96904	8356.2375
2829.50412	8399.6375
2832.03763	8366.6375
2834.56959	8387.0375
2837.1	8361.0375
2839.62884	8356.5375
2842.15613	8349.9375
2844.68186	8358.4375
2847.20604	8373.9375
2849.72867	8394.2375
2852.24974	8371.4375
2854.76927	8385.8375
2857.28724	8362.4375
2859.80367	8358.5375
2862.31855	8345.6375
2864.83189	8329.4375
2867.34368	8312.9375
2869.85393	8337.1375
2872.36264	8314.3375
2874.8698	8321.6375
2877.37543	8324.0375
2879.87952	8321.1375
2882.38207	8307.6375
2884.88308	8324.1375
2887.38256	8325.5375
2889.88051	8321.6375
2892.37692	8302.4375
2894.8718	8315.2375
2897.36515	8328.3375
2899.85698	8329.0375
2902.34727	8363.3375
2904.83604	8358.5375
2907.32328	8373.9375
2909.809	8376.3375
2912.29319	8379.7375
2914.77587	8391.9375
2917.25702	8382.1375
2919.73665	8369.3375
2922.21476	8359.4375
2924.69136	8357.9375
2927.16644	8356.7375
2929.64	8364.8375
2932.11205	8348.5375
2934.58258	8317.1375
2937.05161	8322.8375
2939.51912	8316.3375
2941.98513	8310.2375
2944.44962	8279.0375
2946.91261	8256.4375
2949.37409	8269.1375
2951.83407	8253.0375
2954.29254	8262.5375
2956.74951	8251.8375
2959.20498	8246.2375
2961.65895	8235.3375
2964.11142	8231.2375
2966.56239	8203.9375
2969.01186	8200.3375
2971.45984	8189.8375
2973.90632	8166.8375
2976.35131	8174.7375
2978.7948	8152.1375
2981.23681	8129.0375
2983.67732	8103.6375
2986.11635	8112.7375
2988.55388	8077.5375
2990.98993	8067.2375
2993.4245	8064.0375
2995.85758	8037.9375
2998.28917	8021.3375
3000.71928	8008.0375
3003.14791	8003.9375
3005.57506	8010.7375
3008.00073	7970.9375
3010.42493	7993.2375
3012.84764	7960.3375
3015.26888	7975.9375
3017.68865	7947.6375
3020.10694	7924.9375
3022.52376	7901.8375
3024.9391	7908.1375
3027.35298	7895.9375
3029.76539	7898.5375
3032.17632	7886.1375
3034.5858	7874.8375
3036.9938	7873.3375
3039.40034	7868.7375
3041.80542	7870.0375
3044.20903	7848.5375
3046.61118	7850.3375
3049.01187	7842.6375
3051.4111	7832.7375
3053.80888	7815.6375
3056.20519	7794.0375
3058.60005	7762.8375
3060.99345	7731.1375
3063.3854	7731.3375
3065.7759	7713.6375
3068.16494	7707.0375
3070.55254	7681.9375
3072.93868	7663.5375
3075.32338	7648.3375
3077.70662	7658.4375
3080.08842	7631.3375
3082.46878	7638.7375
3084.84769	7600.7375
3087.22515	7618.6375
3089.60118	7604.9375
3091.97576	7601.7375
3094.3489	7607.4375
3096.72061	7620.8375
3099.09087	7616.6375
3101.4597	7592.2375
3103.82709	7624.6375
3106.19305	7584.9375
3108.55757	7604.8375
3110.92066	7596.2375
3113.28232	7556.0375
3115.64255	7540.0375
3118.00134	7548.5375
3120.35871	7532.5375
3122.71466	7528.1375
3125.06917	7503.0375
3127.42226	7482.2375
3129.77393	7505.1375
3132.12417	7480.7375
3134.47299	7490.6375
3136.82039	7503.0375
3139.16636	7477.1375
3141.51092	7498.0375
3143.85406	7491.1375
3146.19579	7504.7375
3148.53609	7491.5375
3150.87499	7510.9375
3153.21246	7511.8375
3155.54853	7521.2375
3157.88318	7531.7375
3160.21642	7520.0375
3162.54826	7514.7375
3164.87868	7517.7375
3167.2077	7530.4375
3169.5353	7539.1375
3171.86151	7530.9375
3174.18631	7515.2375
3176.5097	7542.9375
3178.83169	7503.2375
3181.15228	7514.2375
3183.47147	7466.1375
3185.78926	7508.9375
3188.10565	7479.7375
3190.42065	7487.2375
3192.73424	7481.4375
3195.04645	7493.2375
3197.35725	7502.7375
3199.66667	7483.7375
3201.97469	7506.8375
3204.28132	7482.9375
3206.58656	7506.1375
3208.8904	7542.1375
3211.19287	7525.6375
3213.49394	7552.0375
3215.79363	7542.3375
3218.09193	7537.3375
3220.38884	7525.3375
3222.68438	7552.3375
3224.97853	7517.2375
3227.2713	7524.4375
3229.56269	7499.9375
3231.8527	7526.1375
3234.14133	7499.8375
3236.42858	7491.3375
3238.71446	7482.9375
3240.99896	7484.2375
3243.28209	7476.7375
3245.56384	7458.6375
3247.84423	7457.1375
3250.12324	7454.3375
3252.40088	7444.8375
3254.67715	7444.0375
3256.95205	7451.5375
3259.22558	7452.8375
3261.49775	7428.8375
3263.76855	7447.5375
3266.03799	7414.7375
3268.30606	7414.9375
3270.57277	7420.7375
3272.83812	7379.6375
3275.10211	7350.3375
3277.36474	7353.9375
3279.62601	7354.4375
3281.88593	7350.2375
3284.14448	7358.6375
3286.40168	7371.3375
3288.65753	7355.9375
3290.91202	7353.3375
3293.16516	7335.4375
3295.41695	7337.8375
3297.66738	7255.8375
3299.91647	7233.6375
3302.16421	7192.5375
3304.4106	7187.0375
3306.65564	7146.4375
3308.89933	7098.8375
3311.14169	7047.5375
3313.38269	7017.4375
3315.62236	6964.3375
3317.86068	6914.5375
3320.09766	6846.0375
3322.3333	6811.1375
3324.5676	6811.9375
3326.80056	6703.6375
3329.03219	6651.7375
3331.26248	2.4375
3333.49143	-0.2625
3335.71905	-0.7625
