Data from AgNPs_FTO_APTES_UA_1uM_CRN_2uM_R6G_10uM_NaF_0.1M_Addition_RamanShift__11__13-08-09-542.txt Node

Date: Thu Jan 27 13:08:09 GMT 2022
User: TCL
Spectrometer: QEP01345
Trigger mode: 4
Integration Time (sec): 7.000000E0
Scans to average: 10
Electric dark correction enabled: true
Nonlinearity correction enabled: false
Boxcar width: 0
XAxis mode: Raman Shifts
Number of Pixels in Spectrum: 1044
>>>>>Begin Spectral Data<<<<<
46.04893	-0.3625
50.45542	0.9375
54.85868	-1.5625
59.25871	-0.9625
63.6555	61.2375
68.04907	65.6375
72.43941	66.7375
76.82654	70.8375
81.21044	69.8375
85.59113	73.0375
89.96862	74.7375
94.34289	76.6375
98.71396	80.5375
103.08183	82.2375
107.4465	86.7375
111.80798	90.3375
116.16626	90.0375
120.52136	101.8375
124.87327	99.6375
129.222	100.0375
133.56755	105.1375
137.90993	111.8375
142.24913	125.4375
146.58517	139.0375
150.91804	160.8375
155.24774	194.3375
159.57429	230.1375
163.89768	294.3375
168.21792	392.8375
172.53501	533.3375
176.84895	733.2375
181.15975	1031.6375
185.46741	1443.8375
189.77193	1995.1375
194.07331	2683.1375
198.37157	3472.7375
202.6667	4285.6375
206.9587	5120.0375
211.24758	5906.4375
215.53334	6705.9375
219.81599	7531.4375
224.09553	8441.9375
228.37195	9447.2375
232.64527	10526.9375
236.91549	11717.4375
241.18261	12907.4375
245.44663	14095.1375
249.70755	15172.5375
253.96539	16154.8375
258.22014	16963.5375
262.4718	17569.0375
266.72039	17994.4375
270.96589	18165.2375
275.20832	18212.7375
279.44768	18132.5375
283.68397	17941.9375
287.91719	17760.4375
292.14735	17591.3375
296.37445	17498.2375
300.59849	17429.1375
304.81948	17442.7375
309.03742	17407.2375
313.25231	17336.0375
317.46415	17199.4375
321.67296	16942.5375
325.87872	16744.4375
330.08145	16682.9375
334.28114	16689.4375
338.47781	16837.0375
342.67145	17012.0375
346.86207	17248.4375
351.04966	17486.2375
355.23424	17736.7375
359.4158	18004.7375
363.59435	18194.0375
367.76989	18354.8375
371.94243	18454.3375
376.11196	18551.8375
380.27849	18609.2375
384.44203	18659.5375
388.60257	18811.0375
392.76012	18992.8375
396.91468	19233.4375
401.06626	19514.9375
405.21485	19687.6375
409.36047	19660.2375
413.50311	19537.2375
417.64277	19485.1375
421.77947	19585.9375
425.9132	19680.4375
430.04396	19787.9375
434.17176	19898.9375
438.2966	19933.2375
442.41849	20103.6375
446.53742	20390.7375
450.6534	20738.6375
454.76644	20980.6375
458.87653	21047.5375
462.98368	21065.0375
467.08789	20963.9375
471.18916	20746.1375
475.2875	20554.7375
479.38291	20391.7375
483.4754	20252.2375
487.56496	20122.5375
491.6516	19977.8375
495.73531	19846.2375
499.81612	19813.9375
503.89401	19918.1375
507.96899	20057.0375
512.04106	20094.5375
516.11023	20049.2375
520.1765	19914.4375
524.23987	19742.9375
528.30034	19604.6375
532.35792	19471.1375
536.41261	19362.3375
540.46441	19205.6375
544.51333	19194.6375
548.55936	19279.8375
552.60252	19528.2375
556.64279	19841.1375
560.6802	20028.1375
564.71473	20137.3375
568.7464	20313.8375
572.7752	20699.5375
576.80114	21233.7375
580.82422	21830.7375
584.84444	22551.0375
588.86181	23467.2375
592.87633	24276.3375
596.888	24308.4375
600.89682	23445.0375
604.9028	22859.3375
608.90594	23442.4375
612.90624	24344.4375
616.90371	23374.4375
620.89834	21038.2375
624.89015	19945.7375
628.87913	19885.3375
632.86528	20035.6375
636.84862	20068.8375
640.82913	19826.6375
644.80683	19462.3375
648.78172	19301.7375
652.75379	19264.3375
656.72306	19424.3375
660.68952	19643.7375
664.65319	19575.9375
668.61405	19380.7375
672.57211	19360.3375
676.52738	19403.7375
680.47986	19379.8375
684.42955	19284.8375
688.37646	19234.2375
692.32058	19284.6375
696.26192	19472.6375
700.20048	19668.1375
704.13626	19768.8375
708.06928	19820.7375
711.99952	19790.0375
715.927	19759.7375
719.85171	19777.5375
723.77365	19710.2375
727.69284	19499.0375
731.60928	19324.8375
735.52295	19216.5375
739.43388	19211.7375
743.34206	19259.1375
747.24749	19346.1375
751.15017	19470.2375
755.05012	19703.4375
758.94733	20066.7375
762.8418	20589.3375
766.73354	21507.5375
770.62254	22342.9375
774.50882	22501.3375
778.39237	21900.3375
782.27321	21024.3375
786.15132	20288.7375
790.02671	19775.6375
793.89938	19505.7375
797.76935	19318.5375
801.6366	19278.9375
805.50115	19186.3375
809.36299	19130.0375
813.22213	19044.1375
817.07857	19005.6375
820.93231	18949.0375
824.78336	18925.5375
828.63172	18888.9375
832.47738	18886.4375
836.32036	18850.2375
840.16066	18847.4375
843.99827	18843.7375
847.8332	18809.6375
851.66546	18838.1375
855.49504	18876.8375
859.32195	18873.2375
863.1462	18858.7375
866.96777	18869.0375
870.78668	18822.2375
874.60293	18876.3375
878.41652	18891.4375
882.22745	18946.4375
886.03573	18990.3375
889.84136	18989.1375
893.64433	18962.0375
897.44466	18923.2375
901.24235	18860.9375
905.0374	18867.2375
908.8298	18794.3375
912.61957	18809.1375
916.40671	18913.3375
920.19121	19125.8375
923.97308	19225.4375
927.75233	19283.2375
931.52895	19093.2375
935.30295	18927.7375
939.07433	18693.5375
942.84309	18497.7375
946.60924	18390.3375
950.37278	18373.5375
954.13371	18356.3375
957.89203	18351.9375
961.64774	18316.3375
965.40086	18301.9375
969.15137	18256.2375
972.89929	18205.9375
976.64461	18109.6375
980.38733	18109.9375
984.12747	18119.1375
987.86502	18162.3375
991.59999	18207.0375
995.33237	18319.6375
999.06217	18445.4375
1002.78939	18703.0375
1006.51404	18982.4375
1010.23611	19266.0375
1013.95561	19410.1375
1017.67255	19421.1375
1021.38692	19307.8375
1025.09872	19092.5375
1028.80796	18839.7375
1032.51465	18736.3375
1036.21877	18749.2375
1039.92035	18800.6375
1043.61937	18878.7375
1047.31584	18925.5375
1051.00976	18985.4375
1054.70114	19015.7375
1058.38998	19095.7375
1062.07627	19238.3375
1065.76003	19418.0375
1069.44126	19584.1375
1073.11995	19856.8375
1076.79611	20129.7375
1080.46974	20276.4375
1084.14085	20321.5375
1087.80943	20403.2375
1091.47549	20566.2375
1095.13903	20649.1375
1098.80005	20496.7375
1102.45857	20227.8375
1106.11456	19885.0375
1109.76805	19679.6375
1113.41903	19573.7375
1117.06751	19574.1375
1120.71348	19695.2375
1124.35696	19788.1375
1127.99793	19951.6375
1131.63641	20058.3375
1135.2724	19984.5375
1138.90589	19963.3375
1142.5369	19953.5375
1146.16542	20067.0375
1149.79145	20145.8375
1153.415	20200.8375
1157.03607	20304.8375
1160.65467	20595.7375
1164.27079	21116.7375
1167.88443	21872.1375
1171.49561	22596.6375
1175.10432	23485.0375
1178.71056	24549.6375
1182.31434	25590.3375
1185.91565	26196.2375
1189.51451	26295.0375
1193.11091	26061.7375
1196.70485	25585.4375
1200.29634	25012.0375
1203.88538	24525.8375
1207.47197	24260.8375
1211.05612	24083.8375
1214.63782	23834.4375
1218.21708	23413.3375
1221.79391	22792.5375
1225.36829	22377.8375
1228.94024	22155.9375
1232.50976	22009.2375
1236.07685	21864.1375
1239.6415	21740.4375
1243.20374	21760.3375
1246.76355	21883.9375
1250.32093	22062.3375
1253.8759	22354.8375
1257.42845	22757.7375
1260.97859	23242.3375
1264.52631	23704.1375
1268.07163	24162.3375
1271.61453	24612.3375
1275.15503	25058.7375
1278.69312	25573.6375
1282.22882	26063.6375
1285.76211	26638.2375
1289.29301	27375.5375
1292.82151	28208.5375
1296.34761	29159.9375
1299.87133	30359.4375
1303.39266	31503.2375
1306.9116	32515.6375
1310.42815	33226.9375
1313.94233	33540.3375
1317.45412	33327.1375
1320.96354	32871.4375
1324.47058	32563.9375
1327.97525	32322.2375
1331.47754	32266.7375
1334.97747	32227.0375
1338.47502	32078.9375
1341.97022	32072.0375
1345.46305	31998.5375
1348.95352	31888.0375
1352.44163	31847.5375
1355.92738	32106.3375
1359.41078	32714.0375
1362.89183	33287.2375
1366.37053	32989.3375
1369.84688	31289.3375
1373.32088	28859.3375
1376.79254	26918.8375
1380.26186	26037.3375
1383.72883	25884.7375
1387.19347	25853.4375
1390.65578	25608.9375
1394.11575	25389.3375
1397.57339	25414.3375
1401.0287	25737.9375
1404.48168	25990.3375
1407.93234	26031.6375
1411.38068	25680.6375
1414.82669	25137.1375
1418.27039	24439.2375
1421.71177	23771.2375
1425.15083	23242.2375
1428.58758	22992.0375
1432.02203	23123.7375
1435.45416	23538.3375
1438.88399	24014.0375
1442.31151	24325.5375
1445.73673	24497.0375
1449.15965	24572.1375
1452.58027	24589.4375
1455.9986	24571.1375
1459.41463	24657.8375
1462.82837	24999.0375
1466.23982	25386.3375
1469.64898	25758.8375
1473.05586	25961.3375
1476.46045	25985.3375
1479.86276	25917.0375
1483.26279	25757.1375
1486.66054	25643.0375
1490.05602	25756.2375
1493.44922	26027.1375
1496.84016	26436.9375
1500.22882	26909.0375
1503.61521	27462.0375
1506.99934	27970.3375
1510.38121	28391.2375
1513.76081	28439.1375
1517.13816	28046.9375
1520.51324	27567.6375
1523.88607	27171.1375
1527.25665	26992.3375
1530.62498	26936.0375
1533.99105	26738.7375
1537.35488	26335.8375
1540.71647	25823.6375
1544.07581	25276.8375
1547.4329	24737.3375
1550.78776	24320.9375
1554.14038	24014.3375
1557.49077	23874.4375
1560.83892	23774.3375
1564.18484	23746.0375
1567.52853	23764.4375
1570.86999	23900.2375
1574.20922	24204.6375
1577.54624	24431.3375
1580.88103	24543.7375
1584.2136	24689.8375
1587.54395	25202.7375
1590.87208	26032.8375
1594.19801	27163.5375
1597.52172	28295.9375
1600.84321	28574.1375
1604.16251	27654.2375
1607.47959	26029.4375
1610.79447	24332.7375
1614.10715	22795.5375
1617.41763	21531.6375
1620.7259	20612.1375
1624.03199	20146.0375
1627.33587	20059.6375
1630.63757	20466.3375
1633.93707	21309.6375
1637.23439	22821.3375
1640.52951	25091.8375
1643.82246	27821.1375
1647.11321	30050.8375
1650.40179	30478.4375
1653.68819	28744.7375
1656.97241	25589.6375
1660.25446	22658.7375
1663.53433	20460.8375
1666.81203	19084.8375
1670.08756	18246.3375
1673.36092	17700.8375
1676.63211	17409.4375
1679.90115	17147.1375
1683.16801	16914.5375
1686.43272	16778.5375
1689.69527	16664.9375
1692.95567	16538.6375
1696.2139	16469.9375
1699.46999	16371.6375
1702.72392	16331.1375
1705.97571	16344.4375
1709.22535	16337.9375
1712.47284	16360.4375
1715.71819	16361.8375
1718.96139	16318.4375
1722.20246	16267.5375
1725.44139	16198.6375
1728.67818	16142.7375
1731.91284	16085.6375
1735.14537	16005.9375
1738.37576	15965.7375
1741.60403	15869.1375
1744.83017	15856.2375
1748.05418	15785.2375
1751.27607	15756.2375
1754.49584	15699.2375
1757.71349	15694.2375
1760.92903	15636.4375
1764.14244	15616.5375
1767.35375	15610.2375
1770.56294	15598.2375
1773.77002	15583.1375
1776.97499	15586.8375
1780.17785	15583.4375
1783.37861	15590.9375
1786.57727	15539.7375
1789.77382	15583.6375
1792.96828	15488.2375
1796.16064	15466.8375
1799.3509	15445.8375
1802.53907	15426.6375
1805.72514	15381.8375
1808.90913	15367.3375
1812.09102	15318.4375
1815.27083	15298.5375
1818.44856	15294.2375
1821.6242	15220.0375
1824.79776	15219.8375
1827.96924	15228.8375
1831.13864	15229.2375
1834.30597	15203.3375
1837.47122	15165.7375
1840.6344	15193.3375
1843.7955	15172.2375
1846.95454	15165.6375
1850.11151	15166.2375
1853.26642	15152.7375
1856.41926	15160.7375
1859.57004	15169.8375
1862.71876	15140.7375
1865.86542	15105.4375
1869.01003	15066.2375
1872.15258	15037.1375
1875.29308	15028.8375
1878.43152	14962.3375
1881.56792	14959.5375
1884.70227	14970.5375
1887.83457	14927.6375
1890.96482	14883.6375
1894.09304	14874.8375
1897.21921	14857.4375
1900.34335	14832.7375
1903.46544	14821.5375
1906.58551	14817.9375
1909.70353	14778.3375
1912.81953	14724.4375
1915.93349	14745.4375
1919.04543	14697.1375
1922.15534	14650.5375
1925.26322	14630.3375
1928.36908	14583.5375
1931.47292	14552.0375
1934.57473	14518.3375
1937.67453	14504.8375
1940.77232	14469.1375
1943.86808	14400.8375
1946.96184	14360.7375
1950.05358	14320.9375
1953.14331	14318.1375
1956.23103	14254.3375
1959.31675	14204.7375
1962.40046	14208.0375
1965.48217	14130.3375
1968.56188	14070.1375
1971.63959	14043.1375
1974.7153	13992.1375
1977.78901	13963.7375
1980.86073	13891.5375
1983.93046	13875.0375
1986.99819	13831.4375
1990.06394	13785.4375
1993.1277	13736.0375
1996.18947	13686.0375
1999.24925	13693.3375
2002.30706	13578.8375
2005.36288	13569.1375
2008.41672	13542.3375
2011.46859	13496.7375
2014.51848	13440.3375
2017.56639	13414.9375
2020.61233	13409.2375
2023.6563	13361.5375
2026.6983	13305.1375
2029.73833	13259.9375
2032.7764	13254.4375
2035.8125	13232.8375
2038.84664	13159.9375
2041.87881	13146.8375
2044.90903	13120.9375
2047.93729	13118.0375
2050.96359	13077.6375
2053.98794	13050.6375
2057.01034	13046.7375
2060.03078	13048.1375
2063.04927	13037.8375
2066.06582	13029.7375
2069.08042	13041.1375
2072.09307	13006.5375
2075.10378	12985.2375
2078.11255	12970.6375
2081.11938	12994.1375
2084.12426	12979.2375
2087.12722	12973.4375
2090.12824	12967.0375
2093.12732	12974.7375
2096.12447	12967.5375
2099.11969	12963.9375
2102.11299	12977.0375
2105.10435	12965.2375
2108.09379	12989.9375
2111.08131	12972.0375
2114.0669	12987.8375
2117.05057	13003.5375
2120.03233	12987.6375
2123.01216	12982.1375
2125.99008	13006.3375
2128.96609	12998.9375
2131.94018	13025.8375
2134.91236	13023.1375
2137.88263	12976.7375
2140.851	13024.0375
2143.81746	13020.2375
2146.78201	12999.3375
2149.74466	13010.6375
2152.7054	13004.1375
2155.66425	13017.4375
2158.6212	13014.6375
2161.57625	12985.8375
2164.52941	13000.7375
2167.48067	12978.0375
2170.43004	12969.0375
2173.37752	12956.7375
2176.32311	12948.5375
2179.26681	12970.5375
2182.20863	12918.6375
2185.14856	12961.1375
2188.08661	12965.6375
2191.02278	12944.4375
2193.95707	12939.0375
2196.88948	12916.5375
2199.82001	12909.6375
2202.74867	12905.7375
2205.67545	12892.9375
2208.60037	12871.4375
2211.52341	12803.8375
2214.44458	12799.9375
2217.36388	12769.3375
2220.28132	12734.4375
2223.1969	12725.5375
2226.11061	12704.9375
2229.02246	12689.8375
2231.93245	12674.8375
2234.84058	12653.4375
2237.74686	12616.1375
2240.65128	12613.6375
2243.55385	12608.4375
2246.45456	12580.0375
2249.35343	12541.3375
2252.25044	12505.2375
2255.14561	12495.5375
2258.03893	12465.4375
2260.93041	12461.8375
2263.82004	12438.2375
2266.70783	12403.3375
2269.59378	12365.1375
2272.4779	12329.5375
2275.36017	12322.1375
2278.24061	12288.4375
2281.11922	12283.7375
2283.996	12255.0375
2286.87094	12230.6375
2289.74405	12184.5375
2292.61534	12189.2375
2295.4848	12138.8375
2298.35243	12176.5375
2301.21824	12161.7375
2304.08223	12128.9375
2306.94439	12115.3375
2309.80474	12133.6375
2312.66327	12114.6375
2315.51999	12093.2375
2318.37489	12066.4375
2321.22797	12053.3375
2324.07925	12039.4375
2326.92871	11999.1375
2329.77637	11999.6375
2332.62222	11962.8375
2335.46626	11948.6375
2338.3085	11919.8375
2341.14893	11927.6375
2343.98756	11914.1375
2346.8244	11901.8375
2349.65943	11893.0375
2352.49267	11858.5375
2355.32411	11875.0375
2358.15376	11852.8375
2360.98161	11858.9375
2363.80768	11839.7375
2366.63195	11828.4375
2369.45444	11833.1375
2372.27514	11810.8375
2375.09405	11814.7375
2377.91118	11788.5375
2380.72652	11746.5375
2383.54009	11712.1375
2386.35187	11737.5375
2389.16188	11679.9375
2391.97011	11649.1375
2394.77657	11629.6375
2397.58125	11624.6375
2400.38416	11598.2375
2403.18529	11568.6375
2405.98466	11537.7375
2408.78226	11520.5375
2411.57809	11524.7375
2414.37216	11492.9375
2417.16446	11514.5375
2419.955	11486.7375
2422.74378	11489.6375
2425.5308	11474.7375
2428.31606	11471.8375
2431.09956	11448.0375
2433.88131	11436.3375
2436.6613	11418.0375
2439.43954	11412.0375
2442.21603	11409.5375
2444.99077	11375.0375
2447.76377	11367.2375
2450.53501	11404.0375
2453.30451	11378.0375
2456.07226	11348.7375
2458.83827	11346.4375
2461.60254	11338.7375
2464.36507	11311.6375
2467.12586	11296.1375
2469.88492	11277.0375
2472.64224	11321.8375
2475.39782	11322.3375
2478.15167	11275.2375
2480.90379	11250.3375
2483.65417	11280.1375
2486.40283	11252.9375
2489.14976	11231.3375
2491.89497	11238.3375
2494.63845	11238.9375
2497.3802	11214.8375
2500.12024	11207.0375
2502.85855	11219.0375
2505.59514	11177.3375
2508.33002	11157.0375
2511.06318	11137.4375
2513.79462	11129.9375
2516.52435	11147.0375
2519.25237	11113.6375
2521.97867	11108.7375
2524.70327	11123.8375
2527.42616	11088.7375
2530.14734	11083.6375
2532.86681	11073.7375
2535.58458	11031.5375
2538.30065	11014.1375
2541.01501	11015.6375
2543.72768	10986.2375
2546.43864	10982.9375
2549.14791	10984.6375
2551.85548	10934.2375
2554.56136	10955.5375
2557.26554	10915.8375
2559.96803	10924.2375
2562.66883	10901.8375
2565.36794	10875.0375
2568.06536	10858.0375
2570.7611	10847.0375
2573.45514	10810.1375
2576.14751	10782.9375
2578.83819	10782.1375
2581.52719	10773.5375
2584.21451	10732.5375
2586.90015	10748.4375
2589.58411	10689.9375
2592.2664	10688.5375
2594.94701	10685.3375
2597.62594	10674.3375
2600.30321	10633.4375
2602.9788	10631.4375
2605.65273	10631.5375
2608.32498	10590.0375
2610.99557	10600.1375
2613.66449	10600.9375
2616.33175	10570.0375
2618.99734	10573.8375
2621.66128	10547.8375
2624.32355	10541.2375
2626.98416	10538.4375
2629.64311	10495.5375
2632.30041	10490.8375
2634.95605	10484.2375
2637.61004	10471.5375
2640.26238	10437.9375
2642.91306	10460.0375
2645.56209	10461.9375
2648.20948	10458.4375
2650.85521	10433.0375
2653.4993	10421.6375
2656.14175	10467.6375
2658.78255	10453.6375
2661.42171	10428.1375
2664.05923	10466.0375
2666.6951	10431.5375
2669.32934	10441.9375
2671.96194	10416.6375
2674.59291	10416.7375
2677.22224	10426.8375
2679.84993	10440.1375
2682.476	10423.3375
2685.10043	10403.7375
2687.72324	10391.1375
2690.34441	10387.2375
2692.96396	10393.7375
2695.58188	10408.1375
2698.19818	10375.2375
2700.81285	10389.8375
2703.4259	10370.5375
2706.03733	10371.3375
2708.64714	10339.2375
2711.25533	10381.3375
2713.86191	10371.7375
2716.46687	10405.1375
2719.07021	10366.8375
2721.67194	10405.4375
2724.27206	10397.1375
2726.87057	10401.3375
2729.46747	10382.1375
2732.06276	10371.3375
2734.65644	10375.1375
2737.24852	10383.1375
2739.83899	10377.6375
2742.42786	10347.9375
2745.01513	10329.5375
2747.60079	10329.4375
2750.18486	10312.0375
2752.76733	10285.8375
2755.3482	10304.5375
2757.92747	10293.0375
2760.50515	10247.5375
2763.08123	10251.5375
2765.65573	10233.6375
2768.22863	10258.9375
2770.79994	10231.8375
2773.36967	10230.4375
2775.9378	10224.9375
2778.50435	10182.5375
2781.06932	10174.3375
2783.6327	10165.1375
2786.1945	10136.1375
2788.75471	10149.4375
2791.31335	10112.0375
2793.87041	10105.8375
2796.42589	10064.7375
2798.97979	10079.3375
2801.53212	10044.3375
2804.08288	10016.8375
2806.63206	9994.9375
2809.17967	9974.9375
2811.72571	9965.6375
2814.27018	9920.9375
2816.81308	9911.3375
2819.35442	9901.1375
2821.89419	9866.4375
2824.43239	9894.5375
2826.96904	9874.7375
2829.50412	9871.1375
2832.03763	9820.2375
2834.56959	9843.6375
2837.1	9822.3375
2839.62884	9815.3375
2842.15613	9814.4375
2844.68186	9807.4375
2847.20604	9824.1375
2849.72867	9808.1375
2852.24974	9813.1375
2854.76927	9789.5375
2857.28724	9801.0375
2859.80367	9756.2375
2862.31855	9750.6375
2864.83189	9723.0375
2867.34368	9722.8375
2869.85393	9699.9375
2872.36264	9692.0375
2874.8698	9690.2375
2877.37543	9678.8375
2879.87952	9675.7375
2882.38207	9650.8375
2884.88308	9638.1375
2887.38256	9649.4375
2889.88051	9631.7375
2892.37692	9651.8375
2894.8718	9637.2375
2897.36515	9644.0375
2899.85698	9649.9375
2902.34727	9631.2375
2904.83604	9673.1375
2907.32328	9659.3375
2909.809	9666.6375
2912.29319	9644.4375
2914.77587	9651.6375
2917.25702	9652.0375
2919.73665	9629.3375
2922.21476	9637.8375
2924.69136	9611.3375
2927.16644	9626.9375
2929.64	9605.7375
2932.11205	9636.3375
2934.58258	9578.5375
2937.05161	9586.6375
2939.51912	9579.7375
2941.98513	9534.9375
2944.44962	9524.9375
2946.91261	9476.0375
2949.37409	9479.7375
2951.83407	9487.5375
2954.29254	9492.4375
2956.74951	9471.9375
2959.20498	9453.7375
2961.65895	9432.9375
2964.11142	9429.7375
2966.56239	9444.5375
2969.01186	9431.8375
2971.45984	9397.7375
2973.90632	9404.5375
2976.35131	9373.0375
2978.7948	9362.4375
2981.23681	9330.5375
2983.67732	9313.5375
2986.11635	9266.5375
2988.55388	9256.2375
2990.98993	9238.1375
2993.4245	9227.9375
2995.85758	9202.0375
2998.28917	9184.2375
3000.71928	9143.1375
3003.14791	9116.7375
3005.57506	9121.1375
3008.00073	9091.4375
3010.42493	9110.4375
3012.84764	9093.1375
3015.26888	9081.9375
3017.68865	9046.1375
3020.10694	9056.8375
3022.52376	9028.3375
3024.9391	9021.7375
3027.35298	9017.2375
3029.76539	9000.9375
3032.17632	8977.7375
3034.5858	8966.6375
3036.9938	8962.2375
3039.40034	8960.7375
3041.80542	8927.5375
3044.20903	8907.0375
3046.61118	8905.0375
3049.01187	8881.7375
3051.4111	8861.4375
3053.80888	8861.1375
3056.20519	8846.3375
3058.60005	8810.3375
3060.99345	8797.2375
3063.3854	8769.2375
3065.7759	8757.3375
3068.16494	8749.4375
3070.55254	8728.2375
3072.93868	8706.4375
3075.32338	8666.8375
3077.70662	8645.9375
3080.08842	8657.6375
3082.46878	8615.0375
3084.84769	8609.5375
3087.22515	8617.6375
3089.60118	8623.3375
3091.97576	8592.6375
3094.3489	8594.4375
3096.72061	8593.3375
3099.09087	8600.2375
3101.4597	8566.6375
3103.82709	8574.3375
3106.19305	8571.2375
3108.55757	8553.7375
3110.92066	8522.9375
3113.28232	8500.7375
3115.64255	8494.0375
3118.00134	8484.7375
3120.35871	8467.2375
3122.71466	8444.2375
3125.06917	8445.2375
3127.42226	8408.6375
3129.77393	8411.1375
3132.12417	8401.6375
3134.47299	8394.4375
3136.82039	8380.2375
3139.16636	8390.9375
3141.51092	8386.5375
3143.85406	8409.7375
3146.19579	8412.4375
3148.53609	8399.9375
3150.87499	8416.6375
3153.21246	8401.9375
3155.54853	8423.4375
3157.88318	8403.8375
3160.21642	8387.3375
3162.54826	8362.0375
3164.87868	8364.1375
3167.2077	8398.9375
3169.5353	8376.0375
3171.86151	8400.2375
3174.18631	8366.7375
3176.5097	8369.0375
3178.83169	8361.8375
3181.15228	8319.2375
3183.47147	8319.5375
3185.78926	8330.0375
3188.10565	8296.4375
3190.42065	8300.9375
3192.73424	8286.2375
3195.04645	8284.4375
3197.35725	8250.3375
3199.66667	8279.7375
3201.97469	8261.9375
3204.28132	8267.5375
3206.58656	8270.9375
3208.8904	8275.5375
3211.19287	8288.9375
3213.49394	8276.1375
3215.79363	8274.4375
3218.09193	8259.5375
3220.38884	8257.9375
3222.68438	8267.9375
3224.97853	8250.2375
3227.2713	8226.1375
3229.56269	8241.5375
3231.8527	8217.6375
3234.14133	8224.5375
3236.42858	8190.1375
3238.71446	8175.5375
3240.99896	8155.8375
3243.28209	8157.9375
3245.56384	8132.5375
3247.84423	8152.6375
3250.12324	8119.0375
3252.40088	8099.6375
3254.67715	8085.7375
3256.95205	8123.9375
3259.22558	8095.9375
3261.49775	8085.3375
3263.76855	8069.0375
3266.03799	8052.4375
3268.30606	8045.8375
3270.57277	8019.5375
3272.83812	8000.2375
3275.10211	7997.9375
3277.36474	7965.4375
3279.62601	7969.7375
3281.88593	7952.7375
3284.14448	7969.2375
3286.40168	7954.5375
3288.65753	7957.9375
3290.91202	7959.5375
3293.16516	7925.0375
3295.41695	7900.0375
3297.66738	7849.6375
3299.91647	7794.1375
3302.16421	7752.8375
3304.4106	7702.5375
3306.65564	7668.0375
3308.89933	7635.1375
3311.14169	7576.2375
3313.38269	7512.4375
3315.62236	7456.6375
3317.86068	7403.5375
3320.09766	7341.7375
3322.3333	7305.4375
3324.5676	7279.5375
3326.80056	7165.1375
3329.03219	7119.4375
3331.26248	2.6375
3333.49143	0.5375
3335.71905	-0.8625
