Data from AgNPs_FTO_APTES_UA_1uM_CRN_500uM_R6G_10uM_NaF_0.1M_Addition_RamanShift__25__18-13-49-891.txt Node

Date: Thu Jan 27 18:13:49 GMT 2022
User: TCL
Spectrometer: QEP01345
Trigger mode: 4
Integration Time (sec): 7.000000E0
Scans to average: 10
Electric dark correction enabled: true
Nonlinearity correction enabled: false
Boxcar width: 0
XAxis mode: Raman Shifts
Number of Pixels in Spectrum: 1044
>>>>>Begin Spectral Data<<<<<
46.04893	1.4
50.45542	0.5
54.85868	-1
59.25871	-1.4
63.6555	47
68.04907	50.7
72.43941	54.9
76.82654	55.8
81.21044	57.2
85.59113	57.2
89.96862	62.4
94.34289	63.1
98.71396	68.5
103.08183	66
107.4465	72.1
111.80798	75.3
116.16626	71.4
120.52136	79.6
124.87327	77.6
129.222	76.7
133.56755	80.4
137.90993	86.6
142.24913	92.1
146.58517	104.7
150.91804	122.2
155.24774	140.4
159.57429	167.6
163.89768	207
168.21792	276.6
172.53501	369.6
176.84895	511.6
181.15975	708.2
185.46741	990.4
189.77193	1369.9
194.07331	1841.9
198.37157	2373
202.6667	2947.1
206.9587	3508.1
211.24758	4078
215.53334	4647.7
219.81599	5273.4
224.09553	5932
228.37195	6693.9
232.64527	7518.5
236.91549	8350
241.18261	9202.2
245.44663	9926.9
249.70755	10554.2
253.96539	11090.5
258.22014	11567.2
262.4718	11969.8
266.72039	12292.7
270.96589	12457.5
275.20832	12476.7
279.44768	12375.3
283.68397	12211.3
287.91719	12056.9
292.14735	12011.3
296.37445	12129.4
300.59849	12339.5
304.81948	12654.4
309.03742	12795.8
313.25231	12697.3
317.46415	12211.1
321.67296	11568.4
325.87872	11006.3
330.08145	10773
334.28114	10748.6
338.47781	10872.6
342.67145	11101.6
346.86207	11407
351.04966	11859.9
355.23424	12378.5
359.4158	12788.6
363.59435	13072.3
367.76989	13199.1
371.94243	13285.6
376.11196	13293.3
380.27849	13334.5
384.44203	13345.3
388.60257	13238.5
392.76012	13196.4
396.91468	13291
401.06626	13519.5
405.21485	13755.3
409.36047	13634.7
413.50311	13169.1
417.64277	12698.9
421.77947	12476.7
425.9132	12359.2
430.04396	12413.1
434.17176	12481.2
438.2966	12621.1
442.41849	12854
446.53742	13205.6
450.6534	13536.7
454.76644	13801.1
458.87653	13875.5
462.98368	13756.4
467.08789	13574.1
471.18916	13402.9
475.2875	13209.2
479.38291	13062.2
483.4754	12917.6
487.56496	12750.7
491.6516	12607.9
495.73531	12499.7
499.81612	12459.4
503.89401	12569.4
507.96899	12628.5
512.04106	12750.3
516.11023	12834.9
520.1765	12924.3
524.23987	12840.1
528.30034	12698.7
532.35792	12503.2
536.41261	12312.4
540.46441	12152.9
544.51333	12047.8
548.55936	12103.4
552.60252	12339
556.64279	12586.3
560.6802	12726.3
564.71473	12882
568.7464	13217.8
572.7752	13526.6
576.80114	13374.5
580.82422	13137.9
584.84444	13027.6
588.86181	13102.2
592.87633	13225.6
596.888	13388.4
600.89682	13576.9
604.9028	14395.4
608.90594	16809.9
612.90624	20200.5
616.90371	19693.3
620.89834	15161.8
624.89015	12925.6
628.87913	12543.1
632.86528	12544.7
636.84862	12599.5
640.82913	12483.5
644.80683	12130.1
648.78172	11865.6
652.75379	11820.6
656.72306	12112.8
660.68952	12494
664.65319	12443.9
668.61405	12097.6
672.57211	11929.5
676.52738	11929.5
680.47986	12011
684.42955	11916.7
688.37646	11839.8
692.32058	11830.3
696.26192	11923
700.20048	12014.6
704.13626	12072.5
708.06928	12045.8
711.99952	11956.1
715.927	11877.2
719.85171	11875.1
723.77365	11896.5
727.69284	11848.8
731.60928	11785.2
735.52295	11779.1
739.43388	11808.4
743.34206	11831.4
747.24749	11890.3
751.15017	11936.1
755.05012	12082.8
758.94733	12440.7
762.8418	13199.1
766.73354	14616.2
770.62254	16278.1
774.50882	17168.1
778.39237	16602.4
782.27321	14890.4
786.15132	13278.3
790.02671	12352.4
793.89938	11926.6
797.76935	11748.5
801.6366	11700
805.50115	11645.6
809.36299	11578.8
813.22213	11558.3
817.07857	11513.1
820.93231	11519.4
824.78336	11543.3
828.63172	11565.2
832.47738	11580.8
836.32036	11567.1
840.16066	11545.9
843.99827	11570.4
847.8332	11512.7
851.66546	11489.1
855.49504	11489.9
859.32195	11517
863.1462	11508.5
866.96777	11480.2
870.78668	11448.2
874.60293	11420.2
878.41652	11402.4
882.22745	11447.7
886.03573	11514.5
889.84136	11498.2
893.64433	11452.6
897.44466	11385.8
901.24235	11355.9
905.0374	11310.9
908.8298	11245.5
912.61957	11243
916.40671	11295.4
920.19121	11375.5
923.97308	11506.1
927.75233	11615.9
931.52895	11672.2
935.30295	11630.3
939.07433	11422.6
942.84309	11176.5
946.60924	11050.6
950.37278	10945.3
954.13371	10892.9
957.89203	10839.1
961.64774	10800.3
965.40086	10744.1
969.15137	10721.8
972.89929	10656.3
976.64461	10619.2
980.38733	10614.7
984.12747	10655.5
987.86502	10735.4
991.59999	10863.1
995.33237	10996.7
999.06217	11219.1
1002.78939	11499.7
1006.51404	11650.9
1010.23611	11782.2
1013.95561	11894.9
1017.67255	11909.7
1021.38692	11775.6
1025.09872	11646.8
1028.80796	11630.5
1032.51465	11780.5
1036.21877	11992.7
1039.92035	12041.4
1043.61937	11961.3
1047.31584	11815.8
1051.00976	11629.3
1054.70114	11532.8
1058.38998	11510.9
1062.07627	11556.3
1065.76003	11618.1
1069.44126	11654.9
1073.11995	11726.8
1076.79611	11823.7
1080.46974	11925.2
1084.14085	12029.4
1087.80943	12189.5
1091.47549	12299.6
1095.13903	12227.8
1098.80005	11985.3
1102.45857	11741.9
1106.11456	11609
1109.76805	11639
1113.41903	11839.8
1117.06751	12051.2
1120.71348	12354.3
1124.35696	12677.7
1127.99793	12967.3
1131.63641	13033.3
1135.2724	12678.2
1138.90589	12243.8
1142.5369	11998.8
1146.16542	11842.9
1149.79145	11742.1
1153.415	11728.7
1157.03607	11815.2
1160.65467	11982.5
1164.27079	12326.3
1167.88443	12865.4
1171.49561	13652
1175.10432	14878.8
1178.71056	16506.6
1182.31434	17868.3
1185.91565	18387.8
1189.51451	18084.2
1193.11091	17173.8
1196.70485	16160.2
1200.29634	15282.8
1203.88538	14694.1
1207.47197	14068
1211.05612	13554
1214.63782	13264.9
1218.21708	13199.2
1221.79391	13198.1
1225.36829	13215
1228.94024	13136.5
1232.50976	13019.9
1236.07685	12926.6
1239.6415	12883.4
1243.20374	12859.8
1246.76355	12898.6
1250.32093	13045.2
1253.8759	13253.4
1257.42845	13597.4
1260.97859	13900.5
1264.52631	14222.1
1268.07163	14539.5
1271.61453	14889.2
1275.15503	15282.3
1278.69312	15512.9
1282.22882	15690.7
1285.76211	15900
1289.29301	16275.2
1292.82151	16772.6
1296.34761	17343.1
1299.87133	18157.7
1303.39266	19353.5
1306.9116	21053
1310.42815	22976.7
1313.94233	24247.8
1317.45412	24093.5
1320.96354	22998.2
1324.47058	21646.2
1327.97525	20489.4
1331.47754	19664.3
1334.97747	19343.5
1338.47502	19333.2
1341.97022	19545.4
1345.46305	19785.7
1348.95352	20094
1352.44163	20726.9
1355.92738	21970.6
1359.41078	24152.5
1362.89183	26501.3
1366.37053	26359
1369.84688	23236.7
1373.32088	19733.5
1376.79254	17458.4
1380.26186	16344.9
1383.72883	15842.7
1387.19347	15619.2
1390.65578	15321.9
1394.11575	15111.6
1397.57339	15127.4
1401.0287	15377.3
1404.48168	15681.9
1407.93234	15932.7
1411.38068	15989.4
1414.82669	15853.1
1418.27039	15521.4
1421.71177	15071.2
1425.15083	14645.3
1428.58758	14340.4
1432.02203	14316.7
1435.45416	14461.6
1438.88399	14591.7
1442.31151	14696.5
1445.73673	14777.2
1449.15965	14942.5
1452.58027	15039.3
1455.9986	15041.6
1459.41463	15007.5
1462.82837	15165.6
1466.23982	15474.4
1469.64898	15790.4
1473.05586	15955.6
1476.46045	16079
1479.86276	16157.5
1483.26279	16208.6
1486.66054	16345.9
1490.05602	16563.9
1493.44922	16871.6
1496.84016	17289.3
1500.22882	18024.8
1503.61521	19297.4
1506.99934	20909.4
1510.38121	22602.2
1513.76081	23487.9
1517.13816	22736.5
1520.51324	20725.6
1523.88607	18606.4
1527.25665	17124
1530.62498	16319.2
1533.99105	15814.9
1537.35488	15591.2
1540.71647	15439.6
1544.07581	15358.7
1547.4329	15316.6
1550.78776	15225.1
1554.14038	15179.5
1557.49077	15281.6
1560.83892	15411.5
1564.18484	15597.5
1567.52853	15793.6
1570.86999	16005.5
1574.20922	16189.7
1577.54624	16194.7
1580.88103	15884.4
1584.2136	15314
1587.54395	15133.6
1590.87208	15470.6
1594.19801	16283.9
1597.52172	17306.9
1600.84321	17920.3
1604.16251	17484
1607.47959	16410
1610.79447	15185.3
1614.10715	14006.7
1617.41763	13062.5
1620.7259	12448.1
1624.03199	12135.6
1627.33587	12126.1
1630.63757	12357.9
1633.93707	12926.9
1637.23439	13770.9
1640.52951	14898.1
1643.82246	16421.8
1647.11321	17951.4
1650.40179	18903.9
1653.68819	18350.2
1656.97241	16365
1660.25446	14074.1
1663.53433	12382.8
1666.81203	11447.9
1670.08756	10871.8
1673.36092	10549.3
1676.63211	10278.3
1679.90115	10138.8
1683.16801	10011.3
1686.43272	9923.2
1689.69527	9822
1692.95567	9762.9
1696.2139	9708
1699.46999	9631.1
1702.72392	9593.9
1705.97571	9613.5
1709.22535	9618.4
1712.47284	9651.3
1715.71819	9683.3
1718.96139	9673.5
1722.20246	9664.3
1725.44139	9626.9
1728.67818	9584.9
1731.91284	9540
1735.14537	9490.4
1738.37576	9460.8
1741.60403	9430.9
1744.83017	9420.2
1748.05418	9361.3
1751.27607	9365.7
1754.49584	9331.6
1757.71349	9309
1760.92903	9268.8
1764.14244	9235.6
1767.35375	9228.5
1770.56294	9212.6
1773.77002	9195.2
1776.97499	9175.9
1780.17785	9214.5
1783.37861	9194.9
1786.57727	9184.6
1789.77382	9177.4
1792.96828	9172.7
1796.16064	9168.9
1799.3509	9116.8
1802.53907	9106.5
1805.72514	9094.8
1808.90913	9078.7
1812.09102	9068
1815.27083	9049.1
1818.44856	9024.3
1821.6242	9002.1
1824.79776	8986.9
1827.96924	9010
1831.13864	8971.1
1834.30597	8978.9
1837.47122	8958.3
1840.6344	8949.7
1843.7955	8949.8
1846.95454	8951.1
1850.11151	8986.6
1853.26642	8965.4
1856.41926	8969.2
1859.57004	8961.8
1862.71876	8967.1
1865.86542	8961.9
1869.01003	8961.4
1872.15258	8947.7
1875.29308	8943.5
1878.43152	8967.2
1881.56792	8952
1884.70227	8922.4
1887.83457	8941.8
1890.96482	8941
1894.09304	8938.3
1897.21921	8928.6
1900.34335	8915.8
1903.46544	8915.4
1906.58551	8925.1
1909.70353	8912.8
1912.81953	8919.7
1915.93349	8906.5
1919.04543	8890.3
1922.15534	8895.8
1925.26322	8876.7
1928.36908	8838.5
1931.47292	8808
1934.57473	8794.1
1937.67453	8770.8
1940.77232	8738.8
1943.86808	8726
1946.96184	8662
1950.05358	8652
1953.14331	8607.8
1956.23103	8588.6
1959.31675	8580.8
1962.40046	8554.8
1965.48217	8525.3
1968.56188	8489.8
1971.63959	8473.1
1974.7153	8463.7
1977.78901	8426.6
1980.86073	8424.5
1983.93046	8378.6
1986.99819	8325.1
1990.06394	8316.5
1993.1277	8285.1
1996.18947	8254.5
1999.24925	8264.5
2002.30706	8218.8
2005.36288	8197.8
2008.41672	8184.6
2011.46859	8172.2
2014.51848	8129.8
2017.56639	8137.6
2020.61233	8105.1
2023.6563	8093.5
2026.6983	8048.7
2029.73833	8067.9
2032.7764	8026.1
2035.8125	8024.6
2038.84664	7965.9
2041.87881	7978.3
2044.90903	7985.6
2047.93729	7971.3
2050.96359	7954.1
2053.98794	7955.4
2057.01034	7948.7
2060.03078	7922.9
2063.04927	7933.4
2066.06582	7924.3
2069.08042	7903.4
2072.09307	7900.8
2075.10378	7911
2078.11255	7893.9
2081.11938	7893.7
2084.12426	7887.6
2087.12722	7896.7
2090.12824	7880.1
2093.12732	7875.6
2096.12447	7891
2099.11969	7865.4
2102.11299	7889.9
2105.10435	7879.9
2108.09379	7895.8
2111.08131	7882.1
2114.0669	7887.1
2117.05057	7909.1
2120.03233	7918.8
2123.01216	7910.8
2125.99008	7927
2128.96609	7938.3
2131.94018	7936.8
2134.91236	7933.6
2137.88263	7950.2
2140.851	7949.1
2143.81746	7951.6
2146.78201	7919.7
2149.74466	7941.3
2152.7054	7948.2
2155.66425	7928.4
2158.6212	7930.4
2161.57625	7918.4
2164.52941	7931.9
2167.48067	7935.3
2170.43004	7918.1
2173.37752	7937.2
2176.32311	7939.4
2179.26681	7951.5
2182.20863	7910.7
2185.14856	7944.7
2188.08661	7930.7
2191.02278	7927.6
2193.95707	7941
2196.88948	7948.8
2199.82001	7919.3
2202.74867	7905.2
2205.67545	7908.8
2208.60037	7893.1
2211.52341	7893.9
2214.44458	7856.4
2217.36388	7884.1
2220.28132	7864.4
2223.1969	7851.9
2226.11061	7845
2229.02246	7810.6
2231.93245	7795
2234.84058	7808.3
2237.74686	7773.9
2240.65128	7773.3
2243.55385	7755.1
2246.45456	7740.4
2249.35343	7724.4
2252.25044	7728
2255.14561	7719.6
2258.03893	7713.2
2260.93041	7702.8
2263.82004	7690.1
2266.70783	7660.9
2269.59378	7672.3
2272.4779	7638.1
2275.36017	7623.8
2278.24061	7607.1
2281.11922	7622.7
2283.996	7604.1
2286.87094	7580
2289.74405	7553.3
2292.61534	7545.6
2295.4848	7534.4
2298.35243	7554.7
2301.21824	7528.6
2304.08223	7538.8
2306.94439	7556.8
2309.80474	7550.7
2312.66327	7532.7
2315.51999	7528.7
2318.37489	7562.3
2321.22797	7527.4
2324.07925	7528.5
2326.92871	7515.3
2329.77637	7490
2332.62222	7492.5
2335.46626	7475.6
2338.3085	7481.7
2341.14893	7481.8
2343.98756	7487
2346.8244	7487.5
2349.65943	7482
2352.49267	7465.5
2355.32411	7486
2358.15376	7493.5
2360.98161	7494.3
2363.80768	7483.9
2366.63195	7467.8
2369.45444	7494.7
2372.27514	7471.8
2375.09405	7448.1
2377.91118	7435.6
2380.72652	7415.7
2383.54009	7392
2386.35187	7398.5
2389.16188	7348
2391.97011	7317.8
2394.77657	7330.2
2397.58125	7310.2
2400.38416	7297.6
2403.18529	7299.7
2405.98466	7271.3
2408.78226	7251.6
2411.57809	7245.4
2414.37216	7239.3
2417.16446	7230.9
2419.955	7221.3
2422.74378	7211.6
2425.5308	7214.1
2428.31606	7209.1
2431.09956	7219.5
2433.88131	7185.2
2436.6613	7197.1
2439.43954	7189.2
2442.21603	7178.3
2444.99077	7170.9
2447.76377	7195.4
2450.53501	7178.6
2453.30451	7169.6
2456.07226	7171.7
2458.83827	7166.8
2461.60254	7153.7
2464.36507	7164.6
2467.12586	7165
2469.88492	7153.7
2472.64224	7163.8
2475.39782	7159.6
2478.15167	7151.4
2480.90379	7160.4
2483.65417	7183.7
2486.40283	7161.2
2489.14976	7181.5
2491.89497	7166.4
2494.63845	7170.8
2497.3802	7165
2500.12024	7147.4
2502.85855	7163.3
2505.59514	7149.6
2508.33002	7159.4
2511.06318	7116.5
2513.79462	7115.6
2516.52435	7106
2519.25237	7096.8
2521.97867	7077.3
2524.70327	7088
2527.42616	7067.3
2530.14734	7058
2532.86681	7036
2535.58458	7033.1
2538.30065	7039.8
2541.01501	7046.6
2543.72768	7026.2
2546.43864	7023.2
2549.14791	7013.6
2551.85548	7004
2554.56136	6986.3
2557.26554	6980.1
2559.96803	6975.6
2562.66883	6973.4
2565.36794	6975
2568.06536	6968.7
2570.7611	6961.7
2573.45514	6944.1
2576.14751	6941
2578.83819	6950.2
2581.52719	6925.9
2584.21451	6928.5
2586.90015	6908.2
2589.58411	6905.5
2592.2664	6906.9
2594.94701	6873
2597.62594	6885.5
2600.30321	6863.8
2602.9788	6864.6
2605.65273	6857.8
2608.32498	6854.3
2610.99557	6850.2
2613.66449	6876.1
2616.33175	6855.6
2618.99734	6851.8
2621.66128	6865.9
2624.32355	6838.2
2626.98416	6857.6
2629.64311	6834
2632.30041	6837.9
2634.95605	6816.5
2637.61004	6783.5
2640.26238	6790.9
2642.91306	6804.7
2645.56209	6780.9
2648.20948	6768.5
2650.85521	6778.2
2653.4993	6775.1
2656.14175	6785.3
2658.78255	6801
2661.42171	6777.8
2664.05923	6819.4
2666.6951	6796.7
2669.32934	6793.2
2671.96194	6798.7
2674.59291	6799.7
2677.22224	6807.1
2679.84993	6799.1
2682.476	6798.1
2685.10043	6805.7
2687.72324	6791.3
2690.34441	6776.7
2692.96396	6786.7
2695.58188	6799.9
2698.19818	6795.7
2700.81285	6792.5
2703.4259	6777.6
2706.03733	6772.7
2708.64714	6747.9
2711.25533	6783.8
2713.86191	6773.8
2716.46687	6776.8
2719.07021	6769.2
2721.67194	6799.3
2724.27206	6780.7
2726.87057	6801.9
2729.46747	6785.3
2732.06276	6813.4
2734.65644	6787.8
2737.24852	6800.4
2739.83899	6768.8
2742.42786	6796.1
2745.01513	6779.1
2747.60079	6777.6
2750.18486	6760.2
2752.76733	6754.9
2755.3482	6746
2757.92747	6724.8
2760.50515	6741.2
2763.08123	6750.9
2765.65573	6747.3
2768.22863	6751.5
2770.79994	6730
2773.36967	6728.6
2775.9378	6734.5
2778.50435	6708.7
2781.06932	6718.4
2783.6327	6711.3
2786.1945	6703.1
2788.75471	6701.6
2791.31335	6688.7
2793.87041	6693.3
2796.42589	6669.9
2798.97979	6670.3
2801.53212	6664.8
2804.08288	6668.7
2806.63206	6634.1
2809.17967	6618.3
2811.72571	6601.6
2814.27018	6622.6
2816.81308	6603.7
2819.35442	6608.9
2821.89419	6598.3
2824.43239	6604.3
2826.96904	6610.5
2829.50412	6596
2832.03763	6590.6
2834.56959	6613.3
2837.1	6600.6
2839.62884	6621.7
2842.15613	6637.7
2844.68186	6664.7
2847.20604	6686.7
2849.72867	6717.5
2852.24974	6723
2854.76927	6724.1
2857.28724	6699.1
2859.80367	6683.9
2862.31855	6671.6
2864.83189	6675.4
2867.34368	6675.6
2869.85393	6650.8
2872.36264	6671.5
2874.8698	6673.9
2877.37543	6679.7
2879.87952	6669.2
2882.38207	6689.9
2884.88308	6661
2887.38256	6669.1
2889.88051	6682.1
2892.37692	6666.9
2894.8718	6695
2897.36515	6691.3
2899.85698	6702.1
2902.34727	6720.4
2904.83604	6731.6
2907.32328	6730.3
2909.809	6722.1
2912.29319	6741.2
2914.77587	6727.5
2917.25702	6747.9
2919.73665	6729.7
2922.21476	6742.9
2924.69136	6750.4
2927.16644	6732.7
2929.64	6729.7
2932.11205	6709
2934.58258	6690
2937.05161	6711.5
2939.51912	6705.8
2941.98513	6679.3
2944.44962	6633.1
2946.91261	6620.5
2949.37409	6606.9
2951.83407	6587.8
2954.29254	6563.2
2956.74951	6560.2
2959.20498	6565.6
2961.65895	6549.8
2964.11142	6531.5
2966.56239	6511.3
2969.01186	6492.3
2971.45984	6478.4
2973.90632	6480.7
2976.35131	6456.4
2978.7948	6452.8
2981.23681	6428.8
2983.67732	6411.1
2986.11635	6394.4
2988.55388	6381.8
2990.98993	6354.5
2993.4245	6358.5
2995.85758	6350.1
2998.28917	6350.9
3000.71928	6322.7
3003.14791	6308.8
3005.57506	6315.1
3008.00073	6301.4
3010.42493	6295.3
3012.84764	6275.1
3015.26888	6271.8
3017.68865	6282.4
3020.10694	6277
3022.52376	6234.4
3024.9391	6236.5
3027.35298	6245.3
3029.76539	6209.8
3032.17632	6226.3
3034.5858	6223.1
3036.9938	6199.5
3039.40034	6207.1
3041.80542	6189.2
3044.20903	6180.7
3046.61118	6178.4
3049.01187	6160.9
3051.4111	6189.3
3053.80888	6163.4
3056.20519	6141.9
3058.60005	6144.5
3060.99345	6102.1
3063.3854	6115
3065.7759	6100.2
3068.16494	6081.6
3070.55254	6076.6
3072.93868	6061.1
3075.32338	6055.5
3077.70662	6035.8
3080.08842	6036.6
3082.46878	6034.5
3084.84769	6016.6
3087.22515	6038
3089.60118	6027.2
3091.97576	6006.1
3094.3489	6030.9
3096.72061	6033.4
3099.09087	6031.1
3101.4597	6036.9
3103.82709	6023
3106.19305	6034.8
3108.55757	6043.1
3110.92066	6019.8
3113.28232	6010.5
3115.64255	5999.5
3118.00134	5997.9
3120.35871	5999.6
3122.71466	5997
3125.06917	5973
3127.42226	5966
3129.77393	5978
3132.12417	5967.9
3134.47299	5969
3136.82039	5980.2
3139.16636	5995.7
3141.51092	5981.8
3143.85406	6007.3
3146.19579	6008
3148.53609	6013
3150.87499	6008.9
3153.21246	6010.4
3155.54853	6028.1
3157.88318	6027.6
3160.21642	6040.1
3162.54826	6040.4
3164.87868	6040.3
3167.2077	6056.9
3169.5353	6062.5
3171.86151	6048.1
3174.18631	6045.2
3176.5097	6053.3
3178.83169	6040.1
3181.15228	6034.4
3183.47147	6025
3185.78926	6024.3
3188.10565	6029.9
3190.42065	6044.2
3192.73424	6025.6
3195.04645	6033.1
3197.35725	6032
3199.66667	6037.3
3201.97469	6055.7
3204.28132	6040.8
3206.58656	6048.1
3208.8904	6065.5
3211.19287	6054.2
3213.49394	6062.6
3215.79363	6087.2
3218.09193	6088.7
3220.38884	6093.9
3222.68438	6085.3
3224.97853	6060.7
3227.2713	6080.6
3229.56269	6076.8
3231.8527	6103.3
3234.14133	6071.5
3236.42858	6055.9
3238.71446	6053.6
3240.99896	6033.7
3243.28209	6031.5
3245.56384	6036
3247.84423	6049.3
3250.12324	6038.3
3252.40088	6030.2
3254.67715	6028.4
3256.95205	6029.1
3259.22558	6030.9
3261.49775	6028.5
3263.76855	6021.3
3266.03799	6005.8
3268.30606	5995.5
3270.57277	5994.7
3272.83812	5982.4
3275.10211	5950.5
3277.36474	5953.3
3279.62601	5960.4
3281.88593	5920.9
3284.14448	5940.6
3286.40168	5971.4
3288.65753	5941.1
3290.91202	5958.9
3293.16516	5940.3
3295.41695	5914.2
3297.66738	5896.1
3299.91647	5865
3302.16421	5837.5
3304.4106	5815.8
3306.65564	5789
3308.89933	5747.5
3311.14169	5712.2
3313.38269	5684.2
3315.62236	5641.3
3317.86068	5602.1
3320.09766	5543.2
3322.3333	5513.5
3324.5676	5502.1
3326.80056	5419.1
3329.03219	5387.6
3331.26248	2.2
3333.49143	-1
3335.71905	-0.6
