Data from AgNPs_FTO_APTES_UA_1uM_CRN_2uM_R6G_10uM_NaF_0.1M_Addition_RamanShift__13__13-10-29-545.txt Node

Date: Thu Jan 27 13:10:29 GMT 2022
User: TCL
Spectrometer: QEP01345
Trigger mode: 4
Integration Time (sec): 7.000000E0
Scans to average: 10
Electric dark correction enabled: true
Nonlinearity correction enabled: false
Boxcar width: 0
XAxis mode: Raman Shifts
Number of Pixels in Spectrum: 1044
>>>>>Begin Spectral Data<<<<<
46.04893	-0.2
50.45542	1.7
54.85868	-1.6
59.25871	-1.2
63.6555	61.1
68.04907	66.4
72.43941	67
76.82654	70.2
81.21044	71.1
85.59113	75.3
89.96862	79.8
94.34289	78.8
98.71396	87
103.08183	85.7
107.4465	89.3
111.80798	92.9
116.16626	94
120.52136	101.3
124.87327	101
129.222	101.2
133.56755	109.5
137.90993	116.2
142.24913	125.1
146.58517	141.2
150.91804	163.7
155.24774	196.4
159.57429	236.8
163.89768	303.2
168.21792	405.8
172.53501	544.7
176.84895	759.8
181.15975	1062.4
185.46741	1488.3
189.77193	2060.9
194.07331	2757.9
198.37157	3585.1
202.6667	4441
206.9587	5279.1
211.24758	6109
215.53334	6946.7
219.81599	7788.1
224.09553	8745.3
228.37195	9751.6
232.64527	10893.8
236.91549	12130.3
241.18261	13361.8
245.44663	14613.9
249.70755	15714.3
253.96539	16751
258.22014	17583
262.4718	18249.5
266.72039	18735.5
270.96589	18942.1
275.20832	18962.3
279.44768	18885.4
283.68397	18659.1
287.91719	18463.9
292.14735	18279.5
296.37445	18181.2
300.59849	18092.1
304.81948	18081.3
309.03742	18032.3
313.25231	17964.4
317.46415	17767.5
321.67296	17529.7
325.87872	17338.8
330.08145	17241.1
334.28114	17314.1
338.47781	17410.3
342.67145	17601.2
346.86207	17850.1
351.04966	18136.2
355.23424	18376.1
359.4158	18615.3
363.59435	18799.3
367.76989	19025.5
371.94243	19111.2
376.11196	19223.1
380.27849	19299.6
384.44203	19370.7
388.60257	19515.3
392.76012	19691.1
396.91468	19944.8
401.06626	20180.9
405.21485	20349.4
409.36047	20390.4
413.50311	20222.6
417.64277	20137.9
421.77947	20144.2
425.9132	20261.8
430.04396	20394.2
434.17176	20505.8
438.2966	20585.4
442.41849	20732.8
446.53742	20999.8
450.6534	21301.5
454.76644	21520.8
458.87653	21605.1
462.98368	21632.5
467.08789	21527.9
471.18916	21446.2
475.2875	21236.4
479.38291	21122.2
483.4754	21027.6
487.56496	20915.8
491.6516	20826.1
495.73531	20691.5
499.81612	20623.6
503.89401	20722.1
507.96899	20848.9
512.04106	20865.5
516.11023	20872.8
520.1765	20748.7
524.23987	20606.9
528.30034	20520.5
532.35792	20358.4
536.41261	20254.3
540.46441	20103.2
544.51333	20113.9
548.55936	20269.8
552.60252	20457
556.64279	20683.1
560.6802	20901.7
564.71473	20986.8
568.7464	21174.7
572.7752	21514.2
576.80114	21938.5
580.82422	22411.8
584.84444	22921
588.86181	23577.3
592.87633	24179.7
596.888	24156.9
600.89682	23652.9
604.9028	23395.4
608.90594	24082.2
612.90624	25103.2
616.90371	24247.2
620.89834	21921.9
624.89015	20873.6
628.87913	20765.2
632.86528	20903.1
636.84862	20997.1
640.82913	20805.5
644.80683	20464.4
648.78172	20265.9
652.75379	20231.6
656.72306	20381.3
660.68952	20624
664.65319	20614.1
668.61405	20440.4
672.57211	20337.2
676.52738	20460.6
680.47986	20399.3
684.42955	20326.2
688.37646	20279.2
692.32058	20304
696.26192	20458.4
700.20048	20634.2
704.13626	20758.8
708.06928	20799.1
711.99952	20753
715.927	20735.9
719.85171	20735.3
723.77365	20651.5
727.69284	20535.3
731.60928	20341.1
735.52295	20266.2
739.43388	20224.6
743.34206	20298.1
747.24749	20309.7
751.15017	20426.6
755.05012	20697.2
758.94733	20996.5
762.8418	21555.9
766.73354	22388.8
770.62254	23246.1
774.50882	23417
778.39237	22934.4
782.27321	22059
786.15132	21336.1
790.02671	20791.5
793.89938	20556.9
797.76935	20343.8
801.6366	20272.2
805.50115	20212.3
809.36299	20178.4
813.22213	20102.7
817.07857	20048.1
820.93231	20043.4
824.78336	19996.9
828.63172	19975.1
832.47738	19974.9
836.32036	19966.1
840.16066	19926
843.99827	19901.4
847.8332	19870.5
851.66546	19913.4
855.49504	19929.6
859.32195	19964.2
863.1462	19943.5
866.96777	19958.8
870.78668	19964.1
874.60293	19973.8
878.41652	19999.7
882.22745	20024.3
886.03573	20120.5
889.84136	20096.4
893.64433	20061.5
897.44466	20013.2
901.24235	20017.5
905.0374	19979
908.8298	19887.9
912.61957	19948.4
916.40671	20019.9
920.19121	20173.8
923.97308	20302.5
927.75233	20288.1
931.52895	20160.9
935.30295	20025.6
939.07433	19811.1
942.84309	19596.9
946.60924	19571.2
950.37278	19559.6
954.13371	19460.7
957.89203	19439
961.64774	19437.1
965.40086	19372.8
969.15137	19351.8
972.89929	19284.5
976.64461	19218.6
980.38733	19176
984.12747	19193
987.86502	19244.5
991.59999	19287.7
995.33237	19367.2
999.06217	19499.6
1002.78939	19688.5
1006.51404	19914.2
1010.23611	20201.9
1013.95561	20362.7
1017.67255	20389.6
1021.38692	20259.1
1025.09872	20045.1
1028.80796	19880.4
1032.51465	19758.7
1036.21877	19746.3
1039.92035	19797.8
1043.61937	19848.2
1047.31584	19931.3
1051.00976	19997.9
1054.70114	20049
1058.38998	20120
1062.07627	20251.8
1065.76003	20409.1
1069.44126	20595.7
1073.11995	20845.4
1076.79611	21075.2
1080.46974	21208.2
1084.14085	21226.8
1087.80943	21314.2
1091.47549	21394.3
1095.13903	21545.7
1098.80005	21447.5
1102.45857	21117.6
1106.11456	20874.3
1109.76805	20656
1113.41903	20557.2
1117.06751	20526.2
1120.71348	20650.2
1124.35696	20763.6
1127.99793	20931.8
1131.63641	20990.1
1135.2724	20973
1138.90589	20877.9
1142.5369	20857.8
1146.16542	20874.6
1149.79145	20954.7
1153.415	21037.8
1157.03607	21049
1160.65467	21317.1
1164.27079	21825.9
1167.88443	22395.2
1171.49561	23145
1175.10432	23928.8
1178.71056	24917.5
1182.31434	25913.6
1185.91565	26512.4
1189.51451	26692.6
1193.11091	26535.5
1196.70485	26053.8
1200.29634	25470.7
1203.88538	24974
1207.47197	24628.3
1211.05612	24396.9
1214.63782	24147.8
1218.21708	23714.4
1221.79391	23239.3
1225.36829	22916.4
1228.94024	22677
1232.50976	22543.6
1236.07685	22479.1
1239.6415	22391.3
1243.20374	22398.3
1246.76355	22506.8
1250.32093	22633.8
1253.8759	22869.8
1257.42845	23244.3
1260.97859	23675.3
1264.52631	24129.9
1268.07163	24514.6
1271.61453	24874
1275.15503	25212.5
1278.69312	25661.6
1282.22882	26090.4
1285.76211	26580.8
1289.29301	27107.8
1292.82151	27789.5
1296.34761	28620.5
1299.87133	29558.1
1303.39266	30525.8
1306.9116	31431.7
1310.42815	32084.8
1313.94233	32449.6
1317.45412	32346.8
1320.96354	32075.4
1324.47058	31755.8
1327.97525	31656.5
1331.47754	31561.4
1334.97747	31489
1338.47502	31461.9
1341.97022	31580.5
1345.46305	31693.4
1348.95352	31776
1352.44163	31766.7
1355.92738	31848.4
1359.41078	32244.5
1362.89183	32681.2
1366.37053	32281
1369.84688	30671.3
1373.32088	28544.2
1376.79254	26829.1
1380.26186	26063.9
1383.72883	25849.7
1387.19347	25727.8
1390.65578	25460.6
1394.11575	25249.7
1397.57339	25243.8
1401.0287	25422.7
1404.48168	25616.5
1407.93234	25569.9
1411.38068	25325
1414.82669	24903.5
1418.27039	24307.1
1421.71177	23735.4
1425.15083	23279.9
1428.58758	23058.1
1432.02203	23125.7
1435.45416	23381.7
1438.88399	23727.7
1442.31151	23964.8
1445.73673	24150.3
1449.15965	24245.4
1452.58027	24317.9
1455.9986	24353.3
1459.41463	24458.4
1462.82837	24723.5
1466.23982	25090.6
1469.64898	25398.8
1473.05586	25592.6
1476.46045	25676.2
1479.86276	25647.1
1483.26279	25531.2
1486.66054	25510.3
1490.05602	25647.5
1493.44922	25937.9
1496.84016	26372.1
1500.22882	26863.2
1503.61521	27541.1
1506.99934	28177.6
1510.38121	28608.7
1513.76081	28661.6
1517.13816	28239
1520.51324	27644.3
1523.88607	27142.8
1527.25665	26823.8
1530.62498	26692.3
1533.99105	26455.2
1537.35488	26121
1540.71647	25674.2
1544.07581	25198.4
1547.4329	24765.1
1550.78776	24416.5
1554.14038	24136.2
1557.49077	24002.7
1560.83892	23993
1564.18484	24029.2
1567.52853	24092.2
1570.86999	24206.9
1574.20922	24481.4
1577.54624	24698.8
1580.88103	24680.5
1584.2136	24700.3
1587.54395	25038.8
1590.87208	25653.3
1594.19801	26528
1597.52172	27379.8
1600.84321	27671.3
1604.16251	26923
1607.47959	25711.8
1610.79447	24323.9
1614.10715	22983.7
1617.41763	21860.5
1620.7259	21065
1624.03199	20614.7
1627.33587	20524.2
1630.63757	20805.8
1633.93707	21518.2
1637.23439	22769.1
1640.52951	24664.2
1643.82246	26916
1647.11321	28808.6
1650.40179	29371.5
1653.68819	28034.6
1656.97241	25485.6
1660.25446	22908.1
1663.53433	20920.9
1666.81203	19700.3
1670.08756	18865.1
1673.36092	18372.7
1676.63211	18087
1679.90115	17856.1
1683.16801	17645.3
1686.43272	17510.5
1689.69527	17405.9
1692.95567	17273.6
1696.2139	17206.5
1699.46999	17128.8
1702.72392	17099.3
1705.97571	17098.2
1709.22535	17090.9
1712.47284	17092.6
1715.71819	17092.2
1718.96139	17036.1
1722.20246	17008.8
1725.44139	16939.7
1728.67818	16912.4
1731.91284	16846.3
1735.14537	16783
1738.37576	16705.7
1741.60403	16630.9
1744.83017	16618.4
1748.05418	16530.4
1751.27607	16480.6
1754.49584	16457.6
1757.71349	16440.9
1760.92903	16406.3
1764.14244	16377.7
1767.35375	16377.7
1770.56294	16374
1773.77002	16350.7
1776.97499	16365.1
1780.17785	16339
1783.37861	16326
1786.57727	16305.6
1789.77382	16315.2
1792.96828	16225
1796.16064	16203.2
1799.3509	16175.9
1802.53907	16175.8
1805.72514	16146.9
1808.90913	16090.9
1812.09102	16053
1815.27083	16015
1818.44856	15994.1
1821.6242	15969
1824.79776	15954.9
1827.96924	15956.7
1831.13864	15923.6
1834.30597	15936.8
1837.47122	15914.5
1840.6344	15909.6
1843.7955	15922.9
1846.95454	15902.3
1850.11151	15896
1853.26642	15876.2
1856.41926	15904.8
1859.57004	15910.5
1862.71876	15866.9
1865.86542	15853.5
1869.01003	15841.5
1872.15258	15807.8
1875.29308	15781.9
1878.43152	15724.4
1881.56792	15727
1884.70227	15665.5
1887.83457	15643.4
1890.96482	15602.2
1894.09304	15604
1897.21921	15558
1900.34335	15556.7
1903.46544	15561.9
1906.58551	15513.7
1909.70353	15457.3
1912.81953	15470.1
1915.93349	15418.5
1919.04543	15398.6
1922.15534	15345.7
1925.26322	15303
1928.36908	15268.8
1931.47292	15286
1934.57473	15242.8
1937.67453	15199.6
1940.77232	15164.2
1943.86808	15094.5
1946.96184	15060.6
1950.05358	14992.8
1953.14331	14987.6
1956.23103	14917.3
1959.31675	14879.7
1962.40046	14843.3
1965.48217	14786.4
1968.56188	14742.6
1971.63959	14696.7
1974.7153	14622.3
1977.78901	14587.1
1980.86073	14560
1983.93046	14529.9
1986.99819	14449.7
1990.06394	14405.5
1993.1277	14415.6
1996.18947	14313.4
1999.24925	14281.2
2002.30706	14208.9
2005.36288	14199.4
2008.41672	14178.7
2011.46859	14120.3
2014.51848	14065.7
2017.56639	14039.3
2020.61233	14012.5
2023.6563	13971.9
2026.6983	13929.7
2029.73833	13890
2032.7764	13853.2
2035.8125	13837.6
2038.84664	13771.1
2041.87881	13741.3
2044.90903	13712
2047.93729	13682.1
2050.96359	13670.9
2053.98794	13625.8
2057.01034	13629.5
2060.03078	13588
2063.04927	13590.9
2066.06582	13602.1
2069.08042	13584.2
2072.09307	13566.3
2075.10378	13549.6
2078.11255	13555.1
2081.11938	13568.9
2084.12426	13571.2
2087.12722	13532.7
2090.12824	13508.6
2093.12732	13553.2
2096.12447	13543.9
2099.11969	13512
2102.11299	13566.1
2105.10435	13548.4
2108.09379	13539.1
2111.08131	13548.9
2114.0669	13530.9
2117.05057	13562
2120.03233	13555.6
2123.01216	13564.3
2125.99008	13559.9
2128.96609	13582.2
2131.94018	13561.9
2134.91236	13583.2
2137.88263	13578.8
2140.851	13588.3
2143.81746	13610.6
2146.78201	13612.2
2149.74466	13574.3
2152.7054	13586.2
2155.66425	13561.9
2158.6212	13569.7
2161.57625	13534.1
2164.52941	13565.9
2167.48067	13569.5
2170.43004	13499.2
2173.37752	13517.8
2176.32311	13504
2179.26681	13522.3
2182.20863	13479.2
2185.14856	13505.5
2188.08661	13498.4
2191.02278	13510.1
2193.95707	13479.8
2196.88948	13454.2
2199.82001	13453.1
2202.74867	13449
2205.67545	13437.2
2208.60037	13389
2211.52341	13369.1
2214.44458	13338.5
2217.36388	13290.5
2220.28132	13271.9
2223.1969	13266.2
2226.11061	13253.6
2229.02246	13184
2231.93245	13204.3
2234.84058	13170.5
2237.74686	13157.9
2240.65128	13135.8
2243.55385	13116.2
2246.45456	13078.8
2249.35343	13076.9
2252.25044	13050.5
2255.14561	13014
2258.03893	12959.7
2260.93041	12949.3
2263.82004	12927.2
2266.70783	12926.1
2269.59378	12879
2272.4779	12837.7
2275.36017	12807.6
2278.24061	12807.4
2281.11922	12774.5
2283.996	12742.5
2286.87094	12724.9
2289.74405	12719
2292.61534	12669.2
2295.4848	12632.9
2298.35243	12661
2301.21824	12618.2
2304.08223	12616.1
2306.94439	12611.4
2309.80474	12610.5
2312.66327	12587
2315.51999	12562.3
2318.37489	12540.2
2321.22797	12546.9
2324.07925	12521.5
2326.92871	12493.6
2329.77637	12462.9
2332.62222	12420.4
2335.46626	12411.3
2338.3085	12377.5
2341.14893	12358.5
2343.98756	12363.5
2346.8244	12384.9
2349.65943	12315.4
2352.49267	12313.6
2355.32411	12322
2358.15376	12276.9
2360.98161	12309.5
2363.80768	12304.8
2366.63195	12290.8
2369.45444	12272
2372.27514	12230.5
2375.09405	12242.7
2377.91118	12209.6
2380.72652	12212.9
2383.54009	12158.5
2386.35187	12142.3
2389.16188	12096.5
2391.97011	12078.6
2394.77657	12058.3
2397.58125	12034.9
2400.38416	12008.9
2403.18529	12000
2405.98466	11984.7
2408.78226	11962.6
2411.57809	11947.8
2414.37216	11936.1
2417.16446	11906.9
2419.955	11894.3
2422.74378	11893.1
2425.5308	11899
2428.31606	11868
2431.09956	11855.7
2433.88131	11838.1
2436.6613	11814.7
2439.43954	11832.1
2442.21603	11804.9
2444.99077	11781.2
2447.76377	11775
2450.53501	11755.3
2453.30451	11769.1
2456.07226	11748.2
2458.83827	11694.6
2461.60254	11712.7
2464.36507	11689.1
2467.12586	11681
2469.88492	11661.5
2472.64224	11677.9
2475.39782	11663.3
2478.15167	11657.8
2480.90379	11625.8
2483.65417	11620.8
2486.40283	11603.2
2489.14976	11624.1
2491.89497	11612.9
2494.63845	11598.3
2497.3802	11559.7
2500.12024	11549.5
2502.85855	11532.3
2505.59514	11528.7
2508.33002	11521.9
2511.06318	11510.2
2513.79462	11522
2516.52435	11470.4
2519.25237	11454.1
2521.97867	11463.4
2524.70327	11463.2
2527.42616	11447.9
2530.14734	11411
2532.86681	11417.5
2535.58458	11358.2
2538.30065	11364.2
2541.01501	11344.7
2543.72768	11337.6
2546.43864	11323.1
2549.14791	11295.2
2551.85548	11273.7
2554.56136	11263.8
2557.26554	11227.9
2559.96803	11228.1
2562.66883	11211.8
2565.36794	11188.9
2568.06536	11177.1
2570.7611	11147.6
2573.45514	11105.2
2576.14751	11086.7
2578.83819	11080.1
2581.52719	11054.5
2584.21451	11025.4
2586.90015	11007.8
2589.58411	10995.1
2592.2664	10970.4
2594.94701	10946.6
2597.62594	10933.8
2600.30321	10916.6
2602.9788	10891.2
2605.65273	10880.9
2608.32498	10880.5
2610.99557	10861.5
2613.66449	10881.6
2616.33175	10853
2618.99734	10816.9
2621.66128	10824.7
2624.32355	10788.8
2626.98416	10785.3
2629.64311	10779.3
2632.30041	10728.9
2634.95605	10754.6
2637.61004	10705.1
2640.26238	10682.8
2642.91306	10695.4
2645.56209	10685.3
2648.20948	10687.7
2650.85521	10693.7
2653.4993	10655
2656.14175	10675.1
2658.78255	10664
2661.42171	10688.4
2664.05923	10692.6
2666.6951	10685.3
2669.32934	10671.8
2671.96194	10654.2
2674.59291	10668.1
2677.22224	10656.9
2679.84993	10671.6
2682.476	10641.1
2685.10043	10659.9
2687.72324	10629.6
2690.34441	10628.4
2692.96396	10632.2
2695.58188	10621.9
2698.19818	10625.8
2700.81285	10603.7
2703.4259	10606
2706.03733	10597.7
2708.64714	10583
2711.25533	10595.4
2713.86191	10632.5
2716.46687	10625.1
2719.07021	10618.2
2721.67194	10610.9
2724.27206	10603
2726.87057	10635
2729.46747	10596.2
2732.06276	10622.5
2734.65644	10580.7
2737.24852	10603.9
2739.83899	10544.3
2742.42786	10540.5
2745.01513	10524.1
2747.60079	10512.2
2750.18486	10490.3
2752.76733	10516.2
2755.3482	10512
2757.92747	10503.9
2760.50515	10443.1
2763.08123	10443.4
2765.65573	10444
2768.22863	10431.9
2770.79994	10409.5
2773.36967	10405.4
2775.9378	10401.8
2778.50435	10380.4
2781.06932	10364.8
2783.6327	10330.6
2786.1945	10325
2788.75471	10300.7
2791.31335	10270.5
2793.87041	10257.5
2796.42589	10244.8
2798.97979	10217.5
2801.53212	10229.1
2804.08288	10191.4
2806.63206	10159.7
2809.17967	10144.5
2811.72571	10117.3
2814.27018	10106.6
2816.81308	10074.9
2819.35442	10056.1
2821.89419	10042
2824.43239	10046.5
2826.96904	10030.6
2829.50412	10012.4
2832.03763	9976.7
2834.56959	9988.9
2837.1	9975.1
2839.62884	9969.9
2842.15613	9972.8
2844.68186	9975
2847.20604	9961.8
2849.72867	9979.7
2852.24974	9957.7
2854.76927	9925.3
2857.28724	9928.5
2859.80367	9928.4
2862.31855	9898.7
2864.83189	9855.8
2867.34368	9842.8
2869.85393	9842.2
2872.36264	9812.5
2874.8698	9825.1
2877.37543	9803
2879.87952	9799.8
2882.38207	9800.7
2884.88308	9771.2
2887.38256	9774.2
2889.88051	9786.9
2892.37692	9765.1
2894.8718	9740.2
2897.36515	9751.6
2899.85698	9750.8
2902.34727	9765.2
2904.83604	9769.2
2907.32328	9765.3
2909.809	9769
2912.29319	9777.5
2914.77587	9775.6
2917.25702	9766.5
2919.73665	9750.3
2922.21476	9752
2924.69136	9738.5
2927.16644	9752
2929.64	9742.2
2932.11205	9722.6
2934.58258	9665.9
2937.05161	9699.3
2939.51912	9692.7
2941.98513	9678.8
2944.44962	9643.3
2946.91261	9613.6
2949.37409	9619.7
2951.83407	9606.2
2954.29254	9613.5
2956.74951	9581.2
2959.20498	9588.4
2961.65895	9567.2
2964.11142	9595.1
2966.56239	9559.8
2969.01186	9547.1
2971.45984	9512.1
2973.90632	9518.8
2976.35131	9485.2
2978.7948	9478
2981.23681	9443.1
2983.67732	9447.4
2986.11635	9413.1
2988.55388	9383.2
2990.98993	9342.1
2993.4245	9345
2995.85758	9306.9
2998.28917	9281.4
3000.71928	9276.1
3003.14791	9235.9
3005.57506	9253.9
3008.00073	9219
3010.42493	9211.6
3012.84764	9212.9
3015.26888	9228.2
3017.68865	9199.5
3020.10694	9156
3022.52376	9139.3
3024.9391	9130.4
3027.35298	9117.6
3029.76539	9104.5
3032.17632	9103.6
3034.5858	9074.9
3036.9938	9080.2
3039.40034	9054.4
3041.80542	9055.9
3044.20903	9025.9
3046.61118	9028.4
3049.01187	8986.1
3051.4111	8988.6
3053.80888	8983.3
3056.20519	8965.5
3058.60005	8938.2
3060.99345	8899.9
3063.3854	8880.3
3065.7759	8866.8
3068.16494	8828.1
3070.55254	8819.3
3072.93868	8828.8
3075.32338	8786.9
3077.70662	8791.8
3080.08842	8738
3082.46878	8747.6
3084.84769	8714.6
3087.22515	8725.2
3089.60118	8716.4
3091.97576	8712.5
3094.3489	8707.2
3096.72061	8688.5
3099.09087	8708.6
3101.4597	8670.4
3103.82709	8685.3
3106.19305	8693.8
3108.55757	8685.1
3110.92066	8634.7
3113.28232	8657.6
3115.64255	8612.6
3118.00134	8608.8
3120.35871	8591.1
3122.71466	8576
3125.06917	8548.4
3127.42226	8518.6
3129.77393	8517.1
3132.12417	8503.8
3134.47299	8521
3136.82039	8507.9
3139.16636	8507.1
3141.51092	8513.7
3143.85406	8521.8
3146.19579	8524.2
3148.53609	8523.7
3150.87499	8513.6
3153.21246	8520.9
3155.54853	8527.7
3157.88318	8480.9
3160.21642	8514
3162.54826	8526.1
3164.87868	8489
3167.2077	8486.4
3169.5353	8523.9
3171.86151	8498.5
3174.18631	8494.1
3176.5097	8470.7
3178.83169	8457.5
3181.15228	8453.3
3183.47147	8419
3185.78926	8430.7
3188.10565	8402.6
3190.42065	8386.2
3192.73424	8406.7
3195.04645	8385.6
3197.35725	8380.8
3199.66667	8375.7
3201.97469	8366.9
3204.28132	8365
3206.58656	8396.3
3208.8904	8395.4
3211.19287	8392.2
3213.49394	8389.9
3215.79363	8395.1
3218.09193	8406.4
3220.38884	8400.9
3222.68438	8360.8
3224.97853	8348
3227.2713	8335.2
3229.56269	8331.7
3231.8527	8355.3
3234.14133	8337.6
3236.42858	8300.8
3238.71446	8298
3240.99896	8256.2
3243.28209	8280.7
3245.56384	8237
3247.84423	8242.1
3250.12324	8215.9
3252.40088	8236.1
3254.67715	8213.6
3256.95205	8204.6
3259.22558	8229
3261.49775	8196.6
3263.76855	8185.3
3266.03799	8163.9
3268.30606	8129.1
3270.57277	8129
3272.83812	8125
3275.10211	8095.3
3277.36474	8070
3279.62601	8070
3281.88593	8068.6
3284.14448	8064.5
3286.40168	8065.9
3288.65753	8078.1
3290.91202	8060.5
3293.16516	8019.6
3295.41695	8011.7
3297.66738	7947.7
3299.91647	7914.8
3302.16421	7855.1
3304.4106	7800.1
3306.65564	7780.2
3308.89933	7729.9
3311.14169	7680.1
3313.38269	7611.6
3315.62236	7563.7
3317.86068	7503.6
3320.09766	7446.9
3322.3333	7409.9
3324.5676	7380.2
3326.80056	7257.3
3329.03219	7230.5
3331.26248	2.4
3333.49143	0
3335.71905	0
