Data from AgNPs_FTO_APTES_UA_1uM_CRN_1000uM_R6G_10uM_NaF_0.1M_Addition_RamanShift__24__19-01-39-946.txt Node

Date: Thu Jan 27 19:01:39 GMT 2022
User: TCL
Spectrometer: QEP01345
Trigger mode: 4
Integration Time (sec): 7.000000E0
Scans to average: 10
Electric dark correction enabled: true
Nonlinearity correction enabled: false
Boxcar width: 0
XAxis mode: Raman Shifts
Number of Pixels in Spectrum: 1044
>>>>>Begin Spectral Data<<<<<
46.04893	0.7375
50.45542	0.3375
54.85868	-0.7625
59.25871	-1.4625
63.6555	51.3375
68.04907	56.3375
72.43941	58.3375
76.82654	61.8375
81.21044	63.2375
85.59113	63.2375
89.96862	63.5375
94.34289	69.3375
98.71396	74.3375
103.08183	71.8375
107.4465	74.2375
111.80798	79.3375
116.16626	78.6375
120.52136	86.2375
124.87327	87.6375
129.222	93.7375
133.56755	94.2375
137.90993	101.0375
142.24913	110.7375
146.58517	121.2375
150.91804	145.1375
155.24774	170.7375
159.57429	204.5375
163.89768	262.7375
168.21792	357.6375
172.53501	478.2375
176.84895	659.9375
181.15975	922.3375
185.46741	1296.6375
189.77193	1789.4375
194.07331	2416.9375
198.37157	3116.3375
202.6667	3877.8375
206.9587	4611.0375
211.24758	5384.5375
215.53334	6137.9375
219.81599	6972.7375
224.09553	7893.6375
228.37195	8923.9375
232.64527	10042.2375
236.91549	11142.0375
241.18261	12224.9375
245.44663	13169.0375
249.70755	13917.3375
253.96539	14586.6375
258.22014	15171.6375
262.4718	15607.6375
266.72039	15977.3375
270.96589	16180.2375
275.20832	16168.5375
279.44768	15989.7375
283.68397	15743.8375
287.91719	15491.7375
292.14735	15457.9375
296.37445	15587.2375
300.59849	15940.5375
304.81948	16435.6375
309.03742	16707.4375
313.25231	16606.0375
317.46415	15963.0375
321.67296	14990.5375
325.87872	14190.9375
330.08145	13829.7375
334.28114	13803.3375
338.47781	13987.0375
342.67145	14302.0375
346.86207	14762.1375
351.04966	15469.8375
355.23424	16201.8375
359.4158	16833.5375
363.59435	17215.9375
367.76989	17412.1375
371.94243	17463.4375
376.11196	17488.4375
380.27849	17514.6375
384.44203	17409.9375
388.60257	17291.1375
392.76012	17164.4375
396.91468	17228.3375
401.06626	17519.5375
405.21485	17801.1375
409.36047	17619.6375
413.50311	16875.0375
417.64277	16204.8375
421.77947	15757.6375
425.9132	15616.0375
430.04396	15616.7375
434.17176	15691.6375
438.2966	15907.0375
442.41849	16240.3375
446.53742	16662.0375
450.6534	17117.8375
454.76644	17428.0375
458.87653	17476.9375
462.98368	17394.8375
467.08789	17143.6375
471.18916	16866.0375
475.2875	16557.4375
479.38291	16347.6375
483.4754	16105.3375
487.56496	15857.0375
491.6516	15692.8375
495.73531	15563.7375
499.81612	15555.5375
503.89401	15687.1375
507.96899	15833.9375
512.04106	16029.7375
516.11023	16236.2375
520.1765	16405.2375
524.23987	16388.9375
528.30034	16152.3375
532.35792	15890.2375
536.41261	15616.0375
540.46441	15303.0375
544.51333	15165.9375
548.55936	15199.1375
552.60252	15412.0375
556.64279	15710.0375
560.6802	15935.9375
564.71473	16165.4375
568.7464	16656.9375
572.7752	17029.9375
576.80114	16747.5375
580.82422	16265.9375
584.84444	16052.5375
588.86181	16056.4375
592.87633	16254.8375
596.888	16447.8375
600.89682	16775.2375
604.9028	18082.6375
608.90594	21757.3375
612.90624	26851.4375
616.90371	26397.2375
620.89834	19651.6375
624.89015	16267.9375
628.87913	15596.7375
632.86528	15628.0375
636.84862	15751.7375
640.82913	15642.7375
644.80683	15142.2375
648.78172	14751.6375
652.75379	14746.6375
656.72306	15117.1375
660.68952	15690.8375
664.65319	15660.8375
668.61405	15170.3375
672.57211	14898.6375
676.52738	14992.8375
680.47986	15009.3375
684.42955	14947.5375
688.37646	14836.5375
692.32058	14802.3375
696.26192	14908.6375
700.20048	15036.7375
704.13626	15143.8375
708.06928	15048.6375
711.99952	14856.1375
715.927	14729.7375
719.85171	14731.3375
723.77365	14750.2375
727.69284	14701.5375
731.60928	14599.7375
735.52295	14592.8375
739.43388	14621.7375
743.34206	14670.9375
747.24749	14678.6375
751.15017	14750.1375
755.05012	14892.9375
758.94733	15387.6375
762.8418	16428.0375
766.73354	18460.9375
770.62254	20873.9375
774.50882	22365.1375
778.39237	21650.0375
782.27321	19159.4375
786.15132	16771.2375
790.02671	15359.1375
793.89938	14731.9375
797.76935	14473.0375
801.6366	14358.7375
805.50115	14266.1375
809.36299	14208.4375
813.22213	14152.1375
817.07857	14130.2375
820.93231	14110.9375
824.78336	14120.4375
828.63172	14136.2375
832.47738	14192.0375
836.32036	14142.3375
840.16066	14147.0375
843.99827	14095.4375
847.8332	14087.6375
851.66546	14066.6375
855.49504	14087.5375
859.32195	14138.0375
863.1462	14182.9375
866.96777	14182.6375
870.78668	14078.4375
874.60293	13985.2375
878.41652	13953.6375
882.22745	13974.1375
886.03573	14025.6375
889.84136	14015.6375
893.64433	13936.1375
897.44466	13881.0375
901.24235	13837.5375
905.0374	13772.2375
908.8298	13712.9375
912.61957	13658.2375
916.40671	13733.5375
920.19121	13832.7375
923.97308	13980.0375
927.75233	14152.7375
931.52895	14342.1375
935.30295	14300.0375
939.07433	13994.6375
942.84309	13620.3375
946.60924	13404.2375
950.37278	13252.2375
954.13371	13139.1375
957.89203	13041.3375
961.64774	12991.4375
965.40086	12915.1375
969.15137	12886.0375
972.89929	12835.7375
976.64461	12804.4375
980.38733	12819.6375
984.12747	12811.1375
987.86502	12903.3375
991.59999	13005.4375
995.33237	13178.3375
999.06217	13383.8375
1002.78939	13686.4375
1006.51404	13911.3375
1010.23611	14039.1375
1013.95561	14178.9375
1017.67255	14185.4375
1021.38692	14024.0375
1025.09872	13882.5375
1028.80796	13819.3375
1032.51465	13905.0375
1036.21877	14124.7375
1039.92035	14175.5375
1043.61937	14122.1375
1047.31584	13992.9375
1051.00976	13874.2375
1054.70114	13798.9375
1058.38998	13762.1375
1062.07627	13774.1375
1065.76003	13846.4375
1069.44126	13857.1375
1073.11995	13950.7375
1076.79611	14109.7375
1080.46974	14286.2375
1084.14085	14500.2375
1087.80943	14694.7375
1091.47549	14785.8375
1095.13903	14672.8375
1098.80005	14328.2375
1102.45857	13992.1375
1106.11456	13861.7375
1109.76805	13948.0375
1113.41903	14180.1375
1117.06751	14572.3375
1120.71348	15007.6375
1124.35696	15509.3375
1127.99793	15986.6375
1131.63641	16052.9375
1135.2724	15512.7375
1138.90589	14856.8375
1142.5369	14445.5375
1146.16542	14200.5375
1149.79145	14014.8375
1153.415	13939.8375
1157.03607	14033.2375
1160.65467	14247.0375
1164.27079	14637.3375
1167.88443	15313.8375
1171.49561	16347.8375
1175.10432	17954.5375
1178.71056	20129.8375
1182.31434	22000.6375
1185.91565	22545.7375
1189.51451	22002.9375
1193.11091	20731.2375
1196.70485	19296.3375
1200.29634	18180.2375
1203.88538	17447.4375
1207.47197	16648.8375
1211.05612	15940.7375
1214.63782	15546.4375
1218.21708	15470.9375
1221.79391	15451.1375
1225.36829	15435.3375
1228.94024	15333.3375
1232.50976	15202.6375
1236.07685	15113.0375
1239.6415	15048.4375
1243.20374	15059.2375
1246.76355	15128.6375
1250.32093	15293.6375
1253.8759	15537.5375
1257.42845	15938.6375
1260.97859	16326.9375
1264.52631	16737.1375
1268.07163	17188.5375
1271.61453	17626.7375
1275.15503	18003.6375
1278.69312	18218.1375
1282.22882	18362.7375
1285.76211	18597.0375
1289.29301	19049.3375
1292.82151	19649.5375
1296.34761	20377.6375
1299.87133	21414.5375
1303.39266	23021.0375
1306.9116	25293.1375
1310.42815	27878.0375
1313.94233	29513.2375
1317.45412	29066.2375
1320.96354	27339.4375
1324.47058	25359.7375
1327.97525	23620.9375
1331.47754	22459.8375
1334.97747	21954.5375
1338.47502	22044.3375
1341.97022	22423.5375
1345.46305	22963.7375
1348.95352	23765.4375
1352.44163	25037.7375
1355.92738	27135.1375
1359.41078	30428.2375
1362.89183	33830.0375
1366.37053	33540.1375
1369.84688	28984.3375
1373.32088	24118.1375
1376.79254	20957.1375
1380.26186	19387.7375
1383.72883	18676.8375
1387.19347	18261.3375
1390.65578	17798.1375
1394.11575	17456.0375
1397.57339	17381.8375
1401.0287	17607.5375
1404.48168	17904.5375
1407.93234	18127.8375
1411.38068	18262.4375
1414.82669	18162.5375
1418.27039	17827.7375
1421.71177	17417.4375
1425.15083	17090.4375
1428.58758	16759.4375
1432.02203	16770.9375
1435.45416	16909.9375
1438.88399	17045.9375
1442.31151	17086.2375
1445.73673	17113.7375
1449.15965	17275.9375
1452.58027	17356.6375
1455.9986	17322.9375
1459.41463	17333.6375
1462.82837	17524.7375
1466.23982	17844.2375
1469.64898	18219.7375
1473.05586	18446.1375
1476.46045	18553.3375
1479.86276	18616.9375
1483.26279	18748.3375
1486.66054	18966.2375
1490.05602	19225.6375
1493.44922	19739.4375
1496.84016	20417.7375
1500.22882	21644.5375
1503.61521	23615.6375
1506.99934	26203.3375
1510.38121	28847.8375
1513.76081	30104.8375
1517.13816	28926.7375
1520.51324	25834.7375
1523.88607	22583.3375
1527.25665	20333.5375
1530.62498	19082.5375
1533.99105	18432.1375
1537.35488	18063.6375
1540.71647	17845.2375
1544.07581	17729.0375
1547.4329	17702.4375
1550.78776	17686.0375
1554.14038	17690.1375
1557.49077	17846.3375
1560.83892	18104.6375
1564.18484	18441.3375
1567.52853	18802.2375
1570.86999	19169.5375
1574.20922	19496.0375
1577.54624	19524.0375
1580.88103	18934.2375
1584.2136	17998.4375
1587.54395	17489.0375
1590.87208	17677.8375
1594.19801	18490.6375
1597.52172	19724.1375
1600.84321	20426.1375
1604.16251	19992.0375
1607.47959	18727.7375
1610.79447	17332.6375
1614.10715	15986.2375
1617.41763	14933.3375
1620.7259	14208.2375
1624.03199	13858.5375
1627.33587	13870.7375
1630.63757	14125.8375
1633.93707	14718.7375
1637.23439	15677.2375
1640.52951	17085.6375
1643.82246	19032.9375
1647.11321	21195.4375
1650.40179	22782.8375
1653.68819	22276.8375
1656.97241	19668.6375
1660.25446	16639.4375
1663.53433	14479.6375
1666.81203	13216.5375
1670.08756	12507.7375
1673.36092	12064.7375
1676.63211	11776.3375
1679.90115	11604.5375
1683.16801	11405.3375
1686.43272	11303.0375
1689.69527	11172.5375
1692.95567	11085.4375
1696.2139	11017.8375
1699.46999	10949.1375
1702.72392	10888.1375
1705.97571	10889.8375
1709.22535	10930.1375
1712.47284	10963.1375
1715.71819	10981.1375
1718.96139	10974.7375
1722.20246	10951.4375
1725.44139	10928.7375
1728.67818	10844.6375
1731.91284	10745.2375
1735.14537	10725.3375
1738.37576	10680.7375
1741.60403	10629.5375
1744.83017	10620.1375
1748.05418	10604.9375
1751.27607	10548.6375
1754.49584	10494.7375
1757.71349	10489.3375
1760.92903	10399.2375
1764.14244	10368.2375
1767.35375	10334.1375
1770.56294	10309.1375
1773.77002	10295.1375
1776.97499	10270.9375
1780.17785	10256.8375
1783.37861	10254.5375
1786.57727	10242.6375
1789.77382	10238.1375
1792.96828	10232.0375
1796.16064	10177.6375
1799.3509	10147.0375
1802.53907	10133.0375
1805.72514	10119.1375
1808.90913	10070.2375
1812.09102	10058.0375
1815.27083	10024.4375
1818.44856	10009.4375
1821.6242	9991.5375
1824.79776	9944.9375
1827.96924	9945.8375
1831.13864	9929.1375
1834.30597	9942.5375
1837.47122	9912.4375
1840.6344	9897.9375
1843.7955	9896.1375
1846.95454	9868.5375
1850.11151	9856.1375
1853.26642	9864.4375
1856.41926	9875.4375
1859.57004	9861.9375
1862.71876	9872.4375
1865.86542	9884.9375
1869.01003	9867.8375
1872.15258	9856.8375
1875.29308	9845.1375
1878.43152	9851.5375
1881.56792	9824.1375
1884.70227	9814.9375
1887.83457	9793.6375
1890.96482	9787.5375
1894.09304	9773.9375
1897.21921	9777.3375
1900.34335	9783.0375
1903.46544	9763.1375
1906.58551	9754.5375
1909.70353	9745.9375
1912.81953	9747.8375
1915.93349	9758.5375
1919.04543	9718.5375
1922.15534	9708.3375
1925.26322	9693.4375
1928.36908	9674.4375
1931.47292	9639.0375
1934.57473	9604.3375
1937.67453	9589.5375
1940.77232	9549.3375
1943.86808	9517.5375
1946.96184	9465.7375
1950.05358	9435.6375
1953.14331	9400.8375
1956.23103	9380.4375
1959.31675	9371.0375
1962.40046	9329.5375
1965.48217	9293.7375
1968.56188	9277.1375
1971.63959	9235.4375
1974.7153	9237.3375
1977.78901	9205.0375
1980.86073	9148.9375
1983.93046	9134.7375
1986.99819	9091.3375
1990.06394	9045.7375
1993.1277	9008.1375
1996.18947	8990.0375
1999.24925	8975.3375
2002.30706	8976.4375
2005.36288	8939.8375
2008.41672	8887.0375
2011.46859	8869.6375
2014.51848	8843.2375
2017.56639	8829.1375
2020.61233	8783.0375
2023.6563	8782.0375
2026.6983	8761.0375
2029.73833	8730.3375
2032.7764	8705.8375
2035.8125	8699.3375
2038.84664	8668.8375
2041.87881	8658.0375
2044.90903	8645.7375
2047.93729	8629.2375
2050.96359	8622.0375
2053.98794	8608.4375
2057.01034	8576.7375
2060.03078	8577.3375
2063.04927	8560.7375
2066.06582	8562.0375
2069.08042	8564.1375
2072.09307	8550.9375
2075.10378	8522.7375
2078.11255	8518.6375
2081.11938	8527.6375
2084.12426	8519.1375
2087.12722	8519.9375
2090.12824	8503.1375
2093.12732	8508.3375
2096.12447	8494.6375
2099.11969	8480.3375
2102.11299	8502.9375
2105.10435	8510.4375
2108.09379	8508.9375
2111.08131	8497.4375
2114.0669	8506.3375
2117.05057	8536.4375
2120.03233	8539.0375
2123.01216	8525.8375
2125.99008	8558.9375
2128.96609	8535.1375
2131.94018	8551.9375
2134.91236	8532.8375
2137.88263	8538.1375
2140.851	8570.1375
2143.81746	8545.7375
2146.78201	8536.3375
2149.74466	8558.8375
2152.7054	8552.8375
2155.66425	8524.1375
2158.6212	8514.6375
2161.57625	8517.2375
2164.52941	8538.6375
2167.48067	8516.2375
2170.43004	8506.0375
2173.37752	8511.3375
2176.32311	8497.6375
2179.26681	8503.1375
2182.20863	8506.1375
2185.14856	8520.6375
2188.08661	8499.2375
2191.02278	8518.2375
2193.95707	8488.4375
2196.88948	8457.2375
2199.82001	8481.0375
2202.74867	8445.6375
2205.67545	8451.9375
2208.60037	8441.1375
2211.52341	8438.4375
2214.44458	8420.1375
2217.36388	8417.6375
2220.28132	8398.3375
2223.1969	8378.2375
2226.11061	8350.1375
2229.02246	8342.6375
2231.93245	8342.7375
2234.84058	8307.5375
2237.74686	8298.4375
2240.65128	8289.8375
2243.55385	8266.2375
2246.45456	8241.8375
2249.35343	8238.4375
2252.25044	8237.3375
2255.14561	8216.6375
2258.03893	8215.4375
2260.93041	8209.0375
2263.82004	8191.0375
2266.70783	8190.3375
2269.59378	8154.6375
2272.4779	8139.7375
2275.36017	8107.2375
2278.24061	8107.6375
2281.11922	8081.3375
2283.996	8080.4375
2286.87094	8058.5375
2289.74405	8019.8375
2292.61534	8014.8375
2295.4848	8028.8375
2298.35243	8011.5375
2301.21824	7990.3375
2304.08223	8014.9375
2306.94439	7994.4375
2309.80474	7990.0375
2312.66327	8024.1375
2315.51999	8006.5375
2318.37489	7970.3375
2321.22797	7973.2375
2324.07925	7962.3375
2326.92871	7959.3375
2329.77637	7956.0375
2332.62222	7925.2375
2335.46626	7916.6375
2338.3085	7898.4375
2341.14893	7911.3375
2343.98756	7885.6375
2346.8244	7918.4375
2349.65943	7907.4375
2352.49267	7917.1375
2355.32411	7901.2375
2358.15376	7902.2375
2360.98161	7930.2375
2363.80768	7921.9375
2366.63195	7914.7375
2369.45444	7906.7375
2372.27514	7893.8375
2375.09405	7883.5375
2377.91118	7878.8375
2380.72652	7834.3375
2383.54009	7771.5375
2386.35187	7787.5375
2389.16188	7741.1375
2391.97011	7736.9375
2394.77657	7723.0375
2397.58125	7699.4375
2400.38416	7693.5375
2403.18529	7680.2375
2405.98466	7664.9375
2408.78226	7654.5375
2411.57809	7642.0375
2414.37216	7615.6375
2417.16446	7613.0375
2419.955	7581.6375
2422.74378	7625.9375
2425.5308	7598.3375
2428.31606	7579.6375
2431.09956	7588.6375
2433.88131	7577.3375
2436.6613	7575.5375
2439.43954	7560.7375
2442.21603	7553.6375
2444.99077	7560.4375
2447.76377	7563.1375
2450.53501	7544.8375
2453.30451	7554.5375
2456.07226	7549.2375
2458.83827	7531.0375
2461.60254	7541.1375
2464.36507	7522.9375
2467.12586	7525.6375
2469.88492	7524.3375
2472.64224	7507.5375
2475.39782	7505.4375
2478.15167	7505.5375
2480.90379	7503.6375
2483.65417	7531.7375
2486.40283	7552.5375
2489.14976	7554.7375
2491.89497	7535.9375
2494.63845	7540.0375
2497.3802	7517.2375
2500.12024	7521.0375
2502.85855	7523.9375
2505.59514	7503.8375
2508.33002	7486.7375
2511.06318	7491.3375
2513.79462	7456.4375
2516.52435	7417.0375
2519.25237	7400.2375
2521.97867	7400.2375
2524.70327	7387.7375
2527.42616	7381.4375
2530.14734	7372.5375
2532.86681	7344.7375
2535.58458	7342.3375
2538.30065	7339.8375
2541.01501	7362.8375
2543.72768	7327.2375
2546.43864	7316.5375
2549.14791	7316.8375
2551.85548	7307.7375
2554.56136	7282.2375
2557.26554	7289.8375
2559.96803	7262.2375
2562.66883	7258.9375
2565.36794	7274.7375
2568.06536	7253.7375
2570.7611	7241.6375
2573.45514	7225.2375
2576.14751	7224.1375
2578.83819	7211.7375
2581.52719	7205.4375
2584.21451	7188.1375
2586.90015	7206.9375
2589.58411	7164.3375
2592.2664	7153.1375
2594.94701	7156.0375
2597.62594	7150.6375
2600.30321	7135.5375
2602.9788	7123.4375
2605.65273	7135.6375
2608.32498	7110.8375
2610.99557	7122.3375
2613.66449	7102.1375
2616.33175	7112.1375
2618.99734	7116.3375
2621.66128	7085.2375
2624.32355	7088.6375
2626.98416	7089.0375
2629.64311	7087.4375
2632.30041	7083.2375
2634.95605	7042.8375
2637.61004	7021.9375
2640.26238	7031.1375
2642.91306	7008.4375
2645.56209	7019.1375
2648.20948	7010.7375
2650.85521	6998.2375
2653.4993	6999.7375
2656.14175	6997.7375
2658.78255	6999.7375
2661.42171	7023.0375
2664.05923	7031.2375
2666.6951	7018.1375
2669.32934	7040.1375
2671.96194	7024.3375
2674.59291	7032.4375
2677.22224	7018.2375
2679.84993	7030.7375
2682.476	7029.4375
2685.10043	7010.7375
2687.72324	7003.0375
2690.34441	6994.7375
2692.96396	7009.6375
2695.58188	7017.2375
2698.19818	7003.9375
2700.81285	7016.7375
2703.4259	7004.3375
2706.03733	6979.1375
2708.64714	6948.4375
2711.25533	7005.1375
2713.86191	6992.3375
2716.46687	6996.7375
2719.07021	7004.0375
2721.67194	7030.9375
2724.27206	7005.5375
2726.87057	7015.5375
2729.46747	7019.7375
2732.06276	7009.7375
2734.65644	6998.3375
2737.24852	7002.6375
2739.83899	6996.3375
2742.42786	7010.1375
2745.01513	6956.9375
2747.60079	6974.6375
2750.18486	6952.0375
2752.76733	6949.9375
2755.3482	6940.2375
2757.92747	6946.7375
2760.50515	6938.3375
2763.08123	6923.0375
2765.65573	6939.5375
2768.22863	6942.0375
2770.79994	6899.9375
2773.36967	6907.3375
2775.9378	6916.0375
2778.50435	6918.5375
2781.06932	6887.4375
2783.6327	6906.5375
2786.1945	6911.7375
2788.75471	6899.3375
2791.31335	6880.9375
2793.87041	6853.5375
2796.42589	6858.7375
2798.97979	6866.2375
2801.53212	6863.4375
2804.08288	6845.1375
2806.63206	6848.8375
2809.17967	6851.6375
2811.72571	6837.3375
2814.27018	6823.1375
2816.81308	6824.8375
2819.35442	6824.9375
2821.89419	6826.8375
2824.43239	6835.3375
2826.96904	6844.6375
2829.50412	6823.3375
2832.03763	6835.0375
2834.56959	6846.4375
2837.1	6838.9375
2839.62884	6853.2375
2842.15613	6876.8375
2844.68186	6952.5375
2847.20604	6987.6375
2849.72867	7007.0375
2852.24974	7027.8375
2854.76927	7006.4375
2857.28724	6969.6375
2859.80367	6971.3375
2862.31855	6952.2375
2864.83189	6960.9375
2867.34368	6943.8375
2869.85393	6973.8375
2872.36264	6964.9375
2874.8698	6986.5375
2877.37543	6978.7375
2879.87952	6966.3375
2882.38207	6970.5375
2884.88308	6984.2375
2887.38256	6971.8375
2889.88051	6983.2375
2892.37692	6999.7375
2894.8718	7002.2375
2897.36515	7015.1375
2899.85698	7029.2375
2902.34727	7058.4375
2904.83604	7070.2375
2907.32328	7071.6375
2909.809	7088.2375
2912.29319	7085.0375
2914.77587	7090.8375
2917.25702	7078.9375
2919.73665	7096.2375
2922.21476	7085.2375
2924.69136	7096.9375
2927.16644	7111.8375
2929.64	7073.3375
2932.11205	7059.2375
2934.58258	7026.8375
2937.05161	7043.1375
2939.51912	7021.3375
2941.98513	6980.6375
2944.44962	6940.8375
2946.91261	6880.2375
2949.37409	6876.2375
2951.83407	6842.9375
2954.29254	6819.8375
2956.74951	6777.0375
2959.20498	6782.0375
2961.65895	6759.4375
2964.11142	6735.8375
2966.56239	6713.7375
2969.01186	6682.9375
2971.45984	6645.5375
2973.90632	6643.2375
2976.35131	6622.2375
2978.7948	6608.4375
2981.23681	6575.4375
2983.67732	6563.1375
2986.11635	6544.6375
2988.55388	6527.2375
2990.98993	6506.2375
2993.4245	6501.3375
2995.85758	6481.4375
2998.28917	6459.9375
3000.71928	6460.4375
3003.14791	6437.4375
3005.57506	6418.8375
3008.00073	6409.7375
3010.42493	6396.4375
3012.84764	6386.9375
3015.26888	6386.2375
3017.68865	6377.7375
3020.10694	6376.2375
3022.52376	6342.9375
3024.9391	6334.6375
3027.35298	6320.2375
3029.76539	6310.4375
3032.17632	6308.6375
3034.5858	6291.4375
3036.9938	6289.8375
3039.40034	6281.4375
3041.80542	6276.4375
3044.20903	6248.7375
3046.61118	6240.9375
3049.01187	6230.3375
3051.4111	6230.0375
3053.80888	6218.9375
3056.20519	6208.9375
3058.60005	6199.4375
3060.99345	6169.0375
3063.3854	6169.7375
3065.7759	6142.6375
3068.16494	6154.4375
3070.55254	6127.4375
3072.93868	6132.2375
3075.32338	6108.8375
3077.70662	6090.3375
3080.08842	6069.7375
3082.46878	6082.9375
3084.84769	6064.9375
3087.22515	6075.4375
3089.60118	6066.6375
3091.97576	6070.0375
3094.3489	6073.5375
3096.72061	6072.0375
3099.09087	6084.3375
3101.4597	6064.7375
3103.82709	6052.5375
3106.19305	6054.3375
3108.55757	6062.9375
3110.92066	6032.0375
3113.28232	6034.2375
3115.64255	6017.3375
3118.00134	6006.3375
3120.35871	6005.8375
3122.71466	6005.3375
3125.06917	6016.3375
3127.42226	5993.4375
3129.77393	6007.2375
3132.12417	5998.2375
3134.47299	5992.9375
3136.82039	5990.8375
3139.16636	6001.5375
3141.51092	5999.8375
3143.85406	6001.3375
3146.19579	6015.2375
3148.53609	6002.7375
3150.87499	6018.7375
3153.21246	6038.7375
3155.54853	6056.9375
3157.88318	6044.7375
3160.21642	6045.9375
3162.54826	6044.6375
3164.87868	6054.4375
3167.2077	6044.6375
3169.5353	6059.4375
3171.86151	6063.9375
3174.18631	6043.0375
3176.5097	6059.7375
3178.83169	6038.9375
3181.15228	6055.0375
3183.47147	6036.1375
3185.78926	6027.1375
3188.10565	6021.7375
3190.42065	6028.4375
3192.73424	6036.1375
3195.04645	6028.8375
3197.35725	6044.8375
3199.66667	6045.2375
3201.97469	6056.8375
3204.28132	6044.9375
3206.58656	6041.4375
3208.8904	6047.8375
3211.19287	6049.7375
3213.49394	6067.2375
3215.79363	6083.2375
3218.09193	6065.7375
3220.38884	6073.4375
3222.68438	6087.1375
3224.97853	6070.1375
3227.2713	6082.2375
3229.56269	6083.0375
3231.8527	6076.4375
3234.14133	6075.2375
3236.42858	6055.5375
3238.71446	6042.7375
3240.99896	6033.9375
3243.28209	6023.7375
3245.56384	6036.4375
3247.84423	6009.4375
3250.12324	6016.5375
3252.40088	6017.3375
3254.67715	6027.8375
3256.95205	6012.5375
3259.22558	6010.3375
3261.49775	6013.0375
3263.76855	6002.0375
3266.03799	5987.0375
3268.30606	5984.5375
3270.57277	5976.0375
3272.83812	5956.4375
3275.10211	5952.2375
3277.36474	5949.7375
3279.62601	5952.5375
3281.88593	5925.3375
3284.14448	5937.5375
3286.40168	5921.4375
3288.65753	5930.3375
3290.91202	5943.5375
3293.16516	5920.3375
3295.41695	5918.9375
3297.66738	5864.3375
3299.91647	5874.6375
3302.16421	5837.8375
3304.4106	5800.9375
3306.65564	5768.4375
3308.89933	5745.0375
3311.14169	5693.5375
3313.38269	5670.8375
3315.62236	5634.0375
3317.86068	5576.7375
3320.09766	5554.1375
3322.3333	5501.2375
3324.5676	5484.9375
3326.80056	5403.6375
3329.03219	5373.5375
3331.26248	2.5375
3333.49143	0.2375
3335.71905	-0.7625
