Data from AgNPs_FTO_APTES_UA_1uM_CRN_0uM_R6G_10uM_NaF_0.1M_Addition_RamanShift__34__11-45-19-447.txt Node

Date: Thu Jan 27 11:45:19 GMT 2022
User: TCL
Spectrometer: QEP01345
Trigger mode: 4
Integration Time (sec): 7.000000E0
Scans to average: 10
Electric dark correction enabled: true
Nonlinearity correction enabled: false
Boxcar width: 0
XAxis mode: Raman Shifts
Number of Pixels in Spectrum: 1044
>>>>>Begin Spectral Data<<<<<
46.04893	0
50.45542	1.2
54.85868	-0.8
59.25871	-1
63.6555	51.1
68.04907	54.1
72.43941	52.9
76.82654	60.3
81.21044	60.4
85.59113	60.4
89.96862	65.7
94.34289	68.8
98.71396	72.2
103.08183	67.7
107.4465	74.2
111.80798	75.6
116.16626	76.4
120.52136	83
124.87327	83.1
129.222	83.7
133.56755	87.1
137.90993	96.6
142.24913	104.8
146.58517	119.7
150.91804	136
155.24774	157
159.57429	192.9
163.89768	249.6
168.21792	326.2
172.53501	442.6
176.84895	610.1
181.15975	857.4
185.46741	1201.4
189.77193	1667.7
194.07331	2230
198.37157	2889.6
202.6667	3578.2
206.9587	4281.9
211.24758	4952.9
215.53334	5628
219.81599	6333.2
224.09553	7106.6
228.37195	7945.4
232.64527	8872.5
236.91549	9882.5
241.18261	10924.3
245.44663	11923
249.70755	12824.5
253.96539	13576.4
258.22014	14249.9
262.4718	14740.2
266.72039	15073.7
270.96589	15193.5
275.20832	15213.4
279.44768	15047.8
283.68397	14848.8
287.91719	14629.8
292.14735	14499.3
296.37445	14343.6
300.59849	14345.7
304.81948	14322.2
309.03742	14352
313.25231	14281.5
317.46415	14170.9
321.67296	13988
325.87872	13801.9
330.08145	13745.7
334.28114	13731.6
338.47781	13797.1
342.67145	13961
346.86207	14190.5
351.04966	14411.8
355.23424	14680.2
359.4158	14921.5
363.59435	15100.8
367.76989	15234.1
371.94243	15307.8
376.11196	15347.6
380.27849	15391.2
384.44203	15418.2
388.60257	15500.2
392.76012	15604.8
396.91468	15803.8
401.06626	16029.6
405.21485	16193.4
409.36047	16133.3
413.50311	16019.7
417.64277	15967.9
421.77947	16007
425.9132	16007.7
430.04396	16041
434.17176	16102
438.2966	16164.3
442.41849	16321.9
446.53742	16519.4
450.6534	16825.5
454.76644	16987
458.87653	17040.7
462.98368	17042.4
467.08789	16958.5
471.18916	16833.2
475.2875	16627.3
479.38291	16476.3
483.4754	16356.6
487.56496	16286.1
491.6516	16241.5
495.73531	16204.4
499.81612	16156.4
503.89401	16296.6
507.96899	16382.2
512.04106	16404.3
516.11023	16362.5
520.1765	16355.4
524.23987	16248.6
528.30034	16136.9
532.35792	16052.6
536.41261	15946.9
540.46441	15834.6
544.51333	15829.9
548.55936	15895.8
552.60252	16090.2
556.64279	16338.6
560.6802	16484.8
564.71473	16567.5
568.7464	16636.2
572.7752	16879
576.80114	17203.9
580.82422	17576.9
584.84444	18095.1
588.86181	18778.2
592.87633	19499.6
596.888	19603.5
600.89682	19039.8
604.9028	18669.8
608.90594	19427.6
612.90624	20550.8
616.90371	19861.2
620.89834	17637.9
624.89015	16553.6
628.87913	16424.1
632.86528	16562.6
636.84862	16604
640.82913	16459.1
644.80683	16182.9
648.78172	15975.9
652.75379	15967.9
656.72306	16130.3
660.68952	16331.2
664.65319	16320.4
668.61405	16110.7
672.57211	16093
676.52738	16140.9
680.47986	16178.7
684.42955	16111
688.37646	16016.9
692.32058	16070
696.26192	16196.6
700.20048	16332.5
704.13626	16448
708.06928	16430.7
711.99952	16425.7
715.927	16396.1
719.85171	16380.7
723.77365	16327.5
727.69284	16178.2
731.60928	16014
735.52295	15961.1
739.43388	15974.3
743.34206	15995.3
747.24749	16071
751.15017	16183.4
755.05012	16308
758.94733	16629.3
762.8418	17103.2
766.73354	17945.4
770.62254	18769.5
774.50882	19024.1
778.39237	18581.3
782.27321	17838.2
786.15132	17126.8
790.02671	16616
793.89938	16350.3
797.76935	16196.6
801.6366	16056.5
805.50115	16059
809.36299	15994.5
813.22213	15926.8
817.07857	15903
820.93231	15854.8
824.78336	15813.8
828.63172	15820.3
832.47738	15813.3
836.32036	15782.4
840.16066	15784.5
843.99827	15796.1
847.8332	15779.8
851.66546	15821.3
855.49504	15853.2
859.32195	15863.8
863.1462	15851.4
866.96777	15819.5
870.78668	15857.2
874.60293	15895.5
878.41652	15929
882.22745	15971.7
886.03573	15994.8
889.84136	16001.4
893.64433	16018.8
897.44466	16010
901.24235	16003
905.0374	15986.7
908.8298	15942.8
912.61957	15970.7
916.40671	16012.4
920.19121	16126.5
923.97308	16241.5
927.75233	16322.7
931.52895	16239.8
935.30295	16101.6
939.07433	15891.8
942.84309	15729.7
946.60924	15621
950.37278	15587.6
954.13371	15569.2
957.89203	15526.5
961.64774	15502.2
965.40086	15429.3
969.15137	15426.2
972.89929	15376
976.64461	15358
980.38733	15323.5
984.12747	15326.1
987.86502	15344.7
991.59999	15372.8
995.33237	15434.4
999.06217	15550.9
1002.78939	15747.2
1006.51404	15934.9
1010.23611	16177.5
1013.95561	16326.3
1017.67255	16338.2
1021.38692	16274
1025.09872	16109.6
1028.80796	15934.6
1032.51465	15831.1
1036.21877	15803.9
1039.92035	15867.9
1043.61937	15929.7
1047.31584	15974.8
1051.00976	16025.3
1054.70114	16086.5
1058.38998	16127.7
1062.07627	16191.7
1065.76003	16301.2
1069.44126	16425.9
1073.11995	16666.2
1076.79611	16918.9
1080.46974	17035.2
1084.14085	17115.1
1087.80943	17200.8
1091.47549	17291.6
1095.13903	17317.7
1098.80005	17185.5
1102.45857	16947.3
1106.11456	16684.7
1109.76805	16555.7
1113.41903	16498.8
1117.06751	16503.8
1120.71348	16591.2
1124.35696	16665.7
1127.99793	16799.5
1131.63641	16914.6
1135.2724	16867.3
1138.90589	16754.8
1142.5369	16707.2
1146.16542	16750.5
1149.79145	16780.1
1153.415	16804.9
1157.03607	16835.5
1160.65467	17048.3
1164.27079	17460.1
1167.88443	18008.5
1171.49561	18594.6
1175.10432	19385.9
1178.71056	20449
1182.31434	21302.2
1185.91565	21870.4
1189.51451	21966.9
1193.11091	21755
1196.70485	21283.4
1200.29634	20737.4
1203.88538	20218.6
1207.47197	19817.3
1211.05612	19520.8
1214.63782	19168.8
1218.21708	18837.3
1221.79391	18510.1
1225.36829	18256.1
1228.94024	18175
1232.50976	18098.7
1236.07685	18016.8
1239.6415	17954
1243.20374	17893.5
1246.76355	17939.8
1250.32093	18034.2
1253.8759	18224.4
1257.42845	18584
1260.97859	18989
1264.52631	19355.1
1268.07163	19729.7
1271.61453	20106.2
1275.15503	20467.1
1278.69312	20811.2
1282.22882	21213.8
1285.76211	21670.5
1289.29301	22123.2
1292.82151	22717.2
1296.34761	23423.5
1299.87133	24207
1303.39266	25051.3
1306.9116	25898.8
1310.42815	26602.2
1313.94233	26997
1317.45412	26889
1320.96354	26501.7
1324.47058	26126.3
1327.97525	25808.8
1331.47754	25596.3
1334.97747	25405.1
1338.47502	25295.7
1341.97022	25288.8
1345.46305	25364.4
1348.95352	25596.7
1352.44163	25808.2
1355.92738	26228.3
1359.41078	26960.7
1362.89183	27679.7
1366.37053	27580.6
1369.84688	26066.1
1373.32088	23825.8
1376.79254	22038.3
1380.26186	21190.2
1383.72883	20897.3
1387.19347	20697.2
1390.65578	20388.9
1394.11575	20144.6
1397.57339	20092.6
1401.0287	20295.5
1404.48168	20429.8
1407.93234	20419.1
1411.38068	20181.9
1414.82669	19886.5
1418.27039	19489.4
1421.71177	19079.1
1425.15083	18745.5
1428.58758	18593.7
1432.02203	18686
1435.45416	18941.7
1438.88399	19196.1
1442.31151	19353
1445.73673	19386.9
1449.15965	19414.9
1452.58027	19436.7
1455.9986	19409.5
1459.41463	19506.3
1462.82837	19792.1
1466.23982	20102.4
1469.64898	20347.4
1473.05586	20536.9
1476.46045	20620
1479.86276	20615.9
1483.26279	20642.6
1486.66054	20697.5
1490.05602	20834.8
1493.44922	21213
1496.84016	21628.2
1500.22882	22273.2
1503.61521	22957.1
1506.99934	23627.5
1510.38121	24162.3
1513.76081	24280.2
1517.13816	23844.3
1520.51324	23144.5
1523.88607	22492.6
1527.25665	22015.1
1530.62498	21780
1533.99105	21450.3
1537.35488	21102.3
1540.71647	20671
1544.07581	20273.8
1547.4329	19867.3
1550.78776	19571.1
1554.14038	19351.3
1557.49077	19330.9
1560.83892	19376.3
1564.18484	19419
1567.52853	19501
1570.86999	19622.9
1574.20922	19846.8
1577.54624	20006.4
1580.88103	19934.8
1584.2136	19822.9
1587.54395	20026.3
1590.87208	20575.9
1594.19801	21363.7
1597.52172	22173.2
1600.84321	22412.5
1604.16251	21798.6
1607.47959	20675.8
1610.79447	19508.9
1614.10715	18442.8
1617.41763	17484.3
1620.7259	16851
1624.03199	16484.8
1627.33587	16445.6
1630.63757	16660.1
1633.93707	17274.2
1637.23439	18336.3
1640.52951	20018.5
1643.82246	22121
1647.11321	23985.6
1650.40179	24529.6
1653.68819	23268.5
1656.97241	20918.3
1660.25446	18551.5
1663.53433	16855.5
1666.81203	15765.6
1670.08756	15113.8
1673.36092	14754.2
1676.63211	14476.5
1679.90115	14293.6
1683.16801	14155.1
1686.43272	14033.1
1689.69527	13942.9
1692.95567	13871.1
1696.2139	13771.7
1699.46999	13683.7
1702.72392	13637.3
1705.97571	13661.3
1709.22535	13667.9
1712.47284	13708.8
1715.71819	13718.2
1718.96139	13699.4
1722.20246	13684.5
1725.44139	13642
1728.67818	13595.1
1731.91284	13499.4
1735.14537	13422.5
1738.37576	13383.8
1741.60403	13343.7
1744.83017	13308
1748.05418	13243
1751.27607	13225.3
1754.49584	13202.1
1757.71349	13157.4
1760.92903	13139.6
1764.14244	13139.4
1767.35375	13126.1
1770.56294	13093.4
1773.77002	13087.3
1776.97499	13082.1
1780.17785	13083.9
1783.37861	13086
1786.57727	13093
1789.77382	13046.6
1792.96828	13016.7
1796.16064	13041.4
1799.3509	12972
1802.53907	12975.4
1805.72514	12915.2
1808.90913	12885.6
1812.09102	12897.5
1815.27083	12844.6
1818.44856	12805.5
1821.6242	12817.8
1824.79776	12806.5
1827.96924	12793.6
1831.13864	12793.3
1834.30597	12766.1
1837.47122	12782.6
1840.6344	12757.9
1843.7955	12790.5
1846.95454	12764.1
1850.11151	12755.7
1853.26642	12770.9
1856.41926	12741.6
1859.57004	12754.8
1862.71876	12722.7
1865.86542	12709.4
1869.01003	12736.9
1872.15258	12717.2
1875.29308	12675.4
1878.43152	12649.7
1881.56792	12611.3
1884.70227	12608.6
1887.83457	12585.6
1890.96482	12530.7
1894.09304	12532.4
1897.21921	12517.8
1900.34335	12508.3
1903.46544	12497.5
1906.58551	12492.1
1909.70353	12441.3
1912.81953	12401.8
1915.93349	12400
1919.04543	12370.2
1922.15534	12350.6
1925.26322	12307.2
1928.36908	12263.8
1931.47292	12236
1934.57473	12212.4
1937.67453	12206.5
1940.77232	12159.7
1943.86808	12098.3
1946.96184	12100.6
1950.05358	12070.8
1953.14331	12036.9
1956.23103	12003.1
1959.31675	11964.2
1962.40046	11950.8
1965.48217	11896.8
1968.56188	11839.8
1971.63959	11806.2
1974.7153	11773.3
1977.78901	11718.4
1980.86073	11700.5
1983.93046	11666.5
1986.99819	11612.4
1990.06394	11587.7
1993.1277	11538.4
1996.18947	11525.1
1999.24925	11482
2002.30706	11465.1
2005.36288	11416.5
2008.41672	11379.4
2011.46859	11329.4
2014.51848	11297.8
2017.56639	11258.9
2020.61233	11237.6
2023.6563	11208.2
2026.6983	11200.5
2029.73833	11158.4
2032.7764	11120.1
2035.8125	11109.6
2038.84664	11076.3
2041.87881	11061.1
2044.90903	11020
2047.93729	11025.1
2050.96359	10987.5
2053.98794	10971.3
2057.01034	10977.8
2060.03078	10961.2
2063.04927	10952.9
2066.06582	11005.7
2069.08042	10967.5
2072.09307	10949.9
2075.10378	10937.6
2078.11255	10943
2081.11938	10946.3
2084.12426	10957.2
2087.12722	10965.2
2090.12824	10946.4
2093.12732	10941.5
2096.12447	10945.4
2099.11969	10943.8
2102.11299	10954.3
2105.10435	10948.3
2108.09379	10915.6
2111.08131	10951.6
2114.0669	10929.3
2117.05057	10919.1
2120.03233	10917.4
2123.01216	10940.1
2125.99008	10946.5
2128.96609	10936.9
2131.94018	10939.4
2134.91236	10945.4
2137.88263	10917.9
2140.851	10951.6
2143.81746	10960.2
2146.78201	10958.6
2149.74466	10947.5
2152.7054	10929
2155.66425	10936.9
2158.6212	10933
2161.57625	10932.5
2164.52941	10925.6
2167.48067	10890.7
2170.43004	10894.1
2173.37752	10887.1
2176.32311	10892.1
2179.26681	10889.1
2182.20863	10907.7
2185.14856	10886.9
2188.08661	10905.5
2191.02278	10869
2193.95707	10871.5
2196.88948	10857.8
2199.82001	10838.9
2202.74867	10828.8
2205.67545	10821.8
2208.60037	10798.6
2211.52341	10786.4
2214.44458	10767.6
2217.36388	10727.2
2220.28132	10712.4
2223.1969	10684
2226.11061	10660.3
2229.02246	10636.6
2231.93245	10627.9
2234.84058	10630.4
2237.74686	10619.2
2240.65128	10593.4
2243.55385	10584.4
2246.45456	10577.1
2249.35343	10542.6
2252.25044	10547.5
2255.14561	10522.9
2258.03893	10475.9
2260.93041	10481
2263.82004	10463.7
2266.70783	10406.6
2269.59378	10387.8
2272.4779	10391
2275.36017	10359.9
2278.24061	10335.8
2281.11922	10313.6
2283.996	10290.6
2286.87094	10273.5
2289.74405	10244.6
2292.61534	10229.8
2295.4848	10197.8
2298.35243	10207.6
2301.21824	10183.4
2304.08223	10215.6
2306.94439	10171.4
2309.80474	10153.7
2312.66327	10164.7
2315.51999	10152.5
2318.37489	10151.5
2321.22797	10129.5
2324.07925	10107.9
2326.92871	10084
2329.77637	10083.6
2332.62222	10051.4
2335.46626	10025.9
2338.3085	10028.4
2341.14893	10008.9
2343.98756	9987.6
2346.8244	9978.3
2349.65943	9992.3
2352.49267	9954.7
2355.32411	9988
2358.15376	9943.2
2360.98161	9948.3
2363.80768	9942.9
2366.63195	9928
2369.45444	9937.9
2372.27514	9950.1
2375.09405	9924.2
2377.91118	9891.2
2380.72652	9870.4
2383.54009	9837.4
2386.35187	9819.8
2389.16188	9801.9
2391.97011	9758.8
2394.77657	9761.9
2397.58125	9731.7
2400.38416	9713.8
2403.18529	9710.7
2405.98466	9668.3
2408.78226	9654
2411.57809	9659.1
2414.37216	9651.9
2417.16446	9644.7
2419.955	9609.7
2422.74378	9623.3
2425.5308	9601.2
2428.31606	9601.1
2431.09956	9577.4
2433.88131	9585.4
2436.6613	9566
2439.43954	9569.3
2442.21603	9555.5
2444.99077	9522.9
2447.76377	9521.7
2450.53501	9521
2453.30451	9527.1
2456.07226	9514.5
2458.83827	9461.9
2461.60254	9469.1
2464.36507	9467.1
2467.12586	9480.6
2469.88492	9459.6
2472.64224	9454
2475.39782	9463
2478.15167	9427.8
2480.90379	9415.6
2483.65417	9431.4
2486.40283	9414.7
2489.14976	9422.4
2491.89497	9390.4
2494.63845	9389.1
2497.3802	9376.1
2500.12024	9392.4
2502.85855	9355.6
2505.59514	9347.4
2508.33002	9358.5
2511.06318	9344.5
2513.79462	9315.1
2516.52435	9299.5
2519.25237	9311.5
2521.97867	9280
2524.70327	9299.3
2527.42616	9256.9
2530.14734	9242.8
2532.86681	9240.4
2535.58458	9237.1
2538.30065	9204.6
2541.01501	9215.9
2543.72768	9179.4
2546.43864	9174.1
2549.14791	9169.1
2551.85548	9150.2
2554.56136	9140.7
2557.26554	9113.8
2559.96803	9098
2562.66883	9089.8
2565.36794	9053.8
2568.06536	9041
2570.7611	9027.9
2573.45514	9011.3
2576.14751	9009.5
2578.83819	8983.9
2581.52719	8974.7
2584.21451	8963.1
2586.90015	8943.3
2589.58411	8949.6
2592.2664	8910.1
2594.94701	8902.6
2597.62594	8883.9
2600.30321	8861.9
2602.9788	8851.8
2605.65273	8842.7
2608.32498	8817.6
2610.99557	8806
2613.66449	8810
2616.33175	8810.8
2618.99734	8806.3
2621.66128	8763.5
2624.32355	8745.7
2626.98416	8728.1
2629.64311	8726.2
2632.30041	8716.1
2634.95605	8703.7
2637.61004	8669
2640.26238	8674.3
2642.91306	8669.4
2645.56209	8659
2648.20948	8654.4
2650.85521	8647.8
2653.4993	8657.7
2656.14175	8650.9
2658.78255	8654.1
2661.42171	8638.5
2664.05923	8665.6
2666.6951	8669.9
2669.32934	8667.6
2671.96194	8655.4
2674.59291	8664.5
2677.22224	8657
2679.84993	8673.4
2682.476	8641
2685.10043	8635.6
2687.72324	8627.3
2690.34441	8615.9
2692.96396	8625.7
2695.58188	8619.7
2698.19818	8626.8
2700.81285	8606.5
2703.4259	8586.2
2706.03733	8569.7
2708.64714	8572.8
2711.25533	8602.6
2713.86191	8601.1
2716.46687	8594.4
2719.07021	8594.8
2721.67194	8596.5
2724.27206	8620.4
2726.87057	8618.2
2729.46747	8611.9
2732.06276	8596.1
2734.65644	8588.3
2737.24852	8604.9
2739.83899	8580.2
2742.42786	8581.7
2745.01513	8542.9
2747.60079	8536.3
2750.18486	8545.4
2752.76733	8533.9
2755.3482	8504.5
2757.92747	8529.9
2760.50515	8497.2
2763.08123	8494.7
2765.65573	8463.9
2768.22863	8485.1
2770.79994	8450.6
2773.36967	8442.3
2775.9378	8430.6
2778.50435	8439.5
2781.06932	8387.7
2783.6327	8395.4
2786.1945	8403.3
2788.75471	8370.3
2791.31335	8354.7
2793.87041	8367.7
2796.42589	8335.6
2798.97979	8345.4
2801.53212	8294.8
2804.08288	8318.7
2806.63206	8299.3
2809.17967	8261.9
2811.72571	8226.9
2814.27018	8227.1
2816.81308	8191.8
2819.35442	8197
2821.89419	8179.5
2824.43239	8143.8
2826.96904	8150.4
2829.50412	8159.7
2832.03763	8162.7
2834.56959	8109.4
2837.1	8104.8
2839.62884	8132.5
2842.15613	8103.1
2844.68186	8116
2847.20604	8083.6
2849.72867	8136
2852.24974	8103.2
2854.76927	8079.9
2857.28724	8078
2859.80367	8057.6
2862.31855	8026.5
2864.83189	8041.9
2867.34368	8019.2
2869.85393	8015.8
2872.36264	7994.8
2874.8698	7997.1
2877.37543	7988.7
2879.87952	7983
2882.38207	7992.3
2884.88308	8013.5
2887.38256	8021.9
2889.88051	7997.7
2892.37692	8010.6
2894.8718	7997
2897.36515	8007.8
2899.85698	8016.2
2902.34727	8005.4
2904.83604	8017.7
2907.32328	7992.3
2909.809	8003.6
2912.29319	8002.4
2914.77587	7981.4
2917.25702	7967.5
2919.73665	7990.1
2922.21476	7968.1
2924.69136	7983.3
2927.16644	7978.7
2929.64	7949.4
2932.11205	7952.3
2934.58258	7925.2
2937.05161	7943
2939.51912	7936.1
2941.98513	7938.4
2944.44962	7923.9
2946.91261	7882.1
2949.37409	7881.2
2951.83407	7862.8
2954.29254	7868.7
2956.74951	7857.6
2959.20498	7830.2
2961.65895	7841
2964.11142	7833.8
2966.56239	7795.4
2969.01186	7807.5
2971.45984	7797.9
2973.90632	7779.1
2976.35131	7766
2978.7948	7762.6
2981.23681	7705.2
2983.67732	7709
2986.11635	7695.7
2988.55388	7679
2990.98993	7648.2
2993.4245	7601.8
2995.85758	7609.6
2998.28917	7598.3
3000.71928	7563.2
3003.14791	7555.3
3005.57506	7542.3
3008.00073	7524.2
3010.42493	7534.5
3012.84764	7524.7
3015.26888	7499.7
3017.68865	7484.8
3020.10694	7471.8
3022.52376	7450.1
3024.9391	7453.6
3027.35298	7437.1
3029.76539	7435.1
3032.17632	7429.1
3034.5858	7410.9
3036.9938	7378.8
3039.40034	7398.4
3041.80542	7401.9
3044.20903	7374.5
3046.61118	7377
3049.01187	7350.7
3051.4111	7327.7
3053.80888	7315.2
3056.20519	7303.6
3058.60005	7282.9
3060.99345	7268.2
3063.3854	7238.2
3065.7759	7247.2
3068.16494	7214.8
3070.55254	7204.1
3072.93868	7180.6
3075.32338	7163.8
3077.70662	7177.4
3080.08842	7141.3
3082.46878	7163.6
3084.84769	7148
3087.22515	7122.6
3089.60118	7113.1
3091.97576	7124.5
3094.3489	7126
3096.72061	7118
3099.09087	7120.1
3101.4597	7113.5
3103.82709	7104.9
3106.19305	7113.9
3108.55757	7082.5
3110.92066	7062.8
3113.28232	7057
3115.64255	7048.4
3118.00134	7026.7
3120.35871	7027.9
3122.71466	7041.3
3125.06917	7000.7
3127.42226	6998.3
3129.77393	6969.1
3132.12417	6959.9
3134.47299	6957.9
3136.82039	6964.6
3139.16636	6953.3
3141.51092	6965.3
3143.85406	6960
3146.19579	6977.6
3148.53609	6986.2
3150.87499	6985.6
3153.21246	6992.5
3155.54853	6987.9
3157.88318	6977.8
3160.21642	6999.2
3162.54826	6975.1
3164.87868	6981.7
3167.2077	6988.4
3169.5353	6966.8
3171.86151	6975.3
3174.18631	6982.6
3176.5097	6961
3178.83169	6935.4
3181.15228	6938.7
3183.47147	6934.2
3185.78926	6898.2
3188.10565	6903.6
3190.42065	6908.4
3192.73424	6892.4
3195.04645	6866.6
3197.35725	6895.9
3199.66667	6882.9
3201.97469	6889.7
3204.28132	6906.4
3206.58656	6894.1
3208.8904	6881.2
3211.19287	6892.9
3213.49394	6895.5
3215.79363	6913.4
3218.09193	6904.9
3220.38884	6887.5
3222.68438	6889.2
3224.97853	6851.6
3227.2713	6867.4
3229.56269	6851.5
3231.8527	6881.1
3234.14133	6850.3
3236.42858	6848.2
3238.71446	6828.5
3240.99896	6805.9
3243.28209	6824.1
3245.56384	6813
3247.84423	6784.8
3250.12324	6780.9
3252.40088	6761.3
3254.67715	6760.3
3256.95205	6770.1
3259.22558	6770.3
3261.49775	6754.6
3263.76855	6738.2
3266.03799	6706.7
3268.30606	6714.5
3270.57277	6720
3272.83812	6686.7
3275.10211	6687.6
3277.36474	6655.4
3279.62601	6624.6
3281.88593	6618.2
3284.14448	6644.2
3286.40168	6653.6
3288.65753	6640.4
3290.91202	6628.3
3293.16516	6610.4
3295.41695	6593.4
3297.66738	6548.2
3299.91647	6538.5
3302.16421	6492.6
3304.4106	6456.5
3306.65564	6427.6
3308.89933	6383.6
3311.14169	6330.5
3313.38269	6273.7
3315.62236	6248.7
3317.86068	6180.5
3320.09766	6129
3322.3333	6101.8
3324.5676	6093.5
3326.80056	5997.4
3329.03219	5958.5
3331.26248	3
3333.49143	-0.3
3335.71905	-1.5
