Data from AgNPs_FTO_APTES_UA_1uM_CRN_10uM_R6G_20uM_NaF_0.1M_Addition_RamanShift__29__15-31-39-706.txt Node

Date: Thu Jan 27 15:31:39 GMT 2022
User: TCL
Spectrometer: QEP01345
Trigger mode: 4
Integration Time (sec): 7.000000E0
Scans to average: 10
Electric dark correction enabled: true
Nonlinearity correction enabled: false
Boxcar width: 0
XAxis mode: Raman Shifts
Number of Pixels in Spectrum: 1044
>>>>>Begin Spectral Data<<<<<
46.04893	1.3125
50.45542	0.7125
54.85868	-0.4875
59.25871	-0.3875
63.6555	31.9125
68.04907	34.0125
72.43941	36.9125
76.82654	43.0125
81.21044	41.4125
85.59113	43.7125
89.96862	46.8125
94.34289	44.3125
98.71396	47.5125
103.08183	50.0125
107.4465	52.1125
111.80798	51.0125
116.16626	51.5125
120.52136	59.3125
124.87327	55.5125
129.222	53.0125
133.56755	49.9125
137.90993	53.0125
142.24913	55.3125
146.58517	72.1125
150.91804	84.5125
155.24774	78.6125
159.57429	85.9125
163.89768	106.6125
168.21792	137.8125
172.53501	180.9125
176.84895	239.1125
181.15975	324.1125
185.46741	444.0125
189.77193	613.1125
194.07331	813.0125
198.37157	1043.5125
202.6667	1286.0125
206.9587	1546.3125
211.24758	1772.1125
215.53334	2020.6125
219.81599	2299.4125
224.09553	2614.1125
228.37195	2944.2125
232.64527	3342.1125
236.91549	3715.1125
241.18261	4077.8125
245.44663	4338.2125
249.70755	4584.2125
253.96539	4805.7125
258.22014	4980.6125
262.4718	5149.3125
266.72039	5293.2125
270.96589	5387.3125
275.20832	5420.7125
279.44768	5409.0125
283.68397	5376.8125
287.91719	5317.3125
292.14735	5362.1125
296.37445	5438.8125
300.59849	5580.6125
304.81948	5763.6125
309.03742	5905.4125
313.25231	5887.8125
317.46415	5636.8125
321.67296	5229.2125
325.87872	4916.0125
330.08145	4736.7125
334.28114	4732.3125
338.47781	4789.4125
342.67145	4939.1125
346.86207	5108.7125
351.04966	5407.5125
355.23424	5701.6125
359.4158	5939.8125
363.59435	6048.1125
367.76989	6096.5125
371.94243	6066.5125
376.11196	6034.9125
380.27849	6002.7125
384.44203	5930.0125
388.60257	5863.3125
392.76012	5825.0125
396.91468	5914.8125
401.06626	6080.7125
405.21485	6209.2125
409.36047	6124.5125
413.50311	5833.1125
417.64277	5595.8125
421.77947	5439.3125
425.9132	5385.5125
430.04396	5358.0125
434.17176	5394.3125
438.2966	5452.5125
442.41849	5550.1125
446.53742	5695.3125
450.6534	5848.0125
454.76644	5932.7125
458.87653	5957.1125
462.98368	5935.4125
467.08789	5851.5125
471.18916	5763.4125
475.2875	5634.8125
479.38291	5523.0125
483.4754	5484.8125
487.56496	5412.8125
491.6516	5368.4125
495.73531	5359.6125
499.81612	5373.4125
503.89401	5433.5125
507.96899	5488.2125
512.04106	5541.8125
516.11023	5587.6125
520.1765	5651.0125
524.23987	5598.1125
528.30034	5507.8125
532.35792	5398.5125
536.41261	5300.0125
540.46441	5196.4125
544.51333	5164.2125
548.55936	5205.8125
552.60252	5328.7125
556.64279	5456.1125
560.6802	5507.0125
564.71473	5602.5125
568.7464	5791.0125
572.7752	5944.2125
576.80114	5834.1125
580.82422	5678.0125
584.84444	5652.5125
588.86181	5609.2125
592.87633	5578.3125
596.888	5602.4125
600.89682	5783.1125
604.9028	6346.1125
608.90594	7815.9125
612.90624	9826.1125
616.90371	9565.3125
620.89834	6960.0125
624.89015	5674.4125
628.87913	5429.0125
632.86528	5457.6125
636.84862	5516.0125
640.82913	5450.6125
644.80683	5271.6125
648.78172	5133.6125
652.75379	5144.1125
656.72306	5339.9125
660.68952	5575.9125
664.65319	5565.3125
668.61405	5316.4125
672.57211	5188.7125
676.52738	5186.9125
680.47986	5165.6125
684.42955	5153.0125
688.37646	5136.4125
692.32058	5143.1125
696.26192	5203.1125
700.20048	5246.4125
704.13626	5309.6125
708.06928	5311.6125
711.99952	5256.5125
715.927	5231.1125
719.85171	5234.7125
723.77365	5243.6125
727.69284	5172.6125
731.60928	5128.8125
735.52295	5125.1125
739.43388	5156.2125
743.34206	5176.3125
747.24749	5193.0125
751.15017	5243.2125
755.05012	5347.4125
758.94733	5602.6125
762.8418	6114.7125
766.73354	6978.2125
770.62254	7943.9125
774.50882	8363.5125
778.39237	7994.3125
782.27321	7026.7125
786.15132	6121.9125
790.02671	5557.0125
793.89938	5310.5125
797.76935	5198.7125
801.6366	5164.6125
805.50115	5142.7125
809.36299	5120.8125
813.22213	5098.4125
817.07857	5089.6125
820.93231	5063.0125
824.78336	5095.8125
828.63172	5125.7125
832.47738	5137.9125
836.32036	5133.9125
840.16066	5091.2125
843.99827	5074.1125
847.8332	5051.3125
851.66546	5051.6125
855.49504	5031.4125
859.32195	5042.2125
863.1462	5010.1125
866.96777	5002.7125
870.78668	4988.0125
874.60293	5011.9125
878.41652	5013.9125
882.22745	5017.1125
886.03573	5052.9125
889.84136	5041.6125
893.64433	5020.3125
897.44466	4990.3125
901.24235	4997.2125
905.0374	5006.5125
908.8298	4978.8125
912.61957	4980.7125
916.40671	5020.4125
920.19121	5052.5125
923.97308	5094.1125
927.75233	5124.9125
931.52895	5132.6125
935.30295	5096.0125
939.07433	4998.4125
942.84309	4870.0125
946.60924	4801.8125
950.37278	4761.0125
954.13371	4760.3125
957.89203	4743.6125
961.64774	4717.8125
965.40086	4716.4125
969.15137	4681.6125
972.89929	4660.7125
976.64461	4650.0125
980.38733	4673.6125
984.12747	4667.7125
987.86502	4693.0125
991.59999	4705.7125
995.33237	4751.8125
999.06217	4832.7125
1002.78939	4937.6125
1006.51404	5054.2125
1010.23611	5144.7125
1013.95561	5218.6125
1017.67255	5207.8125
1021.38692	5153.9125
1025.09872	5060.7125
1028.80796	5027.9125
1032.51465	5017.1125
1036.21877	5089.7125
1039.92035	5129.4125
1043.61937	5131.7125
1047.31584	5121.6125
1051.00976	5120.3125
1054.70114	5113.8125
1058.38998	5134.5125
1062.07627	5168.4125
1065.76003	5196.1125
1069.44126	5244.2125
1073.11995	5295.4125
1076.79611	5326.9125
1080.46974	5377.9125
1084.14085	5483.6125
1087.80943	5587.0125
1091.47549	5651.1125
1095.13903	5578.1125
1098.80005	5410.4125
1102.45857	5254.3125
1106.11456	5174.3125
1109.76805	5162.0125
1113.41903	5238.1125
1117.06751	5371.7125
1120.71348	5535.3125
1124.35696	5746.5125
1127.99793	5921.6125
1131.63641	5928.9125
1135.2724	5706.0125
1138.90589	5485.3125
1142.5369	5344.7125
1146.16542	5276.7125
1149.79145	5224.4125
1153.415	5224.6125
1157.03607	5269.1125
1160.65467	5376.0125
1164.27079	5523.4125
1167.88443	5772.6125
1171.49561	6185.6125
1175.10432	6860.2125
1178.71056	7717.7125
1182.31434	8317.3125
1185.91565	8408.0125
1189.51451	8258.4125
1193.11091	7804.1125
1196.70485	7257.2125
1200.29634	6866.4125
1203.88538	6563.4125
1207.47197	6209.0125
1211.05612	5933.6125
1214.63782	5744.0125
1218.21708	5705.6125
1221.79391	5679.3125
1225.36829	5737.3125
1228.94024	5812.8125
1232.50976	5865.0125
1236.07685	5897.9125
1239.6415	5884.4125
1243.20374	5897.6125
1246.76355	5914.1125
1250.32093	5947.7125
1253.8759	6064.8125
1257.42845	6204.8125
1260.97859	6376.0125
1264.52631	6523.1125
1268.07163	6678.0125
1271.61453	6833.4125
1275.15503	6955.4125
1278.69312	7053.0125
1282.22882	7083.4125
1285.76211	7239.2125
1289.29301	7416.2125
1292.82151	7612.0125
1296.34761	7826.0125
1299.87133	8120.2125
1303.39266	8609.8125
1306.9116	9414.9125
1310.42815	10405.0125
1313.94233	11051.8125
1317.45412	10996.6125
1320.96354	10455.2125
1324.47058	9761.0125
1327.97525	9170.0125
1331.47754	8827.5125
1334.97747	8717.4125
1338.47502	8748.6125
1341.97022	8871.1125
1345.46305	9081.1125
1348.95352	9354.0125
1352.44163	9819.0125
1355.92738	10521.9125
1359.41078	11769.2125
1362.89183	13053.7125
1366.37053	12899.0125
1369.84688	11171.4125
1373.32088	9405.1125
1376.79254	8266.1125
1380.26186	7698.1125
1383.72883	7426.0125
1387.19347	7197.8125
1390.65578	6967.8125
1394.11575	6783.3125
1397.57339	6677.9125
1401.0287	6700.6125
1404.48168	6792.1125
1407.93234	6911.1125
1411.38068	6997.8125
1414.82669	6980.2125
1418.27039	6850.7125
1421.71177	6690.6125
1425.15083	6543.2125
1428.58758	6453.7125
1432.02203	6428.6125
1435.45416	6457.8125
1438.88399	6487.9125
1442.31151	6501.6125
1445.73673	6534.5125
1449.15965	6556.6125
1452.58027	6572.4125
1455.9986	6535.8125
1459.41463	6508.4125
1462.82837	6530.3125
1466.23982	6674.9125
1469.64898	6793.2125
1473.05586	6889.8125
1476.46045	6945.7125
1479.86276	7044.6125
1483.26279	7183.5125
1486.66054	7385.1125
1490.05602	7583.2125
1493.44922	7912.5125
1496.84016	8348.1125
1500.22882	9005.0125
1503.61521	9865.8125
1506.99934	10849.3125
1510.38121	11831.6125
1513.76081	12439.2125
1517.13816	12064.7125
1520.51324	10875.7125
1523.88607	9560.9125
1527.25665	8619.3125
1530.62498	8038.3125
1533.99105	7695.7125
1537.35488	7477.8125
1540.71647	7338.7125
1544.07581	7238.1125
1547.4329	7180.9125
1550.78776	7139.7125
1554.14038	7084.1125
1557.49077	7167.8125
1560.83892	7294.1125
1564.18484	7451.4125
1567.52853	7634.4125
1570.86999	7768.4125
1574.20922	7842.4125
1577.54624	7807.6125
1580.88103	7513.0125
1584.2136	7099.7125
1587.54395	6890.3125
1590.87208	7010.6125
1594.19801	7330.3125
1597.52172	7759.1125
1600.84321	7949.0125
1604.16251	7704.4125
1607.47959	7264.8125
1610.79447	6777.1125
1614.10715	6310.6125
1617.41763	5930.5125
1620.7259	5693.6125
1624.03199	5586.3125
1627.33587	5563.2125
1630.63757	5675.1125
1633.93707	5904.9125
1637.23439	6264.4125
1640.52951	6782.2125
1643.82246	7427.4125
1647.11321	8146.9125
1650.40179	8721.6125
1653.68819	8603.1125
1656.97241	7660.9125
1660.25446	6551.8125
1663.53433	5701.5125
1666.81203	5199.2125
1670.08756	4888.0125
1673.36092	4741.7125
1676.63211	4632.0125
1679.90115	4549.1125
1683.16801	4518.7125
1686.43272	4446.6125
1689.69527	4410.5125
1692.95567	4378.3125
1696.2139	4330.3125
1699.46999	4272.5125
1702.72392	4266.5125
1705.97571	4274.1125
1709.22535	4299.9125
1712.47284	4324.7125
1715.71819	4347.7125
1718.96139	4356.7125
1722.20246	4344.7125
1725.44139	4331.2125
1728.67818	4310.7125
1731.91284	4272.7125
1735.14537	4244.8125
1738.37576	4217.9125
1741.60403	4206.7125
1744.83017	4181.6125
1748.05418	4176.1125
1751.27607	4140.9125
1754.49584	4137.4125
1757.71349	4098.1125
1760.92903	4080.8125
1764.14244	4068.2125
1767.35375	4075.0125
1770.56294	4067.4125
1773.77002	4064.9125
1776.97499	4074.9125
1780.17785	4082.1125
1783.37861	4089.4125
1786.57727	4072.9125
1789.77382	4070.3125
1792.96828	4066.6125
1796.16064	4052.2125
1799.3509	4066.5125
1802.53907	4058.0125
1805.72514	4049.7125
1808.90913	4040.5125
1812.09102	4014.8125
1815.27083	4014.7125
1818.44856	4016.5125
1821.6242	4006.3125
1824.79776	4010.0125
1827.96924	3994.8125
1831.13864	3976.9125
1834.30597	3985.7125
1837.47122	3981.3125
1840.6344	3988.1125
1843.7955	3982.7125
1846.95454	3972.2125
1850.11151	3972.1125
1853.26642	3981.4125
1856.41926	3969.7125
1859.57004	3998.6125
1862.71876	3973.2125
1865.86542	3985.0125
1869.01003	3990.3125
1872.15258	3974.6125
1875.29308	3978.7125
1878.43152	3980.6125
1881.56792	3999.5125
1884.70227	3988.8125
1887.83457	3987.8125
1890.96482	3987.3125
1894.09304	4002.9125
1897.21921	3973.9125
1900.34335	3981.8125
1903.46544	3992.9125
1906.58551	3976.7125
1909.70353	3982.1125
1912.81953	3978.1125
1915.93349	3985.8125
1919.04543	3972.1125
1922.15534	3954.2125
1925.26322	3961.8125
1928.36908	3962.4125
1931.47292	3935.1125
1934.57473	3919.9125
1937.67453	3893.5125
1940.77232	3882.4125
1943.86808	3845.9125
1946.96184	3846.6125
1950.05358	3814.0125
1953.14331	3807.4125
1956.23103	3785.8125
1959.31675	3761.6125
1962.40046	3760.4125
1965.48217	3752.4125
1968.56188	3750.5125
1971.63959	3730.1125
1974.7153	3725.5125
1977.78901	3699.1125
1980.86073	3689.1125
1983.93046	3682.1125
1986.99819	3654.2125
1990.06394	3635.0125
1993.1277	3640.9125
1996.18947	3634.0125
1999.24925	3610.0125
2002.30706	3601.0125
2005.36288	3586.5125
2008.41672	3574.3125
2011.46859	3573.2125
2014.51848	3567.3125
2017.56639	3551.8125
2020.61233	3545.8125
2023.6563	3540.2125
2026.6983	3520.1125
2029.73833	3519.0125
2032.7764	3505.2125
2035.8125	3501.4125
2038.84664	3492.2125
2041.87881	3476.5125
2044.90903	3477.7125
2047.93729	3450.7125
2050.96359	3467.7125
2053.98794	3450.8125
2057.01034	3461.1125
2060.03078	3447.4125
2063.04927	3436.5125
2066.06582	3448.4125
2069.08042	3438.9125
2072.09307	3429.2125
2075.10378	3421.1125
2078.11255	3430.8125
2081.11938	3427.6125
2084.12426	3423.5125
2087.12722	3416.1125
2090.12824	3415.8125
2093.12732	3414.3125
2096.12447	3403.1125
2099.11969	3414.6125
2102.11299	3420.5125
2105.10435	3412.2125
2108.09379	3419.2125
2111.08131	3423.0125
2114.0669	3425.8125
2117.05057	3418.1125
2120.03233	3427.3125
2123.01216	3421.1125
2125.99008	3426.7125
2128.96609	3439.9125
2131.94018	3428.2125
2134.91236	3432.5125
2137.88263	3421.1125
2140.851	3435.8125
2143.81746	3418.2125
2146.78201	3430.0125
2149.74466	3440.4125
2152.7054	3428.7125
2155.66425	3418.2125
2158.6212	3425.4125
2161.57625	3414.5125
2164.52941	3422.3125
2167.48067	3411.5125
2170.43004	3419.9125
2173.37752	3404.6125
2176.32311	3408.7125
2179.26681	3416.5125
2182.20863	3387.8125
2185.14856	3396.9125
2188.08661	3412.4125
2191.02278	3407.5125
2193.95707	3403.7125
2196.88948	3381.4125
2199.82001	3385.0125
2202.74867	3387.4125
2205.67545	3380.1125
2208.60037	3376.0125
2211.52341	3369.7125
2214.44458	3368.2125
2217.36388	3358.9125
2220.28132	3353.4125
2223.1969	3348.3125
2226.11061	3342.6125
2229.02246	3333.8125
2231.93245	3313.3125
2234.84058	3307.1125
2237.74686	3307.2125
2240.65128	3310.6125
2243.55385	3288.9125
2246.45456	3296.7125
2249.35343	3305.5125
2252.25044	3290.4125
2255.14561	3286.2125
2258.03893	3279.9125
2260.93041	3273.7125
2263.82004	3275.7125
2266.70783	3266.6125
2269.59378	3268.1125
2272.4779	3247.7125
2275.36017	3244.2125
2278.24061	3218.7125
2281.11922	3224.3125
2283.996	3227.8125
2286.87094	3220.0125
2289.74405	3197.9125
2292.61534	3190.1125
2295.4848	3180.0125
2298.35243	3188.1125
2301.21824	3171.1125
2304.08223	3177.3125
2306.94439	3188.5125
2309.80474	3174.9125
2312.66327	3175.1125
2315.51999	3173.6125
2318.37489	3166.1125
2321.22797	3177.6125
2324.07925	3159.2125
2326.92871	3157.8125
2329.77637	3160.8125
2332.62222	3143.9125
2335.46626	3147.2125
2338.3085	3139.4125
2341.14893	3134.0125
2343.98756	3129.8125
2346.8244	3134.5125
2349.65943	3124.4125
2352.49267	3126.8125
2355.32411	3133.7125
2358.15376	3134.6125
2360.98161	3144.2125
2363.80768	3138.4125
2366.63195	3129.7125
2369.45444	3140.9125
2372.27514	3130.4125
2375.09405	3125.5125
2377.91118	3123.1125
2380.72652	3100.6125
2383.54009	3095.3125
2386.35187	3095.6125
2389.16188	3068.2125
2391.97011	3069.1125
2394.77657	3062.1125
2397.58125	3039.7125
2400.38416	3042.9125
2403.18529	3026.8125
2405.98466	3046.7125
2408.78226	3026.7125
2411.57809	3033.1125
2414.37216	3004.1125
2417.16446	2999.8125
2419.955	2998.2125
2422.74378	3010.2125
2425.5308	3003.2125
2428.31606	3004.3125
2431.09956	3004.8125
2433.88131	2997.2125
2436.6613	2996.4125
2439.43954	3002.4125
2442.21603	2990.3125
2444.99077	2989.7125
2447.76377	3001.5125
2450.53501	2977.8125
2453.30451	2995.2125
2456.07226	2983.5125
2458.83827	2979.7125
2461.60254	2987.1125
2464.36507	2972.1125
2467.12586	2986.2125
2469.88492	2967.7125
2472.64224	2981.9125
2475.39782	2962.1125
2478.15167	2975.9125
2480.90379	2968.7125
2483.65417	2960.5125
2486.40283	2984.9125
2489.14976	2977.3125
2491.89497	2990.9125
2494.63845	2992.6125
2497.3802	2975.2125
2500.12024	2974.5125
2502.85855	2981.2125
2505.59514	2965.5125
2508.33002	2964.8125
2511.06318	2965.8125
2513.79462	2947.2125
2516.52435	2928.1125
2519.25237	2917.6125
2521.97867	2906.2125
2524.70327	2923.2125
2527.42616	2894.2125
2530.14734	2913.1125
2532.86681	2896.4125
2535.58458	2888.9125
2538.30065	2885.1125
2541.01501	2888.9125
2543.72768	2892.0125
2546.43864	2882.5125
2549.14791	2888.6125
2551.85548	2894.6125
2554.56136	2879.1125
2557.26554	2873.0125
2559.96803	2857.3125
2562.66883	2867.2125
2565.36794	2859.9125
2568.06536	2857.7125
2570.7611	2852.4125
2573.45514	2844.8125
2576.14751	2843.8125
2578.83819	2831.1125
2581.52719	2827.3125
2584.21451	2834.6125
2586.90015	2825.6125
2589.58411	2816.4125
2592.2664	2828.4125
2594.94701	2817.6125
2597.62594	2809.8125
2600.30321	2807.2125
2602.9788	2807.9125
2605.65273	2795.5125
2608.32498	2815.9125
2610.99557	2800.7125
2613.66449	2800.1125
2616.33175	2797.9125
2618.99734	2799.4125
2621.66128	2797.2125
2624.32355	2790.4125
2626.98416	2790.4125
2629.64311	2783.1125
2632.30041	2792.5125
2634.95605	2769.0125
2637.61004	2763.9125
2640.26238	2766.2125
2642.91306	2765.7125
2645.56209	2754.6125
2648.20948	2771.3125
2650.85521	2755.9125
2653.4993	2757.8125
2656.14175	2750.4125
2658.78255	2749.6125
2661.42171	2750.7125
2664.05923	2758.3125
2666.6951	2760.1125
2669.32934	2761.0125
2671.96194	2759.0125
2674.59291	2759.5125
2677.22224	2767.5125
2679.84993	2766.9125
2682.476	2771.5125
2685.10043	2767.5125
2687.72324	2754.8125
2690.34441	2760.4125
2692.96396	2760.2125
2695.58188	2763.4125
2698.19818	2765.7125
2700.81285	2766.2125
2703.4259	2768.3125
2706.03733	2748.3125
2708.64714	2739.0125
2711.25533	2764.6125
2713.86191	2760.6125
2716.46687	2764.9125
2719.07021	2762.8125
2721.67194	2765.5125
2724.27206	2758.5125
2726.87057	2778.6125
2729.46747	2776.9125
2732.06276	2780.0125
2734.65644	2756.7125
2737.24852	2763.2125
2739.83899	2765.2125
2742.42786	2753.7125
2745.01513	2752.9125
2747.60079	2745.6125
2750.18486	2745.0125
2752.76733	2749.2125
2755.3482	2740.0125
2757.92747	2736.3125
2760.50515	2728.1125
2763.08123	2723.4125
2765.65573	2726.4125
2768.22863	2722.6125
2770.79994	2709.0125
2773.36967	2714.7125
2775.9378	2711.8125
2778.50435	2719.7125
2781.06932	2723.0125
2783.6327	2707.1125
2786.1945	2707.5125
2788.75471	2709.7125
2791.31335	2690.6125
2793.87041	2695.3125
2796.42589	2694.1125
2798.97979	2688.4125
2801.53212	2692.7125
2804.08288	2696.5125
2806.63206	2681.6125
2809.17967	2677.0125
2811.72571	2667.8125
2814.27018	2673.9125
2816.81308	2673.1125
2819.35442	2665.6125
2821.89419	2678.9125
2824.43239	2676.5125
2826.96904	2676.4125
2829.50412	2683.2125
2832.03763	2687.1125
2834.56959	2676.4125
2837.1	2687.6125
2839.62884	2689.7125
2842.15613	2699.7125
2844.68186	2733.3125
2847.20604	2742.1125
2849.72867	2769.7125
2852.24974	2768.4125
2854.76927	2769.9125
2857.28724	2746.1125
2859.80367	2747.6125
2862.31855	2741.9125
2864.83189	2736.8125
2867.34368	2722.6125
2869.85393	2728.5125
2872.36264	2727.2125
2874.8698	2725.7125
2877.37543	2727.1125
2879.87952	2719.5125
2882.38207	2725.3125
2884.88308	2713.1125
2887.38256	2720.7125
2889.88051	2712.9125
2892.37692	2724.1125
2894.8718	2718.8125
2897.36515	2713.4125
2899.85698	2720.6125
2902.34727	2732.0125
2904.83604	2722.8125
2907.32328	2730.7125
2909.809	2718.8125
2912.29319	2722.8125
2914.77587	2722.7125
2917.25702	2728.0125
2919.73665	2723.4125
2922.21476	2713.3125
2924.69136	2715.1125
2927.16644	2718.4125
2929.64	2712.7125
2932.11205	2714.0125
2934.58258	2690.9125
2937.05161	2697.7125
2939.51912	2691.0125
2941.98513	2673.7125
2944.44962	2649.5125
2946.91261	2631.7125
2949.37409	2630.2125
2951.83407	2633.8125
2954.29254	2615.6125
2956.74951	2605.4125
2959.20498	2595.8125
2961.65895	2592.2125
2964.11142	2599.4125
2966.56239	2586.7125
2969.01186	2593.2125
2971.45984	2573.0125
2973.90632	2578.5125
2976.35131	2570.3125
2978.7948	2557.1125
2981.23681	2551.5125
2983.67732	2548.5125
2986.11635	2545.1125
2988.55388	2528.4125
2990.98993	2537.0125
2993.4245	2523.6125
2995.85758	2515.7125
2998.28917	2509.9125
3000.71928	2512.6125
3003.14791	2498.1125
3005.57506	2504.3125
3008.00073	2502.3125
3010.42493	2499.1125
3012.84764	2486.4125
3015.26888	2481.9125
3017.68865	2493.5125
3020.10694	2485.8125
3022.52376	2476.7125
3024.9391	2477.7125
3027.35298	2475.2125
3029.76539	2471.1125
3032.17632	2464.9125
3034.5858	2478.4125
3036.9938	2473.5125
3039.40034	2455.0125
3041.80542	2469.6125
3044.20903	2470.5125
3046.61118	2455.2125
3049.01187	2452.5125
3051.4111	2440.1125
3053.80888	2452.6125
3056.20519	2456.8125
3058.60005	2436.7125
3060.99345	2429.0125
3063.3854	2427.4125
3065.7759	2433.7125
3068.16494	2433.0125
3070.55254	2413.9125
3072.93868	2414.6125
3075.32338	2418.5125
3077.70662	2414.2125
3080.08842	2411.1125
3082.46878	2411.6125
3084.84769	2394.4125
3087.22515	2394.8125
3089.60118	2400.9125
3091.97576	2391.5125
3094.3489	2412.6125
3096.72061	2397.2125
3099.09087	2408.4125
3101.4597	2412.8125
3103.82709	2403.2125
3106.19305	2398.3125
3108.55757	2414.4125
3110.92066	2400.1125
3113.28232	2393.7125
3115.64255	2403.2125
3118.00134	2398.4125
3120.35871	2400.5125
3122.71466	2386.4125
3125.06917	2389.6125
3127.42226	2391.0125
3129.77393	2398.2125
3132.12417	2398.8125
3134.47299	2399.7125
3136.82039	2393.6125
3139.16636	2403.5125
3141.51092	2426.5125
3143.85406	2417.7125
3146.19579	2411.6125
3148.53609	2421.1125
3150.87499	2437.4125
3153.21246	2438.1125
3155.54853	2455.6125
3157.88318	2454.5125
3160.21642	2455.0125
3162.54826	2455.0125
3164.87868	2451.1125
3167.2077	2454.1125
3169.5353	2474.4125
3171.86151	2463.5125
3174.18631	2472.6125
3176.5097	2465.8125
3178.83169	2471.2125
3181.15228	2475.7125
3183.47147	2467.7125
3185.78926	2466.7125
3188.10565	2475.3125
3190.42065	2473.6125
3192.73424	2464.6125
3195.04645	2482.6125
3197.35725	2480.6125
3199.66667	2490.8125
3201.97469	2477.2125
3204.28132	2497.8125
3206.58656	2495.4125
3208.8904	2502.3125
3211.19287	2499.5125
3213.49394	2513.9125
3215.79363	2514.0125
3218.09193	2517.1125
3220.38884	2529.4125
3222.68438	2516.2125
3224.97853	2505.7125
3227.2713	2510.5125
3229.56269	2506.7125
3231.8527	2513.4125
3234.14133	2513.3125
3236.42858	2506.9125
3238.71446	2510.5125
3240.99896	2507.6125
3243.28209	2503.7125
3245.56384	2506.3125
3247.84423	2511.1125
3250.12324	2490.2125
3252.40088	2497.3125
3254.67715	2491.5125
3256.95205	2491.9125
3259.22558	2497.5125
3261.49775	2483.1125
3263.76855	2491.1125
3266.03799	2480.4125
3268.30606	2482.9125
3270.57277	2469.8125
3272.83812	2467.4125
3275.10211	2459.6125
3277.36474	2471.8125
3279.62601	2451.7125
3281.88593	2442.0125
3284.14448	2457.5125
3286.40168	2475.4125
3288.65753	2461.6125
3290.91202	2454.0125
3293.16516	2439.7125
3295.41695	2444.5125
3297.66738	2425.0125
3299.91647	2429.9125
3302.16421	2399.9125
3304.4106	2396.4125
3306.65564	2382.5125
3308.89933	2366.5125
3311.14169	2348.3125
3313.38269	2326.7125
3315.62236	2320.0125
3317.86068	2300.6125
3320.09766	2279.2125
3322.3333	2267.4125
3324.5676	2256.1125
3326.80056	2211.9125
3329.03219	2203.1125
3331.26248	0.5125
3333.49143	-1.0875
3335.71905	-1.2875
