Data from AgNPs_FTO_APTES_UA_1uM_CRN_1uM_R6G_10uM_NaF_0.1M_Addition_RamanShift__12__12-26-09-494.txt Node

Date: Thu Jan 27 12:26:09 GMT 2022
User: TCL
Spectrometer: QEP01345
Trigger mode: 4
Integration Time (sec): 7.000000E0
Scans to average: 10
Electric dark correction enabled: true
Nonlinearity correction enabled: false
Boxcar width: 0
XAxis mode: Raman Shifts
Number of Pixels in Spectrum: 1044
>>>>>Begin Spectral Data<<<<<
46.04893	0.3
50.45542	0.8
54.85868	-0.5
59.25871	-1.3
63.6555	62.1
68.04907	64.7
72.43941	67.8
76.82654	72.3
81.21044	76.3
85.59113	76.2
89.96862	81.7
94.34289	81.4
98.71396	86.9
103.08183	86.7
107.4465	88.3
111.80798	89.9
116.16626	92.1
120.52136	98.2
124.87327	103.3
129.222	101.5
133.56755	110.4
137.90993	114.3
142.24913	131.9
146.58517	142.3
150.91804	168.5
155.24774	196.8
159.57429	241.7
163.89768	311.7
168.21792	406.7
172.53501	554.7
176.84895	763.5
181.15975	1076.9
185.46741	1516.5
189.77193	2095
194.07331	2809.3
198.37157	3643.5
202.6667	4537.3
206.9587	5392.1
211.24758	6250.6
215.53334	7094.3
219.81599	7982.6
224.09553	8961.4
228.37195	10031.1
232.64527	11244.6
236.91549	12500.1
241.18261	13802.9
245.44663	15051.3
249.70755	16198.5
253.96539	17193.1
258.22014	18043.3
262.4718	18681.8
266.72039	19128.1
270.96589	19323.7
275.20832	19342.9
279.44768	19173.1
283.68397	18876.9
287.91719	18626.8
292.14735	18444.4
296.37445	18308.6
300.59849	18238.1
304.81948	18281.8
309.03742	18307
313.25231	18258.1
317.46415	18027.6
321.67296	17746
325.87872	17512.9
330.08145	17412.2
334.28114	17434.7
338.47781	17554.7
342.67145	17749.5
346.86207	18011.5
351.04966	18324.8
355.23424	18651.6
359.4158	18962.4
363.59435	19241.2
367.76989	19384.4
371.94243	19475.7
376.11196	19597
380.27849	19622
384.44203	19716.4
388.60257	19798.5
392.76012	20004.5
396.91468	20208.3
401.06626	20472.5
405.21485	20667.6
409.36047	20610.4
413.50311	20415.5
417.64277	20254.4
421.77947	20215.8
425.9132	20283.6
430.04396	20380.4
434.17176	20501.9
438.2966	20566.1
442.41849	20763.5
446.53742	21009.5
450.6534	21330.7
454.76644	21470.6
458.87653	21600.5
462.98368	21606
467.08789	21512.6
471.18916	21417.6
475.2875	21208.5
479.38291	21035
483.4754	20924
487.56496	20813.6
491.6516	20761.3
495.73531	20663.2
499.81612	20652
503.89401	20772.9
507.96899	20897.2
512.04106	20960.4
516.11023	20943.8
520.1765	20873.8
524.23987	20766.5
528.30034	20676.4
532.35792	20589.8
536.41261	20419.2
540.46441	20300.6
544.51333	20263.7
548.55936	20398.2
552.60252	20619.8
556.64279	20872.3
560.6802	21051.9
564.71473	21104
568.7464	21173.3
572.7752	21405.9
576.80114	21703.3
580.82422	22044.9
584.84444	22552.2
588.86181	23160
592.87633	23761.5
596.888	23784
600.89682	23345.2
604.9028	23241.6
608.90594	24461.6
612.90624	26119.4
616.90371	25279.9
620.89834	22417.1
624.89015	21065.6
628.87913	20893.1
632.86528	21001.5
636.84862	21173
640.82913	21023.5
644.80683	20652.6
648.78172	20422.1
652.75379	20401.5
656.72306	20610.7
660.68952	20856.3
664.65319	20836.4
668.61405	20625.3
672.57211	20564.9
676.52738	20615.3
680.47986	20615.6
684.42955	20495.7
688.37646	20420.6
692.32058	20479.1
696.26192	20623.1
700.20048	20779.9
704.13626	20951.8
708.06928	20971.8
711.99952	20874.9
715.927	20839
719.85171	20842.4
723.77365	20799.6
727.69284	20651.4
731.60928	20499.1
735.52295	20384.9
739.43388	20379.8
743.34206	20440.4
747.24749	20525
751.15017	20589.7
755.05012	20779
758.94733	21095.5
762.8418	21705.2
766.73354	22708.8
770.62254	23771.5
774.50882	24120.5
778.39237	23666.8
782.27321	22689.4
786.15132	21802.7
790.02671	21198.6
793.89938	20823.5
797.76935	20620.8
801.6366	20535.6
805.50115	20475.2
809.36299	20389.4
813.22213	20307.6
817.07857	20280.6
820.93231	20171.1
824.78336	20182.2
828.63172	20209.2
832.47738	20183.4
836.32036	20145.2
840.16066	20135.6
843.99827	20168.6
847.8332	20122
851.66546	20122.1
855.49504	20182
859.32195	20205
863.1462	20174
866.96777	20190.2
870.78668	20207.9
874.60293	20252
878.41652	20250.2
882.22745	20302.9
886.03573	20376.7
889.84136	20385.4
893.64433	20374.1
897.44466	20338.3
901.24235	20296.8
905.0374	20275.3
908.8298	20213.7
912.61957	20233.4
916.40671	20261.4
920.19121	20401.7
923.97308	20482.9
927.75233	20554.1
931.52895	20521.3
935.30295	20371.8
939.07433	20183.6
942.84309	19988.9
946.60924	19885.2
950.37278	19804.9
954.13371	19775.7
957.89203	19730.4
961.64774	19713.4
965.40086	19697.7
969.15137	19642.2
972.89929	19585.6
976.64461	19523.7
980.38733	19532.5
984.12747	19514.6
987.86502	19571.2
991.59999	19612
995.33237	19713.4
999.06217	19881.4
1002.78939	20065.4
1006.51404	20276.4
1010.23611	20531.9
1013.95561	20723.2
1017.67255	20773.5
1021.38692	20684
1025.09872	20482
1028.80796	20304.8
1032.51465	20142.5
1036.21877	20138.7
1039.92035	20174.2
1043.61937	20248.4
1047.31584	20332.3
1051.00976	20362.8
1054.70114	20409.5
1058.38998	20495.2
1062.07627	20603.4
1065.76003	20730.1
1069.44126	20873.4
1073.11995	21172.3
1076.79611	21465.1
1080.46974	21633.7
1084.14085	21708.8
1087.80943	21751.8
1091.47549	21841.1
1095.13903	21931.7
1098.80005	21843.3
1102.45857	21563
1106.11456	21258.7
1109.76805	21063.1
1113.41903	21000.9
1117.06751	21015.7
1120.71348	21075.3
1124.35696	21206.9
1127.99793	21353.6
1131.63641	21468.5
1135.2724	21401.6
1138.90589	21221
1142.5369	21165.3
1146.16542	21171.6
1149.79145	21169.9
1153.415	21195.2
1157.03607	21195.9
1160.65467	21384
1164.27079	21830.9
1167.88443	22457.6
1171.49561	23190.1
1175.10432	24072.9
1178.71056	25202.9
1182.31434	26338.7
1185.91565	27051.6
1189.51451	27228.6
1193.11091	27003.5
1196.70485	26502.4
1200.29634	25799.1
1203.88538	25191.7
1207.47197	24677
1211.05612	24249.7
1214.63782	23908.3
1218.21708	23480.7
1221.79391	23107
1225.36829	22830.6
1228.94024	22676.5
1232.50976	22621.2
1236.07685	22561.2
1239.6415	22523.4
1243.20374	22475.1
1246.76355	22543.1
1250.32093	22704.6
1253.8759	22962.7
1257.42845	23318.9
1260.97859	23763.8
1264.52631	24255.8
1268.07163	24600.9
1271.61453	25009.1
1275.15503	25398.8
1278.69312	25742.4
1282.22882	26088.3
1285.76211	26501.2
1289.29301	26994.1
1292.82151	27560.4
1296.34761	28314.7
1299.87133	29116.9
1303.39266	30034.5
1306.9116	30971
1310.42815	31802.9
1313.94233	32345.6
1317.45412	32304.2
1320.96354	31861
1324.47058	31399.8
1327.97525	31044
1331.47754	30749.7
1334.97747	30602.3
1338.47502	30500.1
1341.97022	30615.5
1345.46305	30884.7
1348.95352	31244.1
1352.44163	31644.6
1355.92738	32097.8
1359.41078	32840.5
1362.89183	33597
1366.37053	33346.1
1369.84688	31533.4
1373.32088	28968.5
1376.79254	27003.9
1380.26186	25996.6
1383.72883	25618.1
1387.19347	25299.9
1390.65578	24920.4
1394.11575	24646.5
1397.57339	24512.4
1401.0287	24598.7
1404.48168	24723.9
1407.93234	24715.5
1411.38068	24531.8
1414.82669	24227.9
1418.27039	23817.2
1421.71177	23403
1425.15083	23058.9
1428.58758	22901.5
1432.02203	22954.1
1435.45416	23191.4
1438.88399	23462.2
1442.31151	23607.3
1445.73673	23679.9
1449.15965	23739.2
1452.58027	23764.1
1455.9986	23795.2
1459.41463	23901
1462.82837	24182.6
1466.23982	24553.4
1469.64898	24896.2
1473.05586	25091.6
1476.46045	25198.5
1479.86276	25212.5
1483.26279	25204.3
1486.66054	25239.2
1490.05602	25430.4
1493.44922	25795.9
1496.84016	26375
1500.22882	27157.8
1503.61521	28051.4
1506.99934	29051.5
1510.38121	29800.4
1513.76081	29875.4
1517.13816	29297.4
1520.51324	28310.1
1523.88607	27425.5
1527.25665	26783.8
1530.62498	26414.9
1533.99105	26096.5
1537.35488	25680.1
1540.71647	25259.6
1544.07581	24832.5
1547.4329	24462.9
1550.78776	24152.6
1554.14038	23948.6
1557.49077	23893.5
1560.83892	23983.4
1564.18484	24003.5
1567.52853	24183.9
1570.86999	24338
1574.20922	24546.9
1577.54624	24705.9
1580.88103	24554.1
1584.2136	24380.7
1587.54395	24446.7
1590.87208	24932.9
1594.19801	25695.4
1597.52172	26563.9
1600.84321	26904.4
1604.16251	26345.8
1607.47959	25212.1
1610.79447	23959.8
1614.10715	22779.3
1617.41763	21783.1
1620.7259	20974.6
1624.03199	20595.9
1627.33587	20468.2
1630.63757	20725.1
1633.93707	21371
1637.23439	22479.5
1640.52951	24239.1
1643.82246	26450.2
1647.11321	28335.4
1650.40179	28974
1653.68819	27765.5
1656.97241	25247.6
1660.25446	22726.9
1663.53433	20877
1666.81203	19708.2
1670.08756	18957.6
1673.36092	18523.2
1676.63211	18272.8
1679.90115	18048.8
1683.16801	17871.7
1686.43272	17740.9
1689.69527	17616.4
1692.95567	17524.8
1696.2139	17442.3
1699.46999	17336.6
1702.72392	17303.4
1705.97571	17330.8
1709.22535	17360.8
1712.47284	17387.6
1715.71819	17398.6
1718.96139	17385.1
1722.20246	17341.9
1725.44139	17258.2
1728.67818	17185.3
1731.91284	17140.9
1735.14537	17046.4
1738.37576	16969.4
1741.60403	16935.5
1744.83017	16854
1748.05418	16861.8
1751.27607	16799.3
1754.49584	16756.7
1757.71349	16699
1760.92903	16699.5
1764.14244	16661.2
1767.35375	16688.1
1770.56294	16641
1773.77002	16624.6
1776.97499	16620.5
1780.17785	16639.8
1783.37861	16588.8
1786.57727	16605.8
1789.77382	16600.3
1792.96828	16573.6
1796.16064	16540.4
1799.3509	16470.6
1802.53907	16492.1
1805.72514	16439.5
1808.90913	16395.8
1812.09102	16342.9
1815.27083	16340.4
1818.44856	16345.6
1821.6242	16310.6
1824.79776	16273.9
1827.96924	16261
1831.13864	16263.7
1834.30597	16252.7
1837.47122	16202.6
1840.6344	16250.4
1843.7955	16262.3
1846.95454	16246.3
1850.11151	16232.8
1853.26642	16232.8
1856.41926	16203.3
1859.57004	16241.7
1862.71876	16203.2
1865.86542	16154.8
1869.01003	16142
1872.15258	16124.8
1875.29308	16096
1878.43152	16050.2
1881.56792	16039.7
1884.70227	15991.8
1887.83457	15959.6
1890.96482	15916.3
1894.09304	15890.6
1897.21921	15886.6
1900.34335	15896.3
1903.46544	15846.6
1906.58551	15847.8
1909.70353	15778.7
1912.81953	15779.7
1915.93349	15742.6
1919.04543	15727.1
1922.15534	15680.1
1925.26322	15610.5
1928.36908	15604.7
1931.47292	15545.8
1934.57473	15534.2
1937.67453	15495.8
1940.77232	15466.7
1943.86808	15425.8
1946.96184	15388
1950.05358	15292.9
1953.14331	15279
1956.23103	15238
1959.31675	15223.9
1962.40046	15167.7
1965.48217	15097.2
1968.56188	15057.3
1971.63959	15010.4
1974.7153	14975.1
1977.78901	14914.3
1980.86073	14874.4
1983.93046	14826.9
1986.99819	14771.9
1990.06394	14735.8
1993.1277	14693.5
1996.18947	14640.6
1999.24925	14615.9
2002.30706	14581.7
2005.36288	14490.8
2008.41672	14475.5
2011.46859	14457.1
2014.51848	14356.3
2017.56639	14328.9
2020.61233	14315.4
2023.6563	14302.3
2026.6983	14213.6
2029.73833	14176.9
2032.7764	14158.3
2035.8125	14132.5
2038.84664	14075.6
2041.87881	14073.6
2044.90903	14040.9
2047.93729	14007
2050.96359	13954.5
2053.98794	13936.5
2057.01034	13938.3
2060.03078	13947.3
2063.04927	13932.2
2066.06582	13923
2069.08042	13928.2
2072.09307	13921.7
2075.10378	13884.2
2078.11255	13921
2081.11938	13902.9
2084.12426	13884.5
2087.12722	13894.2
2090.12824	13852.9
2093.12732	13884.6
2096.12447	13876.7
2099.11969	13868
2102.11299	13886.7
2105.10435	13897.1
2108.09379	13887.5
2111.08131	13865.1
2114.0669	13857.4
2117.05057	13886
2120.03233	13900.1
2123.01216	13872.9
2125.99008	13880
2128.96609	13914.4
2131.94018	13912.9
2134.91236	13931.4
2137.88263	13910.6
2140.851	13931.9
2143.81746	13917.3
2146.78201	13930.3
2149.74466	13914.3
2152.7054	13914.7
2155.66425	13934.6
2158.6212	13896.2
2161.57625	13903.3
2164.52941	13894.4
2167.48067	13888.7
2170.43004	13867.9
2173.37752	13885.3
2176.32311	13873.1
2179.26681	13863
2182.20863	13872.7
2185.14856	13867.1
2188.08661	13831
2191.02278	13821.2
2193.95707	13828.1
2196.88948	13837.9
2199.82001	13796.7
2202.74867	13782.3
2205.67545	13780
2208.60037	13732.4
2211.52341	13749
2214.44458	13706.5
2217.36388	13678.1
2220.28132	13622.7
2223.1969	13585.5
2226.11061	13574.5
2229.02246	13565.6
2231.93245	13546.6
2234.84058	13522
2237.74686	13505.3
2240.65128	13472
2243.55385	13486.4
2246.45456	13454.3
2249.35343	13462.9
2252.25044	13441.3
2255.14561	13379.1
2258.03893	13362.2
2260.93041	13343.5
2263.82004	13321.6
2266.70783	13262
2269.59378	13239.8
2272.4779	13220.2
2275.36017	13172.1
2278.24061	13164
2281.11922	13133.8
2283.996	13122.9
2286.87094	13061.5
2289.74405	13054.4
2292.61534	13035.2
2295.4848	13025.6
2298.35243	13015.8
2301.21824	13002.1
2304.08223	12968.1
2306.94439	12982
2309.80474	12942.5
2312.66327	12936.2
2315.51999	12924.1
2318.37489	12907.7
2321.22797	12897
2324.07925	12869.2
2326.92871	12867.9
2329.77637	12860.6
2332.62222	12809.6
2335.46626	12796
2338.3085	12766.4
2341.14893	12759.9
2343.98756	12752.8
2346.8244	12738
2349.65943	12721.1
2352.49267	12686.5
2355.32411	12695.7
2358.15376	12657.3
2360.98161	12667
2363.80768	12642.4
2366.63195	12663.7
2369.45444	12670.9
2372.27514	12649.2
2375.09405	12627.7
2377.91118	12600.9
2380.72652	12583.6
2383.54009	12522.7
2386.35187	12550
2389.16188	12480.1
2391.97011	12453.8
2394.77657	12429.5
2397.58125	12427.2
2400.38416	12358.8
2403.18529	12353.6
2405.98466	12352.2
2408.78226	12292.2
2411.57809	12314.4
2414.37216	12296.8
2417.16446	12307.8
2419.955	12281.5
2422.74378	12255.9
2425.5308	12242.9
2428.31606	12242.6
2431.09956	12217.8
2433.88131	12176.8
2436.6613	12190.4
2439.43954	12232.5
2442.21603	12176.8
2444.99077	12190
2447.76377	12180.2
2450.53501	12162.9
2453.30451	12158.5
2456.07226	12124
2458.83827	12116.3
2461.60254	12112
2464.36507	12076.9
2467.12586	12060.9
2469.88492	12056.9
2472.64224	12093.9
2475.39782	12040.8
2478.15167	12048.9
2480.90379	12024
2483.65417	12034.6
2486.40283	11995.3
2489.14976	12011.3
2491.89497	11965.5
2494.63845	11978.6
2497.3802	11980.3
2500.12024	11943.4
2502.85855	11936.5
2505.59514	11940.4
2508.33002	11906.3
2511.06318	11906.1
2513.79462	11845.9
2516.52435	11839.9
2519.25237	11834.7
2521.97867	11817
2524.70327	11828.4
2527.42616	11814.5
2530.14734	11795.5
2532.86681	11755.9
2535.58458	11760.6
2538.30065	11742.6
2541.01501	11741.9
2543.72768	11700.6
2546.43864	11710.6
2549.14791	11681.1
2551.85548	11648
2554.56136	11619.3
2557.26554	11630.1
2559.96803	11576.2
2562.66883	11585.3
2565.36794	11571.9
2568.06536	11541.1
2570.7611	11504.5
2573.45514	11473.9
2576.14751	11465.5
2578.83819	11438.7
2581.52719	11434.8
2584.21451	11447.6
2586.90015	11417.2
2589.58411	11353
2592.2664	11348
2594.94701	11308.6
2597.62594	11315.5
2600.30321	11280.8
2602.9788	11266.8
2605.65273	11241.1
2608.32498	11211.5
2610.99557	11217.5
2613.66449	11203.3
2616.33175	11198.2
2618.99734	11209.4
2621.66128	11147.7
2624.32355	11140.7
2626.98416	11144.2
2629.64311	11106.3
2632.30041	11095.7
2634.95605	11052.3
2637.61004	11044.5
2640.26238	11020.7
2642.91306	11024.7
2645.56209	11027.7
2648.20948	11029.9
2650.85521	11028.5
2653.4993	11030.8
2656.14175	11015
2658.78255	11012.8
2661.42171	11022
2664.05923	11021.9
2666.6951	10999.3
2669.32934	11018.7
2671.96194	11016.5
2674.59291	10987.1
2677.22224	10988.3
2679.84993	11031.8
2682.476	10954.6
2685.10043	10984.2
2687.72324	10973.4
2690.34441	10979.1
2692.96396	10979.7
2695.58188	10981.8
2698.19818	10971.7
2700.81285	10968.6
2703.4259	10938.7
2706.03733	10907.9
2708.64714	10921
2711.25533	10960.4
2713.86191	10956.2
2716.46687	10969.6
2719.07021	10948.1
2721.67194	10952
2724.27206	10953.9
2726.87057	10966.5
2729.46747	10940.9
2732.06276	10941.1
2734.65644	10922.2
2737.24852	10929.6
2739.83899	10922.1
2742.42786	10887.5
2745.01513	10850.7
2747.60079	10854.5
2750.18486	10850.2
2752.76733	10822.7
2755.3482	10786.6
2757.92747	10833.5
2760.50515	10777.4
2763.08123	10780.5
2765.65573	10782.9
2768.22863	10769
2770.79994	10752.7
2773.36967	10738.4
2775.9378	10720.6
2778.50435	10727.3
2781.06932	10691.4
2783.6327	10649.5
2786.1945	10649.8
2788.75471	10638.6
2791.31335	10626.5
2793.87041	10612.5
2796.42589	10579.7
2798.97979	10577.3
2801.53212	10573.3
2804.08288	10545.8
2806.63206	10497.5
2809.17967	10470.9
2811.72571	10454.4
2814.27018	10418.7
2816.81308	10418.6
2819.35442	10404.8
2821.89419	10349
2824.43239	10359.9
2826.96904	10336.2
2829.50412	10352.7
2832.03763	10315.5
2834.56959	10288
2837.1	10308.2
2839.62884	10310.7
2842.15613	10297
2844.68186	10324.6
2847.20604	10295.1
2849.72867	10297
2852.24974	10288.8
2854.76927	10254.4
2857.28724	10253.1
2859.80367	10238.4
2862.31855	10223.9
2864.83189	10174.5
2867.34368	10174.3
2869.85393	10185.7
2872.36264	10164
2874.8698	10146.4
2877.37543	10146.8
2879.87952	10130.7
2882.38207	10123
2884.88308	10125.6
2887.38256	10126.6
2889.88051	10140.3
2892.37692	10117.4
2894.8718	10129.3
2897.36515	10140.2
2899.85698	10135.4
2902.34727	10132.1
2904.83604	10138.6
2907.32328	10148.6
2909.809	10133.7
2912.29319	10134.4
2914.77587	10105.2
2917.25702	10119.8
2919.73665	10101.6
2922.21476	10106.9
2924.69136	10090.5
2927.16644	10092.7
2929.64	10098.2
2932.11205	10076.6
2934.58258	10013.2
2937.05161	10043.5
2939.51912	10056.5
2941.98513	10014.9
2944.44962	10005.1
2946.91261	9968.9
2949.37409	9976.7
2951.83407	9973
2954.29254	9941.9
2956.74951	9926.9
2959.20498	9944.9
2961.65895	9929.4
2964.11142	9916.7
2966.56239	9907.3
2969.01186	9897.6
2971.45984	9863.7
2973.90632	9867.3
2976.35131	9837.1
2978.7948	9813.9
2981.23681	9789.2
2983.67732	9778
2986.11635	9748.6
2988.55388	9714.5
2990.98993	9705.1
2993.4245	9664.1
2995.85758	9653
2998.28917	9642.5
3000.71928	9617.9
3003.14791	9602.1
3005.57506	9584.1
3008.00073	9554.4
3010.42493	9552.1
3012.84764	9551.4
3015.26888	9536.6
3017.68865	9496.5
3020.10694	9478.4
3022.52376	9489.5
3024.9391	9456.3
3027.35298	9454.9
3029.76539	9437
3032.17632	9443.3
3034.5858	9397.9
3036.9938	9393.6
3039.40034	9375.9
3041.80542	9371.1
3044.20903	9357.1
3046.61118	9354.7
3049.01187	9343.5
3051.4111	9295.7
3053.80888	9290.6
3056.20519	9271.6
3058.60005	9253.2
3060.99345	9236
3063.3854	9200.3
3065.7759	9186.6
3068.16494	9166.6
3070.55254	9146.5
3072.93868	9115.3
3075.32338	9106.7
3077.70662	9110.4
3080.08842	9072.7
3082.46878	9069.8
3084.84769	9066.7
3087.22515	9020.5
3089.60118	9033.1
3091.97576	9052.6
3094.3489	9032.5
3096.72061	9051.1
3099.09087	9015.1
3101.4597	9017.7
3103.82709	9023.2
3106.19305	8993
3108.55757	9022.8
3110.92066	8967.4
3113.28232	8959.1
3115.64255	8928.7
3118.00134	8923.1
3120.35871	8930.3
3122.71466	8896.9
3125.06917	8884.5
3127.42226	8869.8
3129.77393	8866.7
3132.12417	8848.2
3134.47299	8848.6
3136.82039	8829
3139.16636	8826.6
3141.51092	8843.2
3143.85406	8838.2
3146.19579	8853.6
3148.53609	8864
3150.87499	8866.2
3153.21246	8854.2
3155.54853	8858.3
3157.88318	8870.6
3160.21642	8847.3
3162.54826	8850.8
3164.87868	8816.3
3167.2077	8822.4
3169.5353	8842.1
3171.86151	8835.8
3174.18631	8818.2
3176.5097	8817.8
3178.83169	8799.7
3181.15228	8788
3183.47147	8785.4
3185.78926	8756.4
3188.10565	8741.9
3190.42065	8755.5
3192.73424	8721.5
3195.04645	8741
3197.35725	8751.5
3199.66667	8720.2
3201.97469	8718.7
3204.28132	8712.8
3206.58656	8755.5
3208.8904	8721.2
3211.19287	8737.9
3213.49394	8746.1
3215.79363	8752.7
3218.09193	8746.1
3220.38884	8724.9
3222.68438	8726.1
3224.97853	8718.8
3227.2713	8680.2
3229.56269	8680.7
3231.8527	8661.6
3234.14133	8695.9
3236.42858	8630.6
3238.71446	8614.2
3240.99896	8607.7
3243.28209	8602.3
3245.56384	8590
3247.84423	8586.6
3250.12324	8583.5
3252.40088	8569.4
3254.67715	8576.8
3256.95205	8549.8
3259.22558	8569
3261.49775	8551.5
3263.76855	8533.9
3266.03799	8521.4
3268.30606	8480.1
3270.57277	8501.4
3272.83812	8463.9
3275.10211	8445
3277.36474	8395.6
3279.62601	8411
3281.88593	8405.7
3284.14448	8399.3
3286.40168	8427.9
3288.65753	8387.1
3290.91202	8386.2
3293.16516	8332.8
3295.41695	8351.5
3297.66738	8275.4
3299.91647	8243.6
3302.16421	8197.1
3304.4106	8138.9
3306.65564	8121.9
3308.89933	8069.2
3311.14169	8010.9
3313.38269	7943
3315.62236	7883.5
3317.86068	7832.7
3320.09766	7759.7
3322.3333	7742.5
3324.5676	7707.7
3326.80056	7578.6
3329.03219	7528.9
3331.26248	1.3
3333.49143	0.6
3335.71905	-1.8
