Data from AgNPs_FTO_APTES_UA_1uM_CRN_10uM_R6G_50uM_NaF_0.1M_Addition_RamanShift__7__15-49-09-727.txt Node

Date: Thu Jan 27 15:49:09 GMT 2022
User: TCL
Spectrometer: QEP01345
Trigger mode: 4
Integration Time (sec): 7.000000E0
Scans to average: 10
Electric dark correction enabled: true
Nonlinearity correction enabled: false
Boxcar width: 0
XAxis mode: Raman Shifts
Number of Pixels in Spectrum: 1044
>>>>>Begin Spectral Data<<<<<
46.04893	1.1375
50.45542	0.4375
54.85868	-1.7625
59.25871	-1.5625
63.6555	46.1375
68.04907	50.2375
72.43941	49.4375
76.82654	53.9375
81.21044	56.9375
85.59113	57.1375
89.96862	59.2375
94.34289	60.9375
98.71396	65.6375
103.08183	64.9375
107.4465	68.0375
111.80798	70.9375
116.16626	70.5375
120.52136	73.5375
124.87327	75.8375
129.222	74.1375
133.56755	81.0375
137.90993	88.5375
142.24913	91.5375
146.58517	105.1375
150.91804	116.9375
155.24774	136.8375
159.57429	167.6375
163.89768	210.9375
168.21792	281.1375
172.53501	381.7375
176.84895	523.6375
181.15975	733.1375
185.46741	1022.1375
189.77193	1407.0375
194.07331	1892.8375
198.37157	2439.6375
202.6667	3022.9375
206.9587	3579.7375
211.24758	4157.2375
215.53334	4695.2375
219.81599	5264.0375
224.09553	5920.1375
228.37195	6610.9375
232.64527	7382.7375
236.91549	8198.8375
241.18261	9044.0375
245.44663	9814.3375
249.70755	10534.8375
253.96539	11181.3375
258.22014	11735.3375
262.4718	12161.9375
266.72039	12508.0375
270.96589	12677.8375
275.20832	12680.6375
279.44768	12655.7375
283.68397	12534.8375
287.91719	12399.0375
292.14735	12347.7375
296.37445	12305.7375
300.59849	12344.4375
304.81948	12327.6375
309.03742	12324.9375
313.25231	12240.8375
317.46415	12067.2375
321.67296	11858.1375
325.87872	11687.4375
330.08145	11564.3375
334.28114	11559.1375
338.47781	11617.1375
342.67145	11741.1375
346.86207	11887.6375
351.04966	12067.3375
355.23424	12253.9375
359.4158	12407.6375
363.59435	12547.8375
367.76989	12635.4375
371.94243	12719.3375
376.11196	12791.6375
380.27849	12811.4375
384.44203	12876.8375
388.60257	12966.9375
392.76012	13095.8375
396.91468	13257.7375
401.06626	13406.7375
405.21485	13518.3375
409.36047	13506.2375
413.50311	13382.6375
417.64277	13318.5375
421.77947	13373.8375
425.9132	13459.2375
430.04396	13545.4375
434.17176	13606.2375
438.2966	13681.2375
442.41849	13841.4375
446.53742	14085.1375
450.6534	14363.6375
454.76644	14602.8375
458.87653	14657.4375
462.98368	14636.6375
467.08789	14535.9375
471.18916	14420.6375
475.2875	14241.1375
479.38291	14178.5375
483.4754	14144.0375
487.56496	14007.4375
491.6516	13816.6375
495.73531	13686.5375
499.81612	13618.9375
503.89401	13633.4375
507.96899	13724.7375
512.04106	13692.1375
516.11023	13652.1375
520.1765	13520.3375
524.23987	13409.9375
528.30034	13290.4375
532.35792	13206.7375
536.41261	13097.6375
540.46441	13003.2375
544.51333	12983.2375
548.55936	13071.6375
552.60252	13294.0375
556.64279	13577.9375
560.6802	13737.0375
564.71473	13825.0375
568.7464	13996.3375
572.7752	14333.7375
576.80114	14688.0375
580.82422	15116.1375
584.84444	15534.8375
588.86181	16046.4375
592.87633	16425.8375
596.888	16363.0375
600.89682	15820.0375
604.9028	15540.7375
608.90594	16013.0375
612.90624	16625.4375
616.90371	15889.4375
620.89834	14108.6375
624.89015	13276.5375
628.87913	13195.3375
632.86528	13313.2375
636.84862	13329.4375
640.82913	13188.2375
644.80683	12964.6375
648.78172	12828.1375
652.75379	12796.9375
656.72306	12887.9375
660.68952	13012.4375
664.65319	12930.9375
668.61405	12804.4375
672.57211	12820.1375
676.52738	12842.2375
680.47986	12868.6375
684.42955	12781.0375
688.37646	12726.2375
692.32058	12756.9375
696.26192	12888.7375
700.20048	13049.0375
704.13626	13130.9375
708.06928	13159.0375
711.99952	13150.7375
715.927	13105.3375
719.85171	13132.4375
723.77365	13078.2375
727.69284	12924.9375
731.60928	12796.4375
735.52295	12713.2375
739.43388	12721.0375
743.34206	12738.1375
747.24749	12788.9375
751.15017	12929.2375
755.05012	13086.0375
758.94733	13372.1375
762.8418	13818.7375
766.73354	14507.2375
770.62254	15115.9375
774.50882	15185.5375
778.39237	14662.3375
782.27321	13949.4375
786.15132	13350.3375
790.02671	13003.8375
793.89938	12771.2375
797.76935	12701.7375
801.6366	12678.0375
805.50115	12644.8375
809.36299	12589.7375
813.22213	12521.2375
817.07857	12507.8375
820.93231	12467.1375
824.78336	12424.5375
828.63172	12381.1375
832.47738	12353.8375
836.32036	12327.0375
840.16066	12308.5375
843.99827	12338.6375
847.8332	12334.6375
851.66546	12346.9375
855.49504	12345.8375
859.32195	12327.7375
863.1462	12299.5375
866.96777	12307.3375
870.78668	12263.8375
874.60293	12276.1375
878.41652	12270.0375
882.22745	12309.1375
886.03573	12342.3375
889.84136	12344.8375
893.64433	12303.8375
897.44466	12282.6375
901.24235	12232.2375
905.0374	12216.9375
908.8298	12194.3375
912.61957	12198.0375
916.40671	12288.8375
920.19121	12437.6375
923.97308	12522.6375
927.75233	12509.8375
931.52895	12373.5375
935.30295	12245.9375
939.07433	12057.5375
942.84309	11960.5375
946.60924	11889.1375
950.37278	11850.5375
954.13371	11851.5375
957.89203	11827.1375
961.64774	11864.5375
965.40086	11831.9375
969.15137	11775.1375
972.89929	11763.4375
976.64461	11697.5375
980.38733	11672.9375
984.12747	11664.8375
987.86502	11701.6375
991.59999	11756.5375
995.33237	11823.8375
999.06217	11949.7375
1002.78939	12116.9375
1006.51404	12291.8375
1010.23611	12447.6375
1013.95561	12564.4375
1017.67255	12584.7375
1021.38692	12522.0375
1025.09872	12370.0375
1028.80796	12268.8375
1032.51465	12271.0375
1036.21877	12320.4375
1039.92035	12334.4375
1043.61937	12342.3375
1047.31584	12335.7375
1051.00976	12364.5375
1054.70114	12346.4375
1058.38998	12418.7375
1062.07627	12514.8375
1065.76003	12622.2375
1069.44126	12783.4375
1073.11995	12959.7375
1076.79611	13068.4375
1080.46974	13139.5375
1084.14085	13183.2375
1087.80943	13219.6375
1091.47549	13298.4375
1095.13903	13347.1375
1098.80005	13228.1375
1102.45857	12997.7375
1106.11456	12797.1375
1109.76805	12651.2375
1113.41903	12628.6375
1117.06751	12688.5375
1120.71348	12771.1375
1124.35696	12867.9375
1127.99793	12989.7375
1131.63641	13092.1375
1135.2724	13049.0375
1138.90589	13008.0375
1142.5369	13041.0375
1146.16542	13110.1375
1149.79145	13163.5375
1153.415	13285.0375
1157.03607	13409.1375
1160.65467	13709.1375
1164.27079	14179.0375
1167.88443	14762.8375
1171.49561	15387.5375
1175.10432	16075.7375
1178.71056	16942.5375
1182.31434	17757.0375
1185.91565	18203.3375
1189.51451	18221.1375
1193.11091	17974.0375
1196.70485	17575.5375
1200.29634	17104.8375
1203.88538	16721.0375
1207.47197	16563.6375
1211.05612	16397.1375
1214.63782	16161.3375
1218.21708	15756.7375
1221.79391	15320.3375
1225.36829	15008.7375
1228.94024	14801.2375
1232.50976	14658.6375
1236.07685	14551.4375
1239.6415	14448.9375
1243.20374	14474.7375
1246.76355	14525.1375
1250.32093	14695.2375
1253.8759	14917.7375
1257.42845	15191.9375
1260.97859	15548.2375
1264.52631	15865.1375
1268.07163	16218.6375
1271.61453	16520.4375
1275.15503	16884.8375
1278.69312	17301.9375
1282.22882	17696.0375
1285.76211	18216.4375
1289.29301	18874.4375
1292.82151	19581.9375
1296.34761	20512.9375
1299.87133	21570.0375
1303.39266	22550.1375
1306.9116	23405.6375
1310.42815	23957.0375
1313.94233	24192.0375
1317.45412	24077.4375
1320.96354	23792.6375
1324.47058	23578.4375
1327.97525	23435.3375
1331.47754	23380.1375
1334.97747	23252.1375
1338.47502	23124.8375
1341.97022	22967.2375
1345.46305	22806.4375
1348.95352	22584.4375
1352.44163	22451.6375
1355.92738	22637.4375
1359.41078	23119.3375
1362.89183	23575.1375
1366.37053	23295.0375
1369.84688	21892.1375
1373.32088	20037.1375
1376.79254	18636.6375
1380.26186	18077.8375
1383.72883	18165.1375
1387.19347	18223.0375
1390.65578	18105.3375
1394.11575	17984.8375
1397.57339	18104.9375
1401.0287	18281.1375
1404.48168	18517.4375
1407.93234	18460.8375
1411.38068	18157.2375
1414.82669	17610.3375
1418.27039	16953.0375
1421.71177	16325.4375
1425.15083	15826.4375
1428.58758	15625.0375
1432.02203	15668.8375
1435.45416	15973.6375
1438.88399	16427.9375
1442.31151	16759.7375
1445.73673	16946.8375
1449.15965	17076.3375
1452.58027	17143.8375
1455.9986	17110.1375
1459.41463	17145.8375
1462.82837	17332.7375
1466.23982	17570.3375
1469.64898	17785.7375
1473.05586	18015.5375
1476.46045	18018.9375
1479.86276	17945.4375
1483.26279	17807.9375
1486.66054	17718.6375
1490.05602	17752.8375
1493.44922	17926.1375
1496.84016	18153.9375
1500.22882	18399.1375
1503.61521	18801.6375
1506.99934	19254.9375
1510.38121	19566.7375
1513.76081	19670.9375
1517.13816	19377.0375
1520.51324	19047.7375
1523.88607	18794.0375
1527.25665	18719.8375
1530.62498	18719.8375
1533.99105	18658.6375
1537.35488	18455.3375
1540.71647	18105.8375
1544.07581	17620.4375
1547.4329	17152.3375
1550.78776	16741.8375
1554.14038	16474.8375
1557.49077	16348.7375
1560.83892	16251.2375
1564.18484	16217.5375
1567.52853	16231.9375
1570.86999	16369.5375
1574.20922	16647.3375
1577.54624	16926.3375
1580.88103	17031.5375
1584.2136	17202.6375
1587.54395	17589.4375
1590.87208	18282.3375
1594.19801	19090.0375
1597.52172	19876.0375
1600.84321	20054.0375
1604.16251	19284.2375
1607.47959	18067.2375
1610.79447	16772.3375
1614.10715	15562.2375
1617.41763	14607.7375
1620.7259	13926.4375
1624.03199	13544.2375
1627.33587	13484.5375
1630.63757	13766.1375
1633.93707	14455.2375
1637.23439	15593.6375
1640.52951	17336.6375
1643.82246	19423.4375
1647.11321	21152.6375
1650.40179	21574.9375
1653.68819	20259.2375
1656.97241	17899.4375
1660.25446	15601.7375
1663.53433	13871.2375
1666.81203	12744.8375
1670.08756	12051.0375
1673.36092	11615.9375
1676.63211	11312.9375
1679.90115	11126.6375
1683.16801	10960.9375
1686.43272	10867.7375
1689.69527	10755.8375
1692.95567	10678.3375
1696.2139	10621.0375
1699.46999	10547.2375
1702.72392	10507.6375
1705.97571	10470.6375
1709.22535	10496.5375
1712.47284	10522.3375
1715.71819	10525.1375
1718.96139	10495.6375
1722.20246	10432.1375
1725.44139	10432.7375
1728.67818	10377.5375
1731.91284	10306.2375
1735.14537	10274.1375
1738.37576	10224.2375
1741.60403	10156.4375
1744.83017	10133.2375
1748.05418	10122.0375
1751.27607	10084.0375
1754.49584	10067.3375
1757.71349	10054.7375
1760.92903	10055.5375
1764.14244	10020.0375
1767.35375	10001.6375
1770.56294	9983.9375
1773.77002	9958.3375
1776.97499	9972.0375
1780.17785	9974.4375
1783.37861	9965.4375
1786.57727	9955.6375
1789.77382	9943.6375
1792.96828	9920.4375
1796.16064	9902.9375
1799.3509	9868.5375
1802.53907	9870.6375
1805.72514	9845.7375
1808.90913	9819.9375
1812.09102	9798.3375
1815.27083	9793.5375
1818.44856	9767.6375
1821.6242	9734.1375
1824.79776	9702.7375
1827.96924	9709.8375
1831.13864	9712.4375
1834.30597	9723.5375
1837.47122	9711.0375
1840.6344	9682.0375
1843.7955	9690.9375
1846.95454	9699.0375
1850.11151	9669.5375
1853.26642	9669.7375
1856.41926	9663.5375
1859.57004	9671.4375
1862.71876	9645.9375
1865.86542	9659.6375
1869.01003	9632.2375
1872.15258	9602.6375
1875.29308	9614.0375
1878.43152	9582.8375
1881.56792	9583.7375
1884.70227	9536.3375
1887.83457	9508.4375
1890.96482	9515.4375
1894.09304	9524.3375
1897.21921	9510.5375
1900.34335	9490.1375
1903.46544	9475.4375
1906.58551	9478.7375
1909.70353	9430.2375
1912.81953	9439.3375
1915.93349	9431.3375
1919.04543	9412.0375
1922.15534	9380.5375
1925.26322	9363.3375
1928.36908	9352.4375
1931.47292	9311.3375
1934.57473	9303.5375
1937.67453	9284.6375
1940.77232	9275.9375
1943.86808	9231.3375
1946.96184	9191.2375
1950.05358	9184.9375
1953.14331	9151.8375
1956.23103	9152.4375
1959.31675	9106.8375
1962.40046	9073.4375
1965.48217	9065.3375
1968.56188	9034.4375
1971.63959	9003.9375
1974.7153	9005.2375
1977.78901	8959.9375
1980.86073	8920.1375
1983.93046	8914.8375
1986.99819	8888.9375
1990.06394	8852.9375
1993.1277	8836.5375
1996.18947	8784.3375
1999.24925	8770.0375
2002.30706	8736.8375
2005.36288	8710.1375
2008.41672	8715.2375
2011.46859	8663.0375
2014.51848	8647.1375
2017.56639	8621.0375
2020.61233	8613.2375
2023.6563	8614.3375
2026.6983	8558.9375
2029.73833	8530.7375
2032.7764	8512.2375
2035.8125	8521.2375
2038.84664	8473.8375
2041.87881	8456.6375
2044.90903	8466.3375
2047.93729	8409.2375
2050.96359	8437.7375
2053.98794	8423.0375
2057.01034	8399.0375
2060.03078	8395.3375
2063.04927	8414.3375
2066.06582	8386.5375
2069.08042	8381.1375
2072.09307	8375.8375
2075.10378	8351.7375
2078.11255	8357.7375
2081.11938	8360.9375
2084.12426	8360.9375
2087.12722	8348.9375
2090.12824	8346.6375
2093.12732	8370.8375
2096.12447	8350.5375
2099.11969	8350.1375
2102.11299	8350.8375
2105.10435	8336.7375
2108.09379	8346.2375
2111.08131	8353.7375
2114.0669	8358.4375
2117.05057	8365.5375
2120.03233	8375.7375
2123.01216	8365.6375
2125.99008	8383.7375
2128.96609	8389.4375
2131.94018	8388.5375
2134.91236	8388.5375
2137.88263	8399.3375
2140.851	8380.3375
2143.81746	8410.4375
2146.78201	8392.3375
2149.74466	8381.9375
2152.7054	8374.2375
2155.66425	8400.0375
2158.6212	8386.7375
2161.57625	8368.5375
2164.52941	8380.2375
2167.48067	8355.5375
2170.43004	8364.8375
2173.37752	8352.7375
2176.32311	8384.8375
2179.26681	8379.9375
2182.20863	8362.3375
2185.14856	8341.6375
2188.08661	8360.2375
2191.02278	8375.5375
2193.95707	8341.7375
2196.88948	8338.7375
2199.82001	8340.7375
2202.74867	8335.2375
2205.67545	8300.8375
2208.60037	8304.6375
2211.52341	8312.0375
2214.44458	8265.7375
2217.36388	8263.4375
2220.28132	8241.7375
2223.1969	8224.6375
2226.11061	8215.4375
2229.02246	8216.6375
2231.93245	8203.0375
2234.84058	8198.1375
2237.74686	8186.2375
2240.65128	8158.9375
2243.55385	8148.8375
2246.45456	8130.4375
2249.35343	8121.8375
2252.25044	8102.7375
2255.14561	8079.5375
2258.03893	8083.6375
2260.93041	8037.6375
2263.82004	8018.3375
2266.70783	8013.3375
2269.59378	8002.3375
2272.4779	7973.5375
2275.36017	7954.4375
2278.24061	7965.5375
2281.11922	7953.1375
2283.996	7930.4375
2286.87094	7913.0375
2289.74405	7899.8375
2292.61534	7884.6375
2295.4848	7884.8375
2298.35243	7872.1375
2301.21824	7877.9375
2304.08223	7877.9375
2306.94439	7864.4375
2309.80474	7864.1375
2312.66327	7836.8375
2315.51999	7828.9375
2318.37489	7845.7375
2321.22797	7805.8375
2324.07925	7809.4375
2326.92871	7784.4375
2329.77637	7782.0375
2332.62222	7769.0375
2335.46626	7751.2375
2338.3085	7762.8375
2341.14893	7737.6375
2343.98756	7742.5375
2346.8244	7733.1375
2349.65943	7716.3375
2352.49267	7711.6375
2355.32411	7721.9375
2358.15376	7718.2375
2360.98161	7713.9375
2363.80768	7709.9375
2366.63195	7703.1375
2369.45444	7680.4375
2372.27514	7674.0375
2375.09405	7663.8375
2377.91118	7668.0375
2380.72652	7652.3375
2383.54009	7625.7375
2386.35187	7609.7375
2389.16188	7581.6375
2391.97011	7578.7375
2394.77657	7548.7375
2397.58125	7542.6375
2400.38416	7533.2375
2403.18529	7530.9375
2405.98466	7543.1375
2408.78226	7523.4375
2411.57809	7506.8375
2414.37216	7489.3375
2417.16446	7493.3375
2419.955	7456.1375
2422.74378	7480.8375
2425.5308	7482.6375
2428.31606	7465.8375
2431.09956	7464.8375
2433.88131	7448.8375
2436.6613	7434.3375
2439.43954	7438.5375
2442.21603	7442.1375
2444.99077	7434.6375
2447.76377	7425.2375
2450.53501	7444.6375
2453.30451	7422.4375
2456.07226	7379.2375
2458.83827	7405.8375
2461.60254	7392.0375
2464.36507	7389.8375
2467.12586	7376.4375
2469.88492	7369.3375
2472.64224	7364.2375
2475.39782	7381.2375
2478.15167	7356.6375
2480.90379	7336.6375
2483.65417	7364.9375
2486.40283	7388.4375
2489.14976	7377.2375
2491.89497	7361.2375
2494.63845	7376.4375
2497.3802	7328.8375
2500.12024	7331.1375
2502.85855	7331.5375
2505.59514	7326.3375
2508.33002	7306.6375
2511.06318	7312.0375
2513.79462	7316.7375
2516.52435	7317.8375
2519.25237	7302.1375
2521.97867	7294.1375
2524.70327	7302.6375
2527.42616	7283.8375
2530.14734	7240.6375
2532.86681	7281.3375
2535.58458	7257.9375
2538.30065	7238.1375
2541.01501	7246.7375
2543.72768	7220.8375
2546.43864	7206.5375
2549.14791	7192.4375
2551.85548	7196.6375
2554.56136	7179.7375
2557.26554	7173.9375
2559.96803	7170.4375
2562.66883	7163.3375
2565.36794	7144.7375
2568.06536	7158.0375
2570.7611	7133.1375
2573.45514	7119.3375
2576.14751	7113.9375
2578.83819	7093.6375
2581.52719	7099.0375
2584.21451	7074.4375
2586.90015	7069.3375
2589.58411	7071.1375
2592.2664	7083.4375
2594.94701	7049.7375
2597.62594	7048.7375
2600.30321	7030.3375
2602.9788	7023.1375
2605.65273	7016.0375
2608.32498	7017.2375
2610.99557	7025.8375
2613.66449	7016.6375
2616.33175	7008.2375
2618.99734	7013.3375
2621.66128	7017.0375
2624.32355	7001.2375
2626.98416	6998.9375
2629.64311	6974.3375
2632.30041	6974.8375
2634.95605	6964.3375
2637.61004	6958.4375
2640.26238	6941.7375
2642.91306	6947.4375
2645.56209	6934.7375
2648.20948	6920.3375
2650.85521	6937.5375
2653.4993	6912.6375
2656.14175	6939.4375
2658.78255	6951.5375
2661.42171	6954.0375
2664.05923	6945.8375
2666.6951	6970.6375
2669.32934	6948.1375
2671.96194	6944.5375
2674.59291	6961.3375
2677.22224	6930.4375
2679.84993	6926.9375
2682.476	6914.9375
2685.10043	6951.0375
2687.72324	6920.6375
2690.34441	6914.0375
2692.96396	6904.6375
2695.58188	6920.9375
2698.19818	6921.1375
2700.81285	6931.5375
2703.4259	6900.2375
2706.03733	6927.1375
2708.64714	6901.6375
2711.25533	6923.2375
2713.86191	6914.1375
2716.46687	6915.0375
2719.07021	6948.7375
2721.67194	6929.0375
2724.27206	6954.6375
2726.87057	6935.3375
2729.46747	6954.3375
2732.06276	6948.9375
2734.65644	6939.9375
2737.24852	6925.7375
2739.83899	6920.8375
2742.42786	6933.9375
2745.01513	6923.7375
2747.60079	6915.8375
2750.18486	6922.1375
2752.76733	6908.2375
2755.3482	6925.8375
2757.92747	6891.1375
2760.50515	6871.5375
2763.08123	6880.2375
2765.65573	6888.1375
2768.22863	6881.8375
2770.79994	6858.2375
2773.36967	6865.5375
2775.9378	6851.6375
2778.50435	6865.1375
2781.06932	6841.8375
2783.6327	6830.6375
2786.1945	6837.4375
2788.75471	6820.9375
2791.31335	6816.7375
2793.87041	6803.1375
2796.42589	6802.5375
2798.97979	6786.6375
2801.53212	6783.3375
2804.08288	6770.5375
2806.63206	6737.3375
2809.17967	6735.8375
2811.72571	6716.0375
2814.27018	6697.8375
2816.81308	6687.0375
2819.35442	6694.2375
2821.89419	6677.6375
2824.43239	6676.2375
2826.96904	6654.1375
2829.50412	6665.6375
2832.03763	6640.6375
2834.56959	6646.2375
2837.1	6645.0375
2839.62884	6639.3375
2842.15613	6637.0375
2844.68186	6649.6375
2847.20604	6657.1375
2849.72867	6655.3375
2852.24974	6649.1375
2854.76927	6649.9375
2857.28724	6634.1375
2859.80367	6634.8375
2862.31855	6631.9375
2864.83189	6623.5375
2867.34368	6608.0375
2869.85393	6604.4375
2872.36264	6594.0375
2874.8698	6580.5375
2877.37543	6570.9375
2879.87952	6577.0375
2882.38207	6571.2375
2884.88308	6562.5375
2887.38256	6569.6375
2889.88051	6548.4375
2892.37692	6565.4375
2894.8718	6562.2375
2897.36515	6549.4375
2899.85698	6560.4375
2902.34727	6569.2375
2904.83604	6569.0375
2907.32328	6579.0375
2909.809	6567.7375
2912.29319	6569.9375
2914.77587	6588.7375
2917.25702	6574.3375
2919.73665	6570.8375
2922.21476	6569.6375
2924.69136	6576.8375
2927.16644	6579.9375
2929.64	6566.8375
2932.11205	6563.8375
2934.58258	6544.7375
2937.05161	6562.2375
2939.51912	6550.9375
2941.98513	6534.9375
2944.44962	6521.4375
2946.91261	6488.4375
2949.37409	6516.5375
2951.83407	6503.7375
2954.29254	6489.8375
2956.74951	6483.6375
2959.20498	6500.0375
2961.65895	6483.2375
2964.11142	6489.4375
2966.56239	6457.3375
2969.01186	6452.6375
2971.45984	6450.4375
2973.90632	6459.8375
2976.35131	6417.7375
2978.7948	6424.3375
2981.23681	6422.8375
2983.67732	6406.7375
2986.11635	6390.9375
2988.55388	6365.6375
2990.98993	6349.3375
2993.4245	6336.6375
2995.85758	6349.4375
2998.28917	6332.0375
3000.71928	6332.8375
3003.14791	6292.5375
3005.57506	6289.5375
3008.00073	6283.2375
3010.42493	6271.3375
3012.84764	6269.7375
3015.26888	6254.5375
3017.68865	6241.2375
3020.10694	6247.5375
3022.52376	6216.7375
3024.9391	6199.6375
3027.35298	6191.2375
3029.76539	6194.8375
3032.17632	6195.6375
3034.5858	6169.5375
3036.9938	6185.7375
3039.40034	6178.9375
3041.80542	6183.8375
3044.20903	6157.8375
3046.61118	6165.3375
3049.01187	6141.0375
3051.4111	6141.5375
3053.80888	6142.7375
3056.20519	6123.6375
3058.60005	6127.5375
3060.99345	6105.0375
3063.3854	6054.9375
3065.7759	6071.4375
3068.16494	6055.2375
3070.55254	6044.2375
3072.93868	6038.5375
3075.32338	6033.6375
3077.70662	6030.9375
3080.08842	5991.0375
3082.46878	6004.2375
3084.84769	5998.7375
3087.22515	5987.9375
3089.60118	5993.4375
3091.97576	5965.2375
3094.3489	5983.9375
3096.72061	5992.4375
3099.09087	6002.5375
3101.4597	5987.2375
3103.82709	5985.5375
3106.19305	5975.3375
3108.55757	5982.1375
3110.92066	5955.5375
3113.28232	5972.4375
3115.64255	5933.8375
3118.00134	5937.4375
3120.35871	5926.4375
3122.71466	5915.7375
3125.06917	5902.0375
3127.42226	5887.8375
3129.77393	5890.0375
3132.12417	5887.8375
3134.47299	5897.4375
3136.82039	5886.4375
3139.16636	5869.2375
3141.51092	5886.5375
3143.85406	5902.8375
3146.19579	5895.3375
3148.53609	5900.4375
3150.87499	5909.6375
3153.21246	5901.7375
3155.54853	5917.7375
3157.88318	5917.2375
3160.21642	5909.7375
3162.54826	5924.7375
3164.87868	5912.0375
3167.2077	5918.5375
3169.5353	5921.2375
3171.86151	5927.8375
3174.18631	5923.9375
3176.5097	5922.1375
3178.83169	5927.7375
3181.15228	5933.6375
3183.47147	5908.5375
3185.78926	5887.2375
3188.10565	5882.2375
3190.42065	5878.5375
3192.73424	5880.5375
3195.04645	5903.2375
3197.35725	5894.6375
3199.66667	5874.2375
3201.97469	5872.0375
3204.28132	5876.6375
3206.58656	5898.6375
3208.8904	5905.3375
3211.19287	5894.6375
3213.49394	5900.4375
3215.79363	5908.2375
3218.09193	5909.6375
3220.38884	5897.6375
3222.68438	5895.2375
3224.97853	5888.9375
3227.2713	5901.3375
3229.56269	5895.1375
3231.8527	5894.7375
3234.14133	5864.9375
3236.42858	5861.1375
3238.71446	5852.0375
3240.99896	5847.7375
3243.28209	5832.0375
3245.56384	5842.1375
3247.84423	5825.3375
3250.12324	5832.0375
3252.40088	5816.1375
3254.67715	5826.4375
3256.95205	5815.1375
3259.22558	5814.5375
3261.49775	5803.2375
3263.76855	5787.6375
3266.03799	5762.7375
3268.30606	5769.8375
3270.57277	5748.6375
3272.83812	5734.8375
3275.10211	5742.3375
3277.36474	5699.4375
3279.62601	5718.2375
3281.88593	5708.5375
3284.14448	5714.9375
3286.40168	5726.3375
3288.65753	5716.3375
3290.91202	5735.4375
3293.16516	5691.1375
3295.41695	5681.4375
3297.66738	5634.8375
3299.91647	5633.9375
3302.16421	5590.0375
3304.4106	5571.9375
3306.65564	5547.0375
3308.89933	5510.2375
3311.14169	5472.6375
3313.38269	5424.7375
3315.62236	5389.3375
3317.86068	5339.4375
3320.09766	5302.0375
3322.3333	5272.6375
3324.5676	5237.8375
3326.80056	5167.0375
3329.03219	5124.8375
3331.26248	2.4375
3333.49143	-0.0625
3335.71905	-1.6625
