Data from AgNPs_FTO_APTES_UA_1uM_CRN_100uM_R6G_10uM_NaF_0.1M_Addition_RamanShift__15__16-38-09-782.txt Node

Date: Thu Jan 27 16:38:09 GMT 2022
User: TCL
Spectrometer: QEP01345
Trigger mode: 4
Integration Time (sec): 7.000000E0
Scans to average: 10
Electric dark correction enabled: true
Nonlinearity correction enabled: false
Boxcar width: 0
XAxis mode: Raman Shifts
Number of Pixels in Spectrum: 1044
>>>>>Begin Spectral Data<<<<<
46.04893	2.0875
50.45542	-0.8125
54.85868	-1.3125
59.25871	-1.1125
63.6555	43.5875
68.04907	43.5875
72.43941	47.3875
76.82654	51.0875
81.21044	51.5875
85.59113	52.0875
89.96862	54.6875
94.34289	57.9875
98.71396	58.4875
103.08183	60.2875
107.4465	63.0875
111.80798	63.7875
116.16626	66.1875
120.52136	71.0875
124.87327	71.8875
129.222	72.4875
133.56755	75.9875
137.90993	77.1875
142.24913	84.5875
146.58517	93.2875
150.91804	106.6875
155.24774	126.0875
159.57429	148.7875
163.89768	185.0875
168.21792	245.4875
172.53501	334.3875
176.84895	452.0875
181.15975	638.4875
185.46741	896.1875
189.77193	1234.5875
194.07331	1653.2875
198.37157	2148.0875
202.6667	2654.5875
206.9587	3171.5875
211.24758	3656.4875
215.53334	4145.9875
219.81599	4664.0875
224.09553	5225.7875
228.37195	5839.6875
232.64527	6508.1875
236.91549	7238.2875
241.18261	7977.3875
245.44663	8680.6875
249.70755	9306.1875
253.96539	9905.0875
258.22014	10373.6875
262.4718	10764.9875
266.72039	11042.8875
270.96589	11207.6875
275.20832	11249.7875
279.44768	11222.0875
283.68397	11141.6875
287.91719	11054.6875
292.14735	11011.0875
296.37445	10976.4875
300.59849	11010.6875
304.81948	11053.6875
309.03742	10971.5875
313.25231	10874.5875
317.46415	10641.1875
321.67296	10379.7875
325.87872	10153.0875
330.08145	10053.1875
334.28114	10084.5875
338.47781	10127.3875
342.67145	10220.8875
346.86207	10387.2875
351.04966	10555.1875
355.23424	10714.0875
359.4158	10860.8875
363.59435	10972.8875
367.76989	11078.9875
371.94243	11161.5875
376.11196	11214.0875
380.27849	11270.2875
384.44203	11299.7875
388.60257	11361.9875
392.76012	11471.2875
396.91468	11576.5875
401.06626	11730.3875
405.21485	11860.0875
409.36047	11839.9875
413.50311	11721.9875
417.64277	11590.2875
421.77947	11547.2875
425.9132	11548.5875
430.04396	11613.0875
434.17176	11649.1875
438.2966	11728.6875
442.41849	11834.6875
446.53742	12016.0875
450.6534	12237.6875
454.76644	12403.8875
458.87653	12497.8875
462.98368	12529.2875
467.08789	12526.1875
471.18916	12457.9875
475.2875	12405.0875
479.38291	12374.9875
483.4754	12305.1875
487.56496	12222.0875
491.6516	12099.2875
495.73531	11972.8875
499.81612	11924.2875
503.89401	11984.9875
507.96899	12013.2875
512.04106	12049.8875
516.11023	12010.9875
520.1765	11985.9875
524.23987	11889.9875
528.30034	11770.8875
532.35792	11669.8875
536.41261	11606.7875
540.46441	11540.8875
544.51333	11562.6875
548.55936	11669.9875
552.60252	11843.1875
556.64279	12049.8875
560.6802	12155.6875
564.71473	12240.9875
568.7464	12348.3875
572.7752	12543.5875
576.80114	12741.2875
580.82422	12892.5875
584.84444	13047.0875
588.86181	13080.1875
592.87633	13037.7875
596.888	12936.5875
600.89682	12952.3875
604.9028	13217.7875
608.90594	13924.8875
612.90624	14772.4875
616.90371	14235.4875
620.89834	12626.3875
624.89015	11879.3875
628.87913	11790.1875
632.86528	11843.6875
636.84862	11914.7875
640.82913	11840.6875
644.80683	11658.0875
648.78172	11536.5875
652.75379	11488.2875
656.72306	11529.8875
660.68952	11678.1875
664.65319	11633.5875
668.61405	11558.5875
672.57211	11537.4875
676.52738	11552.0875
680.47986	11617.3875
684.42955	11556.9875
688.37646	11548.5875
692.32058	11507.2875
696.26192	11579.2875
700.20048	11660.8875
704.13626	11691.3875
708.06928	11711.8875
711.99952	11698.2875
715.927	11682.0875
719.85171	11679.9875
723.77365	11661.3875
727.69284	11559.0875
731.60928	11513.9875
735.52295	11428.5875
739.43388	11438.2875
743.34206	11440.1875
747.24749	11450.2875
751.15017	11540.4875
755.05012	11646.9875
758.94733	11883.0875
762.8418	12295.4875
766.73354	12881.5875
770.62254	13540.8875
774.50882	13753.0875
778.39237	13342.6875
782.27321	12664.5875
786.15132	12076.2875
790.02671	11692.4875
793.89938	11512.7875
797.76935	11430.4875
801.6366	11397.1875
805.50115	11325.9875
809.36299	11294.7875
813.22213	11249.2875
817.07857	11241.4875
820.93231	11239.9875
824.78336	11240.0875
828.63172	11193.3875
832.47738	11197.2875
836.32036	11168.8875
840.16066	11182.8875
843.99827	11189.4875
847.8332	11178.0875
851.66546	11174.8875
855.49504	11154.1875
859.32195	11162.3875
863.1462	11166.2875
866.96777	11144.3875
870.78668	11127.2875
874.60293	11129.3875
878.41652	11109.3875
882.22745	11114.5875
886.03573	11174.9875
889.84136	11180.2875
893.64433	11136.2875
897.44466	11122.9875
901.24235	11104.8875
905.0374	11070.5875
908.8298	11045.9875
912.61957	11055.9875
916.40671	11120.3875
920.19121	11200.4875
923.97308	11266.5875
927.75233	11224.2875
931.52895	11177.8875
935.30295	11079.7875
939.07433	10972.6875
942.84309	10875.7875
946.60924	10791.9875
950.37278	10769.2875
954.13371	10728.7875
957.89203	10705.9875
961.64774	10729.7875
965.40086	10669.9875
969.15137	10655.6875
972.89929	10619.7875
976.64461	10579.8875
980.38733	10587.4875
984.12747	10575.8875
987.86502	10636.5875
991.59999	10693.8875
995.33237	10764.8875
999.06217	10867.0875
1002.78939	11012.8875
1006.51404	11041.8875
1010.23611	11120.9875
1013.95561	11173.4875
1017.67255	11202.6875
1021.38692	11194.6875
1025.09872	11101.2875
1028.80796	11087.0875
1032.51465	11138.1875
1036.21877	11236.7875
1039.92035	11282.9875
1043.61937	11270.3875
1047.31584	11227.2875
1051.00976	11205.4875
1054.70114	11189.6875
1058.38998	11236.0875
1062.07627	11312.0875
1065.76003	11417.9875
1069.44126	11518.9875
1073.11995	11615.1875
1076.79611	11722.3875
1080.46974	11737.1875
1084.14085	11744.9875
1087.80943	11781.4875
1091.47549	11833.0875
1095.13903	11875.7875
1098.80005	11822.9875
1102.45857	11662.4875
1106.11456	11510.4875
1109.76805	11385.7875
1113.41903	11397.6875
1117.06751	11431.4875
1120.71348	11502.3875
1124.35696	11568.4875
1127.99793	11681.5875
1131.63641	11751.7875
1135.2724	11694.1875
1138.90589	11610.5875
1142.5369	11591.2875
1146.16542	11583.9875
1149.79145	11591.6875
1153.415	11655.2875
1157.03607	11777.2875
1160.65467	11910.7875
1164.27079	12190.4875
1167.88443	12591.7875
1171.49561	13055.3875
1175.10432	13647.3875
1178.71056	14362.8875
1182.31434	15094.3875
1185.91565	15548.1875
1189.51451	15657.6875
1193.11091	15510.4875
1196.70485	15136.4875
1200.29634	14716.7875
1203.88538	14327.9875
1207.47197	14049.2875
1211.05612	13787.4875
1214.63782	13530.9875
1218.21708	13297.3875
1221.79391	13046.9875
1225.36829	12879.6875
1228.94024	12714.5875
1232.50976	12606.0875
1236.07685	12518.5875
1239.6415	12516.4875
1243.20374	12523.2875
1246.76355	12564.0875
1250.32093	12696.6875
1253.8759	12848.9875
1257.42845	13065.8875
1260.97859	13294.8875
1264.52631	13500.3875
1268.07163	13736.6875
1271.61453	13948.2875
1275.15503	14199.0875
1278.69312	14487.3875
1282.22882	14685.6875
1285.76211	14882.6875
1289.29301	15221.6875
1292.82151	15634.9875
1296.34761	16148.4875
1299.87133	16739.6875
1303.39266	17427.7875
1306.9116	18171.4875
1310.42815	18727.5875
1313.94233	19005.3875
1317.45412	18988.0875
1320.96354	18795.1875
1324.47058	18625.4875
1327.97525	18477.7875
1331.47754	18401.4875
1334.97747	18409.0875
1338.47502	18461.5875
1341.97022	18570.3875
1345.46305	18728.3875
1348.95352	18691.0875
1352.44163	18644.8875
1355.92738	18635.4875
1359.41078	18867.0875
1362.89183	19153.3875
1366.37053	18883.1875
1369.84688	17791.6875
1373.32088	16384.4875
1376.79254	15401.3875
1380.26186	14905.7875
1383.72883	14786.7875
1387.19347	14784.5875
1390.65578	14703.0875
1394.11575	14600.9875
1397.57339	14615.8875
1401.0287	14662.6875
1404.48168	14705.2875
1407.93234	14652.4875
1411.38068	14473.5875
1414.82669	14153.6875
1418.27039	13736.1875
1421.71177	13352.9875
1425.15083	13039.0875
1428.58758	12814.8875
1432.02203	12781.2875
1435.45416	12936.3875
1438.88399	13137.3875
1442.31151	13299.6875
1445.73673	13457.4875
1449.15965	13596.2875
1452.58027	13735.8875
1455.9986	13847.9875
1459.41463	13926.9875
1462.82837	14070.4875
1466.23982	14189.7875
1469.64898	14374.9875
1473.05586	14441.4875
1476.46045	14478.1875
1479.86276	14429.4875
1483.26279	14388.4875
1486.66054	14356.3875
1490.05602	14421.5875
1493.44922	14590.9875
1496.84016	14855.4875
1500.22882	15267.3875
1503.61521	15823.3875
1506.99934	16476.8875
1510.38121	17001.4875
1513.76081	17187.7875
1517.13816	16885.8875
1520.51324	16310.8875
1523.88607	15792.3875
1527.25665	15459.9875
1530.62498	15301.0875
1533.99105	15172.6875
1537.35488	15004.5875
1540.71647	14816.5875
1544.07581	14572.1875
1547.4329	14311.7875
1550.78776	14083.7875
1554.14038	13924.9875
1557.49077	13900.5875
1560.83892	13910.6875
1564.18484	13924.6875
1567.52853	13965.1875
1570.86999	14114.1875
1574.20922	14297.3875
1577.54624	14439.5875
1580.88103	14392.5875
1584.2136	14318.3875
1587.54395	14351.7875
1590.87208	14611.4875
1594.19801	14981.6875
1597.52172	15443.2875
1600.84321	15604.1875
1604.16251	15224.9875
1607.47959	14574.2875
1610.79447	13874.2875
1614.10715	13178.7875
1617.41763	12538.8875
1620.7259	12012.2875
1624.03199	11687.6875
1627.33587	11584.2875
1630.63757	11668.3875
1633.93707	11981.5875
1637.23439	12594.5875
1640.52951	13459.9875
1643.82246	14564.4875
1647.11321	15559.6875
1650.40179	16071.9875
1653.68819	15639.1875
1656.97241	14508.9875
1660.25446	13149.0875
1663.53433	11989.0875
1666.81203	11176.0875
1670.08756	10643.5875
1673.36092	10289.7875
1676.63211	10055.1875
1679.90115	9883.8875
1683.16801	9763.0875
1686.43272	9654.6875
1689.69527	9587.7875
1692.95567	9518.9875
1696.2139	9445.8875
1699.46999	9382.0875
1702.72392	9343.5875
1705.97571	9359.8875
1709.22535	9356.4875
1712.47284	9356.1875
1715.71819	9379.5875
1718.96139	9378.0875
1722.20246	9360.3875
1725.44139	9342.4875
1728.67818	9296.7875
1731.91284	9251.0875
1735.14537	9206.9875
1738.37576	9170.8875
1741.60403	9147.2875
1744.83017	9118.2875
1748.05418	9094.3875
1751.27607	9073.5875
1754.49584	9037.2875
1757.71349	9038.5875
1760.92903	9020.3875
1764.14244	8994.5875
1767.35375	8998.2875
1770.56294	8946.7875
1773.77002	8958.0875
1776.97499	8915.9875
1780.17785	8936.4875
1783.37861	8961.9875
1786.57727	8948.2875
1789.77382	8934.3875
1792.96828	8905.4875
1796.16064	8879.6875
1799.3509	8861.0875
1802.53907	8833.3875
1805.72514	8821.5875
1808.90913	8824.3875
1812.09102	8788.6875
1815.27083	8778.1875
1818.44856	8746.2875
1821.6242	8724.5875
1824.79776	8701.2875
1827.96924	8716.5875
1831.13864	8716.0875
1834.30597	8704.4875
1837.47122	8711.6875
1840.6344	8683.3875
1843.7955	8667.9875
1846.95454	8691.6875
1850.11151	8676.4875
1853.26642	8676.0875
1856.41926	8676.0875
1859.57004	8664.9875
1862.71876	8653.1875
1865.86542	8645.1875
1869.01003	8637.0875
1872.15258	8600.4875
1875.29308	8617.0875
1878.43152	8602.5875
1881.56792	8582.6875
1884.70227	8569.8875
1887.83457	8580.5875
1890.96482	8534.2875
1894.09304	8538.3875
1897.21921	8510.5875
1900.34335	8511.3875
1903.46544	8487.7875
1906.58551	8481.6875
1909.70353	8479.5875
1912.81953	8447.2875
1915.93349	8444.4875
1919.04543	8434.9875
1922.15534	8426.5875
1925.26322	8409.6875
1928.36908	8383.3875
1931.47292	8369.7875
1934.57473	8322.1875
1937.67453	8336.4875
1940.77232	8293.4875
1943.86808	8275.3875
1946.96184	8269.1875
1950.05358	8229.4875
1953.14331	8194.1875
1956.23103	8177.7875
1959.31675	8172.5875
1962.40046	8128.4875
1965.48217	8120.8875
1968.56188	8080.8875
1971.63959	8068.8875
1974.7153	8059.7875
1977.78901	8016.2875
1980.86073	8005.3875
1983.93046	7975.5875
1986.99819	7972.2875
1990.06394	7913.5875
1993.1277	7878.2875
1996.18947	7871.6875
1999.24925	7862.2875
2002.30706	7839.5875
2005.36288	7806.3875
2008.41672	7780.5875
2011.46859	7777.2875
2014.51848	7756.2875
2017.56639	7727.5875
2020.61233	7713.7875
2023.6563	7703.5875
2026.6983	7672.6875
2029.73833	7670.2875
2032.7764	7629.2875
2035.8125	7596.5875
2038.84664	7580.2875
2041.87881	7564.6875
2044.90903	7573.7875
2047.93729	7550.2875
2050.96359	7553.0875
2053.98794	7521.8875
2057.01034	7512.0875
2060.03078	7509.7875
2063.04927	7491.7875
2066.06582	7498.2875
2069.08042	7496.7875
2072.09307	7472.3875
2075.10378	7481.4875
2078.11255	7476.9875
2081.11938	7487.0875
2084.12426	7477.5875
2087.12722	7464.4875
2090.12824	7475.2875
2093.12732	7477.4875
2096.12447	7468.0875
2099.11969	7445.5875
2102.11299	7460.8875
2105.10435	7450.5875
2108.09379	7440.8875
2111.08131	7471.1875
2114.0669	7459.9875
2117.05057	7490.4875
2120.03233	7470.4875
2123.01216	7490.5875
2125.99008	7501.7875
2128.96609	7501.7875
2131.94018	7501.6875
2134.91236	7499.0875
2137.88263	7526.6875
2140.851	7502.4875
2143.81746	7508.3875
2146.78201	7516.6875
2149.74466	7509.1875
2152.7054	7509.4875
2155.66425	7490.7875
2158.6212	7500.9875
2161.57625	7482.4875
2164.52941	7497.8875
2167.48067	7487.4875
2170.43004	7488.2875
2173.37752	7507.5875
2176.32311	7492.0875
2179.26681	7510.0875
2182.20863	7466.6875
2185.14856	7473.4875
2188.08661	7471.2875
2191.02278	7497.5875
2193.95707	7481.3875
2196.88948	7475.7875
2199.82001	7465.1875
2202.74867	7454.8875
2205.67545	7438.9875
2208.60037	7422.1875
2211.52341	7399.3875
2214.44458	7382.6875
2217.36388	7379.9875
2220.28132	7383.0875
2223.1969	7364.6875
2226.11061	7356.4875
2229.02246	7354.3875
2231.93245	7305.6875
2234.84058	7305.5875
2237.74686	7298.8875
2240.65128	7298.0875
2243.55385	7260.3875
2246.45456	7260.8875
2249.35343	7256.5875
2252.25044	7245.4875
2255.14561	7214.7875
2258.03893	7215.6875
2260.93041	7184.4875
2263.82004	7191.4875
2266.70783	7178.6875
2269.59378	7151.4875
2272.4779	7125.9875
2275.36017	7126.7875
2278.24061	7112.2875
2281.11922	7097.6875
2283.996	7092.1875
2286.87094	7075.2875
2289.74405	7055.3875
2292.61534	7048.1875
2295.4848	7039.4875
2298.35243	7040.0875
2301.21824	7031.1875
2304.08223	7051.8875
2306.94439	7024.4875
2309.80474	7031.4875
2312.66327	7011.1875
2315.51999	7001.9875
2318.37489	7016.6875
2321.22797	6975.6875
2324.07925	6998.9875
2326.92871	6965.6875
2329.77637	6966.2875
2332.62222	6917.2875
2335.46626	6936.9875
2338.3085	6907.9875
2341.14893	6928.4875
2343.98756	6906.3875
2346.8244	6897.1875
2349.65943	6912.1875
2352.49267	6896.6875
2355.32411	6885.8875
2358.15376	6894.0875
2360.98161	6871.5875
2363.80768	6875.1875
2366.63195	6882.9875
2369.45444	6869.1875
2372.27514	6868.5875
2375.09405	6845.4875
2377.91118	6836.1875
2380.72652	6838.3875
2383.54009	6800.0875
2386.35187	6805.7875
2389.16188	6772.3875
2391.97011	6747.8875
2394.77657	6744.6875
2397.58125	6729.7875
2400.38416	6731.8875
2403.18529	6732.7875
2405.98466	6699.7875
2408.78226	6688.5875
2411.57809	6678.9875
2414.37216	6676.7875
2417.16446	6678.6875
2419.955	6661.5875
2422.74378	6658.4875
2425.5308	6652.0875
2428.31606	6658.6875
2431.09956	6638.5875
2433.88131	6628.2875
2436.6613	6629.8875
2439.43954	6629.6875
2442.21603	6609.8875
2444.99077	6608.4875
2447.76377	6609.8875
2450.53501	6606.5875
2453.30451	6603.4875
2456.07226	6610.1875
2458.83827	6584.7875
2461.60254	6582.6875
2464.36507	6572.0875
2467.12586	6563.6875
2469.88492	6537.9875
2472.64224	6550.1875
2475.39782	6514.8875
2478.15167	6533.6875
2480.90379	6531.9875
2483.65417	6523.6875
2486.40283	6547.8875
2489.14976	6549.8875
2491.89497	6527.8875
2494.63845	6524.3875
2497.3802	6497.9875
2500.12024	6524.2875
2502.85855	6506.3875
2505.59514	6497.4875
2508.33002	6512.9875
2511.06318	6484.3875
2513.79462	6485.1875
2516.52435	6466.9875
2519.25237	6487.7875
2521.97867	6464.1875
2524.70327	6460.8875
2527.42616	6432.5875
2530.14734	6440.3875
2532.86681	6415.3875
2535.58458	6418.1875
2538.30065	6395.2875
2541.01501	6419.6875
2543.72768	6399.9875
2546.43864	6373.7875
2549.14791	6367.6875
2551.85548	6351.7875
2554.56136	6346.2875
2557.26554	6347.5875
2559.96803	6336.5875
2562.66883	6322.5875
2565.36794	6333.7875
2568.06536	6302.8875
2570.7611	6298.6875
2573.45514	6276.2875
2576.14751	6268.5875
2578.83819	6253.7875
2581.52719	6261.1875
2584.21451	6239.4875
2586.90015	6251.5875
2589.58411	6224.4875
2592.2664	6224.0875
2594.94701	6201.5875
2597.62594	6200.9875
2600.30321	6177.2875
2602.9788	6181.9875
2605.65273	6181.5875
2608.32498	6172.3875
2610.99557	6154.4875
2613.66449	6148.2875
2616.33175	6155.5875
2618.99734	6144.0875
2621.66128	6146.4875
2624.32355	6135.5875
2626.98416	6126.6875
2629.64311	6113.8875
2632.30041	6113.3875
2634.95605	6113.1875
2637.61004	6094.7875
2640.26238	6082.3875
2642.91306	6066.8875
2645.56209	6076.7875
2648.20948	6058.3875
2650.85521	6066.1875
2653.4993	6056.3875
2656.14175	6058.1875
2658.78255	6079.0875
2661.42171	6066.1875
2664.05923	6083.2875
2666.6951	6077.1875
2669.32934	6074.8875
2671.96194	6044.0875
2674.59291	6091.2875
2677.22224	6061.3875
2679.84993	6054.5875
2682.476	6044.5875
2685.10043	6041.2875
2687.72324	6038.2875
2690.34441	6026.5875
2692.96396	6036.2875
2695.58188	6055.2875
2698.19818	6040.7875
2700.81285	6021.3875
2703.4259	6019.4875
2706.03733	6024.3875
2708.64714	6016.4875
2711.25533	6036.9875
2713.86191	6018.9875
2716.46687	6042.4875
2719.07021	6046.0875
2721.67194	6057.4875
2724.27206	6050.8875
2726.87057	6049.9875
2729.46747	6053.4875
2732.06276	6058.4875
2734.65644	6052.9875
2737.24852	6041.5875
2739.83899	6033.5875
2742.42786	6027.8875
2745.01513	5998.8875
2747.60079	6019.4875
2750.18486	6012.1875
2752.76733	6013.3875
2755.3482	5986.8875
2757.92747	5979.7875
2760.50515	5961.1875
2763.08123	5976.0875
2765.65573	5964.8875
2768.22863	5966.5875
2770.79994	5966.8875
2773.36967	5943.7875
2775.9378	5950.0875
2778.50435	5959.6875
2781.06932	5923.1875
2783.6327	5930.7875
2786.1945	5913.8875
2788.75471	5922.3875
2791.31335	5892.6875
2793.87041	5881.4875
2796.42589	5867.0875
2798.97979	5861.8875
2801.53212	5874.8875
2804.08288	5860.9875
2806.63206	5817.8875
2809.17967	5842.3875
2811.72571	5813.8875
2814.27018	5796.3875
2816.81308	5788.7875
2819.35442	5789.6875
2821.89419	5774.6875
2824.43239	5785.5875
2826.96904	5762.1875
2829.50412	5783.7875
2832.03763	5747.1875
2834.56959	5755.3875
2837.1	5757.3875
2839.62884	5767.4875
2842.15613	5752.4875
2844.68186	5777.5875
2847.20604	5783.0875
2849.72867	5761.4875
2852.24974	5763.9875
2854.76927	5759.1875
2857.28724	5742.4875
2859.80367	5742.9875
2862.31855	5728.0875
2864.83189	5712.9875
2867.34368	5711.1875
2869.85393	5714.4875
2872.36264	5708.4875
2874.8698	5710.4875
2877.37543	5715.4875
2879.87952	5697.0875
2882.38207	5697.0875
2884.88308	5686.0875
2887.38256	5691.6875
2889.88051	5690.0875
2892.37692	5699.0875
2894.8718	5687.1875
2897.36515	5695.4875
2899.85698	5698.5875
2902.34727	5679.9875
2904.83604	5707.8875
2907.32328	5707.4875
2909.809	5716.4875
2912.29319	5721.2875
2914.77587	5705.2875
2917.25702	5716.7875
2919.73665	5716.6875
2922.21476	5705.3875
2924.69136	5693.2875
2927.16644	5696.7875
2929.64	5703.1875
2932.11205	5685.1875
2934.58258	5670.7875
2937.05161	5688.9875
2939.51912	5679.8875
2941.98513	5682.7875
2944.44962	5660.4875
2946.91261	5637.0875
2949.37409	5656.0875
2951.83407	5646.7875
2954.29254	5642.9875
2956.74951	5622.2875
2959.20498	5639.9875
2961.65895	5604.8875
2964.11142	5624.5875
2966.56239	5606.0875
2969.01186	5593.0875
2971.45984	5596.5875
2973.90632	5589.9875
2976.35131	5589.9875
2978.7948	5561.9875
2981.23681	5555.7875
2983.67732	5543.8875
2986.11635	5544.7875
2988.55388	5540.2875
2990.98993	5527.2875
2993.4245	5507.6875
2995.85758	5507.8875
2998.28917	5487.3875
3000.71928	5480.8875
3003.14791	5471.6875
3005.57506	5456.1875
3008.00073	5454.4875
3010.42493	5439.1875
3012.84764	5446.9875
3015.26888	5432.2875
3017.68865	5429.7875
3020.10694	5429.0875
3022.52376	5394.9875
3024.9391	5408.2875
3027.35298	5382.6875
3029.76539	5376.9875
3032.17632	5380.6875
3034.5858	5369.8875
3036.9938	5390.7875
3039.40034	5359.7875
3041.80542	5379.0875
3044.20903	5354.3875
3046.61118	5348.8875
3049.01187	5345.5875
3051.4111	5345.1875
3053.80888	5333.1875
3056.20519	5324.1875
3058.60005	5321.6875
3060.99345	5306.4875
3063.3854	5277.0875
3065.7759	5282.8875
3068.16494	5278.9875
3070.55254	5271.7875
3072.93868	5256.3875
3075.32338	5246.6875
3077.70662	5249.1875
3080.08842	5233.5875
3082.46878	5224.1875
3084.84769	5231.9875
3087.22515	5215.5875
3089.60118	5217.5875
3091.97576	5223.8875
3094.3489	5206.4875
3096.72061	5230.4875
3099.09087	5233.4875
3101.4597	5230.2875
3103.82709	5229.0875
3106.19305	5218.6875
3108.55757	5237.1875
3110.92066	5227.5875
3113.28232	5222.5875
3115.64255	5193.9875
3118.00134	5195.7875
3120.35871	5182.0875
3122.71466	5184.7875
3125.06917	5165.1875
3127.42226	5169.5875
3129.77393	5172.5875
3132.12417	5165.4875
3134.47299	5166.4875
3136.82039	5178.4875
3139.16636	5164.6875
3141.51092	5163.3875
3143.85406	5180.2875
3146.19579	5180.8875
3148.53609	5198.3875
3150.87499	5208.7875
3153.21246	5205.4875
3155.54853	5217.5875
3157.88318	5205.3875
3160.21642	5206.4875
3162.54826	5228.8875
3164.87868	5221.1875
3167.2077	5217.6875
3169.5353	5225.6875
3171.86151	5225.7875
3174.18631	5216.7875
3176.5097	5212.5875
3178.83169	5208.3875
3181.15228	5215.6875
3183.47147	5199.2875
3185.78926	5196.8875
3188.10565	5211.3875
3190.42065	5195.2875
3192.73424	5205.3875
3195.04645	5198.1875
3197.35725	5215.4875
3199.66667	5210.6875
3201.97469	5203.7875
3204.28132	5202.2875
3206.58656	5206.1875
3208.8904	5191.7875
3211.19287	5206.0875
3213.49394	5217.3875
3215.79363	5232.1875
3218.09193	5224.5875
3220.38884	5231.2875
3222.68438	5221.8875
3224.97853	5224.9875
3227.2713	5207.7875
3229.56269	5204.2875
3231.8527	5212.3875
3234.14133	5209.8875
3236.42858	5192.4875
3238.71446	5172.9875
3240.99896	5173.3875
3243.28209	5153.6875
3245.56384	5161.2875
3247.84423	5170.3875
3250.12324	5150.7875
3252.40088	5156.0875
3254.67715	5175.0875
3256.95205	5163.9875
3259.22558	5171.6875
3261.49775	5146.6875
3263.76855	5141.6875
3266.03799	5121.8875
3268.30606	5112.9875
3270.57277	5116.9875
3272.83812	5114.2875
3275.10211	5103.1875
3277.36474	5088.0875
3279.62601	5074.8875
3281.88593	5074.7875
3284.14448	5079.8875
3286.40168	5078.9875
3288.65753	5082.1875
3290.91202	5077.7875
3293.16516	5042.4875
3295.41695	5051.4875
3297.66738	5011.9875
3299.91647	4987.0875
3302.16421	4966.3875
3304.4106	4950.7875
3306.65564	4924.4875
3308.89933	4906.0875
3311.14169	4869.8875
3313.38269	4823.9875
3315.62236	4802.9875
3317.86068	4767.7875
3320.09766	4725.1875
3322.3333	4692.8875
3324.5676	4665.5875
3326.80056	4595.3875
3329.03219	4575.6875
3331.26248	2.0875
3333.49143	0.2875
3335.71905	-1.2125
