Data from AgNPs_FTO_APTES_UA_1uM_CRN_10uM_R6G_50uM_NaF_0.1M_Addition_RamanShift__9__15-51-29-729.txt Node

Date: Thu Jan 27 15:51:29 GMT 2022
User: TCL
Spectrometer: QEP01345
Trigger mode: 4
Integration Time (sec): 7.000000E0
Scans to average: 10
Electric dark correction enabled: true
Nonlinearity correction enabled: false
Boxcar width: 0
XAxis mode: Raman Shifts
Number of Pixels in Spectrum: 1044
>>>>>Begin Spectral Data<<<<<
46.04893	1.2
50.45542	0.6
54.85868	-1.8
59.25871	-1
63.6555	48
68.04907	50
72.43941	53.1
76.82654	52
81.21044	53.4
85.59113	59
89.96862	58.5
94.34289	62.8
98.71396	65.4
103.08183	61.3
107.4465	66.9
111.80798	68.1
116.16626	68
120.52136	75.7
124.87327	74.2
129.222	75.6
133.56755	77
137.90993	82.4
142.24913	89.5
146.58517	99.6
150.91804	114.4
155.24774	135.3
159.57429	163.1
163.89768	207.6
168.21792	269.2
172.53501	365.8
176.84895	502.6
181.15975	706.6
185.46741	988.9
189.77193	1363.3
194.07331	1822.6
198.37157	2344.6
202.6667	2912.6
206.9587	3469.4
211.24758	4006.8
215.53334	4536.8
219.81599	5108.8
224.09553	5714.5
228.37195	6373.5
232.64527	7135.2
236.91549	7908.2
241.18261	8713.2
245.44663	9467.8
249.70755	10182.2
253.96539	10796.2
258.22014	11342.2
262.4718	11769.4
266.72039	12058.4
270.96589	12215.5
275.20832	12242.1
279.44768	12233.3
283.68397	12113.4
287.91719	12039
292.14735	11962.5
296.37445	11953.9
300.59849	11944.3
304.81948	11982.6
309.03742	11919.3
313.25231	11879.6
317.46415	11676.6
321.67296	11472.2
325.87872	11259.6
330.08145	11167.7
334.28114	11157.3
338.47781	11232.8
342.67145	11331
346.86207	11475.8
351.04966	11642.9
355.23424	11796.5
359.4158	11951.3
363.59435	12099.3
367.76989	12172.5
371.94243	12249.2
376.11196	12307.4
380.27849	12354
384.44203	12407.1
388.60257	12477.6
392.76012	12606.5
396.91468	12770.4
401.06626	12925.1
405.21485	13031.1
409.36047	13013.1
413.50311	12887.8
417.64277	12828.9
421.77947	12885.5
425.9132	12944.4
430.04396	12987.2
434.17176	13059.5
438.2966	13137.5
442.41849	13238.3
446.53742	13449.6
450.6534	13695.4
454.76644	13891.7
458.87653	14017.3
462.98368	13997.2
467.08789	13926.5
471.18916	13846.3
475.2875	13767.7
479.38291	13667.1
483.4754	13595.6
487.56496	13496.2
491.6516	13317.2
495.73531	13196.5
499.81612	13111.2
503.89401	13161.7
507.96899	13227.2
512.04106	13230.8
516.11023	13201.3
520.1765	13072.7
524.23987	12949.3
528.30034	12844.2
532.35792	12735.7
536.41261	12672
540.46441	12580.4
544.51333	12560.8
548.55936	12691.8
552.60252	12857.1
556.64279	13124.2
560.6802	13248.9
564.71473	13361.7
568.7464	13500.7
572.7752	13803.2
576.80114	14164.2
580.82422	14501.7
584.84444	14863.5
588.86181	15215.8
592.87633	15499.5
596.888	15413.8
600.89682	14977.4
604.9028	14864
608.90594	15359.2
612.90624	15989.9
616.90371	15266.7
620.89834	13603
624.89015	12820.4
628.87913	12765
632.86528	12873.8
636.84862	12915.4
640.82913	12774.6
644.80683	12589.7
648.78172	12409.5
652.75379	12412.5
656.72306	12472
660.68952	12623.1
664.65319	12584.9
668.61405	12462
672.57211	12404.8
676.52738	12488.5
680.47986	12464.6
684.42955	12417.5
688.37646	12359.1
692.32058	12401
696.26192	12511.6
700.20048	12615.8
704.13626	12716.9
708.06928	12733.8
711.99952	12716.7
715.927	12706.9
719.85171	12670.2
723.77365	12633.3
727.69284	12526.6
731.60928	12383.5
735.52295	12325.4
739.43388	12310.5
743.34206	12350.9
747.24749	12378.9
751.15017	12501.7
755.05012	12646.6
758.94733	12904.1
762.8418	13342.4
766.73354	14003.6
770.62254	14584.7
774.50882	14649.5
778.39237	14199
782.27321	13503.6
786.15132	12934.1
790.02671	12550.3
793.89938	12407.8
797.76935	12312.3
801.6366	12279
805.50115	12208.4
809.36299	12184.6
813.22213	12126.4
817.07857	12073.8
820.93231	12080
824.78336	12048.6
828.63172	11979.4
832.47738	11969.8
836.32036	11954.3
840.16066	11925.4
843.99827	11947.4
847.8332	11928.1
851.66546	11928.6
855.49504	11938.5
859.32195	11941
863.1462	11931.7
866.96777	11905
870.78668	11923.7
874.60293	11912.6
878.41652	11896
882.22745	11931.5
886.03573	11949.1
889.84136	11964.9
893.64433	11929.4
897.44466	11895.4
901.24235	11872.4
905.0374	11850.1
908.8298	11817.8
912.61957	11833.3
916.40671	11882.2
920.19121	12015.6
923.97308	12092.8
927.75233	12093.8
931.52895	11978.9
935.30295	11848.9
939.07433	11710.1
942.84309	11583.6
946.60924	11515
950.37278	11466
954.13371	11494.9
957.89203	11458.9
961.64774	11459.2
965.40086	11414.7
969.15137	11442
972.89929	11391.6
976.64461	11313.1
980.38733	11294.8
984.12747	11301.4
987.86502	11326.1
991.59999	11359.5
995.33237	11412.8
999.06217	11535.7
1002.78939	11656.6
1006.51404	11797.1
1010.23611	11945.8
1013.95561	12057.4
1017.67255	12053.8
1021.38692	12034.2
1025.09872	11918.5
1028.80796	11804.4
1032.51465	11780
1036.21877	11834
1039.92035	11827.8
1043.61937	11902.5
1047.31584	11884.5
1051.00976	11883
1054.70114	11927.4
1058.38998	11989
1062.07627	12069.6
1065.76003	12205.9
1069.44126	12336.2
1073.11995	12486.7
1076.79611	12620.2
1080.46974	12647.6
1084.14085	12701.8
1087.80943	12723.7
1091.47549	12792.5
1095.13903	12851.4
1098.80005	12740.6
1102.45857	12518.1
1106.11456	12320.8
1109.76805	12185.2
1113.41903	12162.2
1117.06751	12195.7
1120.71348	12266.3
1124.35696	12390.5
1127.99793	12511.1
1131.63641	12586.6
1135.2724	12527.7
1138.90589	12474.9
1142.5369	12490.4
1146.16542	12568.5
1149.79145	12665.5
1153.415	12697.6
1157.03607	12825.4
1160.65467	13060.2
1164.27079	13493.7
1167.88443	14036.6
1171.49561	14606.9
1175.10432	15247.3
1178.71056	16055.1
1182.31434	16833.8
1185.91565	17221.2
1189.51451	17284
1193.11091	17094.2
1196.70485	16705.5
1200.29634	16226.6
1203.88538	15901.6
1207.47197	15671
1211.05612	15513.7
1214.63782	15274.2
1218.21708	14937.7
1221.79391	14527.1
1225.36829	14223.2
1228.94024	14025
1232.50976	13934.9
1236.07685	13819.3
1239.6415	13771.4
1243.20374	13763.6
1246.76355	13875.8
1250.32093	14009.6
1253.8759	14149.9
1257.42845	14429.7
1260.97859	14763.3
1264.52631	15060.6
1268.07163	15362.9
1271.61453	15637.9
1275.15503	15922
1278.69312	16312
1282.22882	16652.3
1285.76211	17111.2
1289.29301	17651.2
1292.82151	18281.8
1296.34761	19075.2
1299.87133	19938.6
1303.39266	20850.7
1306.9116	21566.7
1310.42815	22079.4
1313.94233	22324.6
1317.45412	22229.8
1320.96354	21972.3
1324.47058	21817.2
1327.97525	21769.1
1331.47754	21653.9
1334.97747	21663.3
1338.47502	21593.5
1341.97022	21535.2
1345.46305	21414
1348.95352	21251.9
1352.44163	21202.4
1355.92738	21270.7
1359.41078	21602.8
1362.89183	21961.9
1366.37053	21671.5
1369.84688	20398.4
1373.32088	18731.3
1376.79254	17484.3
1380.26186	16984.2
1383.72883	16999.7
1387.19347	17056.4
1390.65578	16907
1394.11575	16820.7
1397.57339	16852.6
1401.0287	17025.2
1404.48168	17146.7
1407.93234	17098.4
1411.38068	16784.4
1414.82669	16339
1418.27039	15773.2
1421.71177	15211.4
1425.15083	14780.1
1428.58758	14596
1432.02203	14659.8
1435.45416	14897.1
1438.88399	15278.9
1442.31151	15525.9
1445.73673	15721.8
1449.15965	15825.8
1452.58027	15921.9
1455.9986	15896.7
1459.41463	15977.4
1462.82837	16163.7
1466.23982	16376.3
1469.64898	16579.9
1473.05586	16727.6
1476.46045	16789.5
1479.86276	16635.1
1483.26279	16544.4
1486.66054	16479.6
1490.05602	16545
1493.44922	16718.1
1496.84016	16956.8
1500.22882	17299.9
1503.61521	17734.4
1506.99934	18219.1
1510.38121	18589
1513.76081	18659.5
1517.13816	18403.2
1520.51324	18015.9
1523.88607	17736.9
1527.25665	17666.8
1530.62498	17629.3
1533.99105	17559.2
1537.35488	17316.1
1540.71647	17004.5
1544.07581	16585.8
1547.4329	16146.6
1550.78776	15787.7
1554.14038	15565.3
1557.49077	15434.4
1560.83892	15348.6
1564.18484	15343.2
1567.52853	15367.8
1570.86999	15489.5
1574.20922	15763.4
1577.54624	15984.4
1580.88103	16078.2
1584.2136	16145.3
1587.54395	16445
1590.87208	16958.5
1594.19801	17621.7
1597.52172	18308.5
1600.84321	18423.8
1604.16251	17768.2
1607.47959	16675.5
1610.79447	15680
1614.10715	14648.5
1617.41763	13759.3
1620.7259	13146.1
1624.03199	12762.7
1627.33587	12719.6
1630.63757	12941.3
1633.93707	13520.8
1637.23439	14510.3
1640.52951	16007.7
1643.82246	17810.8
1647.11321	19296.9
1650.40179	19700.6
1653.68819	18641.6
1656.97241	16667.3
1660.25446	14644.6
1663.53433	13080
1666.81203	12057.6
1670.08756	11415.2
1673.36092	11011.1
1676.63211	10767.1
1679.90115	10591.7
1683.16801	10431
1686.43272	10325.2
1689.69527	10239.3
1692.95567	10150.6
1696.2139	10089.5
1699.46999	10007.2
1702.72392	9971
1705.97571	9951.7
1709.22535	9955
1712.47284	10000.7
1715.71819	9977.6
1718.96139	9968.1
1722.20246	9941.5
1725.44139	9898.6
1728.67818	9867.8
1731.91284	9822.9
1735.14537	9780.4
1738.37576	9715
1741.60403	9667.8
1744.83017	9638.7
1748.05418	9630.7
1751.27607	9598.5
1754.49584	9582.7
1757.71349	9562.6
1760.92903	9564
1764.14244	9522.4
1767.35375	9503.9
1770.56294	9470.7
1773.77002	9487.2
1776.97499	9469
1780.17785	9489.4
1783.37861	9451.6
1786.57727	9471.1
1789.77382	9443.3
1792.96828	9440.8
1796.16064	9402.6
1799.3509	9371.2
1802.53907	9375.4
1805.72514	9346.3
1808.90913	9326.1
1812.09102	9302.7
1815.27083	9289.4
1818.44856	9252.4
1821.6242	9243.1
1824.79776	9227.3
1827.96924	9226.1
1831.13864	9228.3
1834.30597	9235.6
1837.47122	9225.4
1840.6344	9213.5
1843.7955	9205
1846.95454	9178.7
1850.11151	9193
1853.26642	9165.3
1856.41926	9161
1859.57004	9163.7
1862.71876	9158.7
1865.86542	9143.1
1869.01003	9141.1
1872.15258	9115.8
1875.29308	9104
1878.43152	9097.8
1881.56792	9087.3
1884.70227	9058.4
1887.83457	9055
1890.96482	9028.1
1894.09304	9012.2
1897.21921	9002.5
1900.34335	8967
1903.46544	8985.5
1906.58551	8982.1
1909.70353	8965.7
1912.81953	8923.5
1915.93349	8927.6
1919.04543	8900.2
1922.15534	8903
1925.26322	8884.6
1928.36908	8851.6
1931.47292	8840
1934.57473	8837.5
1937.67453	8795.8
1940.77232	8762.2
1943.86808	8763.6
1946.96184	8724.7
1950.05358	8696.7
1953.14331	8667.5
1956.23103	8664.8
1959.31675	8633
1962.40046	8591.8
1965.48217	8587.9
1968.56188	8548.9
1971.63959	8531.5
1974.7153	8491.4
1977.78901	8498.1
1980.86073	8438.4
1983.93046	8447.7
1986.99819	8402
1990.06394	8370
1993.1277	8338.9
1996.18947	8312
1999.24925	8290.3
2002.30706	8266.8
2005.36288	8238.5
2008.41672	8229.8
2011.46859	8202
2014.51848	8172.4
2017.56639	8146.9
2020.61233	8141
2023.6563	8113.1
2026.6983	8093.4
2029.73833	8070.9
2032.7764	8066.7
2035.8125	8047.1
2038.84664	8015.4
2041.87881	8004.9
2044.90903	7995.6
2047.93729	7981.1
2050.96359	7959.7
2053.98794	7944.4
2057.01034	7942
2060.03078	7959.2
2063.04927	7930.4
2066.06582	7945.9
2069.08042	7912.1
2072.09307	7931.8
2075.10378	7902.8
2078.11255	7896
2081.11938	7899.5
2084.12426	7878.3
2087.12722	7910.6
2090.12824	7880.8
2093.12732	7889.3
2096.12447	7871
2099.11969	7895.1
2102.11299	7880
2105.10435	7868.8
2108.09379	7865.3
2111.08131	7880
2114.0669	7894.5
2117.05057	7902.1
2120.03233	7892.5
2123.01216	7911.7
2125.99008	7936.6
2128.96609	7897.2
2131.94018	7921.2
2134.91236	7921.9
2137.88263	7927.3
2140.851	7907.7
2143.81746	7942.1
2146.78201	7925.7
2149.74466	7904.4
2152.7054	7912.3
2155.66425	7897.5
2158.6212	7901.2
2161.57625	7894.6
2164.52941	7906.5
2167.48067	7911.7
2170.43004	7903.6
2173.37752	7907
2176.32311	7890.2
2179.26681	7900.1
2182.20863	7904.5
2185.14856	7892.5
2188.08661	7907.2
2191.02278	7904.5
2193.95707	7893.6
2196.88948	7881.2
2199.82001	7868.8
2202.74867	7832.3
2205.67545	7853.1
2208.60037	7825.8
2211.52341	7817.1
2214.44458	7798.8
2217.36388	7799.6
2220.28132	7791.4
2223.1969	7767.3
2226.11061	7752.9
2229.02246	7718.4
2231.93245	7705.7
2234.84058	7701.6
2237.74686	7686.9
2240.65128	7681.4
2243.55385	7689.5
2246.45456	7662.1
2249.35343	7648.6
2252.25044	7620.3
2255.14561	7616.6
2258.03893	7609.9
2260.93041	7560.6
2263.82004	7555.6
2266.70783	7558
2269.59378	7536.2
2272.4779	7512.2
2275.36017	7512.4
2278.24061	7489.2
2281.11922	7478.3
2283.996	7471.5
2286.87094	7438.9
2289.74405	7427.4
2292.61534	7411.7
2295.4848	7417.7
2298.35243	7397.6
2301.21824	7394.8
2304.08223	7402.4
2306.94439	7399.9
2309.80474	7384.8
2312.66327	7394.6
2315.51999	7376
2318.37489	7340
2321.22797	7343.4
2324.07925	7342.6
2326.92871	7329.3
2329.77637	7333.8
2332.62222	7317.2
2335.46626	7288.9
2338.3085	7276.1
2341.14893	7281.7
2343.98756	7286.3
2346.8244	7271.3
2349.65943	7246.4
2352.49267	7248
2355.32411	7250.3
2358.15376	7243.5
2360.98161	7236.2
2363.80768	7246.3
2366.63195	7253.9
2369.45444	7228
2372.27514	7216.7
2375.09405	7218.2
2377.91118	7201.8
2380.72652	7177.8
2383.54009	7153.9
2386.35187	7150.9
2389.16188	7145.3
2391.97011	7108.7
2394.77657	7103.7
2397.58125	7094.3
2400.38416	7054.3
2403.18529	7046.3
2405.98466	7071.9
2408.78226	7057
2411.57809	7046.8
2414.37216	7043.9
2417.16446	7049.1
2419.955	7011.6
2422.74378	7007.2
2425.5308	6994.5
2428.31606	7018.1
2431.09956	6990.8
2433.88131	6953.6
2436.6613	6987.3
2439.43954	6966.8
2442.21603	6984.3
2444.99077	6956.9
2447.76377	6961.7
2450.53501	6953.1
2453.30451	6946.7
2456.07226	6943.2
2458.83827	6931.4
2461.60254	6928.8
2464.36507	6924.1
2467.12586	6911.9
2469.88492	6910.4
2472.64224	6893.5
2475.39782	6918.8
2478.15167	6898.4
2480.90379	6886.3
2483.65417	6899.5
2486.40283	6878.6
2489.14976	6889.8
2491.89497	6885.8
2494.63845	6868.9
2497.3802	6878.3
2500.12024	6879.6
2502.85855	6862.2
2505.59514	6858.7
2508.33002	6826.9
2511.06318	6844.9
2513.79462	6855.2
2516.52435	6834.2
2519.25237	6824
2521.97867	6807.3
2524.70327	6800.6
2527.42616	6816.5
2530.14734	6801
2532.86681	6789.3
2535.58458	6772.5
2538.30065	6757.3
2541.01501	6770.3
2543.72768	6757.1
2546.43864	6749.4
2549.14791	6755.8
2551.85548	6719.9
2554.56136	6714.5
2557.26554	6693.9
2559.96803	6701.4
2562.66883	6692.9
2565.36794	6692.3
2568.06536	6675.1
2570.7611	6668.4
2573.45514	6631.1
2576.14751	6634
2578.83819	6621.2
2581.52719	6627.2
2584.21451	6601
2586.90015	6608.9
2589.58411	6579.5
2592.2664	6590.2
2594.94701	6573.4
2597.62594	6562.1
2600.30321	6548.6
2602.9788	6560.2
2605.65273	6560.1
2608.32498	6552.4
2610.99557	6535.4
2613.66449	6529.5
2616.33175	6509.2
2618.99734	6523.7
2621.66128	6522
2624.32355	6504.4
2626.98416	6497.7
2629.64311	6492.9
2632.30041	6497.1
2634.95605	6459.8
2637.61004	6447
2640.26238	6465.4
2642.91306	6460.1
2645.56209	6446.3
2648.20948	6442.3
2650.85521	6428
2653.4993	6450.1
2656.14175	6446.6
2658.78255	6456.8
2661.42171	6453.1
2664.05923	6463.7
2666.6951	6474.1
2669.32934	6459.8
2671.96194	6442.8
2674.59291	6462.9
2677.22224	6452.4
2679.84993	6449.6
2682.476	6437
2685.10043	6424.8
2687.72324	6417.8
2690.34441	6417.8
2692.96396	6443.7
2695.58188	6441.8
2698.19818	6429.2
2700.81285	6433.6
2703.4259	6415.1
2706.03733	6446.2
2708.64714	6401.5
2711.25533	6425.5
2713.86191	6405.8
2716.46687	6416.3
2719.07021	6422.7
2721.67194	6448.6
2724.27206	6443.2
2726.87057	6436
2729.46747	6445.4
2732.06276	6452.1
2734.65644	6447.9
2737.24852	6425.2
2739.83899	6425.4
2742.42786	6427.5
2745.01513	6408.9
2747.60079	6404.1
2750.18486	6411.3
2752.76733	6410.4
2755.3482	6405.7
2757.92747	6400.8
2760.50515	6378.5
2763.08123	6374.9
2765.65573	6386.1
2768.22863	6367.2
2770.79994	6343.9
2773.36967	6343.7
2775.9378	6352.2
2778.50435	6348.6
2781.06932	6319.8
2783.6327	6334
2786.1945	6326.5
2788.75471	6333.6
2791.31335	6287.7
2793.87041	6283.3
2796.42589	6260.4
2798.97979	6278.2
2801.53212	6250.7
2804.08288	6245.1
2806.63206	6249.2
2809.17967	6246.2
2811.72571	6212.9
2814.27018	6206.5
2816.81308	6187.4
2819.35442	6190.6
2821.89419	6177.9
2824.43239	6173.7
2826.96904	6172.8
2829.50412	6146.9
2832.03763	6150.4
2834.56959	6144.6
2837.1	6127.5
2839.62884	6139.8
2842.15613	6153.2
2844.68186	6127.5
2847.20604	6151.7
2849.72867	6156.8
2852.24974	6165.2
2854.76927	6160.9
2857.28724	6134.6
2859.80367	6118.5
2862.31855	6103.2
2864.83189	6114
2867.34368	6100.5
2869.85393	6095.1
2872.36264	6091.8
2874.8698	6093.5
2877.37543	6086.9
2879.87952	6080
2882.38207	6077.7
2884.88308	6063
2887.38256	6074.6
2889.88051	6049
2892.37692	6055.8
2894.8718	6053.6
2897.36515	6058.2
2899.85698	6063.3
2902.34727	6076.2
2904.83604	6066.8
2907.32328	6073.1
2909.809	6050.1
2912.29319	6086.1
2914.77587	6086.1
2917.25702	6067.7
2919.73665	6063.6
2922.21476	6079.3
2924.69136	6061.9
2927.16644	6071.5
2929.64	6060.1
2932.11205	6060.4
2934.58258	6037.1
2937.05161	6045.7
2939.51912	6044.8
2941.98513	6018.6
2944.44962	6010.2
2946.91261	5996.3
2949.37409	6012.9
2951.83407	5984.2
2954.29254	5982.3
2956.74951	5978.2
2959.20498	5971.5
2961.65895	5979.7
2964.11142	5963.7
2966.56239	5945
2969.01186	5949.1
2971.45984	5949.8
2973.90632	5924.6
2976.35131	5924.2
2978.7948	5931
2981.23681	5904.6
2983.67732	5913.3
2986.11635	5888
2988.55388	5878.1
2990.98993	5858.8
2993.4245	5847.9
2995.85758	5840.4
2998.28917	5840.9
3000.71928	5827.3
3003.14791	5805
3005.57506	5797.4
3008.00073	5782.9
3010.42493	5771.7
3012.84764	5771
3015.26888	5761.4
3017.68865	5747.4
3020.10694	5751
3022.52376	5724.1
3024.9391	5727.2
3027.35298	5723.3
3029.76539	5702.5
3032.17632	5710.1
3034.5858	5694.5
3036.9938	5700.5
3039.40034	5670.3
3041.80542	5691.6
3044.20903	5671.4
3046.61118	5667.9
3049.01187	5660.8
3051.4111	5659.1
3053.80888	5659.8
3056.20519	5642.3
3058.60005	5640.1
3060.99345	5616.6
3063.3854	5577.4
3065.7759	5576.8
3068.16494	5578.1
3070.55254	5566.9
3072.93868	5554.9
3075.32338	5541.4
3077.70662	5545.3
3080.08842	5515.8
3082.46878	5524.4
3084.84769	5535.3
3087.22515	5520.4
3089.60118	5507.1
3091.97576	5516.7
3094.3489	5501.8
3096.72061	5512.4
3099.09087	5525.7
3101.4597	5506
3103.82709	5512.7
3106.19305	5514.9
3108.55757	5499.8
3110.92066	5479.5
3113.28232	5469.1
3115.64255	5477.4
3118.00134	5462.8
3120.35871	5460.7
3122.71466	5459.1
3125.06917	5438.1
3127.42226	5445.2
3129.77393	5441.1
3132.12417	5434
3134.47299	5427
3136.82039	5437.4
3139.16636	5436.9
3141.51092	5437.8
3143.85406	5430.8
3146.19579	5436.4
3148.53609	5440.8
3150.87499	5461.8
3153.21246	5458.7
3155.54853	5449.3
3157.88318	5447.7
3160.21642	5456.6
3162.54826	5462.9
3164.87868	5441.8
3167.2077	5456.3
3169.5353	5466.6
3171.86151	5466.6
3174.18631	5455.6
3176.5097	5443.7
3178.83169	5444.3
3181.15228	5446.3
3183.47147	5448.4
3185.78926	5429.5
3188.10565	5435.6
3190.42065	5426.4
3192.73424	5426.2
3195.04645	5423.3
3197.35725	5419.3
3199.66667	5419.8
3201.97469	5421.6
3204.28132	5421.1
3206.58656	5434.3
3208.8904	5432.4
3211.19287	5441
3213.49394	5453.9
3215.79363	5446.8
3218.09193	5451.5
3220.38884	5431.7
3222.68438	5434.2
3224.97853	5429.5
3227.2713	5435.2
3229.56269	5430.8
3231.8527	5449.4
3234.14133	5429.4
3236.42858	5410.2
3238.71446	5390.6
3240.99896	5386
3243.28209	5375.9
3245.56384	5363.3
3247.84423	5387.4
3250.12324	5366.2
3252.40088	5366.3
3254.67715	5369.6
3256.95205	5350.9
3259.22558	5363.4
3261.49775	5353.8
3263.76855	5338.4
3266.03799	5329.8
3268.30606	5309.2
3270.57277	5301.4
3272.83812	5286.6
3275.10211	5270.1
3277.36474	5249.5
3279.62601	5271.5
3281.88593	5251.8
3284.14448	5264.2
3286.40168	5255.2
3288.65753	5272.2
3290.91202	5265.4
3293.16516	5242.8
3295.41695	5223
3297.66738	5204.3
3299.91647	5181.9
3302.16421	5142.9
3304.4106	5127.8
3306.65564	5091.6
3308.89933	5071.4
3311.14169	5032.9
3313.38269	5004.7
3315.62236	4953.7
3317.86068	4909.7
3320.09766	4880.7
3322.3333	4842.5
3324.5676	4830.7
3326.80056	4748.3
3329.03219	4713.4
3331.26248	1.3
3333.49143	-0.6
3335.71905	-0.3
