Data from AgNPs_FTO_APTES_UA_1uM_CRN_100uM_R6G_10uM_NaF_0.1M_Addition_RamanShift__14__16-36-59-781.txt Node

Date: Thu Jan 27 16:36:59 GMT 2022
User: TCL
Spectrometer: QEP01345
Trigger mode: 4
Integration Time (sec): 7.000000E0
Scans to average: 10
Electric dark correction enabled: true
Nonlinearity correction enabled: false
Boxcar width: 0
XAxis mode: Raman Shifts
Number of Pixels in Spectrum: 1044
>>>>>Begin Spectral Data<<<<<
46.04893	-0.4
50.45542	2.2
54.85868	-1.3
59.25871	-0.6
63.6555	43
68.04907	44
72.43941	49.4
76.82654	52.9
81.21044	51.4
85.59113	55.6
89.96862	54.5
94.34289	58.9
98.71396	60.1
103.08183	58.5
107.4465	64.8
111.80798	65.3
116.16626	63.4
120.52136	70
124.87327	72
129.222	71.4
133.56755	78.5
137.90993	76.9
142.24913	85.9
146.58517	93.3
150.91804	110.4
155.24774	125.1
159.57429	149.5
163.89768	186.9
168.21792	247.3
172.53501	329.2
176.84895	460.1
181.15975	629.2
185.46741	891.8
189.77193	1227.8
194.07331	1640.5
198.37157	2134.7
202.6667	2645.9
206.9587	3157.5
211.24758	3663.3
215.53334	4142.6
219.81599	4660.2
224.09553	5192.9
228.37195	5804.6
232.64527	6479.4
236.91549	7173.8
241.18261	7918.7
245.44663	8653.1
249.70755	9329.9
253.96539	9911.2
258.22014	10422.8
262.4718	10827
266.72039	11091.6
270.96589	11253
275.20832	11297.8
279.44768	11262.7
283.68397	11215.3
287.91719	11100.2
292.14735	11038.4
296.37445	11002.1
300.59849	10990.9
304.81948	10968.1
309.03742	10938.9
313.25231	10813.6
317.46415	10660.5
321.67296	10453.8
325.87872	10292.6
330.08145	10257.4
334.28114	10272.5
338.47781	10329.2
342.67145	10437.7
346.86207	10569.3
351.04966	10716
355.23424	10843.5
359.4158	10954.8
363.59435	11076.2
367.76989	11179.3
371.94243	11244.1
376.11196	11327.8
380.27849	11377
384.44203	11424.7
388.60257	11480.4
392.76012	11585.3
396.91468	11702.7
401.06626	11854.3
405.21485	11948.4
409.36047	11944.8
413.50311	11860.9
417.64277	11782.2
421.77947	11755.2
425.9132	11783.7
430.04396	11839.8
434.17176	11894.7
438.2966	11973.7
442.41849	12090.1
446.53742	12213.8
450.6534	12384.5
454.76644	12534.3
458.87653	12615.3
462.98368	12645.8
467.08789	12650.3
471.18916	12605.9
475.2875	12563.5
479.38291	12534.6
483.4754	12477.3
487.56496	12441.2
491.6516	12339.7
495.73531	12277.7
499.81612	12210.1
503.89401	12257
507.96899	12292.7
512.04106	12319.5
516.11023	12348.2
520.1765	12273.1
524.23987	12202.7
528.30034	12123.7
532.35792	12048.2
536.41261	12011.7
540.46441	11958.5
544.51333	11938.6
548.55936	12041.3
552.60252	12191
556.64279	12355.7
560.6802	12429.5
564.71473	12520.8
568.7464	12611.7
572.7752	12752.4
576.80114	12995.3
580.82422	13195
584.84444	13326.9
588.86181	13388.1
592.87633	13370.9
596.888	13325.3
600.89682	13293.4
604.9028	13444.5
608.90594	13936.6
612.90624	14515.1
616.90371	14039.9
620.89834	12801.9
624.89015	12224.4
628.87913	12158
632.86528	12271.7
636.84862	12322.7
640.82913	12271
644.80683	12161.7
648.78172	12015.2
652.75379	11984.7
656.72306	12037
660.68952	12147.5
664.65319	12153.2
668.61405	12060.1
672.57211	12071.3
676.52738	12116.9
680.47986	12118.6
684.42955	12084.9
688.37646	12067.8
692.32058	12068.1
696.26192	12126.6
700.20048	12206.3
704.13626	12231.5
708.06928	12307.3
711.99952	12272.2
715.927	12244.9
719.85171	12212.8
723.77365	12197.9
727.69284	12115.8
731.60928	12027.7
735.52295	11974
739.43388	11963.7
743.34206	11998.9
747.24749	12007.6
751.15017	12064.9
755.05012	12161
758.94733	12368.3
762.8418	12644.5
766.73354	13157.9
770.62254	13651.5
774.50882	13780.6
778.39237	13495.3
782.27321	12952.3
786.15132	12523.5
790.02671	12209.4
793.89938	12048.1
797.76935	11980.5
801.6366	11918.3
805.50115	11884.1
809.36299	11846
813.22213	11835.9
817.07857	11820.2
820.93231	11829.9
824.78336	11830.2
828.63172	11795
832.47738	11784.9
836.32036	11757.2
840.16066	11758.4
843.99827	11747.5
847.8332	11750.1
851.66546	11766.5
855.49504	11772.7
859.32195	11774.5
863.1462	11760.3
866.96777	11756.7
870.78668	11741.3
874.60293	11768.5
878.41652	11743.8
882.22745	11748.3
886.03573	11774.1
889.84136	11790.3
893.64433	11769.3
897.44466	11769.1
901.24235	11743.8
905.0374	11718
908.8298	11716.2
912.61957	11731.5
916.40671	11791
920.19121	11867.8
923.97308	11887.8
927.75233	11871.3
931.52895	11779.3
935.30295	11706.9
939.07433	11617.2
942.84309	11516
946.60924	11450.4
950.37278	11429.4
954.13371	11393.1
957.89203	11381.3
961.64774	11355.1
965.40086	11358
969.15137	11308.8
972.89929	11284.7
976.64461	11256.9
980.38733	11250
984.12747	11234.9
987.86502	11263
991.59999	11281.3
995.33237	11322.3
999.06217	11375.3
1002.78939	11423.4
1006.51404	11493.9
1010.23611	11598.1
1013.95561	11645.1
1017.67255	11663.9
1021.38692	11672.5
1025.09872	11592.1
1028.80796	11537.1
1032.51465	11503.7
1036.21877	11505.2
1039.92035	11529.6
1043.61937	11584.6
1047.31584	11586.8
1051.00976	11644.1
1054.70114	11695.6
1058.38998	11733.3
1062.07627	11824.7
1065.76003	11966.9
1069.44126	12024
1073.11995	12107.8
1076.79611	12192.9
1080.46974	12255.4
1084.14085	12251.5
1087.80943	12253.2
1091.47549	12274.3
1095.13903	12332
1098.80005	12291.8
1102.45857	12180.9
1106.11456	12021.6
1109.76805	11910
1113.41903	11880.5
1117.06751	11900.6
1120.71348	11903.7
1124.35696	11997.6
1127.99793	12079.8
1131.63641	12145.4
1135.2724	12092.1
1138.90589	12021.3
1142.5369	12011.2
1146.16542	12023.5
1149.79145	12049.5
1153.415	12091.9
1157.03607	12116.8
1160.65467	12278.9
1164.27079	12468.8
1167.88443	12759.2
1171.49561	13129.1
1175.10432	13535.9
1178.71056	14080.3
1182.31434	14597.6
1185.91565	14943.7
1189.51451	15059.3
1193.11091	15018
1196.70485	14792.5
1200.29634	14480.5
1203.88538	14180.9
1207.47197	13919.5
1211.05612	13716.9
1214.63782	13508.9
1218.21708	13334.5
1221.79391	13076.2
1225.36829	12892.5
1228.94024	12753.7
1232.50976	12689.5
1236.07685	12671.4
1239.6415	12676.3
1243.20374	12695
1246.76355	12751.6
1250.32093	12850.9
1253.8759	12974.4
1257.42845	13119.9
1260.97859	13329.3
1264.52631	13483.2
1268.07163	13651.6
1271.61453	13821.1
1275.15503	14007.6
1278.69312	14161
1282.22882	14329
1285.76211	14537.9
1289.29301	14749.1
1292.82151	15061.5
1296.34761	15419.1
1299.87133	15850.7
1303.39266	16261.6
1306.9116	16688.6
1310.42815	17051
1313.94233	17240.4
1317.45412	17205.6
1320.96354	17181.2
1324.47058	17074
1327.97525	17023.4
1331.47754	17043.6
1334.97747	17060.8
1338.47502	17207.3
1341.97022	17392.4
1345.46305	17562.3
1348.95352	17681.3
1352.44163	17661.1
1355.92738	17613.2
1359.41078	17655.4
1362.89183	17756.8
1366.37053	17459.2
1369.84688	16624.2
1373.32088	15607
1376.79254	14838.3
1380.26186	14427.1
1383.72883	14295.1
1387.19347	14221.6
1390.65578	14134.5
1394.11575	14007.8
1397.57339	13925.2
1401.0287	13940.7
1404.48168	13957.7
1407.93234	13861.6
1411.38068	13727.8
1414.82669	13471.2
1418.27039	13191.6
1421.71177	12902.6
1425.15083	12688.2
1428.58758	12544.5
1432.02203	12485.9
1435.45416	12575.8
1438.88399	12708
1442.31151	12830.4
1445.73673	12911.6
1449.15965	13036.4
1452.58027	13143
1455.9986	13202.3
1459.41463	13294.8
1462.82837	13414.6
1466.23982	13548.7
1469.64898	13715.6
1473.05586	13832.1
1476.46045	13878.7
1479.86276	13891.5
1483.26279	13872.5
1486.66054	13885.6
1490.05602	13983.7
1493.44922	14130.4
1496.84016	14383.4
1500.22882	14793.3
1503.61521	15227.4
1506.99934	15771.3
1510.38121	16137
1513.76081	16196.3
1517.13816	15962.3
1520.51324	15587
1523.88607	15229.1
1527.25665	15008.3
1530.62498	14868.8
1533.99105	14760.6
1537.35488	14541.5
1540.71647	14367.3
1544.07581	14104.5
1547.4329	13848.6
1550.78776	13668.6
1554.14038	13552.1
1557.49077	13525.8
1560.83892	13500.5
1564.18484	13524.2
1567.52853	13601.1
1570.86999	13690.8
1574.20922	13805.3
1577.54624	13892.6
1580.88103	13834.5
1584.2136	13747.3
1587.54395	13747.5
1590.87208	13851.1
1594.19801	14125
1597.52172	14466.6
1600.84321	14538.6
1604.16251	14304.9
1607.47959	13823.5
1610.79447	13370
1614.10715	12859.8
1617.41763	12354.2
1620.7259	11952.6
1624.03199	11713.8
1627.33587	11609.2
1630.63757	11620
1633.93707	11861.9
1637.23439	12284.3
1640.52951	12944.6
1643.82246	13810.9
1647.11321	14649.7
1650.40179	15132.5
1653.68819	14933.8
1656.97241	14051.6
1660.25446	12971.1
1663.53433	12036.3
1666.81203	11363
1670.08756	10870.8
1673.36092	10565.9
1676.63211	10367
1679.90115	10239.8
1683.16801	10113.9
1686.43272	10039.2
1689.69527	9962.8
1692.95567	9872.9
1696.2139	9822
1699.46999	9752.4
1702.72392	9717.5
1705.97571	9732.1
1709.22535	9734.4
1712.47284	9766.7
1715.71819	9772.6
1718.96139	9754.5
1722.20246	9743.1
1725.44139	9732.3
1728.67818	9708
1731.91284	9646.4
1735.14537	9597.2
1738.37576	9557
1741.60403	9544.5
1744.83017	9497.7
1748.05418	9490.6
1751.27607	9453.1
1754.49584	9422.6
1757.71349	9401.1
1760.92903	9395.5
1764.14244	9387.9
1767.35375	9363.4
1770.56294	9346.3
1773.77002	9339.1
1776.97499	9347.8
1780.17785	9373.3
1783.37861	9352.3
1786.57727	9337.2
1789.77382	9312.2
1792.96828	9286.4
1796.16064	9294.8
1799.3509	9265.6
1802.53907	9271.2
1805.72514	9235.1
1808.90913	9193.2
1812.09102	9158.5
1815.27083	9183.4
1818.44856	9166.6
1821.6242	9148.8
1824.79776	9103.1
1827.96924	9115.1
1831.13864	9120.8
1834.30597	9110.7
1837.47122	9093.7
1840.6344	9071.6
1843.7955	9055.1
1846.95454	9055.1
1850.11151	9043
1853.26642	9041.3
1856.41926	9038.7
1859.57004	9036.6
1862.71876	9013.8
1865.86542	9005.9
1869.01003	9010.5
1872.15258	8969.1
1875.29308	8970.7
1878.43152	8946.6
1881.56792	8933.2
1884.70227	8910.2
1887.83457	8912.3
1890.96482	8888.1
1894.09304	8890.1
1897.21921	8864.2
1900.34335	8840
1903.46544	8835.7
1906.58551	8830.2
1909.70353	8804.1
1912.81953	8786.3
1915.93349	8793.4
1919.04543	8779.8
1922.15534	8739.6
1925.26322	8773
1928.36908	8722.3
1931.47292	8718.1
1934.57473	8683.2
1937.67453	8644.1
1940.77232	8639.2
1943.86808	8612.6
1946.96184	8585.8
1950.05358	8573.9
1953.14331	8537.6
1956.23103	8516.2
1959.31675	8475.8
1962.40046	8469.3
1965.48217	8439.5
1968.56188	8401.9
1971.63959	8369.8
1974.7153	8373.9
1977.78901	8317
1980.86073	8311.1
1983.93046	8294
1986.99819	8262.2
1990.06394	8219.5
1993.1277	8192.8
1996.18947	8163.5
1999.24925	8153.2
2002.30706	8132.5
2005.36288	8120.2
2008.41672	8092.8
2011.46859	8080.4
2014.51848	8048
2017.56639	8018.7
2020.61233	8003.3
2023.6563	7968.6
2026.6983	7953
2029.73833	7960.8
2032.7764	7917.7
2035.8125	7891
2038.84664	7838.5
2041.87881	7837.9
2044.90903	7862
2047.93729	7810.7
2050.96359	7796.6
2053.98794	7783.7
2057.01034	7794
2060.03078	7774.8
2063.04927	7752.7
2066.06582	7751.5
2069.08042	7743.6
2072.09307	7752.9
2075.10378	7733.9
2078.11255	7745.2
2081.11938	7746.3
2084.12426	7726.5
2087.12722	7705
2090.12824	7709.3
2093.12732	7691.5
2096.12447	7695.3
2099.11969	7693.3
2102.11299	7700
2105.10435	7707.2
2108.09379	7695.6
2111.08131	7723.5
2114.0669	7723.5
2117.05057	7732.6
2120.03233	7717
2123.01216	7719.8
2125.99008	7735.2
2128.96609	7746.4
2131.94018	7751
2134.91236	7739.6
2137.88263	7740.9
2140.851	7743.7
2143.81746	7748.5
2146.78201	7730.5
2149.74466	7756.5
2152.7054	7748.8
2155.66425	7738.7
2158.6212	7732.7
2161.57625	7700.2
2164.52941	7739
2167.48067	7736
2170.43004	7718.5
2173.37752	7716.5
2176.32311	7706
2179.26681	7739.2
2182.20863	7704.2
2185.14856	7726.9
2188.08661	7703.1
2191.02278	7713.1
2193.95707	7721
2196.88948	7664.6
2199.82001	7671.3
2202.74867	7662.4
2205.67545	7656
2208.60037	7641.5
2211.52341	7595.9
2214.44458	7618.5
2217.36388	7587.6
2220.28132	7582.5
2223.1969	7569.3
2226.11061	7536.5
2229.02246	7512.2
2231.93245	7496.8
2234.84058	7491.6
2237.74686	7487.5
2240.65128	7477.5
2243.55385	7475.1
2246.45456	7456.7
2249.35343	7436.4
2252.25044	7411.6
2255.14561	7403.9
2258.03893	7399.9
2260.93041	7393
2263.82004	7370.8
2266.70783	7363.8
2269.59378	7323.6
2272.4779	7322.6
2275.36017	7294.2
2278.24061	7302.9
2281.11922	7259.5
2283.996	7259
2286.87094	7247.7
2289.74405	7227.7
2292.61534	7212.6
2295.4848	7217.5
2298.35243	7205.4
2301.21824	7199.6
2304.08223	7183.9
2306.94439	7179.1
2309.80474	7179.6
2312.66327	7156.9
2315.51999	7146.2
2318.37489	7134.6
2321.22797	7122.7
2324.07925	7126.4
2326.92871	7088.5
2329.77637	7082.4
2332.62222	7070.4
2335.46626	7047.8
2338.3085	7034.8
2341.14893	7044.5
2343.98756	7045.5
2346.8244	7024.7
2349.65943	6995.5
2352.49267	6996
2355.32411	6984.7
2358.15376	7010.5
2360.98161	7016
2363.80768	6981.9
2366.63195	6990.3
2369.45444	6979.1
2372.27514	6975.1
2375.09405	6982.2
2377.91118	6948.3
2380.72652	6928.1
2383.54009	6917.2
2386.35187	6896.9
2389.16188	6890.6
2391.97011	6868.1
2394.77657	6865
2397.58125	6837.8
2400.38416	6823.3
2403.18529	6826.8
2405.98466	6799.5
2408.78226	6815.7
2411.57809	6782.1
2414.37216	6771.7
2417.16446	6773.9
2419.955	6758.7
2422.74378	6756.1
2425.5308	6744.2
2428.31606	6746
2431.09956	6732.3
2433.88131	6708
2436.6613	6702.9
2439.43954	6714
2442.21603	6713.9
2444.99077	6703.8
2447.76377	6694
2450.53501	6675.2
2453.30451	6675.8
2456.07226	6658.7
2458.83827	6648.2
2461.60254	6639.8
2464.36507	6622.6
2467.12586	6607.2
2469.88492	6626.6
2472.64224	6617.4
2475.39782	6592.7
2478.15167	6591.8
2480.90379	6584.3
2483.65417	6597.9
2486.40283	6585.7
2489.14976	6568.6
2491.89497	6573.5
2494.63845	6555.4
2497.3802	6546.1
2500.12024	6552.7
2502.85855	6548.5
2505.59514	6529.5
2508.33002	6528.7
2511.06318	6538.2
2513.79462	6504
2516.52435	6489.3
2519.25237	6495
2521.97867	6483.1
2524.70327	6491
2527.42616	6483.2
2530.14734	6458.1
2532.86681	6445.1
2535.58458	6448.5
2538.30065	6419.7
2541.01501	6427
2543.72768	6401.3
2546.43864	6373.1
2549.14791	6381.2
2551.85548	6385.5
2554.56136	6338.8
2557.26554	6358.3
2559.96803	6343.9
2562.66883	6320.8
2565.36794	6321
2568.06536	6320.7
2570.7611	6315.3
2573.45514	6280.2
2576.14751	6259.9
2578.83819	6251.8
2581.52719	6259
2584.21451	6222.2
2586.90015	6214.8
2589.58411	6216.4
2592.2664	6187
2594.94701	6186.1
2597.62594	6182.6
2600.30321	6153
2602.9788	6153.1
2605.65273	6138.9
2608.32498	6136.8
2610.99557	6121.4
2613.66449	6121.1
2616.33175	6096.1
2618.99734	6098.9
2621.66128	6088.9
2624.32355	6086.1
2626.98416	6084.7
2629.64311	6075.7
2632.30041	6051.1
2634.95605	6056.4
2637.61004	6039.9
2640.26238	6034.1
2642.91306	6027
2645.56209	6022.1
2648.20948	6015.3
2650.85521	6004.8
2653.4993	6009.9
2656.14175	6003.7
2658.78255	6020.3
2661.42171	5995.5
2664.05923	6012.4
2666.6951	6009.7
2669.32934	5999.7
2671.96194	5976.3
2674.59291	5995.1
2677.22224	5977.4
2679.84993	5972.1
2682.476	5974.6
2685.10043	5977.3
2687.72324	5973.5
2690.34441	5973.4
2692.96396	5963.9
2695.58188	5973.5
2698.19818	5959.5
2700.81285	5975.9
2703.4259	5961
2706.03733	5961.5
2708.64714	5937.3
2711.25533	5961.6
2713.86191	5940.9
2716.46687	5963.3
2719.07021	5955.7
2721.67194	5949.8
2724.27206	5959.5
2726.87057	5972.4
2729.46747	5964.9
2732.06276	5947.9
2734.65644	5933.1
2737.24852	5935.9
2739.83899	5916.7
2742.42786	5927.6
2745.01513	5899.7
2747.60079	5903.2
2750.18486	5909.5
2752.76733	5908.4
2755.3482	5889.2
2757.92747	5885.7
2760.50515	5877.9
2763.08123	5864.1
2765.65573	5848
2768.22863	5857.7
2770.79994	5850.6
2773.36967	5847.8
2775.9378	5821.8
2778.50435	5805.9
2781.06932	5795.3
2783.6327	5812.4
2786.1945	5791.5
2788.75471	5776.3
2791.31335	5752.2
2793.87041	5750.9
2796.42589	5745.1
2798.97979	5746.7
2801.53212	5717.2
2804.08288	5723.4
2806.63206	5687.3
2809.17967	5684.8
2811.72571	5667.7
2814.27018	5652.2
2816.81308	5630.8
2819.35442	5641
2821.89419	5652.4
2824.43239	5637.2
2826.96904	5604.4
2829.50412	5604.2
2832.03763	5611.7
2834.56959	5610.2
2837.1	5591.9
2839.62884	5578.2
2842.15613	5587.7
2844.68186	5591
2847.20604	5597.9
2849.72867	5597.3
2852.24974	5580.7
2854.76927	5571.1
2857.28724	5570.9
2859.80367	5568.6
2862.31855	5552.3
2864.83189	5539.8
2867.34368	5553.3
2869.85393	5526.6
2872.36264	5520.9
2874.8698	5514.4
2877.37543	5507.4
2879.87952	5501
2882.38207	5504
2884.88308	5490.5
2887.38256	5502.7
2889.88051	5486.3
2892.37692	5500.3
2894.8718	5479.3
2897.36515	5493.6
2899.85698	5491.1
2902.34727	5488
2904.83604	5487.3
2907.32328	5511.2
2909.809	5501.6
2912.29319	5506.6
2914.77587	5483.4
2917.25702	5495
2919.73665	5489.9
2922.21476	5487.4
2924.69136	5467.2
2927.16644	5465.3
2929.64	5457.4
2932.11205	5452.7
2934.58258	5450.4
2937.05161	5457.8
2939.51912	5449.6
2941.98513	5441.7
2944.44962	5449.6
2946.91261	5422.7
2949.37409	5413.4
2951.83407	5417.4
2954.29254	5415.3
2956.74951	5410.9
2959.20498	5388.9
2961.65895	5389.8
2964.11142	5387.2
2966.56239	5372
2969.01186	5390.1
2971.45984	5365.2
2973.90632	5350.9
2976.35131	5352.9
2978.7948	5338.3
2981.23681	5335.7
2983.67732	5317.9
2986.11635	5303.5
2988.55388	5308.3
2990.98993	5295.8
2993.4245	5291.1
2995.85758	5287.1
2998.28917	5271.3
3000.71928	5255.9
3003.14791	5235.3
3005.57506	5230.7
3008.00073	5208.8
3010.42493	5230.1
3012.84764	5230.1
3015.26888	5221.2
3017.68865	5195.3
3020.10694	5181.4
3022.52376	5174.5
3024.9391	5164
3027.35298	5174.5
3029.76539	5165.9
3032.17632	5154.4
3034.5858	5151.4
3036.9938	5137.1
3039.40034	5121.8
3041.80542	5137.7
3044.20903	5122.5
3046.61118	5113.4
3049.01187	5098.8
3051.4111	5122.6
3053.80888	5092.2
3056.20519	5096.9
3058.60005	5062.1
3060.99345	5070.4
3063.3854	5038.3
3065.7759	5045.1
3068.16494	5032.6
3070.55254	5005.9
3072.93868	5011
3075.32338	5008
3077.70662	5014.7
3080.08842	4987.1
3082.46878	4993.9
3084.84769	4983
3087.22515	4984.6
3089.60118	4988.5
3091.97576	4987.9
3094.3489	4985.8
3096.72061	4992.8
3099.09087	4991.4
3101.4597	4982.2
3103.82709	4965.4
3106.19305	4975
3108.55757	4967.8
3110.92066	4961.5
3113.28232	4959.6
3115.64255	4933.1
3118.00134	4937.9
3120.35871	4941.6
3122.71466	4926.8
3125.06917	4919
3127.42226	4906.4
3129.77393	4925
3132.12417	4907.7
3134.47299	4908.1
3136.82039	4905.2
3139.16636	4911.5
3141.51092	4926.7
3143.85406	4918.2
3146.19579	4926.1
3148.53609	4929
3150.87499	4934.5
3153.21246	4955.7
3155.54853	4949
3157.88318	4944.7
3160.21642	4942.3
3162.54826	4941.9
3164.87868	4950.9
3167.2077	4949
3169.5353	4962.6
3171.86151	4957.3
3174.18631	4964
3176.5097	4957.3
3178.83169	4942.2
3181.15228	4939.3
3183.47147	4929.3
3185.78926	4934.1
3188.10565	4923.7
3190.42065	4915
3192.73424	4920.5
3195.04645	4908.5
3197.35725	4920.1
3199.66667	4927.6
3201.97469	4934.8
3204.28132	4913.2
3206.58656	4917.4
3208.8904	4928.6
3211.19287	4931.4
3213.49394	4953.7
3215.79363	4950.6
3218.09193	4937
3220.38884	4937.2
3222.68438	4937
3224.97853	4937.1
3227.2713	4926.3
3229.56269	4916.5
3231.8527	4919.2
3234.14133	4914.8
3236.42858	4900.5
3238.71446	4898.4
3240.99896	4878.9
3243.28209	4876.4
3245.56384	4874.4
3247.84423	4873.9
3250.12324	4843.9
3252.40088	4857.1
3254.67715	4869.5
3256.95205	4865.9
3259.22558	4853.2
3261.49775	4857
3263.76855	4840.8
3266.03799	4824.9
3268.30606	4833.7
3270.57277	4812.2
3272.83812	4807.6
3275.10211	4787.9
3277.36474	4799.2
3279.62601	4777
3281.88593	4780.6
3284.14448	4763.9
3286.40168	4781
3288.65753	4769.7
3290.91202	4780.7
3293.16516	4741.8
3295.41695	4736
3297.66738	4720.1
3299.91647	4701.1
3302.16421	4662.8
3304.4106	4635
3306.65564	4609.8
3308.89933	4600.6
3311.14169	4556.6
3313.38269	4536.8
3315.62236	4490.6
3317.86068	4456.7
3320.09766	4414.8
3322.3333	4403.1
3324.5676	4386.5
3326.80056	4302.6
3329.03219	4266.9
3331.26248	2
3333.49143	0.2
3335.71905	-1.4
