Data from AgNPs_FTO_APTES_UA_1uM_CRN_500uM_R6G_10uM_NaF_0.1M_Addition_RamanShift__28__18-17-19-880.txt Node

Date: Thu Jan 27 18:17:19 GMT 2022
User: TCL
Spectrometer: QEP01345
Trigger mode: 4
Integration Time (sec): 7.000000E0
Scans to average: 10
Electric dark correction enabled: true
Nonlinearity correction enabled: false
Boxcar width: 0
XAxis mode: Raman Shifts
Number of Pixels in Spectrum: 1044
>>>>>Begin Spectral Data<<<<<
46.04893	2.2625
50.45542	0.6625
54.85868	-1.9375
59.25871	-2.3375
63.6555	45.0625
68.04907	49.1625
72.43941	50.4625
76.82654	55.1625
81.21044	55.9625
85.59113	57.7625
89.96862	58.2625
94.34289	61.2625
98.71396	67.0625
103.08183	59.4625
107.4465	63.6625
111.80798	70.1625
116.16626	67.8625
120.52136	76.8625
124.87327	76.7625
129.222	75.0625
133.56755	77.6625
137.90993	80.9625
142.24913	90.9625
146.58517	99.2625
150.91804	116.3625
155.24774	131.3625
159.57429	155.6625
163.89768	202.1625
168.21792	261.3625
172.53501	355.5625
176.84895	486.2625
181.15975	675.2625
185.46741	945.7625
189.77193	1303.2625
194.07331	1741.0625
198.37157	2250.7625
202.6667	2779.3625
206.9587	3324.2625
211.24758	3840.9625
215.53334	4418.7625
219.81599	4997.5625
224.09553	5667.1625
228.37195	6405.1625
232.64527	7183.6625
236.91549	8013.1625
241.18261	8769.0625
245.44663	9467.3625
249.70755	10013.2625
253.96539	10510.7625
258.22014	10904.7625
262.4718	11273.2625
266.72039	11552.8625
270.96589	11700.4625
275.20832	11732.2625
279.44768	11599.6625
283.68397	11433.9625
287.91719	11278.9625
292.14735	11247.1625
296.37445	11356.4625
300.59849	11665.5625
304.81948	12028.1625
309.03742	12283.0625
313.25231	12206.4625
317.46415	11734.3625
321.67296	10989.4625
325.87872	10365.2625
330.08145	10103.1625
334.28114	10053.4625
338.47781	10191.4625
342.67145	10402.0625
346.86207	10770.6625
351.04966	11258.8625
355.23424	11852.7625
359.4158	12310.2625
363.59435	12572.0625
367.76989	12689.2625
371.94243	12744.9625
376.11196	12721.7625
380.27849	12721.8625
384.44203	12646.5625
388.60257	12538.0625
392.76012	12477.7625
396.91468	12554.2625
401.06626	12796.8625
405.21485	13042.0625
409.36047	12863.9625
413.50311	12324.2625
417.64277	11802.8625
421.77947	11498.6625
425.9132	11413.8625
430.04396	11412.3625
434.17176	11484.8625
438.2966	11629.9625
442.41849	11910.5625
446.53742	12268.4625
450.6534	12605.9625
454.76644	12913.1625
458.87653	12906.5625
462.98368	12783.6625
467.08789	12587.6625
471.18916	12384.5625
475.2875	12144.3625
479.38291	11987.3625
483.4754	11845.6625
487.56496	11655.5625
491.6516	11511.9625
495.73531	11402.8625
499.81612	11373.2625
503.89401	11444.3625
507.96899	11555.2625
512.04106	11658.4625
516.11023	11826.3625
520.1765	11929.1625
524.23987	11883.4625
528.30034	11749.3625
532.35792	11488.1625
536.41261	11307.6625
540.46441	11102.6625
544.51333	10981.3625
548.55936	11041.9625
552.60252	11243.5625
556.64279	11498.9625
560.6802	11710.2625
564.71473	11842.4625
568.7464	12239.2625
572.7752	12545.5625
576.80114	12335.2625
580.82422	11992.2625
584.84444	11853.7625
588.86181	11883.4625
592.87633	12078.6625
596.888	12257.8625
600.89682	12410.9625
604.9028	13279.2625
608.90594	15980.5625
612.90624	19816.4625
616.90371	19434.1625
620.89834	14334.1625
624.89015	11813.9625
628.87913	11351.5625
632.86528	11350.8625
636.84862	11429.9625
640.82913	11319.0625
644.80683	10963.2625
648.78172	10669.4625
652.75379	10667.7625
656.72306	10971.1625
660.68952	11392.2625
664.65319	11377.3625
668.61405	10943.9625
672.57211	10730.9625
676.52738	10740.9625
680.47986	10766.3625
684.42955	10688.5625
688.37646	10630.3625
692.32058	10644.2625
696.26192	10694.8625
700.20048	10803.9625
704.13626	10894.4625
708.06928	10843.1625
711.99952	10739.4625
715.927	10676.3625
719.85171	10709.4625
723.77365	10721.1625
727.69284	10670.0625
731.60928	10623.4625
735.52295	10583.4625
739.43388	10631.7625
743.34206	10673.9625
747.24749	10698.3625
751.15017	10719.9625
755.05012	10873.8625
758.94733	11238.9625
762.8418	12073.2625
766.73354	13609.0625
770.62254	15391.6625
774.50882	16428.6625
778.39237	15882.3625
782.27321	14046.3625
786.15132	12250.8625
790.02671	11240.1625
793.89938	10787.8625
797.76935	10588.6625
801.6366	10492.8625
805.50115	10435.5625
809.36299	10414.4625
813.22213	10381.6625
817.07857	10349.0625
820.93231	10366.0625
824.78336	10375.3625
828.63172	10410.1625
832.47738	10432.7625
836.32036	10429.1625
840.16066	10397.9625
843.99827	10333.6625
847.8332	10320.2625
851.66546	10294.5625
855.49504	10283.5625
859.32195	10302.8625
863.1462	10286.4625
866.96777	10280.8625
870.78668	10222.0625
874.60293	10212.7625
878.41652	10214.2625
882.22745	10232.7625
886.03573	10309.2625
889.84136	10296.4625
893.64433	10220.3625
897.44466	10166.3625
901.24235	10138.3625
905.0374	10096.9625
908.8298	10064.3625
912.61957	10055.1625
916.40671	10106.0625
920.19121	10197.0625
923.97308	10262.6625
927.75233	10385.4625
931.52895	10472.6625
935.30295	10426.2625
939.07433	10198.3625
942.84309	9966.0625
946.60924	9823.0625
950.37278	9720.5625
954.13371	9669.9625
957.89203	9615.9625
961.64774	9585.6625
965.40086	9560.4625
969.15137	9492.7625
972.89929	9454.5625
976.64461	9437.4625
980.38733	9428.6625
984.12747	9475.6625
987.86502	9516.9625
991.59999	9592.1625
995.33237	9726.5625
999.06217	9952.0625
1002.78939	10203.8625
1006.51404	10354.0625
1010.23611	10486.4625
1013.95561	10613.0625
1017.67255	10593.5625
1021.38692	10458.8625
1025.09872	10295.4625
1028.80796	10256.7625
1032.51465	10362.4625
1036.21877	10520.3625
1039.92035	10570.8625
1043.61937	10496.1625
1047.31584	10392.0625
1051.00976	10288.3625
1054.70114	10233.2625
1058.38998	10204.8625
1062.07627	10224.1625
1065.76003	10256.7625
1069.44126	10300.4625
1073.11995	10378.8625
1076.79611	10514.3625
1080.46974	10622.2625
1084.14085	10761.1625
1087.80943	10952.2625
1091.47549	11036.4625
1095.13903	10932.1625
1098.80005	10693.6625
1102.45857	10437.5625
1106.11456	10300.1625
1109.76805	10369.5625
1113.41903	10532.0625
1117.06751	10809.9625
1120.71348	11135.8625
1124.35696	11505.1625
1127.99793	11826.9625
1131.63641	11896.4625
1135.2724	11473.2625
1138.90589	10998.1625
1142.5369	10732.6625
1146.16542	10543.5625
1149.79145	10435.7625
1153.415	10418.0625
1157.03607	10490.0625
1160.65467	10654.2625
1164.27079	10999.5625
1167.88443	11526.4625
1171.49561	12336.4625
1175.10432	13640.6625
1178.71056	15359.3625
1182.31434	16692.8625
1185.91565	17096.9625
1189.51451	16736.3625
1193.11091	15780.3625
1196.70485	14692.8625
1200.29634	13815.2625
1203.88538	13202.5625
1207.47197	12595.2625
1211.05612	12051.8625
1214.63782	11746.4625
1218.21708	11691.9625
1221.79391	11693.6625
1225.36829	11707.9625
1228.94024	11622.2625
1232.50976	11518.1625
1236.07685	11448.6625
1239.6415	11412.2625
1243.20374	11436.2625
1246.76355	11483.8625
1250.32093	11594.5625
1253.8759	11846.7625
1257.42845	12114.0625
1260.97859	12430.0625
1264.52631	12744.1625
1268.07163	13101.8625
1271.61453	13427.0625
1275.15503	13742.7625
1278.69312	13889.5625
1282.22882	14009.8625
1285.76211	14234.2625
1289.29301	14598.1625
1292.82151	15113.4625
1296.34761	15644.6625
1299.87133	16427.7625
1303.39266	17593.1625
1306.9116	19329.8625
1310.42815	21309.0625
1313.94233	22697.6625
1317.45412	22583.2625
1320.96354	21350.1625
1324.47058	19968.1625
1327.97525	18631.6625
1331.47754	17729.3625
1334.97747	17309.6625
1338.47502	17335.2625
1341.97022	17520.4625
1345.46305	17793.0625
1348.95352	18247.3625
1352.44163	19112.2625
1355.92738	20604.5625
1359.41078	23070.8625
1362.89183	25759.7625
1366.37053	25597.7625
1369.84688	22199.4625
1373.32088	18432.3625
1376.79254	16006.1625
1380.26186	14891.1625
1383.72883	14428.0625
1387.19347	14135.1625
1390.65578	13764.8625
1394.11575	13489.1625
1397.57339	13489.7625
1401.0287	13672.5625
1404.48168	13991.0625
1407.93234	14162.4625
1411.38068	14241.2625
1414.82669	14116.6625
1418.27039	13788.8625
1421.71177	13394.0625
1425.15083	13034.0625
1428.58758	12823.3625
1432.02203	12820.5625
1435.45416	12943.3625
1438.88399	13078.9625
1442.31151	13154.7625
1445.73673	13230.5625
1449.15965	13375.1625
1452.58027	13451.3625
1455.9986	13388.0625
1459.41463	13342.8625
1462.82837	13466.8625
1466.23982	13754.8625
1469.64898	14083.5625
1473.05586	14278.2625
1476.46045	14371.9625
1479.86276	14456.7625
1483.26279	14560.1625
1486.66054	14737.8625
1490.05602	14968.3625
1493.44922	15327.4625
1496.84016	15835.3625
1500.22882	16685.7625
1503.61521	18096.8625
1506.99934	19892.0625
1510.38121	21758.2625
1513.76081	22850.5625
1517.13816	22063.0625
1520.51324	19803.8625
1523.88607	17413.5625
1527.25665	15698.8625
1530.62498	14755.5625
1533.99105	14276.1625
1537.35488	13986.3625
1540.71647	13813.8625
1544.07581	13746.5625
1547.4329	13680.0625
1550.78776	13596.5625
1554.14038	13558.7625
1557.49077	13612.4625
1560.83892	13782.9625
1564.18484	14036.4625
1567.52853	14308.3625
1570.86999	14573.8625
1574.20922	14781.7625
1577.54624	14823.5625
1580.88103	14392.2625
1584.2136	13760.4625
1587.54395	13479.7625
1590.87208	13716.8625
1594.19801	14451.0625
1597.52172	15487.5625
1600.84321	16097.9625
1604.16251	15725.4625
1607.47959	14696.0625
1610.79447	13498.7625
1614.10715	12356.9625
1617.41763	11487.9625
1620.7259	10913.1625
1624.03199	10670.4625
1627.33587	10655.8625
1630.63757	10894.2625
1633.93707	11379.1625
1637.23439	12185.5625
1640.52951	13334.5625
1643.82246	14870.4625
1647.11321	16567.7625
1650.40179	17648.8625
1653.68819	17192.9625
1656.97241	15109.0625
1660.25446	12770.3625
1663.53433	11068.5625
1666.81203	10100.7625
1670.08756	9545.6625
1673.36092	9189.6625
1676.63211	8995.6625
1679.90115	8838.0625
1683.16801	8733.5625
1686.43272	8637.4625
1689.69527	8545.2625
1692.95567	8482.9625
1696.2139	8416.0625
1699.46999	8359.3625
1702.72392	8319.5625
1705.97571	8346.0625
1709.22535	8386.5625
1712.47284	8406.7625
1715.71819	8422.8625
1718.96139	8428.6625
1722.20246	8419.8625
1725.44139	8382.2625
1728.67818	8329.0625
1731.91284	8286.9625
1735.14537	8223.0625
1738.37576	8193.6625
1741.60403	8164.8625
1744.83017	8166.5625
1748.05418	8123.9625
1751.27607	8093.3625
1754.49584	8067.1625
1757.71349	8029.0625
1760.92903	8016.3625
1764.14244	7997.6625
1767.35375	7982.1625
1770.56294	7956.2625
1773.77002	7951.5625
1776.97499	7932.5625
1780.17785	7942.4625
1783.37861	7963.3625
1786.57727	7955.1625
1789.77382	7929.3625
1792.96828	7941.7625
1796.16064	7921.1625
1799.3509	7886.5625
1802.53907	7874.5625
1805.72514	7849.2625
1808.90913	7847.8625
1812.09102	7818.4625
1815.27083	7807.7625
1818.44856	7797.3625
1821.6242	7777.4625
1824.79776	7778.7625
1827.96924	7751.8625
1831.13864	7741.6625
1834.30597	7758.8625
1837.47122	7737.1625
1840.6344	7734.6625
1843.7955	7732.8625
1846.95454	7726.2625
1850.11151	7722.3625
1853.26642	7719.6625
1856.41926	7724.4625
1859.57004	7752.1625
1862.71876	7719.2625
1865.86542	7730.2625
1869.01003	7702.1625
1872.15258	7718.1625
1875.29308	7704.2625
1878.43152	7694.5625
1881.56792	7704.8625
1884.70227	7696.9625
1887.83457	7703.6625
1890.96482	7692.4625
1894.09304	7680.5625
1897.21921	7684.7625
1900.34335	7688.8625
1903.46544	7681.1625
1906.58551	7703.9625
1909.70353	7675.5625
1912.81953	7659.7625
1915.93349	7677.6625
1919.04543	7655.3625
1922.15534	7663.1625
1925.26322	7658.0625
1928.36908	7620.9625
1931.47292	7603.9625
1934.57473	7575.5625
1937.67453	7557.7625
1940.77232	7519.8625
1943.86808	7481.2625
1946.96184	7474.4625
1950.05358	7450.2625
1953.14331	7423.1625
1956.23103	7380.4625
1959.31675	7365.8625
1962.40046	7343.7625
1965.48217	7338.6625
1968.56188	7316.4625
1971.63959	7297.8625
1974.7153	7269.2625
1977.78901	7260.9625
1980.86073	7237.3625
1983.93046	7196.9625
1986.99819	7173.3625
1990.06394	7153.2625
1993.1277	7112.4625
1996.18947	7068.5625
1999.24925	7096.3625
2002.30706	7080.6625
2005.36288	7044.8625
2008.41672	7026.2625
2011.46859	7030.3625
2014.51848	6990.9625
2017.56639	6974.6625
2020.61233	6953.4625
2023.6563	6941.1625
2026.6983	6925.1625
2029.73833	6922.8625
2032.7764	6918.5625
2035.8125	6903.5625
2038.84664	6857.4625
2041.87881	6863.2625
2044.90903	6844.4625
2047.93729	6834.8625
2050.96359	6822.7625
2053.98794	6802.1625
2057.01034	6801.1625
2060.03078	6784.4625
2063.04927	6764.7625
2066.06582	6797.1625
2069.08042	6794.6625
2072.09307	6791.7625
2075.10378	6775.7625
2078.11255	6764.6625
2081.11938	6757.8625
2084.12426	6763.6625
2087.12722	6753.0625
2090.12824	6738.6625
2093.12732	6759.6625
2096.12447	6728.6625
2099.11969	6751.0625
2102.11299	6735.8625
2105.10435	6764.3625
2108.09379	6752.0625
2111.08131	6768.6625
2114.0669	6780.3625
2117.05057	6775.8625
2120.03233	6783.1625
2123.01216	6796.9625
2125.99008	6794.4625
2128.96609	6797.7625
2131.94018	6803.2625
2134.91236	6796.5625
2137.88263	6825.1625
2140.851	6791.0625
2143.81746	6820.6625
2146.78201	6812.7625
2149.74466	6791.7625
2152.7054	6794.6625
2155.66425	6820.3625
2158.6212	6802.6625
2161.57625	6771.7625
2164.52941	6787.6625
2167.48067	6770.1625
2170.43004	6794.2625
2173.37752	6791.1625
2176.32311	6790.7625
2179.26681	6782.8625
2182.20863	6780.9625
2185.14856	6776.8625
2188.08661	6788.4625
2191.02278	6795.2625
2193.95707	6775.0625
2196.88948	6777.3625
2199.82001	6757.1625
2202.74867	6772.5625
2205.67545	6759.8625
2208.60037	6746.5625
2211.52341	6732.4625
2214.44458	6737.8625
2217.36388	6708.2625
2220.28132	6725.6625
2223.1969	6703.9625
2226.11061	6696.3625
2229.02246	6671.5625
2231.93245	6680.5625
2234.84058	6648.1625
2237.74686	6641.9625
2240.65128	6621.3625
2243.55385	6629.3625
2246.45456	6598.9625
2249.35343	6601.6625
2252.25044	6588.3625
2255.14561	6600.8625
2258.03893	6586.5625
2260.93041	6578.3625
2263.82004	6569.8625
2266.70783	6536.6625
2269.59378	6522.0625
2272.4779	6516.2625
2275.36017	6491.9625
2278.24061	6505.4625
2281.11922	6483.2625
2283.996	6479.6625
2286.87094	6462.1625
2289.74405	6442.4625
2292.61534	6440.8625
2295.4848	6418.3625
2298.35243	6430.6625
2301.21824	6408.8625
2304.08223	6415.7625
2306.94439	6429.3625
2309.80474	6438.4625
2312.66327	6426.4625
2315.51999	6425.7625
2318.37489	6427.8625
2321.22797	6400.9625
2324.07925	6397.4625
2326.92871	6385.9625
2329.77637	6390.4625
2332.62222	6375.4625
2335.46626	6380.5625
2338.3085	6375.3625
2341.14893	6350.7625
2343.98756	6368.1625
2346.8244	6367.1625
2349.65943	6365.1625
2352.49267	6366.6625
2355.32411	6374.4625
2358.15376	6390.1625
2360.98161	6372.4625
2363.80768	6387.8625
2366.63195	6398.0625
2369.45444	6378.9625
2372.27514	6366.3625
2375.09405	6345.2625
2377.91118	6337.8625
2380.72652	6317.7625
2383.54009	6303.3625
2386.35187	6297.7625
2389.16188	6265.5625
2391.97011	6242.0625
2394.77657	6231.7625
2397.58125	6202.8625
2400.38416	6217.6625
2403.18529	6199.6625
2405.98466	6181.9625
2408.78226	6174.8625
2411.57809	6162.0625
2414.37216	6149.5625
2417.16446	6148.1625
2419.955	6154.0625
2422.74378	6150.2625
2425.5308	6144.4625
2428.31606	6130.8625
2431.09956	6125.5625
2433.88131	6110.2625
2436.6613	6134.9625
2439.43954	6123.7625
2442.21603	6133.4625
2444.99077	6120.1625
2447.76377	6135.0625
2450.53501	6108.4625
2453.30451	6112.9625
2456.07226	6102.4625
2458.83827	6110.6625
2461.60254	6102.2625
2464.36507	6105.4625
2467.12586	6098.9625
2469.88492	6096.6625
2472.64224	6089.2625
2475.39782	6096.2625
2478.15167	6087.3625
2480.90379	6104.5625
2483.65417	6107.2625
2486.40283	6106.3625
2489.14976	6137.6625
2491.89497	6120.6625
2494.63845	6121.1625
2497.3802	6098.5625
2500.12024	6106.8625
2502.85855	6112.5625
2505.59514	6096.3625
2508.33002	6087.1625
2511.06318	6070.5625
2513.79462	6057.8625
2516.52435	6033.9625
2519.25237	6028.5625
2521.97867	6010.1625
2524.70327	6017.4625
2527.42616	5993.0625
2530.14734	5994.9625
2532.86681	5992.8625
2535.58458	5985.4625
2538.30065	5967.1625
2541.01501	5984.2625
2543.72768	5964.1625
2546.43864	5964.8625
2549.14791	5943.1625
2551.85548	5960.4625
2554.56136	5951.9625
2557.26554	5941.0625
2559.96803	5928.7625
2562.66883	5942.9625
2565.36794	5937.0625
2568.06536	5930.3625
2570.7611	5915.9625
2573.45514	5895.7625
2576.14751	5888.7625
2578.83819	5887.5625
2581.52719	5874.0625
2584.21451	5877.7625
2586.90015	5876.7625
2589.58411	5867.0625
2592.2664	5854.6625
2594.94701	5850.0625
2597.62594	5847.6625
2600.30321	5826.8625
2602.9788	5825.5625
2605.65273	5807.6625
2608.32498	5816.8625
2610.99557	5819.0625
2613.66449	5822.4625
2616.33175	5825.6625
2618.99734	5812.1625
2621.66128	5811.5625
2624.32355	5809.3625
2626.98416	5820.6625
2629.64311	5818.6625
2632.30041	5790.7625
2634.95605	5790.6625
2637.61004	5783.7625
2640.26238	5749.7625
2642.91306	5772.6625
2645.56209	5764.1625
2648.20948	5760.7625
2650.85521	5743.0625
2653.4993	5742.0625
2656.14175	5754.4625
2658.78255	5748.0625
2661.42171	5767.9625
2664.05923	5759.6625
2666.6951	5764.0625
2669.32934	5765.6625
2671.96194	5765.0625
2674.59291	5762.0625
2677.22224	5756.2625
2679.84993	5763.8625
2682.476	5761.7625
2685.10043	5778.7625
2687.72324	5753.6625
2690.34441	5756.6625
2692.96396	5745.9625
2695.58188	5750.8625
2698.19818	5763.5625
2700.81285	5757.3625
2703.4259	5747.9625
2706.03733	5729.5625
2708.64714	5730.0625
2711.25533	5756.6625
2713.86191	5755.1625
2716.46687	5760.5625
2719.07021	5761.1625
2721.67194	5785.7625
2724.27206	5778.5625
2726.87057	5777.2625
2729.46747	5787.6625
2732.06276	5778.9625
2734.65644	5761.4625
2737.24852	5761.9625
2739.83899	5761.9625
2742.42786	5766.5625
2745.01513	5721.2625
2747.60079	5728.3625
2750.18486	5746.6625
2752.76733	5722.1625
2755.3482	5734.6625
2757.92747	5721.3625
2760.50515	5718.2625
2763.08123	5719.8625
2765.65573	5701.3625
2768.22863	5692.4625
2770.79994	5702.0625
2773.36967	5679.2625
2775.9378	5687.4625
2778.50435	5699.4625
2781.06932	5684.1625
2783.6327	5697.4625
2786.1945	5683.5625
2788.75471	5683.6625
2791.31335	5662.2625
2793.87041	5652.9625
2796.42589	5641.4625
2798.97979	5651.0625
2801.53212	5639.4625
2804.08288	5653.4625
2806.63206	5618.3625
2809.17967	5619.1625
2811.72571	5604.3625
2814.27018	5610.7625
2816.81308	5592.1625
2819.35442	5605.4625
2821.89419	5609.0625
2824.43239	5598.3625
2826.96904	5609.9625
2829.50412	5611.8625
2832.03763	5598.9625
2834.56959	5621.3625
2837.1	5607.6625
2839.62884	5622.5625
2842.15613	5657.0625
2844.68186	5685.0625
2847.20604	5716.1625
2849.72867	5746.0625
2852.24974	5758.7625
2854.76927	5753.1625
2857.28724	5729.3625
2859.80367	5727.8625
2862.31855	5711.1625
2864.83189	5710.1625
2867.34368	5700.4625
2869.85393	5720.9625
2872.36264	5708.7625
2874.8698	5707.4625
2877.37543	5709.3625
2879.87952	5717.4625
2882.38207	5709.5625
2884.88308	5704.9625
2887.38256	5686.9625
2889.88051	5698.0625
2892.37692	5698.1625
2894.8718	5704.0625
2897.36515	5716.9625
2899.85698	5725.2625
2902.34727	5730.7625
2904.83604	5741.9625
2907.32328	5765.6625
2909.809	5746.2625
2912.29319	5751.0625
2914.77587	5770.0625
2917.25702	5738.1625
2919.73665	5736.5625
2922.21476	5762.2625
2924.69136	5744.0625
2927.16644	5748.3625
2929.64	5754.6625
2932.11205	5733.5625
2934.58258	5697.2625
2937.05161	5724.3625
2939.51912	5692.3625
2941.98513	5681.4625
2944.44962	5636.5625
2946.91261	5609.2625
2949.37409	5607.8625
2951.83407	5592.1625
2954.29254	5558.7625
2956.74951	5548.0625
2959.20498	5552.8625
2961.65895	5546.3625
2964.11142	5535.6625
2966.56239	5509.9625
2969.01186	5501.4625
2971.45984	5479.7625
2973.90632	5464.9625
2976.35131	5472.9625
2978.7948	5432.3625
2981.23681	5439.8625
2983.67732	5425.0625
2986.11635	5401.6625
2988.55388	5394.8625
2990.98993	5371.9625
2993.4245	5369.6625
2995.85758	5355.8625
2998.28917	5369.7625
3000.71928	5328.6625
3003.14791	5326.8625
3005.57506	5340.4625
3008.00073	5308.0625
3010.42493	5300.1625
3012.84764	5305.4625
3015.26888	5326.7625
3017.68865	5305.7625
3020.10694	5296.0625
3022.52376	5266.7625
3024.9391	5261.1625
3027.35298	5259.1625
3029.76539	5252.6625
3032.17632	5245.6625
3034.5858	5228.8625
3036.9938	5238.8625
3039.40034	5228.2625
3041.80542	5230.7625
3044.20903	5207.7625
3046.61118	5200.9625
3049.01187	5199.9625
3051.4111	5203.4625
3053.80888	5186.6625
3056.20519	5202.8625
3058.60005	5172.9625
3060.99345	5161.5625
3063.3854	5165.8625
3065.7759	5161.6625
3068.16494	5154.8625
3070.55254	5135.5625
3072.93868	5122.4625
3075.32338	5122.2625
3077.70662	5099.2625
3080.08842	5094.7625
3082.46878	5091.6625
3084.84769	5094.3625
3087.22515	5088.0625
3089.60118	5084.9625
3091.97576	5086.8625
3094.3489	5089.1625
3096.72061	5104.4625
3099.09087	5098.1625
3101.4597	5100.1625
3103.82709	5105.7625
3106.19305	5087.4625
3108.55757	5094.0625
3110.92066	5079.7625
3113.28232	5066.1625
3115.64255	5053.3625
3118.00134	5059.8625
3120.35871	5057.7625
3122.71466	5049.2625
3125.06917	5043.2625
3127.42226	5042.4625
3129.77393	5048.7625
3132.12417	5041.5625
3134.47299	5040.1625
3136.82039	5047.9625
3139.16636	5059.6625
3141.51092	5068.2625
3143.85406	5050.6625
3146.19579	5061.5625
3148.53609	5074.4625
3150.87499	5078.1625
3153.21246	5073.8625
3155.54853	5102.3625
3157.88318	5088.2625
3160.21642	5113.4625
3162.54826	5103.6625
3164.87868	5101.8625
3167.2077	5106.4625
3169.5353	5111.3625
3171.86151	5113.8625
3174.18631	5108.1625
3176.5097	5112.0625
3178.83169	5116.9625
3181.15228	5121.6625
3183.47147	5096.5625
3185.78926	5108.3625
3188.10565	5110.1625
3190.42065	5110.9625
3192.73424	5113.6625
3195.04645	5103.2625
3197.35725	5131.4625
3199.66667	5118.7625
3201.97469	5116.4625
3204.28132	5121.8625
3206.58656	5140.0625
3208.8904	5132.2625
3211.19287	5141.9625
3213.49394	5144.0625
3215.79363	5154.3625
3218.09193	5140.4625
3220.38884	5163.7625
3222.68438	5159.7625
3224.97853	5150.5625
3227.2713	5177.0625
3229.56269	5150.9625
3231.8527	5171.7625
3234.14133	5158.3625
3236.42858	5139.3625
3238.71446	5144.7625
3240.99896	5120.3625
3243.28209	5128.7625
3245.56384	5123.4625
3247.84423	5125.9625
3250.12324	5120.1625
3252.40088	5115.9625
3254.67715	5112.0625
3256.95205	5120.6625
3259.22558	5106.8625
3261.49775	5116.5625
3263.76855	5091.1625
3266.03799	5100.5625
3268.30606	5085.9625
3270.57277	5086.8625
3272.83812	5076.8625
3275.10211	5043.9625
3277.36474	5047.1625
3279.62601	5072.1625
3281.88593	5039.4625
3284.14448	5050.9625
3286.40168	5053.5625
3288.65753	5056.9625
3290.91202	5058.9625
3293.16516	5034.1625
3295.41695	5035.3625
3297.66738	5012.2625
3299.91647	4997.5625
3302.16421	4952.4625
3304.4106	4926.1625
3306.65564	4901.8625
3308.89933	4891.5625
3311.14169	4842.5625
3313.38269	4812.8625
3315.62236	4787.5625
3317.86068	4765.2625
3320.09766	4722.8625
3322.3333	4682.4625
3324.5676	4683.2625
3326.80056	4587.4625
3329.03219	4565.7625
3331.26248	2.7625
3333.49143	-0.6375
3335.71905	-1.0375
