Data from AgNPs_FTO_APTES_UA_1uM_CRN_10uM_R6G_10uM_NaF_0.1M_Addition_RamanShift__12__14-29-49-636.txt Node

Date: Thu Jan 27 14:29:49 GMT 2022
User: TCL
Spectrometer: QEP01345
Trigger mode: 4
Integration Time (sec): 7.000000E0
Scans to average: 10
Electric dark correction enabled: true
Nonlinearity correction enabled: false
Boxcar width: 0
XAxis mode: Raman Shifts
Number of Pixels in Spectrum: 1044
>>>>>Begin Spectral Data<<<<<
46.04893	1.3625
50.45542	1.3625
54.85868	-1.1375
59.25871	-1.0375
63.6555	49.2625
68.04907	51.5625
72.43941	54.2625
76.82654	59.6625
81.21044	61.8625
85.59113	63.0625
89.96862	67.9625
94.34289	67.6625
98.71396	72.6625
103.08183	71.5625
107.4465	73.9625
111.80798	77.3625
116.16626	76.1625
120.52136	83.8625
124.87327	78.8625
129.222	82.2625
133.56755	89.3625
137.90993	93.2625
142.24913	100.6625
146.58517	113.8625
150.91804	130.8625
155.24774	151.4625
159.57429	183.8625
163.89768	233.0625
168.21792	307.6625
172.53501	416.7625
176.84895	572.5625
181.15975	806.4625
185.46741	1118.5625
189.77193	1542.9625
194.07331	2092.5625
198.37157	2696.0625
202.6667	3336.3625
206.9587	3965.9625
211.24758	4606.2625
215.53334	5198.9625
219.81599	5836.7625
224.09553	6536.0625
228.37195	7308.7625
232.64527	8173.1625
236.91549	9070.8625
241.18261	10000.4625
245.44663	10889.1625
249.70755	11745.4625
253.96539	12484.7625
258.22014	13100.4625
262.4718	13605.0625
266.72039	13966.9625
270.96589	14136.2625
275.20832	14162.7625
279.44768	14100.3625
283.68397	13957.0625
287.91719	13842.2625
292.14735	13722.9625
296.37445	13671.6625
300.59849	13631.4625
304.81948	13699.8625
309.03742	13637.9625
313.25231	13543.2625
317.46415	13387.8625
321.67296	13153.1625
325.87872	12975.1625
330.08145	12876.1625
334.28114	12889.5625
338.47781	12968.1625
342.67145	13093.2625
346.86207	13269.1625
351.04966	13457.3625
355.23424	13668.9625
359.4158	13829.6625
363.59435	13983.7625
367.76989	14104.8625
371.94243	14212.4625
376.11196	14270.2625
380.27849	14314.4625
384.44203	14379.5625
388.60257	14467.5625
392.76012	14561.7625
396.91468	14755.8625
401.06626	14982.9625
405.21485	15090.8625
409.36047	15058.0625
413.50311	14973.1625
417.64277	14863.1625
421.77947	14873.0625
425.9132	14917.6625
430.04396	15005.2625
434.17176	15064.3625
438.2966	15127.7625
442.41849	15254.3625
446.53742	15436.5625
450.6534	15711.9625
454.76644	15872.9625
458.87653	15973.5625
462.98368	15998.3625
467.08789	15939.7625
471.18916	15898.0625
475.2875	15761.4625
479.38291	15704.5625
483.4754	15650.8625
487.56496	15578.3625
491.6516	15454.4625
495.73531	15328.8625
499.81612	15274.0625
503.89401	15302.8625
507.96899	15395.6625
512.04106	15393.0625
516.11023	15382.7625
520.1765	15301.4625
524.23987	15189.4625
528.30034	15089.5625
532.35792	15021.3625
536.41261	14947.4625
540.46441	14846.3625
544.51333	14821.7625
548.55936	14939.1625
552.60252	15131.2625
556.64279	15287.6625
560.6802	15441.4625
564.71473	15552.1625
568.7464	15735.9625
572.7752	15985.4625
576.80114	16353.7625
580.82422	16731.9625
584.84444	17079.2625
588.86181	17315.4625
592.87633	17540.7625
596.888	17565.5625
600.89682	17232.8625
604.9028	17174.8625
608.90594	17772.8625
612.90624	18582.0625
616.90371	17827.4625
620.89834	16099.2625
624.89015	15291.4625
628.87913	15219.4625
632.86528	15331.2625
636.84862	15427.5625
640.82913	15271.4625
644.80683	15046.7625
648.78172	14853.1625
652.75379	14836.9625
656.72306	14916.8625
660.68952	15059.0625
664.65319	15070.3625
668.61405	14991.3625
672.57211	14919.3625
676.52738	14966.6625
680.47986	14959.6625
684.42955	14894.8625
688.37646	14875.2625
692.32058	14870.9625
696.26192	14983.9625
700.20048	15094.4625
704.13626	15203.0625
708.06928	15246.1625
711.99952	15237.3625
715.927	15203.5625
719.85171	15160.1625
723.77365	15117.8625
727.69284	14990.5625
731.60928	14874.8625
735.52295	14791.2625
739.43388	14794.0625
743.34206	14812.1625
747.24749	14835.5625
751.15017	14928.4625
755.05012	15101.7625
758.94733	15379.5625
762.8418	15813.2625
766.73354	16474.4625
770.62254	17149.0625
774.50882	17282.8625
778.39237	16849.7625
782.27321	16165.2625
786.15132	15571.0625
790.02671	15150.2625
793.89938	14975.6625
797.76935	14833.0625
801.6366	14756.8625
805.50115	14695.2625
809.36299	14673.6625
813.22213	14633.9625
817.07857	14607.9625
820.93231	14583.5625
824.78336	14568.2625
828.63172	14532.9625
832.47738	14527.0625
836.32036	14532.6625
840.16066	14511.9625
843.99827	14468.4625
847.8332	14491.3625
851.66546	14481.6625
855.49504	14521.5625
859.32195	14503.5625
863.1462	14509.6625
866.96777	14497.6625
870.78668	14507.0625
874.60293	14506.1625
878.41652	14507.9625
882.22745	14536.3625
886.03573	14576.5625
889.84136	14579.2625
893.64433	14573.2625
897.44466	14517.6625
901.24235	14475.0625
905.0374	14464.6625
908.8298	14456.2625
912.61957	14421.1625
916.40671	14524.4625
920.19121	14633.9625
923.97308	14745.6625
927.75233	14722.2625
931.52895	14644.4625
935.30295	14470.5625
939.07433	14304.7625
942.84309	14213.5625
946.60924	14119.6625
950.37278	14064.7625
954.13371	14042.7625
957.89203	14023.3625
961.64774	14028.3625
965.40086	13988.0625
969.15137	13989.6625
972.89929	13905.9625
976.64461	13901.0625
980.38733	13853.4625
984.12747	13840.4625
987.86502	13874.2625
991.59999	13921.1625
995.33237	13964.5625
999.06217	14065.2625
1002.78939	14199.1625
1006.51404	14342.5625
1010.23611	14491.1625
1013.95561	14597.6625
1017.67255	14589.5625
1021.38692	14572.6625
1025.09872	14479.8625
1028.80796	14295.3625
1032.51465	14238.6625
1036.21877	14264.3625
1039.92035	14264.2625
1043.61937	14342.0625
1047.31584	14368.6625
1051.00976	14425.6625
1054.70114	14485.5625
1058.38998	14555.4625
1062.07627	14671.0625
1065.76003	14799.4625
1069.44126	14937.6625
1073.11995	15097.1625
1076.79611	15294.4625
1080.46974	15347.4625
1084.14085	15374.0625
1087.80943	15396.0625
1091.47549	15487.3625
1095.13903	15553.7625
1098.80005	15477.2625
1102.45857	15280.6625
1106.11456	15023.1625
1109.76805	14883.6625
1113.41903	14840.0625
1117.06751	14840.5625
1120.71348	14940.2625
1124.35696	15052.9625
1127.99793	15154.0625
1131.63641	15221.3625
1135.2724	15163.8625
1138.90589	15115.0625
1142.5369	15094.0625
1146.16542	15135.9625
1149.79145	15181.7625
1153.415	15248.4625
1157.03607	15312.3625
1160.65467	15522.5625
1164.27079	15851.3625
1167.88443	16347.8625
1171.49561	16855.6625
1175.10432	17508.0625
1178.71056	18298.0625
1182.31434	19041.0625
1185.91565	19527.9625
1189.51451	19632.0625
1193.11091	19553.0625
1196.70485	19185.2625
1200.29634	18725.8625
1203.88538	18305.8625
1207.47197	18036.2625
1211.05612	17838.2625
1214.63782	17602.7625
1218.21708	17300.8625
1221.79391	16906.6625
1225.36829	16645.7625
1228.94024	16485.2625
1232.50976	16399.8625
1236.07685	16331.5625
1239.6415	16295.4625
1243.20374	16316.5625
1246.76355	16402.4625
1250.32093	16501.2625
1253.8759	16686.1625
1257.42845	16936.8625
1260.97859	17274.1625
1264.52631	17597.8625
1268.07163	17868.1625
1271.61453	18170.2625
1275.15503	18423.7625
1278.69312	18723.3625
1282.22882	19022.4625
1285.76211	19436.4625
1289.29301	19867.6625
1292.82151	20385.4625
1296.34761	21034.5625
1299.87133	21735.6625
1303.39266	22474.9625
1306.9116	23051.8625
1310.42815	23584.2625
1313.94233	23838.6625
1317.45412	23715.2625
1320.96354	23549.0625
1324.47058	23448.0625
1327.97525	23372.9625
1331.47754	23328.5625
1334.97747	23314.9625
1338.47502	23330.9625
1341.97022	23462.7625
1345.46305	23588.6625
1348.95352	23672.6625
1352.44163	23631.3625
1355.92738	23637.9625
1359.41078	23816.8625
1362.89183	24051.4625
1366.37053	23728.0625
1369.84688	22519.3625
1373.32088	20926.8625
1376.79254	19741.3625
1380.26186	19171.5625
1383.72883	19066.4625
1387.19347	18974.3625
1390.65578	18799.5625
1394.11575	18611.6625
1397.57339	18558.1625
1401.0287	18630.8625
1404.48168	18750.7625
1407.93234	18649.7625
1411.38068	18390.3625
1414.82669	18037.1625
1418.27039	17559.4625
1421.71177	17130.6625
1425.15083	16804.9625
1428.58758	16645.0625
1432.02203	16661.7625
1435.45416	16876.9625
1438.88399	17137.3625
1442.31151	17291.2625
1445.73673	17466.2625
1449.15965	17589.4625
1452.58027	17707.1625
1455.9986	17777.7625
1459.41463	17893.0625
1462.82837	18075.3625
1466.23982	18296.7625
1469.64898	18510.3625
1473.05586	18673.3625
1476.46045	18692.1625
1479.86276	18682.0625
1483.26279	18617.3625
1486.66054	18603.4625
1490.05602	18685.8625
1493.44922	18933.2625
1496.84016	19320.0625
1500.22882	19782.1625
1503.61521	20369.1625
1506.99934	20963.7625
1510.38121	21392.8625
1513.76081	21433.0625
1517.13816	21149.6625
1520.51324	20670.6625
1523.88607	20283.8625
1527.25665	20065.1625
1530.62498	19901.3625
1533.99105	19678.0625
1537.35488	19416.2625
1540.71647	19063.9625
1544.07581	18692.8625
1547.4329	18331.0625
1550.78776	18005.5625
1554.14038	17810.7625
1557.49077	17707.9625
1560.83892	17683.8625
1564.18484	17733.8625
1567.52853	17757.5625
1570.86999	17901.8625
1574.20922	18110.2625
1577.54624	18272.3625
1580.88103	18320.3625
1584.2136	18265.7625
1587.54395	18412.9625
1590.87208	18770.3625
1594.19801	19336.2625
1597.52172	19909.5625
1600.84321	20004.6625
1604.16251	19491.3625
1607.47959	18630.4625
1610.79447	17750.1625
1614.10715	16785.2625
1617.41763	16022.1625
1620.7259	15387.9625
1624.03199	15034.4625
1627.33587	14940.1625
1630.63757	15124.6625
1633.93707	15618.4625
1637.23439	16531.3625
1640.52951	17887.9625
1643.82246	19501.1625
1647.11321	20893.2625
1650.40179	21394.8625
1653.68819	20525.5625
1656.97241	18724.9625
1660.25446	16838.5625
1663.53433	15314.6625
1666.81203	14303.6625
1670.08756	13699.5625
1673.36092	13289.5625
1676.63211	13042.3625
1679.90115	12851.4625
1683.16801	12703.4625
1686.43272	12595.4625
1689.69527	12500.2625
1692.95567	12398.0625
1696.2139	12317.7625
1699.46999	12258.8625
1702.72392	12219.8625
1705.97571	12252.2625
1709.22535	12237.5625
1712.47284	12240.2625
1715.71819	12234.7625
1718.96139	12210.0625
1722.20246	12195.8625
1725.44139	12172.0625
1728.67818	12099.7625
1731.91284	12045.5625
1735.14537	11999.4625
1738.37576	11947.0625
1741.60403	11898.3625
1744.83017	11871.3625
1748.05418	11854.1625
1751.27607	11836.4625
1754.49584	11748.6625
1757.71349	11731.9625
1760.92903	11713.6625
1764.14244	11707.8625
1767.35375	11704.5625
1770.56294	11669.8625
1773.77002	11685.2625
1776.97499	11658.4625
1780.17785	11669.6625
1783.37861	11661.4625
1786.57727	11666.6625
1789.77382	11635.9625
1792.96828	11628.8625
1796.16064	11575.9625
1799.3509	11550.8625
1802.53907	11546.0625
1805.72514	11516.9625
1808.90913	11466.9625
1812.09102	11451.8625
1815.27083	11431.8625
1818.44856	11431.3625
1821.6242	11403.6625
1824.79776	11371.7625
1827.96924	11376.3625
1831.13864	11362.0625
1834.30597	11365.9625
1837.47122	11343.3625
1840.6344	11326.9625
1843.7955	11330.2625
1846.95454	11320.0625
1850.11151	11316.6625
1853.26642	11320.3625
1856.41926	11318.8625
1859.57004	11310.0625
1862.71876	11288.8625
1865.86542	11273.7625
1869.01003	11249.2625
1872.15258	11230.2625
1875.29308	11188.4625
1878.43152	11171.7625
1881.56792	11182.9625
1884.70227	11139.2625
1887.83457	11118.3625
1890.96482	11112.2625
1894.09304	11088.0625
1897.21921	11097.0625
1900.34335	11053.5625
1903.46544	11048.3625
1906.58551	11061.5625
1909.70353	11006.2625
1912.81953	10986.7625
1915.93349	10975.1625
1919.04543	10947.3625
1922.15534	10924.1625
1925.26322	10903.3625
1928.36908	10867.4625
1931.47292	10861.1625
1934.57473	10835.5625
1937.67453	10807.4625
1940.77232	10794.6625
1943.86808	10766.1625
1946.96184	10725.5625
1950.05358	10690.7625
1953.14331	10645.9625
1956.23103	10616.5625
1959.31675	10577.9625
1962.40046	10567.4625
1965.48217	10535.5625
1968.56188	10500.4625
1971.63959	10441.0625
1974.7153	10452.3625
1977.78901	10402.9625
1980.86073	10361.6625
1983.93046	10324.0625
1986.99819	10291.1625
1990.06394	10267.9625
1993.1277	10243.4625
1996.18947	10178.5625
1999.24925	10188.5625
2002.30706	10127.5625
2005.36288	10112.8625
2008.41672	10073.9625
2011.46859	10040.7625
2014.51848	10025.4625
2017.56639	9973.7625
2020.61233	9969.6625
2023.6563	9947.8625
2026.6983	9906.0625
2029.73833	9876.0625
2032.7764	9846.6625
2035.8125	9833.9625
2038.84664	9781.5625
2041.87881	9802.0625
2044.90903	9781.0625
2047.93729	9733.9625
2050.96359	9746.3625
2053.98794	9693.9625
2057.01034	9696.7625
2060.03078	9688.7625
2063.04927	9681.4625
2066.06582	9703.7625
2069.08042	9660.4625
2072.09307	9672.9625
2075.10378	9647.7625
2078.11255	9641.3625
2081.11938	9651.6625
2084.12426	9619.3625
2087.12722	9631.0625
2090.12824	9619.6625
2093.12732	9631.3625
2096.12447	9611.7625
2099.11969	9616.7625
2102.11299	9619.1625
2105.10435	9616.7625
2108.09379	9648.6625
2111.08131	9627.2625
2114.0669	9628.3625
2117.05057	9649.6625
2120.03233	9647.3625
2123.01216	9663.0625
2125.99008	9660.3625
2128.96609	9655.2625
2131.94018	9675.1625
2134.91236	9655.0625
2137.88263	9667.2625
2140.851	9670.0625
2143.81746	9667.4625
2146.78201	9670.4625
2149.74466	9653.0625
2152.7054	9673.6625
2155.66425	9679.7625
2158.6212	9663.3625
2161.57625	9657.9625
2164.52941	9630.9625
2167.48067	9633.9625
2170.43004	9643.0625
2173.37752	9645.6625
2176.32311	9632.7625
2179.26681	9626.1625
2182.20863	9616.0625
2185.14856	9602.4625
2188.08661	9623.6625
2191.02278	9616.5625
2193.95707	9606.5625
2196.88948	9573.8625
2199.82001	9584.5625
2202.74867	9578.0625
2205.67545	9572.3625
2208.60037	9540.2625
2211.52341	9516.0625
2214.44458	9503.9625
2217.36388	9468.6625
2220.28132	9455.1625
2223.1969	9439.6625
2226.11061	9421.3625
2229.02246	9401.1625
2231.93245	9388.6625
2234.84058	9375.3625
2237.74686	9345.6625
2240.65128	9367.6625
2243.55385	9342.5625
2246.45456	9309.6625
2249.35343	9289.9625
2252.25044	9308.7625
2255.14561	9274.5625
2258.03893	9253.0625
2260.93041	9212.9625
2263.82004	9226.2625
2266.70783	9206.3625
2269.59378	9176.5625
2272.4779	9146.2625
2275.36017	9112.4625
2278.24061	9111.6625
2281.11922	9102.8625
2283.996	9066.0625
2286.87094	9027.6625
2289.74405	9037.9625
2292.61534	8998.2625
2295.4848	9001.4625
2298.35243	8994.2625
2301.21824	9004.5625
2304.08223	8978.3625
2306.94439	8960.1625
2309.80474	8957.6625
2312.66327	8956.1625
2315.51999	8944.8625
2318.37489	8942.2625
2321.22797	8902.7625
2324.07925	8912.9625
2326.92871	8892.1625
2329.77637	8873.6625
2332.62222	8858.1625
2335.46626	8813.8625
2338.3085	8798.9625
2341.14893	8814.1625
2343.98756	8813.3625
2346.8244	8785.6625
2349.65943	8779.5625
2352.49267	8747.1625
2355.32411	8773.6625
2358.15376	8765.5625
2360.98161	8775.6625
2363.80768	8746.9625
2366.63195	8766.3625
2369.45444	8756.9625
2372.27514	8719.7625
2375.09405	8706.5625
2377.91118	8689.3625
2380.72652	8680.9625
2383.54009	8650.1625
2386.35187	8656.0625
2389.16188	8628.0625
2391.97011	8603.6625
2394.77657	8589.6625
2397.58125	8578.3625
2400.38416	8547.7625
2403.18529	8543.3625
2405.98466	8543.4625
2408.78226	8543.7625
2411.57809	8539.8625
2414.37216	8481.6625
2417.16446	8466.3625
2419.955	8467.8625
2422.74378	8481.1625
2425.5308	8467.6625
2428.31606	8449.6625
2431.09956	8444.8625
2433.88131	8428.6625
2436.6613	8419.3625
2439.43954	8412.2625
2442.21603	8415.0625
2444.99077	8408.1625
2447.76377	8406.5625
2450.53501	8381.7625
2453.30451	8374.1625
2456.07226	8343.5625
2458.83827	8337.9625
2461.60254	8354.8625
2464.36507	8350.5625
2467.12586	8327.0625
2469.88492	8325.2625
2472.64224	8309.7625
2475.39782	8313.7625
2478.15167	8293.2625
2480.90379	8293.8625
2483.65417	8291.8625
2486.40283	8294.4625
2489.14976	8310.5625
2491.89497	8279.5625
2494.63845	8278.6625
2497.3802	8254.4625
2500.12024	8245.6625
2502.85855	8261.4625
2505.59514	8240.4625
2508.33002	8225.2625
2511.06318	8205.2625
2513.79462	8218.8625
2516.52435	8200.4625
2519.25237	8182.2625
2521.97867	8179.3625
2524.70327	8171.9625
2527.42616	8165.5625
2530.14734	8136.7625
2532.86681	8100.3625
2535.58458	8096.8625
2538.30065	8108.8625
2541.01501	8103.9625
2543.72768	8077.5625
2546.43864	8075.1625
2549.14791	8040.4625
2551.85548	8056.5625
2554.56136	8037.5625
2557.26554	8029.2625
2559.96803	8005.0625
2562.66883	7993.9625
2565.36794	7983.7625
2568.06536	7968.7625
2570.7611	7951.0625
2573.45514	7924.2625
2576.14751	7897.1625
2578.83819	7901.5625
2581.52719	7886.1625
2584.21451	7873.0625
2586.90015	7875.0625
2589.58411	7866.7625
2592.2664	7834.0625
2594.94701	7831.2625
2597.62594	7826.4625
2600.30321	7802.7625
2602.9788	7784.6625
2605.65273	7777.2625
2608.32498	7771.8625
2610.99557	7765.6625
2613.66449	7756.8625
2616.33175	7738.2625
2618.99734	7743.5625
2621.66128	7735.4625
2624.32355	7723.9625
2626.98416	7712.2625
2629.64311	7702.2625
2632.30041	7697.1625
2634.95605	7683.1625
2637.61004	7665.9625
2640.26238	7647.2625
2642.91306	7658.6625
2645.56209	7650.0625
2648.20948	7634.6625
2650.85521	7639.3625
2653.4993	7639.7625
2656.14175	7622.7625
2658.78255	7648.0625
2661.42171	7658.7625
2664.05923	7648.1625
2666.6951	7617.3625
2669.32934	7625.8625
2671.96194	7620.6625
2674.59291	7636.9625
2677.22224	7609.7625
2679.84993	7627.2625
2682.476	7614.2625
2685.10043	7619.7625
2687.72324	7591.1625
2690.34441	7600.2625
2692.96396	7592.2625
2695.58188	7592.5625
2698.19818	7595.8625
2700.81285	7606.7625
2703.4259	7578.0625
2706.03733	7571.4625
2708.64714	7566.4625
2711.25533	7578.9625
2713.86191	7568.4625
2716.46687	7584.3625
2719.07021	7595.7625
2721.67194	7603.2625
2724.27206	7579.9625
2726.87057	7590.9625
2729.46747	7606.4625
2732.06276	7589.8625
2734.65644	7566.6625
2737.24852	7581.2625
2739.83899	7551.6625
2742.42786	7574.5625
2745.01513	7540.8625
2747.60079	7535.3625
2750.18486	7522.5625
2752.76733	7519.9625
2755.3482	7522.0625
2757.92747	7507.9625
2760.50515	7509.0625
2763.08123	7487.1625
2765.65573	7485.1625
2768.22863	7488.4625
2770.79994	7481.9625
2773.36967	7441.2625
2775.9378	7434.6625
2778.50435	7438.2625
2781.06932	7400.6625
2783.6327	7418.8625
2786.1945	7407.4625
2788.75471	7372.8625
2791.31335	7375.3625
2793.87041	7366.8625
2796.42589	7345.9625
2798.97979	7352.4625
2801.53212	7306.2625
2804.08288	7303.4625
2806.63206	7294.7625
2809.17967	7275.2625
2811.72571	7240.7625
2814.27018	7223.1625
2816.81308	7231.0625
2819.35442	7228.3625
2821.89419	7226.7625
2824.43239	7202.7625
2826.96904	7199.2625
2829.50412	7178.9625
2832.03763	7171.3625
2834.56959	7158.5625
2837.1	7147.7625
2839.62884	7163.7625
2842.15613	7124.3625
2844.68186	7144.8625
2847.20604	7162.5625
2849.72867	7145.1625
2852.24974	7155.6625
2854.76927	7134.3625
2857.28724	7123.6625
2859.80367	7112.3625
2862.31855	7101.5625
2864.83189	7096.3625
2867.34368	7074.9625
2869.85393	7081.3625
2872.36264	7059.2625
2874.8698	7061.4625
2877.37543	7032.2625
2879.87952	7048.4625
2882.38207	7034.9625
2884.88308	7022.0625
2887.38256	7035.2625
2889.88051	7019.8625
2892.37692	7008.1625
2894.8718	7031.2625
2897.36515	7033.2625
2899.85698	7017.6625
2902.34727	7040.2625
2904.83604	7009.9625
2907.32328	7039.2625
2909.809	7022.2625
2912.29319	7025.4625
2914.77587	7046.8625
2917.25702	7012.9625
2919.73665	7020.2625
2922.21476	7020.0625
2924.69136	7014.3625
2927.16644	7020.8625
2929.64	7005.7625
2932.11205	7006.2625
2934.58258	6957.8625
2937.05161	6985.5625
2939.51912	6981.7625
2941.98513	6980.5625
2944.44962	6929.6625
2946.91261	6891.9625
2949.37409	6927.5625
2951.83407	6923.3625
2954.29254	6894.9625
2956.74951	6894.0625
2959.20498	6873.4625
2961.65895	6876.1625
2964.11142	6883.0625
2966.56239	6883.4625
2969.01186	6881.8625
2971.45984	6843.9625
2973.90632	6854.8625
2976.35131	6823.9625
2978.7948	6822.6625
2981.23681	6805.4625
2983.67732	6799.1625
2986.11635	6795.7625
2988.55388	6768.1625
2990.98993	6756.7625
2993.4245	6741.0625
2995.85758	6729.9625
2998.28917	6706.3625
3000.71928	6684.4625
3003.14791	6687.0625
3005.57506	6668.1625
3008.00073	6661.6625
3010.42493	6664.7625
3012.84764	6641.6625
3015.26888	6653.9625
3017.68865	6615.9625
3020.10694	6613.1625
3022.52376	6580.1625
3024.9391	6573.4625
3027.35298	6581.1625
3029.76539	6574.8625
3032.17632	6570.4625
3034.5858	6549.4625
3036.9938	6540.5625
3039.40034	6550.7625
3041.80542	6538.4625
3044.20903	6511.5625
3046.61118	6525.3625
3049.01187	6515.0625
3051.4111	6511.4625
3053.80888	6482.0625
3056.20519	6477.6625
3058.60005	6448.4625
3060.99345	6441.0625
3063.3854	6417.3625
3065.7759	6404.8625
3068.16494	6404.1625
3070.55254	6390.0625
3072.93868	6383.7625
3075.32338	6355.0625
3077.70662	6350.2625
3080.08842	6341.6625
3082.46878	6339.8625
3084.84769	6321.2625
3087.22515	6321.7625
3089.60118	6315.7625
3091.97576	6318.5625
3094.3489	6299.9625
3096.72061	6312.3625
3099.09087	6313.5625
3101.4597	6302.4625
3103.82709	6299.7625
3106.19305	6288.9625
3108.55757	6308.6625
3110.92066	6264.3625
3113.28232	6262.4625
3115.64255	6255.3625
3118.00134	6230.8625
3120.35871	6245.8625
3122.71466	6229.5625
3125.06917	6212.0625
3127.42226	6190.5625
3129.77393	6198.6625
3132.12417	6194.2625
3134.47299	6207.4625
3136.82039	6202.1625
3139.16636	6204.2625
3141.51092	6186.0625
3143.85406	6190.6625
3146.19579	6209.6625
3148.53609	6218.3625
3150.87499	6214.8625
3153.21246	6200.8625
3155.54853	6215.6625
3157.88318	6201.8625
3160.21642	6215.5625
3162.54826	6232.9625
3164.87868	6211.7625
3167.2077	6219.4625
3169.5353	6212.4625
3171.86151	6225.9625
3174.18631	6217.0625
3176.5097	6191.3625
3178.83169	6188.7625
3181.15228	6195.4625
3183.47147	6162.5625
3185.78926	6175.0625
3188.10565	6143.3625
3190.42065	6146.1625
3192.73424	6146.8625
3195.04645	6142.0625
3197.35725	6145.9625
3199.66667	6136.6625
3201.97469	6133.9625
3204.28132	6137.2625
3206.58656	6143.8625
3208.8904	6147.4625
3211.19287	6154.8625
3213.49394	6148.4625
3215.79363	6151.0625
3218.09193	6154.4625
3220.38884	6140.2625
3222.68438	6149.1625
3224.97853	6126.6625
3227.2713	6131.7625
3229.56269	6122.3625
3231.8527	6117.2625
3234.14133	6107.3625
3236.42858	6067.9625
3238.71446	6102.4625
3240.99896	6080.9625
3243.28209	6080.1625
3245.56384	6051.8625
3247.84423	6046.1625
3250.12324	6047.9625
3252.40088	6049.4625
3254.67715	6052.8625
3256.95205	6033.1625
3259.22558	6034.9625
3261.49775	6044.7625
3263.76855	6021.7625
3266.03799	5984.4625
3268.30606	5996.0625
3270.57277	5981.6625
3272.83812	5961.0625
3275.10211	5946.8625
3277.36474	5950.5625
3279.62601	5935.8625
3281.88593	5915.1625
3284.14448	5938.0625
3286.40168	5943.3625
3288.65753	5932.9625
3290.91202	5933.3625
3293.16516	5910.6625
3295.41695	5885.5625
3297.66738	5848.9625
3299.91647	5823.9625
3302.16421	5776.0625
3304.4106	5782.6625
3306.65564	5737.5625
3308.89933	5693.7625
3311.14169	5662.5625
3313.38269	5600.3625
3315.62236	5574.2625
3317.86068	5514.8625
3320.09766	5487.5625
3322.3333	5452.2625
3324.5676	5442.6625
3326.80056	5346.3625
3329.03219	5317.2625
3331.26248	0.9625
3333.49143	0.1625
3335.71905	-1.0375
