Data from AgNPs_FTO_APTES_UA_1uM_CRN_1000uM_R6G_10uM_NaF_0.1M_Addition_RamanShift__10__18-45-19-927.txt Node

Date: Thu Jan 27 18:45:19 GMT 2022
User: TCL
Spectrometer: QEP01345
Trigger mode: 4
Integration Time (sec): 7.000000E0
Scans to average: 10
Electric dark correction enabled: true
Nonlinearity correction enabled: false
Boxcar width: 0
XAxis mode: Raman Shifts
Number of Pixels in Spectrum: 1044
>>>>>Begin Spectral Data<<<<<
46.04893	1.2375
50.45542	0.7375
54.85868	-1.2625
59.25871	0.2375
63.6555	38.5375
68.04907	41.1375
72.43941	46.7375
76.82654	48.3375
81.21044	48.9375
85.59113	50.8375
89.96862	52.0375
94.34289	55.5375
98.71396	58.2375
103.08183	53.8375
107.4465	56.7375
111.80798	62.4375
116.16626	61.7375
120.52136	66.6375
124.87327	67.8375
129.222	65.5375
133.56755	70.5375
137.90993	77.9375
142.24913	79.8375
146.58517	89.0375
150.91804	102.6375
155.24774	115.3375
159.57429	139.5375
163.89768	173.7375
168.21792	229.2375
172.53501	307.7375
176.84895	427.7375
181.15975	591.8375
185.46741	833.0375
189.77193	1143.5375
194.07331	1547.8375
198.37157	2002.6375
202.6667	2485.3375
206.9587	2956.7375
211.24758	3426.7375
215.53334	3910.0375
219.81599	4404.7375
224.09553	4923.9375
228.37195	5510.0375
232.64527	6129.5375
236.91549	6798.9375
241.18261	7467.5375
245.44663	8135.4375
249.70755	8735.3375
253.96539	9249.2375
258.22014	9688.4375
262.4718	10029.2375
266.72039	10240.4375
270.96589	10378.0375
275.20832	10348.3375
279.44768	10268.7375
283.68397	10143.9375
287.91719	9992.5375
292.14735	9869.3375
296.37445	9774.2375
300.59849	9779.7375
304.81948	9790.6375
309.03742	9768.8375
313.25231	9691.8375
317.46415	9509.4375
321.67296	9357.9375
325.87872	9216.6375
330.08145	9132.0375
334.28114	9138.2375
338.47781	9197.5375
342.67145	9314.6375
346.86207	9449.8375
351.04966	9596.3375
355.23424	9769.6375
359.4158	9895.2375
363.59435	10021.7375
367.76989	10104.6375
371.94243	10156.6375
376.11196	10213.1375
380.27849	10266.0375
384.44203	10322.1375
388.60257	10371.3375
392.76012	10440.1375
396.91468	10549.4375
401.06626	10667.6375
405.21485	10771.7375
409.36047	10761.4375
413.50311	10630.9375
417.64277	10531.8375
421.77947	10523.6375
425.9132	10576.3375
430.04396	10623.5375
434.17176	10673.1375
438.2966	10730.4375
442.41849	10798.5375
446.53742	10894.9375
450.6534	11083.3375
454.76644	11176.5375
458.87653	11245.8375
462.98368	11238.2375
467.08789	11181.3375
471.18916	11076.9375
475.2875	10974.8375
479.38291	10865.3375
483.4754	10794.2375
487.56496	10714.3375
491.6516	10661.8375
495.73531	10638.7375
499.81612	10651.7375
503.89401	10716.8375
507.96899	10775.0375
512.04106	10814.6375
516.11023	10815.4375
520.1765	10763.7375
524.23987	10714.1375
528.30034	10617.3375
532.35792	10580.7375
536.41261	10483.9375
540.46441	10428.2375
544.51333	10376.7375
548.55936	10439.7375
552.60252	10564.3375
556.64279	10718.4375
560.6802	10791.0375
564.71473	10827.9375
568.7464	10872.2375
572.7752	11019.9375
576.80114	11218.1375
580.82422	11422.5375
584.84444	11751.3375
588.86181	12138.7375
592.87633	12427.5375
596.888	12413.9375
600.89682	12100.8375
604.9028	11955.3375
608.90594	12522.4375
612.90624	13396.4375
616.90371	13056.4375
620.89834	11459.3375
624.89015	10663.8375
628.87913	10552.2375
632.86528	10615.6375
636.84862	10700.1375
640.82913	10654.3375
644.80683	10485.9375
648.78172	10389.0375
652.75379	10413.1375
656.72306	10460.0375
660.68952	10590.5375
664.65319	10575.7375
668.61405	10461.9375
672.57211	10476.5375
676.52738	10570.0375
680.47986	10637.5375
684.42955	10640.9375
688.37646	10553.6375
692.32058	10476.7375
696.26192	10514.4375
700.20048	10531.2375
704.13626	10552.4375
708.06928	10546.4375
711.99952	10559.1375
715.927	10554.0375
719.85171	10525.6375
723.77365	10504.0375
727.69284	10420.2375
731.60928	10363.0375
735.52295	10333.2375
739.43388	10317.8375
743.34206	10321.9375
747.24749	10366.1375
751.15017	10436.0375
755.05012	10540.8375
758.94733	10691.2375
762.8418	11011.5375
766.73354	11544.8375
770.62254	12211.3375
774.50882	12482.0375
778.39237	12204.9375
782.27321	11531.8375
786.15132	10952.9375
790.02671	10587.3375
793.89938	10368.9375
797.76935	10280.3375
801.6366	10250.5375
805.50115	10195.5375
809.36299	10161.5375
813.22213	10090.1375
817.07857	10083.2375
820.93231	10072.3375
824.78336	10050.0375
828.63172	10033.4375
832.47738	10019.7375
836.32036	9997.2375
840.16066	9973.7375
843.99827	9985.5375
847.8332	9990.2375
851.66546	9970.8375
855.49504	9974.7375
859.32195	9971.3375
863.1462	9950.1375
866.96777	9979.5375
870.78668	9990.6375
874.60293	9983.4375
878.41652	10017.0375
882.22745	10010.8375
886.03573	10039.4375
889.84136	10059.2375
893.64433	10050.9375
897.44466	10001.0375
901.24235	9993.2375
905.0374	9934.5375
908.8298	9915.9375
912.61957	9891.9375
916.40671	9947.9375
920.19121	9982.1375
923.97308	10067.8375
927.75233	10127.2375
931.52895	10079.0375
935.30295	9998.0375
939.07433	9858.2375
942.84309	9729.0375
946.60924	9649.0375
950.37278	9596.6375
954.13371	9583.0375
957.89203	9559.3375
961.64774	9562.5375
965.40086	9520.1375
969.15137	9497.2375
972.89929	9445.9375
976.64461	9422.8375
980.38733	9400.5375
984.12747	9394.2375
987.86502	9390.4375
991.59999	9432.0375
995.33237	9446.6375
999.06217	9507.8375
1002.78939	9579.9375
1006.51404	9675.9375
1010.23611	9780.3375
1013.95561	9883.6375
1017.67255	9918.7375
1021.38692	9879.8375
1025.09872	9792.5375
1028.80796	9697.7375
1032.51465	9637.4375
1036.21877	9631.7375
1039.92035	9653.0375
1043.61937	9687.6375
1047.31584	9738.6375
1051.00976	9793.0375
1054.70114	9833.0375
1058.38998	9867.2375
1062.07627	9922.9375
1065.76003	10010.1375
1069.44126	10098.9375
1073.11995	10202.8375
1076.79611	10293.5375
1080.46974	10331.9375
1084.14085	10304.0375
1087.80943	10284.8375
1091.47549	10310.3375
1095.13903	10356.6375
1098.80005	10278.3375
1102.45857	10126.7375
1106.11456	10001.4375
1109.76805	9916.5375
1113.41903	9913.0375
1117.06751	9934.7375
1120.71348	10041.2375
1124.35696	10180.1375
1127.99793	10346.5375
1131.63641	10459.0375
1135.2724	10349.2375
1138.90589	10193.7375
1142.5369	10108.4375
1146.16542	10103.1375
1149.79145	10099.0375
1153.415	10074.9375
1157.03607	10137.9375
1160.65467	10263.9375
1164.27079	10524.9375
1167.88443	10909.7375
1171.49561	11287.2375
1175.10432	11794.7375
1178.71056	12471.3375
1182.31434	13118.7375
1185.91565	13481.3375
1189.51451	13475.6375
1193.11091	13216.5375
1196.70485	12801.1375
1200.29634	12404.2375
1203.88538	12060.1375
1207.47197	11768.4375
1211.05612	11519.2375
1214.63782	11309.7375
1218.21708	11117.7375
1221.79391	10947.5375
1225.36829	10825.4375
1228.94024	10781.3375
1232.50976	10749.7375
1236.07685	10707.9375
1239.6415	10643.1375
1243.20374	10624.5375
1246.76355	10636.3375
1250.32093	10696.8375
1253.8759	10779.2375
1257.42845	10923.7375
1260.97859	11093.8375
1264.52631	11303.9375
1268.07163	11494.0375
1271.61453	11683.7375
1275.15503	11848.2375
1278.69312	12076.5375
1282.22882	12265.0375
1285.76211	12507.7375
1289.29301	12816.5375
1292.82151	13206.2375
1296.34761	13663.4375
1299.87133	14228.0375
1303.39266	14848.0375
1306.9116	15462.2375
1310.42815	16044.5375
1313.94233	16368.1375
1317.45412	16257.8375
1320.96354	15850.9375
1324.47058	15424.9375
1327.97525	15044.4375
1331.47754	14870.6375
1334.97747	14731.6375
1338.47502	14693.5375
1341.97022	14689.6375
1345.46305	14772.8375
1348.95352	14949.2375
1352.44163	15267.9375
1355.92738	15801.1375
1359.41078	16527.2375
1362.89183	17161.0375
1366.37053	17036.3375
1369.84688	15891.9375
1373.32088	14356.8375
1376.79254	13108.3375
1380.26186	12520.7375
1383.72883	12283.7375
1387.19347	12109.2375
1390.65578	11910.5375
1394.11575	11753.0375
1397.57339	11792.4375
1401.0287	11849.1375
1404.48168	11973.5375
1407.93234	11974.3375
1411.38068	11850.7375
1414.82669	11687.6375
1418.27039	11437.8375
1421.71177	11154.6375
1425.15083	10948.6375
1428.58758	10791.7375
1432.02203	10783.6375
1435.45416	10906.0375
1438.88399	11057.9375
1442.31151	11129.7375
1445.73673	11172.0375
1449.15965	11218.5375
1452.58027	11246.7375
1455.9986	11246.3375
1459.41463	11299.5375
1462.82837	11397.4375
1466.23982	11592.5375
1469.64898	11765.8375
1473.05586	11882.5375
1476.46045	11948.3375
1479.86276	11941.8375
1483.26279	11986.3375
1486.66054	12044.0375
1490.05602	12189.5375
1493.44922	12407.9375
1496.84016	12723.4375
1500.22882	13188.5375
1503.61521	13787.4375
1506.99934	14435.5375
1510.38121	14953.8375
1513.76081	15006.8375
1517.13816	14515.0375
1520.51324	13825.0375
1523.88607	13214.2375
1527.25665	12828.2375
1530.62498	12609.2375
1533.99105	12439.4375
1537.35488	12304.8375
1540.71647	12106.9375
1544.07581	11937.7375
1547.4329	11718.2375
1550.78776	11507.1375
1554.14038	11340.7375
1557.49077	11265.5375
1560.83892	11225.0375
1564.18484	11279.4375
1567.52853	11321.3375
1570.86999	11482.4375
1574.20922	11677.5375
1577.54624	11768.3375
1580.88103	11688.7375
1584.2136	11504.9375
1587.54395	11447.4375
1590.87208	11621.4375
1594.19801	12006.2375
1597.52172	12556.9375
1600.84321	12882.3375
1604.16251	12707.4375
1607.47959	12184.5375
1610.79447	11517.1375
1614.10715	10871.1375
1617.41763	10253.9375
1620.7259	9796.9375
1624.03199	9524.9375
1627.33587	9421.5375
1630.63757	9472.3375
1633.93707	9749.4375
1637.23439	10242.9375
1640.52951	11056.2375
1643.82246	12286.3375
1647.11321	13465.5375
1650.40179	14090.5375
1653.68819	13620.5375
1656.97241	12389.4375
1660.25446	10966.3375
1663.53433	9895.1375
1666.81203	9212.8375
1670.08756	8771.1375
1673.36092	8519.3375
1676.63211	8358.9375
1679.90115	8261.0375
1683.16801	8129.4375
1686.43272	8075.6375
1689.69527	8007.8375
1692.95567	7935.7375
1696.2139	7872.2375
1699.46999	7823.1375
1702.72392	7773.1375
1705.97571	7789.7375
1709.22535	7818.6375
1712.47284	7845.5375
1715.71819	7823.2375
1718.96139	7823.8375
1722.20246	7821.6375
1725.44139	7783.0375
1728.67818	7750.7375
1731.91284	7705.8375
1735.14537	7666.6375
1738.37576	7642.6375
1741.60403	7628.2375
1744.83017	7611.2375
1748.05418	7572.4375
1751.27607	7570.8375
1754.49584	7587.2375
1757.71349	7610.5375
1760.92903	7570.2375
1764.14244	7566.5375
1767.35375	7544.6375
1770.56294	7510.5375
1773.77002	7473.7375
1776.97499	7456.8375
1780.17785	7445.6375
1783.37861	7423.2375
1786.57727	7412.7375
1789.77382	7400.4375
1792.96828	7362.8375
1796.16064	7338.6375
1799.3509	7309.1375
1802.53907	7305.7375
1805.72514	7270.3375
1808.90913	7260.3375
1812.09102	7228.7375
1815.27083	7216.0375
1818.44856	7205.3375
1821.6242	7187.7375
1824.79776	7166.7375
1827.96924	7170.2375
1831.13864	7139.5375
1834.30597	7154.5375
1837.47122	7130.2375
1840.6344	7116.3375
1843.7955	7104.4375
1846.95454	7101.7375
1850.11151	7104.4375
1853.26642	7084.6375
1856.41926	7089.8375
1859.57004	7091.8375
1862.71876	7056.5375
1865.86542	7052.6375
1869.01003	7043.3375
1872.15258	7027.3375
1875.29308	7013.8375
1878.43152	7020.7375
1881.56792	7010.1375
1884.70227	6975.8375
1887.83457	6970.9375
1890.96482	6964.6375
1894.09304	6928.0375
1897.21921	6932.6375
1900.34335	6947.0375
1903.46544	6899.2375
1906.58551	6900.4375
1909.70353	6883.2375
1912.81953	6861.3375
1915.93349	6867.6375
1919.04543	6841.9375
1922.15534	6833.7375
1925.26322	6826.7375
1928.36908	6812.6375
1931.47292	6786.9375
1934.57473	6760.7375
1937.67453	6751.9375
1940.77232	6706.8375
1943.86808	6700.8375
1946.96184	6695.6375
1950.05358	6655.0375
1953.14331	6651.7375
1956.23103	6618.4375
1959.31675	6610.4375
1962.40046	6578.2375
1965.48217	6565.0375
1968.56188	6560.0375
1971.63959	6519.9375
1974.7153	6518.6375
1977.78901	6474.9375
1980.86073	6459.5375
1983.93046	6442.1375
1986.99819	6395.4375
1990.06394	6379.1375
1993.1277	6379.2375
1996.18947	6359.5375
1999.24925	6349.6375
2002.30706	6306.3375
2005.36288	6296.1375
2008.41672	6269.1375
2011.46859	6254.6375
2014.51848	6228.7375
2017.56639	6208.1375
2020.61233	6202.0375
2023.6563	6187.1375
2026.6983	6146.9375
2029.73833	6157.9375
2032.7764	6120.6375
2035.8125	6096.7375
2038.84664	6094.1375
2041.87881	6068.6375
2044.90903	6061.2375
2047.93729	6057.0375
2050.96359	6027.1375
2053.98794	6017.0375
2057.01034	6018.5375
2060.03078	5999.1375
2063.04927	6012.8375
2066.06582	5997.9375
2069.08042	5992.3375
2072.09307	5994.6375
2075.10378	5991.2375
2078.11255	5974.5375
2081.11938	5980.4375
2084.12426	5972.4375
2087.12722	5936.4375
2090.12824	5968.6375
2093.12732	5958.3375
2096.12447	5957.9375
2099.11969	5948.5375
2102.11299	5941.9375
2105.10435	5951.0375
2108.09379	5954.9375
2111.08131	5963.3375
2114.0669	5970.3375
2117.05057	5946.8375
2120.03233	5976.7375
2123.01216	5980.0375
2125.99008	5955.2375
2128.96609	5964.6375
2131.94018	5978.5375
2134.91236	5974.7375
2137.88263	5963.2375
2140.851	5973.3375
2143.81746	5969.5375
2146.78201	5966.9375
2149.74466	5948.9375
2152.7054	5969.0375
2155.66425	5943.9375
2158.6212	5955.8375
2161.57625	5932.2375
2164.52941	5933.9375
2167.48067	5948.4375
2170.43004	5946.4375
2173.37752	5930.8375
2176.32311	5922.1375
2179.26681	5928.9375
2182.20863	5901.8375
2185.14856	5913.0375
2188.08661	5894.9375
2191.02278	5903.5375
2193.95707	5891.4375
2196.88948	5883.3375
2199.82001	5877.6375
2202.74867	5854.5375
2205.67545	5857.2375
2208.60037	5846.3375
2211.52341	5822.6375
2214.44458	5819.4375
2217.36388	5813.6375
2220.28132	5802.7375
2223.1969	5777.2375
2226.11061	5778.3375
2229.02246	5767.5375
2231.93245	5747.1375
2234.84058	5744.3375
2237.74686	5729.0375
2240.65128	5732.6375
2243.55385	5713.5375
2246.45456	5690.2375
2249.35343	5673.7375
2252.25044	5677.0375
2255.14561	5661.6375
2258.03893	5650.9375
2260.93041	5635.5375
2263.82004	5625.2375
2266.70783	5615.9375
2269.59378	5582.8375
2272.4779	5590.8375
2275.36017	5554.4375
2278.24061	5564.1375
2281.11922	5546.1375
2283.996	5536.7375
2286.87094	5523.5375
2289.74405	5509.7375
2292.61534	5499.6375
2295.4848	5495.8375
2298.35243	5481.4375
2301.21824	5471.8375
2304.08223	5486.8375
2306.94439	5464.1375
2309.80474	5455.8375
2312.66327	5459.6375
2315.51999	5433.2375
2318.37489	5432.9375
2321.22797	5413.7375
2324.07925	5406.9375
2326.92871	5403.8375
2329.77637	5399.4375
2332.62222	5398.6375
2335.46626	5366.9375
2338.3085	5365.7375
2341.14893	5358.4375
2343.98756	5359.3375
2346.8244	5334.0375
2349.65943	5345.2375
2352.49267	5322.3375
2355.32411	5314.9375
2358.15376	5315.4375
2360.98161	5307.9375
2363.80768	5308.7375
2366.63195	5308.9375
2369.45444	5317.4375
2372.27514	5301.5375
2375.09405	5305.2375
2377.91118	5290.1375
2380.72652	5282.9375
2383.54009	5251.9375
2386.35187	5242.1375
2389.16188	5206.4375
2391.97011	5209.3375
2394.77657	5192.6375
2397.58125	5180.1375
2400.38416	5177.6375
2403.18529	5154.0375
2405.98466	5152.2375
2408.78226	5148.6375
2411.57809	5147.2375
2414.37216	5130.8375
2417.16446	5127.2375
2419.955	5110.1375
2422.74378	5124.9375
2425.5308	5116.5375
2428.31606	5101.6375
2431.09956	5085.7375
2433.88131	5083.3375
2436.6613	5081.9375
2439.43954	5073.6375
2442.21603	5082.4375
2444.99077	5066.4375
2447.76377	5050.2375
2450.53501	5050.4375
2453.30451	5050.7375
2456.07226	5028.0375
2458.83827	5027.9375
2461.60254	5023.2375
2464.36507	5039.0375
2467.12586	5014.4375
2469.88492	5007.9375
2472.64224	5016.3375
2475.39782	5008.4375
2478.15167	4991.9375
2480.90379	4984.6375
2483.65417	4975.8375
2486.40283	4979.5375
2489.14976	4965.6375
2491.89497	4989.2375
2494.63845	4946.8375
2497.3802	4938.5375
2500.12024	4948.2375
2502.85855	4948.2375
2505.59514	4946.0375
2508.33002	4940.2375
2511.06318	4906.0375
2513.79462	4914.1375
2516.52435	4902.3375
2519.25237	4901.7375
2521.97867	4877.7375
2524.70327	4901.8375
2527.42616	4887.0375
2530.14734	4859.0375
2532.86681	4851.8375
2535.58458	4841.3375
2538.30065	4844.9375
2541.01501	4833.4375
2543.72768	4809.8375
2546.43864	4827.6375
2549.14791	4797.8375
2551.85548	4815.1375
2554.56136	4788.7375
2557.26554	4795.6375
2559.96803	4765.9375
2562.66883	4758.2375
2565.36794	4757.1375
2568.06536	4750.3375
2570.7611	4733.0375
2573.45514	4730.5375
2576.14751	4726.3375
2578.83819	4696.9375
2581.52719	4690.7375
2584.21451	4681.2375
2586.90015	4672.2375
2589.58411	4663.0375
2592.2664	4681.2375
2594.94701	4641.0375
2597.62594	4633.5375
2600.30321	4625.9375
2602.9788	4639.6375
2605.65273	4628.0375
2608.32498	4600.9375
2610.99557	4602.7375
2613.66449	4582.8375
2616.33175	4575.6375
2618.99734	4572.8375
2621.66128	4578.1375
2624.32355	4555.0375
2626.98416	4548.2375
2629.64311	4545.9375
2632.30041	4531.6375
2634.95605	4526.1375
2637.61004	4518.8375
2640.26238	4520.0375
2642.91306	4517.0375
2645.56209	4497.9375
2648.20948	4489.2375
2650.85521	4498.9375
2653.4993	4492.3375
2656.14175	4512.9375
2658.78255	4504.9375
2661.42171	4514.7375
2664.05923	4501.6375
2666.6951	4514.4375
2669.32934	4491.3375
2671.96194	4485.0375
2674.59291	4491.9375
2677.22224	4488.8375
2679.84993	4490.7375
2682.476	4482.6375
2685.10043	4481.8375
2687.72324	4475.7375
2690.34441	4470.1375
2692.96396	4467.8375
2695.58188	4474.6375
2698.19818	4474.3375
2700.81285	4474.2375
2703.4259	4464.7375
2706.03733	4434.0375
2708.64714	4447.6375
2711.25533	4462.9375
2713.86191	4443.9375
2716.46687	4448.1375
2719.07021	4476.0375
2721.67194	4463.7375
2724.27206	4466.4375
2726.87057	4466.1375
2729.46747	4471.1375
2732.06276	4457.7375
2734.65644	4452.2375
2737.24852	4454.5375
2739.83899	4448.9375
2742.42786	4442.9375
2745.01513	4425.7375
2747.60079	4424.0375
2750.18486	4409.5375
2752.76733	4416.7375
2755.3482	4412.7375
2757.92747	4386.6375
2760.50515	4390.9375
2763.08123	4387.4375
2765.65573	4387.6375
2768.22863	4374.6375
2770.79994	4358.4375
2773.36967	4360.4375
2775.9378	4346.8375
2778.50435	4358.4375
2781.06932	4339.8375
2783.6327	4329.7375
2786.1945	4327.6375
2788.75471	4319.7375
2791.31335	4310.4375
2793.87041	4300.2375
2796.42589	4302.6375
2798.97979	4296.9375
2801.53212	4291.1375
2804.08288	4291.3375
2806.63206	4284.0375
2809.17967	4255.5375
2811.72571	4239.7375
2814.27018	4246.8375
2816.81308	4248.9375
2819.35442	4231.1375
2821.89419	4234.2375
2824.43239	4232.9375
2826.96904	4219.9375
2829.50412	4210.9375
2832.03763	4216.8375
2834.56959	4224.4375
2837.1	4227.2375
2839.62884	4223.1375
2842.15613	4254.3375
2844.68186	4292.3375
2847.20604	4303.7375
2849.72867	4326.0375
2852.24974	4333.1375
2854.76927	4324.0375
2857.28724	4298.7375
2859.80367	4295.3375
2862.31855	4285.0375
2864.83189	4282.0375
2867.34368	4272.4375
2869.85393	4274.6375
2872.36264	4269.8375
2874.8698	4270.6375
2877.37543	4279.4375
2879.87952	4255.0375
2882.38207	4256.2375
2884.88308	4257.6375
2887.38256	4248.4375
2889.88051	4234.9375
2892.37692	4245.7375
2894.8718	4244.9375
2897.36515	4252.3375
2899.85698	4257.9375
2902.34727	4276.1375
2904.83604	4282.0375
2907.32328	4279.1375
2909.809	4265.1375
2912.29319	4271.7375
2914.77587	4278.2375
2917.25702	4283.6375
2919.73665	4270.0375
2922.21476	4294.9375
2924.69136	4286.7375
2927.16644	4298.0375
2929.64	4290.1375
2932.11205	4282.5375
2934.58258	4272.3375
2937.05161	4269.1375
2939.51912	4286.7375
2941.98513	4262.7375
2944.44962	4230.7375
2946.91261	4212.9375
2949.37409	4218.1375
2951.83407	4201.9375
2954.29254	4204.1375
2956.74951	4182.5375
2959.20498	4175.9375
2961.65895	4150.0375
2964.11142	4171.3375
2966.56239	4144.2375
2969.01186	4123.1375
2971.45984	4111.9375
2973.90632	4102.7375
2976.35131	4066.9375
2978.7948	4074.0375
2981.23681	4059.1375
2983.67732	4066.5375
2986.11635	4039.2375
2988.55388	4012.0375
2990.98993	3991.2375
2993.4245	3993.0375
2995.85758	3995.0375
2998.28917	3988.9375
3000.71928	3971.9375
3003.14791	3955.2375
3005.57506	3954.1375
3008.00073	3949.4375
3010.42493	3932.4375
3012.84764	3944.2375
3015.26888	3940.8375
3017.68865	3934.7375
3020.10694	3917.8375
3022.52376	3889.1375
3024.9391	3883.6375
3027.35298	3904.7375
3029.76539	3896.0375
3032.17632	3881.7375
3034.5858	3868.7375
3036.9938	3878.8375
3039.40034	3871.0375
3041.80542	3875.9375
3044.20903	3848.1375
3046.61118	3845.1375
3049.01187	3835.2375
3051.4111	3839.2375
3053.80888	3824.5375
3056.20519	3842.9375
3058.60005	3817.4375
3060.99345	3823.1375
3063.3854	3796.8375
3065.7759	3789.5375
3068.16494	3795.0375
3070.55254	3779.7375
3072.93868	3787.6375
3075.32338	3777.4375
3077.70662	3779.3375
3080.08842	3769.3375
3082.46878	3775.3375
3084.84769	3764.4375
3087.22515	3756.5375
3089.60118	3763.7375
3091.97576	3762.0375
3094.3489	3779.6375
3096.72061	3784.5375
3099.09087	3774.7375
3101.4597	3772.1375
3103.82709	3771.4375
3106.19305	3771.5375
3108.55757	3778.7375
3110.92066	3764.4375
3113.28232	3758.5375
3115.64255	3743.9375
3118.00134	3759.4375
3120.35871	3758.9375
3122.71466	3755.1375
3125.06917	3733.8375
3127.42226	3720.0375
3129.77393	3761.3375
3132.12417	3747.4375
3134.47299	3750.2375
3136.82039	3758.3375
3139.16636	3751.3375
3141.51092	3759.5375
3143.85406	3777.4375
3146.19579	3772.8375
3148.53609	3770.8375
3150.87499	3786.4375
3153.21246	3799.7375
3155.54853	3792.9375
3157.88318	3805.9375
3160.21642	3819.7375
3162.54826	3810.2375
3164.87868	3811.9375
3167.2077	3831.2375
3169.5353	3811.2375
3171.86151	3821.4375
3174.18631	3821.0375
3176.5097	3821.1375
3178.83169	3816.7375
3181.15228	3831.4375
3183.47147	3819.3375
3185.78926	3790.1375
3188.10565	3804.3375
3190.42065	3815.5375
3192.73424	3825.1375
3195.04645	3808.5375
3197.35725	3822.8375
3199.66667	3821.2375
3201.97469	3819.8375
3204.28132	3823.4375
3206.58656	3815.0375
3208.8904	3824.7375
3211.19287	3834.7375
3213.49394	3827.7375
3215.79363	3844.8375
3218.09193	3850.9375
3220.38884	3835.2375
3222.68438	3826.4375
3224.97853	3839.4375
3227.2713	3836.7375
3229.56269	3836.5375
3231.8527	3838.2375
3234.14133	3828.2375
3236.42858	3827.3375
3238.71446	3832.0375
3240.99896	3819.9375
3243.28209	3818.3375
3245.56384	3819.2375
3247.84423	3816.5375
3250.12324	3809.1375
3252.40088	3810.5375
3254.67715	3797.7375
3256.95205	3798.8375
3259.22558	3791.9375
3261.49775	3795.1375
3263.76855	3780.8375
3266.03799	3774.3375
3268.30606	3781.6375
3270.57277	3764.4375
3272.83812	3763.6375
3275.10211	3759.9375
3277.36474	3744.2375
3279.62601	3753.6375
3281.88593	3734.4375
3284.14448	3743.4375
3286.40168	3738.7375
3288.65753	3735.4375
3290.91202	3729.1375
3293.16516	3727.7375
3295.41695	3722.0375
3297.66738	3693.2375
3299.91647	3676.9375
3302.16421	3664.0375
3304.4106	3644.1375
3306.65564	3631.5375
3308.89933	3600.1375
3311.14169	3591.1375
3313.38269	3544.4375
3315.62236	3529.7375
3317.86068	3498.7375
3320.09766	3469.6375
3322.3333	3452.5375
3324.5676	3446.9375
3326.80056	3395.3375
3329.03219	3361.8375
3331.26248	1.4375
3333.49143	-1.5625
3335.71905	-0.8625
