Data from AgNPs_FTO_APTES_UA_1uM_CRN_0uM_R6G_10uM_NaF_0.1M_Addition_RamanShift__4__11-10-19-407.txt Node

Date: Thu Jan 27 11:10:19 GMT 2022
User: TCL
Spectrometer: QEP01345
Trigger mode: 4
Integration Time (sec): 7.000000E0
Scans to average: 10
Electric dark correction enabled: true
Nonlinearity correction enabled: false
Boxcar width: 0
XAxis mode: Raman Shifts
Number of Pixels in Spectrum: 1044
>>>>>Begin Spectral Data<<<<<
46.04893	1.1875
50.45542	0.6875
54.85868	0.3875
59.25871	0.3875
63.6555	23.9875
68.04907	26.4875
72.43941	26.8875
76.82654	29.3875
81.21044	27.4875
85.59113	27.3875
89.96862	30.1875
94.34289	31.8875
98.71396	35.9875
103.08183	32.8875
107.4465	35.9875
111.80798	36.6875
116.16626	38.0875
120.52136	40.8875
124.87327	42.2875
129.222	37.2875
133.56755	38.9875
137.90993	38.1875
142.24913	44.3875
146.58517	46.3875
150.91804	57.6875
155.24774	61.2875
159.57429	74.0875
163.89768	93.2875
168.21792	124.0875
172.53501	160.2875
176.84895	217.2875
181.15975	294.7875
185.46741	411.2875
189.77193	571.8875
194.07331	769.3875
198.37157	1010.1875
202.6667	1252.6875
206.9587	1500.9875
211.24758	1744.5875
215.53334	1990.1875
219.81599	2229.1875
224.09553	2500.8875
228.37195	2778.0875
232.64527	3083.6875
236.91549	3389.2875
241.18261	3698.8875
245.44663	4001.1875
249.70755	4270.0875
253.96539	4477.1875
258.22014	4668.2875
262.4718	4784.9875
266.72039	4872.8875
270.96589	4902.0875
275.20832	4860.9875
279.44768	4788.6875
283.68397	4685.3875
287.91719	4582.2875
292.14735	4476.2875
296.37445	4439.7875
300.59849	4415.4875
304.81948	4438.3875
309.03742	4437.1875
313.25231	4433.2875
317.46415	4344.0875
321.67296	4250.4875
325.87872	4183.6875
330.08145	4140.9875
334.28114	4134.8875
338.47781	4151.8875
342.67145	4169.0875
346.86207	4198.3875
351.04966	4269.0875
355.23424	4332.7875
359.4158	4392.4875
363.59435	4452.6875
367.76989	4462.5875
371.94243	4482.4875
376.11196	4482.9875
380.27849	4481.7875
384.44203	4488.6875
388.60257	4470.6875
392.76012	4486.3875
396.91468	4493.5875
401.06626	4508.6875
405.21485	4551.1875
409.36047	4532.0875
413.50311	4479.6875
417.64277	4422.3875
421.77947	4402.0875
425.9132	4323.9875
430.04396	4301.6875
434.17176	4305.6875
438.2966	4361.0875
442.41849	4421.6875
446.53742	4478.1875
450.6534	4533.6875
454.76644	4567.1875
458.87653	4583.4875
462.98368	4572.9875
467.08789	4557.9875
471.18916	4542.5875
475.2875	4524.0875
479.38291	4479.6875
483.4754	4466.2875
487.56496	4445.6875
491.6516	4434.9875
495.73531	4453.1875
499.81612	4457.7875
503.89401	4495.9875
507.96899	4523.3875
512.04106	4557.1875
516.11023	4587.2875
520.1765	4629.0875
524.23987	4618.6875
528.30034	4575.2875
532.35792	4570.9875
536.41261	4520.6875
540.46441	4477.1875
544.51333	4474.0875
548.55936	4477.6875
552.60252	4494.8875
556.64279	4559.8875
560.6802	4554.2875
564.71473	4546.4875
568.7464	4580.6875
572.7752	4587.8875
576.80114	4523.9875
580.82422	4490.7875
584.84444	4453.0875
588.86181	4469.2875
592.87633	4532.8875
596.888	4570.0875
600.89682	4610.4875
604.9028	4719.9875
608.90594	5111.3875
612.90624	5732.9875
616.90371	5819.6875
620.89834	5055.3875
624.89015	4609.1875
628.87913	4477.5875
632.86528	4477.7875
636.84862	4518.2875
640.82913	4518.6875
644.80683	4474.7875
648.78172	4444.7875
652.75379	4437.0875
656.72306	4495.1875
660.68952	4588.3875
664.65319	4581.5875
668.61405	4532.2875
672.57211	4518.0875
676.52738	4544.5875
680.47986	4587.3875
684.42955	4585.1875
688.37646	4567.8875
692.32058	4509.2875
696.26192	4494.6875
700.20048	4463.1875
704.13626	4470.6875
708.06928	4433.8875
711.99952	4445.0875
715.927	4463.2875
719.85171	4494.6875
723.77365	4525.2875
727.69284	4519.9875
731.60928	4558.4875
735.52295	4561.5875
739.43388	4562.2875
743.34206	4543.1875
747.24749	4535.1875
751.15017	4528.8875
755.05012	4532.4875
758.94733	4551.6875
762.8418	4676.8875
766.73354	4878.2875
770.62254	5188.1875
774.50882	5364.6875
778.39237	5317.4875
782.27321	5020.5875
786.15132	4741.1875
790.02671	4597.1875
793.89938	4529.4875
797.76935	4513.8875
801.6366	4520.6875
805.50115	4506.8875
809.36299	4473.0875
813.22213	4427.8875
817.07857	4368.3875
820.93231	4327.1875
824.78336	4320.2875
828.63172	4307.8875
832.47738	4323.4875
836.32036	4337.3875
840.16066	4332.7875
843.99827	4322.3875
847.8332	4301.3875
851.66546	4270.0875
855.49504	4266.3875
859.32195	4238.1875
863.1462	4229.6875
866.96777	4214.5875
870.78668	4206.1875
874.60293	4198.1875
878.41652	4215.3875
882.22745	4197.1875
886.03573	4216.8875
889.84136	4229.2875
893.64433	4248.6875
897.44466	4258.6875
901.24235	4270.1875
905.0374	4311.9875
908.8298	4305.2875
912.61957	4348.5875
916.40671	4426.9875
920.19121	4504.1875
923.97308	4588.1875
927.75233	4634.1875
931.52895	4675.2875
935.30295	4676.2875
939.07433	4610.0875
942.84309	4518.2875
946.60924	4462.4875
950.37278	4422.1875
954.13371	4376.7875
957.89203	4312.7875
961.64774	4247.0875
965.40086	4196.7875
969.15137	4151.4875
972.89929	4104.9875
976.64461	4063.1875
980.38733	4054.7875
984.12747	4055.5875
987.86502	4061.2875
991.59999	4071.4875
995.33237	4112.7875
999.06217	4155.7875
1002.78939	4212.2875
1006.51404	4247.7875
1010.23611	4297.4875
1013.95561	4327.7875
1017.67255	4320.0875
1021.38692	4299.5875
1025.09872	4269.8875
1028.80796	4207.8875
1032.51465	4171.5875
1036.21877	4153.2875
1039.92035	4135.5875
1043.61937	4141.7875
1047.31584	4156.5875
1051.00976	4159.6875
1054.70114	4184.1875
1058.38998	4182.0875
1062.07627	4173.8875
1065.76003	4171.8875
1069.44126	4143.3875
1073.11995	4120.0875
1076.79611	4127.4875
1080.46974	4120.7875
1084.14085	4128.3875
1087.80943	4131.8875
1091.47549	4111.2875
1095.13903	4082.7875
1098.80005	4016.8875
1102.45857	3962.3875
1106.11456	3929.5875
1109.76805	3905.7875
1113.41903	3952.2875
1117.06751	3978.5875
1120.71348	4018.0875
1124.35696	4079.5875
1127.99793	4119.7875
1131.63641	4157.2875
1135.2724	4095.1875
1138.90589	3986.8875
1142.5369	3934.2875
1146.16542	3878.3875
1149.79145	3840.8875
1153.415	3806.0875
1157.03607	3786.9875
1160.65467	3808.6875
1164.27079	3845.0875
1167.88443	3920.5875
1171.49561	4078.3875
1175.10432	4291.7875
1178.71056	4603.3875
1182.31434	4908.3875
1185.91565	5034.7875
1189.51451	4983.8875
1193.11091	4818.5875
1196.70485	4634.1875
1200.29634	4444.9875
1203.88538	4292.9875
1207.47197	4134.0875
1211.05612	3979.6875
1214.63782	3901.1875
1218.21708	3880.4875
1221.79391	3912.2875
1225.36829	3954.7875
1228.94024	4005.1875
1232.50976	4010.5875
1236.07685	3981.0875
1239.6415	3961.5875
1243.20374	3945.1875
1246.76355	3925.8875
1250.32093	3943.3875
1253.8759	3960.4875
1257.42845	3987.2875
1260.97859	4021.1875
1264.52631	4080.1875
1268.07163	4146.5875
1271.61453	4226.9875
1275.15503	4296.9875
1278.69312	4335.3875
1282.22882	4397.0875
1285.76211	4473.5875
1289.29301	4585.1875
1292.82151	4696.0875
1296.34761	4793.2875
1299.87133	4894.8875
1303.39266	5014.3875
1306.9116	5201.8875
1310.42815	5457.4875
1313.94233	5609.7875
1317.45412	5512.7875
1320.96354	5264.3875
1324.47058	4978.0875
1327.97525	4726.2875
1331.47754	4592.0875
1334.97747	4557.0875
1338.47502	4575.6875
1341.97022	4645.1875
1345.46305	4771.4875
1348.95352	4988.5875
1352.44163	5254.9875
1355.92738	5630.6875
1359.41078	6098.7875
1362.89183	6637.4875
1366.37053	6735.0875
1369.84688	6223.8875
1373.32088	5533.3875
1376.79254	5048.3875
1380.26186	4796.5875
1383.72883	4702.1875
1387.19347	4636.6875
1390.65578	4556.5875
1394.11575	4510.7875
1397.57339	4479.0875
1401.0287	4439.2875
1404.48168	4413.9875
1407.93234	4377.5875
1411.38068	4334.4875
1414.82669	4289.9875
1418.27039	4275.4875
1421.71177	4250.3875
1425.15083	4199.0875
1428.58758	4171.6875
1432.02203	4134.7875
1435.45416	4129.1875
1438.88399	4142.0875
1442.31151	4135.5875
1445.73673	4111.1875
1449.15965	4095.5875
1452.58027	4084.2875
1455.9986	4054.4875
1459.41463	4029.5875
1462.82837	4022.9875
1466.23982	4053.1875
1469.64898	4090.1875
1473.05586	4138.9875
1476.46045	4176.2875
1479.86276	4200.6875
1483.26279	4241.2875
1486.66054	4274.7875
1490.05602	4312.9875
1493.44922	4379.9875
1496.84016	4477.7875
1500.22882	4656.8875
1503.61521	4939.3875
1506.99934	5272.1875
1510.38121	5610.0875
1513.76081	5755.6875
1517.13816	5570.5875
1520.51324	5143.8875
1523.88607	4693.3875
1527.25665	4375.9875
1530.62498	4216.2875
1533.99105	4116.0875
1537.35488	4035.1875
1540.71647	3992.1875
1544.07581	3950.4875
1547.4329	3934.8875
1550.78776	3903.7875
1554.14038	3908.3875
1557.49077	3920.7875
1560.83892	3934.1875
1564.18484	3953.1875
1567.52853	4007.1875
1570.86999	4063.0875
1574.20922	4114.1875
1577.54624	4116.8875
1580.88103	4033.3875
1584.2136	3846.6875
1587.54395	3730.8875
1590.87208	3664.4875
1594.19801	3679.3875
1597.52172	3730.0875
1600.84321	3784.3875
1604.16251	3717.6875
1607.47959	3649.1875
1610.79447	3527.4875
1614.10715	3437.3875
1617.41763	3337.6875
1620.7259	3292.1875
1624.03199	3258.8875
1627.33587	3239.8875
1630.63757	3238.9875
1633.93707	3254.0875
1637.23439	3292.9875
1640.52951	3380.5875
1643.82246	3548.5875
1647.11321	3751.3875
1650.40179	3944.0875
1653.68819	3887.5875
1656.97241	3601.3875
1660.25446	3267.6875
1663.53433	3002.8875
1666.81203	2846.9875
1670.08756	2762.0875
1673.36092	2706.5875
1676.63211	2655.5875
1679.90115	2631.1875
1683.16801	2596.4875
1686.43272	2552.5875
1689.69527	2518.6875
1692.95567	2465.0875
1696.2139	2390.7875
1699.46999	2300.3875
1702.72392	2272.8875
1705.97571	2303.4875
1709.22535	2354.1875
1712.47284	2393.2875
1715.71819	2407.6875
1718.96139	2400.3875
1722.20246	2395.2875
1725.44139	2398.9875
1728.67818	2381.3875
1731.91284	2354.1875
1735.14537	2339.3875
1738.37576	2319.3875
1741.60403	2296.4875
1744.83017	2291.8875
1748.05418	2280.4875
1751.27607	2255.2875
1754.49584	2228.2875
1757.71349	2188.9875
1760.92903	2148.1875
1764.14244	2143.5875
1767.35375	2138.0875
1770.56294	2109.5875
1773.77002	2113.2875
1776.97499	2133.2875
1780.17785	2150.9875
1783.37861	2170.4875
1786.57727	2186.3875
1789.77382	2173.0875
1792.96828	2157.0875
1796.16064	2159.6875
1799.3509	2147.1875
1802.53907	2149.0875
1805.72514	2135.2875
1808.90913	2121.4875
1812.09102	2124.0875
1815.27083	2110.2875
1818.44856	2112.8875
1821.6242	2100.8875
1824.79776	2095.4875
1827.96924	2089.9875
1831.13864	2085.4875
1834.30597	2068.0875
1837.47122	2070.9875
1840.6344	2074.9875
1843.7955	2071.8875
1846.95454	2062.6875
1850.11151	2067.5875
1853.26642	2053.7875
1856.41926	2054.1875
1859.57004	2040.2875
1862.71876	2039.9875
1865.86542	2035.5875
1869.01003	2039.9875
1872.15258	2027.7875
1875.29308	2024.8875
1878.43152	2011.1875
1881.56792	2023.8875
1884.70227	2009.2875
1887.83457	1993.8875
1890.96482	1994.0875
1894.09304	1989.0875
1897.21921	1997.0875
1900.34335	1984.8875
1903.46544	1982.3875
1906.58551	1978.2875
1909.70353	1981.2875
1912.81953	1970.3875
1915.93349	1964.8875
1919.04543	1970.4875
1922.15534	1951.9875
1925.26322	1959.3875
1928.36908	1941.4875
1931.47292	1935.7875
1934.57473	1925.2875
1937.67453	1927.4875
1940.77232	1912.3875
1943.86808	1902.5875
1946.96184	1896.1875
1950.05358	1890.7875
1953.14331	1876.0875
1956.23103	1880.9875
1959.31675	1872.7875
1962.40046	1867.6875
1965.48217	1860.7875
1968.56188	1851.0875
1971.63959	1839.2875
1974.7153	1840.3875
1977.78901	1840.9875
1980.86073	1820.3875
1983.93046	1816.3875
1986.99819	1812.0875
1990.06394	1808.0875
1993.1277	1800.4875
1996.18947	1778.2875
1999.24925	1773.4875
2002.30706	1774.6875
2005.36288	1769.4875
2008.41672	1758.1875
2011.46859	1756.8875
2014.51848	1743.9875
2017.56639	1734.3875
2020.61233	1732.6875
2023.6563	1730.1875
2026.6983	1725.5875
2029.73833	1712.1875
2032.7764	1708.2875
2035.8125	1702.9875
2038.84664	1697.8875
2041.87881	1693.0875
2044.90903	1679.8875
2047.93729	1678.5875
2050.96359	1676.9875
2053.98794	1671.6875
2057.01034	1671.7875
2060.03078	1656.5875
2063.04927	1664.4875
2066.06582	1657.7875
2069.08042	1664.3875
2072.09307	1650.5875
2075.10378	1648.1875
2078.11255	1651.8875
2081.11938	1644.4875
2084.12426	1647.1875
2087.12722	1651.4875
2090.12824	1632.0875
2093.12732	1636.7875
2096.12447	1634.1875
2099.11969	1640.2875
2102.11299	1643.2875
2105.10435	1636.1875
2108.09379	1639.6875
2111.08131	1634.2875
2114.0669	1637.4875
2117.05057	1627.1875
2120.03233	1619.0875
2123.01216	1627.6875
2125.99008	1635.6875
2128.96609	1628.4875
2131.94018	1626.4875
2134.91236	1623.4875
2137.88263	1624.8875
2140.851	1615.7875
2143.81746	1624.0875
2146.78201	1620.4875
2149.74466	1624.2875
2152.7054	1619.5875
2155.66425	1614.7875
2158.6212	1609.2875
2161.57625	1597.0875
2164.52941	1614.0875
2167.48067	1599.5875
2170.43004	1599.8875
2173.37752	1602.3875
2176.32311	1586.5875
2179.26681	1588.2875
2182.20863	1596.7875
2185.14856	1591.6875
2188.08661	1591.9875
2191.02278	1581.3875
2193.95707	1582.7875
2196.88948	1579.0875
2199.82001	1579.5875
2202.74867	1577.6875
2205.67545	1568.4875
2208.60037	1565.6875
2211.52341	1561.1875
2214.44458	1558.2875
2217.36388	1541.7875
2220.28132	1552.0875
2223.1969	1537.2875
2226.11061	1527.3875
2229.02246	1529.6875
2231.93245	1521.2875
2234.84058	1524.9875
2237.74686	1512.2875
2240.65128	1514.3875
2243.55385	1516.8875
2246.45456	1507.1875
2249.35343	1503.1875
2252.25044	1507.9875
2255.14561	1493.6875
2258.03893	1485.3875
2260.93041	1456.3875
2263.82004	1468.0875
2266.70783	1473.7875
2269.59378	1483.9875
2272.4779	1470.3875
2275.36017	1465.4875
2278.24061	1469.3875
2281.11922	1462.6875
2283.996	1448.7875
2286.87094	1448.7875
2289.74405	1446.6875
2292.61534	1435.1875
2295.4848	1429.3875
2298.35243	1431.4875
2301.21824	1434.4875
2304.08223	1424.8875
2306.94439	1427.2875
2309.80474	1416.4875
2312.66327	1418.7875
2315.51999	1418.4875
2318.37489	1407.6875
2321.22797	1400.9875
2324.07925	1406.6875
2326.92871	1405.7875
2329.77637	1395.2875
2332.62222	1392.2875
2335.46626	1394.5875
2338.3085	1385.8875
2341.14893	1383.5875
2343.98756	1372.5875
2346.8244	1369.0875
2349.65943	1366.9875
2352.49267	1369.6875
2355.32411	1371.0875
2358.15376	1371.9875
2360.98161	1364.1875
2363.80768	1368.3875
2366.63195	1369.9875
2369.45444	1365.7875
2372.27514	1363.6875
2375.09405	1363.4875
2377.91118	1356.6875
2380.72652	1353.8875
2383.54009	1343.5875
2386.35187	1346.2875
2389.16188	1331.5875
2391.97011	1331.8875
2394.77657	1328.0875
2397.58125	1325.0875
2400.38416	1310.9875
2403.18529	1306.5875
2405.98466	1313.2875
2408.78226	1311.4875
2411.57809	1308.5875
2414.37216	1310.6875
2417.16446	1298.0875
2419.955	1295.7875
2422.74378	1296.3875
2425.5308	1292.4875
2428.31606	1282.8875
2431.09956	1290.5875
2433.88131	1287.2875
2436.6613	1284.6875
2439.43954	1286.9875
2442.21603	1281.5875
2444.99077	1273.8875
2447.76377	1281.3875
2450.53501	1269.4875
2453.30451	1266.8875
2456.07226	1266.9875
2458.83827	1261.2875
2461.60254	1259.2875
2464.36507	1254.1875
2467.12586	1257.2875
2469.88492	1249.1875
2472.64224	1253.6875
2475.39782	1241.3875
2478.15167	1231.4875
2480.90379	1234.4875
2483.65417	1240.9875
2486.40283	1237.0875
2489.14976	1245.1875
2491.89497	1232.9875
2494.63845	1221.7875
2497.3802	1217.8875
2500.12024	1222.6875
2502.85855	1224.3875
2505.59514	1225.5875
2508.33002	1220.9875
2511.06318	1229.7875
2513.79462	1222.8875
2516.52435	1202.4875
2519.25237	1200.7875
2521.97867	1200.2875
2524.70327	1200.8875
2527.42616	1190.3875
2530.14734	1194.4875
2532.86681	1185.4875
2535.58458	1185.8875
2538.30065	1178.5875
2541.01501	1186.0875
2543.72768	1182.9875
2546.43864	1175.6875
2549.14791	1182.8875
2551.85548	1170.9875
2554.56136	1168.6875
2557.26554	1173.2875
2559.96803	1162.0875
2562.66883	1160.4875
2565.36794	1166.7875
2568.06536	1163.2875
2570.7611	1165.6875
2573.45514	1151.2875
2576.14751	1151.2875
2578.83819	1147.4875
2581.52719	1139.0875
2584.21451	1146.9875
2586.90015	1141.8875
2589.58411	1133.2875
2592.2664	1135.5875
2594.94701	1128.7875
2597.62594	1133.1875
2600.30321	1125.6875
2602.9788	1122.0875
2605.65273	1121.5875
2608.32498	1112.3875
2610.99557	1120.2875
2613.66449	1117.3875
2616.33175	1108.0875
2618.99734	1111.8875
2621.66128	1109.9875
2624.32355	1098.7875
2626.98416	1102.4875
2629.64311	1105.8875
2632.30041	1104.3875
2634.95605	1092.1875
2637.61004	1102.6875
2640.26238	1096.3875
2642.91306	1090.0875
2645.56209	1095.4875
2648.20948	1083.9875
2650.85521	1090.1875
2653.4993	1090.5875
2656.14175	1098.9875
2658.78255	1091.0875
2661.42171	1091.5875
2664.05923	1093.4875
2666.6951	1096.0875
2669.32934	1094.2875
2671.96194	1091.3875
2674.59291	1092.0875
2677.22224	1087.9875
2679.84993	1089.0875
2682.476	1098.0875
2685.10043	1095.7875
2687.72324	1091.4875
2690.34441	1092.1875
2692.96396	1093.4875
2695.58188	1096.0875
2698.19818	1095.6875
2700.81285	1093.7875
2703.4259	1083.4875
2706.03733	1018.8875
2708.64714	1049.9875
2711.25533	1082.6875
2713.86191	1089.8875
2716.46687	1096.4875
2719.07021	1098.1875
2721.67194	1104.7875
2724.27206	1119.2875
2726.87057	1113.9875
2729.46747	1121.0875
2732.06276	1117.2875
2734.65644	1118.8875
2737.24852	1119.0875
2739.83899	1124.1875
2742.42786	1135.6875
2745.01513	1128.5875
2747.60079	1134.3875
2750.18486	1140.1875
2752.76733	1126.7875
2755.3482	1133.8875
2757.92747	1138.1875
2760.50515	1131.0875
2763.08123	1136.2875
2765.65573	1124.8875
2768.22863	1137.5875
2770.79994	1132.6875
2773.36967	1124.0875
2775.9378	1127.6875
2778.50435	1133.3875
2781.06932	1130.7875
2783.6327	1121.6875
2786.1945	1129.0875
2788.75471	1122.4875
2791.31335	1121.5875
2793.87041	1127.0875
2796.42589	1135.7875
2798.97979	1125.8875
2801.53212	1123.4875
2804.08288	1127.7875
2806.63206	1120.1875
2809.17967	1114.4875
2811.72571	1108.4875
2814.27018	1111.9875
2816.81308	1111.7875
2819.35442	1109.4875
2821.89419	1114.6875
2824.43239	1106.1875
2826.96904	1110.9875
2829.50412	1108.7875
2832.03763	1110.7875
2834.56959	1109.1875
2837.1	1111.3875
2839.62884	1108.8875
2842.15613	1114.1875
2844.68186	1134.9875
2847.20604	1142.5875
2849.72867	1164.3875
2852.24974	1159.7875
2854.76927	1160.2875
2857.28724	1158.6875
2859.80367	1174.2875
2862.31855	1188.8875
2864.83189	1204.9875
2867.34368	1208.8875
2869.85393	1225.2875
2872.36264	1233.9875
2874.8698	1237.2875
2877.37543	1256.9875
2879.87952	1260.7875
2882.38207	1264.8875
2884.88308	1280.2875
2887.38256	1282.3875
2889.88051	1283.0875
2892.37692	1289.9875
2894.8718	1296.1875
2897.36515	1293.5875
2899.85698	1305.1875
2902.34727	1293.6875
2904.83604	1306.7875
2907.32328	1306.9875
2909.809	1313.2875
2912.29319	1309.6875
2914.77587	1323.5875
2917.25702	1321.3875
2919.73665	1330.8875
2922.21476	1342.0875
2924.69136	1335.2875
2927.16644	1339.0875
2929.64	1338.9875
2932.11205	1339.5875
2934.58258	1320.1875
2937.05161	1329.7875
2939.51912	1329.1875
2941.98513	1305.9875
2944.44962	1299.4875
2946.91261	1277.0875
2949.37409	1251.6875
2951.83407	1235.2875
2954.29254	1214.1875
2956.74951	1190.6875
2959.20498	1178.7875
2961.65895	1158.3875
2964.11142	1143.0875
2966.56239	1124.9875
2969.01186	1117.7875
2971.45984	1098.6875
2973.90632	1080.3875
2976.35131	1064.9875
2978.7948	1059.0875
2981.23681	1045.4875
2983.67732	1041.3875
2986.11635	1027.8875
2988.55388	1023.9875
2990.98993	1008.7875
2993.4245	1002.3875
2995.85758	995.3875
2998.28917	991.3875
3000.71928	984.0875
3003.14791	984.0875
3005.57506	975.5875
3008.00073	981.0875
3010.42493	974.7875
3012.84764	966.7875
3015.26888	966.4875
3017.68865	970.4875
3020.10694	967.7875
3022.52376	965.9875
3024.9391	956.3875
3027.35298	956.2875
3029.76539	952.8875
3032.17632	945.7875
3034.5858	945.9875
3036.9938	939.9875
3039.40034	947.9875
3041.80542	949.1875
3044.20903	945.3875
3046.61118	940.4875
3049.01187	943.6875
3051.4111	941.8875
3053.80888	937.9875
3056.20519	943.6875
3058.60005	937.7875
3060.99345	942.8875
3063.3854	940.3875
3065.7759	941.5875
3068.16494	938.4875
3070.55254	940.5875
3072.93868	937.2875
3075.32338	943.4875
3077.70662	938.8875
3080.08842	936.0875
3082.46878	950.8875
3084.84769	946.8875
3087.22515	952.0875
3089.60118	953.6875
3091.97576	949.3875
3094.3489	958.9875
3096.72061	961.9875
3099.09087	964.6875
3101.4597	957.1875
3103.82709	965.8875
3106.19305	973.0875
3108.55757	975.7875
3110.92066	970.7875
3113.28232	975.5875
3115.64255	972.7875
3118.00134	986.8875
3120.35871	977.9875
3122.71466	983.2875
3125.06917	991.6875
3127.42226	982.6875
3129.77393	991.0875
3132.12417	1004.4875
3134.47299	1000.3875
3136.82039	1002.9875
3139.16636	1007.4875
3141.51092	1014.1875
3143.85406	1020.8875
3146.19579	1016.9875
3148.53609	1030.7875
3150.87499	1039.8875
3153.21246	1044.4875
3155.54853	1043.4875
3157.88318	1056.7875
3160.21642	1057.0875
3162.54826	1059.2875
3164.87868	1065.7875
3167.2077	1059.6875
3169.5353	1070.8875
3171.86151	1072.3875
3174.18631	1075.2875
3176.5097	1074.5875
3178.83169	1083.1875
3181.15228	1089.0875
3183.47147	1082.1875
3185.78926	1094.0875
3188.10565	1097.3875
3190.42065	1101.2875
3192.73424	1099.0875
3195.04645	1103.9875
3197.35725	1106.0875
3199.66667	1103.3875
3201.97469	1110.4875
3204.28132	1113.1875
3206.58656	1127.1875
3208.8904	1132.8875
3211.19287	1132.2875
3213.49394	1126.3875
3215.79363	1140.4875
3218.09193	1141.6875
3220.38884	1128.1875
3222.68438	1116.8875
3224.97853	1134.1875
3227.2713	1137.2875
3229.56269	1144.0875
3231.8527	1147.8875
3234.14133	1141.7875
3236.42858	1150.1875
3238.71446	1152.3875
3240.99896	1144.8875
3243.28209	1154.8875
3245.56384	1151.4875
3247.84423	1154.1875
3250.12324	1156.3875
3252.40088	1161.7875
3254.67715	1159.4875
3256.95205	1158.9875
3259.22558	1165.5875
3261.49775	1165.1875
3263.76855	1171.4875
3266.03799	1170.3875
3268.30606	1171.8875
3270.57277	1166.1875
3272.83812	1163.0875
3275.10211	1165.8875
3277.36474	1160.8875
3279.62601	1158.8875
3281.88593	1157.6875
3284.14448	1157.6875
3286.40168	1158.2875
3288.65753	1154.0875
3290.91202	1143.8875
3293.16516	1137.7875
3295.41695	1143.4875
3297.66738	1143.8875
3299.91647	1129.5875
3302.16421	1128.2875
3304.4106	1113.1875
3306.65564	1117.0875
3308.89933	1106.7875
3311.14169	1098.9875
3313.38269	1081.8875
3315.62236	1072.7875
3317.86068	1066.5875
3320.09766	1072.5875
3322.3333	1055.9875
3324.5676	1053.9875
3326.80056	1015.6875
3329.03219	1015.5875
3331.26248	-0.2125
3333.49143	-0.7125
3335.71905	-1.0125
