Data from AgNPs_FTO_APTES_UA_1uM_CRN_10uM_R6G_20uM_NaF_0.1M_Addition_RamanShift__31__15-33-59-709.txt Node

Date: Thu Jan 27 15:33:59 GMT 2022
User: TCL
Spectrometer: QEP01345
Trigger mode: 4
Integration Time (sec): 7.000000E0
Scans to average: 10
Electric dark correction enabled: true
Nonlinearity correction enabled: false
Boxcar width: 0
XAxis mode: Raman Shifts
Number of Pixels in Spectrum: 1044
>>>>>Begin Spectral Data<<<<<
46.04893	1.6375
50.45542	1.0375
54.85868	-0.9625
59.25871	-1.1625
63.6555	29.9375
68.04907	35.5375
72.43941	36.4375
76.82654	38.7375
81.21044	38.4375
85.59113	42.2375
89.96862	43.3375
94.34289	44.2375
98.71396	49.8375
103.08183	47.4375
107.4465	50.5375
111.80798	50.1375
116.16626	51.5375
120.52136	56.5375
124.87327	51.4375
129.222	49.6375
133.56755	51.6375
137.90993	53.3375
142.24913	53.7375
146.58517	56.2375
150.91804	69.5375
155.24774	72.4375
159.57429	78.0375
163.89768	100.2375
168.21792	128.9375
172.53501	168.0375
176.84895	221.8375
181.15975	299.6375
185.46741	413.5375
189.77193	563.1375
194.07331	756.0375
198.37157	963.0375
202.6667	1190.3375
206.9587	1403.3375
211.24758	1630.5375
215.53334	1872.5375
219.81599	2140.5375
224.09553	2431.9375
228.37195	2772.0375
232.64527	3125.2375
236.91549	3484.6375
241.18261	3810.2375
245.44663	4048.3375
249.70755	4230.1375
253.96539	4383.3375
258.22014	4556.0375
262.4718	4687.0375
266.72039	4801.6375
270.96589	4898.4375
275.20832	4915.4375
279.44768	4892.7375
283.68397	4815.4375
287.91719	4793.8375
292.14735	4843.3375
296.37445	4941.5375
300.59849	5148.6375
304.81948	5391.6375
309.03742	5590.3375
313.25231	5585.5375
317.46415	5294.4375
321.67296	4823.5375
325.87872	4447.3375
330.08145	4241.9375
334.28114	4234.8375
338.47781	4298.7375
342.67145	4439.7375
346.86207	4665.7375
351.04966	4974.4375
355.23424	5331.5375
359.4158	5615.8375
363.59435	5734.0375
367.76989	5750.8375
371.94243	5741.7375
376.11196	5669.6375
380.27849	5618.3375
384.44203	5546.9375
388.60257	5445.9375
392.76012	5373.4375
396.91468	5445.8375
401.06626	5586.4375
405.21485	5738.2375
409.36047	5621.9375
413.50311	5258.6375
417.64277	4939.6375
421.77947	4748.9375
425.9132	4672.3375
430.04396	4635.4375
434.17176	4656.9375
438.2966	4724.5375
442.41849	4820.5375
446.53742	4956.2375
450.6534	5095.6375
454.76644	5193.2375
458.87653	5191.3375
462.98368	5145.2375
467.08789	5066.2375
471.18916	4966.0375
475.2875	4832.0375
479.38291	4743.8375
483.4754	4661.9375
487.56496	4598.7375
491.6516	4568.6375
495.73531	4556.0375
499.81612	4587.8375
503.89401	4636.5375
507.96899	4726.4375
512.04106	4803.0375
516.11023	4896.1375
520.1765	4939.3375
524.23987	4929.2375
528.30034	4817.1375
532.35792	4668.5375
536.41261	4557.6375
540.46441	4449.6375
544.51333	4396.2375
548.55936	4409.6375
552.60252	4533.3375
556.64279	4694.5375
560.6802	4750.1375
564.71473	4828.6375
568.7464	5041.4375
572.7752	5221.0375
576.80114	5070.8375
580.82422	4856.6375
584.84444	4772.0375
588.86181	4704.9375
592.87633	4672.7375
596.888	4712.6375
600.89682	4905.9375
604.9028	5557.0375
608.90594	7287.1375
612.90624	9670.0375
616.90371	9462.2375
620.89834	6417.5375
624.89015	4895.9375
628.87913	4608.5375
632.86528	4621.9375
636.84862	4740.0375
640.82913	4684.9375
644.80683	4460.5375
648.78172	4309.7375
652.75379	4332.6375
656.72306	4545.8375
660.68952	4819.5375
664.65319	4784.1375
668.61405	4504.6375
672.57211	4347.7375
676.52738	4327.4375
680.47986	4324.1375
684.42955	4296.6375
688.37646	4282.3375
692.32058	4288.0375
696.26192	4326.3375
700.20048	4384.6375
704.13626	4429.7375
708.06928	4417.8375
711.99952	4376.6375
715.927	4369.8375
719.85171	4382.8375
723.77365	4369.2375
727.69284	4341.7375
731.60928	4290.5375
735.52295	4279.9375
739.43388	4286.0375
743.34206	4318.0375
747.24749	4323.2375
751.15017	4362.6375
755.05012	4475.5375
758.94733	4719.9375
762.8418	5272.2375
766.73354	6264.4375
770.62254	7355.7375
774.50882	7893.2375
778.39237	7555.0375
782.27321	6493.7375
786.15132	5419.2375
790.02671	4788.9375
793.89938	4502.8375
797.76935	4385.8375
801.6366	4332.4375
805.50115	4289.0375
809.36299	4270.6375
813.22213	4238.0375
817.07857	4242.1375
820.93231	4229.1375
824.78336	4244.4375
828.63172	4278.3375
832.47738	4284.5375
836.32036	4276.0375
840.16066	4233.4375
843.99827	4204.9375
847.8332	4190.3375
851.66546	4178.6375
855.49504	4180.1375
859.32195	4173.8375
863.1462	4153.1375
866.96777	4153.2375
870.78668	4123.7375
874.60293	4123.6375
878.41652	4147.8375
882.22745	4168.5375
886.03573	4198.2375
889.84136	4195.8375
893.64433	4166.5375
897.44466	4141.1375
901.24235	4157.8375
905.0374	4145.6375
908.8298	4109.4375
912.61957	4119.0375
916.40671	4144.5375
920.19121	4169.2375
923.97308	4221.4375
927.75233	4259.8375
931.52895	4298.3375
935.30295	4255.3375
939.07433	4124.0375
942.84309	3997.6375
946.60924	3925.4375
950.37278	3895.7375
954.13371	3863.4375
957.89203	3840.8375
961.64774	3846.7375
965.40086	3839.0375
969.15137	3816.4375
972.89929	3813.9375
976.64461	3795.6375
980.38733	3800.1375
984.12747	3780.2375
987.86502	3814.4375
991.59999	3818.6375
995.33237	3877.4375
999.06217	3912.3375
1002.78939	4019.5375
1006.51404	4101.1375
1010.23611	4211.0375
1013.95561	4284.5375
1017.67255	4257.3375
1021.38692	4193.6375
1025.09872	4119.0375
1028.80796	4056.1375
1032.51465	4073.8375
1036.21877	4119.5375
1039.92035	4156.0375
1043.61937	4206.4375
1047.31584	4213.7375
1051.00976	4186.7375
1054.70114	4182.9375
1058.38998	4185.3375
1062.07627	4211.1375
1065.76003	4243.1375
1069.44126	4272.6375
1073.11995	4308.8375
1076.79611	4364.7375
1080.46974	4429.8375
1084.14085	4557.8375
1087.80943	4704.5375
1091.47549	4766.8375
1095.13903	4685.2375
1098.80005	4490.9375
1102.45857	4333.4375
1106.11456	4261.9375
1109.76805	4262.8375
1113.41903	4355.3375
1117.06751	4518.2375
1120.71348	4709.4375
1124.35696	4955.7375
1127.99793	5170.4375
1131.63641	5170.4375
1135.2724	4891.8375
1138.90589	4630.5375
1142.5369	4464.9375
1146.16542	4360.9375
1149.79145	4317.9375
1153.415	4307.5375
1157.03607	4354.6375
1160.65467	4445.8375
1164.27079	4616.2375
1167.88443	4860.3375
1171.49561	5272.3375
1175.10432	6006.2375
1178.71056	6972.1375
1182.31434	7612.0375
1185.91565	7688.6375
1189.51451	7421.6375
1193.11091	6906.2375
1196.70485	6284.1375
1200.29634	5863.6375
1203.88538	5581.8375
1207.47197	5236.6375
1211.05612	4905.9375
1214.63782	4712.5375
1218.21708	4640.1375
1221.79391	4642.5375
1225.36829	4691.5375
1228.94024	4734.5375
1232.50976	4781.5375
1236.07685	4812.8375
1239.6415	4810.4375
1243.20374	4801.4375
1246.76355	4810.0375
1250.32093	4866.7375
1253.8759	4961.5375
1257.42845	5118.5375
1260.97859	5277.2375
1264.52631	5429.5375
1268.07163	5607.0375
1271.61453	5777.7375
1275.15503	5889.4375
1278.69312	5912.1375
1282.22882	5950.3375
1285.76211	6049.8375
1289.29301	6263.5375
1292.82151	6476.4375
1296.34761	6669.8375
1299.87133	6977.6375
1303.39266	7522.6375
1306.9116	8437.3375
1310.42815	9494.3375
1313.94233	10264.9375
1317.45412	10143.6375
1320.96354	9427.9375
1324.47058	8559.0375
1327.97525	7858.3375
1331.47754	7415.1375
1334.97747	7225.9375
1338.47502	7218.6375
1341.97022	7351.3375
1345.46305	7617.9375
1348.95352	8076.3375
1352.44163	8739.4375
1355.92738	9682.9375
1359.41078	11181.3375
1362.89183	12789.4375
1366.37053	12643.9375
1369.84688	10653.3375
1373.32088	8582.8375
1376.79254	7261.0375
1380.26186	6616.4375
1383.72883	6270.6375
1387.19347	6045.6375
1390.65578	5776.0375
1394.11575	5545.7375
1397.57339	5418.0375
1401.0287	5413.8375
1404.48168	5486.1375
1407.93234	5577.2375
1411.38068	5632.8375
1414.82669	5626.5375
1418.27039	5550.9375
1421.71177	5452.9375
1425.15083	5337.2375
1428.58758	5254.5375
1432.02203	5239.5375
1435.45416	5263.1375
1438.88399	5302.3375
1442.31151	5306.2375
1445.73673	5325.8375
1449.15965	5359.4375
1452.58027	5352.8375
1455.9986	5295.7375
1459.41463	5278.5375
1462.82837	5311.9375
1466.23982	5431.0375
1469.64898	5557.4375
1473.05586	5646.5375
1476.46045	5705.6375
1479.86276	5824.2375
1483.26279	5970.2375
1486.66054	6175.5375
1490.05602	6393.8375
1493.44922	6717.1375
1496.84016	7227.2375
1500.22882	7998.4375
1503.61521	9028.9375
1506.99934	10272.9375
1510.38121	11539.4375
1513.76081	12298.2375
1517.13816	11853.3375
1520.51324	10390.4375
1523.88607	8788.3375
1527.25665	7622.2375
1530.62498	6939.8375
1533.99105	6561.0375
1537.35488	6274.0375
1540.71647	6098.9375
1544.07581	6002.2375
1547.4329	5968.8375
1550.78776	5946.8375
1554.14038	5933.9375
1557.49077	6017.3375
1560.83892	6175.9375
1564.18484	6382.0375
1567.52853	6603.4375
1570.86999	6802.4375
1574.20922	6921.4375
1577.54624	6866.3375
1580.88103	6525.7375
1584.2136	6017.5375
1587.54395	5747.8375
1590.87208	5735.6375
1594.19801	6001.2375
1597.52172	6424.7375
1600.84321	6607.4375
1604.16251	6362.3375
1607.47959	5958.2375
1610.79447	5556.6375
1614.10715	5135.8375
1617.41763	4816.5375
1620.7259	4585.8375
1624.03199	4482.1375
1627.33587	4467.8375
1630.63757	4569.9375
1633.93707	4768.0375
1637.23439	5070.1375
1640.52951	5587.1375
1643.82246	6255.5375
1647.11321	7120.8375
1650.40179	7870.0375
1653.68819	7861.8375
1656.97241	6930.5375
1660.25446	5697.6375
1663.53433	4776.8375
1666.81203	4256.4375
1670.08756	3951.6375
1673.36092	3782.0375
1676.63211	3674.1375
1679.90115	3610.5375
1683.16801	3563.4375
1686.43272	3509.0375
1689.69527	3468.3375
1692.95567	3424.3375
1696.2139	3381.1375
1699.46999	3342.6375
1702.72392	3324.6375
1705.97571	3348.9375
1709.22535	3374.8375
1712.47284	3396.6375
1715.71819	3415.8375
1718.96139	3418.4375
1722.20246	3424.3375
1725.44139	3411.6375
1728.67818	3377.0375
1731.91284	3343.5375
1735.14537	3326.5375
1738.37576	3300.5375
1741.60403	3271.9375
1744.83017	3262.0375
1748.05418	3252.9375
1751.27607	3233.8375
1754.49584	3204.6375
1757.71349	3175.8375
1760.92903	3164.7375
1764.14244	3149.0375
1767.35375	3147.4375
1770.56294	3127.6375
1773.77002	3139.9375
1776.97499	3138.9375
1780.17785	3148.2375
1783.37861	3147.7375
1786.57727	3149.8375
1789.77382	3145.8375
1792.96828	3140.1375
1796.16064	3137.5375
1799.3509	3135.4375
1802.53907	3143.7375
1805.72514	3116.7375
1808.90913	3113.4375
1812.09102	3097.9375
1815.27083	3097.9375
1818.44856	3093.0375
1821.6242	3077.9375
1824.79776	3058.4375
1827.96924	3072.0375
1831.13864	3073.2375
1834.30597	3050.9375
1837.47122	3054.0375
1840.6344	3044.3375
1843.7955	3049.3375
1846.95454	3042.9375
1850.11151	3047.1375
1853.26642	3046.2375
1856.41926	3039.1375
1859.57004	3061.7375
1862.71876	3050.5375
1865.86542	3053.6375
1869.01003	3053.8375
1872.15258	3051.3375
1875.29308	3050.5375
1878.43152	3058.5375
1881.56792	3044.1375
1884.70227	3047.2375
1887.83457	3059.8375
1890.96482	3044.9375
1894.09304	3048.1375
1897.21921	3048.1375
1900.34335	3043.0375
1903.46544	3049.5375
1906.58551	3051.7375
1909.70353	3053.2375
1912.81953	3048.4375
1915.93349	3048.1375
1919.04543	3032.7375
1922.15534	3043.1375
1925.26322	3025.2375
1928.36908	3013.0375
1931.47292	3005.8375
1934.57473	2984.1375
1937.67453	2974.9375
1940.77232	2944.9375
1943.86808	2936.5375
1946.96184	2919.6375
1950.05358	2905.7375
1953.14331	2891.2375
1956.23103	2878.8375
1959.31675	2881.4375
1962.40046	2859.0375
1965.48217	2851.6375
1968.56188	2845.9375
1971.63959	2841.0375
1974.7153	2831.5375
1977.78901	2831.2375
1980.86073	2804.4375
1983.93046	2801.5375
1986.99819	2783.7375
1990.06394	2772.4375
1993.1277	2764.9375
1996.18947	2747.0375
1999.24925	2742.3375
2002.30706	2733.1375
2005.36288	2730.1375
2008.41672	2707.9375
2011.46859	2708.6375
2014.51848	2707.8375
2017.56639	2704.6375
2020.61233	2680.4375
2023.6563	2681.1375
2026.6983	2665.6375
2029.73833	2670.8375
2032.7764	2656.8375
2035.8125	2648.7375
2038.84664	2643.5375
2041.87881	2624.3375
2044.90903	2621.8375
2047.93729	2609.5375
2050.96359	2622.2375
2053.98794	2618.9375
2057.01034	2604.6375
2060.03078	2603.5375
2063.04927	2593.9375
2066.06582	2596.7375
2069.08042	2595.3375
2072.09307	2595.9375
2075.10378	2599.2375
2078.11255	2581.0375
2081.11938	2597.7375
2084.12426	2582.3375
2087.12722	2576.8375
2090.12824	2575.6375
2093.12732	2571.9375
2096.12447	2580.1375
2099.11969	2576.8375
2102.11299	2568.9375
2105.10435	2602.8375
2108.09379	2590.9375
2111.08131	2580.4375
2114.0669	2580.0375
2117.05057	2584.4375
2120.03233	2586.6375
2123.01216	2583.0375
2125.99008	2599.9375
2128.96609	2591.7375
2131.94018	2593.8375
2134.91236	2591.1375
2137.88263	2588.6375
2140.851	2589.4375
2143.81746	2586.4375
2146.78201	2575.4375
2149.74466	2575.2375
2152.7054	2576.0375
2155.66425	2571.5375
2158.6212	2578.7375
2161.57625	2565.6375
2164.52941	2575.2375
2167.48067	2574.2375
2170.43004	2559.2375
2173.37752	2569.8375
2176.32311	2565.5375
2179.26681	2562.4375
2182.20863	2557.1375
2185.14856	2556.2375
2188.08661	2560.5375
2191.02278	2566.6375
2193.95707	2558.0375
2196.88948	2543.7375
2199.82001	2551.5375
2202.74867	2538.0375
2205.67545	2535.9375
2208.60037	2536.0375
2211.52341	2532.0375
2214.44458	2531.1375
2217.36388	2518.4375
2220.28132	2510.7375
2223.1969	2507.8375
2226.11061	2503.5375
2229.02246	2500.0375
2231.93245	2495.5375
2234.84058	2493.2375
2237.74686	2476.8375
2240.65128	2478.6375
2243.55385	2484.4375
2246.45456	2478.3375
2249.35343	2469.5375
2252.25044	2459.0375
2255.14561	2475.5375
2258.03893	2456.3375
2260.93041	2461.7375
2263.82004	2458.7375
2266.70783	2440.8375
2269.59378	2443.6375
2272.4779	2444.1375
2275.36017	2441.1375
2278.24061	2425.5375
2281.11922	2424.3375
2283.996	2414.0375
2286.87094	2419.9375
2289.74405	2390.2375
2292.61534	2391.7375
2295.4848	2395.7375
2298.35243	2391.7375
2301.21824	2388.9375
2304.08223	2388.1375
2306.94439	2387.9375
2309.80474	2379.0375
2312.66327	2394.6375
2315.51999	2380.9375
2318.37489	2371.2375
2321.22797	2362.4375
2324.07925	2369.9375
2326.92871	2364.3375
2329.77637	2371.8375
2332.62222	2354.4375
2335.46626	2351.1375
2338.3085	2357.0375
2341.14893	2352.8375
2343.98756	2348.4375
2346.8244	2344.8375
2349.65943	2340.3375
2352.49267	2352.5375
2355.32411	2346.1375
2358.15376	2355.6375
2360.98161	2357.2375
2363.80768	2362.8375
2366.63195	2363.3375
2369.45444	2372.2375
2372.27514	2373.2375
2375.09405	2370.3375
2377.91118	2350.2375
2380.72652	2331.7375
2383.54009	2323.9375
2386.35187	2322.3375
2389.16188	2312.9375
2391.97011	2306.3375
2394.77657	2292.1375
2397.58125	2282.5375
2400.38416	2278.9375
2403.18529	2273.1375
2405.98466	2268.2375
2408.78226	2267.2375
2411.57809	2262.7375
2414.37216	2256.6375
2417.16446	2255.0375
2419.955	2248.9375
2422.74378	2259.6375
2425.5308	2248.9375
2428.31606	2247.0375
2431.09956	2250.3375
2433.88131	2240.5375
2436.6613	2250.5375
2439.43954	2244.1375
2442.21603	2235.7375
2444.99077	2237.0375
2447.76377	2251.3375
2450.53501	2251.1375
2453.30451	2243.1375
2456.07226	2235.7375
2458.83827	2246.7375
2461.60254	2234.8375
2464.36507	2230.8375
2467.12586	2237.9375
2469.88492	2221.9375
2472.64224	2237.5375
2475.39782	2228.6375
2478.15167	2212.6375
2480.90379	2229.2375
2483.65417	2235.1375
2486.40283	2235.8375
2489.14976	2243.3375
2491.89497	2259.9375
2494.63845	2249.3375
2497.3802	2240.5375
2500.12024	2247.6375
2502.85855	2226.9375
2505.59514	2222.8375
2508.33002	2214.6375
2511.06318	2216.2375
2513.79462	2208.6375
2516.52435	2190.4375
2519.25237	2189.1375
2521.97867	2183.3375
2524.70327	2181.2375
2527.42616	2166.6375
2530.14734	2166.0375
2532.86681	2171.7375
2535.58458	2169.5375
2538.30065	2162.1375
2541.01501	2161.4375
2543.72768	2150.3375
2546.43864	2157.0375
2549.14791	2161.8375
2551.85548	2148.6375
2554.56136	2155.5375
2557.26554	2148.2375
2559.96803	2147.2375
2562.66883	2136.2375
2565.36794	2132.1375
2568.06536	2139.6375
2570.7611	2127.7375
2573.45514	2125.0375
2576.14751	2111.8375
2578.83819	2115.4375
2581.52719	2104.3375
2584.21451	2114.2375
2586.90015	2111.2375
2589.58411	2096.4375
2592.2664	2098.7375
2594.94701	2097.3375
2597.62594	2098.3375
2600.30321	2094.7375
2602.9788	2085.4375
2605.65273	2092.5375
2608.32498	2083.7375
2610.99557	2091.0375
2613.66449	2091.5375
2616.33175	2086.4375
2618.99734	2079.5375
2621.66128	2081.3375
2624.32355	2079.8375
2626.98416	2083.6375
2629.64311	2070.9375
2632.30041	2070.0375
2634.95605	2079.8375
2637.61004	2068.4375
2640.26238	2058.9375
2642.91306	2052.9375
2645.56209	2050.8375
2648.20948	2048.8375
2650.85521	2043.3375
2653.4993	2049.7375
2656.14175	2045.4375
2658.78255	2057.9375
2661.42171	2056.6375
2664.05923	2061.3375
2666.6951	2056.3375
2669.32934	2059.7375
2671.96194	2061.0375
2674.59291	2062.9375
2677.22224	2054.5375
2679.84993	2064.3375
2682.476	2059.6375
2685.10043	2068.6375
2687.72324	2057.5375
2690.34441	2052.7375
2692.96396	2050.5375
2695.58188	2063.5375
2698.19818	2058.0375
2700.81285	2059.8375
2703.4259	2054.4375
2706.03733	2033.4375
2708.64714	2016.8375
2711.25533	2054.3375
2713.86191	2053.0375
2716.46687	2061.1375
2719.07021	2074.9375
2721.67194	2077.8375
2724.27206	2064.1375
2726.87057	2066.2375
2729.46747	2063.6375
2732.06276	2072.6375
2734.65644	2054.8375
2737.24852	2050.8375
2739.83899	2051.5375
2742.42786	2058.7375
2745.01513	2043.4375
2747.60079	2042.5375
2750.18486	2038.1375
2752.76733	2042.4375
2755.3482	2030.8375
2757.92747	2033.5375
2760.50515	2027.6375
2763.08123	2021.5375
2765.65573	2027.8375
2768.22863	2017.5375
2770.79994	2014.8375
2773.36967	2021.1375
2775.9378	2007.4375
2778.50435	2022.3375
2781.06932	2015.2375
2783.6327	2009.9375
2786.1945	2008.5375
2788.75471	2006.7375
2791.31335	2007.2375
2793.87041	1998.5375
2796.42589	2006.6375
2798.97979	2006.9375
2801.53212	2001.6375
2804.08288	2003.7375
2806.63206	1998.1375
2809.17967	1993.7375
2811.72571	1988.1375
2814.27018	1995.8375
2816.81308	1997.1375
2819.35442	1995.6375
2821.89419	1993.1375
2824.43239	2011.1375
2826.96904	2010.7375
2829.50412	2005.5375
2832.03763	2011.2375
2834.56959	2007.9375
2837.1	2020.2375
2839.62884	2009.5375
2842.15613	2032.9375
2844.68186	2058.6375
2847.20604	2082.6375
2849.72867	2098.9375
2852.24974	2106.3375
2854.76927	2104.9375
2857.28724	2086.1375
2859.80367	2089.6375
2862.31855	2084.7375
2864.83189	2091.4375
2867.34368	2076.9375
2869.85393	2078.5375
2872.36264	2083.2375
2874.8698	2077.7375
2877.37543	2069.2375
2879.87952	2069.8375
2882.38207	2079.3375
2884.88308	2069.6375
2887.38256	2070.4375
2889.88051	2057.0375
2892.37692	2058.2375
2894.8718	2052.9375
2897.36515	2062.9375
2899.85698	2057.1375
2902.34727	2064.9375
2904.83604	2077.1375
2907.32328	2069.6375
2909.809	2064.0375
2912.29319	2067.5375
2914.77587	2066.5375
2917.25702	2062.5375
2919.73665	2054.8375
2922.21476	2067.6375
2924.69136	2066.1375
2927.16644	2056.1375
2929.64	2052.8375
2932.11205	2049.6375
2934.58258	2045.8375
2937.05161	2047.4375
2939.51912	2036.9375
2941.98513	2027.5375
2944.44962	2001.2375
2946.91261	1982.0375
2949.37409	1981.3375
2951.83407	1973.0375
2954.29254	1971.1375
2956.74951	1961.9375
2959.20498	1962.9375
2961.65895	1948.1375
2964.11142	1946.8375
2966.56239	1941.9375
2969.01186	1943.3375
2971.45984	1929.5375
2973.90632	1934.7375
2976.35131	1927.2375
2978.7948	1915.9375
2981.23681	1916.9375
2983.67732	1909.1375
2986.11635	1912.7375
2988.55388	1906.5375
2990.98993	1891.1375
2993.4245	1899.5375
2995.85758	1883.5375
2998.28917	1885.0375
3000.71928	1876.7375
3003.14791	1875.8375
3005.57506	1873.4375
3008.00073	1867.4375
3010.42493	1873.9375
3012.84764	1869.8375
3015.26888	1867.1375
3017.68865	1874.0375
3020.10694	1869.6375
3022.52376	1860.6375
3024.9391	1852.3375
3027.35298	1857.7375
3029.76539	1860.9375
3032.17632	1852.2375
3034.5858	1854.5375
3036.9938	1857.8375
3039.40034	1851.4375
3041.80542	1856.3375
3044.20903	1851.0375
3046.61118	1850.5375
3049.01187	1849.3375
3051.4111	1847.7375
3053.80888	1845.4375
3056.20519	1848.9375
3058.60005	1839.7375
3060.99345	1836.4375
3063.3854	1829.7375
3065.7759	1829.2375
3068.16494	1832.8375
3070.55254	1826.9375
3072.93868	1834.3375
3075.32338	1827.1375
3077.70662	1828.9375
3080.08842	1817.7375
3082.46878	1825.1375
3084.84769	1815.6375
3087.22515	1812.8375
3089.60118	1819.0375
3091.97576	1806.8375
3094.3489	1817.1375
3096.72061	1818.5375
3099.09087	1821.1375
3101.4597	1815.4375
3103.82709	1814.9375
3106.19305	1819.1375
3108.55757	1829.1375
3110.92066	1820.9375
3113.28232	1814.2375
3115.64255	1832.4375
3118.00134	1826.4375
3120.35871	1811.1375
3122.71466	1824.9375
3125.06917	1823.3375
3127.42226	1823.8375
3129.77393	1833.1375
3132.12417	1829.3375
3134.47299	1829.5375
3136.82039	1827.5375
3139.16636	1834.6375
3141.51092	1840.3375
3143.85406	1856.5375
3146.19579	1843.1375
3148.53609	1851.0375
3150.87499	1869.6375
3153.21246	1867.7375
3155.54853	1872.7375
3157.88318	1879.2375
3160.21642	1887.3375
3162.54826	1886.6375
3164.87868	1891.8375
3167.2077	1885.4375
3169.5353	1905.3375
3171.86151	1895.9375
3174.18631	1908.8375
3176.5097	1905.5375
3178.83169	1909.8375
3181.15228	1922.3375
3183.47147	1921.5375
3185.78926	1917.9375
3188.10565	1926.2375
3190.42065	1919.0375
3192.73424	1912.7375
3195.04645	1926.5375
3197.35725	1926.8375
3199.66667	1938.0375
3201.97469	1932.6375
3204.28132	1941.7375
3206.58656	1943.1375
3208.8904	1957.1375
3211.19287	1947.1375
3213.49394	1951.7375
3215.79363	1957.7375
3218.09193	1963.5375
3220.38884	1953.6375
3222.68438	1957.4375
3224.97853	1965.3375
3227.2713	1973.0375
3229.56269	1969.2375
3231.8527	1965.3375
3234.14133	1964.9375
3236.42858	1968.2375
3238.71446	1967.5375
3240.99896	1963.2375
3243.28209	1958.6375
3245.56384	1958.0375
3247.84423	1957.8375
3250.12324	1953.6375
3252.40088	1953.5375
3254.67715	1947.5375
3256.95205	1944.3375
3259.22558	1953.2375
3261.49775	1954.1375
3263.76855	1955.3375
3266.03799	1941.9375
3268.30606	1952.7375
3270.57277	1938.4375
3272.83812	1930.4375
3275.10211	1943.2375
3277.36474	1947.0375
3279.62601	1930.7375
3281.88593	1933.6375
3284.14448	1929.5375
3286.40168	1933.8375
3288.65753	1917.8375
3290.91202	1928.4375
3293.16516	1931.2375
3295.41695	1917.7375
3297.66738	1915.7375
3299.91647	1903.8375
3302.16421	1890.8375
3304.4106	1887.7375
3306.65564	1877.0375
3308.89933	1852.5375
3311.14169	1856.5375
3313.38269	1825.9375
3315.62236	1826.5375
3317.86068	1803.3375
3320.09766	1795.1375
3322.3333	1780.8375
3324.5676	1777.7375
3326.80056	1748.1375
3329.03219	1726.0375
3331.26248	-0.3625
3333.49143	0.5375
3335.71905	-1.1625
