Data from AgNPs_FTO_APTES_UA_1uM_CRN_5uM_R6G_10uM_NaF_0.1M_Addition_RamanShift__23__14-02-59-604.txt Node

Date: Thu Jan 27 14:02:59 GMT 2022
User: TCL
Spectrometer: QEP01345
Trigger mode: 4
Integration Time (sec): 7.000000E0
Scans to average: 10
Electric dark correction enabled: true
Nonlinearity correction enabled: false
Boxcar width: 0
XAxis mode: Raman Shifts
Number of Pixels in Spectrum: 1044
>>>>>Begin Spectral Data<<<<<
46.04893	0.7375
50.45542	0.9375
54.85868	-0.4625
59.25871	-1.0625
63.6555	52.6375
68.04907	57.4375
72.43941	61.6375
76.82654	64.6375
81.21044	61.5375
85.59113	64.4375
89.96862	68.8375
94.34289	69.9375
98.71396	72.7375
103.08183	74.3375
107.4465	79.4375
111.80798	80.2375
116.16626	81.2375
120.52136	89.9375
124.87327	89.4375
129.222	89.2375
133.56755	95.8375
137.90993	100.4375
142.24913	108.4375
146.58517	121.0375
150.91804	142.0375
155.24774	163.7375
159.57429	196.1375
163.89768	246.2375
168.21792	326.8375
172.53501	439.6375
176.84895	600.0375
181.15975	843.8375
185.46741	1174.7375
189.77193	1618.1375
194.07331	2159.5375
198.37157	2794.1375
202.6667	3450.7375
206.9587	4096.4375
211.24758	4737.1375
215.53334	5400.3375
219.81599	6102.7375
224.09553	6884.9375
228.37195	7761.0375
232.64527	8713.5375
236.91549	9699.9375
241.18261	10684.5375
245.44663	11579.5375
249.70755	12357.0375
253.96539	13014.5375
258.22014	13633.2375
262.4718	14159.4375
266.72039	14539.9375
270.96589	14767.4375
275.20832	14812.1375
279.44768	14747.8375
283.68397	14619.0375
287.91719	14531.4375
292.14735	14504.3375
296.37445	14573.0375
300.59849	14725.2375
304.81948	14884.8375
309.03742	14939.6375
313.25231	14807.5375
317.46415	14375.0375
321.67296	13793.0375
325.87872	13274.2375
330.08145	13038.4375
334.28114	13041.4375
338.47781	13171.5375
342.67145	13398.7375
346.86207	13719.1375
351.04966	14129.5375
355.23424	14607.7375
359.4158	14966.3375
363.59435	15217.4375
367.76989	15366.7375
371.94243	15455.5375
376.11196	15543.4375
380.27849	15576.8375
384.44203	15605.9375
388.60257	15625.4375
392.76012	15691.9375
396.91468	15851.2375
401.06626	16167.3375
405.21485	16413.9375
409.36047	16321.4375
413.50311	15971.2375
417.64277	15616.0375
421.77947	15538.9375
425.9132	15532.4375
430.04396	15627.9375
434.17176	15706.9375
438.2966	15835.9375
442.41849	16127.9375
446.53742	16517.4375
450.6534	16991.9375
454.76644	17358.2375
458.87653	17527.2375
462.98368	17486.7375
467.08789	17269.2375
471.18916	16976.3375
475.2875	16688.3375
479.38291	16478.0375
483.4754	16312.2375
487.56496	16100.6375
491.6516	15912.2375
495.73531	15725.4375
499.81612	15661.0375
503.89401	15738.9375
507.96899	15789.2375
512.04106	15799.3375
516.11023	15813.0375
520.1765	15826.9375
524.23987	15735.5375
528.30034	15537.6375
532.35792	15360.4375
536.41261	15144.0375
540.46441	14952.2375
544.51333	14962.8375
548.55936	15109.8375
552.60252	15403.8375
556.64279	15719.9375
560.6802	15875.8375
564.71473	15962.2375
568.7464	16232.1375
572.7752	16557.1375
576.80114	16644.6375
580.82422	16709.0375
584.84444	16842.3375
588.86181	16935.2375
592.87633	17139.0375
596.888	17386.9375
600.89682	17611.5375
604.9028	18476.5375
608.90594	20776.7375
612.90624	23582.5375
616.90371	22664.0375
620.89834	18313.8375
624.89015	16292.5375
628.87913	16027.3375
632.86528	15972.1375
636.84862	15906.4375
640.82913	15624.1375
644.80683	15173.3375
648.78172	14816.6375
652.75379	14769.8375
656.72306	15021.1375
660.68952	15425.6375
664.65319	15393.2375
668.61405	15032.2375
672.57211	14829.6375
676.52738	14850.8375
680.47986	14849.9375
684.42955	14816.9375
688.37646	14781.3375
692.32058	14813.9375
696.26192	14969.8375
700.20048	15092.6375
704.13626	15180.7375
708.06928	15107.5375
711.99952	14998.3375
715.927	14916.2375
719.85171	14983.6375
723.77365	14897.8375
727.69284	14779.4375
731.60928	14641.0375
735.52295	14631.6375
739.43388	14713.2375
743.34206	14771.6375
747.24749	14822.6375
751.15017	15011.9375
755.05012	15259.1375
758.94733	15701.0375
762.8418	16614.3375
766.73354	18106.4375
770.62254	19639.8375
774.50882	20222.9375
778.39237	19363.1375
782.27321	17707.5375
786.15132	16212.4375
790.02671	15366.3375
793.89938	14995.9375
797.76935	14856.0375
801.6366	14813.4375
805.50115	14716.3375
809.36299	14661.0375
813.22213	14550.3375
817.07857	14538.3375
820.93231	14561.6375
824.78336	14572.5375
828.63172	14593.8375
832.47738	14625.1375
836.32036	14654.9375
840.16066	14710.4375
843.99827	14720.2375
847.8332	14715.6375
851.66546	14596.5375
855.49504	14574.7375
859.32195	14531.7375
863.1462	14460.9375
866.96777	14405.4375
870.78668	14369.4375
874.60293	14355.5375
878.41652	14355.3375
882.22745	14419.2375
886.03573	14482.0375
889.84136	14465.1375
893.64433	14380.4375
897.44466	14329.6375
901.24235	14258.6375
905.0374	14261.9375
908.8298	14220.7375
912.61957	14252.2375
916.40671	14346.6375
920.19121	14555.0375
923.97308	14759.0375
927.75233	14866.2375
931.52895	14901.9375
935.30295	14767.5375
939.07433	14489.1375
942.84309	14223.3375
946.60924	14142.5375
950.37278	14064.0375
954.13371	13959.2375
957.89203	13847.8375
961.64774	13804.5375
965.40086	13736.6375
969.15137	13700.4375
972.89929	13632.8375
976.64461	13591.2375
980.38733	13614.7375
984.12747	13689.5375
987.86502	13834.6375
991.59999	14053.2375
995.33237	14374.5375
999.06217	14892.5375
1002.78939	15528.8375
1006.51404	15910.4375
1010.23611	16121.9375
1013.95561	16246.9375
1017.67255	16217.8375
1021.38692	16079.7375
1025.09872	15931.9375
1028.80796	16165.6375
1032.51465	16824.0375
1036.21877	17402.5375
1039.92035	17418.9375
1043.61937	17116.2375
1047.31584	16462.7375
1051.00976	15819.5375
1054.70114	15456.1375
1058.38998	15356.2375
1062.07627	15364.3375
1065.76003	15355.8375
1069.44126	15430.1375
1073.11995	15563.8375
1076.79611	15711.6375
1080.46974	15808.0375
1084.14085	15951.6375
1087.80943	16133.0375
1091.47549	16247.3375
1095.13903	16118.4375
1098.80005	15830.8375
1102.45857	15488.2375
1106.11456	15343.4375
1109.76805	15325.6375
1113.41903	15445.2375
1117.06751	15642.9375
1120.71348	15881.2375
1124.35696	16110.3375
1127.99793	16382.1375
1131.63641	16490.1375
1135.2724	16199.9375
1138.90589	15927.3375
1142.5369	15751.5375
1146.16542	15637.7375
1149.79145	15583.6375
1153.415	15674.4375
1157.03607	15814.8375
1160.65467	16116.2375
1164.27079	16633.3375
1167.88443	17405.0375
1171.49561	18484.6375
1175.10432	20087.5375
1178.71056	22101.1375
1182.31434	23909.0375
1185.91565	24959.1375
1189.51451	24939.9375
1193.11091	24034.7375
1196.70485	22713.4375
1200.29634	21509.3375
1203.88538	20595.3375
1207.47197	19817.1375
1211.05612	19227.2375
1214.63782	18830.1375
1218.21708	18728.7375
1221.79391	18755.8375
1225.36829	18795.6375
1228.94024	18837.5375
1232.50976	18627.4375
1236.07685	18425.1375
1239.6415	18334.6375
1243.20374	18254.9375
1246.76355	18301.5375
1250.32093	18527.6375
1253.8759	18946.5375
1257.42845	19500.8375
1260.97859	20073.2375
1264.52631	20521.6375
1268.07163	21019.1375
1271.61453	21567.4375
1275.15503	22229.7375
1278.69312	22926.9375
1282.22882	23462.1375
1285.76211	23941.4375
1289.29301	24451.9375
1292.82151	25038.0375
1296.34761	25872.6375
1299.87133	27075.8375
1303.39266	28714.7375
1306.9116	30867.4375
1310.42815	33193.2375
1313.94233	34672.5375
1317.45412	34676.5375
1320.96354	33627.1375
1324.47058	32337.9375
1327.97525	31145.0375
1331.47754	30314.6375
1334.97747	29963.2375
1338.47502	30038.1375
1341.97022	30279.3375
1345.46305	30229.2375
1348.95352	30112.0375
1352.44163	30088.5375
1355.92738	30766.6375
1359.41078	32671.3375
1362.89183	34737.6375
1366.37053	34413.7375
1369.84688	31084.2375
1373.32088	27325.8375
1376.79254	24735.6375
1380.26186	23560.0375
1383.72883	23147.0375
1387.19347	22937.5375
1390.65578	22666.0375
1394.11575	22548.6375
1397.57339	22693.9375
1401.0287	23174.1375
1404.48168	23659.6375
1407.93234	24056.4375
1411.38068	24255.7375
1414.82669	23996.5375
1418.27039	23278.8375
1421.71177	22446.0375
1425.15083	21752.0375
1428.58758	21285.5375
1432.02203	21175.0375
1435.45416	21375.9375
1438.88399	21710.7375
1442.31151	21967.7375
1445.73673	22230.1375
1449.15965	22501.3375
1452.58027	22611.7375
1455.9986	22591.3375
1459.41463	22642.1375
1462.82837	22874.7375
1466.23982	23270.8375
1469.64898	23712.9375
1473.05586	23944.1375
1476.46045	24077.7375
1479.86276	24120.8375
1483.26279	24138.0375
1486.66054	24204.4375
1490.05602	24423.1375
1493.44922	24776.5375
1496.84016	25190.4375
1500.22882	25718.3375
1503.61521	26676.8375
1506.99934	27917.4375
1510.38121	29276.0375
1513.76081	30008.4375
1517.13816	29399.0375
1520.51324	27875.4375
1523.88607	26088.2375
1527.25665	24805.6375
1530.62498	24024.4375
1533.99105	23502.8375
1537.35488	23236.8375
1540.71647	23006.4375
1544.07581	22802.6375
1547.4329	22572.6375
1550.78776	22363.0375
1554.14038	22215.9375
1557.49077	22209.2375
1560.83892	22340.3375
1564.18484	22385.8375
1567.52853	22394.7375
1570.86999	22426.6375
1574.20922	22564.9375
1577.54624	22648.3375
1580.88103	22506.0375
1584.2136	22370.1375
1587.54395	22727.4375
1590.87208	23737.0375
1594.19801	25189.0375
1597.52172	26861.9375
1600.84321	27569.4375
1604.16251	26588.9375
1607.47959	24650.9375
1610.79447	22566.3375
1614.10715	20667.0375
1617.41763	19160.0375
1620.7259	18180.9375
1624.03199	17689.5375
1627.33587	17701.8375
1630.63757	18229.2375
1633.93707	19239.5375
1637.23439	20733.1375
1640.52951	22526.3375
1643.82246	24431.3375
1647.11321	25934.1375
1650.40179	26412.8375
1653.68819	25155.3375
1656.97241	22362.6375
1660.25446	19401.4375
1663.53433	17177.0375
1666.81203	15807.0375
1670.08756	14941.4375
1673.36092	14395.0375
1676.63211	14079.2375
1679.90115	13841.7375
1683.16801	13639.8375
1686.43272	13499.0375
1689.69527	13382.9375
1692.95567	13303.7375
1696.2139	13244.0375
1699.46999	13178.1375
1702.72392	13128.4375
1705.97571	13120.6375
1709.22535	13155.2375
1712.47284	13164.5375
1715.71819	13162.0375
1718.96139	13148.5375
1722.20246	13119.1375
1725.44139	13050.1375
1728.67818	12987.2375
1731.91284	12933.5375
1735.14537	12865.6375
1738.37576	12803.8375
1741.60403	12761.3375
1744.83017	12735.2375
1748.05418	12718.3375
1751.27607	12666.8375
1754.49584	12628.3375
1757.71349	12618.6375
1760.92903	12590.2375
1764.14244	12589.5375
1767.35375	12592.9375
1770.56294	12556.0375
1773.77002	12571.8375
1776.97499	12533.6375
1780.17785	12580.2375
1783.37861	12559.0375
1786.57727	12556.3375
1789.77382	12568.1375
1792.96828	12539.8375
1796.16064	12522.2375
1799.3509	12496.8375
1802.53907	12497.0375
1805.72514	12454.1375
1808.90913	12457.0375
1812.09102	12403.5375
1815.27083	12409.8375
1818.44856	12383.8375
1821.6242	12354.5375
1824.79776	12331.1375
1827.96924	12359.1375
1831.13864	12327.0375
1834.30597	12359.6375
1837.47122	12334.5375
1840.6344	12327.9375
1843.7955	12348.0375
1846.95454	12355.0375
1850.11151	12344.5375
1853.26642	12320.9375
1856.41926	12387.1375
1859.57004	12400.4375
1862.71876	12372.5375
1865.86542	12393.4375
1869.01003	12387.5375
1872.15258	12370.0375
1875.29308	12386.2375
1878.43152	12415.5375
1881.56792	12413.7375
1884.70227	12398.3375
1887.83457	12405.5375
1890.96482	12428.2375
1894.09304	12398.7375
1897.21921	12405.0375
1900.34335	12393.4375
1903.46544	12404.3375
1906.58551	12402.2375
1909.70353	12397.5375
1912.81953	12392.6375
1915.93349	12387.9375
1919.04543	12323.4375
1922.15534	12344.3375
1925.26322	12318.1375
1928.36908	12267.9375
1931.47292	12254.6375
1934.57473	12182.4375
1937.67453	12163.8375
1940.77232	12087.8375
1943.86808	12056.9375
1946.96184	12007.1375
1950.05358	11977.1375
1953.14331	11922.9375
1956.23103	11857.7375
1959.31675	11823.6375
1962.40046	11795.2375
1965.48217	11774.3375
1968.56188	11738.7375
1971.63959	11703.8375
1974.7153	11666.8375
1977.78901	11635.6375
1980.86073	11598.6375
1983.93046	11556.9375
1986.99819	11512.9375
1990.06394	11487.6375
1993.1277	11463.3375
1996.18947	11394.2375
1999.24925	11390.2375
2002.30706	11342.0375
2005.36288	11326.4375
2008.41672	11305.1375
2011.46859	11244.3375
2014.51848	11217.3375
2017.56639	11210.3375
2020.61233	11186.9375
2023.6563	11175.5375
2026.6983	11146.7375
2029.73833	11130.3375
2032.7764	11105.3375
2035.8125	11092.1375
2038.84664	11067.2375
2041.87881	11095.3375
2044.90903	11065.6375
2047.93729	11017.6375
2050.96359	10998.4375
2053.98794	11007.9375
2057.01034	10982.6375
2060.03078	11000.9375
2063.04927	10985.1375
2066.06582	10985.5375
2069.08042	10975.7375
2072.09307	10938.0375
2075.10378	10942.0375
2078.11255	10895.9375
2081.11938	10924.8375
2084.12426	10899.3375
2087.12722	10887.0375
2090.12824	10890.8375
2093.12732	10891.0375
2096.12447	10875.3375
2099.11969	10892.3375
2102.11299	10908.7375
2105.10435	10910.7375
2108.09379	10937.7375
2111.08131	10930.8375
2114.0669	10934.7375
2117.05057	10917.4375
2120.03233	10941.2375
2123.01216	10924.8375
2125.99008	10947.3375
2128.96609	10952.3375
2131.94018	10928.6375
2134.91236	10958.0375
2137.88263	10973.1375
2140.851	10971.1375
2143.81746	10984.3375
2146.78201	10977.6375
2149.74466	10998.6375
2152.7054	10987.2375
2155.66425	10993.8375
2158.6212	11011.7375
2161.57625	10950.3375
2164.52941	10967.7375
2167.48067	10978.7375
2170.43004	10988.9375
2173.37752	10986.5375
2176.32311	10992.2375
2179.26681	10977.6375
2182.20863	10977.0375
2185.14856	10980.4375
2188.08661	11005.2375
2191.02278	10990.0375
2193.95707	11000.2375
2196.88948	10966.6375
2199.82001	11004.1375
2202.74867	11006.2375
2205.67545	11003.2375
2208.60037	10990.7375
2211.52341	10986.4375
2214.44458	10961.4375
2217.36388	10977.7375
2220.28132	10950.8375
2223.1969	10919.1375
2226.11061	10935.7375
2229.02246	10897.6375
2231.93245	10906.4375
2234.84058	10855.3375
2237.74686	10828.1375
2240.65128	10825.0375
2243.55385	10804.2375
2246.45456	10801.0375
2249.35343	10781.7375
2252.25044	10759.1375
2255.14561	10730.3375
2258.03893	10729.4375
2260.93041	10737.0375
2263.82004	10698.9375
2266.70783	10676.3375
2269.59378	10636.2375
2272.4779	10625.1375
2275.36017	10592.4375
2278.24061	10584.7375
2281.11922	10586.3375
2283.996	10561.6375
2286.87094	10548.4375
2289.74405	10523.4375
2292.61534	10530.2375
2295.4848	10523.7375
2298.35243	10530.7375
2301.21824	10554.2375
2304.08223	10562.7375
2306.94439	10547.4375
2309.80474	10547.2375
2312.66327	10578.8375
2315.51999	10562.0375
2318.37489	10551.6375
2321.22797	10580.8375
2324.07925	10567.9375
2326.92871	10570.5375
2329.77637	10524.8375
2332.62222	10520.9375
2335.46626	10510.6375
2338.3085	10540.1375
2341.14893	10518.6375
2343.98756	10543.2375
2346.8244	10542.8375
2349.65943	10546.9375
2352.49267	10568.8375
2355.32411	10525.0375
2358.15376	10527.6375
2360.98161	10541.4375
2363.80768	10519.6375
2366.63195	10519.0375
2369.45444	10487.7375
2372.27514	10456.3375
2375.09405	10457.3375
2377.91118	10426.9375
2380.72652	10390.1375
2383.54009	10371.0375
2386.35187	10349.8375
2389.16188	10311.7375
2391.97011	10311.4375
2394.77657	10301.2375
2397.58125	10288.3375
2400.38416	10266.3375
2403.18529	10269.6375
2405.98466	10228.5375
2408.78226	10212.2375
2411.57809	10191.5375
2414.37216	10171.6375
2417.16446	10156.8375
2419.955	10148.5375
2422.74378	10141.4375
2425.5308	10139.6375
2428.31606	10115.8375
2431.09956	10134.5375
2433.88131	10112.2375
2436.6613	10116.7375
2439.43954	10122.0375
2442.21603	10113.0375
2444.99077	10093.9375
2447.76377	10105.0375
2450.53501	10095.3375
2453.30451	10097.8375
2456.07226	10072.5375
2458.83827	10066.3375
2461.60254	10088.2375
2464.36507	10065.5375
2467.12586	10075.8375
2469.88492	10055.5375
2472.64224	10113.7375
2475.39782	10099.5375
2478.15167	10084.6375
2480.90379	10103.5375
2483.65417	10119.2375
2486.40283	10131.2375
2489.14976	10155.0375
2491.89497	10158.9375
2494.63845	10182.1375
2497.3802	10143.2375
2500.12024	10146.3375
2502.85855	10150.5375
2505.59514	10108.0375
2508.33002	10120.3375
2511.06318	10141.7375
2513.79462	10104.4375
2516.52435	10056.7375
2519.25237	10063.8375
2521.97867	10059.8375
2524.70327	10041.3375
2527.42616	10045.2375
2530.14734	10049.0375
2532.86681	10032.5375
2535.58458	10030.8375
2538.30065	10020.2375
2541.01501	10032.1375
2543.72768	10020.3375
2546.43864	9982.4375
2549.14791	9990.2375
2551.85548	9986.4375
2554.56136	9963.4375
2557.26554	9982.4375
2559.96803	9939.3375
2562.66883	9958.3375
2565.36794	9961.6375
2568.06536	9959.6375
2570.7611	9941.2375
2573.45514	9924.7375
2576.14751	9906.1375
2578.83819	9899.6375
2581.52719	9924.4375
2584.21451	9930.6375
2586.90015	9918.6375
2589.58411	9891.7375
2592.2664	9912.6375
2594.94701	9919.3375
2597.62594	9930.5375
2600.30321	9895.8375
2602.9788	9900.4375
2605.65273	9909.4375
2608.32498	9898.7375
2610.99557	9889.1375
2613.66449	9906.7375
2616.33175	9910.5375
2618.99734	9919.8375
2621.66128	9915.5375
2624.32355	9923.7375
2626.98416	9928.2375
2629.64311	9915.0375
2632.30041	9918.2375
2634.95605	9899.4375
2637.61004	9871.5375
2640.26238	9864.2375
2642.91306	9869.7375
2645.56209	9850.0375
2648.20948	9844.6375
2650.85521	9823.9375
2653.4993	9837.4375
2656.14175	9826.9375
2658.78255	9836.4375
2661.42171	9847.6375
2664.05923	9843.5375
2666.6951	9861.6375
2669.32934	9853.9375
2671.96194	9848.7375
2674.59291	9883.1375
2677.22224	9893.7375
2679.84993	9885.4375
2682.476	9850.7375
2685.10043	9863.5375
2687.72324	9837.9375
2690.34441	9842.1375
2692.96396	9812.8375
2695.58188	9836.8375
2698.19818	9832.9375
2700.81285	9814.3375
2703.4259	9820.4375
2706.03733	9802.5375
2708.64714	9796.2375
2711.25533	9825.2375
2713.86191	9818.2375
2716.46687	9849.0375
2719.07021	9847.0375
2721.67194	9828.7375
2724.27206	9849.3375
2726.87057	9846.5375
2729.46747	9871.3375
2732.06276	9845.6375
2734.65644	9843.6375
2737.24852	9862.2375
2739.83899	9870.6375
2742.42786	9865.8375
2745.01513	9822.8375
2747.60079	9872.7375
2750.18486	9831.7375
2752.76733	9820.0375
2755.3482	9827.0375
2757.92747	9840.3375
2760.50515	9798.2375
2763.08123	9828.6375
2765.65573	9821.2375
2768.22863	9799.1375
2770.79994	9811.3375
2773.36967	9808.6375
2775.9378	9804.4375
2778.50435	9789.1375
2781.06932	9796.1375
2783.6327	9796.5375
2786.1945	9788.6375
2788.75471	9781.1375
2791.31335	9762.2375
2793.87041	9753.4375
2796.42589	9730.5375
2798.97979	9725.9375
2801.53212	9712.2375
2804.08288	9701.7375
2806.63206	9670.9375
2809.17967	9638.0375
2811.72571	9638.7375
2814.27018	9618.7375
2816.81308	9628.5375
2819.35442	9627.3375
2821.89419	9625.4375
2824.43239	9634.1375
2826.96904	9645.0375
2829.50412	9635.6375
2832.03763	9611.8375
2834.56959	9615.8375
2837.1	9590.4375
2839.62884	9606.9375
2842.15613	9582.7375
2844.68186	9622.2375
2847.20604	9608.7375
2849.72867	9631.5375
2852.24974	9634.8375
2854.76927	9632.8375
2857.28724	9591.0375
2859.80367	9594.8375
2862.31855	9581.4375
2864.83189	9553.6375
2867.34368	9556.2375
2869.85393	9552.5375
2872.36264	9559.8375
2874.8698	9580.0375
2877.37543	9552.9375
2879.87952	9553.7375
2882.38207	9551.3375
2884.88308	9540.7375
2887.38256	9550.0375
2889.88051	9537.5375
2892.37692	9523.3375
2894.8718	9535.9375
2897.36515	9570.7375
2899.85698	9579.2375
2902.34727	9590.3375
2904.83604	9584.5375
2907.32328	9587.6375
2909.809	9607.7375
2912.29319	9630.1375
2914.77587	9604.6375
2917.25702	9593.6375
2919.73665	9614.7375
2922.21476	9594.9375
2924.69136	9579.9375
2927.16644	9609.5375
2929.64	9575.2375
2932.11205	9585.5375
2934.58258	9526.4375
2937.05161	9547.5375
2939.51912	9547.6375
2941.98513	9521.1375
2944.44962	9502.3375
2946.91261	9442.8375
2949.37409	9500.3375
2951.83407	9458.8375
2954.29254	9481.7375
2956.74951	9446.0375
2959.20498	9438.6375
2961.65895	9446.9375
2964.11142	9449.0375
2966.56239	9413.4375
2969.01186	9401.7375
2971.45984	9375.1375
2973.90632	9362.8375
2976.35131	9338.5375
2978.7948	9317.0375
2981.23681	9301.1375
2983.67732	9294.1375
2986.11635	9264.4375
2988.55388	9224.0375
2990.98993	9238.3375
2993.4245	9216.3375
2995.85758	9202.3375
2998.28917	9168.7375
3000.71928	9149.6375
3003.14791	9155.7375
3005.57506	9140.7375
3008.00073	9125.2375
3010.42493	9145.7375
3012.84764	9122.7375
3015.26888	9102.3375
3017.68865	9082.4375
3020.10694	9072.3375
3022.52376	9056.7375
3024.9391	9025.4375
3027.35298	9029.3375
3029.76539	8991.8375
3032.17632	9006.2375
3034.5858	8996.4375
3036.9938	8966.0375
3039.40034	8963.6375
3041.80542	8980.1375
3044.20903	8969.6375
3046.61118	8965.2375
3049.01187	8944.7375
3051.4111	8947.6375
3053.80888	8948.2375
3056.20519	8921.1375
3058.60005	8870.9375
3060.99345	8840.7375
3063.3854	8828.2375
3065.7759	8795.8375
3068.16494	8794.7375
3070.55254	8764.9375
3072.93868	8741.2375
3075.32338	8715.1375
3077.70662	8712.1375
3080.08842	8697.4375
3082.46878	8690.3375
3084.84769	8675.2375
3087.22515	8670.9375
3089.60118	8670.4375
3091.97576	8674.6375
3094.3489	8670.4375
3096.72061	8690.2375
3099.09087	8677.9375
3101.4597	8658.2375
3103.82709	8672.5375
3106.19305	8647.9375
3108.55757	8656.7375
3110.92066	8630.3375
3113.28232	8595.2375
3115.64255	8589.0375
3118.00134	8603.9375
3120.35871	8566.4375
3122.71466	8547.6375
3125.06917	8544.2375
3127.42226	8531.8375
3129.77393	8527.2375
3132.12417	8519.0375
3134.47299	8510.5375
3136.82039	8503.9375
3139.16636	8513.0375
3141.51092	8517.9375
3143.85406	8521.0375
3146.19579	8523.4375
3148.53609	8515.7375
3150.87499	8529.9375
3153.21246	8554.8375
3155.54853	8565.0375
3157.88318	8539.9375
3160.21642	8556.2375
3162.54826	8553.4375
3164.87868	8551.2375
3167.2077	8534.6375
3169.5353	8533.9375
3171.86151	8539.9375
3174.18631	8541.7375
3176.5097	8529.8375
3178.83169	8531.9375
3181.15228	8539.7375
3183.47147	8501.5375
3185.78926	8510.2375
3188.10565	8493.4375
3190.42065	8477.9375
3192.73424	8493.6375
3195.04645	8507.4375
3197.35725	8497.8375
3199.66667	8513.3375
3201.97469	8501.6375
3204.28132	8501.2375
3206.58656	8507.4375
3208.8904	8528.7375
3211.19287	8521.2375
3213.49394	8520.0375
3215.79363	8543.5375
3218.09193	8529.5375
3220.38884	8529.5375
3222.68438	8531.6375
3224.97853	8523.1375
3227.2713	8514.5375
3229.56269	8515.0375
3231.8527	8512.8375
3234.14133	8495.8375
3236.42858	8484.0375
3238.71446	8482.1375
3240.99896	8440.6375
3243.28209	8467.8375
3245.56384	8453.6375
3247.84423	8431.2375
3250.12324	8420.6375
3252.40088	8425.7375
3254.67715	8428.9375
3256.95205	8412.6375
3259.22558	8432.9375
3261.49775	8412.3375
3263.76855	8414.1375
3266.03799	8386.9375
3268.30606	8375.1375
3270.57277	8383.0375
3272.83812	8362.8375
3275.10211	8341.5375
3277.36474	8311.5375
3279.62601	8324.7375
3281.88593	8300.4375
3284.14448	8319.6375
3286.40168	8319.4375
3288.65753	8294.6375
3290.91202	8307.4375
3293.16516	8291.8375
3295.41695	8250.5375
3297.66738	8219.2375
3299.91647	8185.3375
3302.16421	8146.4375
3304.4106	8107.8375
3306.65564	8056.6375
3308.89933	8048.2375
3311.14169	7967.8375
3313.38269	7905.5375
3315.62236	7857.7375
3317.86068	7775.5375
3320.09766	7748.1375
3322.3333	7685.5375
3324.5676	7673.8375
3326.80056	7542.8375
3329.03219	7503.0375
3331.26248	2.1375
3333.49143	0.3375
3335.71905	-1.9625
