Data from AgNPs_FTO_APTES_UA_1uM_CRN_0uM_R6G_10uM_NaF_0.1M_Addition_RamanShift__31__11-41-49-442.txt Node

Date: Thu Jan 27 11:41:49 GMT 2022
User: TCL
Spectrometer: QEP01345
Trigger mode: 4
Integration Time (sec): 7.000000E0
Scans to average: 10
Electric dark correction enabled: true
Nonlinearity correction enabled: false
Boxcar width: 0
XAxis mode: Raman Shifts
Number of Pixels in Spectrum: 1044
>>>>>Begin Spectral Data<<<<<
46.04893	-0.4
50.45542	0.3
54.85868	-0.5
59.25871	-0.8
63.6555	47.5
68.04907	45.5
72.43941	50.3
76.82654	51.2
81.21044	53.9
85.59113	53.4
89.96862	54.8
94.34289	58.1
98.71396	62.4
103.08183	60.9
107.4465	66.9
111.80798	67.6
116.16626	66.9
120.52136	72.5
124.87327	71.9
129.222	71.3
133.56755	80
137.90993	84.9
142.24913	88.8
146.58517	100
150.91804	115.7
155.24774	134.9
159.57429	166.6
163.89768	209.4
168.21792	277.2
172.53501	374.4
176.84895	519
181.15975	719.8
185.46741	1007.1
189.77193	1385.3
194.07331	1862.5
198.37157	2401.8
202.6667	2971.3
206.9587	3541.4
211.24758	4079.9
215.53334	4634.3
219.81599	5228.7
224.09553	5891.3
228.37195	6621.3
232.64527	7391.8
236.91549	8218.4
241.18261	9091.1
245.44663	9828
249.70755	10535.4
253.96539	11117.2
258.22014	11607.6
262.4718	12018.9
266.72039	12261.2
270.96589	12355.6
275.20832	12341.6
279.44768	12200.3
283.68397	12026.2
287.91719	11908.6
292.14735	11793.9
296.37445	11747.4
300.59849	11777.8
304.81948	11859.4
309.03742	11928.9
313.25231	11956.8
317.46415	11840.7
321.67296	11630.2
325.87872	11459.1
330.08145	11356
334.28114	11349.1
338.47781	11382.3
342.67145	11534.9
346.86207	11732.7
351.04966	11955.2
355.23424	12188.2
359.4158	12404.9
363.59435	12557.6
367.76989	12649
371.94243	12697.7
376.11196	12678.7
380.27849	12687.6
384.44203	12756.9
388.60257	12817.7
392.76012	12890.7
396.91468	13052.7
401.06626	13268
405.21485	13415.7
409.36047	13383.3
413.50311	13286.8
417.64277	13368.3
421.77947	13471.5
425.9132	13380.4
430.04396	13381.1
434.17176	13423.4
438.2966	13471.8
442.41849	13614.4
446.53742	13878.4
450.6534	14216
454.76644	14429.2
458.87653	14460
462.98368	14333.6
467.08789	14189.6
471.18916	13960.2
475.2875	13665.4
479.38291	13460.8
483.4754	13324.6
487.56496	13245.8
491.6516	13146.5
495.73531	13122
499.81612	13125.7
503.89401	13271.9
507.96899	13372
512.04106	13343.2
516.11023	13272.5
520.1765	13197.9
524.23987	13071.9
528.30034	12988.5
532.35792	12858.3
536.41261	12731
540.46441	12595.3
544.51333	12527.5
548.55936	12609.9
552.60252	12804.7
556.64279	13096.7
560.6802	13318.1
564.71473	13354.4
568.7464	13483.5
572.7752	13751.2
576.80114	14146.8
580.82422	14650.7
584.84444	15417.3
588.86181	16502.5
592.87633	17510.8
596.888	17518.4
600.89682	16428.6
604.9028	15740.8
608.90594	16385.6
612.90624	17491.2
616.90371	16727
620.89834	14345
624.89015	13186.2
628.87913	13052.2
632.86528	13134.3
636.84862	13137.4
640.82913	12966.9
644.80683	12670.6
648.78172	12516.7
652.75379	12529.5
656.72306	12727.7
660.68952	12915.7
664.65319	12804.9
668.61405	12607.5
672.57211	12526.6
676.52738	12629
680.47986	12645.2
684.42955	12539.1
688.37646	12457.1
692.32058	12502.7
696.26192	12718.2
700.20048	12889.8
704.13626	13022.6
708.06928	13004.6
711.99952	12953.9
715.927	12969.5
719.85171	13020.3
723.77365	12969.5
727.69284	12758.4
731.60928	12556.4
735.52295	12473.7
739.43388	12479.5
743.34206	12541
747.24749	12616.9
751.15017	12737.8
755.05012	12929.2
758.94733	13219.5
762.8418	13779.6
766.73354	14629.3
770.62254	15462
774.50882	15681.4
778.39237	15108.2
782.27321	14279.3
786.15132	13545.5
790.02671	13064.2
793.89938	12809.2
797.76935	12673.7
801.6366	12589.6
805.50115	12577.3
809.36299	12547.8
813.22213	12432.4
817.07857	12359.6
820.93231	12279.3
824.78336	12220.3
828.63172	12227.5
832.47738	12198.5
836.32036	12176.4
840.16066	12172.6
843.99827	12155.3
847.8332	12184
851.66546	12168.2
855.49504	12216.8
859.32195	12218
863.1462	12198.7
866.96777	12166.3
870.78668	12195.5
874.60293	12189.1
878.41652	12222
882.22745	12253
886.03573	12300
889.84136	12308.6
893.64433	12274.2
897.44466	12252.3
901.24235	12222.9
905.0374	12210.2
908.8298	12136.7
912.61957	12159.9
916.40671	12210.8
920.19121	12371.6
923.97308	12497
927.75233	12621
931.52895	12540.8
935.30295	12346
939.07433	12139.5
942.84309	11973.3
946.60924	11902.4
950.37278	11868
954.13371	11847.9
957.89203	11841.7
961.64774	11808.3
965.40086	11812.6
969.15137	11789.7
972.89929	11763.9
976.64461	11727.4
980.38733	11693.4
984.12747	11716.3
987.86502	11777.4
991.59999	11817.4
995.33237	11921.2
999.06217	12072.4
1002.78939	12286.9
1006.51404	12545.3
1010.23611	12825.6
1013.95561	12981
1017.67255	12996.9
1021.38692	12922.1
1025.09872	12686.3
1028.80796	12502.7
1032.51465	12433.6
1036.21877	12467.6
1039.92035	12511.9
1043.61937	12561.7
1047.31584	12528.6
1051.00976	12517.7
1054.70114	12551.6
1058.38998	12569.9
1062.07627	12658.9
1065.76003	12777.5
1069.44126	12926.6
1073.11995	13138.3
1076.79611	13414.9
1080.46974	13593.5
1084.14085	13632.4
1087.80943	13805.6
1091.47549	13921.6
1095.13903	13904
1098.80005	13693.9
1102.45857	13394
1106.11456	13091
1109.76805	12967
1113.41903	12952.9
1117.06751	13016.5
1120.71348	13088.8
1124.35696	13214.5
1127.99793	13375.5
1131.63641	13467.5
1135.2724	13443.2
1138.90589	13378.6
1142.5369	13346.2
1146.16542	13417.5
1149.79145	13471.4
1153.415	13559.3
1157.03607	13621.4
1160.65467	13909.2
1164.27079	14523.6
1167.88443	15179
1171.49561	15924.3
1175.10432	16808.2
1178.71056	17941.5
1182.31434	19076.3
1185.91565	19619.8
1189.51451	19490.5
1193.11091	19015.3
1196.70485	18450.9
1200.29634	17838
1203.88538	17357.6
1207.47197	17023.2
1211.05612	16800
1214.63782	16503.2
1218.21708	16097.6
1221.79391	15688.5
1225.36829	15493.9
1228.94024	15376.7
1232.50976	15274.9
1236.07685	15061.1
1239.6415	14845.5
1243.20374	14760.8
1246.76355	14842.6
1250.32093	15032.4
1253.8759	15281.8
1257.42845	15675.3
1260.97859	16135
1264.52631	16629.8
1268.07163	17089.3
1271.61453	17577
1275.15503	17983.3
1278.69312	18450.5
1282.22882	18928.2
1285.76211	19576.7
1289.29301	20292.5
1292.82151	21112.2
1296.34761	22134.5
1299.87133	23300.8
1303.39266	24542.5
1306.9116	25682.5
1310.42815	26542.7
1313.94233	26971.8
1317.45412	26680.2
1320.96354	25967.5
1324.47058	25304.4
1327.97525	24876.4
1331.47754	24579.5
1334.97747	24355.5
1338.47502	24047.2
1341.97022	23667.3
1345.46305	23394.9
1348.95352	23337.3
1352.44163	23640
1355.92738	24418.1
1359.41078	25759.8
1362.89183	26986.3
1366.37053	27064.6
1369.84688	25284.6
1373.32088	22417.5
1376.79254	20133
1380.26186	19196.1
1383.72883	19045.6
1387.19347	18950.5
1390.65578	18600.3
1394.11575	18353.3
1397.57339	18452.6
1401.0287	18774.7
1404.48168	19089.7
1407.93234	19108.2
1411.38068	18818.7
1414.82669	18398.7
1418.27039	17837.3
1421.71177	17280.6
1425.15083	16836.8
1428.58758	16672.8
1432.02203	16871.2
1435.45416	17311.2
1438.88399	17826.2
1442.31151	18033.5
1445.73673	18090.7
1449.15965	18051.1
1452.58027	17912.3
1455.9986	17743.6
1459.41463	17782.6
1462.82837	18079.6
1466.23982	18465.5
1469.64898	18812
1473.05586	19080.2
1476.46045	19167.6
1479.86276	19133.9
1483.26279	19074.4
1486.66054	19077
1490.05602	19154.4
1493.44922	19463.2
1496.84016	19754.6
1500.22882	20181
1503.61521	20689.7
1506.99934	21292.1
1510.38121	21823.9
1513.76081	21926
1517.13816	21551.2
1520.51324	20902.8
1523.88607	20348.2
1527.25665	20013.5
1530.62498	19885.1
1533.99105	19703.5
1537.35488	19316.2
1540.71647	18859.5
1544.07581	18328.1
1547.4329	17816.5
1550.78776	17440.4
1554.14038	17134
1557.49077	17003.7
1560.83892	16954.6
1564.18484	16928.7
1567.52853	16970.8
1570.86999	17127.4
1574.20922	17396.1
1577.54624	17617
1580.88103	17629.3
1584.2136	17685.4
1587.54395	18185.5
1590.87208	19170.2
1594.19801	20407.6
1597.52172	21609.5
1600.84321	21961.3
1604.16251	21045.2
1607.47959	19290.3
1610.79447	17571.9
1614.10715	16107.5
1617.41763	14979.6
1620.7259	14237.1
1624.03199	13837.6
1627.33587	13840.5
1630.63757	14193.1
1633.93707	15026.7
1637.23439	16477.4
1640.52951	18741.6
1643.82246	21569.3
1647.11321	23937.7
1650.40179	24405.1
1653.68819	22523.9
1656.97241	19271.7
1660.25446	16300.8
1663.53433	14299.6
1666.81203	13043.9
1670.08756	12314.6
1673.36092	11905.9
1676.63211	11616.3
1679.90115	11420
1683.16801	11271.4
1686.43272	11141.6
1689.69527	11051.3
1692.95567	10953.3
1696.2139	10866.5
1699.46999	10768.7
1702.72392	10750.4
1705.97571	10744.9
1709.22535	10782.8
1712.47284	10822.9
1715.71819	10800.1
1718.96139	10789
1722.20246	10767.9
1725.44139	10719.3
1728.67818	10664.4
1731.91284	10601.3
1735.14537	10543.2
1738.37576	10484.4
1741.60403	10457.3
1744.83017	10422.6
1748.05418	10351.8
1751.27607	10344.1
1754.49584	10278.5
1757.71349	10278.6
1760.92903	10254.7
1764.14244	10238.3
1767.35375	10240.4
1770.56294	10210.2
1773.77002	10217.6
1776.97499	10209.6
1780.17785	10206.4
1783.37861	10219.7
1786.57727	10214.4
1789.77382	10191.9
1792.96828	10196
1796.16064	10155.8
1799.3509	10125.3
1802.53907	10124.7
1805.72514	10125.4
1808.90913	10071.8
1812.09102	10049.7
1815.27083	10030.3
1818.44856	10039.3
1821.6242	10027
1824.79776	10020.1
1827.96924	9997.7
1831.13864	10004.6
1834.30597	9984.1
1837.47122	9987.3
1840.6344	10013.1
1843.7955	9997
1846.95454	10014
1850.11151	10001.9
1853.26642	9986.7
1856.41926	9986.4
1859.57004	9963
1862.71876	9964.6
1865.86542	9944.4
1869.01003	9941.6
1872.15258	9928.2
1875.29308	9900.8
1878.43152	9895.5
1881.56792	9903.5
1884.70227	9870.3
1887.83457	9862.8
1890.96482	9829.5
1894.09304	9834.7
1897.21921	9821.9
1900.34335	9810.6
1903.46544	9813.4
1906.58551	9786.7
1909.70353	9745.8
1912.81953	9740.2
1915.93349	9727
1919.04543	9729.6
1922.15534	9676.5
1925.26322	9642.6
1928.36908	9648.1
1931.47292	9614.4
1934.57473	9591
1937.67453	9573.7
1940.77232	9550.8
1943.86808	9508.5
1946.96184	9503.6
1950.05358	9484.1
1953.14331	9451.9
1956.23103	9416.9
1959.31675	9422.9
1962.40046	9381.9
1965.48217	9346.9
1968.56188	9319.5
1971.63959	9295.8
1974.7153	9257.2
1977.78901	9248.9
1980.86073	9212.2
1983.93046	9165.6
1986.99819	9162.6
1990.06394	9112.9
1993.1277	9112.3
1996.18947	9073.4
1999.24925	9060.9
2002.30706	9017.9
2005.36288	8999.3
2008.41672	8979.6
2011.46859	8946.3
2014.51848	8908.4
2017.56639	8897.6
2020.61233	8877.7
2023.6563	8851.8
2026.6983	8829.3
2029.73833	8830.7
2032.7764	8801.9
2035.8125	8805.1
2038.84664	8755.5
2041.87881	8748.6
2044.90903	8737.4
2047.93729	8703.1
2050.96359	8680.5
2053.98794	8674.3
2057.01034	8679.1
2060.03078	8669.8
2063.04927	8682.2
2066.06582	8696.3
2069.08042	8662.9
2072.09307	8663
2075.10378	8657.6
2078.11255	8641.2
2081.11938	8672.5
2084.12426	8636.4
2087.12722	8658.6
2090.12824	8644.3
2093.12732	8650.6
2096.12447	8656.8
2099.11969	8651.7
2102.11299	8652.1
2105.10435	8681
2108.09379	8675.8
2111.08131	8657.2
2114.0669	8674.7
2117.05057	8671.9
2120.03233	8672.5
2123.01216	8679
2125.99008	8699.8
2128.96609	8679.9
2131.94018	8698.6
2134.91236	8692.5
2137.88263	8698
2140.851	8686
2143.81746	8703.6
2146.78201	8721.8
2149.74466	8710.1
2152.7054	8722.2
2155.66425	8720.8
2158.6212	8707.3
2161.57625	8687.3
2164.52941	8674.3
2167.48067	8664.5
2170.43004	8665.2
2173.37752	8673
2176.32311	8686.6
2179.26681	8683.6
2182.20863	8674.5
2185.14856	8673.6
2188.08661	8673.3
2191.02278	8655.9
2193.95707	8665.4
2196.88948	8671
2199.82001	8666.8
2202.74867	8633.6
2205.67545	8615.3
2208.60037	8643.7
2211.52341	8600.1
2214.44458	8608.9
2217.36388	8561.8
2220.28132	8573.6
2223.1969	8535
2226.11061	8523.9
2229.02246	8515.7
2231.93245	8523.3
2234.84058	8508.1
2237.74686	8494.4
2240.65128	8502.6
2243.55385	8473.3
2246.45456	8458.4
2249.35343	8443.7
2252.25044	8443.2
2255.14561	8445.5
2258.03893	8408.3
2260.93041	8389.9
2263.82004	8364.6
2266.70783	8351.6
2269.59378	8338.5
2272.4779	8316.5
2275.36017	8287.8
2278.24061	8294.2
2281.11922	8284.2
2283.996	8261.4
2286.87094	8241.7
2289.74405	8223.5
2292.61534	8213.3
2295.4848	8213.1
2298.35243	8228.4
2301.21824	8214
2304.08223	8220.2
2306.94439	8202.5
2309.80474	8193.6
2312.66327	8191
2315.51999	8174.4
2318.37489	8173.6
2321.22797	8173.1
2324.07925	8160.2
2326.92871	8174.3
2329.77637	8141.9
2332.62222	8132.3
2335.46626	8098.2
2338.3085	8101.5
2341.14893	8098.2
2343.98756	8096.1
2346.8244	8077.9
2349.65943	8069.8
2352.49267	8078.8
2355.32411	8085.4
2358.15376	8085.3
2360.98161	8080.7
2363.80768	8066.9
2366.63195	8076.3
2369.45444	8071.4
2372.27514	8066.1
2375.09405	8048.9
2377.91118	8003.2
2380.72652	7992.4
2383.54009	7992.7
2386.35187	7984
2389.16188	7958.9
2391.97011	7926.5
2394.77657	7915
2397.58125	7909.2
2400.38416	7916.7
2403.18529	7902
2405.98466	7868.8
2408.78226	7843.1
2411.57809	7878.1
2414.37216	7842.5
2417.16446	7835.7
2419.955	7823.9
2422.74378	7831
2425.5308	7845.5
2428.31606	7838.5
2431.09956	7820.1
2433.88131	7810.4
2436.6613	7792.4
2439.43954	7804
2442.21603	7804.3
2444.99077	7801.2
2447.76377	7798.9
2450.53501	7792.2
2453.30451	7792.7
2456.07226	7779.5
2458.83827	7770.7
2461.60254	7777.5
2464.36507	7766.6
2467.12586	7774.1
2469.88492	7749.9
2472.64224	7771.1
2475.39782	7766.3
2478.15167	7757.7
2480.90379	7736.3
2483.65417	7751.8
2486.40283	7755.8
2489.14976	7761.3
2491.89497	7733.4
2494.63845	7738.1
2497.3802	7735.9
2500.12024	7749.2
2502.85855	7727.2
2505.59514	7719.8
2508.33002	7726.6
2511.06318	7706.6
2513.79462	7700.5
2516.52435	7680.1
2519.25237	7693.9
2521.97867	7671.9
2524.70327	7681.9
2527.42616	7641.3
2530.14734	7651.4
2532.86681	7661.6
2535.58458	7657.7
2538.30065	7637.8
2541.01501	7616.6
2543.72768	7614.7
2546.43864	7627
2549.14791	7608.1
2551.85548	7602
2554.56136	7586.1
2557.26554	7578.8
2559.96803	7555.4
2562.66883	7558.1
2565.36794	7552.2
2568.06536	7551.3
2570.7611	7544.8
2573.45514	7534
2576.14751	7509.2
2578.83819	7502.1
2581.52719	7488.6
2584.21451	7516.5
2586.90015	7506.7
2589.58411	7457.3
2592.2664	7487.1
2594.94701	7458.3
2597.62594	7461.4
2600.30321	7452.4
2602.9788	7452.5
2605.65273	7425.3
2608.32498	7430.7
2610.99557	7405.5
2613.66449	7431.3
2616.33175	7409.3
2618.99734	7406.5
2621.66128	7389.2
2624.32355	7362.8
2626.98416	7369
2629.64311	7365.3
2632.30041	7358.5
2634.95605	7362.8
2637.61004	7327.1
2640.26238	7311.7
2642.91306	7332.9
2645.56209	7322
2648.20948	7310.4
2650.85521	7319
2653.4993	7319.9
2656.14175	7333.6
2658.78255	7340.4
2661.42171	7347.8
2664.05923	7366.6
2666.6951	7377.2
2669.32934	7384.7
2671.96194	7351.4
2674.59291	7364.5
2677.22224	7346.5
2679.84993	7368.1
2682.476	7346.4
2685.10043	7328.1
2687.72324	7330
2690.34441	7324.2
2692.96396	7332.2
2695.58188	7338.2
2698.19818	7343.4
2700.81285	7323.9
2703.4259	7321.1
2706.03733	7294.4
2708.64714	7299.6
2711.25533	7331.7
2713.86191	7323.4
2716.46687	7338.3
2719.07021	7351.8
2721.67194	7342.4
2724.27206	7351.6
2726.87057	7368.4
2729.46747	7364.1
2732.06276	7362.7
2734.65644	7372.7
2737.24852	7380.6
2739.83899	7363.8
2742.42786	7356.5
2745.01513	7334.2
2747.60079	7309.1
2750.18486	7333.3
2752.76733	7318.5
2755.3482	7325.8
2757.92747	7308.3
2760.50515	7304.9
2763.08123	7303
2765.65573	7308
2768.22863	7306.3
2770.79994	7303.7
2773.36967	7278.7
2775.9378	7289.6
2778.50435	7290.3
2781.06932	7245
2783.6327	7235.7
2786.1945	7263.7
2788.75471	7267
2791.31335	7234.2
2793.87041	7234
2796.42589	7220
2798.97979	7202.4
2801.53212	7200
2804.08288	7224.9
2806.63206	7179.5
2809.17967	7151.3
2811.72571	7157.6
2814.27018	7117
2816.81308	7114.4
2819.35442	7109.3
2821.89419	7078.7
2824.43239	7091.6
2826.96904	7085
2829.50412	7088.9
2832.03763	7080.8
2834.56959	7082
2837.1	7083.5
2839.62884	7084.5
2842.15613	7065.6
2844.68186	7073.6
2847.20604	7080.1
2849.72867	7086.3
2852.24974	7080.2
2854.76927	7073.7
2857.28724	7052.3
2859.80367	7052.7
2862.31855	7060.6
2864.83189	7057.9
2867.34368	7036.5
2869.85393	7030.3
2872.36264	7033.6
2874.8698	7035.5
2877.37543	7036.7
2879.87952	7024.7
2882.38207	7043.9
2884.88308	7009.4
2887.38256	7049.2
2889.88051	7035.2
2892.37692	7038.7
2894.8718	7038.2
2897.36515	7055
2899.85698	7076.8
2902.34727	7069.1
2904.83604	7076.6
2907.32328	7086.3
2909.809	7065.2
2912.29319	7057.2
2914.77587	7064.1
2917.25702	7051.2
2919.73665	7055.8
2922.21476	7048.1
2924.69136	7045.6
2927.16644	7056.9
2929.64	7048.8
2932.11205	7065.8
2934.58258	7014
2937.05161	7013.7
2939.51912	7026.6
2941.98513	6999.3
2944.44962	6978.2
2946.91261	6967.8
2949.37409	6978.2
2951.83407	6949
2954.29254	6945
2956.74951	6946.2
2959.20498	6921.5
2961.65895	6925.3
2964.11142	6903.4
2966.56239	6905.2
2969.01186	6871.1
2971.45984	6876.8
2973.90632	6861.4
2976.35131	6836.6
2978.7948	6831.6
2981.23681	6821
2983.67732	6797.9
2986.11635	6773.3
2988.55388	6747.7
2990.98993	6738.2
2993.4245	6716.3
2995.85758	6718.1
2998.28917	6672.9
3000.71928	6681.6
3003.14791	6646.7
3005.57506	6657.3
3008.00073	6627.8
3010.42493	6637.7
3012.84764	6634.2
3015.26888	6625
3017.68865	6603.8
3020.10694	6583.8
3022.52376	6598.7
3024.9391	6567.1
3027.35298	6564.2
3029.76539	6564
3032.17632	6547.4
3034.5858	6534.7
3036.9938	6525.1
3039.40034	6542.1
3041.80542	6523.4
3044.20903	6519.7
3046.61118	6503.1
3049.01187	6498.4
3051.4111	6480
3053.80888	6463
3056.20519	6461.4
3058.60005	6446.7
3060.99345	6431.5
3063.3854	6424.9
3065.7759	6405.1
3068.16494	6405.6
3070.55254	6375.9
3072.93868	6359.7
3075.32338	6339
3077.70662	6352.1
3080.08842	6323.3
3082.46878	6326.6
3084.84769	6319.6
3087.22515	6315.6
3089.60118	6307.6
3091.97576	6324.7
3094.3489	6329.8
3096.72061	6329.3
3099.09087	6316.6
3101.4597	6286.3
3103.82709	6296.1
3106.19305	6292.7
3108.55757	6292.8
3110.92066	6276
3113.28232	6263.3
3115.64255	6242.7
3118.00134	6222.6
3120.35871	6232.8
3122.71466	6232
3125.06917	6207.3
3127.42226	6205
3129.77393	6196.4
3132.12417	6188.4
3134.47299	6186.1
3136.82039	6182.8
3139.16636	6195.3
3141.51092	6172.9
3143.85406	6199
3146.19579	6192.1
3148.53609	6203.5
3150.87499	6200.1
3153.21246	6215.3
3155.54853	6204.2
3157.88318	6195.6
3160.21642	6211.7
3162.54826	6202.7
3164.87868	6184.1
3167.2077	6188.5
3169.5353	6220.9
3171.86151	6203.7
3174.18631	6202.7
3176.5097	6205
3178.83169	6188.8
3181.15228	6186.5
3183.47147	6178.6
3185.78926	6159.2
3188.10565	6158.2
3190.42065	6157.3
3192.73424	6163.8
3195.04645	6148.3
3197.35725	6146.6
3199.66667	6153.3
3201.97469	6144.3
3204.28132	6140.1
3206.58656	6153.6
3208.8904	6148.1
3211.19287	6136.6
3213.49394	6160.6
3215.79363	6151.9
3218.09193	6151.3
3220.38884	6151.5
3222.68438	6144
3224.97853	6131.4
3227.2713	6133.3
3229.56269	6134.5
3231.8527	6149.7
3234.14133	6133.9
3236.42858	6115.6
3238.71446	6111.7
3240.99896	6083.5
3243.28209	6090
3245.56384	6082.2
3247.84423	6088.4
3250.12324	6067.2
3252.40088	6059.9
3254.67715	6048.3
3256.95205	6058.6
3259.22558	6056.7
3261.49775	6037.9
3263.76855	6031.2
3266.03799	6014.6
3268.30606	6027.4
3270.57277	6022.3
3272.83812	5994.8
3275.10211	5989.3
3277.36474	5978.3
3279.62601	5953.6
3281.88593	5949.1
3284.14448	5959.9
3286.40168	5970.1
3288.65753	5957.5
3290.91202	5957.8
3293.16516	5917.2
3295.41695	5922.4
3297.66738	5878
3299.91647	5879.4
3302.16421	5842.1
3304.4106	5787.4
3306.65564	5762
3308.89933	5733.2
3311.14169	5678.7
3313.38269	5636.2
3315.62236	5585
3317.86068	5547.1
3320.09766	5497.2
3322.3333	5462.2
3324.5676	5461
3326.80056	5371.1
3329.03219	5330.3
3331.26248	2.6
3333.49143	-0.2
3335.71905	-0.9
