Data from AgNPs_FTO_APTES_UA_1uM_CRN_0uM_R6G_10uM_NaF_0.1M_Addition_RamanShift__15__11-23-09-422.txt Node

Date: Thu Jan 27 11:23:09 GMT 2022
User: TCL
Spectrometer: QEP01345
Trigger mode: 4
Integration Time (sec): 7.000000E0
Scans to average: 10
Electric dark correction enabled: true
Nonlinearity correction enabled: false
Boxcar width: 0
XAxis mode: Raman Shifts
Number of Pixels in Spectrum: 1044
>>>>>Begin Spectral Data<<<<<
46.04893	0.3875
50.45542	1.5875
54.85868	-0.7125
59.25871	-0.5125
63.6555	24.9875
68.04907	27.4875
72.43941	28.4875
76.82654	31.9875
81.21044	33.8875
85.59113	31.5875
89.96862	36.1875
94.34289	39.6875
98.71396	40.3875
103.08183	38.4875
107.4465	40.2875
111.80798	40.2875
116.16626	37.7875
120.52136	45.8875
124.87327	43.0875
129.222	38.4875
133.56755	39.3875
137.90993	38.1875
142.24913	39.8875
146.58517	41.9875
150.91804	43.6875
155.24774	45.9875
159.57429	52.7875
163.89768	61.1875
168.21792	74.3875
172.53501	94.8875
176.84895	116.9875
181.15975	156.4875
185.46741	204.3875
189.77193	275.6875
194.07331	359.0875
198.37157	456.0875
202.6667	559.1875
206.9587	665.1875
211.24758	756.2875
215.53334	855.2875
219.81599	955.9875
224.09553	1056.7875
228.37195	1180.4875
232.64527	1317.7875
236.91549	1459.8875
241.18261	1597.3875
245.44663	1726.2875
249.70755	1839.3875
253.96539	1937.2875
258.22014	1994.2875
262.4718	2059.2875
266.72039	2091.4875
270.96589	2093.1875
275.20832	2079.2875
279.44768	2042.9875
283.68397	1987.0875
287.91719	1953.8875
292.14735	1917.8875
296.37445	1919.0875
300.59849	1930.0875
304.81948	1959.3875
309.03742	1974.5875
313.25231	1973.4875
317.46415	1905.2875
321.67296	1829.9875
325.87872	1763.6875
330.08145	1726.0875
334.28114	1728.7875
338.47781	1746.5875
342.67145	1779.9875
346.86207	1811.9875
351.04966	1890.1875
355.23424	1966.3875
359.4158	2049.1875
363.59435	2093.5875
367.76989	2127.0875
371.94243	2154.1875
376.11196	2168.2875
380.27849	2149.7875
384.44203	2147.4875
388.60257	2125.4875
392.76012	2116.0875
396.91468	2130.9875
401.06626	2159.9875
405.21485	2175.1875
409.36047	2153.5875
413.50311	2095.6875
417.64277	2034.7875
421.77947	1984.3875
425.9132	1977.8875
430.04396	1964.9875
434.17176	1979.3875
438.2966	2008.7875
442.41849	2052.2875
446.53742	2108.8875
450.6534	2148.7875
454.76644	2159.9875
458.87653	2192.7875
462.98368	2198.3875
467.08789	2173.5875
471.18916	2165.7875
475.2875	2134.5875
479.38291	2113.7875
483.4754	2090.9875
487.56496	2076.3875
491.6516	2063.9875
495.73531	2063.0875
499.81612	2054.8875
503.89401	2070.0875
507.96899	2092.0875
512.04106	2107.2875
516.11023	2150.3875
520.1765	2174.5875
524.23987	2179.3875
528.30034	2157.6875
532.35792	2102.3875
536.41261	2085.2875
540.46441	2037.1875
544.51333	2016.8875
548.55936	2029.6875
552.60252	2032.2875
556.64279	2055.0875
560.6802	2052.9875
564.71473	2057.0875
568.7464	2085.1875
572.7752	2107.4875
576.80114	2069.6875
580.82422	2025.5875
584.84444	2008.1875
588.86181	2015.4875
592.87633	2023.9875
596.888	2037.0875
600.89682	2073.5875
604.9028	2188.4875
608.90594	2498.6875
612.90624	2956.5875
616.90371	2974.1875
620.89834	2443.0875
624.89015	2164.5875
628.87913	2103.1875
632.86528	2080.1875
636.84862	2080.7875
640.82913	2066.6875
644.80683	2033.2875
648.78172	2003.9875
652.75379	1994.7875
656.72306	2060.1875
660.68952	2134.0875
664.65319	2112.3875
668.61405	2022.0875
672.57211	1980.5875
676.52738	1982.4875
680.47986	1992.2875
684.42955	1979.7875
688.37646	1988.9875
692.32058	1995.7875
696.26192	2000.3875
700.20048	2006.7875
704.13626	2032.4875
708.06928	2023.5875
711.99952	1998.9875
715.927	1985.9875
719.85171	1989.8875
723.77365	1995.3875
727.69284	1984.8875
731.60928	1975.8875
735.52295	1975.1875
739.43388	1995.1875
743.34206	1997.3875
747.24749	1993.6875
751.15017	2002.4875
755.05012	2022.2875
758.94733	2063.6875
762.8418	2154.9875
766.73354	2319.0875
770.62254	2536.1875
774.50882	2668.8875
778.39237	2644.2875
782.27321	2436.7875
786.15132	2214.2875
790.02671	2094.4875
793.89938	2039.3875
797.76935	2014.5875
801.6366	2018.1875
805.50115	2012.7875
809.36299	2010.4875
813.22213	2010.6875
817.07857	2005.5875
820.93231	1991.5875
824.78336	1988.6875
828.63172	1989.3875
832.47738	1987.3875
836.32036	1998.5875
840.16066	2002.0875
843.99827	1990.2875
847.8332	1986.0875
851.66546	1980.5875
855.49504	1969.3875
859.32195	1972.2875
863.1462	1953.1875
866.96777	1938.7875
870.78668	1935.6875
874.60293	1944.6875
878.41652	1942.4875
882.22745	1950.1875
886.03573	1976.5875
889.84136	1979.9875
893.64433	1972.2875
897.44466	1963.4875
901.24235	1965.2875
905.0374	1957.9875
908.8298	1956.7875
912.61957	1961.9875
916.40671	1977.7875
920.19121	1985.5875
923.97308	2013.8875
927.75233	2035.1875
931.52895	2053.2875
935.30295	2052.2875
939.07433	2030.5875
942.84309	2002.3875
946.60924	1985.2875
950.37278	1954.3875
954.13371	1945.6875
957.89203	1924.3875
961.64774	1899.3875
965.40086	1891.2875
969.15137	1882.9875
972.89929	1868.0875
976.64461	1848.3875
980.38733	1854.6875
984.12747	1854.0875
987.86502	1854.4875
991.59999	1861.1875
995.33237	1864.7875
999.06217	1884.0875
1002.78939	1894.5875
1006.51404	1899.0875
1010.23611	1913.5875
1013.95561	1922.6875
1017.67255	1930.0875
1021.38692	1909.7875
1025.09872	1907.9875
1028.80796	1900.7875
1032.51465	1916.8875
1036.21877	1936.6875
1039.92035	1972.2875
1043.61937	1986.1875
1047.31584	1969.9875
1051.00976	1954.6875
1054.70114	1923.6875
1058.38998	1898.4875
1062.07627	1898.2875
1065.76003	1881.5875
1069.44126	1883.8875
1073.11995	1881.5875
1076.79611	1900.1875
1080.46974	1916.6875
1084.14085	1927.3875
1087.80943	1945.8875
1091.47549	1927.4875
1095.13903	1901.6875
1098.80005	1847.2875
1102.45857	1800.3875
1106.11456	1781.8875
1109.76805	1783.5875
1113.41903	1815.6875
1117.06751	1855.7875
1120.71348	1897.8875
1124.35696	1946.7875
1127.99793	2007.9875
1131.63641	2012.8875
1135.2724	1953.8875
1138.90589	1879.4875
1142.5369	1817.3875
1146.16542	1766.9875
1149.79145	1740.7875
1153.415	1721.6875
1157.03607	1738.7875
1160.65467	1749.3875
1164.27079	1777.3875
1167.88443	1827.6875
1171.49561	1923.2875
1175.10432	2065.4875
1178.71056	2265.4875
1182.31434	2448.3875
1185.91565	2517.7875
1189.51451	2514.4875
1193.11091	2440.5875
1196.70485	2347.0875
1200.29634	2241.3875
1203.88538	2132.8875
1207.47197	2001.4875
1211.05612	1886.0875
1214.63782	1841.2875
1218.21708	1800.3875
1221.79391	1788.1875
1225.36829	1794.2875
1228.94024	1799.2875
1232.50976	1790.1875
1236.07685	1804.2875
1239.6415	1805.2875
1243.20374	1816.0875
1246.76355	1810.6875
1250.32093	1824.5875
1253.8759	1843.3875
1257.42845	1853.9875
1260.97859	1894.6875
1264.52631	1923.2875
1268.07163	1966.2875
1271.61453	1987.9875
1275.15503	2000.7875
1278.69312	2014.2875
1282.22882	2025.4875
1285.76211	2054.9875
1289.29301	2092.4875
1292.82151	2157.2875
1296.34761	2225.6875
1299.87133	2273.6875
1303.39266	2370.8875
1306.9116	2514.7875
1310.42815	2670.4875
1313.94233	2740.8875
1317.45412	2681.9875
1320.96354	2529.5875
1324.47058	2361.3875
1327.97525	2207.2875
1331.47754	2169.7875
1334.97747	2173.5875
1338.47502	2220.1875
1341.97022	2269.9875
1345.46305	2334.0875
1348.95352	2446.7875
1352.44163	2628.8875
1355.92738	2894.6875
1359.41078	3241.9875
1362.89183	3525.4875
1366.37053	3472.8875
1369.84688	3102.3875
1373.32088	2711.5875
1376.79254	2421.2875
1380.26186	2252.6875
1383.72883	2146.1875
1387.19347	2053.9875
1390.65578	1960.8875
1394.11575	1896.7875
1397.57339	1846.7875
1401.0287	1820.2875
1404.48168	1802.2875
1407.93234	1806.8875
1411.38068	1805.2875
1414.82669	1806.0875
1418.27039	1803.7875
1421.71177	1804.2875
1425.15083	1801.6875
1428.58758	1817.2875
1432.02203	1835.0875
1435.45416	1860.2875
1438.88399	1879.2875
1442.31151	1889.5875
1445.73673	1863.1875
1449.15965	1844.5875
1452.58027	1819.2875
1455.9986	1793.9875
1459.41463	1761.3875
1462.82837	1754.5875
1466.23982	1759.4875
1469.64898	1776.5875
1473.05586	1780.3875
1476.46045	1785.8875
1479.86276	1815.0875
1483.26279	1825.6875
1486.66054	1839.2875
1490.05602	1872.6875
1493.44922	1934.5875
1496.84016	2033.9875
1500.22882	2193.8875
1503.61521	2392.2875
1506.99934	2614.5875
1510.38121	2804.7875
1513.76081	2897.7875
1517.13816	2767.8875
1520.51324	2480.4875
1523.88607	2199.9875
1527.25665	1995.9875
1530.62498	1919.8875
1533.99105	1879.4875
1537.35488	1843.3875
1540.71647	1838.4875
1544.07581	1832.1875
1547.4329	1842.7875
1550.78776	1840.2875
1554.14038	1849.3875
1557.49077	1858.7875
1560.83892	1878.5875
1564.18484	1903.2875
1567.52853	1951.9875
1570.86999	1997.6875
1574.20922	2047.5875
1577.54624	2058.8875
1580.88103	2001.0875
1584.2136	1859.2875
1587.54395	1776.1875
1590.87208	1766.9875
1594.19801	1800.2875
1597.52172	1873.6875
1600.84321	1907.4875
1604.16251	1879.4875
1607.47959	1811.2875
1610.79447	1741.0875
1614.10715	1658.1875
1617.41763	1579.8875
1620.7259	1554.9875
1624.03199	1520.0875
1627.33587	1513.6875
1630.63757	1509.9875
1633.93707	1539.7875
1637.23439	1583.6875
1640.52951	1642.3875
1643.82246	1763.7875
1647.11321	1902.2875
1650.40179	1996.4875
1653.68819	1960.9875
1656.97241	1791.8875
1660.25446	1570.2875
1663.53433	1425.8875
1666.81203	1336.6875
1670.08756	1290.1875
1673.36092	1265.6875
1676.63211	1242.1875
1679.90115	1231.4875
1683.16801	1211.4875
1686.43272	1193.7875
1689.69527	1173.9875
1692.95567	1131.9875
1696.2139	1092.8875
1699.46999	1042.0875
1702.72392	1015.7875
1705.97571	1045.1875
1709.22535	1080.6875
1712.47284	1115.9875
1715.71819	1124.8875
1718.96139	1135.0875
1722.20246	1146.7875
1725.44139	1140.6875
1728.67818	1138.5875
1731.91284	1102.3875
1735.14537	1086.0875
1738.37576	1077.9875
1741.60403	1061.1875
1744.83017	1046.8875
1748.05418	1037.3875
1751.27607	1017.6875
1754.49584	998.5875
1757.71349	963.1875
1760.92903	945.1875
1764.14244	935.9875
1767.35375	937.7875
1770.56294	933.4875
1773.77002	934.0875
1776.97499	947.9875
1780.17785	976.1875
1783.37861	974.5875
1786.57727	976.9875
1789.77382	986.6875
1792.96828	987.1875
1796.16064	982.9875
1799.3509	979.8875
1802.53907	975.7875
1805.72514	963.4875
1808.90913	970.2875
1812.09102	960.9875
1815.27083	962.6875
1818.44856	959.9875
1821.6242	960.5875
1824.79776	954.2875
1827.96924	950.9875
1831.13864	955.3875
1834.30597	940.0875
1837.47122	948.1875
1840.6344	937.2875
1843.7955	941.2875
1846.95454	930.3875
1850.11151	929.3875
1853.26642	939.2875
1856.41926	928.6875
1859.57004	928.1875
1862.71876	924.3875
1865.86542	925.9875
1869.01003	924.7875
1872.15258	918.5875
1875.29308	918.9875
1878.43152	923.8875
1881.56792	916.0875
1884.70227	914.5875
1887.83457	907.7875
1890.96482	903.7875
1894.09304	905.2875
1897.21921	902.3875
1900.34335	897.1875
1903.46544	899.0875
1906.58551	894.2875
1909.70353	897.4875
1912.81953	890.7875
1915.93349	895.1875
1919.04543	886.6875
1922.15534	888.8875
1925.26322	884.5875
1928.36908	876.2875
1931.47292	878.4875
1934.57473	878.6875
1937.67453	868.3875
1940.77232	860.3875
1943.86808	866.2875
1946.96184	865.9875
1950.05358	861.4875
1953.14331	858.8875
1956.23103	850.6875
1959.31675	851.3875
1962.40046	840.7875
1965.48217	842.9875
1968.56188	842.0875
1971.63959	838.8875
1974.7153	832.6875
1977.78901	832.5875
1980.86073	829.4875
1983.93046	827.3875
1986.99819	822.5875
1990.06394	820.3875
1993.1277	810.2875
1996.18947	808.1875
1999.24925	813.3875
2002.30706	801.2875
2005.36288	802.2875
2008.41672	796.5875
2011.46859	797.4875
2014.51848	792.7875
2017.56639	787.4875
2020.61233	782.7875
2023.6563	788.3875
2026.6983	779.2875
2029.73833	772.7875
2032.7764	780.1875
2035.8125	769.6875
2038.84664	773.6875
2041.87881	775.0875
2044.90903	760.6875
2047.93729	755.5875
2050.96359	760.1875
2053.98794	757.8875
2057.01034	757.2875
2060.03078	756.3875
2063.04927	751.1875
2066.06582	758.0875
2069.08042	763.0875
2072.09307	757.5875
2075.10378	745.6875
2078.11255	752.3875
2081.11938	754.3875
2084.12426	749.7875
2087.12722	753.4875
2090.12824	751.6875
2093.12732	749.2875
2096.12447	750.3875
2099.11969	754.1875
2102.11299	748.0875
2105.10435	745.2875
2108.09379	751.7875
2111.08131	744.3875
2114.0669	736.0875
2117.05057	746.7875
2120.03233	741.6875
2123.01216	745.8875
2125.99008	743.4875
2128.96609	737.9875
2131.94018	733.1875
2134.91236	741.8875
2137.88263	737.1875
2140.851	740.3875
2143.81746	729.6875
2146.78201	735.5875
2149.74466	737.5875
2152.7054	732.2875
2155.66425	730.9875
2158.6212	735.7875
2161.57625	727.4875
2164.52941	724.1875
2167.48067	722.8875
2170.43004	728.5875
2173.37752	724.7875
2176.32311	722.3875
2179.26681	729.2875
2182.20863	724.1875
2185.14856	722.8875
2188.08661	725.2875
2191.02278	718.1875
2193.95707	718.1875
2196.88948	719.0875
2199.82001	717.1875
2202.74867	714.9875
2205.67545	708.6875
2208.60037	717.7875
2211.52341	709.0875
2214.44458	707.7875
2217.36388	702.2875
2220.28132	698.2875
2223.1969	691.9875
2226.11061	690.1875
2229.02246	696.1875
2231.93245	689.2875
2234.84058	689.7875
2237.74686	691.4875
2240.65128	693.3875
2243.55385	683.4875
2246.45456	679.5875
2249.35343	686.3875
2252.25044	677.6875
2255.14561	679.5875
2258.03893	666.6875
2260.93041	663.5875
2263.82004	668.9875
2266.70783	674.5875
2269.59378	671.5875
2272.4779	665.3875
2275.36017	664.3875
2278.24061	665.0875
2281.11922	654.3875
2283.996	663.8875
2286.87094	659.5875
2289.74405	653.6875
2292.61534	649.1875
2295.4848	650.8875
2298.35243	652.0875
2301.21824	646.2875
2304.08223	646.8875
2306.94439	650.2875
2309.80474	647.5875
2312.66327	643.9875
2315.51999	647.7875
2318.37489	640.0875
2321.22797	636.6875
2324.07925	639.4875
2326.92871	641.3875
2329.77637	637.2875
2332.62222	629.9875
2335.46626	629.8875
2338.3085	624.3875
2341.14893	625.7875
2343.98756	626.0875
2346.8244	619.0875
2349.65943	619.5875
2352.49267	621.3875
2355.32411	625.6875
2358.15376	626.3875
2360.98161	620.4875
2363.80768	620.3875
2366.63195	624.9875
2369.45444	621.9875
2372.27514	627.6875
2375.09405	622.7875
2377.91118	619.5875
2380.72652	616.9875
2383.54009	614.9875
2386.35187	618.4875
2389.16188	612.5875
2391.97011	605.2875
2394.77657	610.0875
2397.58125	601.8875
2400.38416	603.5875
2403.18529	601.1875
2405.98466	598.2875
2408.78226	600.1875
2411.57809	597.1875
2414.37216	596.7875
2417.16446	591.4875
2419.955	592.9875
2422.74378	589.9875
2425.5308	590.7875
2428.31606	594.1875
2431.09956	589.6875
2433.88131	581.6875
2436.6613	588.5875
2439.43954	590.2875
2442.21603	586.1875
2444.99077	589.9875
2447.76377	583.9875
2450.53501	587.6875
2453.30451	581.6875
2456.07226	581.6875
2458.83827	578.9875
2461.60254	583.9875
2464.36507	581.5875
2467.12586	581.0875
2469.88492	577.8875
2472.64224	575.5875
2475.39782	575.3875
2478.15167	569.8875
2480.90379	567.7875
2483.65417	576.2875
2486.40283	577.9875
2489.14976	576.0875
2491.89497	574.8875
2494.63845	564.8875
2497.3802	569.2875
2500.12024	568.4875
2502.85855	566.8875
2505.59514	566.5875
2508.33002	561.9875
2511.06318	563.2875
2513.79462	563.6875
2516.52435	561.7875
2519.25237	563.0875
2521.97867	558.8875
2524.70327	557.2875
2527.42616	550.7875
2530.14734	552.0875
2532.86681	554.7875
2535.58458	552.0875
2538.30065	555.9875
2541.01501	557.0875
2543.72768	552.7875
2546.43864	551.0875
2549.14791	554.0875
2551.85548	549.0875
2554.56136	549.0875
2557.26554	545.4875
2559.96803	548.9875
2562.66883	545.1875
2565.36794	551.7875
2568.06536	552.2875
2570.7611	551.8875
2573.45514	547.0875
2576.14751	548.2875
2578.83819	546.8875
2581.52719	548.3875
2584.21451	541.6875
2586.90015	546.9875
2589.58411	536.9875
2592.2664	537.9875
2594.94701	541.3875
2597.62594	534.7875
2600.30321	533.7875
2602.9788	534.8875
2605.65273	533.8875
2608.32498	532.5875
2610.99557	535.2875
2613.66449	536.9875
2616.33175	533.5875
2618.99734	526.4875
2621.66128	535.4875
2624.32355	534.9875
2626.98416	528.9875
2629.64311	531.5875
2632.30041	533.2875
2634.95605	531.5875
2637.61004	524.1875
2640.26238	532.8875
2642.91306	536.2875
2645.56209	528.4875
2648.20948	523.4875
2650.85521	530.9875
2653.4993	535.0875
2656.14175	535.4875
2658.78255	544.1875
2661.42171	542.6875
2664.05923	539.9875
2666.6951	540.3875
2669.32934	544.7875
2671.96194	540.5875
2674.59291	554.6875
2677.22224	543.4875
2679.84993	550.8875
2682.476	548.6875
2685.10043	549.7875
2687.72324	551.0875
2690.34441	544.7875
2692.96396	560.9875
2695.58188	557.6875
2698.19818	563.3875
2700.81285	564.0875
2703.4259	561.3875
2706.03733	525.4875
2708.64714	546.6875
2711.25533	568.5875
2713.86191	578.0875
2716.46687	577.6875
2719.07021	586.1875
2721.67194	592.0875
2724.27206	594.2875
2726.87057	599.8875
2729.46747	609.9875
2732.06276	610.3875
2734.65644	599.1875
2737.24852	616.3875
2739.83899	610.3875
2742.42786	621.2875
2745.01513	620.2875
2747.60079	623.8875
2750.18486	627.3875
2752.76733	628.2875
2755.3482	634.7875
2757.92747	646.3875
2760.50515	645.7875
2763.08123	654.2875
2765.65573	661.3875
2768.22863	661.7875
2770.79994	668.4875
2773.36967	673.4875
2775.9378	679.4875
2778.50435	686.5875
2781.06932	696.3875
2783.6327	703.1875
2786.1945	719.8875
2788.75471	725.4875
2791.31335	738.1875
2793.87041	740.1875
2796.42589	761.4875
2798.97979	778.1875
2801.53212	788.7875
2804.08288	809.5875
2806.63206	816.5875
2809.17967	823.8875
2811.72571	836.4875
2814.27018	850.6875
2816.81308	866.9875
2819.35442	877.0875
2821.89419	889.8875
2824.43239	879.1875
2826.96904	883.2875
2829.50412	887.2875
2832.03763	884.9875
2834.56959	891.8875
2837.1	897.3875
2839.62884	908.4875
2842.15613	926.8875
2844.68186	958.4875
2847.20604	990.7875
2849.72867	1020.5875
2852.24974	1036.5875
2854.76927	1029.5875
2857.28724	1021.5875
2859.80367	1014.1875
2862.31855	1012.4875
2864.83189	1005.5875
2867.34368	997.1875
2869.85393	987.6875
2872.36264	987.6875
2874.8698	985.4875
2877.37543	971.2875
2879.87952	965.6875
2882.38207	969.3875
2884.88308	962.5875
2887.38256	957.4875
2889.88051	941.6875
2892.37692	945.7875
2894.8718	941.3875
2897.36515	946.0875
2899.85698	933.6875
2902.34727	933.0875
2904.83604	932.7875
2907.32328	929.4875
2909.809	931.4875
2912.29319	924.5875
2914.77587	928.1875
2917.25702	921.9875
2919.73665	913.3875
2922.21476	912.9875
2924.69136	910.1875
2927.16644	914.8875
2929.64	903.1875
2932.11205	895.8875
2934.58258	878.8875
2937.05161	867.7875
2939.51912	851.4875
2941.98513	825.4875
2944.44962	797.7875
2946.91261	767.5875
2949.37409	746.7875
2951.83407	721.1875
2954.29254	697.6875
2956.74951	680.5875
2959.20498	666.8875
2961.65895	657.8875
2964.11142	645.0875
2966.56239	634.3875
2969.01186	630.3875
2971.45984	621.2875
2973.90632	610.8875
2976.35131	598.1875
2978.7948	592.8875
2981.23681	586.5875
2983.67732	581.1875
2986.11635	571.0875
2988.55388	573.0875
2990.98993	554.1875
2993.4245	557.5875
2995.85758	545.4875
2998.28917	544.2875
3000.71928	538.8875
3003.14791	531.1875
3005.57506	533.3875
3008.00073	536.7875
3010.42493	526.5875
3012.84764	527.4875
3015.26888	538.7875
3017.68865	533.5875
3020.10694	535.6875
3022.52376	531.0875
3024.9391	533.7875
3027.35298	535.0875
3029.76539	538.2875
3032.17632	537.4875
3034.5858	540.9875
3036.9938	538.0875
3039.40034	535.0875
3041.80542	541.8875
3044.20903	541.1875
3046.61118	541.0875
3049.01187	543.2875
3051.4111	547.1875
3053.80888	549.6875
3056.20519	549.6875
3058.60005	551.1875
3060.99345	556.4875
3063.3854	559.0875
3065.7759	554.8875
3068.16494	562.6875
3070.55254	561.8875
3072.93868	561.1875
3075.32338	569.3875
3077.70662	568.7875
3080.08842	568.3875
3082.46878	572.9875
3084.84769	575.5875
3087.22515	572.8875
3089.60118	578.4875
3091.97576	577.9875
3094.3489	586.7875
3096.72061	587.7875
3099.09087	592.7875
3101.4597	585.8875
3103.82709	597.4875
3106.19305	596.5875
3108.55757	610.0875
3110.92066	612.0875
3113.28232	613.1875
3115.64255	615.7875
3118.00134	618.5875
3120.35871	621.2875
3122.71466	629.1875
3125.06917	632.5875
3127.42226	636.4875
3129.77393	643.0875
3132.12417	649.3875
3134.47299	650.4875
3136.82039	659.0875
3139.16636	664.1875
3141.51092	676.1875
3143.85406	680.6875
3146.19579	681.2875
3148.53609	696.1875
3150.87499	699.3875
3153.21246	709.9875
3155.54853	710.6875
3157.88318	718.5875
3160.21642	725.0875
3162.54826	728.1875
3164.87868	732.1875
3167.2077	735.6875
3169.5353	743.1875
3171.86151	746.4875
3174.18631	759.7875
3176.5097	761.5875
3178.83169	771.3875
3181.15228	770.2875
3183.47147	780.2875
3185.78926	782.0875
3188.10565	792.5875
3190.42065	793.3875
3192.73424	799.0875
3195.04645	799.0875
3197.35725	806.8875
3199.66667	806.1875
3201.97469	814.0875
3204.28132	820.4875
3206.58656	824.5875
3208.8904	829.3875
3211.19287	826.8875
3213.49394	840.0875
3215.79363	840.3875
3218.09193	847.1875
3220.38884	844.7875
3222.68438	837.1875
3224.97853	845.9875
3227.2713	850.5875
3229.56269	856.0875
3231.8527	858.2875
3234.14133	863.1875
3236.42858	864.9875
3238.71446	861.2875
3240.99896	863.3875
3243.28209	867.4875
3245.56384	862.9875
3247.84423	868.5875
3250.12324	874.9875
3252.40088	870.0875
3254.67715	870.1875
3256.95205	883.1875
3259.22558	872.9875
3261.49775	881.3875
3263.76855	881.4875
3266.03799	883.3875
3268.30606	887.3875
3270.57277	886.2875
3272.83812	878.0875
3275.10211	886.9875
3277.36474	887.5875
3279.62601	895.3875
3281.88593	884.4875
3284.14448	885.3875
3286.40168	881.4875
3288.65753	894.8875
3290.91202	887.4875
3293.16516	878.2875
3295.41695	876.4875
3297.66738	871.3875
3299.91647	873.0875
3302.16421	858.2875
3304.4106	858.1875
3306.65564	861.2875
3308.89933	850.0875
3311.14169	843.0875
3313.38269	827.0875
3315.62236	824.1875
3317.86068	816.8875
3320.09766	817.9875
3322.3333	812.4875
3324.5676	810.1875
3326.80056	783.7875
3329.03219	784.7875
3331.26248	0.2875
3333.49143	0.2875
3335.71905	-1.1125
