Data from AgNPs_FTO_APTES_UA_1uM_CRN_1uM_R6G_10uM_NaF_0.1M_Addition_RamanShift__15__12-29-39-498.txt Node

Date: Thu Jan 27 12:29:39 GMT 2022
User: TCL
Spectrometer: QEP01345
Trigger mode: 4
Integration Time (sec): 7.000000E0
Scans to average: 10
Electric dark correction enabled: true
Nonlinearity correction enabled: false
Boxcar width: 0
XAxis mode: Raman Shifts
Number of Pixels in Spectrum: 1044
>>>>>Begin Spectral Data<<<<<
46.04893	0.3875
50.45542	-0.0125
54.85868	-0.7125
59.25871	-0.8125
63.6555	63.2875
68.04907	65.3875
72.43941	69.5875
76.82654	70.6875
81.21044	73.3875
85.59113	76.1875
89.96862	78.6875
94.34289	84.6875
98.71396	84.8875
103.08183	88.2875
107.4465	93.4875
111.80798	89.6875
116.16626	92.7875
120.52136	101.7875
124.87327	102.3875
129.222	105.8875
133.56755	113.3875
137.90993	124.2875
142.24913	131.4875
146.58517	148.2875
150.91804	170.3875
155.24774	205.7875
159.57429	253.0875
163.89768	313.3875
168.21792	427.7875
172.53501	575.4875
176.84895	801.4875
181.15975	1126.0875
185.46741	1582.4875
189.77193	2193.8875
194.07331	2945.5875
198.37157	3787.7875
202.6667	4704.2875
206.9587	5613.5875
211.24758	6501.0875
215.53334	7391.4875
219.81599	8321.1875
224.09553	9342.9875
228.37195	10490.5875
232.64527	11699.7875
236.91549	13047.0875
241.18261	14410.8875
245.44663	15641.7875
249.70755	16839.7875
253.96539	17851.9875
258.22014	18704.8875
262.4718	19419.7875
266.72039	19894.4875
270.96589	20152.3875
275.20832	20155.3875
279.44768	19993.7875
283.68397	19743.6875
287.91719	19517.1875
292.14735	19340.4875
296.37445	19252.9875
300.59849	19295.3875
304.81948	19383.9875
309.03742	19427.5875
313.25231	19289.0875
317.46415	19025.8875
321.67296	18590.0875
325.87872	18210.6875
330.08145	18066.5875
334.28114	18149.9875
338.47781	18273.7875
342.67145	18521.4875
346.86207	18832.3875
351.04966	19227.3875
355.23424	19609.1875
359.4158	20023.8875
363.59435	20316.9875
367.76989	20543.4875
371.94243	20686.9875
376.11196	20796.6875
380.27849	20887.3875
384.44203	20977.3875
388.60257	21045.7875
392.76012	21229.4875
396.91468	21463.2875
401.06626	21718.1875
405.21485	21928.2875
409.36047	21831.9875
413.50311	21521.5875
417.64277	21278.8875
421.77947	21189.0875
425.9132	21211.6875
430.04396	21294.5875
434.17176	21347.4875
438.2966	21481.6875
442.41849	21643.0875
446.53742	21965.7875
450.6534	22379.5875
454.76644	22681.2875
458.87653	22817.8875
462.98368	22872.1875
467.08789	22689.4875
471.18916	22561.4875
475.2875	22320.4875
479.38291	22141.4875
483.4754	22035.5875
487.56496	21941.9875
491.6516	21814.2875
495.73531	21730.6875
499.81612	21704.4875
503.89401	21901.1875
507.96899	21993.3875
512.04106	21997.6875
516.11023	22010.3875
520.1765	21942.6875
524.23987	21831.6875
528.30034	21712.6875
532.35792	21550.1875
536.41261	21407.9875
540.46441	21250.5875
544.51333	21179.2875
548.55936	21285.7875
552.60252	21536.6875
556.64279	21878.2875
560.6802	22149.3875
564.71473	22211.1875
568.7464	22327.1875
572.7752	22542.7875
576.80114	22778.3875
580.82422	22981.6875
584.84444	23370.0875
588.86181	23753.1875
592.87633	23992.2875
596.888	23897.9875
600.89682	23691.7875
604.9028	24202.6875
608.90594	26145.9875
612.90624	28591.7875
616.90371	27704.6875
620.89834	24037.3875
624.89015	22236.0875
628.87913	21960.3875
632.86528	22039.3875
636.84862	22152.0875
640.82913	21990.8875
644.80683	21657.6875
648.78172	21312.3875
652.75379	21305.5875
656.72306	21538.3875
660.68952	21890.7875
664.65319	21865.1875
668.61405	21562.0875
672.57211	21493.3875
676.52738	21580.7875
680.47986	21551.0875
684.42955	21411.8875
688.37646	21321.6875
692.32058	21386.4875
696.26192	21596.4875
700.20048	21809.5875
704.13626	21926.1875
708.06928	21896.0875
711.99952	21790.6875
715.927	21760.7875
719.85171	21793.0875
723.77365	21794.2875
727.69284	21617.6875
731.60928	21449.4875
735.52295	21387.8875
739.43388	21407.8875
743.34206	21411.6875
747.24749	21499.9875
751.15017	21573.2875
755.05012	21792.6875
758.94733	22156.8875
762.8418	22912.9875
766.73354	24164.3875
770.62254	25517.6875
774.50882	26075.5875
778.39237	25494.3875
782.27321	24276.9875
786.15132	23106.3875
790.02671	22289.0875
793.89938	21881.1875
797.76935	21736.8875
801.6366	21592.7875
805.50115	21540.6875
809.36299	21457.0875
813.22213	21334.3875
817.07857	21255.3875
820.93231	21206.8875
824.78336	21212.4875
828.63172	21204.4875
832.47738	21205.3875
836.32036	21190.6875
840.16066	21220.5875
843.99827	21201.6875
847.8332	21214.8875
851.66546	21215.3875
855.49504	21203.4875
859.32195	21246.6875
863.1462	21266.1875
866.96777	21227.4875
870.78668	21233.6875
874.60293	21204.8875
878.41652	21269.8875
882.22745	21305.3875
886.03573	21385.5875
889.84136	21416.7875
893.64433	21392.4875
897.44466	21353.2875
901.24235	21250.7875
905.0374	21170.6875
908.8298	21108.2875
912.61957	21076.1875
916.40671	21164.2875
920.19121	21283.5875
923.97308	21446.6875
927.75233	21519.1875
931.52895	21497.3875
935.30295	21417.5875
939.07433	21188.2875
942.84309	20999.9875
946.60924	20897.5875
950.37278	20850.0875
954.13371	20781.4875
957.89203	20732.1875
961.64774	20708.3875
965.40086	20654.2875
969.15137	20632.2875
972.89929	20611.0875
976.64461	20611.0875
980.38733	20627.2875
984.12747	20694.6875
987.86502	20781.5875
991.59999	20903.8875
995.33237	21036.1875
999.06217	21326.2875
1002.78939	21568.8875
1006.51404	21813.3875
1010.23611	22029.4875
1013.95561	22184.9875
1017.67255	22199.1875
1021.38692	22033.1875
1025.09872	21868.5875
1028.80796	21821.5875
1032.51465	21928.2875
1036.21877	22119.4875
1039.92035	22238.2875
1043.61937	22181.7875
1047.31584	22038.7875
1051.00976	21902.4875
1054.70114	21819.2875
1058.38998	21857.2875
1062.07627	21981.4875
1065.76003	22130.8875
1069.44126	22308.0875
1073.11995	22557.5875
1076.79611	22896.5875
1080.46974	23089.0875
1084.14085	23187.6875
1087.80943	23339.1875
1091.47549	23449.0875
1095.13903	23470.0875
1098.80005	23242.9875
1102.45857	22943.8875
1106.11456	22684.1875
1109.76805	22530.9875
1113.41903	22487.8875
1117.06751	22493.4875
1120.71348	22644.4875
1124.35696	22787.5875
1127.99793	22968.3875
1131.63641	23121.8875
1135.2724	22938.9875
1138.90589	22721.3875
1142.5369	22596.1875
1146.16542	22537.1875
1149.79145	22479.9875
1153.415	22445.5875
1157.03607	22483.4875
1160.65467	22746.4875
1164.27079	23236.4875
1167.88443	23977.5875
1171.49561	24925.2875
1175.10432	26087.6875
1178.71056	27634.1875
1182.31434	29191.4875
1185.91565	30032.2875
1189.51451	30128.8875
1193.11091	29591.0875
1196.70485	28797.6875
1200.29634	27862.7875
1203.88538	27163.5875
1207.47197	26582.6875
1211.05612	25981.3875
1214.63782	25517.0875
1218.21708	25110.6875
1221.79391	24810.8875
1225.36829	24599.0875
1228.94024	24468.4875
1232.50976	24285.5875
1236.07685	24139.0875
1239.6415	24081.6875
1243.20374	24103.1875
1246.76355	24165.3875
1250.32093	24427.6875
1253.8759	24747.2875
1257.42845	25192.2875
1260.97859	25714.5875
1264.52631	26208.4875
1268.07163	26774.0875
1271.61453	27292.0875
1275.15503	27795.3875
1278.69312	28182.2875
1282.22882	28443.1875
1285.76211	28731.2875
1289.29301	29119.2875
1292.82151	29669.3875
1296.34761	30455.2875
1299.87133	31486.3875
1303.39266	32784.3875
1306.9116	34346.8875
1310.42815	35789.6875
1313.94233	36629.6875
1317.45412	36490.0875
1320.96354	35850.8875
1324.47058	35170.8875
1327.97525	34545.3875
1331.47754	34066.4875
1334.97747	33747.4875
1338.47502	33603.8875
1341.97022	33599.9875
1345.46305	33693.6875
1348.95352	33987.3875
1352.44163	34372.0875
1355.92738	34963.2875
1359.41078	36219.1875
1362.89183	37481.3875
1366.37053	37194.5875
1369.84688	34773.0875
1373.32088	31621.9875
1376.79254	29318.6875
1380.26186	28143.0875
1383.72883	27671.3875
1387.19347	27433.4875
1390.65578	27020.0875
1394.11575	26677.1875
1397.57339	26530.4875
1401.0287	26644.4875
1404.48168	26750.7875
1407.93234	26820.0875
1411.38068	26681.4875
1414.82669	26380.6875
1418.27039	26000.0875
1421.71177	25494.4875
1425.15083	25138.1875
1428.58758	24928.2875
1432.02203	25008.2875
1435.45416	25314.2875
1438.88399	25677.9875
1442.31151	25877.2875
1445.73673	25973.2875
1449.15965	26098.8875
1452.58027	26119.5875
1455.9986	26044.0875
1459.41463	26146.2875
1462.82837	26420.9875
1466.23982	26821.3875
1469.64898	27136.7875
1473.05586	27413.1875
1476.46045	27506.9875
1479.86276	27510.5875
1483.26279	27490.0875
1486.66054	27525.2875
1490.05602	27748.6875
1493.44922	28160.5875
1496.84016	28736.0875
1500.22882	29601.1875
1503.61521	30858.4875
1506.99934	32299.7875
1510.38121	33401.5875
1513.76081	33664.1875
1517.13816	32828.8875
1520.51324	31301.8875
1523.88607	29829.5875
1527.25665	28774.0875
1530.62498	28204.7875
1533.99105	27866.0875
1537.35488	27551.8875
1540.71647	27186.0875
1544.07581	26877.1875
1547.4329	26568.2875
1550.78776	26286.0875
1554.14038	26111.2875
1557.49077	26120.5875
1560.83892	26133.3875
1564.18484	26272.4875
1567.52853	26453.5875
1570.86999	26682.8875
1574.20922	26964.0875
1577.54624	27091.4875
1580.88103	26917.8875
1584.2136	26617.3875
1587.54395	26613.8875
1590.87208	27185.9875
1594.19801	28164.1875
1597.52172	29287.5875
1600.84321	29750.0875
1604.16251	29139.1875
1607.47959	27827.1875
1610.79447	26356.0875
1614.10715	24936.5875
1617.41763	23695.8875
1620.7259	22805.8875
1624.03199	22286.4875
1627.33587	22233.6875
1630.63757	22483.0875
1633.93707	23197.5875
1637.23439	24388.5875
1640.52951	26240.4875
1643.82246	28490.5875
1647.11321	30495.7875
1650.40179	31292.3875
1653.68819	30147.1875
1656.97241	27483.5875
1660.25446	24668.1875
1663.53433	22589.1875
1666.81203	21232.7875
1670.08756	20472.8875
1673.36092	19973.4875
1676.63211	19652.7875
1679.90115	19416.4875
1683.16801	19230.6875
1686.43272	19075.4875
1689.69527	18985.6875
1692.95567	18867.8875
1696.2139	18800.0875
1699.46999	18723.6875
1702.72392	18659.8875
1705.97571	18680.7875
1709.22535	18742.6875
1712.47284	18728.4875
1715.71819	18754.8875
1718.96139	18729.5875
1722.20246	18681.6875
1725.44139	18615.2875
1728.67818	18543.9875
1731.91284	18495.5875
1735.14537	18372.0875
1738.37576	18304.9875
1741.60403	18260.3875
1744.83017	18199.4875
1748.05418	18154.0875
1751.27607	18108.6875
1754.49584	18071.9875
1757.71349	18080.9875
1760.92903	18018.9875
1764.14244	18034.3875
1767.35375	17998.8875
1770.56294	17992.1875
1773.77002	17946.2875
1776.97499	17958.5875
1780.17785	17961.7875
1783.37861	17938.9875
1786.57727	17949.1875
1789.77382	17927.8875
1792.96828	17911.8875
1796.16064	17877.2875
1799.3509	17822.2875
1802.53907	17804.4875
1805.72514	17761.4875
1808.90913	17722.1875
1812.09102	17683.4875
1815.27083	17657.9875
1818.44856	17656.3875
1821.6242	17609.1875
1824.79776	17591.5875
1827.96924	17551.4875
1831.13864	17567.8875
1834.30597	17558.2875
1837.47122	17544.2875
1840.6344	17558.2875
1843.7955	17582.3875
1846.95454	17581.3875
1850.11151	17576.7875
1853.26642	17566.6875
1856.41926	17556.3875
1859.57004	17538.2875
1862.71876	17502.1875
1865.86542	17477.0875
1869.01003	17487.2875
1872.15258	17466.8875
1875.29308	17420.7875
1878.43152	17394.7875
1881.56792	17351.9875
1884.70227	17366.7875
1887.83457	17288.2875
1890.96482	17277.9875
1894.09304	17253.4875
1897.21921	17245.0875
1900.34335	17220.4875
1903.46544	17183.7875
1906.58551	17177.7875
1909.70353	17171.1875
1912.81953	17105.5875
1915.93349	17091.9875
1919.04543	17037.1875
1922.15534	16986.1875
1925.26322	16957.0875
1928.36908	16933.3875
1931.47292	16891.6875
1934.57473	16845.7875
1937.67453	16834.5875
1940.77232	16806.8875
1943.86808	16729.0875
1946.96184	16688.4875
1950.05358	16643.4875
1953.14331	16610.8875
1956.23103	16542.8875
1959.31675	16529.9875
1962.40046	16486.6875
1965.48217	16433.1875
1968.56188	16382.4875
1971.63959	16345.9875
1974.7153	16299.2875
1977.78901	16256.1875
1980.86073	16200.0875
1983.93046	16152.0875
1986.99819	16102.3875
1990.06394	16041.3875
1993.1277	16006.6875
1996.18947	15933.1875
1999.24925	15905.9875
2002.30706	15883.6875
2005.36288	15821.1875
2008.41672	15758.3875
2011.46859	15721.4875
2014.51848	15663.3875
2017.56639	15635.3875
2020.61233	15563.2875
2023.6563	15564.0875
2026.6983	15517.6875
2029.73833	15461.6875
2032.7764	15432.3875
2035.8125	15414.4875
2038.84664	15366.0875
2041.87881	15346.6875
2044.90903	15303.4875
2047.93729	15230.3875
2050.96359	15256.9875
2053.98794	15188.6875
2057.01034	15201.4875
2060.03078	15199.9875
2063.04927	15181.6875
2066.06582	15231.3875
2069.08042	15175.6875
2072.09307	15185.2875
2075.10378	15169.6875
2078.11255	15172.3875
2081.11938	15167.5875
2084.12426	15160.8875
2087.12722	15159.2875
2090.12824	15136.6875
2093.12732	15125.8875
2096.12447	15134.3875
2099.11969	15120.7875
2102.11299	15153.9875
2105.10435	15161.8875
2108.09379	15145.1875
2111.08131	15181.8875
2114.0669	15158.1875
2117.05057	15173.5875
2120.03233	15152.8875
2123.01216	15176.8875
2125.99008	15171.2875
2128.96609	15202.1875
2131.94018	15208.7875
2134.91236	15240.8875
2137.88263	15203.1875
2140.851	15217.6875
2143.81746	15230.4875
2146.78201	15255.7875
2149.74466	15251.7875
2152.7054	15249.4875
2155.66425	15227.6875
2158.6212	15238.0875
2161.57625	15233.3875
2164.52941	15240.5875
2167.48067	15205.4875
2170.43004	15198.3875
2173.37752	15221.2875
2176.32311	15213.3875
2179.26681	15202.4875
2182.20863	15210.3875
2185.14856	15214.2875
2188.08661	15204.1875
2191.02278	15193.9875
2193.95707	15211.9875
2196.88948	15162.3875
2199.82001	15166.8875
2202.74867	15123.5875
2205.67545	15142.5875
2208.60037	15131.9875
2211.52341	15084.8875
2214.44458	15068.3875
2217.36388	15048.0875
2220.28132	14991.6875
2223.1969	14952.6875
2226.11061	14900.6875
2229.02246	14913.1875
2231.93245	14879.3875
2234.84058	14850.9875
2237.74686	14882.5875
2240.65128	14811.6875
2243.55385	14799.2875
2246.45456	14799.3875
2249.35343	14757.2875
2252.25044	14741.4875
2255.14561	14727.0875
2258.03893	14723.7875
2260.93041	14669.3875
2263.82004	14660.3875
2266.70783	14608.1875
2269.59378	14587.3875
2272.4779	14539.9875
2275.36017	14514.5875
2278.24061	14532.6875
2281.11922	14476.9875
2283.996	14454.5875
2286.87094	14419.1875
2289.74405	14408.3875
2292.61534	14376.3875
2295.4848	14366.7875
2298.35243	14351.7875
2301.21824	14337.1875
2304.08223	14333.1875
2306.94439	14328.5875
2309.80474	14328.0875
2312.66327	14303.0875
2315.51999	14247.2875
2318.37489	14269.4875
2321.22797	14260.1875
2324.07925	14284.4875
2326.92871	14218.5875
2329.77637	14217.8875
2332.62222	14186.7875
2335.46626	14161.4875
2338.3085	14143.6875
2341.14893	14110.9875
2343.98756	14102.5875
2346.8244	14094.5875
2349.65943	14096.4875
2352.49267	14059.9875
2355.32411	14049.7875
2358.15376	14054.1875
2360.98161	14052.1875
2363.80768	14014.2875
2366.63195	14039.4875
2369.45444	14007.7875
2372.27514	14013.9875
2375.09405	13963.3875
2377.91118	13961.4875
2380.72652	13942.5875
2383.54009	13913.9875
2386.35187	13903.7875
2389.16188	13819.9875
2391.97011	13797.3875
2394.77657	13769.6875
2397.58125	13734.0875
2400.38416	13721.3875
2403.18529	13708.9875
2405.98466	13664.0875
2408.78226	13693.5875
2411.57809	13656.5875
2414.37216	13626.4875
2417.16446	13617.0875
2419.955	13596.3875
2422.74378	13585.0875
2425.5308	13564.8875
2428.31606	13559.8875
2431.09956	13534.6875
2433.88131	13511.5875
2436.6613	13528.5875
2439.43954	13522.3875
2442.21603	13499.2875
2444.99077	13517.6875
2447.76377	13506.0875
2450.53501	13488.0875
2453.30451	13484.5875
2456.07226	13442.8875
2458.83827	13433.2875
2461.60254	13408.9875
2464.36507	13401.3875
2467.12586	13391.7875
2469.88492	13396.6875
2472.64224	13405.9875
2475.39782	13390.7875
2478.15167	13393.0875
2480.90379	13361.6875
2483.65417	13358.8875
2486.40283	13352.9875
2489.14976	13356.4875
2491.89497	13335.1875
2494.63845	13314.8875
2497.3802	13306.6875
2500.12024	13307.6875
2502.85855	13281.1875
2505.59514	13285.5875
2508.33002	13240.2875
2511.06318	13235.1875
2513.79462	13224.0875
2516.52435	13192.9875
2519.25237	13199.7875
2521.97867	13170.9875
2524.70327	13169.3875
2527.42616	13123.8875
2530.14734	13134.5875
2532.86681	13132.1875
2535.58458	13075.9875
2538.30065	13090.5875
2541.01501	13092.9875
2543.72768	13092.3875
2546.43864	13077.8875
2549.14791	13023.9875
2551.85548	13006.9875
2554.56136	12993.9875
2557.26554	12950.4875
2559.96803	12918.6875
2562.66883	12888.0875
2565.36794	12924.7875
2568.06536	12885.3875
2570.7611	12862.9875
2573.45514	12842.0875
2576.14751	12812.3875
2578.83819	12802.4875
2581.52719	12783.3875
2584.21451	12761.6875
2586.90015	12788.3875
2589.58411	12707.4875
2592.2664	12698.4875
2594.94701	12656.3875
2597.62594	12671.5875
2600.30321	12642.7875
2602.9788	12632.4875
2605.65273	12571.9875
2608.32498	12576.7875
2610.99557	12568.5875
2613.66449	12557.2875
2616.33175	12549.2875
2618.99734	12520.7875
2621.66128	12514.6875
2624.32355	12493.5875
2626.98416	12477.9875
2629.64311	12451.5875
2632.30041	12459.3875
2634.95605	12429.0875
2637.61004	12393.4875
2640.26238	12373.9875
2642.91306	12341.7875
2645.56209	12388.0875
2648.20948	12364.2875
2650.85521	12374.9875
2653.4993	12334.7875
2656.14175	12350.5875
2658.78255	12374.9875
2661.42171	12370.1875
2664.05923	12396.1875
2666.6951	12360.2875
2669.32934	12369.1875
2671.96194	12377.3875
2674.59291	12364.3875
2677.22224	12351.7875
2679.84993	12362.4875
2682.476	12351.1875
2685.10043	12331.2875
2687.72324	12317.6875
2690.34441	12316.1875
2692.96396	12323.5875
2695.58188	12327.6875
2698.19818	12296.8875
2700.81285	12286.7875
2703.4259	12287.0875
2706.03733	12277.7875
2708.64714	12250.9875
2711.25533	12293.8875
2713.86191	12266.3875
2716.46687	12316.4875
2719.07021	12305.9875
2721.67194	12311.8875
2724.27206	12330.5875
2726.87057	12327.4875
2729.46747	12310.9875
2732.06276	12306.4875
2734.65644	12272.3875
2737.24852	12259.8875
2739.83899	12260.9875
2742.42786	12268.4875
2745.01513	12208.5875
2747.60079	12222.3875
2750.18486	12214.8875
2752.76733	12187.7875
2755.3482	12167.8875
2757.92747	12181.2875
2760.50515	12140.8875
2763.08123	12141.3875
2765.65573	12140.4875
2768.22863	12125.4875
2770.79994	12095.1875
2773.36967	12102.4875
2775.9378	12109.5875
2778.50435	12093.5875
2781.06932	12059.7875
2783.6327	12043.9875
2786.1945	12049.8875
2788.75471	12036.6875
2791.31335	11984.6875
2793.87041	11973.1875
2796.42589	11921.2875
2798.97979	11933.4875
2801.53212	11894.8875
2804.08288	11881.9875
2806.63206	11849.5875
2809.17967	11814.6875
2811.72571	11797.0875
2814.27018	11782.2875
2816.81308	11752.6875
2819.35442	11735.8875
2821.89419	11684.5875
2824.43239	11708.6875
2826.96904	11699.7875
2829.50412	11677.7875
2832.03763	11672.3875
2834.56959	11675.8875
2837.1	11647.0875
2839.62884	11670.8875
2842.15613	11646.2875
2844.68186	11668.7875
2847.20604	11657.2875
2849.72867	11648.3875
2852.24974	11640.4875
2854.76927	11600.5875
2857.28724	11586.8875
2859.80367	11566.5875
2862.31855	11542.6875
2864.83189	11540.1875
2867.34368	11515.6875
2869.85393	11510.5875
2872.36264	11517.0875
2874.8698	11519.8875
2877.37543	11503.9875
2879.87952	11488.3875
2882.38207	11480.0875
2884.88308	11500.8875
2887.38256	11514.6875
2889.88051	11494.9875
2892.37692	11507.5875
2894.8718	11483.7875
2897.36515	11499.3875
2899.85698	11493.6875
2902.34727	11517.8875
2904.83604	11502.7875
2907.32328	11548.7875
2909.809	11515.1875
2912.29319	11540.6875
2914.77587	11511.5875
2917.25702	11474.7875
2919.73665	11480.0875
2922.21476	11479.8875
2924.69136	11464.7875
2927.16644	11471.7875
2929.64	11458.6875
2932.11205	11449.4875
2934.58258	11413.4875
2937.05161	11403.3875
2939.51912	11402.3875
2941.98513	11421.6875
2944.44962	11365.7875
2946.91261	11318.5875
2949.37409	11340.1875
2951.83407	11309.3875
2954.29254	11316.6875
2956.74951	11332.8875
2959.20498	11316.0875
2961.65895	11287.6875
2964.11142	11307.2875
2966.56239	11279.7875
2969.01186	11250.5875
2971.45984	11241.1875
2973.90632	11245.5875
2976.35131	11179.7875
2978.7948	11176.9875
2981.23681	11146.0875
2983.67732	11170.7875
2986.11635	11123.9875
2988.55388	11104.9875
2990.98993	11053.9875
2993.4245	11034.6875
2995.85758	10999.9875
2998.28917	10977.8875
3000.71928	10973.9875
3003.14791	10941.8875
3005.57506	10935.4875
3008.00073	10917.4875
3010.42493	10896.2875
3012.84764	10863.2875
3015.26888	10872.7875
3017.68865	10846.7875
3020.10694	10822.4875
3022.52376	10794.5875
3024.9391	10807.1875
3027.35298	10820.4875
3029.76539	10781.5875
3032.17632	10785.0875
3034.5858	10760.1875
3036.9938	10730.5875
3039.40034	10741.5875
3041.80542	10722.7875
3044.20903	10692.2875
3046.61118	10692.2875
3049.01187	10633.5875
3051.4111	10647.1875
3053.80888	10628.2875
3056.20519	10628.0875
3058.60005	10592.7875
3060.99345	10562.8875
3063.3854	10539.1875
3065.7759	10498.8875
3068.16494	10513.7875
3070.55254	10469.0875
3072.93868	10445.4875
3075.32338	10420.1875
3077.70662	10389.7875
3080.08842	10383.1875
3082.46878	10385.3875
3084.84769	10359.1875
3087.22515	10350.4875
3089.60118	10341.8875
3091.97576	10346.8875
3094.3489	10353.6875
3096.72061	10352.7875
3099.09087	10365.4875
3101.4597	10339.1875
3103.82709	10359.1875
3106.19305	10325.6875
3108.55757	10344.4875
3110.92066	10298.1875
3113.28232	10290.2875
3115.64255	10253.4875
3118.00134	10232.1875
3120.35871	10241.3875
3122.71466	10188.8875
3125.06917	10207.0875
3127.42226	10174.9875
3129.77393	10179.3875
3132.12417	10131.7875
3134.47299	10134.3875
3136.82039	10127.5875
3139.16636	10151.4875
3141.51092	10133.8875
3143.85406	10126.9875
3146.19579	10122.0875
3148.53609	10149.7875
3150.87499	10179.4875
3153.21246	10163.3875
3155.54853	10193.2875
3157.88318	10170.6875
3160.21642	10159.6875
3162.54826	10177.5875
3164.87868	10140.7875
3167.2077	10140.3875
3169.5353	10153.8875
3171.86151	10159.5875
3174.18631	10141.8875
3176.5097	10108.8875
3178.83169	10093.0875
3181.15228	10081.7875
3183.47147	10084.6875
3185.78926	10062.7875
3188.10565	10037.4875
3190.42065	10039.7875
3192.73424	10020.7875
3195.04645	10029.0875
3197.35725	10037.3875
3199.66667	10035.1875
3201.97469	10022.4875
3204.28132	10015.2875
3206.58656	10051.1875
3208.8904	10024.8875
3211.19287	10037.2875
3213.49394	10052.5875
3215.79363	10060.7875
3218.09193	10055.7875
3220.38884	10026.7875
3222.68438	10036.3875
3224.97853	10023.5875
3227.2713	9989.4875
3229.56269	9967.1875
3231.8527	9998.3875
3234.14133	9987.1875
3236.42858	9944.5875
3238.71446	9924.6875
3240.99896	9909.8875
3243.28209	9900.0875
3245.56384	9887.9875
3247.84423	9910.5875
3250.12324	9880.8875
3252.40088	9857.7875
3254.67715	9864.1875
3256.95205	9859.2875
3259.22558	9877.3875
3261.49775	9832.6875
3263.76855	9849.9875
3266.03799	9807.3875
3268.30606	9801.7875
3270.57277	9793.5875
3272.83812	9777.7875
3275.10211	9742.7875
3277.36474	9709.1875
3279.62601	9704.1875
3281.88593	9679.8875
3284.14448	9684.0875
3286.40168	9697.4875
3288.65753	9706.7875
3290.91202	9687.2875
3293.16516	9641.0875
3295.41695	9625.9875
3297.66738	9572.7875
3299.91647	9528.2875
3302.16421	9471.5875
3304.4106	9413.0875
3306.65564	9386.0875
3308.89933	9319.9875
3311.14169	9262.7875
3313.38269	9194.9875
3315.62236	9145.2875
3317.86068	9044.9875
3320.09766	8991.4875
3322.3333	8915.6875
3324.5676	8929.7875
3326.80056	8770.4875
3329.03219	8713.9875
3331.26248	2.6875
3333.49143	0.7875
3335.71905	-2.4125
