Data from AgNPs_FTO_APTES_UA_1uM_CRN_10uM_R6G_50uM_NaF_0.1M_Addition_RamanShift__23__16-07-49-748.txt Node

Date: Thu Jan 27 16:07:49 GMT 2022
User: TCL
Spectrometer: QEP01345
Trigger mode: 4
Integration Time (sec): 7.000000E0
Scans to average: 10
Electric dark correction enabled: true
Nonlinearity correction enabled: false
Boxcar width: 0
XAxis mode: Raman Shifts
Number of Pixels in Spectrum: 1044
>>>>>Begin Spectral Data<<<<<
46.04893	1.5375
50.45542	0.6375
54.85868	-1.2625
59.25871	-2.3625
63.6555	46.0375
68.04907	48.9375
72.43941	50.1375
76.82654	55.9375
81.21044	58.2375
85.59113	56.1375
89.96862	54.1375
94.34289	60.8375
98.71396	64.4375
103.08183	62.9375
107.4465	67.0375
111.80798	71.8375
116.16626	67.3375
120.52136	72.6375
124.87327	75.1375
129.222	75.4375
133.56755	76.7375
137.90993	79.8375
142.24913	89.1375
146.58517	102.6375
150.91804	113.0375
155.24774	132.2375
159.57429	159.9375
163.89768	202.9375
168.21792	267.4375
172.53501	362.0375
176.84895	494.1375
181.15975	687.9375
185.46741	953.0375
189.77193	1322.2375
194.07331	1770.8375
198.37157	2283.8375
202.6667	2806.9375
206.9587	3355.8375
211.24758	3858.0375
215.53334	4387.8375
219.81599	4947.1375
224.09553	5548.9375
228.37195	6216.3375
232.64527	6968.9375
236.91549	7752.6375
241.18261	8562.6375
245.44663	9272.6375
249.70755	9947.3375
253.96539	10543.1375
258.22014	11059.3375
262.4718	11481.4375
266.72039	11777.1375
270.96589	11962.4375
275.20832	12043.6375
279.44768	12022.3375
283.68397	11967.6375
287.91719	11918.6375
292.14735	11919.5375
296.37445	11934.6375
300.59849	11972.8375
304.81948	12017.9375
309.03742	11947.6375
313.25231	11751.5375
317.46415	11478.7375
321.67296	11091.6375
325.87872	10825.5375
330.08145	10687.9375
334.28114	10695.0375
338.47781	10783.6375
342.67145	10928.3375
346.86207	11112.3375
351.04966	11343.3375
355.23424	11602.5375
359.4158	11793.0375
363.59435	11963.2375
367.76989	12039.9375
371.94243	12140.6375
376.11196	12218.7375
380.27849	12267.3375
384.44203	12352.1375
388.60257	12412.4375
392.76012	12534.2375
396.91468	12671.6375
401.06626	12851.9375
405.21485	13005.0375
409.36047	12960.9375
413.50311	12788.6375
417.64277	12631.1375
421.77947	12587.0375
425.9132	12612.8375
430.04396	12728.2375
434.17176	12789.3375
438.2966	12954.3375
442.41849	13158.8375
446.53742	13510.4375
450.6534	13882.2375
454.76644	14163.0375
458.87653	14320.9375
462.98368	14265.8375
467.08789	14153.6375
471.18916	13991.9375
475.2875	13864.9375
479.38291	13793.4375
483.4754	13697.0375
487.56496	13519.4375
491.6516	13263.1375
495.73531	13083.3375
499.81612	13005.8375
503.89401	13050.6375
507.96899	13067.9375
512.04106	13059.3375
516.11023	12984.5375
520.1765	12906.2375
524.23987	12788.3375
528.30034	12686.8375
532.35792	12551.8375
536.41261	12431.5375
540.46441	12327.8375
544.51333	12348.1375
548.55936	12470.4375
552.60252	12738.4375
556.64279	12998.0375
560.6802	13190.8375
564.71473	13263.4375
568.7464	13440.8375
572.7752	13707.5375
576.80114	13872.9375
580.82422	13970.9375
584.84444	14092.8375
588.86181	14242.1375
592.87633	14479.1375
596.888	14678.0375
600.89682	14768.9375
604.9028	15141.9375
608.90594	16247.5375
612.90624	17453.2375
616.90371	16596.6375
620.89834	14150.8375
624.89015	13080.9375
628.87913	12995.4375
632.86528	13054.9375
636.84862	13036.0375
640.82913	12839.8375
644.80683	12515.0375
648.78172	12252.9375
652.75379	12170.6375
656.72306	12251.7375
660.68952	12461.3375
664.65319	12443.5375
668.61405	12283.8375
672.57211	12174.9375
676.52738	12189.9375
680.47986	12200.7375
684.42955	12178.5375
688.37646	12126.6375
692.32058	12155.6375
696.26192	12242.6375
700.20048	12362.9375
704.13626	12452.9375
708.06928	12406.7375
711.99952	12335.8375
715.927	12289.5375
719.85171	12300.9375
723.77365	12275.2375
727.69284	12197.3375
731.60928	12120.5375
735.52295	12081.7375
739.43388	12111.6375
743.34206	12115.4375
747.24749	12186.1375
751.15017	12319.5375
755.05012	12507.6375
758.94733	12851.0375
762.8418	13446.6375
766.73354	14337.4375
770.62254	15242.2375
774.50882	15506.1375
778.39237	14827.1375
782.27321	13768.7375
786.15132	12912.8375
790.02671	12413.1375
793.89938	12196.0375
797.76935	12084.9375
801.6366	12095.6375
805.50115	12052.1375
809.36299	11992.1375
813.22213	11951.3375
817.07857	11943.9375
820.93231	11948.0375
824.78336	11888.1375
828.63172	11900.6375
832.47738	11915.7375
836.32036	11913.0375
840.16066	11898.0375
843.99827	11945.8375
847.8332	11934.9375
851.66546	11875.6375
855.49504	11860.4375
859.32195	11882.6375
863.1462	11828.7375
866.96777	11778.6375
870.78668	11747.7375
874.60293	11736.1375
878.41652	11726.2375
882.22745	11776.3375
886.03573	11799.3375
889.84136	11800.5375
893.64433	11777.5375
897.44466	11707.2375
901.24235	11683.4375
905.0374	11653.6375
908.8298	11627.1375
912.61957	11656.5375
916.40671	11743.4375
920.19121	11911.5375
923.97308	12032.8375
927.75233	12028.4375
931.52895	12005.5375
935.30295	11903.6375
939.07433	11692.8375
942.84309	11562.0375
946.60924	11469.8375
950.37278	11443.3375
954.13371	11383.5375
957.89203	11329.5375
961.64774	11301.7375
965.40086	11291.7375
969.15137	11223.0375
972.89929	11163.3375
976.64461	11128.0375
980.38733	11135.3375
984.12747	11179.7375
987.86502	11265.2375
991.59999	11410.3375
995.33237	11624.2375
999.06217	11920.3375
1002.78939	12309.7375
1006.51404	12559.9375
1010.23611	12680.1375
1013.95561	12752.0375
1017.67255	12772.9375
1021.38692	12698.3375
1025.09872	12573.4375
1028.80796	12666.3375
1032.51465	13037.4375
1036.21877	13336.2375
1039.92035	13329.0375
1043.61937	13156.3375
1047.31584	12846.9375
1051.00976	12545.3375
1054.70114	12347.5375
1058.38998	12337.3375
1062.07627	12422.8375
1065.76003	12469.1375
1069.44126	12550.3375
1073.11995	12637.9375
1076.79611	12716.6375
1080.46974	12732.2375
1084.14085	12855.4375
1087.80943	12914.1375
1091.47549	12978.1375
1095.13903	12967.5375
1098.80005	12818.8375
1102.45857	12599.9375
1106.11456	12453.2375
1109.76805	12445.1375
1113.41903	12474.5375
1117.06751	12606.0375
1120.71348	12751.7375
1124.35696	12910.4375
1127.99793	12998.9375
1131.63641	13098.4375
1135.2724	12995.0375
1138.90589	12844.9375
1142.5369	12750.4375
1146.16542	12757.5375
1149.79145	12797.2375
1153.415	12899.8375
1157.03607	13044.5375
1160.65467	13316.6375
1164.27079	13747.1375
1167.88443	14334.4375
1171.49561	15175.8375
1175.10432	16254.4375
1178.71056	17588.7375
1182.31434	18813.6375
1185.91565	19528.6375
1189.51451	19570.0375
1193.11091	19125.0375
1196.70485	18366.4375
1200.29634	17574.0375
1203.88538	16950.4375
1207.47197	16469.5375
1211.05612	16106.9375
1214.63782	15821.9375
1218.21708	15637.5375
1221.79391	15527.2375
1225.36829	15470.0375
1228.94024	15353.8375
1232.50976	15140.9375
1236.07685	14951.0375
1239.6415	14885.6375
1243.20374	14838.3375
1246.76355	14883.9375
1250.32093	15116.9375
1253.8759	15388.5375
1257.42845	15790.3375
1260.97859	16151.1375
1264.52631	16444.0375
1268.07163	16786.5375
1271.61453	17206.4375
1275.15503	17678.7375
1278.69312	18227.1375
1282.22882	18654.7375
1285.76211	19064.5375
1289.29301	19534.0375
1292.82151	20195.7375
1296.34761	21005.1375
1299.87133	22077.1375
1303.39266	23249.6375
1306.9116	24697.3375
1310.42815	26061.1375
1313.94233	27009.5375
1317.45412	27084.0375
1320.96354	26613.1375
1324.47058	26086.1375
1327.97525	25498.9375
1331.47754	25130.2375
1334.97747	24990.6375
1338.47502	25097.5375
1341.97022	25224.5375
1345.46305	25129.5375
1348.95352	24702.0375
1352.44163	24290.2375
1355.92738	24260.6375
1359.41078	25014.4375
1362.89183	25842.5375
1366.37053	25469.7375
1369.84688	23542.3375
1373.32088	21297.7375
1376.79254	19701.3375
1380.26186	19049.9375
1383.72883	18932.5375
1387.19347	19010.8375
1390.65578	18994.3375
1394.11575	19045.8375
1397.57339	19363.1375
1401.0287	19807.6375
1404.48168	20265.7375
1407.93234	20469.4375
1411.38068	20432.8375
1414.82669	19952.4375
1418.27039	19202.2375
1421.71177	18316.8375
1425.15083	17611.0375
1428.58758	17172.2375
1432.02203	17119.4375
1435.45416	17304.8375
1438.88399	17651.8375
1442.31151	18064.1375
1445.73673	18382.8375
1449.15965	18715.1375
1452.58027	18983.7375
1455.9986	19083.5375
1459.41463	19216.6375
1462.82837	19467.2375
1466.23982	19783.9375
1469.64898	20037.7375
1473.05586	20191.9375
1476.46045	20209.5375
1479.86276	20070.8375
1483.26279	19925.6375
1486.66054	19782.8375
1490.05602	19748.7375
1493.44922	19822.1375
1496.84016	19886.3375
1500.22882	19996.7375
1503.61521	20412.0375
1506.99934	20975.2375
1510.38121	21639.5375
1513.76081	21955.9375
1517.13816	21682.0375
1520.51324	20900.1375
1523.88607	20147.1375
1527.25665	19655.1375
1530.62498	19416.6375
1533.99105	19287.2375
1537.35488	19205.4375
1540.71647	19075.2375
1544.07581	18882.9375
1547.4329	18616.3375
1550.78776	18339.3375
1554.14038	18147.7375
1557.49077	18121.8375
1560.83892	18098.7375
1564.18484	18097.6375
1567.52853	18058.2375
1570.86999	18067.9375
1574.20922	18239.9375
1577.54624	18426.6375
1580.88103	18480.8375
1584.2136	18545.0375
1587.54395	18964.3375
1590.87208	19715.3375
1594.19801	20823.3375
1597.52172	21957.5375
1600.84321	22425.4375
1604.16251	21698.9375
1607.47959	20269.7375
1610.79447	18669.9375
1614.10715	17214.2375
1617.41763	15967.5375
1620.7259	15069.0375
1624.03199	14617.3375
1627.33587	14565.7375
1630.63757	14901.2375
1633.93707	15648.0375
1637.23439	16876.7375
1640.52951	18419.2375
1643.82246	20152.7375
1647.11321	21462.0375
1650.40179	21720.9375
1653.68819	20572.0375
1656.97241	18386.6375
1660.25446	16085.7375
1663.53433	14309.3375
1666.81203	13157.9375
1670.08756	12413.4375
1673.36092	11968.3375
1676.63211	11643.1375
1679.90115	11457.0375
1683.16801	11304.0375
1686.43272	11166.3375
1689.69527	11056.7375
1692.95567	10968.8375
1696.2139	10916.2375
1699.46999	10847.5375
1702.72392	10798.3375
1705.97571	10788.8375
1709.22535	10815.8375
1712.47284	10809.5375
1715.71819	10786.0375
1718.96139	10777.9375
1722.20246	10763.5375
1725.44139	10751.2375
1728.67818	10707.3375
1731.91284	10627.5375
1735.14537	10579.6375
1738.37576	10538.6375
1741.60403	10500.1375
1744.83017	10492.3375
1748.05418	10492.1375
1751.27607	10445.5375
1754.49584	10416.6375
1757.71349	10386.0375
1760.92903	10374.3375
1764.14244	10341.0375
1767.35375	10351.0375
1770.56294	10328.4375
1773.77002	10311.6375
1776.97499	10333.9375
1780.17785	10317.8375
1783.37861	10335.7375
1786.57727	10310.2375
1789.77382	10302.2375
1792.96828	10299.7375
1796.16064	10294.1375
1799.3509	10287.4375
1802.53907	10267.6375
1805.72514	10237.2375
1808.90913	10221.3375
1812.09102	10204.5375
1815.27083	10161.7375
1818.44856	10168.2375
1821.6242	10158.5375
1824.79776	10135.7375
1827.96924	10113.4375
1831.13864	10120.0375
1834.30597	10126.8375
1837.47122	10111.5375
1840.6344	10114.4375
1843.7955	10103.6375
1846.95454	10119.1375
1850.11151	10110.5375
1853.26642	10101.6375
1856.41926	10121.4375
1859.57004	10128.5375
1862.71876	10144.2375
1865.86542	10133.1375
1869.01003	10123.7375
1872.15258	10129.2375
1875.29308	10117.9375
1878.43152	10117.0375
1881.56792	10128.5375
1884.70227	10101.2375
1887.83457	10116.4375
1890.96482	10107.9375
1894.09304	10105.4375
1897.21921	10086.8375
1900.34335	10088.6375
1903.46544	10085.3375
1906.58551	10085.6375
1909.70353	10081.5375
1912.81953	10052.2375
1915.93349	10071.5375
1919.04543	10021.8375
1922.15534	10027.3375
1925.26322	10039.3375
1928.36908	9998.4375
1931.47292	9963.5375
1934.57473	9919.0375
1937.67453	9911.1375
1940.77232	9894.9375
1943.86808	9843.9375
1946.96184	9800.6375
1950.05358	9778.3375
1953.14331	9741.0375
1956.23103	9715.0375
1959.31675	9711.7375
1962.40046	9687.6375
1965.48217	9649.2375
1968.56188	9623.9375
1971.63959	9589.2375
1974.7153	9587.4375
1977.78901	9532.4375
1980.86073	9501.9375
1983.93046	9497.5375
1986.99819	9455.1375
1990.06394	9401.9375
1993.1277	9419.6375
1996.18947	9357.2375
1999.24925	9361.7375
2002.30706	9326.3375
2005.36288	9310.4375
2008.41672	9289.5375
2011.46859	9257.2375
2014.51848	9247.3375
2017.56639	9210.3375
2020.61233	9213.1375
2023.6563	9154.7375
2026.6983	9162.0375
2029.73833	9129.4375
2032.7764	9127.1375
2035.8125	9133.4375
2038.84664	9094.7375
2041.87881	9102.3375
2044.90903	9075.9375
2047.93729	9046.8375
2050.96359	9037.8375
2053.98794	9029.2375
2057.01034	9037.0375
2060.03078	9037.9375
2063.04927	9048.1375
2066.06582	9014.2375
2069.08042	9004.6375
2072.09307	9003.5375
2075.10378	9001.2375
2078.11255	8991.9375
2081.11938	8983.1375
2084.12426	8990.7375
2087.12722	8977.0375
2090.12824	8976.2375
2093.12732	8983.2375
2096.12447	8954.9375
2099.11969	8977.9375
2102.11299	8943.6375
2105.10435	8971.3375
2108.09379	8970.5375
2111.08131	8969.1375
2114.0669	8969.9375
2117.05057	8996.8375
2120.03233	9001.7375
2123.01216	8990.4375
2125.99008	9009.8375
2128.96609	9010.1375
2131.94018	9032.2375
2134.91236	9019.0375
2137.88263	9039.7375
2140.851	9039.6375
2143.81746	9054.9375
2146.78201	9039.5375
2149.74466	9066.9375
2152.7054	9068.6375
2155.66425	9052.6375
2158.6212	9051.4375
2161.57625	9054.5375
2164.52941	9043.9375
2167.48067	9063.0375
2170.43004	9055.9375
2173.37752	9053.8375
2176.32311	9067.0375
2179.26681	9058.0375
2182.20863	9050.1375
2185.14856	9049.4375
2188.08661	9056.6375
2191.02278	9055.0375
2193.95707	9047.8375
2196.88948	9059.7375
2199.82001	9072.2375
2202.74867	9062.3375
2205.67545	9069.1375
2208.60037	9034.1375
2211.52341	9020.8375
2214.44458	9026.5375
2217.36388	9006.2375
2220.28132	9021.3375
2223.1969	8975.5375
2226.11061	8961.2375
2229.02246	8966.0375
2231.93245	8951.5375
2234.84058	8938.9375
2237.74686	8900.1375
2240.65128	8921.3375
2243.55385	8878.4375
2246.45456	8882.7375
2249.35343	8853.5375
2252.25044	8862.4375
2255.14561	8833.4375
2258.03893	8860.6375
2260.93041	8829.2375
2263.82004	8811.4375
2266.70783	8782.2375
2269.59378	8749.1375
2272.4779	8727.8375
2275.36017	8709.0375
2278.24061	8703.1375
2281.11922	8709.6375
2283.996	8697.0375
2286.87094	8657.8375
2289.74405	8666.5375
2292.61534	8660.9375
2295.4848	8663.4375
2298.35243	8664.0375
2301.21824	8644.0375
2304.08223	8670.5375
2306.94439	8652.7375
2309.80474	8683.8375
2312.66327	8671.0375
2315.51999	8673.6375
2318.37489	8669.2375
2321.22797	8656.2375
2324.07925	8635.4375
2326.92871	8643.0375
2329.77637	8653.6375
2332.62222	8622.1375
2335.46626	8632.0375
2338.3085	8621.5375
2341.14893	8612.0375
2343.98756	8649.7375
2346.8244	8635.7375
2349.65943	8635.8375
2352.49267	8641.0375
2355.32411	8623.0375
2358.15376	8613.4375
2360.98161	8618.9375
2363.80768	8595.0375
2366.63195	8609.2375
2369.45444	8586.3375
2372.27514	8570.8375
2375.09405	8556.2375
2377.91118	8539.7375
2380.72652	8514.0375
2383.54009	8509.1375
2386.35187	8477.0375
2389.16188	8469.3375
2391.97011	8457.5375
2394.77657	8454.3375
2397.58125	8436.7375
2400.38416	8436.0375
2403.18529	8397.5375
2405.98466	8398.4375
2408.78226	8372.0375
2411.57809	8384.8375
2414.37216	8326.0375
2417.16446	8335.3375
2419.955	8331.8375
2422.74378	8330.3375
2425.5308	8327.5375
2428.31606	8320.3375
2431.09956	8331.5375
2433.88131	8298.3375
2436.6613	8320.5375
2439.43954	8304.5375
2442.21603	8299.7375
2444.99077	8322.1375
2447.76377	8303.6375
2450.53501	8287.1375
2453.30451	8293.5375
2456.07226	8286.2375
2458.83827	8281.3375
2461.60254	8281.8375
2464.36507	8270.4375
2467.12586	8268.6375
2469.88492	8254.0375
2472.64224	8285.7375
2475.39782	8272.4375
2478.15167	8263.0375
2480.90379	8248.1375
2483.65417	8290.8375
2486.40283	8313.4375
2489.14976	8316.4375
2491.89497	8295.3375
2494.63845	8298.2375
2497.3802	8301.7375
2500.12024	8300.6375
2502.85855	8282.4375
2505.59514	8283.3375
2508.33002	8302.9375
2511.06318	8279.7375
2513.79462	8279.2375
2516.52435	8280.2375
2519.25237	8250.8375
2521.97867	8255.1375
2524.70327	8249.8375
2527.42616	8265.3375
2530.14734	8234.4375
2532.86681	8236.7375
2535.58458	8234.8375
2538.30065	8226.1375
2541.01501	8239.9375
2543.72768	8209.3375
2546.43864	8195.4375
2549.14791	8185.8375
2551.85548	8190.4375
2554.56136	8179.3375
2557.26554	8164.6375
2559.96803	8146.5375
2562.66883	8137.8375
2565.36794	8151.9375
2568.06536	8124.5375
2570.7611	8129.1375
2573.45514	8128.4375
2576.14751	8126.1375
2578.83819	8123.8375
2581.52719	8126.5375
2584.21451	8124.4375
2586.90015	8118.7375
2589.58411	8095.9375
2592.2664	8130.9375
2594.94701	8109.5375
2597.62594	8110.5375
2600.30321	8094.9375
2602.9788	8111.9375
2605.65273	8086.9375
2608.32498	8101.6375
2610.99557	8079.4375
2613.66449	8103.8375
2616.33175	8085.1375
2618.99734	8097.0375
2621.66128	8093.4375
2624.32355	8087.4375
2626.98416	8097.5375
2629.64311	8108.4375
2632.30041	8100.2375
2634.95605	8085.0375
2637.61004	8088.0375
2640.26238	8081.1375
2642.91306	8082.5375
2645.56209	8053.8375
2648.20948	8049.5375
2650.85521	8043.3375
2653.4993	8033.9375
2656.14175	8050.0375
2658.78255	8064.2375
2661.42171	8061.9375
2664.05923	8071.8375
2666.6951	8078.1375
2669.32934	8080.9375
2671.96194	8069.6375
2674.59291	8063.8375
2677.22224	8091.7375
2679.84993	8069.1375
2682.476	8055.8375
2685.10043	8067.6375
2687.72324	8059.6375
2690.34441	8034.9375
2692.96396	8050.7375
2695.58188	8070.0375
2698.19818	8070.1375
2700.81285	8069.5375
2703.4259	8050.7375
2706.03733	8050.8375
2708.64714	8041.1375
2711.25533	8051.3375
2713.86191	8061.4375
2716.46687	8079.5375
2719.07021	8073.9375
2721.67194	8070.0375
2724.27206	8088.7375
2726.87057	8105.6375
2729.46747	8070.4375
2732.06276	8108.0375
2734.65644	8089.8375
2737.24852	8094.3375
2739.83899	8077.7375
2742.42786	8093.1375
2745.01513	8064.9375
2747.60079	8070.2375
2750.18486	8064.5375
2752.76733	8094.2375
2755.3482	8068.1375
2757.92747	8077.1375
2760.50515	8069.8375
2763.08123	8071.9375
2765.65573	8083.4375
2768.22863	8071.8375
2770.79994	8049.1375
2773.36967	8051.2375
2775.9378	8059.8375
2778.50435	8065.2375
2781.06932	8036.0375
2783.6327	8041.9375
2786.1945	8055.5375
2788.75471	8055.7375
2791.31335	8029.6375
2793.87041	8016.6375
2796.42589	8015.6375
2798.97979	8020.6375
2801.53212	7990.1375
2804.08288	7998.6375
2806.63206	7962.1375
2809.17967	7948.1375
2811.72571	7948.5375
2814.27018	7938.6375
2816.81308	7923.3375
2819.35442	7905.6375
2821.89419	7908.5375
2824.43239	7908.8375
2826.96904	7905.8375
2829.50412	7882.1375
2832.03763	7887.3375
2834.56959	7889.4375
2837.1	7877.6375
2839.62884	7896.9375
2842.15613	7899.5375
2844.68186	7894.5375
2847.20604	7870.6375
2849.72867	7885.6375
2852.24974	7886.2375
2854.76927	7889.7375
2857.28724	7882.4375
2859.80367	7865.3375
2862.31855	7877.1375
2864.83189	7875.1375
2867.34368	7846.4375
2869.85393	7835.4375
2872.36264	7839.7375
2874.8698	7828.8375
2877.37543	7850.0375
2879.87952	7830.9375
2882.38207	7837.1375
2884.88308	7830.6375
2887.38256	7848.7375
2889.88051	7833.6375
2892.37692	7852.1375
2894.8718	7862.1375
2897.36515	7862.3375
2899.85698	7847.0375
2902.34727	7867.8375
2904.83604	7879.2375
2907.32328	7902.4375
2909.809	7876.4375
2912.29319	7901.3375
2914.77587	7908.0375
2917.25702	7905.0375
2919.73665	7894.2375
2922.21476	7878.8375
2924.69136	7885.5375
2927.16644	7888.4375
2929.64	7892.5375
2932.11205	7887.4375
2934.58258	7845.6375
2937.05161	7880.4375
2939.51912	7849.6375
2941.98513	7847.8375
2944.44962	7836.0375
2946.91261	7794.0375
2949.37409	7823.0375
2951.83407	7815.4375
2954.29254	7808.1375
2956.74951	7796.8375
2959.20498	7802.8375
2961.65895	7777.8375
2964.11142	7786.8375
2966.56239	7762.7375
2969.01186	7775.2375
2971.45984	7743.7375
2973.90632	7704.6375
2976.35131	7717.2375
2978.7948	7700.4375
2981.23681	7690.3375
2983.67732	7687.9375
2986.11635	7665.4375
2988.55388	7635.6375
2990.98993	7646.0375
2993.4245	7626.1375
2995.85758	7624.6375
2998.28917	7590.9375
3000.71928	7583.7375
3003.14791	7580.3375
3005.57506	7573.7375
3008.00073	7567.9375
3010.42493	7528.5375
3012.84764	7554.7375
3015.26888	7548.3375
3017.68865	7512.0375
3020.10694	7491.9375
3022.52376	7500.2375
3024.9391	7485.0375
3027.35298	7467.7375
3029.76539	7488.1375
3032.17632	7469.3375
3034.5858	7442.8375
3036.9938	7457.7375
3039.40034	7464.5375
3041.80542	7463.8375
3044.20903	7440.8375
3046.61118	7454.2375
3049.01187	7429.7375
3051.4111	7448.8375
3053.80888	7423.2375
3056.20519	7406.6375
3058.60005	7380.3375
3060.99345	7374.2375
3063.3854	7337.1375
3065.7759	7326.4375
3068.16494	7327.6375
3070.55254	7286.7375
3072.93868	7279.2375
3075.32338	7261.2375
3077.70662	7244.8375
3080.08842	7244.1375
3082.46878	7226.2375
3084.84769	7240.1375
3087.22515	7216.7375
3089.60118	7228.7375
3091.97576	7224.4375
3094.3489	7225.3375
3096.72061	7235.4375
3099.09087	7247.4375
3101.4597	7223.2375
3103.82709	7246.3375
3106.19305	7221.1375
3108.55757	7235.2375
3110.92066	7213.1375
3113.28232	7197.9375
3115.64255	7177.2375
3118.00134	7170.6375
3120.35871	7179.2375
3122.71466	7151.7375
3125.06917	7159.2375
3127.42226	7126.4375
3129.77393	7132.8375
3132.12417	7127.1375
3134.47299	7141.8375
3136.82039	7139.3375
3139.16636	7122.1375
3141.51092	7151.1375
3143.85406	7133.7375
3146.19579	7129.5375
3148.53609	7133.3375
3150.87499	7153.6375
3153.21246	7144.4375
3155.54853	7174.2375
3157.88318	7148.6375
3160.21642	7167.5375
3162.54826	7190.7375
3164.87868	7176.8375
3167.2077	7178.5375
3169.5353	7174.3375
3171.86151	7182.5375
3174.18631	7171.9375
3176.5097	7162.2375
3178.83169	7165.2375
3181.15228	7176.7375
3183.47147	7153.8375
3185.78926	7147.5375
3188.10565	7150.5375
3190.42065	7173.1375
3192.73424	7168.3375
3195.04645	7139.6375
3197.35725	7157.4375
3199.66667	7150.3375
3201.97469	7148.9375
3204.28132	7149.5375
3206.58656	7174.4375
3208.8904	7186.0375
3211.19287	7192.2375
3213.49394	7206.5375
3215.79363	7204.8375
3218.09193	7210.2375
3220.38884	7193.2375
3222.68438	7195.2375
3224.97853	7194.2375
3227.2713	7193.6375
3229.56269	7183.2375
3231.8527	7165.9375
3234.14133	7170.5375
3236.42858	7154.6375
3238.71446	7161.2375
3240.99896	7136.8375
3243.28209	7140.7375
3245.56384	7122.6375
3247.84423	7124.6375
3250.12324	7129.1375
3252.40088	7136.8375
3254.67715	7133.0375
3256.95205	7109.3375
3259.22558	7126.5375
3261.49775	7098.0375
3263.76855	7089.3375
3266.03799	7072.3375
3268.30606	7076.3375
3270.57277	7076.7375
3272.83812	7032.9375
3275.10211	7039.3375
3277.36474	7024.4375
3279.62601	7027.8375
3281.88593	7015.1375
3284.14448	7007.2375
3286.40168	7028.6375
3288.65753	7025.8375
3290.91202	7037.7375
3293.16516	7013.0375
3295.41695	6993.9375
3297.66738	6940.7375
3299.91647	6926.9375
3302.16421	6888.1375
3304.4106	6866.1375
3306.65564	6803.1375
3308.89933	6762.4375
3311.14169	6745.2375
3313.38269	6696.5375
3315.62236	6643.5375
3317.86068	6594.3375
3320.09766	6545.8375
3322.3333	6506.9375
3324.5676	6490.5375
3326.80056	6389.9375
3329.03219	6350.5375
3331.26248	2.1375
3333.49143	0.6375
3335.71905	-0.1625
