Data from AgNPs_FTO_APTES_UA_1uM_CRN_0uM_R6G_10uM_NaF_0.1M_Addition_RamanShift__33__11-44-09-446.txt Node

Date: Thu Jan 27 11:44:09 GMT 2022
User: TCL
Spectrometer: QEP01345
Trigger mode: 4
Integration Time (sec): 7.000000E0
Scans to average: 10
Electric dark correction enabled: true
Nonlinearity correction enabled: false
Boxcar width: 0
XAxis mode: Raman Shifts
Number of Pixels in Spectrum: 1044
>>>>>Begin Spectral Data<<<<<
46.04893	0.5
50.45542	-0.2
54.85868	-0.5
59.25871	-0.9
63.6555	46.4
68.04907	47.8
72.43941	55.5
76.82654	55.6
81.21044	56.5
85.59113	54.9
89.96862	56.3
94.34289	63.3
98.71396	64.9
103.08183	62.4
107.4465	67.1
111.80798	67.4
116.16626	69
120.52136	75.1
124.87327	75.7
129.222	75.1
133.56755	80.2
137.90993	86.4
142.24913	94.7
146.58517	107.6
150.91804	122.1
155.24774	142.1
159.57429	175.6
163.89768	223.3
168.21792	290.8
172.53501	394.4
176.84895	545.1
181.15975	758.9
185.46741	1072.5
189.77193	1475
194.07331	1982.6
198.37157	2570.9
202.6667	3184.9
206.9587	3792.7
211.24758	4400.6
215.53334	4975.5
219.81599	5609.4
224.09553	6283.6
228.37195	7053.5
232.64527	7887.3
236.91549	8785.9
241.18261	9691.7
245.44663	10552.3
249.70755	11334.4
253.96539	12013.9
258.22014	12595.2
262.4718	13026.4
266.72039	13278.2
270.96589	13437.9
275.20832	13427.5
279.44768	13289.2
283.68397	13081.2
287.91719	12910.3
292.14735	12800.5
296.37445	12663.1
300.59849	12669.5
304.81948	12699.5
309.03742	12697.4
313.25231	12678.3
317.46415	12594
321.67296	12403.8
325.87872	12269.9
330.08145	12189.5
334.28114	12172.9
338.47781	12237.8
342.67145	12378.6
346.86207	12563.7
351.04966	12770.2
355.23424	12989.6
359.4158	13248.5
363.59435	13386.8
367.76989	13473.5
371.94243	13543.9
376.11196	13587.4
380.27849	13584.9
384.44203	13602.8
388.60257	13684.7
392.76012	13791.8
396.91468	13964.5
401.06626	14144.5
405.21485	14294.6
409.36047	14264.2
413.50311	14203
417.64277	14258.3
421.77947	14353.4
425.9132	14263.4
430.04396	14241.6
434.17176	14280.5
438.2966	14373.3
442.41849	14461.1
446.53742	14718
450.6534	14946.2
454.76644	15095
458.87653	15175.3
462.98368	15123.7
467.08789	15057.6
471.18916	14898.4
475.2875	14684.8
479.38291	14531.2
483.4754	14429.8
487.56496	14367.6
491.6516	14284.2
495.73531	14240.9
499.81612	14211.8
503.89401	14337.4
507.96899	14435.8
512.04106	14464.5
516.11023	14391.9
520.1765	14356.6
524.23987	14249.9
528.30034	14150.5
532.35792	14089.8
536.41261	13968.1
540.46441	13838.5
544.51333	13862.4
548.55936	13896.4
552.60252	14095.6
556.64279	14313.4
560.6802	14468.9
564.71473	14540.4
568.7464	14638.6
572.7752	14881.5
576.80114	15225.2
580.82422	15600.8
584.84444	16174.3
588.86181	17027.8
592.87633	17822.2
596.888	17926.9
600.89682	17178.2
604.9028	16685.3
608.90594	17265.3
612.90624	18245.7
616.90371	17556.1
620.89834	15486.1
624.89015	14511
628.87913	14375.7
632.86528	14500.9
636.84862	14579.9
640.82913	14360.9
644.80683	14107.5
648.78172	13922.1
652.75379	13941.9
656.72306	14095.8
660.68952	14255.5
664.65319	14232.6
668.61405	14073.6
672.57211	14019.1
676.52738	14104
680.47986	14074.7
684.42955	14015.2
688.37646	13941.1
692.32058	13983.2
696.26192	14096.8
700.20048	14276.6
704.13626	14340.9
708.06928	14375.1
711.99952	14361.2
715.927	14369.7
719.85171	14336.4
723.77365	14283.3
727.69284	14127.1
731.60928	13987.6
735.52295	13875.8
739.43388	13884.2
743.34206	13949.8
747.24749	14012.7
751.15017	14108.2
755.05012	14273.7
758.94733	14550.6
762.8418	15031.3
766.73354	15809.9
770.62254	16566.9
774.50882	16744.2
778.39237	16304.6
782.27321	15572.2
786.15132	14923.1
790.02671	14488
793.89938	14213.1
797.76935	14106.5
801.6366	14027.5
805.50115	13990.1
809.36299	13919.9
813.22213	13858.8
817.07857	13816.9
820.93231	13785.9
824.78336	13767.1
828.63172	13739.9
832.47738	13727.5
836.32036	13716.2
840.16066	13700.1
843.99827	13677.6
847.8332	13690.6
851.66546	13727.8
855.49504	13767.3
859.32195	13779.7
863.1462	13774.9
866.96777	13752.2
870.78668	13760.4
874.60293	13816.8
878.41652	13781.6
882.22745	13829
886.03573	13904.3
889.84136	13893.4
893.64433	13879.4
897.44466	13867.4
901.24235	13871.1
905.0374	13860.2
908.8298	13806.3
912.61957	13810.6
916.40671	13865.2
920.19121	13981.1
923.97308	14113.1
927.75233	14206.6
931.52895	14133.8
935.30295	13966.9
939.07433	13779.4
942.84309	13618.3
946.60924	13511.5
950.37278	13484.2
954.13371	13476.1
957.89203	13430.2
961.64774	13444
965.40086	13384.1
969.15137	13361.1
972.89929	13342
976.64461	13270.7
980.38733	13259.7
984.12747	13229.2
987.86502	13310.8
991.59999	13330
995.33237	13373.3
999.06217	13477.6
1002.78939	13675.1
1006.51404	13858.9
1010.23611	14106.3
1013.95561	14256.6
1017.67255	14266.5
1021.38692	14233.9
1025.09872	14031.8
1028.80796	13860.6
1032.51465	13762.2
1036.21877	13744.9
1039.92035	13785.4
1043.61937	13821.3
1047.31584	13862.2
1051.00976	13936.4
1054.70114	13958.1
1058.38998	14024.6
1062.07627	14096.6
1065.76003	14167.2
1069.44126	14335.8
1073.11995	14553.9
1076.79611	14814
1080.46974	14929.4
1084.14085	14985
1087.80943	15082.5
1091.47549	15185.4
1095.13903	15213.2
1098.80005	15050.1
1102.45857	14819.1
1106.11456	14572.8
1109.76805	14423.5
1113.41903	14376.2
1117.06751	14392.9
1120.71348	14457.2
1124.35696	14582.1
1127.99793	14690.3
1131.63641	14773.4
1135.2724	14765.4
1138.90589	14641.2
1142.5369	14645.7
1146.16542	14653.6
1149.79145	14721.1
1153.415	14754
1157.03607	14812.1
1160.65467	15055.8
1164.27079	15487.3
1167.88443	16010.9
1171.49561	16610.2
1175.10432	17341.9
1178.71056	18264.6
1182.31434	19171.6
1185.91565	19683.1
1189.51451	19719.8
1193.11091	19490.5
1196.70485	19057.3
1200.29634	18526.9
1203.88538	18053.5
1207.47197	17678.9
1211.05612	17462.3
1214.63782	17181.4
1218.21708	16831.6
1221.79391	16493.1
1225.36829	16295.1
1228.94024	16174.6
1232.50976	16108.1
1236.07685	16009.5
1239.6415	15875.7
1243.20374	15843.5
1246.76355	15869.5
1250.32093	15998.2
1253.8759	16182.3
1257.42845	16508
1260.97859	16894.9
1264.52631	17297.9
1268.07163	17670.3
1271.61453	18043.9
1275.15503	18423.3
1278.69312	18795.4
1282.22882	19190.4
1285.76211	19725.7
1289.29301	20255.5
1292.82151	20877.7
1296.34761	21559.6
1299.87133	22423.1
1303.39266	23327.2
1306.9116	24160
1310.42815	24774.2
1313.94233	25083.9
1317.45412	24942.4
1320.96354	24509.2
1324.47058	24097.7
1327.97525	23772.4
1331.47754	23616.6
1334.97747	23405
1338.47502	23256.1
1341.97022	23203
1345.46305	23203.6
1348.95352	23306.4
1352.44163	23509.1
1355.92738	23949.2
1359.41078	24732.1
1362.89183	25529.6
1366.37053	25532.6
1369.84688	24078.1
1373.32088	21856.8
1376.79254	20061
1380.26186	19242.8
1383.72883	18982.4
1387.19347	18854.9
1390.65578	18535.6
1394.11575	18310.4
1397.57339	18335.1
1401.0287	18554.7
1404.48168	18770.5
1407.93234	18727.3
1411.38068	18489.8
1414.82669	18130.8
1418.27039	17685.8
1421.71177	17253.8
1425.15083	16908.8
1428.58758	16795.3
1432.02203	16913.1
1435.45416	17208.2
1438.88399	17533.6
1442.31151	17661.2
1445.73673	17698.8
1449.15965	17709.9
1452.58027	17687.8
1455.9986	17669.7
1459.41463	17745.9
1462.82837	18009.2
1466.23982	18303.6
1469.64898	18569.5
1473.05586	18784.5
1476.46045	18827.2
1479.86276	18846.2
1483.26279	18789.2
1486.66054	18873.6
1490.05602	19011.5
1493.44922	19317
1496.84016	19716.2
1500.22882	20233.8
1503.61521	20830
1506.99934	21393.7
1510.38121	21857.9
1513.76081	21954.1
1517.13816	21600.9
1520.51324	21025.1
1523.88607	20504.4
1527.25665	20143.1
1530.62498	19937.8
1533.99105	19679.8
1537.35488	19277.2
1540.71647	18835.1
1544.07581	18417
1547.4329	17988.6
1550.78776	17702.6
1554.14038	17476.1
1557.49077	17424.7
1560.83892	17448.8
1564.18484	17462.2
1567.52853	17529.5
1570.86999	17656
1574.20922	17870.8
1577.54624	18033
1580.88103	18000.1
1584.2136	17973.1
1587.54395	18230.6
1590.87208	18859
1594.19801	19748
1597.52172	20569.7
1600.84321	20820
1604.16251	20099.6
1607.47959	18914.1
1610.79447	17675.8
1614.10715	16541.6
1617.41763	15625.2
1620.7259	14983.8
1624.03199	14667.9
1627.33587	14615.7
1630.63757	14858.9
1633.93707	15485.8
1637.23439	16640
1640.52951	18361.7
1643.82246	20614.6
1647.11321	22490.8
1650.40179	23020.7
1653.68819	21651.9
1656.97241	19152.7
1660.25446	16766.9
1663.53433	15025
1666.81203	13969.7
1670.08756	13361.3
1673.36092	12972.8
1676.63211	12732.6
1679.90115	12534.4
1683.16801	12399.3
1686.43272	12292.5
1689.69527	12196
1692.95567	12106.3
1696.2139	12022.4
1699.46999	11966.9
1702.72392	11911
1705.97571	11941.8
1709.22535	11929.6
1712.47284	11968
1715.71819	11977.5
1718.96139	11977.6
1722.20246	11933.9
1725.44139	11893.2
1728.67818	11830
1731.91284	11779.8
1735.14537	11717.5
1738.37576	11683.2
1741.60403	11638
1744.83017	11593.3
1748.05418	11549.3
1751.27607	11546.9
1754.49584	11492.8
1757.71349	11470
1760.92903	11436.9
1764.14244	11436.4
1767.35375	11409.1
1770.56294	11412.5
1773.77002	11411.5
1776.97499	11408.2
1780.17785	11380.8
1783.37861	11397.4
1786.57727	11391.3
1789.77382	11385.1
1792.96828	11340.6
1796.16064	11338.2
1799.3509	11321.8
1802.53907	11305.3
1805.72514	11282.2
1808.90913	11224.2
1812.09102	11212.7
1815.27083	11188.2
1818.44856	11179.3
1821.6242	11179.5
1824.79776	11176.6
1827.96924	11153.3
1831.13864	11155.2
1834.30597	11133.2
1837.47122	11152.9
1840.6344	11140.6
1843.7955	11122.4
1846.95454	11155.6
1850.11151	11157.8
1853.26642	11141.7
1856.41926	11125.6
1859.57004	11111.7
1862.71876	11084.6
1865.86542	11081.4
1869.01003	11071
1872.15258	11038.3
1875.29308	11029.5
1878.43152	10998.1
1881.56792	10999.9
1884.70227	10976
1887.83457	10962.1
1890.96482	10947.6
1894.09304	10920.4
1897.21921	10930.3
1900.34335	10919.1
1903.46544	10878.1
1906.58551	10878.9
1909.70353	10840.1
1912.81953	10829.7
1915.93349	10807.3
1919.04543	10779
1922.15534	10764.3
1925.26322	10753.1
1928.36908	10704
1931.47292	10692.8
1934.57473	10662.6
1937.67453	10652.6
1940.77232	10606.5
1943.86808	10574.2
1946.96184	10536
1950.05358	10524
1953.14331	10494.6
1956.23103	10445.8
1959.31675	10430.5
1962.40046	10403.9
1965.48217	10354.3
1968.56188	10323.3
1971.63959	10299.2
1974.7153	10271.1
1977.78901	10244.5
1980.86073	10199.9
1983.93046	10169.9
1986.99819	10168.5
1990.06394	10096.5
1993.1277	10097.1
1996.18947	10046.4
1999.24925	10043.4
2002.30706	9988.4
2005.36288	9956.4
2008.41672	9919.2
2011.46859	9905.5
2014.51848	9851.9
2017.56639	9830.6
2020.61233	9821.2
2023.6563	9783.3
2026.6983	9774.2
2029.73833	9760.1
2032.7764	9711.6
2035.8125	9703.7
2038.84664	9674
2041.87881	9660.9
2044.90903	9620.5
2047.93729	9599.7
2050.96359	9598.2
2053.98794	9576.1
2057.01034	9574
2060.03078	9564.6
2063.04927	9560.2
2066.06582	9585.6
2069.08042	9582.6
2072.09307	9557.2
2075.10378	9569.4
2078.11255	9564.3
2081.11938	9565.8
2084.12426	9550.7
2087.12722	9574.5
2090.12824	9539.3
2093.12732	9568.3
2096.12447	9542.9
2099.11969	9556.6
2102.11299	9541.4
2105.10435	9563.3
2108.09379	9558.6
2111.08131	9545.9
2114.0669	9536.7
2117.05057	9576
2120.03233	9560.6
2123.01216	9548.7
2125.99008	9559.1
2128.96609	9568.6
2131.94018	9548.9
2134.91236	9557.9
2137.88263	9566.9
2140.851	9579.6
2143.81746	9553.3
2146.78201	9565.4
2149.74466	9572.7
2152.7054	9578.7
2155.66425	9545.3
2158.6212	9557.4
2161.57625	9555.9
2164.52941	9538.2
2167.48067	9525.9
2170.43004	9520.7
2173.37752	9516.4
2176.32311	9529.3
2179.26681	9500.9
2182.20863	9529.5
2185.14856	9515.8
2188.08661	9523.1
2191.02278	9502.3
2193.95707	9501.5
2196.88948	9481.7
2199.82001	9487.2
2202.74867	9463.8
2205.67545	9458.3
2208.60037	9438.9
2211.52341	9421.7
2214.44458	9418.2
2217.36388	9388.6
2220.28132	9382.8
2223.1969	9318.3
2226.11061	9339.3
2229.02246	9314.5
2231.93245	9300.2
2234.84058	9299.6
2237.74686	9290.8
2240.65128	9275.5
2243.55385	9260.6
2246.45456	9260.4
2249.35343	9243.6
2252.25044	9207
2255.14561	9197.5
2258.03893	9187.5
2260.93041	9159.1
2263.82004	9113.9
2266.70783	9115.9
2269.59378	9085.8
2272.4779	9084.7
2275.36017	9066.8
2278.24061	9051.7
2281.11922	9032.8
2283.996	9006.3
2286.87094	8984.7
2289.74405	8972.9
2292.61534	8941.4
2295.4848	8949
2298.35243	8948.5
2301.21824	8923.9
2304.08223	8926.2
2306.94439	8914.4
2309.80474	8900.4
2312.66327	8881.8
2315.51999	8897.4
2318.37489	8883.9
2321.22797	8863.7
2324.07925	8840.4
2326.92871	8853.6
2329.77637	8849.1
2332.62222	8802.9
2335.46626	8778.4
2338.3085	8768.1
2341.14893	8787.1
2343.98756	8744.8
2346.8244	8770.8
2349.65943	8742.1
2352.49267	8735.9
2355.32411	8751.9
2358.15376	8722.5
2360.98161	8740.3
2363.80768	8728.5
2366.63195	8739.1
2369.45444	8732.3
2372.27514	8709.7
2375.09405	8698.2
2377.91118	8690.8
2380.72652	8653.2
2383.54009	8637.4
2386.35187	8631.8
2389.16188	8606.1
2391.97011	8581.1
2394.77657	8541.5
2397.58125	8537.6
2400.38416	8532.6
2403.18529	8494.8
2405.98466	8496.8
2408.78226	8469.4
2411.57809	8475.7
2414.37216	8449.4
2417.16446	8466.3
2419.955	8436.3
2422.74378	8460.9
2425.5308	8445.9
2428.31606	8451.6
2431.09956	8419.5
2433.88131	8418
2436.6613	8402.9
2439.43954	8416.9
2442.21603	8400.2
2444.99077	8380.4
2447.76377	8397.8
2450.53501	8371.3
2453.30451	8359.9
2456.07226	8347.8
2458.83827	8334
2461.60254	8340.5
2464.36507	8342.2
2467.12586	8320.9
2469.88492	8324.3
2472.64224	8350.4
2475.39782	8303.1
2478.15167	8295.2
2480.90379	8283.5
2483.65417	8306.3
2486.40283	8291.5
2489.14976	8279
2491.89497	8297
2494.63845	8272.2
2497.3802	8267.2
2500.12024	8262.3
2502.85855	8233.9
2505.59514	8238.5
2508.33002	8228.4
2511.06318	8204.2
2513.79462	8186.2
2516.52435	8193.1
2519.25237	8188.6
2521.97867	8163.9
2524.70327	8178.8
2527.42616	8151.1
2530.14734	8148.9
2532.86681	8135.3
2535.58458	8126.1
2538.30065	8109.8
2541.01501	8130.2
2543.72768	8105.7
2546.43864	8099.3
2549.14791	8064.5
2551.85548	8065
2554.56136	8053.2
2557.26554	8047.9
2559.96803	8015.4
2562.66883	8027
2565.36794	7996.3
2568.06536	7980.2
2570.7611	7976.9
2573.45514	7957.9
2576.14751	7940.5
2578.83819	7924.1
2581.52719	7925.8
2584.21451	7912.1
2586.90015	7916.2
2589.58411	7887.8
2592.2664	7861.2
2594.94701	7858
2597.62594	7860.4
2600.30321	7851.8
2602.9788	7823.9
2605.65273	7798.9
2608.32498	7800
2610.99557	7794.1
2613.66449	7801.2
2616.33175	7773.4
2618.99734	7780.8
2621.66128	7736.6
2624.32355	7723.1
2626.98416	7724.3
2629.64311	7706.5
2632.30041	7724.8
2634.95605	7707.6
2637.61004	7680.6
2640.26238	7671.9
2642.91306	7686.8
2645.56209	7678.6
2648.20948	7658.9
2650.85521	7672.9
2653.4993	7666.8
2656.14175	7670.3
2658.78255	7669.2
2661.42171	7669.4
2664.05923	7684.7
2666.6951	7663.9
2669.32934	7691.8
2671.96194	7650.9
2674.59291	7686.8
2677.22224	7644.6
2679.84993	7679.3
2682.476	7660.3
2685.10043	7666.1
2687.72324	7652
2690.34441	7635.5
2692.96396	7635.2
2695.58188	7636.2
2698.19818	7647.6
2700.81285	7628.4
2703.4259	7626.3
2706.03733	7596.9
2708.64714	7592.4
2711.25533	7622.6
2713.86191	7624.1
2716.46687	7634.6
2719.07021	7612.6
2721.67194	7650.6
2724.27206	7650.1
2726.87057	7660.8
2729.46747	7636
2732.06276	7639.8
2734.65644	7614.3
2737.24852	7633.5
2739.83899	7624.6
2742.42786	7597.9
2745.01513	7591.8
2747.60079	7592.4
2750.18486	7576.1
2752.76733	7578.4
2755.3482	7571.3
2757.92747	7568.6
2760.50515	7557.5
2763.08123	7538.3
2765.65573	7527.1
2768.22863	7521.5
2770.79994	7520.2
2773.36967	7520.7
2775.9378	7497.1
2778.50435	7507.5
2781.06932	7480.2
2783.6327	7477.9
2786.1945	7475.6
2788.75471	7483.6
2791.31335	7446.4
2793.87041	7438.6
2796.42589	7429.4
2798.97979	7426.6
2801.53212	7397.7
2804.08288	7406.1
2806.63206	7364.1
2809.17967	7341
2811.72571	7317.4
2814.27018	7303.4
2816.81308	7297.8
2819.35442	7271.5
2821.89419	7268.1
2824.43239	7275.4
2826.96904	7258.2
2829.50412	7260.1
2832.03763	7237.4
2834.56959	7250.9
2837.1	7262.6
2839.62884	7232.8
2842.15613	7213.2
2844.68186	7239.6
2847.20604	7237.1
2849.72867	7240.1
2852.24974	7228
2854.76927	7205.5
2857.28724	7198.3
2859.80367	7186.3
2862.31855	7175.5
2864.83189	7145.4
2867.34368	7178.1
2869.85393	7166.3
2872.36264	7166.6
2874.8698	7155
2877.37543	7126.5
2879.87952	7136.2
2882.38207	7135.5
2884.88308	7123.6
2887.38256	7152.1
2889.88051	7123
2892.37692	7147.6
2894.8718	7129.8
2897.36515	7136.2
2899.85698	7141.1
2902.34727	7163.9
2904.83604	7162
2907.32328	7163
2909.809	7151.6
2912.29319	7152.6
2914.77587	7143.1
2917.25702	7152.7
2919.73665	7132.2
2922.21476	7146.8
2924.69136	7119.5
2927.16644	7117.1
2929.64	7102.4
2932.11205	7106.1
2934.58258	7089.8
2937.05161	7098.8
2939.51912	7094.5
2941.98513	7101.7
2944.44962	7061
2946.91261	7050.1
2949.37409	7054
2951.83407	7037.7
2954.29254	6997.4
2956.74951	7013.6
2959.20498	7030
2961.65895	6995.6
2964.11142	6986.2
2966.56239	6977.4
2969.01186	6985.7
2971.45984	6986
2973.90632	6949
2976.35131	6931.9
2978.7948	6921.9
2981.23681	6902.9
2983.67732	6897.7
2986.11635	6879.2
2988.55388	6842.3
2990.98993	6834.2
2993.4245	6794.8
2995.85758	6789.6
2998.28917	6765.7
3000.71928	6767.4
3003.14791	6740.3
3005.57506	6717
3008.00073	6705.1
3010.42493	6709.9
3012.84764	6709.7
3015.26888	6703.1
3017.68865	6691.2
3020.10694	6673.5
3022.52376	6672
3024.9391	6658.3
3027.35298	6643.3
3029.76539	6646.2
3032.17632	6609.6
3034.5858	6618.4
3036.9938	6604.6
3039.40034	6594.7
3041.80542	6601.3
3044.20903	6583.1
3046.61118	6589.1
3049.01187	6562.7
3051.4111	6540.9
3053.80888	6530.9
3056.20519	6524.6
3058.60005	6512.5
3060.99345	6497.4
3063.3854	6469.4
3065.7759	6467.3
3068.16494	6447.1
3070.55254	6427.4
3072.93868	6421.7
3075.32338	6394.7
3077.70662	6384.9
3080.08842	6389.5
3082.46878	6410.7
3084.84769	6378.6
3087.22515	6370.6
3089.60118	6358.1
3091.97576	6351
3094.3489	6368
3096.72061	6356
3099.09087	6349.3
3101.4597	6347.9
3103.82709	6353.9
3106.19305	6318.6
3108.55757	6341.1
3110.92066	6329.1
3113.28232	6298
3115.64255	6299.4
3118.00134	6286.7
3120.35871	6274.5
3122.71466	6262
3125.06917	6259
3127.42226	6242.8
3129.77393	6247.7
3132.12417	6243.6
3134.47299	6220.4
3136.82039	6222.5
3139.16636	6219.4
3141.51092	6231.7
3143.85406	6215.3
3146.19579	6226.5
3148.53609	6234.4
3150.87499	6241.5
3153.21246	6238.6
3155.54853	6259.9
3157.88318	6240.6
3160.21642	6250.5
3162.54826	6235.4
3164.87868	6224.8
3167.2077	6230.4
3169.5353	6229.5
3171.86151	6226.6
3174.18631	6235.1
3176.5097	6238.6
3178.83169	6204.5
3181.15228	6208.2
3183.47147	6203.5
3185.78926	6168.7
3188.10565	6190.6
3190.42065	6184.1
3192.73424	6171.2
3195.04645	6171.9
3197.35725	6175.4
3199.66667	6171.9
3201.97469	6165.3
3204.28132	6150.1
3206.58656	6164.1
3208.8904	6163.5
3211.19287	6173.6
3213.49394	6177.7
3215.79363	6159
3218.09193	6195.6
3220.38884	6148.3
3222.68438	6165.5
3224.97853	6146.7
3227.2713	6138.8
3229.56269	6130.5
3231.8527	6137.6
3234.14133	6130.2
3236.42858	6109.2
3238.71446	6111.4
3240.99896	6074.8
3243.28209	6111.9
3245.56384	6072.3
3247.84423	6092.1
3250.12324	6047.8
3252.40088	6049.1
3254.67715	6058.4
3256.95205	6047.5
3259.22558	6049.2
3261.49775	6043.3
3263.76855	6008.5
3266.03799	5992.7
3268.30606	6015.1
3270.57277	6007.2
3272.83812	6005.5
3275.10211	5981.9
3277.36474	5967.2
3279.62601	5933.8
3281.88593	5920.7
3284.14448	5938.3
3286.40168	5940.1
3288.65753	5943
3290.91202	5936.3
3293.16516	5909.2
3295.41695	5904
3297.66738	5861.6
3299.91647	5836.5
3302.16421	5790.8
3304.4106	5766.8
3306.65564	5747.6
3308.89933	5699.3
3311.14169	5653.1
3313.38269	5606.2
3315.62236	5570.1
3317.86068	5529.1
3320.09766	5483.9
3322.3333	5439.2
3324.5676	5439.4
3326.80056	5340.4
3329.03219	5334.6
3331.26248	2.5
3333.49143	0.1
3335.71905	-0.7
