Data from AgNPs_FTO_APTES_UA_1uM_CRN_1000uM_R6G_10uM_NaF_0.1M_Addition_RamanShift__11__18-46-29-928.txt Node

Date: Thu Jan 27 18:46:29 GMT 2022
User: TCL
Spectrometer: QEP01345
Trigger mode: 4
Integration Time (sec): 7.000000E0
Scans to average: 10
Electric dark correction enabled: true
Nonlinearity correction enabled: false
Boxcar width: 0
XAxis mode: Raman Shifts
Number of Pixels in Spectrum: 1044
>>>>>Begin Spectral Data<<<<<
46.04893	1.4875
50.45542	1.6875
54.85868	-0.7125
59.25871	-1.3125
63.6555	40.0875
68.04907	41.2875
72.43941	43.7875
76.82654	47.0875
81.21044	46.8875
85.59113	49.2875
89.96862	52.1875
94.34289	55.4875
98.71396	55.3875
103.08183	54.4875
107.4465	58.7875
111.80798	62.8875
116.16626	63.5875
120.52136	66.4875
124.87327	66.6875
129.222	64.9875
133.56755	69.7875
137.90993	73.4875
142.24913	79.8875
146.58517	85.4875
150.91804	101.3875
155.24774	114.4875
159.57429	137.6875
163.89768	172.5875
168.21792	229.2875
172.53501	308.4875
176.84895	424.1875
181.15975	595.0875
185.46741	827.4875
189.77193	1142.4875
194.07331	1541.9875
198.37157	1999.7875
202.6667	2477.4875
206.9587	2972.4875
211.24758	3440.8875
215.53334	3908.6875
219.81599	4397.7875
224.09553	4948.2875
228.37195	5525.9875
232.64527	6130.0875
236.91549	6794.5875
241.18261	7481.1875
245.44663	8140.4875
249.70755	8749.0875
253.96539	9271.7875
258.22014	9688.2875
262.4718	10056.7875
266.72039	10276.2875
270.96589	10381.2875
275.20832	10378.4875
279.44768	10261.2875
283.68397	10154.0875
287.91719	10006.7875
292.14735	9891.5875
296.37445	9822.4875
300.59849	9802.2875
304.81948	9784.0875
309.03742	9779.8875
313.25231	9691.0875
317.46415	9545.4875
321.67296	9366.3875
325.87872	9209.1875
330.08145	9134.9875
334.28114	9155.5875
338.47781	9218.9875
342.67145	9309.1875
346.86207	9415.6875
351.04966	9601.9875
355.23424	9791.3875
359.4158	9909.6875
363.59435	10033.7875
367.76989	10138.7875
371.94243	10207.5875
376.11196	10287.6875
380.27849	10328.2875
384.44203	10342.9875
388.60257	10390.0875
392.76012	10447.6875
396.91468	10559.3875
401.06626	10683.4875
405.21485	10777.7875
409.36047	10802.6875
413.50311	10654.5875
417.64277	10563.9875
421.77947	10536.9875
425.9132	10583.5875
430.04396	10618.4875
434.17176	10672.6875
438.2966	10744.6875
442.41849	10799.3875
446.53742	10913.2875
450.6534	11068.5875
454.76644	11154.7875
458.87653	11213.8875
462.98368	11228.9875
467.08789	11166.7875
471.18916	11083.1875
475.2875	10984.5875
479.38291	10901.3875
483.4754	10831.4875
487.56496	10745.4875
491.6516	10723.2875
495.73531	10694.7875
499.81612	10686.6875
503.89401	10764.6875
507.96899	10811.4875
512.04106	10865.5875
516.11023	10851.4875
520.1765	10832.1875
524.23987	10773.3875
528.30034	10699.2875
532.35792	10628.4875
536.41261	10539.3875
540.46441	10476.9875
544.51333	10463.0875
548.55936	10492.9875
552.60252	10618.6875
556.64279	10738.4875
560.6802	10844.1875
564.71473	10869.4875
568.7464	10947.6875
572.7752	11081.1875
576.80114	11223.7875
580.82422	11441.4875
584.84444	11694.4875
588.86181	12024.2875
592.87633	12290.4875
596.888	12300.8875
600.89682	12066.4875
604.9028	11986.3875
608.90594	12554.1875
612.90624	13425.2875
616.90371	13075.1875
620.89834	11518.1875
624.89015	10744.9875
628.87913	10620.7875
632.86528	10716.8875
636.84862	10781.6875
640.82913	10736.6875
644.80683	10596.9875
648.78172	10497.4875
652.75379	10494.2875
656.72306	10570.9875
660.68952	10707.6875
664.65319	10652.9875
668.61405	10578.9875
672.57211	10596.0875
676.52738	10668.9875
680.47986	10747.7875
684.42955	10740.7875
688.37646	10676.7875
692.32058	10616.4875
696.26192	10592.4875
700.20048	10640.2875
704.13626	10666.0875
708.06928	10660.1875
711.99952	10634.5875
715.927	10625.9875
719.85171	10589.6875
723.77365	10568.2875
727.69284	10512.6875
731.60928	10462.0875
735.52295	10415.5875
739.43388	10406.0875
743.34206	10434.2875
747.24749	10491.7875
751.15017	10513.5875
755.05012	10600.2875
758.94733	10774.1875
762.8418	11062.1875
766.73354	11608.6875
770.62254	12247.0875
774.50882	12536.1875
778.39237	12244.8875
782.27321	11652.5875
786.15132	11028.8875
790.02671	10675.5875
793.89938	10466.5875
797.76935	10393.3875
801.6366	10348.0875
805.50115	10278.3875
809.36299	10220.4875
813.22213	10193.0875
817.07857	10198.7875
820.93231	10165.2875
824.78336	10151.0875
828.63172	10139.2875
832.47738	10119.0875
836.32036	10115.3875
840.16066	10101.0875
843.99827	10091.3875
847.8332	10106.9875
851.66546	10072.9875
855.49504	10110.3875
859.32195	10101.2875
863.1462	10078.0875
866.96777	10092.6875
870.78668	10107.1875
874.60293	10126.0875
878.41652	10120.3875
882.22745	10137.1875
886.03573	10141.8875
889.84136	10156.1875
893.64433	10153.2875
897.44466	10131.3875
901.24235	10103.4875
905.0374	10065.6875
908.8298	10032.6875
912.61957	10024.6875
916.40671	10052.7875
920.19121	10125.7875
923.97308	10168.6875
927.75233	10208.5875
931.52895	10199.7875
935.30295	10120.9875
939.07433	9968.7875
942.84309	9846.8875
946.60924	9770.1875
950.37278	9703.0875
954.13371	9697.1875
957.89203	9646.8875
961.64774	9638.1875
965.40086	9609.5875
969.15137	9597.3875
972.89929	9570.5875
976.64461	9527.5875
980.38733	9532.9875
984.12747	9517.8875
987.86502	9497.9875
991.59999	9537.9875
995.33237	9574.2875
999.06217	9595.2875
1002.78939	9693.1875
1006.51404	9749.4875
1010.23611	9845.2875
1013.95561	9945.2875
1017.67255	9973.7875
1021.38692	9970.9875
1025.09872	9898.0875
1028.80796	9797.4875
1032.51465	9741.4875
1036.21877	9735.6875
1039.92035	9767.2875
1043.61937	9820.0875
1047.31584	9843.4875
1051.00976	9903.7875
1054.70114	9922.6875
1058.38998	9941.9875
1062.07627	10006.6875
1065.76003	10072.7875
1069.44126	10169.3875
1073.11995	10271.7875
1076.79611	10394.4875
1080.46974	10406.2875
1084.14085	10383.4875
1087.80943	10372.2875
1091.47549	10402.3875
1095.13903	10434.0875
1098.80005	10346.4875
1102.45857	10232.9875
1106.11456	10094.5875
1109.76805	10006.4875
1113.41903	9988.9875
1117.06751	10013.4875
1120.71348	10132.8875
1124.35696	10270.6875
1127.99793	10421.9875
1131.63641	10546.8875
1135.2724	10394.8875
1138.90589	10243.6875
1142.5369	10167.8875
1146.16542	10164.4875
1149.79145	10140.6875
1153.415	10133.0875
1157.03607	10176.6875
1160.65467	10313.5875
1164.27079	10534.1875
1167.88443	10869.3875
1171.49561	11232.5875
1175.10432	11731.0875
1178.71056	12334.0875
1182.31434	12947.6875
1185.91565	13305.2875
1189.51451	13337.6875
1193.11091	13083.9875
1196.70485	12748.7875
1200.29634	12364.6875
1203.88538	12007.1875
1207.47197	11721.5875
1211.05612	11529.7875
1214.63782	11321.6875
1218.21708	11123.0875
1221.79391	10941.2875
1225.36829	10846.5875
1228.94024	10781.6875
1232.50976	10733.0875
1236.07685	10708.9875
1239.6415	10663.1875
1243.20374	10622.8875
1246.76355	10633.1875
1250.32093	10714.8875
1253.8759	10802.0875
1257.42845	10924.0875
1260.97859	11114.0875
1264.52631	11276.5875
1268.07163	11458.6875
1271.61453	11656.1875
1275.15503	11840.9875
1278.69312	12003.6875
1282.22882	12189.7875
1285.76211	12393.3875
1289.29301	12654.3875
1292.82151	13022.6875
1296.34761	13408.9875
1299.87133	13887.2875
1303.39266	14483.3875
1306.9116	15069.7875
1310.42815	15607.2875
1313.94233	15878.3875
1317.45412	15779.2875
1320.96354	15385.0875
1324.47058	15004.0875
1327.97525	14652.3875
1331.47754	14471.2875
1334.97747	14425.7875
1338.47502	14395.6875
1341.97022	14450.8875
1345.46305	14523.0875
1348.95352	14761.7875
1352.44163	15028.5875
1355.92738	15497.2875
1359.41078	16145.1875
1362.89183	16709.4875
1366.37053	16623.6875
1369.84688	15539.7875
1373.32088	14051.7875
1376.79254	12945.3875
1380.26186	12377.0875
1383.72883	12118.0875
1387.19347	11938.1875
1390.65578	11734.0875
1394.11575	11600.8875
1397.57339	11591.7875
1401.0287	11629.7875
1404.48168	11728.6875
1407.93234	11729.6875
1411.38068	11624.8875
1414.82669	11494.0875
1418.27039	11262.9875
1421.71177	11012.4875
1425.15083	10818.0875
1428.58758	10687.5875
1432.02203	10674.7875
1435.45416	10738.5875
1438.88399	10846.6875
1442.31151	10985.3875
1445.73673	10970.0875
1449.15965	11013.0875
1452.58027	11055.1875
1455.9986	11077.1875
1459.41463	11112.2875
1462.82837	11222.2875
1466.23982	11422.2875
1469.64898	11562.4875
1473.05586	11674.2875
1476.46045	11759.9875
1479.86276	11736.2875
1483.26279	11802.8875
1486.66054	11859.6875
1490.05602	11996.6875
1493.44922	12225.6875
1496.84016	12574.0875
1500.22882	13036.4875
1503.61521	13690.7875
1506.99934	14365.2875
1510.38121	14833.9875
1513.76081	14866.6875
1517.13816	14405.4875
1520.51324	13722.3875
1523.88607	13084.7875
1527.25665	12668.5875
1530.62498	12448.6875
1533.99105	12293.0875
1537.35488	12133.7875
1540.71647	11948.9875
1544.07581	11800.7875
1547.4329	11610.2875
1550.78776	11430.0875
1554.14038	11287.5875
1557.49077	11198.8875
1560.83892	11179.7875
1564.18484	11218.3875
1567.52853	11279.5875
1570.86999	11428.9875
1574.20922	11581.5875
1577.54624	11663.4875
1580.88103	11598.6875
1584.2136	11402.4875
1587.54395	11313.2875
1590.87208	11449.3875
1594.19801	11799.0875
1597.52172	12282.9875
1600.84321	12593.1875
1604.16251	12459.8875
1607.47959	11983.3875
1610.79447	11376.6875
1614.10715	10760.4875
1617.41763	10223.3875
1620.7259	9787.0875
1624.03199	9499.0875
1627.33587	9410.1875
1630.63757	9466.1875
1633.93707	9656.8875
1637.23439	10136.2875
1640.52951	10858.8875
1643.82246	11911.8875
1647.11321	13010.8875
1650.40179	13656.4875
1653.68819	13311.5875
1656.97241	12201.0875
1660.25446	10870.9875
1663.53433	9888.2875
1666.81203	9233.1875
1670.08756	8847.2875
1673.36092	8590.3875
1676.63211	8444.5875
1679.90115	8321.0875
1683.16801	8252.3875
1686.43272	8130.9875
1689.69527	8063.9875
1692.95567	8044.2875
1696.2139	7952.6875
1699.46999	7898.3875
1702.72392	7862.9875
1705.97571	7859.1875
1709.22535	7893.8875
1712.47284	7924.5875
1715.71819	7902.9875
1718.96139	7920.3875
1722.20246	7885.8875
1725.44139	7861.1875
1728.67818	7836.0875
1731.91284	7772.0875
1735.14537	7740.3875
1738.37576	7717.0875
1741.60403	7704.5875
1744.83017	7685.9875
1748.05418	7665.1875
1751.27607	7655.4875
1754.49584	7649.0875
1757.71349	7668.6875
1760.92903	7667.0875
1764.14244	7641.1875
1767.35375	7632.4875
1770.56294	7581.1875
1773.77002	7549.8875
1776.97499	7537.3875
1780.17785	7527.6875
1783.37861	7519.4875
1786.57727	7502.7875
1789.77382	7481.0875
1792.96828	7452.0875
1796.16064	7429.1875
1799.3509	7382.4875
1802.53907	7378.2875
1805.72514	7351.8875
1808.90913	7319.5875
1812.09102	7311.9875
1815.27083	7292.3875
1818.44856	7267.0875
1821.6242	7263.7875
1824.79776	7230.7875
1827.96924	7196.1875
1831.13864	7204.7875
1834.30597	7213.5875
1837.47122	7207.1875
1840.6344	7187.0875
1843.7955	7176.1875
1846.95454	7186.9875
1850.11151	7167.3875
1853.26642	7160.0875
1856.41926	7162.3875
1859.57004	7141.7875
1862.71876	7146.0875
1865.86542	7115.5875
1869.01003	7122.2875
1872.15258	7100.9875
1875.29308	7091.3875
1878.43152	7093.9875
1881.56792	7070.5875
1884.70227	7043.1875
1887.83457	7056.3875
1890.96482	7021.3875
1894.09304	7018.9875
1897.21921	7005.1875
1900.34335	6985.9875
1903.46544	6974.0875
1906.58551	6961.9875
1909.70353	6952.2875
1912.81953	6958.1875
1915.93349	7017.6875
1919.04543	6936.1875
1922.15534	6900.4875
1925.26322	6907.3875
1928.36908	6878.3875
1931.47292	6849.4875
1934.57473	6816.9875
1937.67453	6824.6875
1940.77232	6798.7875
1943.86808	6798.0875
1946.96184	6735.5875
1950.05358	6721.6875
1953.14331	6716.6875
1956.23103	6687.5875
1959.31675	6693.8875
1962.40046	6659.1875
1965.48217	6638.0875
1968.56188	6598.3875
1971.63959	6587.8875
1974.7153	6554.3875
1977.78901	6543.0875
1980.86073	6536.3875
1983.93046	6492.6875
1986.99819	6488.2875
1990.06394	6452.0875
1993.1277	6409.7875
1996.18947	6418.9875
1999.24925	6396.3875
2002.30706	6387.6875
2005.36288	6365.0875
2008.41672	6351.4875
2011.46859	6316.7875
2014.51848	6297.9875
2017.56639	6289.1875
2020.61233	6272.0875
2023.6563	6247.5875
2026.6983	6232.5875
2029.73833	6206.3875
2032.7764	6196.0875
2035.8125	6176.3875
2038.84664	6145.6875
2041.87881	6129.4875
2044.90903	6113.3875
2047.93729	6100.1875
2050.96359	6084.9875
2053.98794	6080.8875
2057.01034	6067.0875
2060.03078	6074.3875
2063.04927	6069.6875
2066.06582	6062.2875
2069.08042	6050.6875
2072.09307	6053.0875
2075.10378	6032.4875
2078.11255	6049.8875
2081.11938	6030.9875
2084.12426	6017.7875
2087.12722	6004.7875
2090.12824	6018.5875
2093.12732	6028.1875
2096.12447	6012.2875
2099.11969	6014.5875
2102.11299	5996.8875
2105.10435	6008.0875
2108.09379	6016.6875
2111.08131	6003.4875
2114.0669	5999.6875
2117.05057	6006.1875
2120.03233	6019.7875
2123.01216	6013.9875
2125.99008	6021.7875
2128.96609	6010.4875
2131.94018	6030.0875
2134.91236	6046.2875
2137.88263	6035.2875
2140.851	6023.6875
2143.81746	6036.7875
2146.78201	6023.8875
2149.74466	6007.7875
2152.7054	6008.9875
2155.66425	6010.6875
2158.6212	5990.2875
2161.57625	5996.4875
2164.52941	5989.2875
2167.48067	5981.1875
2170.43004	5988.0875
2173.37752	5967.0875
2176.32311	5990.9875
2179.26681	5962.8875
2182.20863	5961.4875
2185.14856	5971.4875
2188.08661	5966.5875
2191.02278	5956.2875
2193.95707	5955.4875
2196.88948	5932.2875
2199.82001	5931.7875
2202.74867	5919.1875
2205.67545	5913.6875
2208.60037	5904.0875
2211.52341	5896.4875
2214.44458	5870.5875
2217.36388	5862.3875
2220.28132	5855.8875
2223.1969	5838.1875
2226.11061	5845.5875
2229.02246	5824.1875
2231.93245	5809.5875
2234.84058	5781.8875
2237.74686	5773.7875
2240.65128	5770.7875
2243.55385	5764.9875
2246.45456	5739.7875
2249.35343	5739.4875
2252.25044	5731.0875
2255.14561	5715.2875
2258.03893	5698.4875
2260.93041	5690.1875
2263.82004	5669.3875
2266.70783	5659.0875
2269.59378	5658.7875
2272.4779	5625.2875
2275.36017	5609.6875
2278.24061	5609.5875
2281.11922	5606.6875
2283.996	5581.3875
2286.87094	5571.0875
2289.74405	5543.0875
2292.61534	5546.3875
2295.4848	5528.0875
2298.35243	5517.9875
2301.21824	5524.0875
2304.08223	5533.2875
2306.94439	5514.4875
2309.80474	5517.7875
2312.66327	5499.6875
2315.51999	5477.5875
2318.37489	5469.3875
2321.22797	5451.6875
2324.07925	5474.1875
2326.92871	5453.4875
2329.77637	5446.3875
2332.62222	5434.5875
2335.46626	5413.0875
2338.3085	5419.3875
2341.14893	5404.4875
2343.98756	5388.4875
2346.8244	5385.2875
2349.65943	5374.0875
2352.49267	5368.0875
2355.32411	5370.0875
2358.15376	5352.5875
2360.98161	5353.4875
2363.80768	5355.2875
2366.63195	5347.0875
2369.45444	5339.6875
2372.27514	5328.8875
2375.09405	5325.6875
2377.91118	5321.5875
2380.72652	5301.9875
2383.54009	5298.5875
2386.35187	5277.3875
2389.16188	5264.0875
2391.97011	5250.1875
2394.77657	5220.7875
2397.58125	5224.3875
2400.38416	5217.0875
2403.18529	5204.6875
2405.98466	5192.2875
2408.78226	5175.3875
2411.57809	5182.4875
2414.37216	5164.2875
2417.16446	5159.6875
2419.955	5152.2875
2422.74378	5165.5875
2425.5308	5161.6875
2428.31606	5138.1875
2431.09956	5139.7875
2433.88131	5113.7875
2436.6613	5130.8875
2439.43954	5125.2875
2442.21603	5097.8875
2444.99077	5121.7875
2447.76377	5106.6875
2450.53501	5078.5875
2453.30451	5106.7875
2456.07226	5067.8875
2458.83827	5065.6875
2461.60254	5071.8875
2464.36507	5066.1875
2467.12586	5059.3875
2469.88492	5045.9875
2472.64224	5035.2875
2475.39782	5029.0875
2478.15167	5021.3875
2480.90379	5018.1875
2483.65417	5004.8875
2486.40283	5014.5875
2489.14976	5006.9875
2491.89497	4996.5875
2494.63845	4989.6875
2497.3802	4973.1875
2500.12024	4972.1875
2502.85855	4984.7875
2505.59514	4988.0875
2508.33002	4965.5875
2511.06318	4961.1875
2513.79462	4952.1875
2516.52435	4936.9875
2519.25237	4943.6875
2521.97867	4919.8875
2524.70327	4918.6875
2527.42616	4900.0875
2530.14734	4906.6875
2532.86681	4884.4875
2535.58458	4874.0875
2538.30065	4859.7875
2541.01501	4861.8875
2543.72768	4831.0875
2546.43864	4855.0875
2549.14791	4833.8875
2551.85548	4823.3875
2554.56136	4814.3875
2557.26554	4811.6875
2559.96803	4794.7875
2562.66883	4789.5875
2565.36794	4802.3875
2568.06536	4770.0875
2570.7611	4768.1875
2573.45514	4763.2875
2576.14751	4738.3875
2578.83819	4714.5875
2581.52719	4733.0875
2584.21451	4710.5875
2586.90015	4696.9875
2589.58411	4686.6875
2592.2664	4691.7875
2594.94701	4674.3875
2597.62594	4658.2875
2600.30321	4638.0875
2602.9788	4635.5875
2605.65273	4618.6875
2608.32498	4629.6875
2610.99557	4619.5875
2613.66449	4616.8875
2616.33175	4593.5875
2618.99734	4598.8875
2621.66128	4589.0875
2624.32355	4582.2875
2626.98416	4573.2875
2629.64311	4573.0875
2632.30041	4578.3875
2634.95605	4557.1875
2637.61004	4540.5875
2640.26238	4538.3875
2642.91306	4536.1875
2645.56209	4519.1875
2648.20948	4519.7875
2650.85521	4510.0875
2653.4993	4526.8875
2656.14175	4506.1875
2658.78255	4527.0875
2661.42171	4518.7875
2664.05923	4518.8875
2666.6951	4520.1875
2669.32934	4507.8875
2671.96194	4514.4875
2674.59291	4515.2875
2677.22224	4493.1875
2679.84993	4506.5875
2682.476	4498.0875
2685.10043	4501.1875
2687.72324	4482.9875
2690.34441	4489.1875
2692.96396	4476.5875
2695.58188	4494.0875
2698.19818	4487.2875
2700.81285	4496.7875
2703.4259	4474.0875
2706.03733	4475.2875
2708.64714	4449.7875
2711.25533	4470.0875
2713.86191	4464.5875
2716.46687	4472.9875
2719.07021	4471.3875
2721.67194	4471.6875
2724.27206	4475.6875
2726.87057	4462.3875
2729.46747	4475.9875
2732.06276	4465.8875
2734.65644	4465.7875
2737.24852	4463.7875
2739.83899	4455.3875
2742.42786	4441.9875
2745.01513	4431.4875
2747.60079	4431.9875
2750.18486	4446.8875
2752.76733	4403.3875
2755.3482	4395.9875
2757.92747	4396.0875
2760.50515	4390.3875
2763.08123	4396.9875
2765.65573	4382.5875
2768.22863	4398.1875
2770.79994	4371.4875
2773.36967	4357.7875
2775.9378	4363.8875
2778.50435	4357.2875
2781.06932	4364.9875
2783.6327	4351.2875
2786.1945	4322.6875
2788.75471	4323.9875
2791.31335	4310.8875
2793.87041	4311.2875
2796.42589	4289.1875
2798.97979	4315.3875
2801.53212	4283.8875
2804.08288	4295.0875
2806.63206	4278.0875
2809.17967	4247.6875
2811.72571	4265.2875
2814.27018	4240.7875
2816.81308	4232.9875
2819.35442	4239.7875
2821.89419	4258.5875
2824.43239	4223.9875
2826.96904	4221.5875
2829.50412	4210.9875
2832.03763	4215.5875
2834.56959	4207.3875
2837.1	4214.6875
2839.62884	4223.4875
2842.15613	4256.2875
2844.68186	4280.4875
2847.20604	4306.1875
2849.72867	4321.2875
2852.24974	4327.2875
2854.76927	4318.3875
2857.28724	4288.3875
2859.80367	4292.3875
2862.31855	4290.8875
2864.83189	4282.0875
2867.34368	4271.3875
2869.85393	4266.3875
2872.36264	4262.8875
2874.8698	4268.4875
2877.37543	4261.8875
2879.87952	4248.3875
2882.38207	4241.4875
2884.88308	4244.8875
2887.38256	4235.6875
2889.88051	4222.0875
2892.37692	4247.2875
2894.8718	4241.7875
2897.36515	4238.5875
2899.85698	4251.8875
2902.34727	4263.8875
2904.83604	4258.3875
2907.32328	4267.4875
2909.809	4262.6875
2912.29319	4278.7875
2914.77587	4268.3875
2917.25702	4257.3875
2919.73665	4258.3875
2922.21476	4266.6875
2924.69136	4269.2875
2927.16644	4269.7875
2929.64	4270.0875
2932.11205	4254.3875
2934.58258	4242.9875
2937.05161	4268.5875
2939.51912	4247.9875
2941.98513	4242.6875
2944.44962	4213.9875
2946.91261	4206.6875
2949.37409	4194.9875
2951.83407	4176.7875
2954.29254	4175.7875
2956.74951	4165.5875
2959.20498	4168.6875
2961.65895	4149.6875
2964.11142	4148.9875
2966.56239	4125.0875
2969.01186	4115.6875
2971.45984	4103.2875
2973.90632	4105.5875
2976.35131	4081.2875
2978.7948	4054.0875
2981.23681	4047.7875
2983.67732	4036.8875
2986.11635	4031.2875
2988.55388	4013.8875
2990.98993	3995.5875
2993.4245	3984.7875
2995.85758	3984.3875
2998.28917	3967.5875
3000.71928	3962.6875
3003.14791	3959.9875
3005.57506	3949.7875
3008.00073	3928.1875
3010.42493	3921.7875
3012.84764	3919.1875
3015.26888	3929.6875
3017.68865	3931.5875
3020.10694	3902.7875
3022.52376	3887.6875
3024.9391	3888.7875
3027.35298	3891.1875
3029.76539	3902.9875
3032.17632	3886.5875
3034.5858	3872.2875
3036.9938	3886.2875
3039.40034	3852.6875
3041.80542	3851.4875
3044.20903	3842.7875
3046.61118	3846.8875
3049.01187	3840.0875
3051.4111	3851.1875
3053.80888	3836.1875
3056.20519	3830.1875
3058.60005	3813.1875
3060.99345	3807.6875
3063.3854	3797.8875
3065.7759	3793.4875
3068.16494	3797.9875
3070.55254	3782.2875
3072.93868	3779.4875
3075.32338	3771.5875
3077.70662	3770.8875
3080.08842	3775.3875
3082.46878	3764.4875
3084.84769	3759.5875
3087.22515	3747.7875
3089.60118	3759.6875
3091.97576	3754.2875
3094.3489	3765.7875
3096.72061	3775.9875
3099.09087	3776.5875
3101.4597	3744.5875
3103.82709	3774.4875
3106.19305	3779.4875
3108.55757	3773.0875
3110.92066	3774.4875
3113.28232	3757.4875
3115.64255	3741.0875
3118.00134	3750.2875
3120.35871	3754.4875
3122.71466	3751.1875
3125.06917	3753.0875
3127.42226	3749.6875
3129.77393	3736.5875
3132.12417	3734.4875
3134.47299	3743.4875
3136.82039	3750.4875
3139.16636	3740.3875
3141.51092	3751.8875
3143.85406	3752.2875
3146.19579	3770.0875
3148.53609	3772.0875
3150.87499	3790.4875
3153.21246	3796.8875
3155.54853	3814.5875
3157.88318	3808.1875
3160.21642	3806.9875
3162.54826	3812.6875
3164.87868	3805.3875
3167.2077	3807.0875
3169.5353	3817.5875
3171.86151	3811.9875
3174.18631	3816.9875
3176.5097	3823.6875
3178.83169	3819.6875
3181.15228	3815.6875
3183.47147	3815.5875
3185.78926	3806.6875
3188.10565	3809.2875
3190.42065	3804.2875
3192.73424	3800.6875
3195.04645	3815.9875
3197.35725	3814.2875
3199.66667	3831.2875
3201.97469	3810.4875
3204.28132	3816.8875
3206.58656	3835.3875
3208.8904	3817.8875
3211.19287	3829.2875
3213.49394	3840.2875
3215.79363	3822.9875
3218.09193	3853.3875
3220.38884	3857.0875
3222.68438	3856.8875
3224.97853	3839.7875
3227.2713	3845.5875
3229.56269	3823.4875
3231.8527	3836.6875
3234.14133	3835.2875
3236.42858	3821.7875
3238.71446	3816.3875
3240.99896	3812.7875
3243.28209	3816.4875
3245.56384	3807.0875
3247.84423	3817.2875
3250.12324	3787.3875
3252.40088	3806.1875
3254.67715	3789.1875
3256.95205	3809.9875
3259.22558	3790.9875
3261.49775	3793.5875
3263.76855	3793.4875
3266.03799	3765.3875
3268.30606	3756.8875
3270.57277	3760.7875
3272.83812	3764.9875
3275.10211	3743.9875
3277.36474	3747.5875
3279.62601	3732.1875
3281.88593	3729.2875
3284.14448	3727.8875
3286.40168	3746.2875
3288.65753	3744.5875
3290.91202	3739.6875
3293.16516	3716.6875
3295.41695	3707.5875
3297.66738	3686.7875
3299.91647	3678.7875
3302.16421	3657.5875
3304.4106	3643.9875
3306.65564	3613.8875
3308.89933	3600.7875
3311.14169	3574.2875
3313.38269	3550.6875
3315.62236	3534.8875
3317.86068	3496.2875
3320.09766	3491.8875
3322.3333	3462.6875
3324.5676	3431.2875
3326.80056	3374.9875
3329.03219	3369.4875
3331.26248	0.8875
3333.49143	-1.2125
3335.71905	-0.4125
