Data from AgNPs_FTO_APTES_UA_1uM_CRN_1uM_R6G_10uM_NaF_0.1M_Addition_RamanShift__21__12-36-39-506.txt Node

Date: Thu Jan 27 12:36:39 GMT 2022
User: TCL
Spectrometer: QEP01345
Trigger mode: 4
Integration Time (sec): 7.000000E0
Scans to average: 10
Electric dark correction enabled: true
Nonlinearity correction enabled: false
Boxcar width: 0
XAxis mode: Raman Shifts
Number of Pixels in Spectrum: 1044
>>>>>Begin Spectral Data<<<<<
46.04893	-0.4625
50.45542	-0.7625
54.85868	-1.8625
59.25871	-1.7625
63.6555	65.0375
68.04907	69.1375
72.43941	71.9375
76.82654	72.7375
81.21044	81.5375
85.59113	75.6375
89.96862	80.3375
94.34289	83.1375
98.71396	89.2375
103.08183	85.6375
107.4465	94.2375
111.80798	96.7375
116.16626	97.0375
120.52136	104.7375
124.87327	102.5375
129.222	104.6375
133.56755	109.5375
137.90993	120.2375
142.24913	131.5375
146.58517	146.8375
150.91804	170.0375
155.24774	198.7375
159.57429	242.9375
163.89768	306.7375
168.21792	404.8375
172.53501	545.4375
176.84895	760.9375
181.15975	1066.0375
185.46741	1488.3375
189.77193	2053.9375
194.07331	2751.1375
198.37157	3544.4375
202.6667	4400.5375
206.9587	5214.5375
211.24758	6057.3375
215.53334	6881.8375
219.81599	7788.0375
224.09553	8771.3375
228.37195	9887.4375
232.64527	11087.0375
236.91549	12349.8375
241.18261	13613.5375
245.44663	14783.1375
249.70755	15822.7375
253.96539	16707.7375
258.22014	17438.9375
262.4718	18082.5375
266.72039	18579.4375
270.96589	18863.5375
275.20832	18873.8375
279.44768	18789.3375
283.68397	18563.5375
287.91719	18365.1375
292.14735	18285.0375
296.37445	18303.3375
300.59849	18435.3375
304.81948	18677.3375
309.03742	18800.3375
313.25231	18673.0375
317.46415	18186.3375
321.67296	17489.7375
325.87872	16945.7375
330.08145	16708.1375
334.28114	16691.6375
338.47781	16880.4375
342.67145	17198.1375
346.86207	17567.2375
351.04966	18097.1375
355.23424	18708.2375
359.4158	19281.6375
363.59435	19591.9375
367.76989	19792.0375
371.94243	19952.4375
376.11196	20061.2375
380.27849	20142.2375
384.44203	20179.1375
388.60257	20224.2375
392.76012	20324.9375
396.91468	20588.8375
401.06626	20983.4375
405.21485	21334.9375
409.36047	21222.8375
413.50311	20815.9375
417.64277	20477.6375
421.77947	20368.5375
425.9132	20371.6375
430.04396	20481.7375
434.17176	20581.5375
438.2966	20794.9375
442.41849	21195.5375
446.53742	21793.2375
450.6534	22486.6375
454.76644	23028.3375
458.87653	23261.8375
462.98368	23142.8375
467.08789	22730.7375
471.18916	22180.5375
475.2875	21693.4375
479.38291	21386.3375
483.4754	21201.5375
487.56496	20982.7375
491.6516	20734.1375
495.73531	20527.8375
499.81612	20469.8375
503.89401	20550.6375
507.96899	20637.2375
512.04106	20619.4375
516.11023	20665.5375
520.1765	20697.4375
524.23987	20629.3375
528.30034	20471.9375
532.35792	20154.7375
536.41261	19883.1375
540.46441	19638.2375
544.51333	19567.8375
548.55936	19760.4375
552.60252	20084.3375
556.64279	20446.2375
560.6802	20625.9375
564.71473	20708.5375
568.7464	21025.2375
572.7752	21410.9375
576.80114	21572.8375
580.82422	21688.9375
584.84444	21930.9375
588.86181	22195.4375
592.87633	22579.5375
596.888	22903.7375
600.89682	23243.1375
604.9028	24323.7375
608.90594	27265.6375
612.90624	30817.3375
616.90371	29642.3375
620.89834	24387.8375
624.89015	21914.5375
628.87913	21647.6375
632.86528	21473.2375
636.84862	21131.4375
640.82913	20680.9375
644.80683	20071.8375
648.78172	19635.0375
652.75379	19566.4375
656.72306	19926.3375
660.68952	20399.2375
664.65319	20452.8375
668.61405	20013.6375
672.57211	19774.9375
676.52738	19752.8375
680.47986	19721.5375
684.42955	19647.8375
688.37646	19624.3375
692.32058	19724.2375
696.26192	19886.4375
700.20048	20100.7375
704.13626	20219.8375
708.06928	20085.1375
711.99952	19874.0375
715.927	19811.7375
719.85171	19843.4375
723.77365	19781.6375
727.69284	19603.5375
731.60928	19449.3375
735.52295	19440.9375
739.43388	19521.6375
743.34206	19653.9375
747.24749	19771.2375
751.15017	19956.4375
755.05012	20261.9375
758.94733	20823.5375
762.8418	21885.0375
766.73354	23641.6375
770.62254	25517.9375
774.50882	26341.4375
778.39237	25364.8375
782.27321	23381.6375
786.15132	21591.7375
790.02671	20495.9375
793.89938	20067.6375
797.76935	19899.3375
801.6366	19858.1375
805.50115	19771.5375
809.36299	19624.8375
813.22213	19485.6375
817.07857	19428.4375
820.93231	19442.2375
824.78336	19428.8375
828.63172	19526.6375
832.47738	19596.5375
836.32036	19675.7375
840.16066	19799.9375
843.99827	19907.7375
847.8332	19890.0375
851.66546	19700.9375
855.49504	19611.0375
859.32195	19583.6375
863.1462	19471.3375
866.96777	19372.3375
870.78668	19254.6375
874.60293	19259.6375
878.41652	19265.8375
882.22745	19358.7375
886.03573	19455.5375
889.84136	19414.7375
893.64433	19299.0375
897.44466	19221.3375
901.24235	19208.6375
905.0374	19138.7375
908.8298	19105.9375
912.61957	19137.2375
916.40671	19306.7375
920.19121	19575.6375
923.97308	19888.2375
927.75233	20170.4375
931.52895	20259.2375
935.30295	20099.5375
939.07433	19699.6375
942.84309	19345.8375
946.60924	19207.6375
950.37278	19117.6375
954.13371	18962.9375
957.89203	18760.0375
961.64774	18672.0375
965.40086	18568.6375
969.15137	18473.8375
972.89929	18406.1375
976.64461	18412.4375
980.38733	18450.3375
984.12747	18596.1375
987.86502	18857.6375
991.59999	19264.8375
995.33237	19816.1375
999.06217	20756.1375
1002.78939	21776.5375
1006.51404	22301.7375
1010.23611	22465.1375
1013.95561	22566.9375
1017.67255	22566.9375
1021.38692	22366.5375
1025.09872	22288.3375
1028.80796	22815.7375
1032.51465	24051.9375
1036.21877	25189.2375
1039.92035	25222.2375
1043.61937	24510.4375
1047.31584	23333.9375
1051.00976	22075.4375
1054.70114	21379.9375
1058.38998	21118.4375
1062.07627	21048.5375
1065.76003	20980.0375
1069.44126	20995.7375
1073.11995	21154.0375
1076.79611	21367.9375
1080.46974	21530.4375
1084.14085	21709.4375
1087.80943	21969.4375
1091.47549	22073.6375
1095.13903	21841.6375
1098.80005	21467.1375
1102.45857	21060.1375
1106.11456	20836.4375
1109.76805	20869.4375
1113.41903	21073.1375
1117.06751	21313.7375
1120.71348	21597.0375
1124.35696	21870.4375
1127.99793	22139.0375
1131.63641	22269.3375
1135.2724	21979.3375
1138.90589	21566.8375
1142.5369	21306.9375
1146.16542	21101.8375
1149.79145	21018.4375
1153.415	21041.0375
1157.03607	21232.0375
1160.65467	21569.0375
1164.27079	22204.6375
1167.88443	23170.6375
1171.49561	24629.7375
1175.10432	26744.2375
1178.71056	29450.7375
1182.31434	32054.6375
1185.91565	33581.9375
1189.51451	33656.5375
1193.11091	32263.9375
1196.70485	30357.1375
1200.29634	28599.5375
1203.88538	27343.2375
1207.47197	26305.8375
1211.05612	25532.5375
1214.63782	25077.4375
1218.21708	25059.2375
1221.79391	25320.6375
1225.36829	25660.9375
1228.94024	25626.5375
1232.50976	25303.2375
1236.07685	24931.0375
1239.6415	24665.9375
1243.20374	24519.9375
1246.76355	24564.9375
1250.32093	24899.7375
1253.8759	25545.3375
1257.42845	26374.7375
1260.97859	27132.5375
1264.52631	27757.9375
1268.07163	28461.6375
1271.61453	29348.6375
1275.15503	30325.6375
1278.69312	31447.4375
1282.22882	32338.8375
1285.76211	32886.3375
1289.29301	33382.6375
1292.82151	34056.4375
1296.34761	34926.8375
1299.87133	36457.1375
1303.39266	38705.3375
1306.9116	41727.4375
1310.42815	45030.1375
1313.94233	47155.5375
1317.45412	47118.7375
1320.96354	45359.4375
1324.47058	43190.2375
1327.97525	41279.2375
1331.47754	40001.0375
1334.97747	39442.1375
1338.47502	39445.2375
1341.97022	39762.6375
1345.46305	39770.2375
1348.95352	39563.6375
1352.44163	39576.1375
1355.92738	40660.2375
1359.41078	43310.9375
1362.89183	46194.7375
1366.37053	45748.5375
1369.84688	41532.5375
1373.32088	36551.0375
1376.79254	32998.2375
1380.26186	31272.9375
1383.72883	30603.6375
1387.19347	30229.2375
1390.65578	29714.8375
1394.11575	29500.7375
1397.57339	29722.6375
1401.0287	30290.0375
1404.48168	30969.2375
1407.93234	31416.7375
1411.38068	31731.7375
1414.82669	31641.1375
1418.27039	30957.9375
1421.71177	30012.6375
1425.15083	29142.7375
1428.58758	28634.8375
1432.02203	28639.4375
1435.45416	28867.7375
1438.88399	29166.2375
1442.31151	29430.6375
1445.73673	29656.7375
1449.15965	29895.6375
1452.58027	29945.8375
1455.9986	29800.4375
1459.41463	29840.9375
1462.82837	30131.4375
1466.23982	30622.6375
1469.64898	31218.6375
1473.05586	31566.0375
1476.46045	31782.4375
1479.86276	31924.1375
1483.26279	32084.9375
1486.66054	32272.3375
1490.05602	32618.9375
1493.44922	33206.5375
1496.84016	33743.7375
1500.22882	34408.9375
1503.61521	35367.8375
1506.99934	36747.4375
1510.38121	38249.3375
1513.76081	39026.1375
1517.13816	38267.6375
1520.51324	36288.2375
1523.88607	34124.4375
1527.25665	32535.2375
1530.62498	31537.3375
1533.99105	30897.4375
1537.35488	30538.0375
1540.71647	30314.3375
1544.07581	30099.4375
1547.4329	29834.2375
1550.78776	29592.9375
1554.14038	29423.3375
1557.49077	29414.7375
1560.83892	29438.7375
1564.18484	29416.1375
1567.52853	29327.4375
1570.86999	29309.7375
1574.20922	29392.7375
1577.54624	29532.4375
1580.88103	29374.7375
1584.2136	29223.4375
1587.54395	29748.1375
1590.87208	31284.4375
1594.19801	33570.1375
1597.52172	36104.5375
1600.84321	37337.9375
1604.16251	36119.8375
1607.47959	33228.6375
1610.79447	30140.7375
1614.10715	27478.6375
1617.41763	25479.1375
1620.7259	24194.8375
1624.03199	23636.2375
1627.33587	23735.8375
1630.63757	24546.0375
1633.93707	25923.2375
1637.23439	27839.5375
1640.52951	30160.9375
1643.82246	32423.8375
1647.11321	34107.8375
1650.40179	34379.0375
1653.68819	32533.3375
1656.97241	29001.0375
1660.25446	25344.4375
1663.53433	22697.9375
1666.81203	20993.3375
1670.08756	19969.5375
1673.36092	19401.3375
1676.63211	19024.4375
1679.90115	18696.1375
1683.16801	18450.5375
1686.43272	18307.4375
1689.69527	18174.4375
1692.95567	18072.3375
1696.2139	17971.7375
1699.46999	17904.2375
1702.72392	17860.3375
1705.97571	17892.2375
1709.22535	17919.5375
1712.47284	17936.5375
1715.71819	17958.2375
1718.96139	17906.5375
1722.20246	17871.6375
1725.44139	17812.1375
1728.67818	17726.0375
1731.91284	17643.9375
1735.14537	17535.1375
1738.37576	17486.7375
1741.60403	17475.5375
1744.83017	17358.3375
1748.05418	17336.4375
1751.27607	17304.2375
1754.49584	17268.6375
1757.71349	17254.4375
1760.92903	17255.1375
1764.14244	17225.3375
1767.35375	17206.4375
1770.56294	17187.6375
1773.77002	17152.5375
1776.97499	17208.3375
1780.17785	17179.6375
1783.37861	17224.4375
1786.57727	17206.1375
1789.77382	17158.0375
1792.96828	17143.3375
1796.16064	17136.5375
1799.3509	17118.2375
1802.53907	17117.8375
1805.72514	17071.1375
1808.90913	17067.3375
1812.09102	17030.8375
1815.27083	16948.7375
1818.44856	16964.3375
1821.6242	16949.7375
1824.79776	16944.8375
1827.96924	16904.4375
1831.13864	16905.5375
1834.30597	16864.8375
1837.47122	16895.1375
1840.6344	16903.0375
1843.7955	16943.8375
1846.95454	16931.9375
1850.11151	16960.0375
1853.26642	16963.8375
1856.41926	16981.9375
1859.57004	17004.7375
1862.71876	17003.2375
1865.86542	16968.6375
1869.01003	16980.1375
1872.15258	17001.0375
1875.29308	16994.2375
1878.43152	17009.1375
1881.56792	17025.4375
1884.70227	17006.6375
1887.83457	17013.7375
1890.96482	17027.9375
1894.09304	16986.6375
1897.21921	17008.4375
1900.34335	17020.3375
1903.46544	17026.5375
1906.58551	17049.9375
1909.70353	17032.6375
1912.81953	17011.7375
1915.93349	17024.6375
1919.04543	16992.1375
1922.15534	16950.6375
1925.26322	16883.0375
1928.36908	16835.5375
1931.47292	16807.6375
1934.57473	16767.1375
1937.67453	16664.4375
1940.77232	16640.6375
1943.86808	16603.9375
1946.96184	16500.2375
1950.05358	16463.9375
1953.14331	16409.1375
1956.23103	16340.6375
1959.31675	16287.7375
1962.40046	16250.4375
1965.48217	16155.9375
1968.56188	16126.5375
1971.63959	16114.6375
1974.7153	16051.4375
1977.78901	15994.9375
1980.86073	15945.0375
1983.93046	15908.2375
1986.99819	15839.2375
1990.06394	15816.6375
1993.1277	15751.2375
1996.18947	15687.2375
1999.24925	15711.2375
2002.30706	15623.7375
2005.36288	15575.0375
2008.41672	15553.3375
2011.46859	15490.4375
2014.51848	15451.6375
2017.56639	15433.1375
2020.61233	15410.4375
2023.6563	15371.7375
2026.6983	15333.5375
2029.73833	15317.7375
2032.7764	15293.3375
2035.8125	15261.2375
2038.84664	15257.9375
2041.87881	15253.0375
2044.90903	15217.1375
2047.93729	15161.2375
2050.96359	15186.9375
2053.98794	15150.0375
2057.01034	15134.1375
2060.03078	15115.3375
2063.04927	15118.8375
2066.06582	15140.9375
2069.08042	15093.7375
2072.09307	15073.9375
2075.10378	15070.9375
2078.11255	15065.8375
2081.11938	15057.6375
2084.12426	15019.6375
2087.12722	15050.2375
2090.12824	15016.0375
2093.12732	15019.1375
2096.12447	14988.0375
2099.11969	14992.0375
2102.11299	15009.8375
2105.10435	15038.7375
2108.09379	15033.6375
2111.08131	15009.9375
2114.0669	15034.7375
2117.05057	15045.2375
2120.03233	15048.1375
2123.01216	15043.6375
2125.99008	15046.1375
2128.96609	15069.9375
2131.94018	15074.1375
2134.91236	15114.2375
2137.88263	15088.1375
2140.851	15108.1375
2143.81746	15138.8375
2146.78201	15136.4375
2149.74466	15144.5375
2152.7054	15172.9375
2155.66425	15134.4375
2158.6212	15151.1375
2161.57625	15142.6375
2164.52941	15169.8375
2167.48067	15120.5375
2170.43004	15132.4375
2173.37752	15128.7375
2176.32311	15124.4375
2179.26681	15139.6375
2182.20863	15156.1375
2185.14856	15176.1375
2188.08661	15197.5375
2191.02278	15177.3375
2193.95707	15197.9375
2196.88948	15189.9375
2199.82001	15179.1375
2202.74867	15190.5375
2205.67545	15204.0375
2208.60037	15185.6375
2211.52341	15151.4375
2214.44458	15182.8375
2217.36388	15145.9375
2220.28132	15107.3375
2223.1969	15122.6375
2226.11061	15106.3375
2229.02246	15073.2375
2231.93245	15062.4375
2234.84058	15030.8375
2237.74686	14982.8375
2240.65128	14958.6375
2243.55385	14953.9375
2246.45456	14948.9375
2249.35343	14912.0375
2252.25044	14879.6375
2255.14561	14861.5375
2258.03893	14852.6375
2260.93041	14821.0375
2263.82004	14788.0375
2266.70783	14758.3375
2269.59378	14713.8375
2272.4779	14703.0375
2275.36017	14659.3375
2278.24061	14658.5375
2281.11922	14596.6375
2283.996	14608.0375
2286.87094	14580.5375
2289.74405	14607.9375
2292.61534	14545.5375
2295.4848	14580.6375
2298.35243	14593.0375
2301.21824	14578.5375
2304.08223	14599.8375
2306.94439	14626.4375
2309.80474	14613.9375
2312.66327	14644.9375
2315.51999	14653.9375
2318.37489	14706.5375
2321.22797	14655.7375
2324.07925	14632.2375
2326.92871	14625.7375
2329.77637	14636.6375
2332.62222	14612.5375
2335.46626	14606.4375
2338.3085	14626.7375
2341.14893	14652.2375
2343.98756	14683.8375
2346.8244	14667.5375
2349.65943	14693.0375
2352.49267	14658.5375
2355.32411	14666.1375
2358.15376	14608.6375
2360.98161	14602.5375
2363.80768	14599.2375
2366.63195	14587.0375
2369.45444	14545.2375
2372.27514	14519.5375
2375.09405	14488.4375
2377.91118	14439.6375
2380.72652	14384.8375
2383.54009	14337.0375
2386.35187	14346.5375
2389.16188	14286.1375
2391.97011	14288.0375
2394.77657	14275.1375
2397.58125	14264.1375
2400.38416	14248.3375
2403.18529	14218.1375
2405.98466	14183.2375
2408.78226	14163.8375
2411.57809	14113.6375
2414.37216	14078.3375
2417.16446	14052.6375
2419.955	14042.6375
2422.74378	14045.4375
2425.5308	14012.0375
2428.31606	14013.9375
2431.09956	13981.2375
2433.88131	13995.2375
2436.6613	14000.3375
2439.43954	13999.9375
2442.21603	13984.5375
2444.99077	13992.2375
2447.76377	14006.1375
2450.53501	13981.0375
2453.30451	13980.7375
2456.07226	13974.5375
2458.83827	13965.9375
2461.60254	13959.8375
2464.36507	13943.2375
2467.12586	13911.7375
2469.88492	13960.7375
2472.64224	13968.6375
2475.39782	13965.3375
2478.15167	14010.0375
2480.90379	13999.4375
2483.65417	14014.2375
2486.40283	14010.7375
2489.14976	14027.1375
2491.89497	14041.4375
2494.63845	14055.9375
2497.3802	14050.4375
2500.12024	14049.2375
2502.85855	14030.7375
2505.59514	14036.8375
2508.33002	14009.0375
2511.06318	14006.5375
2513.79462	13953.8375
2516.52435	13961.7375
2519.25237	13929.6375
2521.97867	13922.6375
2524.70327	13930.8375
2527.42616	13903.3375
2530.14734	13899.3375
2532.86681	13902.5375
2535.58458	13904.8375
2538.30065	13911.6375
2541.01501	13914.4375
2543.72768	13902.6375
2546.43864	13884.5375
2549.14791	13846.7375
2551.85548	13847.0375
2554.56136	13818.3375
2557.26554	13810.4375
2559.96803	13781.7375
2562.66883	13801.4375
2565.36794	13805.9375
2568.06536	13765.5375
2570.7611	13776.9375
2573.45514	13738.9375
2576.14751	13774.4375
2578.83819	13787.6375
2581.52719	13790.5375
2584.21451	13769.2375
2586.90015	13758.3375
2589.58411	13756.6375
2592.2664	13751.1375
2594.94701	13741.4375
2597.62594	13740.4375
2600.30321	13778.2375
2602.9788	13729.4375
2605.65273	13732.8375
2608.32498	13701.2375
2610.99557	13714.5375
2613.66449	13751.3375
2616.33175	13703.9375
2618.99734	13700.2375
2621.66128	13731.3375
2624.32355	13709.3375
2626.98416	13738.4375
2629.64311	13761.6375
2632.30041	13761.1375
2634.95605	13718.7375
2637.61004	13700.8375
2640.26238	13663.2375
2642.91306	13675.9375
2645.56209	13636.7375
2648.20948	13631.5375
2650.85521	13586.6375
2653.4993	13622.4375
2656.14175	13597.9375
2658.78255	13599.3375
2661.42171	13627.1375
2664.05923	13641.4375
2666.6951	13655.8375
2669.32934	13664.8375
2671.96194	13693.1375
2674.59291	13667.5375
2677.22224	13682.8375
2679.84993	13688.9375
2682.476	13655.0375
2685.10043	13631.6375
2687.72324	13602.8375
2690.34441	13628.5375
2692.96396	13598.9375
2695.58188	13571.0375
2698.19818	13589.9375
2700.81285	13579.6375
2703.4259	13546.6375
2706.03733	13544.0375
2708.64714	13524.2375
2711.25533	13562.3375
2713.86191	13571.9375
2716.46687	13563.9375
2719.07021	13577.7375
2721.67194	13603.8375
2724.27206	13607.5375
2726.87057	13622.7375
2729.46747	13615.2375
2732.06276	13615.1375
2734.65644	13593.6375
2737.24852	13606.0375
2739.83899	13590.6375
2742.42786	13586.0375
2745.01513	13572.6375
2747.60079	13578.9375
2750.18486	13537.3375
2752.76733	13554.4375
2755.3482	13527.6375
2757.92747	13563.2375
2760.50515	13556.8375
2763.08123	13564.9375
2765.65573	13543.0375
2768.22863	13551.9375
2770.79994	13511.3375
2773.36967	13529.9375
2775.9378	13550.8375
2778.50435	13538.8375
2781.06932	13509.7375
2783.6327	13528.2375
2786.1945	13510.4375
2788.75471	13512.0375
2791.31335	13474.0375
2793.87041	13483.0375
2796.42589	13442.0375
2798.97979	13419.4375
2801.53212	13409.4375
2804.08288	13396.6375
2806.63206	13353.1375
2809.17967	13322.3375
2811.72571	13301.8375
2814.27018	13299.2375
2816.81308	13300.3375
2819.35442	13288.2375
2821.89419	13268.2375
2824.43239	13274.3375
2826.96904	13241.5375
2829.50412	13284.5375
2832.03763	13245.0375
2834.56959	13262.6375
2837.1	13274.0375
2839.62884	13269.7375
2842.15613	13257.0375
2844.68186	13280.9375
2847.20604	13272.5375
2849.72867	13275.9375
2852.24974	13269.3375
2854.76927	13228.0375
2857.28724	13230.4375
2859.80367	13217.7375
2862.31855	13209.5375
2864.83189	13194.6375
2867.34368	13175.3375
2869.85393	13180.5375
2872.36264	13161.0375
2874.8698	13179.1375
2877.37543	13164.1375
2879.87952	13176.9375
2882.38207	13168.7375
2884.88308	13166.8375
2887.38256	13199.9375
2889.88051	13175.6375
2892.37692	13185.3375
2894.8718	13210.0375
2897.36515	13215.0375
2899.85698	13235.9375
2902.34727	13257.3375
2904.83604	13261.0375
2907.32328	13305.1375
2909.809	13273.5375
2912.29319	13302.9375
2914.77587	13270.8375
2917.25702	13253.4375
2919.73665	13254.9375
2922.21476	13231.5375
2924.69136	13225.8375
2927.16644	13213.4375
2929.64	13199.2375
2932.11205	13185.0375
2934.58258	13147.0375
2937.05161	13157.5375
2939.51912	13161.8375
2941.98513	13165.3375
2944.44962	13111.9375
2946.91261	13058.1375
2949.37409	13070.0375
2951.83407	13049.1375
2954.29254	13090.8375
2956.74951	13057.1375
2959.20498	13031.3375
2961.65895	13013.6375
2964.11142	13013.7375
2966.56239	12959.9375
2969.01186	12973.8375
2971.45984	12945.8375
2973.90632	12938.2375
2976.35131	12902.9375
2978.7948	12848.5375
2981.23681	12815.6375
2983.67732	12797.0375
2986.11635	12773.2375
2988.55388	12717.9375
2990.98993	12716.4375
2993.4245	12676.8375
2995.85758	12664.5375
2998.28917	12628.1375
3000.71928	12639.2375
3003.14791	12574.6375
3005.57506	12554.8375
3008.00073	12533.1375
3010.42493	12540.7375
3012.84764	12534.1375
3015.26888	12514.8375
3017.68865	12490.0375
3020.10694	12471.0375
3022.52376	12451.2375
3024.9391	12437.9375
3027.35298	12455.0375
3029.76539	12411.7375
3032.17632	12386.4375
3034.5858	12383.4375
3036.9938	12362.4375
3039.40034	12364.5375
3041.80542	12388.0375
3044.20903	12333.6375
3046.61118	12348.3375
3049.01187	12293.3375
3051.4111	12277.1375
3053.80888	12286.0375
3056.20519	12256.2375
3058.60005	12217.4375
3060.99345	12208.1375
3063.3854	12158.6375
3065.7759	12103.2375
3068.16494	12114.6375
3070.55254	12072.2375
3072.93868	12060.6375
3075.32338	12016.2375
3077.70662	11997.9375
3080.08842	11966.0375
3082.46878	11947.0375
3084.84769	11953.8375
3087.22515	11918.6375
3089.60118	11943.7375
3091.97576	11942.7375
3094.3489	11966.0375
3096.72061	11924.8375
3099.09087	11941.0375
3101.4597	11904.5375
3103.82709	11915.0375
3106.19305	11881.2375
3108.55757	11902.4375
3110.92066	11873.7375
3113.28232	11856.0375
3115.64255	11836.8375
3118.00134	11818.8375
3120.35871	11787.9375
3122.71466	11763.8375
3125.06917	11760.7375
3127.42226	11729.8375
3129.77393	11733.4375
3132.12417	11703.0375
3134.47299	11700.3375
3136.82039	11716.2375
3139.16636	11726.6375
3141.51092	11700.1375
3143.85406	11722.3375
3146.19579	11722.7375
3148.53609	11736.0375
3150.87499	11755.6375
3153.21246	11747.3375
3155.54853	11753.6375
3157.88318	11732.9375
3160.21642	11733.2375
3162.54826	11722.5375
3164.87868	11737.4375
3167.2077	11736.4375
3169.5353	11740.0375
3171.86151	11729.4375
3174.18631	11754.4375
3176.5097	11713.9375
3178.83169	11682.2375
3181.15228	11691.9375
3183.47147	11684.8375
3185.78926	11669.2375
3188.10565	11684.0375
3190.42065	11676.0375
3192.73424	11660.6375
3195.04645	11644.6375
3197.35725	11683.6375
3199.66667	11684.3375
3201.97469	11676.1375
3204.28132	11677.8375
3206.58656	11694.9375
3208.8904	11689.9375
3211.19287	11698.1375
3213.49394	11716.0375
3215.79363	11693.2375
3218.09193	11722.7375
3220.38884	11708.5375
3222.68438	11700.4375
3224.97853	11688.9375
3227.2713	11680.9375
3229.56269	11672.6375
3231.8527	11690.1375
3234.14133	11668.6375
3236.42858	11633.4375
3238.71446	11623.2375
3240.99896	11606.8375
3243.28209	11609.5375
3245.56384	11603.9375
3247.84423	11591.4375
3250.12324	11558.3375
3252.40088	11585.3375
3254.67715	11570.5375
3256.95205	11559.9375
3259.22558	11557.7375
3261.49775	11552.8375
3263.76855	11529.2375
3266.03799	11501.6375
3268.30606	11523.2375
3270.57277	11509.1375
3272.83812	11464.5375
3275.10211	11429.8375
3277.36474	11430.2375
3279.62601	11411.2375
3281.88593	11387.3375
3284.14448	11458.2375
3286.40168	11424.5375
3288.65753	11437.4375
3290.91202	11432.8375
3293.16516	11381.4375
3295.41695	11348.5375
3297.66738	11292.0375
3299.91647	11270.2375
3302.16421	11191.1375
3304.4106	11147.5375
3306.65564	11109.7375
3308.89933	11058.4375
3311.14169	10988.3375
3313.38269	10894.6375
3315.62236	10828.3375
3317.86068	10724.6375
3320.09766	10655.1375
3322.3333	10593.7375
3324.5676	10603.4375
3326.80056	10420.0375
3329.03219	10358.0375
3331.26248	4.5375
3333.49143	0.0375
3335.71905	-0.1625
