Data from AgNPs_FTO_APTES_UA_1uM_CRN_1uM_R6G_10uM_NaF_0.1M_Addition_RamanShift__25__12-41-19-511.txt Node

Date: Thu Jan 27 12:41:19 GMT 2022
User: TCL
Spectrometer: QEP01345
Trigger mode: 4
Integration Time (sec): 7.000000E0
Scans to average: 10
Electric dark correction enabled: true
Nonlinearity correction enabled: false
Boxcar width: 0
XAxis mode: Raman Shifts
Number of Pixels in Spectrum: 1044
>>>>>Begin Spectral Data<<<<<
46.04893	0.2875
50.45542	0.1875
54.85868	-0.6125
59.25871	-1.5125
63.6555	57.4875
68.04907	59.5875
72.43941	59.8875
76.82654	66.0875
81.21044	68.9875
85.59113	68.3875
89.96862	73.5875
94.34289	71.5875
98.71396	78.6875
103.08183	78.8875
107.4465	80.1875
111.80798	85.9875
116.16626	81.6875
120.52136	91.5875
124.87327	91.4875
129.222	89.7875
133.56755	94.8875
137.90993	102.7875
142.24913	110.9875
146.58517	121.6875
150.91804	141.3875
155.24774	164.1875
159.57429	196.5875
163.89768	247.8875
168.21792	321.9875
172.53501	434.4875
176.84895	596.6875
181.15975	833.9875
185.46741	1157.8875
189.77193	1600.1875
194.07331	2152.0875
198.37157	2759.7875
202.6667	3422.5875
206.9587	4082.4875
211.24758	4743.2875
215.53334	5416.5875
219.81599	6127.0875
224.09553	6948.1875
228.37195	7848.5875
232.64527	8815.1875
236.91549	9822.7875
241.18261	10799.4875
245.44663	11674.8875
249.70755	12412.5875
253.96539	13103.5875
258.22014	13679.8875
262.4718	14177.5875
266.72039	14588.8875
270.96589	14775.7875
275.20832	14840.9875
279.44768	14782.1875
283.68397	14600.4875
287.91719	14479.8875
292.14735	14422.4875
296.37445	14508.2875
300.59849	14784.0875
304.81948	15092.9875
309.03742	15314.9875
313.25231	15247.6875
317.46415	14762.9875
321.67296	14040.0875
325.87872	13426.2875
330.08145	13179.8875
334.28114	13171.5875
338.47781	13365.8875
342.67145	13676.8875
346.86207	14035.8875
351.04966	14638.4875
355.23424	15319.4875
359.4158	15867.4875
363.59435	16198.0875
367.76989	16344.5875
371.94243	16440.8875
376.11196	16437.0875
380.27849	16421.4875
384.44203	16419.3875
388.60257	16369.5875
392.76012	16385.9875
396.91468	16598.4875
401.06626	16978.7875
405.21485	17295.1875
409.36047	17205.7875
413.50311	16773.1875
417.64277	16310.6875
421.77947	16111.0875
425.9132	16026.7875
430.04396	16079.2875
434.17176	16179.4875
438.2966	16446.4875
442.41849	16821.9875
446.53742	17360.5875
450.6534	17965.4875
454.76644	18370.4875
458.87653	18487.2875
462.98368	18338.9875
467.08789	18024.8875
471.18916	17604.6875
475.2875	17150.2875
479.38291	16919.8875
483.4754	16734.1875
487.56496	16575.2875
491.6516	16412.1875
495.73531	16255.0875
499.81612	16197.5875
503.89401	16326.7875
507.96899	16405.5875
512.04106	16497.4875
516.11023	16644.7875
520.1765	16743.7875
524.23987	16683.8875
528.30034	16531.6875
532.35792	16279.1875
536.41261	16031.2875
540.46441	15837.4875
544.51333	15761.6875
548.55936	15897.5875
552.60252	16151.0875
556.64279	16492.6875
560.6802	16603.7875
564.71473	16708.2875
568.7464	17062.6875
572.7752	17450.3875
576.80114	17415.1875
580.82422	17285.6875
584.84444	17325.3875
588.86181	17466.7875
592.87633	17692.8875
596.888	17953.4875
600.89682	18328.9875
604.9028	19501.3875
608.90594	22522.3875
612.90624	26368.8875
616.90371	25646.0875
620.89834	20313.6875
624.89015	17783.4875
628.87913	17383.0875
632.86528	17254.6875
636.84862	17098.8875
640.82913	16879.6875
644.80683	16377.1875
648.78172	16038.4875
652.75379	16040.7875
656.72306	16417.0875
660.68952	16983.8875
664.65319	16979.6875
668.61405	16549.1875
672.57211	16324.9875
676.52738	16270.7875
680.47986	16247.0875
684.42955	16213.3875
688.37646	16212.7875
692.32058	16293.2875
696.26192	16392.6875
700.20048	16562.5875
704.13626	16683.1875
708.06928	16594.5875
711.99952	16431.1875
715.927	16428.9875
719.85171	16433.2875
723.77365	16373.4875
727.69284	16250.6875
731.60928	16138.4875
735.52295	16148.0875
739.43388	16227.8875
743.34206	16368.5875
747.24749	16455.4875
751.15017	16617.1875
755.05012	16876.8875
758.94733	17362.0875
762.8418	18325.2875
766.73354	20012.5875
770.62254	21867.4875
774.50882	22742.0875
778.39237	22023.8875
782.27321	20113.7875
786.15132	18294.2875
790.02671	17215.1875
793.89938	16737.3875
797.76935	16561.6875
801.6366	16491.2875
805.50115	16437.2875
809.36299	16336.0875
813.22213	16276.7875
817.07857	16286.7875
820.93231	16275.7875
824.78336	16310.0875
828.63172	16397.9875
832.47738	16486.5875
836.32036	16548.2875
840.16066	16564.5875
843.99827	16611.3875
847.8332	16545.1875
851.66546	16452.3875
855.49504	16408.8875
859.32195	16420.9875
863.1462	16336.5875
866.96777	16271.8875
870.78668	16241.9875
874.60293	16281.5875
878.41652	16314.4875
882.22745	16364.3875
886.03573	16454.8875
889.84136	16458.2875
893.64433	16361.6875
897.44466	16304.4875
901.24235	16327.9875
905.0374	16278.9875
908.8298	16251.0875
912.61957	16275.2875
916.40671	16358.0875
920.19121	16535.4875
923.97308	16739.1875
927.75233	16903.3875
931.52895	17022.6875
935.30295	16953.9875
939.07433	16630.5875
942.84309	16326.0875
946.60924	16230.2875
950.37278	16126.8875
954.13371	16073.2875
957.89203	15929.7875
961.64774	15845.9875
965.40086	15803.3875
969.15137	15756.9875
972.89929	15689.0875
976.64461	15687.3875
980.38733	15751.5875
984.12747	15854.9875
987.86502	16033.5875
991.59999	16293.0875
995.33237	16603.5875
999.06217	17122.1875
1002.78939	17755.8875
1006.51404	18155.8875
1010.23611	18371.5875
1013.95561	18590.4875
1017.67255	18681.5875
1021.38692	18521.6875
1025.09872	18369.1875
1028.80796	18553.9875
1032.51465	19072.3875
1036.21877	19551.1875
1039.92035	19588.1875
1043.61937	19206.8875
1047.31584	18591.8875
1051.00976	18009.9875
1054.70114	17660.0875
1058.38998	17585.2875
1062.07627	17617.6875
1065.76003	17622.9875
1069.44126	17690.1875
1073.11995	17819.2875
1076.79611	17984.1875
1080.46974	18091.9875
1084.14085	18260.1875
1087.80943	18507.4875
1091.47549	18559.4875
1095.13903	18419.8875
1098.80005	18055.5875
1102.45857	17668.8875
1106.11456	17507.9875
1109.76805	17566.9875
1113.41903	17764.0875
1117.06751	18050.6875
1120.71348	18425.1875
1124.35696	18771.7875
1127.99793	19090.2875
1131.63641	19161.6875
1135.2724	18792.5875
1138.90589	18335.9875
1142.5369	17981.2875
1146.16542	17757.5875
1149.79145	17645.6875
1153.415	17678.4875
1157.03607	17782.8875
1160.65467	18036.7875
1164.27079	18491.0875
1167.88443	19199.5875
1171.49561	20312.8875
1175.10432	21986.9875
1178.71056	24202.6875
1182.31434	26197.8875
1185.91565	27266.6875
1189.51451	27357.2875
1193.11091	26231.5875
1196.70485	24618.3875
1200.29634	23182.1875
1203.88538	22071.2875
1207.47197	21154.9875
1211.05612	20447.2875
1214.63782	20091.3875
1218.21708	20063.7875
1221.79391	20288.2875
1225.36829	20564.3875
1228.94024	20751.0875
1232.50976	20716.2875
1236.07685	20615.3875
1239.6415	20472.0875
1243.20374	20361.0875
1246.76355	20335.3875
1250.32093	20531.8875
1253.8759	20985.3875
1257.42845	21580.4875
1260.97859	22149.5875
1264.52631	22618.4875
1268.07163	23061.6875
1271.61453	23638.7875
1275.15503	24211.6875
1278.69312	24800.0875
1282.22882	25342.0875
1285.76211	25830.1875
1289.29301	26316.3875
1292.82151	26872.4875
1296.34761	27442.7875
1299.87133	28352.6875
1303.39266	29873.6875
1306.9116	32143.8875
1310.42815	34868.6875
1313.94233	36861.4875
1317.45412	36993.5875
1320.96354	35641.7875
1324.47058	33882.6875
1327.97525	32366.6875
1331.47754	31416.8875
1334.97747	31030.8875
1338.47502	31050.8875
1341.97022	31391.0875
1345.46305	31584.2875
1348.95352	31824.2875
1352.44163	32214.8875
1355.92738	33408.1875
1359.41078	35948.6875
1362.89183	38698.8875
1366.37053	38339.5875
1369.84688	34457.3875
1373.32088	30149.6875
1376.79254	27233.8875
1380.26186	25881.7875
1383.72883	25258.8875
1387.19347	24805.6875
1390.65578	24308.7875
1394.11575	23969.4875
1397.57339	23974.6875
1401.0287	24346.0875
1404.48168	24877.6875
1407.93234	25379.9875
1411.38068	25806.2875
1414.82669	25859.1875
1418.27039	25355.7875
1421.71177	24636.1875
1425.15083	24053.1875
1428.58758	23746.0875
1432.02203	23778.5875
1435.45416	23912.2875
1438.88399	24032.8875
1442.31151	24081.8875
1445.73673	24125.3875
1449.15965	24250.6875
1452.58027	24165.0875
1455.9986	23997.2875
1459.41463	23886.6875
1462.82837	24070.7875
1466.23982	24336.0875
1469.64898	24712.0875
1473.05586	25004.9875
1476.46045	25197.0875
1479.86276	25417.6875
1483.26279	25722.8875
1486.66054	26014.5875
1490.05602	26451.2875
1493.44922	27074.6875
1496.84016	27720.7875
1500.22882	28606.0875
1503.61521	29748.6875
1506.99934	31307.4875
1510.38121	33124.4875
1513.76081	34150.1875
1517.13816	33517.3875
1520.51324	31374.0875
1523.88607	28990.3875
1527.25665	27250.9875
1530.62498	26120.5875
1533.99105	25413.1875
1537.35488	25029.4875
1540.71647	24809.2875
1544.07581	24719.9875
1547.4329	24556.3875
1550.78776	24414.3875
1554.14038	24290.6875
1557.49077	24318.2875
1560.83892	24408.4875
1564.18484	24545.1875
1567.52853	24633.2875
1570.86999	24674.3875
1574.20922	24705.9875
1577.54624	24710.9875
1580.88103	24375.9875
1584.2136	23924.1875
1587.54395	24052.0875
1590.87208	24979.9875
1594.19801	26592.6875
1597.52172	28485.6875
1600.84321	29575.4875
1604.16251	28955.0875
1607.47959	27077.8875
1610.79447	24890.6875
1614.10715	22883.3875
1617.41763	21358.3875
1620.7259	20440.9875
1624.03199	20025.5875
1627.33587	20124.2875
1630.63757	20651.1875
1633.93707	21652.7875
1637.23439	23079.5875
1640.52951	24841.5875
1643.82246	26566.7875
1647.11321	27933.1875
1650.40179	28456.4875
1653.68819	27335.3875
1656.97241	24598.7875
1660.25446	21680.3875
1663.53433	19541.1875
1666.81203	18246.4875
1670.08756	17470.5875
1673.36092	17026.5875
1676.63211	16721.1875
1679.90115	16490.3875
1683.16801	16351.7875
1686.43272	16209.8875
1689.69527	16140.8875
1692.95567	16027.2875
1696.2139	15975.0875
1699.46999	15895.4875
1702.72392	15881.8875
1705.97571	15911.3875
1709.22535	15968.7875
1712.47284	15994.3875
1715.71819	16013.9875
1718.96139	16031.6875
1722.20246	15989.7875
1725.44139	15945.4875
1728.67818	15881.5875
1731.91284	15824.5875
1735.14537	15721.0875
1738.37576	15696.0875
1741.60403	15640.3875
1744.83017	15583.2875
1748.05418	15558.7875
1751.27607	15525.3875
1754.49584	15480.5875
1757.71349	15447.7875
1760.92903	15456.0875
1764.14244	15448.4875
1767.35375	15473.3875
1770.56294	15444.5875
1773.77002	15426.8875
1776.97499	15413.5875
1780.17785	15430.7875
1783.37861	15454.2875
1786.57727	15447.0875
1789.77382	15449.6875
1792.96828	15416.5875
1796.16064	15404.0875
1799.3509	15411.1875
1802.53907	15382.7875
1805.72514	15374.3875
1808.90913	15343.9875
1812.09102	15285.2875
1815.27083	15294.7875
1818.44856	15290.3875
1821.6242	15265.9875
1824.79776	15248.3875
1827.96924	15226.6875
1831.13864	15228.3875
1834.30597	15245.2875
1837.47122	15218.4875
1840.6344	15247.4875
1843.7955	15244.4875
1846.95454	15263.0875
1850.11151	15283.7875
1853.26642	15300.2875
1856.41926	15278.0875
1859.57004	15314.7875
1862.71876	15301.8875
1865.86542	15312.5875
1869.01003	15340.3875
1872.15258	15336.2875
1875.29308	15335.4875
1878.43152	15314.8875
1881.56792	15352.3875
1884.70227	15345.2875
1887.83457	15338.3875
1890.96482	15369.8875
1894.09304	15372.0875
1897.21921	15370.9875
1900.34335	15393.4875
1903.46544	15396.0875
1906.58551	15397.3875
1909.70353	15382.8875
1912.81953	15362.3875
1915.93349	15395.6875
1919.04543	15352.5875
1922.15534	15335.3875
1925.26322	15305.2875
1928.36908	15253.2875
1931.47292	15222.0875
1934.57473	15177.0875
1937.67453	15123.9875
1940.77232	15077.5875
1943.86808	15018.3875
1946.96184	14958.2875
1950.05358	14908.7875
1953.14331	14829.2875
1956.23103	14800.4875
1959.31675	14727.5875
1962.40046	14695.4875
1965.48217	14662.1875
1968.56188	14629.0875
1971.63959	14577.1875
1974.7153	14552.6875
1977.78901	14499.2875
1980.86073	14464.6875
1983.93046	14403.8875
1986.99819	14345.5875
1990.06394	14336.8875
1993.1277	14275.9875
1996.18947	14249.6875
1999.24925	14210.2875
2002.30706	14161.6875
2005.36288	14134.2875
2008.41672	14072.5875
2011.46859	14084.2875
2014.51848	14027.2875
2017.56639	13965.9875
2020.61233	13959.0875
2023.6563	13938.7875
2026.6983	13914.7875
2029.73833	13867.8875
2032.7764	13820.7875
2035.8125	13878.8875
2038.84664	13816.2875
2041.87881	13798.2875
2044.90903	13779.5875
2047.93729	13743.0875
2050.96359	13726.8875
2053.98794	13736.9875
2057.01034	13688.7875
2060.03078	13694.8875
2063.04927	13697.1875
2066.06582	13705.0875
2069.08042	13693.5875
2072.09307	13654.9875
2075.10378	13642.6875
2078.11255	13652.1875
2081.11938	13638.5875
2084.12426	13608.8875
2087.12722	13631.0875
2090.12824	13611.9875
2093.12732	13617.8875
2096.12447	13634.0875
2099.11969	13592.8875
2102.11299	13609.8875
2105.10435	13639.0875
2108.09379	13624.8875
2111.08131	13636.0875
2114.0669	13609.7875
2117.05057	13651.7875
2120.03233	13645.5875
2123.01216	13682.5875
2125.99008	13675.3875
2128.96609	13691.1875
2131.94018	13689.5875
2134.91236	13709.1875
2137.88263	13720.7875
2140.851	13731.5875
2143.81746	13731.3875
2146.78201	13762.2875
2149.74466	13735.0875
2152.7054	13760.3875
2155.66425	13726.6875
2158.6212	13748.4875
2161.57625	13748.2875
2164.52941	13726.1875
2167.48067	13716.3875
2170.43004	13723.1875
2173.37752	13748.3875
2176.32311	13735.4875
2179.26681	13731.0875
2182.20863	13740.6875
2185.14856	13759.7875
2188.08661	13784.2875
2191.02278	13766.1875
2193.95707	13757.4875
2196.88948	13748.2875
2199.82001	13776.9875
2202.74867	13772.6875
2205.67545	13763.0875
2208.60037	13740.7875
2211.52341	13730.6875
2214.44458	13735.3875
2217.36388	13721.9875
2220.28132	13687.8875
2223.1969	13668.4875
2226.11061	13641.1875
2229.02246	13608.7875
2231.93245	13584.5875
2234.84058	13557.5875
2237.74686	13544.5875
2240.65128	13544.5875
2243.55385	13493.7875
2246.45456	13499.3875
2249.35343	13482.8875
2252.25044	13458.5875
2255.14561	13426.2875
2258.03893	13435.4875
2260.93041	13413.4875
2263.82004	13361.3875
2266.70783	13334.0875
2269.59378	13330.7875
2272.4779	13306.6875
2275.36017	13268.2875
2278.24061	13278.6875
2281.11922	13240.2875
2283.996	13198.2875
2286.87094	13188.0875
2289.74405	13166.2875
2292.61534	13181.3875
2295.4848	13139.8875
2298.35243	13169.1875
2301.21824	13170.2875
2304.08223	13175.7875
2306.94439	13155.0875
2309.80474	13173.2875
2312.66327	13196.5875
2315.51999	13179.9875
2318.37489	13177.0875
2321.22797	13178.6875
2324.07925	13185.5875
2326.92871	13153.9875
2329.77637	13151.0875
2332.62222	13131.8875
2335.46626	13127.3875
2338.3085	13126.6875
2341.14893	13140.3875
2343.98756	13163.8875
2346.8244	13158.0875
2349.65943	13147.8875
2352.49267	13168.6875
2355.32411	13135.2875
2358.15376	13127.6875
2360.98161	13111.5875
2363.80768	13095.4875
2366.63195	13098.9875
2369.45444	13062.8875
2372.27514	13043.1875
2375.09405	13027.2875
2377.91118	12988.2875
2380.72652	12950.3875
2383.54009	12934.1875
2386.35187	12918.7875
2389.16188	12875.2875
2391.97011	12830.5875
2394.77657	12829.6875
2397.58125	12823.5875
2400.38416	12808.2875
2403.18529	12757.9875
2405.98466	12741.8875
2408.78226	12734.3875
2411.57809	12702.2875
2414.37216	12667.7875
2417.16446	12674.3875
2419.955	12630.4875
2422.74378	12632.5875
2425.5308	12601.1875
2428.31606	12620.6875
2431.09956	12582.2875
2433.88131	12574.5875
2436.6613	12584.0875
2439.43954	12580.6875
2442.21603	12600.3875
2444.99077	12568.8875
2447.76377	12573.9875
2450.53501	12561.1875
2453.30451	12569.6875
2456.07226	12532.6875
2458.83827	12539.5875
2461.60254	12530.7875
2464.36507	12507.6875
2467.12586	12531.3875
2469.88492	12524.4875
2472.64224	12533.8875
2475.39782	12532.1875
2478.15167	12521.4875
2480.90379	12537.8875
2483.65417	12558.2875
2486.40283	12562.8875
2489.14976	12566.9875
2491.89497	12560.1875
2494.63845	12587.2875
2497.3802	12572.2875
2500.12024	12576.0875
2502.85855	12565.8875
2505.59514	12549.7875
2508.33002	12544.0875
2511.06318	12495.0875
2513.79462	12501.2875
2516.52435	12464.6875
2519.25237	12472.8875
2521.97867	12440.7875
2524.70327	12440.5875
2527.42616	12414.3875
2530.14734	12386.9875
2532.86681	12418.8875
2535.58458	12413.6875
2538.30065	12379.9875
2541.01501	12420.0875
2543.72768	12390.1875
2546.43864	12389.6875
2549.14791	12373.3875
2551.85548	12339.2875
2554.56136	12318.7875
2557.26554	12318.6875
2559.96803	12287.8875
2562.66883	12277.9875
2565.36794	12277.1875
2568.06536	12256.8875
2570.7611	12254.2875
2573.45514	12238.9875
2576.14751	12242.5875
2578.83819	12203.7875
2581.52719	12221.7875
2584.21451	12224.3875
2586.90015	12235.4875
2589.58411	12197.9875
2592.2664	12190.3875
2594.94701	12194.8875
2597.62594	12194.3875
2600.30321	12182.3875
2602.9788	12155.2875
2605.65273	12163.5875
2608.32498	12136.5875
2610.99557	12129.6875
2613.66449	12157.0875
2616.33175	12140.9875
2618.99734	12156.7875
2621.66128	12139.5875
2624.32355	12147.3875
2626.98416	12149.6875
2629.64311	12132.4875
2632.30041	12158.8875
2634.95605	12115.5875
2637.61004	12116.8875
2640.26238	12088.0875
2642.91306	12081.9875
2645.56209	12055.5875
2648.20948	12040.5875
2650.85521	11992.9875
2653.4993	12012.0875
2656.14175	12030.8875
2658.78255	12047.1875
2661.42171	12037.4875
2664.05923	12074.6875
2666.6951	12059.2875
2669.32934	12080.4875
2671.96194	12072.5875
2674.59291	12075.4875
2677.22224	12101.3875
2679.84993	12117.2875
2682.476	12081.5875
2685.10043	12060.8875
2687.72324	12050.6875
2690.34441	12050.7875
2692.96396	12036.9875
2695.58188	12051.1875
2698.19818	12040.1875
2700.81285	12055.6875
2703.4259	12034.4875
2706.03733	12035.4875
2708.64714	12017.9875
2711.25533	12036.4875
2713.86191	12068.0875
2716.46687	12073.4875
2719.07021	12037.4875
2721.67194	12031.9875
2724.27206	12080.5875
2726.87057	12076.9875
2729.46747	12077.1875
2732.06276	12072.8875
2734.65644	12074.4875
2737.24852	12091.1875
2739.83899	12057.7875
2742.42786	12053.5875
2745.01513	12003.3875
2747.60079	12018.9875
2750.18486	12012.8875
2752.76733	12002.8875
2755.3482	11983.9875
2757.92747	12007.7875
2760.50515	11998.2875
2763.08123	11983.1875
2765.65573	11997.2875
2768.22863	11988.3875
2770.79994	11974.2875
2773.36967	11971.0875
2775.9378	11958.7875
2778.50435	11979.2875
2781.06932	11944.8875
2783.6327	11925.4875
2786.1945	11951.3875
2788.75471	11898.7875
2791.31335	11908.2875
2793.87041	11912.0875
2796.42589	11879.1875
2798.97979	11860.1875
2801.53212	11834.0875
2804.08288	11823.5875
2806.63206	11781.7875
2809.17967	11783.8875
2811.72571	11765.2875
2814.27018	11746.3875
2816.81308	11721.5875
2819.35442	11713.0875
2821.89419	11695.7875
2824.43239	11683.6875
2826.96904	11722.7875
2829.50412	11720.9875
2832.03763	11669.4875
2834.56959	11721.6875
2837.1	11680.9875
2839.62884	11706.7875
2842.15613	11683.9875
2844.68186	11732.3875
2847.20604	11729.7875
2849.72867	11765.7875
2852.24974	11754.6875
2854.76927	11748.2875
2857.28724	11730.0875
2859.80367	11689.1875
2862.31855	11670.0875
2864.83189	11661.2875
2867.34368	11666.1875
2869.85393	11655.9875
2872.36264	11653.9875
2874.8698	11614.0875
2877.37543	11635.4875
2879.87952	11605.2875
2882.38207	11646.3875
2884.88308	11643.7875
2887.38256	11623.0875
2889.88051	11641.7875
2892.37692	11626.5875
2894.8718	11645.3875
2897.36515	11666.3875
2899.85698	11683.0875
2902.34727	11690.5875
2904.83604	11673.9875
2907.32328	11698.3875
2909.809	11683.0875
2912.29319	11694.4875
2914.77587	11684.8875
2917.25702	11673.5875
2919.73665	11658.7875
2922.21476	11676.4875
2924.69136	11636.8875
2927.16644	11626.6875
2929.64	11611.5875
2932.11205	11613.0875
2934.58258	11591.2875
2937.05161	11592.5875
2939.51912	11599.6875
2941.98513	11561.3875
2944.44962	11540.1875
2946.91261	11509.9875
2949.37409	11520.5875
2951.83407	11455.9875
2954.29254	11463.7875
2956.74951	11438.3875
2959.20498	11442.3875
2961.65895	11436.0875
2964.11142	11419.8875
2966.56239	11408.2875
2969.01186	11381.0875
2971.45984	11363.5875
2973.90632	11353.8875
2976.35131	11337.9875
2978.7948	11308.3875
2981.23681	11271.6875
2983.67732	11260.0875
2986.11635	11237.4875
2988.55388	11195.1875
2990.98993	11157.8875
2993.4245	11138.3875
2995.85758	11088.8875
2998.28917	11110.8875
3000.71928	11085.2875
3003.14791	11078.3875
3005.57506	11046.3875
3008.00073	11020.6875
3010.42493	11028.4875
3012.84764	11004.8875
3015.26888	10992.4875
3017.68865	10964.2875
3020.10694	10954.4875
3022.52376	10929.9875
3024.9391	10925.7875
3027.35298	10897.2875
3029.76539	10913.2875
3032.17632	10910.3875
3034.5858	10873.6875
3036.9938	10855.3875
3039.40034	10858.4875
3041.80542	10857.3875
3044.20903	10836.2875
3046.61118	10840.7875
3049.01187	10792.5875
3051.4111	10780.6875
3053.80888	10779.9875
3056.20519	10758.6875
3058.60005	10726.1875
3060.99345	10688.9875
3063.3854	10662.0875
3065.7759	10637.4875
3068.16494	10613.3875
3070.55254	10593.1875
3072.93868	10554.7875
3075.32338	10534.6875
3077.70662	10532.8875
3080.08842	10512.2875
3082.46878	10512.4875
3084.84769	10469.1875
3087.22515	10452.2875
3089.60118	10473.3875
3091.97576	10460.0875
3094.3489	10474.7875
3096.72061	10486.6875
3099.09087	10465.2875
3101.4597	10427.7875
3103.82709	10475.0875
3106.19305	10442.9875
3108.55757	10435.9875
3110.92066	10441.6875
3113.28232	10389.2875
3115.64255	10363.4875
3118.00134	10370.3875
3120.35871	10335.7875
3122.71466	10317.2875
3125.06917	10326.5875
3127.42226	10279.5875
3129.77393	10281.5875
3132.12417	10292.8875
3134.47299	10258.4875
3136.82039	10254.8875
3139.16636	10256.7875
3141.51092	10265.3875
3143.85406	10285.3875
3146.19579	10293.7875
3148.53609	10279.1875
3150.87499	10301.9875
3153.21246	10305.8875
3155.54853	10316.0875
3157.88318	10281.4875
3160.21642	10306.8875
3162.54826	10307.0875
3164.87868	10287.5875
3167.2077	10288.8875
3169.5353	10298.4875
3171.86151	10288.6875
3174.18631	10293.5875
3176.5097	10271.9875
3178.83169	10277.7875
3181.15228	10241.1875
3183.47147	10227.5875
3185.78926	10245.3875
3188.10565	10237.6875
3190.42065	10226.7875
3192.73424	10231.2875
3195.04645	10209.1875
3197.35725	10233.1875
3199.66667	10231.7875
3201.97469	10215.8875
3204.28132	10217.2875
3206.58656	10251.5875
3208.8904	10273.8875
3211.19287	10272.8875
3213.49394	10274.3875
3215.79363	10244.5875
3218.09193	10264.8875
3220.38884	10259.7875
3222.68438	10247.8875
3224.97853	10239.7875
3227.2713	10242.2875
3229.56269	10231.6875
3231.8527	10222.5875
3234.14133	10229.0875
3236.42858	10205.4875
3238.71446	10215.1875
3240.99896	10175.0875
3243.28209	10175.4875
3245.56384	10133.3875
3247.84423	10155.7875
3250.12324	10165.9875
3252.40088	10143.5875
3254.67715	10135.7875
3256.95205	10130.8875
3259.22558	10127.3875
3261.49775	10112.5875
3263.76855	10114.6875
3266.03799	10069.8875
3268.30606	10080.0875
3270.57277	10067.5875
3272.83812	10045.2875
3275.10211	10023.1875
3277.36474	9992.7875
3279.62601	10002.3875
3281.88593	10001.8875
3284.14448	10013.0875
3286.40168	10017.5875
3288.65753	9997.0875
3290.91202	9988.6875
3293.16516	9949.7875
3295.41695	9937.2875
3297.66738	9876.4875
3299.91647	9856.0875
3302.16421	9780.6875
3304.4106	9755.2875
3306.65564	9692.8875
3308.89933	9629.7875
3311.14169	9570.0875
3313.38269	9531.7875
3315.62236	9451.1875
3317.86068	9379.7875
3320.09766	9317.6875
3322.3333	9250.6875
3324.5676	9227.4875
3326.80056	9087.1875
3329.03219	9050.5875
3331.26248	3.2875
3333.49143	-0.6125
3335.71905	-0.8125
