Data from AgNPs_FTO_APTES_UA_1uM_CRN_500uM_R6G_10uM_NaF_0.1M_Addition_RamanShift__30__18-19-39-892.txt Node

Date: Thu Jan 27 18:19:39 GMT 2022
User: TCL
Spectrometer: QEP01345
Trigger mode: 4
Integration Time (sec): 7.000000E0
Scans to average: 10
Electric dark correction enabled: true
Nonlinearity correction enabled: false
Boxcar width: 0
XAxis mode: Raman Shifts
Number of Pixels in Spectrum: 1044
>>>>>Begin Spectral Data<<<<<
46.04893	1.4
50.45542	1
54.85868	-1.3
59.25871	-2.4
63.6555	28.9
68.04907	34.3
72.43941	35.3
76.82654	40.3
81.21044	41.3
85.59113	39.2
89.96862	42.5
94.34289	44.3
98.71396	50.2
103.08183	48.5
107.4465	49.5
111.80798	50.6
116.16626	46.6
120.52136	52.3
124.87327	49.4
129.222	50.3
133.56755	47.3
137.90993	49.3
142.24913	53.3
146.58517	58
150.91804	66.8
155.24774	64.7
159.57429	73.8
163.89768	91
168.21792	117.5
172.53501	147.5
176.84895	195.6
181.15975	265.1
185.46741	362.7
189.77193	498.8
194.07331	658.1
198.37157	850.9
202.6667	1045.3
206.9587	1242.6
211.24758	1442.6
215.53334	1639.2
219.81599	1865.2
224.09553	2099.5
228.37195	2381.9
232.64527	2658.9
236.91549	2968.2
241.18261	3244.7
245.44663	3472.8
249.70755	3691.2
253.96539	3862.5
258.22014	3994.7
262.4718	4105.7
266.72039	4171.3
270.96589	4239.6
275.20832	4214.3
279.44768	4191.8
283.68397	4128.6
287.91719	4082
292.14735	4068.4
296.37445	4120.8
300.59849	4227.5
304.81948	4384.8
309.03742	4493.9
313.25231	4483.2
317.46415	4305.3
321.67296	4032.1
325.87872	3784.8
330.08145	3666.4
334.28114	3666.1
338.47781	3711
342.67145	3816
346.86207	3984.4
351.04966	4196.5
355.23424	4425.3
359.4158	4591
363.59435	4680.3
367.76989	4703.3
371.94243	4683.1
376.11196	4663.3
380.27849	4648.3
384.44203	4589.6
388.60257	4525.5
392.76012	4516.9
396.91468	4569.4
401.06626	4684.2
405.21485	4795.2
409.36047	4755.8
413.50311	4545.3
417.64277	4353.9
421.77947	4231.4
425.9132	4153.5
430.04396	4131.3
434.17176	4144.6
438.2966	4207.1
442.41849	4278.1
446.53742	4397.3
450.6534	4489.2
454.76644	4570.5
458.87653	4590.7
462.98368	4563.9
467.08789	4515.6
471.18916	4437.9
475.2875	4351.2
479.38291	4277.8
483.4754	4215.3
487.56496	4185
491.6516	4156.1
495.73531	4142.3
499.81612	4161.2
503.89401	4204.9
507.96899	4252.6
512.04106	4306.3
516.11023	4358.8
520.1765	4406.6
524.23987	4396
528.30034	4324.8
532.35792	4215
536.41261	4145.4
540.46441	4033
544.51333	3999.7
548.55936	4042.5
552.60252	4081
556.64279	4164.9
560.6802	4224.9
564.71473	4274
568.7464	4443.2
572.7752	4539.9
576.80114	4452.1
580.82422	4337
584.84444	4292.2
588.86181	4254.8
592.87633	4249.3
596.888	4267.2
600.89682	4392.9
604.9028	4779.8
608.90594	5860.5
612.90624	7343.8
616.90371	7256.3
620.89834	5364.3
624.89015	4392.3
628.87913	4183.4
632.86528	4183.5
636.84862	4212.4
640.82913	4206.6
644.80683	4081.7
648.78172	3980.2
652.75379	3999.8
656.72306	4155.2
660.68952	4330.1
664.65319	4319.1
668.61405	4133.6
672.57211	4044.8
676.52738	4058.5
680.47986	4080.5
684.42955	4061.3
688.37646	4049.8
692.32058	4071.3
696.26192	4084.5
700.20048	4119.8
704.13626	4170
708.06928	4135.2
711.99952	4072.8
715.927	4049.2
719.85171	4033.4
723.77365	4035
727.69284	4019.6
731.60928	4006.7
735.52295	3976.7
739.43388	3988.7
743.34206	4000.6
747.24749	4025.5
751.15017	4054.4
755.05012	4116.4
758.94733	4298
762.8418	4621
766.73354	5233
770.62254	5894.5
774.50882	6261.6
778.39237	6099.4
782.27321	5408.9
786.15132	4698.7
790.02671	4277.1
793.89938	4098.2
797.76935	4037.4
801.6366	4000.4
805.50115	3976.7
809.36299	3969.7
813.22213	3961.3
817.07857	3955.5
820.93231	3946.1
824.78336	3987.3
828.63172	3993.2
832.47738	3976.3
836.32036	3990
840.16066	3994.7
843.99827	3956.7
847.8332	3945.8
851.66546	3955.5
855.49504	3942.5
859.32195	3931.9
863.1462	3930.6
866.96777	3905.6
870.78668	3879.7
874.60293	3895.7
878.41652	3878
882.22745	3904.8
886.03573	3930.7
889.84136	3936.3
893.64433	3910.7
897.44466	3891
901.24235	3899.4
905.0374	3879.9
908.8298	3855.8
912.61957	3854.4
916.40671	3881.2
920.19121	3897.7
923.97308	3954.7
927.75233	3979.9
931.52895	4012.6
935.30295	3989.6
939.07433	3869.9
942.84309	3787.5
946.60924	3720.5
950.37278	3677.1
954.13371	3653.8
957.89203	3644.7
961.64774	3621.6
965.40086	3600.7
969.15137	3594.9
972.89929	3575.3
976.64461	3557.7
980.38733	3569
984.12747	3573.8
987.86502	3582
991.59999	3588.8
995.33237	3621.7
999.06217	3659.8
1002.78939	3717
1006.51404	3776.3
1010.23611	3833.8
1013.95561	3885.9
1017.67255	3856.6
1021.38692	3827.7
1025.09872	3795.2
1028.80796	3765.8
1032.51465	3767.8
1036.21877	3810.4
1039.92035	3881.5
1043.61937	3900.1
1047.31584	3910.5
1051.00976	3904.7
1054.70114	3886.5
1058.38998	3869.5
1062.07627	3894.9
1065.76003	3915.7
1069.44126	3942.7
1073.11995	3975
1076.79611	4023.6
1080.46974	4071.8
1084.14085	4128.5
1087.80943	4190.3
1091.47549	4214.5
1095.13903	4152.6
1098.80005	4040.4
1102.45857	3923.4
1106.11456	3862.4
1109.76805	3856
1113.41903	3944.8
1117.06751	4034.1
1120.71348	4176.1
1124.35696	4355.5
1127.99793	4503.5
1131.63641	4508.6
1135.2724	4307.3
1138.90589	4119.7
1142.5369	3982.7
1146.16542	3934.1
1149.79145	3881.2
1153.415	3879.2
1157.03607	3905.2
1160.65467	3964.3
1164.27079	4081.4
1167.88443	4250.9
1171.49561	4530
1175.10432	5015.3
1178.71056	5637
1182.31434	6001.6
1185.91565	6033
1189.51451	5869.1
1193.11091	5549.3
1196.70485	5211.2
1200.29634	4962.6
1203.88538	4730
1207.47197	4485.1
1211.05612	4300.1
1214.63782	4174.6
1218.21708	4143.5
1221.79391	4149.3
1225.36829	4201.3
1228.94024	4241.6
1232.50976	4287
1236.07685	4307.7
1239.6415	4316.7
1243.20374	4316.1
1246.76355	4324
1250.32093	4337.5
1253.8759	4393.1
1257.42845	4494.9
1260.97859	4605.2
1264.52631	4699.1
1268.07163	4798.3
1271.61453	4902
1275.15503	4983.5
1278.69312	5002.5
1282.22882	5008.1
1285.76211	5082.3
1289.29301	5221
1292.82151	5363.5
1296.34761	5496.6
1299.87133	5693
1303.39266	6038.9
1306.9116	6586.7
1310.42815	7244.5
1313.94233	7657.8
1317.45412	7545.7
1320.96354	7099.8
1324.47058	6602.4
1327.97525	6190
1331.47754	5956.9
1334.97747	5864.6
1338.47502	5887.1
1341.97022	5986
1345.46305	6153.8
1348.95352	6455.3
1352.44163	6867.6
1355.92738	7497.4
1359.41078	8394.9
1362.89183	9243.3
1366.37053	9042.4
1369.84688	7864.4
1373.32088	6659.9
1376.79254	5846.4
1380.26186	5426
1383.72883	5163.1
1387.19347	4965.4
1390.65578	4779.9
1394.11575	4608
1397.57339	4526.6
1401.0287	4542.4
1404.48168	4575.1
1407.93234	4621.1
1411.38068	4655.4
1414.82669	4653.1
1418.27039	4602.1
1421.71177	4549
1425.15083	4506.1
1428.58758	4482.1
1432.02203	4501.2
1435.45416	4537.9
1438.88399	4537.4
1442.31151	4530.3
1445.73673	4513.3
1449.15965	4494.4
1452.58027	4485.9
1455.9986	4430.2
1459.41463	4440.7
1462.82837	4460.9
1466.23982	4517.7
1469.64898	4591.3
1473.05586	4653.3
1476.46045	4680.5
1479.86276	4780.5
1483.26279	4847
1486.66054	4977.1
1490.05602	5133.9
1493.44922	5347.7
1496.84016	5673.9
1500.22882	6173.5
1503.61521	6817
1506.99934	7490.5
1510.38121	8155.9
1513.76081	8489.3
1517.13816	8166.9
1520.51324	7260.9
1523.88607	6315.8
1527.25665	5695.9
1530.62498	5325.5
1533.99105	5123.2
1537.35488	4990.1
1540.71647	4923.6
1544.07581	4895.1
1547.4329	4893.2
1550.78776	4864.7
1554.14038	4853
1557.49077	4887
1560.83892	4965
1564.18484	5077.1
1567.52853	5209.4
1570.86999	5342.1
1574.20922	5424.3
1577.54624	5389.8
1580.88103	5181.3
1584.2136	4850.8
1587.54395	4679.1
1590.87208	4695.7
1594.19801	4846.2
1597.52172	5118.3
1600.84321	5262.5
1604.16251	5125.2
1607.47959	4854.1
1610.79447	4576.5
1614.10715	4287.4
1617.41763	4086.5
1620.7259	3932.6
1624.03199	3868.2
1627.33587	3867.5
1630.63757	3903.1
1633.93707	4026.2
1637.23439	4226.3
1640.52951	4512.8
1643.82246	4952.2
1647.11321	5431.2
1650.40179	5825.2
1653.68819	5748.5
1656.97241	5153.3
1660.25446	4435.4
1663.53433	3906.2
1666.81203	3615.3
1670.08756	3450.2
1673.36092	3358.2
1676.63211	3287.1
1679.90115	3268.6
1683.16801	3218.3
1686.43272	3184.9
1689.69527	3144.8
1692.95567	3107
1696.2139	3057.1
1699.46999	3007.7
1702.72392	2989.2
1705.97571	3012.1
1709.22535	3036.1
1712.47284	3060.8
1715.71819	3078.7
1718.96139	3090.9
1722.20246	3090.4
1725.44139	3097.1
1728.67818	3075.6
1731.91284	3043.2
1735.14537	3024.5
1738.37576	3007.1
1741.60403	2975.4
1744.83017	2958.4
1748.05418	2954.6
1751.27607	2937.1
1754.49584	2922.6
1757.71349	2898.5
1760.92903	2874.4
1764.14244	2845.6
1767.35375	2851.2
1770.56294	2827.2
1773.77002	2834.5
1776.97499	2829.6
1780.17785	2841.1
1783.37861	2848.2
1786.57727	2844.4
1789.77382	2839.1
1792.96828	2831.6
1796.16064	2844.5
1799.3509	2827.5
1802.53907	2832.7
1805.72514	2822.6
1808.90913	2811.3
1812.09102	2801.3
1815.27083	2795.4
1818.44856	2782.6
1821.6242	2777.8
1824.79776	2779.6
1827.96924	2774.1
1831.13864	2763.4
1834.30597	2762.7
1837.47122	2760.5
1840.6344	2745.9
1843.7955	2742.3
1846.95454	2749.9
1850.11151	2739.8
1853.26642	2745.9
1856.41926	2738.3
1859.57004	2751.5
1862.71876	2732.7
1865.86542	2738.1
1869.01003	2736.5
1872.15258	2738.8
1875.29308	2741
1878.43152	2730.6
1881.56792	2729.2
1884.70227	2713.2
1887.83457	2735.9
1890.96482	2718.1
1894.09304	2712.8
1897.21921	2721.9
1900.34335	2717.1
1903.46544	2726.2
1906.58551	2716.4
1909.70353	2716
1912.81953	2725
1915.93349	2720.5
1919.04543	2704.9
1922.15534	2711.6
1925.26322	2708.5
1928.36908	2710.5
1931.47292	2682.7
1934.57473	2671.8
1937.67453	2678.1
1940.77232	2658.1
1943.86808	2639.7
1946.96184	2627.4
1950.05358	2618.6
1953.14331	2607.2
1956.23103	2595.3
1959.31675	2588.3
1962.40046	2572.4
1965.48217	2575.6
1968.56188	2565.3
1971.63959	2553.3
1974.7153	2552.4
1977.78901	2531.9
1980.86073	2524.8
1983.93046	2506.2
1986.99819	2518.4
1990.06394	2501.9
1993.1277	2490.4
1996.18947	2490.2
1999.24925	2486.6
2002.30706	2472.3
2005.36288	2457.8
2008.41672	2460
2011.46859	2460.4
2014.51848	2431.2
2017.56639	2441.5
2020.61233	2437.2
2023.6563	2420
2026.6983	2427.5
2029.73833	2417.4
2032.7764	2399.7
2035.8125	2390
2038.84664	2389
2041.87881	2382
2044.90903	2366.1
2047.93729	2375.4
2050.96359	2367.4
2053.98794	2372.6
2057.01034	2355.6
2060.03078	2359.5
2063.04927	2349.4
2066.06582	2344.8
2069.08042	2359.4
2072.09307	2352.1
2075.10378	2343.8
2078.11255	2345.7
2081.11938	2336.4
2084.12426	2335.3
2087.12722	2332.3
2090.12824	2347.8
2093.12732	2336.1
2096.12447	2344.5
2099.11969	2336.4
2102.11299	2334
2105.10435	2325.7
2108.09379	2324.9
2111.08131	2330.5
2114.0669	2334.6
2117.05057	2337.7
2120.03233	2327.9
2123.01216	2347
2125.99008	2345
2128.96609	2353.9
2131.94018	2345.1
2134.91236	2332
2137.88263	2350.2
2140.851	2338.3
2143.81746	2331.6
2146.78201	2345.9
2149.74466	2338.9
2152.7054	2343.3
2155.66425	2342
2158.6212	2330.5
2161.57625	2328.2
2164.52941	2332.1
2167.48067	2322.6
2170.43004	2335.5
2173.37752	2317.9
2176.32311	2323.5
2179.26681	2325.1
2182.20863	2319.5
2185.14856	2321.8
2188.08661	2322.7
2191.02278	2310.9
2193.95707	2308
2196.88948	2299.6
2199.82001	2309.6
2202.74867	2299.3
2205.67545	2297
2208.60037	2295.4
2211.52341	2292
2214.44458	2274.2
2217.36388	2280.7
2220.28132	2283.9
2223.1969	2273.1
2226.11061	2262.2
2229.02246	2256.7
2231.93245	2243.1
2234.84058	2247.5
2237.74686	2241.3
2240.65128	2239.4
2243.55385	2258
2246.45456	2234.1
2249.35343	2230
2252.25044	2229.6
2255.14561	2231.3
2258.03893	2230.7
2260.93041	2212.9
2263.82004	2216.2
2266.70783	2217.8
2269.59378	2210.8
2272.4779	2203.5
2275.36017	2194.6
2278.24061	2185
2281.11922	2197.6
2283.996	2190.3
2286.87094	2174.7
2289.74405	2169.7
2292.61534	2163.3
2295.4848	2160
2298.35243	2153.6
2301.21824	2154.6
2304.08223	2146.4
2306.94439	2154
2309.80474	2154.8
2312.66327	2154.4
2315.51999	2148.6
2318.37489	2135.9
2321.22797	2137.9
2324.07925	2141.5
2326.92871	2132.1
2329.77637	2135.9
2332.62222	2122.3
2335.46626	2117
2338.3085	2118.3
2341.14893	2121.8
2343.98756	2110.9
2346.8244	2104
2349.65943	2104.7
2352.49267	2103.1
2355.32411	2109.9
2358.15376	2098.9
2360.98161	2109.5
2363.80768	2107.6
2366.63195	2121.2
2369.45444	2119
2372.27514	2124.8
2375.09405	2118.4
2377.91118	2103.9
2380.72652	2092.9
2383.54009	2081.4
2386.35187	2081.6
2389.16188	2076.2
2391.97011	2064.8
2394.77657	2062.2
2397.58125	2055.6
2400.38416	2047.7
2403.18529	2047
2405.98466	2037.9
2408.78226	2038.6
2411.57809	2040.4
2414.37216	2023
2417.16446	2030.7
2419.955	2021.6
2422.74378	2031.2
2425.5308	2016.7
2428.31606	2028.6
2431.09956	2016.3
2433.88131	2014.9
2436.6613	2018.6
2439.43954	2014.3
2442.21603	2014.8
2444.99077	2011.6
2447.76377	2009.1
2450.53501	2007.9
2453.30451	2006.8
2456.07226	2009.9
2458.83827	1999.2
2461.60254	1998.9
2464.36507	2002.3
2467.12586	1998.8
2469.88492	1999.4
2472.64224	1998.9
2475.39782	1989.3
2478.15167	1992.5
2480.90379	1990.2
2483.65417	2002
2486.40283	1998.2
2489.14976	2008.4
2491.89497	2006.3
2494.63845	1988.3
2497.3802	1988.8
2500.12024	1986.2
2502.85855	1986.6
2505.59514	1984.8
2508.33002	1971.5
2511.06318	1982.8
2513.79462	1968.5
2516.52435	1957
2519.25237	1958.1
2521.97867	1956.2
2524.70327	1945.2
2527.42616	1944.2
2530.14734	1945
2532.86681	1931.9
2535.58458	1931.2
2538.30065	1933.7
2541.01501	1934
2543.72768	1932
2546.43864	1934.2
2549.14791	1928.3
2551.85548	1927.4
2554.56136	1921.8
2557.26554	1921.5
2559.96803	1906
2562.66883	1903.3
2565.36794	1917.6
2568.06536	1910.6
2570.7611	1909.2
2573.45514	1896.9
2576.14751	1889.9
2578.83819	1883.9
2581.52719	1894.2
2584.21451	1889
2586.90015	1885.9
2589.58411	1881.1
2592.2664	1888.6
2594.94701	1875.4
2597.62594	1877.9
2600.30321	1866.3
2602.9788	1867
2605.65273	1862.5
2608.32498	1856.5
2610.99557	1859.4
2613.66449	1864.5
2616.33175	1859.8
2618.99734	1852.4
2621.66128	1858
2624.32355	1842.7
2626.98416	1846.5
2629.64311	1848.1
2632.30041	1841.3
2634.95605	1841.3
2637.61004	1831.1
2640.26238	1827.2
2642.91306	1820.5
2645.56209	1823.9
2648.20948	1825.3
2650.85521	1811.7
2653.4993	1818.6
2656.14175	1817.5
2658.78255	1833.2
2661.42171	1825.6
2664.05923	1825
2666.6951	1834.7
2669.32934	1841
2671.96194	1834.3
2674.59291	1832.6
2677.22224	1833.6
2679.84993	1840.9
2682.476	1833.4
2685.10043	1820.9
2687.72324	1824.8
2690.34441	1832
2692.96396	1830.9
2695.58188	1839.4
2698.19818	1836.2
2700.81285	1848.4
2703.4259	1843
2706.03733	1825.8
2708.64714	1816.2
2711.25533	1833.7
2713.86191	1838.7
2716.46687	1846.8
2719.07021	1857.8
2721.67194	1847.7
2724.27206	1862.1
2726.87057	1855
2729.46747	1878.6
2732.06276	1857.9
2734.65644	1853
2737.24852	1843
2739.83899	1833.2
2742.42786	1838
2745.01513	1823.7
2747.60079	1820.6
2750.18486	1816.2
2752.76733	1814.2
2755.3482	1813.8
2757.92747	1826.9
2760.50515	1810.2
2763.08123	1803.9
2765.65573	1813.5
2768.22863	1801.8
2770.79994	1803
2773.36967	1803.4
2775.9378	1801
2778.50435	1800.8
2781.06932	1795.5
2783.6327	1788.6
2786.1945	1796.4
2788.75471	1804.3
2791.31335	1799.4
2793.87041	1810.8
2796.42589	1797.6
2798.97979	1804.9
2801.53212	1802.3
2804.08288	1808.3
2806.63206	1807.2
2809.17967	1812.1
2811.72571	1824.9
2814.27018	1814.4
2816.81308	1827
2819.35442	1828.9
2821.89419	1836.1
2824.43239	1834.5
2826.96904	1837.8
2829.50412	1852
2832.03763	1841.4
2834.56959	1856.8
2837.1	1877.5
2839.62884	1896.3
2842.15613	1926.8
2844.68186	2000.7
2847.20604	2060.7
2849.72867	2119.1
2852.24974	2137.4
2854.76927	2123.9
2857.28724	2114.2
2859.80367	2104.4
2862.31855	2091.7
2864.83189	2075.8
2867.34368	2060
2869.85393	2065.6
2872.36264	2051
2874.8698	2061.4
2877.37543	2073.3
2879.87952	2052.1
2882.38207	2054.1
2884.88308	2050.1
2887.38256	2051.1
2889.88051	2041.8
2892.37692	2050
2894.8718	2054.2
2897.36515	2066.9
2899.85698	2061.9
2902.34727	2082.3
2904.83604	2068.6
2907.32328	2068.8
2909.809	2069.9
2912.29319	2071.5
2914.77587	2077.3
2917.25702	2067.9
2919.73665	2047.5
2922.21476	2057.3
2924.69136	2062
2927.16644	2052.8
2929.64	2053.2
2932.11205	2041.4
2934.58258	2026.6
2937.05161	2018.7
2939.51912	2006.7
2941.98513	1991.4
2944.44962	1938.9
2946.91261	1901.2
2949.37409	1889.7
2951.83407	1872.6
2954.29254	1842.4
2956.74951	1837.7
2959.20498	1825
2961.65895	1818.8
2964.11142	1812.5
2966.56239	1796.1
2969.01186	1779.5
2971.45984	1779.8
2973.90632	1760.6
2976.35131	1757.5
2978.7948	1740.3
2981.23681	1742
2983.67732	1730.8
2986.11635	1724.7
2988.55388	1715.2
2990.98993	1712.8
2993.4245	1707.8
2995.85758	1697.8
2998.28917	1695.9
3000.71928	1695.9
3003.14791	1682.6
3005.57506	1689.3
3008.00073	1685.4
3010.42493	1668.7
3012.84764	1681.7
3015.26888	1688.1
3017.68865	1678
3020.10694	1679.6
3022.52376	1670.4
3024.9391	1666.8
3027.35298	1665.9
3029.76539	1674.4
3032.17632	1671.6
3034.5858	1667
3036.9938	1685.8
3039.40034	1664.1
3041.80542	1685.1
3044.20903	1666.3
3046.61118	1668.9
3049.01187	1664
3051.4111	1669.3
3053.80888	1664.9
3056.20519	1676.3
3058.60005	1670.2
3060.99345	1669.3
3063.3854	1673.4
3065.7759	1675.1
3068.16494	1681.1
3070.55254	1668.5
3072.93868	1669
3075.32338	1673.8
3077.70662	1671.1
3080.08842	1660.2
3082.46878	1654.2
3084.84769	1660.2
3087.22515	1657.7
3089.60118	1665.4
3091.97576	1667.9
3094.3489	1674.5
3096.72061	1666.8
3099.09087	1671.5
3101.4597	1673.5
3103.82709	1667.5
3106.19305	1681.3
3108.55757	1670.7
3110.92066	1678.5
3113.28232	1674
3115.64255	1680.4
3118.00134	1687.1
3120.35871	1680.7
3122.71466	1692.9
3125.06917	1691.9
3127.42226	1700.9
3129.77393	1698.5
3132.12417	1704.4
3134.47299	1706.4
3136.82039	1714.3
3139.16636	1720.2
3141.51092	1727.8
3143.85406	1731.7
3146.19579	1732.9
3148.53609	1736.1
3150.87499	1742.5
3153.21246	1756.2
3155.54853	1767.2
3157.88318	1774.9
3160.21642	1778.6
3162.54826	1786.2
3164.87868	1793.7
3167.2077	1793.4
3169.5353	1802
3171.86151	1796.6
3174.18631	1805
3176.5097	1813
3178.83169	1820.2
3181.15228	1815.6
3183.47147	1820.4
3185.78926	1835.3
3188.10565	1835.7
3190.42065	1838.7
3192.73424	1832.4
3195.04645	1841.6
3197.35725	1850.7
3199.66667	1849.4
3201.97469	1848.9
3204.28132	1865.1
3206.58656	1863.4
3208.8904	1868.8
3211.19287	1877.2
3213.49394	1885.4
3215.79363	1888.2
3218.09193	1891.2
3220.38884	1888.5
3222.68438	1885
3224.97853	1896.4
3227.2713	1888.6
3229.56269	1888.7
3231.8527	1896.1
3234.14133	1896.1
3236.42858	1894.2
3238.71446	1892.6
3240.99896	1880
3243.28209	1889
3245.56384	1888.1
3247.84423	1891.3
3250.12324	1899.6
3252.40088	1883.6
3254.67715	1885.7
3256.95205	1891.3
3259.22558	1884.5
3261.49775	1896.8
3263.76855	1894.7
3266.03799	1885
3268.30606	1882.9
3270.57277	1878.8
3272.83812	1865.1
3275.10211	1876.5
3277.36474	1875.2
3279.62601	1873
3281.88593	1864.7
3284.14448	1871.9
3286.40168	1884
3288.65753	1864.2
3290.91202	1873.5
3293.16516	1869.9
3295.41695	1870.7
3297.66738	1849.7
3299.91647	1842.2
3302.16421	1841.3
3304.4106	1826.9
3306.65564	1819.2
3308.89933	1810.1
3311.14169	1805.5
3313.38269	1784.2
3315.62236	1784.2
3317.86068	1766
3320.09766	1761.1
3322.3333	1750.3
3324.5676	1737.9
3326.80056	1703
3329.03219	1694.9
3331.26248	0.2
3333.49143	0
3335.71905	-0.8
