Data from AgNPs_FTO_APTES_UA_1uM_CRN_100uM_R6G_10uM_NaF_0.1M_Addition_RamanShift__5__16-26-29-769.txt Node

Date: Thu Jan 27 16:26:29 GMT 2022
User: TCL
Spectrometer: QEP01345
Trigger mode: 4
Integration Time (sec): 7.000000E0
Scans to average: 10
Electric dark correction enabled: true
Nonlinearity correction enabled: false
Boxcar width: 0
XAxis mode: Raman Shifts
Number of Pixels in Spectrum: 1044
>>>>>Begin Spectral Data<<<<<
46.04893	2.3
50.45542	1.2
54.85868	-1
59.25871	-2.6
63.6555	41.4
68.04907	48.6
72.43941	51.7
76.82654	47.9
81.21044	53.8
85.59113	55
89.96862	57.5
94.34289	60.4
98.71396	61.9
103.08183	60.6
107.4465	65.5
111.80798	66.4
116.16626	65.5
120.52136	70.7
124.87327	70
129.222	72.7
133.56755	75.5
137.90993	75.6
142.24913	83.4
146.58517	95.3
150.91804	105.8
155.24774	120.1
159.57429	148.5
163.89768	183.1
168.21792	244.9
172.53501	324.9
176.84895	447.4
181.15975	623.1
185.46741	872.4
189.77193	1194.1
194.07331	1590.7
198.37157	2064.4
202.6667	2539
206.9587	3036.8
211.24758	3502.5
215.53334	3968.4
219.81599	4466.3
224.09553	5007.2
228.37195	5617.5
232.64527	6250.6
236.91549	6942.4
241.18261	7649.3
245.44663	8295.6
249.70755	8902.3
253.96539	9457.3
258.22014	9886.5
262.4718	10257.1
266.72039	10525.4
270.96589	10679.8
275.20832	10706.4
279.44768	10641
283.68397	10575.6
287.91719	10484.1
292.14735	10441
296.37445	10433.7
300.59849	10480.8
304.81948	10533.5
309.03742	10483.4
313.25231	10427.5
317.46415	10217.1
321.67296	9953.1
325.87872	9740.2
330.08145	9647.8
334.28114	9622.2
338.47781	9678.2
342.67145	9758.6
346.86207	9902.9
351.04966	10073.8
355.23424	10235.4
359.4158	10383.3
363.59435	10539
367.76989	10622
371.94243	10682.3
376.11196	10745
380.27849	10774.2
384.44203	10821.1
388.60257	10911.3
392.76012	11016.5
396.91468	11180.3
401.06626	11303.4
405.21485	11432.8
409.36047	11385.7
413.50311	11261
417.64277	11181.2
421.77947	11168.3
425.9132	11212.2
430.04396	11255.4
434.17176	11343.7
438.2966	11393.3
442.41849	11547.6
446.53742	11808
450.6534	12094.6
454.76644	12364.9
458.87653	12431.4
462.98368	12408.4
467.08789	12305
471.18916	12175.5
475.2875	12068.5
479.38291	12002.4
483.4754	11941.4
487.56496	11819.5
491.6516	11659.1
495.73531	11464
499.81612	11387.8
503.89401	11378.4
507.96899	11457.9
512.04106	11429.8
516.11023	11341.1
520.1765	11253.8
524.23987	11139.3
528.30034	11027.1
532.35792	10962.8
536.41261	10849.8
540.46441	10742.3
544.51333	10751.8
548.55936	10898.7
552.60252	11094.2
556.64279	11349.5
560.6802	11519.2
564.71473	11621.3
568.7464	11770.2
572.7752	12047.4
576.80114	12348.7
580.82422	12660.3
584.84444	13005.9
588.86181	13392.2
592.87633	13684.5
596.888	13519.7
600.89682	13130.1
604.9028	13077.2
608.90594	13743.1
612.90624	14505
616.90371	13777.2
620.89834	11937.4
624.89015	11114.1
628.87913	11052.8
632.86528	11113.8
636.84862	11074.2
640.82913	10922.5
644.80683	10738.4
648.78172	10583.8
652.75379	10570.5
656.72306	10616.5
660.68952	10785.6
664.65319	10702.5
668.61405	10545.3
672.57211	10492
676.52738	10540
680.47986	10549.2
684.42955	10513.5
688.37646	10464.6
692.32058	10495.1
696.26192	10616.8
700.20048	10741.4
704.13626	10825.6
708.06928	10826.4
711.99952	10789.1
715.927	10766.4
719.85171	10823.6
723.77365	10767.9
727.69284	10677.7
731.60928	10552.4
735.52295	10489.8
739.43388	10509.8
743.34206	10491.6
747.24749	10565.6
751.15017	10658.1
755.05012	10805.6
758.94733	11096.7
762.8418	11543.1
766.73354	12210.2
770.62254	12830.8
774.50882	12945.6
778.39237	12470.1
782.27321	11722.8
786.15132	11129.3
790.02671	10762
793.89938	10599.9
797.76935	10524.2
801.6366	10488.8
805.50115	10462.6
809.36299	10403
813.22213	10339.6
817.07857	10325.4
820.93231	10284.1
824.78336	10232.4
828.63172	10183.1
832.47738	10178
836.32036	10188.4
840.16066	10248.8
843.99827	10276
847.8332	10236.9
851.66546	10197.2
855.49504	10178.5
859.32195	10165.7
863.1462	10168.7
866.96777	10136
870.78668	10108.6
874.60293	10103.5
878.41652	10061.1
882.22745	10118.8
886.03573	10159.8
889.84136	10163.8
893.64433	10119.7
897.44466	10073.2
901.24235	10048.1
905.0374	10022.6
908.8298	10008.1
912.61957	10014.6
916.40671	10108.8
920.19121	10240.9
923.97308	10361.5
927.75233	10367.7
931.52895	10301
935.30295	10182.7
939.07433	10010.1
942.84309	9892
946.60924	9824.6
950.37278	9794
954.13371	9767.1
957.89203	9762.4
961.64774	9728.7
965.40086	9720.4
969.15137	9682.1
972.89929	9644.9
976.64461	9603.2
980.38733	9606.6
984.12747	9619.3
987.86502	9673.6
991.59999	9786.8
995.33237	9894.3
999.06217	10110.2
1002.78939	10353.2
1006.51404	10484.3
1010.23611	10558.4
1013.95561	10673.7
1017.67255	10667.2
1021.38692	10601.1
1025.09872	10498.6
1028.80796	10510.1
1032.51465	10717.3
1036.21877	10988.2
1039.92035	11094.6
1043.61937	11030.7
1047.31584	10807
1051.00976	10599.5
1054.70114	10503.8
1058.38998	10504.2
1062.07627	10536.8
1065.76003	10632.1
1069.44126	10705
1073.11995	10848.3
1076.79611	10952.4
1080.46974	11005.3
1084.14085	11025.1
1087.80943	11114.7
1091.47549	11187.4
1095.13903	11217.4
1098.80005	11122.7
1102.45857	10917
1106.11456	10719.3
1109.76805	10613.5
1113.41903	10617
1117.06751	10690.6
1120.71348	10749
1124.35696	10863
1127.99793	10960.4
1131.63641	11043.3
1135.2724	11005.7
1138.90589	10929.4
1142.5369	10946.4
1146.16542	11029.5
1149.79145	11100.4
1153.415	11195.8
1157.03607	11380.9
1160.65467	11678.9
1164.27079	12209.2
1167.88443	12778.6
1171.49561	13413.4
1175.10432	14182.1
1178.71056	15130.1
1182.31434	15998.5
1185.91565	16538.5
1189.51451	16419.3
1193.11091	16025.4
1196.70485	15561.2
1200.29634	15044.9
1203.88538	14682.7
1207.47197	14521.9
1211.05612	14310.3
1214.63782	14059.3
1218.21708	13718.1
1221.79391	13350.8
1225.36829	13102.2
1228.94024	12860.6
1232.50976	12647.3
1236.07685	12501.1
1239.6415	12395.6
1243.20374	12428.8
1246.76355	12535.1
1250.32093	12718.1
1253.8759	12929.9
1257.42845	13249.4
1260.97859	13567.6
1264.52631	13863.6
1268.07163	14245.3
1271.61453	14613.9
1275.15503	15035.4
1278.69312	15458.8
1282.22882	15887.7
1285.76211	16339.1
1289.29301	16920.6
1292.82151	17702.5
1296.34761	18645.8
1299.87133	19822.8
1303.39266	20995.2
1306.9116	22057.7
1310.42815	22810.6
1313.94233	23055.8
1317.45412	22800.6
1320.96354	22358.4
1324.47058	21958.4
1327.97525	21646.8
1331.47754	21409.7
1334.97747	21274.4
1338.47502	21055.7
1341.97022	20767.8
1345.46305	20483.3
1348.95352	20263
1352.44163	20261.2
1355.92738	20564.4
1359.41078	21297.5
1362.89183	21888.7
1366.37053	21550.1
1369.84688	20016.5
1373.32088	18039
1376.79254	16661.1
1380.26186	16154.7
1383.72883	16201.5
1387.19347	16308
1390.65578	16201.4
1394.11575	16136.9
1397.57339	16264.6
1401.0287	16535.7
1404.48168	16790.4
1407.93234	16707.4
1411.38068	16373.1
1414.82669	15831.9
1418.27039	15177.2
1421.71177	14508
1425.15083	13984.7
1428.58758	13697.6
1432.02203	13746
1435.45416	14083.9
1438.88399	14513
1442.31151	14886.4
1445.73673	15085
1449.15965	15248.1
1452.58027	15316.8
1455.9986	15327.9
1459.41463	15338.2
1462.82837	15453.7
1466.23982	15684.2
1469.64898	15897.5
1473.05586	16117.3
1476.46045	16167.6
1479.86276	16090.1
1483.26279	15928.4
1486.66054	15843.3
1490.05602	15860.4
1493.44922	15954.8
1496.84016	16137.2
1500.22882	16363.8
1503.61521	16725.3
1506.99934	17239.1
1510.38121	17634.4
1513.76081	17750
1517.13816	17520.1
1520.51324	17055.8
1523.88607	16711.6
1527.25665	16570
1530.62498	16559.7
1533.99105	16536.3
1537.35488	16367.4
1540.71647	16047.8
1544.07581	15628.3
1547.4329	15220.2
1550.78776	14840.9
1554.14038	14586.5
1557.49077	14451.7
1560.83892	14359.9
1564.18484	14350.3
1567.52853	14351.8
1570.86999	14515
1574.20922	14803.4
1577.54624	15074.6
1580.88103	15256.7
1584.2136	15393.7
1587.54395	15867.9
1590.87208	16603.4
1594.19801	17476
1597.52172	18279.8
1600.84321	18438.3
1604.16251	17642.6
1607.47959	16333.3
1610.79447	14947.7
1614.10715	13715.7
1617.41763	12761.3
1620.7259	12129.7
1624.03199	11805.3
1627.33587	11766.2
1630.63757	12084.4
1633.93707	12734.3
1637.23439	13811.1
1640.52951	15428.5
1643.82246	17334.2
1647.11321	18882.9
1650.40179	19302.4
1653.68819	18079.9
1656.97241	15882.4
1660.25446	13683.2
1663.53433	12038.9
1666.81203	10982.1
1670.08756	10304.1
1673.36092	9924.1
1676.63211	9616.9
1679.90115	9457.6
1683.16801	9300.1
1686.43272	9193.1
1689.69527	9103.6
1692.95567	9039.2
1696.2139	8949.2
1699.46999	8896
1702.72392	8854.8
1705.97571	8854.7
1709.22535	8853.1
1712.47284	8861.6
1715.71819	8878
1718.96139	8871.9
1722.20246	8834.4
1725.44139	8831.3
1728.67818	8781.8
1731.91284	8736.1
1735.14537	8683
1738.37576	8657.1
1741.60403	8624.1
1744.83017	8578.8
1748.05418	8546.6
1751.27607	8519.1
1754.49584	8513
1757.71349	8489.5
1760.92903	8468.6
1764.14244	8456.5
1767.35375	8468.2
1770.56294	8453.7
1773.77002	8436
1776.97499	8424.4
1780.17785	8452.5
1783.37861	8443.5
1786.57727	8444
1789.77382	8414.3
1792.96828	8408.6
1796.16064	8383.7
1799.3509	8361.9
1802.53907	8348.3
1805.72514	8347.5
1808.90913	8322.2
1812.09102	8309.2
1815.27083	8309.8
1818.44856	8288.1
1821.6242	8263.3
1824.79776	8239.4
1827.96924	8241.2
1831.13864	8260.9
1834.30597	8248.3
1837.47122	8250.2
1840.6344	8228.2
1843.7955	8228.3
1846.95454	8227.1
1850.11151	8230.8
1853.26642	8200.3
1856.41926	8220.4
1859.57004	8214.2
1862.71876	8199.4
1865.86542	8193.2
1869.01003	8184.9
1872.15258	8170.6
1875.29308	8171.1
1878.43152	8159.6
1881.56792	8155.9
1884.70227	8129.8
1887.83457	8115.5
1890.96482	8121.6
1894.09304	8116.2
1897.21921	8109.9
1900.34335	8099.8
1903.46544	8109.8
1906.58551	8085
1909.70353	8071.8
1912.81953	8053.6
1915.93349	8039
1919.04543	8026.9
1922.15534	8015
1925.26322	8002.7
1928.36908	8007.5
1931.47292	7974.9
1934.57473	7965.3
1937.67453	7951.3
1940.77232	7925.8
1943.86808	7883.5
1946.96184	7866.6
1950.05358	7861.5
1953.14331	7832.6
1956.23103	7787.6
1959.31675	7782.2
1962.40046	7777.6
1965.48217	7731.4
1968.56188	7719.8
1971.63959	7712.7
1974.7153	7700.6
1977.78901	7670.3
1980.86073	7634.4
1983.93046	7631.5
1986.99819	7599.6
1990.06394	7563.4
1993.1277	7548
1996.18947	7518.4
1999.24925	7509.4
2002.30706	7492.9
2005.36288	7486.7
2008.41672	7441.2
2011.46859	7442.3
2014.51848	7402.1
2017.56639	7408.2
2020.61233	7389.3
2023.6563	7374.3
2026.6983	7340.6
2029.73833	7330.7
2032.7764	7316.5
2035.8125	7303.8
2038.84664	7301
2041.87881	7296.8
2044.90903	7269.7
2047.93729	7251.6
2050.96359	7264.8
2053.98794	7231.8
2057.01034	7243.8
2060.03078	7255.1
2063.04927	7239.9
2066.06582	7237.7
2069.08042	7235.4
2072.09307	7222.5
2075.10378	7242.7
2078.11255	7201.5
2081.11938	7217.2
2084.12426	7191.7
2087.12722	7194.8
2090.12824	7175.4
2093.12732	7187.1
2096.12447	7191.1
2099.11969	7183.8
2102.11299	7195.7
2105.10435	7223.5
2108.09379	7209.3
2111.08131	7220.9
2114.0669	7220.1
2117.05057	7227.2
2120.03233	7209.5
2123.01216	7217.7
2125.99008	7244.9
2128.96609	7238.7
2131.94018	7248.8
2134.91236	7261.2
2137.88263	7289.5
2140.851	7268.3
2143.81746	7276.7
2146.78201	7277.3
2149.74466	7279
2152.7054	7287.2
2155.66425	7282
2158.6212	7275.9
2161.57625	7274.1
2164.52941	7252.7
2167.48067	7261.6
2170.43004	7281.6
2173.37752	7247.7
2176.32311	7263
2179.26681	7273.8
2182.20863	7269.8
2185.14856	7262.4
2188.08661	7275.1
2191.02278	7283.1
2193.95707	7278.4
2196.88948	7296.3
2199.82001	7255.9
2202.74867	7247.9
2205.67545	7247.7
2208.60037	7248.7
2211.52341	7231.2
2214.44458	7216
2217.36388	7206.6
2220.28132	7207.9
2223.1969	7190.6
2226.11061	7190.1
2229.02246	7170.8
2231.93245	7163.4
2234.84058	7150.5
2237.74686	7157.8
2240.65128	7144.7
2243.55385	7130.8
2246.45456	7125.4
2249.35343	7109.9
2252.25044	7068.4
2255.14561	7076.8
2258.03893	7075.6
2260.93041	7036.7
2263.82004	7037.6
2266.70783	7023.1
2269.59378	6996.4
2272.4779	6991.7
2275.36017	6983.1
2278.24061	6961.7
2281.11922	6980.3
2283.996	6969.3
2286.87094	6942.1
2289.74405	6938.9
2292.61534	6937.8
2295.4848	6934.3
2298.35243	6951
2301.21824	6924.7
2304.08223	6940.5
2306.94439	6949.5
2309.80474	6951.4
2312.66327	6948.9
2315.51999	6927.1
2318.37489	6940.2
2321.22797	6930.5
2324.07925	6918.4
2326.92871	6910.4
2329.77637	6905.9
2332.62222	6891.8
2335.46626	6883.6
2338.3085	6872
2341.14893	6890
2343.98756	6866.1
2346.8244	6868.2
2349.65943	6886.5
2352.49267	6862.7
2355.32411	6865.6
2358.15376	6869.8
2360.98161	6867.5
2363.80768	6869.6
2366.63195	6862.1
2369.45444	6842.8
2372.27514	6840.1
2375.09405	6830.4
2377.91118	6811.7
2380.72652	6803
2383.54009	6788
2386.35187	6795.3
2389.16188	6779.7
2391.97011	6762.9
2394.77657	6733.9
2397.58125	6733.4
2400.38416	6714.3
2403.18529	6715.6
2405.98466	6722.3
2408.78226	6710.3
2411.57809	6697.5
2414.37216	6681.4
2417.16446	6692.7
2419.955	6682
2422.74378	6674.2
2425.5308	6672.4
2428.31606	6662.9
2431.09956	6679.7
2433.88131	6652.9
2436.6613	6671.1
2439.43954	6658.7
2442.21603	6671
2444.99077	6652.1
2447.76377	6663.8
2450.53501	6653.8
2453.30451	6649.6
2456.07226	6637.6
2458.83827	6632.2
2461.60254	6634
2464.36507	6641.1
2467.12586	6647.1
2469.88492	6633.5
2472.64224	6633.2
2475.39782	6630.6
2478.15167	6608.9
2480.90379	6637.1
2483.65417	6651.5
2486.40283	6635.3
2489.14976	6665.6
2491.89497	6638.8
2494.63845	6638.2
2497.3802	6639.3
2500.12024	6645.2
2502.85855	6659.6
2505.59514	6624
2508.33002	6618.9
2511.06318	6631.3
2513.79462	6620.9
2516.52435	6632.3
2519.25237	6610
2521.97867	6615.9
2524.70327	6622.8
2527.42616	6599.6
2530.14734	6608.2
2532.86681	6592
2535.58458	6583.1
2538.30065	6587.4
2541.01501	6578.2
2543.72768	6578.5
2546.43864	6575.6
2549.14791	6566.6
2551.85548	6560.2
2554.56136	6551.5
2557.26554	6548.6
2559.96803	6551.9
2562.66883	6537.5
2565.36794	6572.1
2568.06536	6543.3
2570.7611	6546.3
2573.45514	6527.1
2576.14751	6500.7
2578.83819	6513.2
2581.52719	6515.5
2584.21451	6508.8
2586.90015	6506.8
2589.58411	6492.8
2592.2664	6498.8
2594.94701	6491.4
2597.62594	6482.6
2600.30321	6476.6
2602.9788	6462.2
2605.65273	6469.6
2608.32498	6480.9
2610.99557	6471.5
2613.66449	6464.9
2616.33175	6440.6
2618.99734	6474.2
2621.66128	6461.3
2624.32355	6448.7
2626.98416	6465.6
2629.64311	6444.1
2632.30041	6442.8
2634.95605	6443.7
2637.61004	6446.4
2640.26238	6433.9
2642.91306	6400.9
2645.56209	6430.2
2648.20948	6417.1
2650.85521	6413.2
2653.4993	6424.3
2656.14175	6432.7
2658.78255	6439.5
2661.42171	6453.3
2664.05923	6456.1
2666.6951	6451.1
2669.32934	6451.7
2671.96194	6448.7
2674.59291	6472.2
2677.22224	6444
2679.84993	6453.3
2682.476	6425.8
2685.10043	6439.5
2687.72324	6436.1
2690.34441	6444.5
2692.96396	6426
2695.58188	6438.2
2698.19818	6439.2
2700.81285	6440.9
2703.4259	6433.8
2706.03733	6433.2
2708.64714	6424.5
2711.25533	6437.5
2713.86191	6430.3
2716.46687	6464.7
2719.07021	6456.9
2721.67194	6475.9
2724.27206	6461.1
2726.87057	6483
2729.46747	6482.1
2732.06276	6488.2
2734.65644	6506.2
2737.24852	6494.7
2739.83899	6484.7
2742.42786	6476.1
2745.01513	6472.5
2747.60079	6456.7
2750.18486	6468.5
2752.76733	6466.6
2755.3482	6462
2757.92747	6477.7
2760.50515	6460.1
2763.08123	6464.6
2765.65573	6463
2768.22863	6462.4
2770.79994	6462.3
2773.36967	6452.9
2775.9378	6435.5
2778.50435	6451.8
2781.06932	6458.6
2783.6327	6453.2
2786.1945	6440.5
2788.75471	6447.6
2791.31335	6418.3
2793.87041	6416
2796.42589	6412
2798.97979	6415.2
2801.53212	6399.4
2804.08288	6391.9
2806.63206	6372.5
2809.17967	6370.7
2811.72571	6357.2
2814.27018	6346.8
2816.81308	6355.8
2819.35442	6330.9
2821.89419	6343.4
2824.43239	6320.7
2826.96904	6327.2
2829.50412	6342.1
2832.03763	6321.2
2834.56959	6329.1
2837.1	6325.8
2839.62884	6307.5
2842.15613	6319.2
2844.68186	6340.2
2847.20604	6346.7
2849.72867	6355.2
2852.24974	6324.3
2854.76927	6351.5
2857.28724	6341
2859.80367	6345.1
2862.31855	6322.2
2864.83189	6320
2867.34368	6304.4
2869.85393	6312.9
2872.36264	6320.8
2874.8698	6295.3
2877.37543	6318.6
2879.87952	6306.9
2882.38207	6312.7
2884.88308	6306.2
2887.38256	6314.2
2889.88051	6307.1
2892.37692	6318.9
2894.8718	6307.7
2897.36515	6330.2
2899.85698	6314
2902.34727	6333.6
2904.83604	6351.5
2907.32328	6355.8
2909.809	6341.1
2912.29319	6350.6
2914.77587	6354.3
2917.25702	6340.2
2919.73665	6365.4
2922.21476	6339.4
2924.69136	6350.3
2927.16644	6349.2
2929.64	6343.5
2932.11205	6349.3
2934.58258	6326.5
2937.05161	6345.5
2939.51912	6340
2941.98513	6310.9
2944.44962	6330.3
2946.91261	6299.5
2949.37409	6303.5
2951.83407	6307.2
2954.29254	6289.3
2956.74951	6303.8
2959.20498	6321
2961.65895	6283.7
2964.11142	6280.2
2966.56239	6285.4
2969.01186	6251.8
2971.45984	6246.9
2973.90632	6245.5
2976.35131	6254.3
2978.7948	6238.1
2981.23681	6229.6
2983.67732	6216.1
2986.11635	6188.7
2988.55388	6216.3
2990.98993	6190.1
2993.4245	6189
2995.85758	6172.4
2998.28917	6172.4
3000.71928	6150.7
3003.14791	6140.8
3005.57506	6129.5
3008.00073	6111.9
3010.42493	6129.6
3012.84764	6125.5
3015.26888	6121.1
3017.68865	6090.4
3020.10694	6082.4
3022.52376	6061.9
3024.9391	6066.6
3027.35298	6090.9
3029.76539	6073.8
3032.17632	6066.7
3034.5858	6066.5
3036.9938	6058.4
3039.40034	6061.8
3041.80542	6057
3044.20903	6056.6
3046.61118	6067.3
3049.01187	6053.8
3051.4111	6053.3
3053.80888	6044.3
3056.20519	6039.4
3058.60005	6010.6
3060.99345	5988.9
3063.3854	5980.6
3065.7759	5964.3
3068.16494	5983
3070.55254	5960.9
3072.93868	5954.3
3075.32338	5942.4
3077.70662	5943.7
3080.08842	5916.3
3082.46878	5920.9
3084.84769	5928.5
3087.22515	5924.1
3089.60118	5924.4
3091.97576	5911.1
3094.3489	5908.9
3096.72061	5932
3099.09087	5934.8
3101.4597	5928.9
3103.82709	5931
3106.19305	5933.2
3108.55757	5924.7
3110.92066	5926.2
3113.28232	5913.9
3115.64255	5911.2
3118.00134	5907.5
3120.35871	5886.6
3122.71466	5886.1
3125.06917	5877.8
3127.42226	5879.5
3129.77393	5872.9
3132.12417	5854.7
3134.47299	5877.1
3136.82039	5883.5
3139.16636	5883.9
3141.51092	5897.9
3143.85406	5887.2
3146.19579	5907.6
3148.53609	5892
3150.87499	5925.6
3153.21246	5920.6
3155.54853	5914.7
3157.88318	5932.5
3160.21642	5928.4
3162.54826	5948.3
3164.87868	5919.9
3167.2077	5940.7
3169.5353	5937.9
3171.86151	5950.7
3174.18631	5944.6
3176.5097	5940.3
3178.83169	5947
3181.15228	5945.8
3183.47147	5938.5
3185.78926	5938
3188.10565	5942.4
3190.42065	5936.6
3192.73424	5934
3195.04645	5937.7
3197.35725	5950.9
3199.66667	5941.4
3201.97469	5947.3
3204.28132	5926.7
3206.58656	5947.2
3208.8904	5950.9
3211.19287	5959.2
3213.49394	5959.4
3215.79363	5964.3
3218.09193	5968.4
3220.38884	5961.7
3222.68438	5962.2
3224.97853	5965.7
3227.2713	5966.9
3229.56269	5970.4
3231.8527	5971.6
3234.14133	5958.8
3236.42858	5961
3238.71446	5940.2
3240.99896	5948.6
3243.28209	5926.9
3245.56384	5920.1
3247.84423	5922
3250.12324	5919.6
3252.40088	5915.3
3254.67715	5925.3
3256.95205	5927.6
3259.22558	5909
3261.49775	5906.9
3263.76855	5909.7
3266.03799	5883.6
3268.30606	5889
3270.57277	5881.9
3272.83812	5851.6
3275.10211	5852.4
3277.36474	5849.1
3279.62601	5848
3281.88593	5842.1
3284.14448	5836.1
3286.40168	5857.2
3288.65753	5839.9
3290.91202	5852.4
3293.16516	5819.2
3295.41695	5821.8
3297.66738	5778.7
3299.91647	5761.2
3302.16421	5727.8
3304.4106	5703.5
3306.65564	5670.5
3308.89933	5634
3311.14169	5608.5
3313.38269	5563
3315.62236	5521.9
3317.86068	5473.6
3320.09766	5434.1
3322.3333	5402
3324.5676	5396.6
3326.80056	5310.1
3329.03219	5262.3
3331.26248	2.4
3333.49143	-0.4
3335.71905	-1.4
