Data from AgNPs_FTO_APTES_UA_1uM_CRN_2uM_R6G_10uM_NaF_0.1M_Addition_RamanShift__19__13-17-29-553.txt Node

Date: Thu Jan 27 13:17:29 GMT 2022
User: TCL
Spectrometer: QEP01345
Trigger mode: 4
Integration Time (sec): 7.000000E0
Scans to average: 10
Electric dark correction enabled: true
Nonlinearity correction enabled: false
Boxcar width: 0
XAxis mode: Raman Shifts
Number of Pixels in Spectrum: 1044
>>>>>Begin Spectral Data<<<<<
46.04893	0.3375
50.45542	-0.2625
54.85868	-0.7625
59.25871	-2.3625
63.6555	52.2375
68.04907	54.4375
72.43941	56.5375
76.82654	63.6375
81.21044	61.3375
85.59113	65.5375
89.96862	67.1375
94.34289	67.5375
98.71396	72.0375
103.08183	68.7375
107.4465	76.5375
111.80798	79.3375
116.16626	80.6375
120.52136	84.3375
124.87327	83.6375
129.222	86.1375
133.56755	91.3375
137.90993	100.4375
142.24913	108.7375
146.58517	117.7375
150.91804	137.0375
155.24774	157.2375
159.57429	192.3375
163.89768	242.6375
168.21792	320.3375
172.53501	427.7375
176.84895	597.9375
181.15975	836.8375
185.46741	1159.4375
189.77193	1608.2375
194.07331	2147.2375
198.37157	2766.9375
202.6667	3413.6375
206.9587	4048.7375
211.24758	4667.9375
215.53334	5335.3375
219.81599	6002.4375
224.09553	6756.1375
228.37195	7597.2375
232.64527	8494.5375
236.91549	9468.8375
241.18261	10462.1375
245.44663	11335.0375
249.70755	12125.0375
253.96539	12832.1375
258.22014	13444.0375
262.4718	13950.1375
266.72039	14282.9375
270.96589	14472.7375
275.20832	14500.8375
279.44768	14434.4375
283.68397	14284.1375
287.91719	14152.7375
292.14735	14101.0375
296.37445	14089.6375
300.59849	14201.1375
304.81948	14280.8375
309.03742	14297.1375
313.25231	14138.5375
317.46415	13800.4375
321.67296	13350.1375
325.87872	12995.2375
330.08145	12790.0375
334.28114	12774.8375
338.47781	12861.0375
342.67145	13053.0375
346.86207	13246.8375
351.04966	13574.2375
355.23424	13911.1375
359.4158	14142.2375
363.59435	14321.6375
367.76989	14496.6375
371.94243	14564.2375
376.11196	14676.8375
380.27849	14752.9375
384.44203	14803.0375
388.60257	14898.6375
392.76012	15019.3375
396.91468	15209.3375
401.06626	15450.6375
405.21485	15569.5375
409.36047	15530.5375
413.50311	15272.3375
417.64277	15034.5375
421.77947	14968.5375
425.9132	15008.1375
430.04396	15099.3375
434.17176	15194.4375
438.2966	15288.0375
442.41849	15499.0375
446.53742	15860.0375
450.6534	16324.0375
454.76644	16667.3375
458.87653	16788.3375
462.98368	16741.6375
467.08789	16554.8375
471.18916	16292.9375
475.2875	16027.2375
479.38291	15903.1375
483.4754	15796.4375
487.56496	15622.1375
491.6516	15385.3375
495.73531	15231.9375
499.81612	15181.5375
503.89401	15274.8375
507.96899	15346.9375
512.04106	15346.9375
516.11023	15280.1375
520.1765	15189.8375
524.23987	15076.9375
528.30034	14894.7375
532.35792	14723.1375
536.41261	14545.1375
540.46441	14345.6375
544.51333	14323.7375
548.55936	14502.9375
552.60252	14818.4375
556.64279	15124.3375
560.6802	15324.9375
564.71473	15397.5375
568.7464	15557.5375
572.7752	15883.9375
576.80114	16187.0375
580.82422	16481.8375
584.84444	16799.8375
588.86181	17017.2375
592.87633	17216.8375
596.888	17331.9375
600.89682	17329.3375
604.9028	17909.1375
608.90594	19638.9375
612.90624	21494.6375
616.90371	20410.8375
620.89834	17001.0375
624.89015	15515.2375
628.87913	15456.4375
632.86528	15415.3375
636.84862	15195.3375
640.82913	14856.7375
644.80683	14429.6375
648.78172	14101.5375
652.75379	14047.8375
656.72306	14232.6375
660.68952	14519.3375
664.65319	14464.9375
668.61405	14169.0375
672.57211	14053.5375
676.52738	14012.1375
680.47986	13994.2375
684.42955	13964.7375
688.37646	13897.1375
692.32058	13971.2375
696.26192	14111.5375
700.20048	14285.6375
704.13626	14397.5375
708.06928	14344.3375
711.99952	14184.1375
715.927	14189.8375
719.85171	14214.0375
723.77365	14176.4375
727.69284	14037.4375
731.60928	13880.7375
735.52295	13838.5375
739.43388	13867.3375
743.34206	13918.8375
747.24749	13983.9375
751.15017	14102.9375
755.05012	14374.1375
758.94733	14782.8375
762.8418	15522.1375
766.73354	16762.0375
770.62254	18015.9375
774.50882	18396.8375
778.39237	17616.5375
782.27321	16257.0375
786.15132	15137.0375
790.02671	14482.0375
793.89938	14163.1375
797.76935	14102.4375
801.6366	14063.9375
805.50115	14023.9375
809.36299	13900.6375
813.22213	13763.4375
817.07857	13674.6375
820.93231	13615.2375
824.78336	13620.8375
828.63172	13578.8375
832.47738	13597.1375
836.32036	13653.0375
840.16066	13742.5375
843.99827	13855.9375
847.8332	13798.4375
851.66546	13691.9375
855.49504	13619.0375
859.32195	13597.8375
863.1462	13552.8375
866.96777	13472.5375
870.78668	13427.3375
874.60293	13415.9375
878.41652	13423.4375
882.22745	13473.8375
886.03573	13549.6375
889.84136	13544.9375
893.64433	13470.4375
897.44466	13400.2375
901.24235	13341.9375
905.0374	13278.4375
908.8298	13242.2375
912.61957	13289.1375
916.40671	13448.2375
920.19121	13640.6375
923.97308	13895.0375
927.75233	14009.0375
931.52895	13965.2375
935.30295	13847.2375
939.07433	13545.7375
942.84309	13277.5375
946.60924	13184.8375
950.37278	13143.6375
954.13371	13098.4375
957.89203	12992.0375
961.64774	12914.3375
965.40086	12888.5375
969.15137	12795.4375
972.89929	12765.7375
976.64461	12720.2375
980.38733	12752.2375
984.12747	12834.2375
987.86502	12965.8375
991.59999	13232.3375
995.33237	13613.4375
999.06217	14217.3375
1002.78939	14870.1375
1006.51404	15155.8375
1010.23611	15250.8375
1013.95561	15308.3375
1017.67255	15267.5375
1021.38692	15062.9375
1025.09872	14946.2375
1028.80796	15248.5375
1032.51465	16002.8375
1036.21877	16776.8375
1039.92035	16875.8375
1043.61937	16431.0375
1047.31584	15763.2375
1051.00976	15045.8375
1054.70114	14676.2375
1058.38998	14607.9375
1062.07627	14626.3375
1065.76003	14638.9375
1069.44126	14692.3375
1073.11995	14831.0375
1076.79611	15028.7375
1080.46974	15198.1375
1084.14085	15320.4375
1087.80943	15466.2375
1091.47549	15564.0375
1095.13903	15518.0375
1098.80005	15332.2375
1102.45857	14972.3375
1106.11456	14721.0375
1109.76805	14617.9375
1113.41903	14702.2375
1117.06751	14788.0375
1120.71348	14928.7375
1124.35696	15045.2375
1127.99793	15247.0375
1131.63641	15364.7375
1135.2724	15296.2375
1138.90589	15142.6375
1142.5369	15054.8375
1146.16542	15023.8375
1149.79145	15027.5375
1153.415	15072.3375
1157.03607	15234.1375
1160.65467	15603.1375
1164.27079	16197.6375
1167.88443	17053.9375
1171.49561	18203.0375
1175.10432	19716.5375
1178.71056	21595.9375
1182.31434	23436.0375
1185.91565	24517.1375
1189.51451	24501.4375
1193.11091	23597.4375
1196.70485	22380.1375
1200.29634	21225.6375
1203.88538	20401.0375
1207.47197	19790.6375
1211.05612	19351.1375
1214.63782	19013.1375
1218.21708	18803.2375
1221.79391	18685.9375
1225.36829	18674.3375
1228.94024	18498.4375
1232.50976	18105.8375
1236.07685	17731.3375
1239.6415	17515.3375
1243.20374	17423.2375
1246.76355	17523.3375
1250.32093	17803.2375
1253.8759	18302.5375
1257.42845	18884.4375
1260.97859	19465.4375
1264.52631	20033.7375
1268.07163	20706.2375
1271.61453	21418.1375
1275.15503	22187.9375
1278.69312	23005.9375
1282.22882	23691.6375
1285.76211	24134.1375
1289.29301	24507.2375
1292.82151	25075.8375
1296.34761	26048.6375
1299.87133	27520.9375
1303.39266	29369.4375
1306.9116	31606.1375
1310.42815	33832.2375
1313.94233	35128.0375
1317.45412	35112.5375
1320.96354	34078.4375
1324.47058	32865.5375
1327.97525	31848.6375
1331.47754	31009.9375
1334.97747	30509.3375
1338.47502	30210.6375
1341.97022	30052.8375
1345.46305	29697.4375
1348.95352	29367.6375
1352.44163	29190.0375
1355.92738	29845.4375
1359.41078	31325.6375
1362.89183	32882.2375
1366.37053	32410.8375
1369.84688	29702.2375
1373.32088	26421.5375
1376.79254	24067.4375
1380.26186	22998.3375
1383.72883	22732.3375
1387.19347	22699.5375
1390.65578	22423.6375
1394.11575	22296.3375
1397.57339	22452.8375
1401.0287	22900.3375
1404.48168	23264.8375
1407.93234	23376.4375
1411.38068	23127.0375
1414.82669	22548.3375
1418.27039	21748.0375
1421.71177	20926.3375
1425.15083	20202.4375
1428.58758	19765.7375
1432.02203	19824.6375
1435.45416	20236.7375
1438.88399	20752.7375
1442.31151	21250.6375
1445.73673	21562.9375
1449.15965	21850.3375
1452.58027	21994.8375
1455.9986	21998.8375
1459.41463	22144.4375
1462.82837	22519.3375
1466.23982	23011.8375
1469.64898	23536.0375
1473.05586	23877.8375
1476.46045	23944.0375
1479.86276	23760.6375
1483.26279	23443.2375
1486.66054	23182.3375
1490.05602	23108.4375
1493.44922	23198.0375
1496.84016	23418.3375
1500.22882	23876.6375
1503.61521	24628.6375
1506.99934	25687.2375
1510.38121	26620.6375
1513.76081	26998.9375
1517.13816	26413.1375
1520.51324	25284.6375
1523.88607	24113.2375
1527.25665	23349.0375
1530.62498	22967.1375
1533.99105	22772.1375
1537.35488	22609.5375
1540.71647	22430.4375
1544.07581	22124.7375
1547.4329	21790.8375
1550.78776	21498.5375
1554.14038	21244.6375
1557.49077	21121.7375
1560.83892	20973.3375
1564.18484	20963.5375
1567.52853	20959.3375
1570.86999	21127.3375
1574.20922	21386.9375
1577.54624	21594.3375
1580.88103	21579.8375
1584.2136	21623.2375
1587.54395	22171.2375
1590.87208	23276.3375
1594.19801	24905.9375
1597.52172	26710.0375
1600.84321	27370.1375
1604.16251	26243.6375
1607.47959	24028.0375
1610.79447	21681.6375
1614.10715	19735.1375
1617.41763	18105.0375
1620.7259	17085.6375
1624.03199	16542.8375
1627.33587	16516.7375
1630.63757	17069.9375
1633.93707	18144.3375
1637.23439	19821.5375
1640.52951	22056.4375
1643.82246	24461.4375
1647.11321	26242.1375
1650.40179	26493.6375
1653.68819	24776.7375
1656.97241	21676.1375
1660.25446	18607.2375
1663.53433	16336.9375
1666.81203	14859.5375
1670.08756	13942.7375
1673.36092	13393.0375
1676.63211	13002.6375
1679.90115	12755.5375
1683.16801	12557.9375
1686.43272	12403.7375
1689.69527	12284.0375
1692.95567	12172.0375
1696.2139	12116.4375
1699.46999	12027.2375
1702.72392	12005.8375
1705.97571	11966.9375
1709.22535	12022.7375
1712.47284	12000.4375
1715.71819	12005.3375
1718.96139	11983.6375
1722.20246	11947.0375
1725.44139	11899.6375
1728.67818	11809.2375
1731.91284	11759.4375
1735.14537	11708.5375
1738.37576	11646.5375
1741.60403	11578.9375
1744.83017	11561.4375
1748.05418	11504.6375
1751.27607	11487.7375
1754.49584	11453.5375
1757.71349	11426.4375
1760.92903	11379.8375
1764.14244	11388.5375
1767.35375	11378.8375
1770.56294	11355.1375
1773.77002	11346.2375
1776.97499	11356.3375
1780.17785	11348.2375
1783.37861	11348.9375
1786.57727	11341.6375
1789.77382	11318.9375
1792.96828	11293.3375
1796.16064	11285.8375
1799.3509	11279.5375
1802.53907	11256.0375
1805.72514	11234.5375
1808.90913	11214.9375
1812.09102	11165.7375
1815.27083	11145.5375
1818.44856	11148.4375
1821.6242	11129.0375
1824.79776	11124.4375
1827.96924	11109.2375
1831.13864	11104.9375
1834.30597	11100.1375
1837.47122	11133.6375
1840.6344	11158.0375
1843.7955	11126.4375
1846.95454	11116.2375
1850.11151	11151.5375
1853.26642	11136.1375
1856.41926	11149.5375
1859.57004	11170.3375
1862.71876	11145.1375
1865.86542	11119.2375
1869.01003	11123.1375
1872.15258	11132.9375
1875.29308	11132.5375
1878.43152	11122.2375
1881.56792	11107.6375
1884.70227	11112.3375
1887.83457	11114.9375
1890.96482	11101.6375
1894.09304	11090.2375
1897.21921	11086.1375
1900.34335	11079.1375
1903.46544	11090.0375
1906.58551	11090.5375
1909.70353	11086.0375
1912.81953	11063.2375
1915.93349	11056.9375
1919.04543	10982.0375
1922.15534	10962.2375
1925.26322	10933.1375
1928.36908	10934.7375
1931.47292	10880.5375
1934.57473	10854.8375
1937.67453	10842.3375
1940.77232	10799.5375
1943.86808	10727.4375
1946.96184	10671.8375
1950.05358	10677.3375
1953.14331	10619.7375
1956.23103	10556.5375
1959.31675	10569.7375
1962.40046	10529.2375
1965.48217	10473.7375
1968.56188	10458.3375
1971.63959	10438.9375
1974.7153	10426.1375
1977.78901	10415.5375
1980.86073	10348.5375
1983.93046	10303.2375
1986.99819	10295.0375
1990.06394	10263.8375
1993.1277	10239.2375
1996.18947	10177.8375
1999.24925	10151.7375
2002.30706	10116.1375
2005.36288	10092.6375
2008.41672	10100.2375
2011.46859	10063.7375
2014.51848	10029.1375
2017.56639	10005.5375
2020.61233	9993.8375
2023.6563	9989.2375
2026.6983	9955.9375
2029.73833	9925.5375
2032.7764	9948.5375
2035.8125	9924.2375
2038.84664	9911.4375
2041.87881	9900.1375
2044.90903	9911.5375
2047.93729	9851.4375
2050.96359	9838.6375
2053.98794	9827.0375
2057.01034	9818.8375
2060.03078	9841.7375
2063.04927	9838.9375
2066.06582	9863.0375
2069.08042	9833.2375
2072.09307	9813.0375
2075.10378	9800.1375
2078.11255	9800.2375
2081.11938	9789.1375
2084.12426	9785.1375
2087.12722	9764.8375
2090.12824	9779.4375
2093.12732	9777.7375
2096.12447	9770.7375
2099.11969	9731.8375
2102.11299	9778.7375
2105.10435	9770.9375
2108.09379	9805.4375
2111.08131	9808.1375
2114.0669	9822.7375
2117.05057	9811.2375
2120.03233	9811.8375
2123.01216	9828.9375
2125.99008	9829.3375
2128.96609	9837.4375
2131.94018	9841.5375
2134.91236	9833.7375
2137.88263	9867.6375
2140.851	9869.3375
2143.81746	9873.7375
2146.78201	9878.5375
2149.74466	9912.3375
2152.7054	9909.7375
2155.66425	9898.1375
2158.6212	9912.9375
2161.57625	9902.8375
2164.52941	9888.1375
2167.48067	9890.1375
2170.43004	9873.0375
2173.37752	9893.2375
2176.32311	9872.8375
2179.26681	9881.7375
2182.20863	9880.7375
2185.14856	9895.1375
2188.08661	9902.0375
2191.02278	9914.2375
2193.95707	9900.3375
2196.88948	9912.6375
2199.82001	9896.7375
2202.74867	9892.5375
2205.67545	9892.2375
2208.60037	9912.1375
2211.52341	9902.3375
2214.44458	9885.3375
2217.36388	9880.6375
2220.28132	9877.6375
2223.1969	9855.8375
2226.11061	9868.0375
2229.02246	9853.5375
2231.93245	9812.4375
2234.84058	9799.7375
2237.74686	9752.1375
2240.65128	9748.8375
2243.55385	9734.3375
2246.45456	9722.6375
2249.35343	9702.8375
2252.25044	9707.5375
2255.14561	9681.3375
2258.03893	9671.8375
2260.93041	9662.9375
2263.82004	9625.2375
2266.70783	9643.0375
2269.59378	9607.9375
2272.4779	9575.6375
2275.36017	9573.3375
2278.24061	9550.2375
2281.11922	9545.8375
2283.996	9551.4375
2286.87094	9534.6375
2289.74405	9511.8375
2292.61534	9498.6375
2295.4848	9485.0375
2298.35243	9513.4375
2301.21824	9514.0375
2304.08223	9542.4375
2306.94439	9542.1375
2309.80474	9549.6375
2312.66327	9560.1375
2315.51999	9585.9375
2318.37489	9567.1375
2321.22797	9554.7375
2324.07925	9552.0375
2326.92871	9559.0375
2329.77637	9550.9375
2332.62222	9548.8375
2335.46626	9530.8375
2338.3085	9539.9375
2341.14893	9539.8375
2343.98756	9564.8375
2346.8244	9574.2375
2349.65943	9566.2375
2352.49267	9562.1375
2355.32411	9571.7375
2358.15376	9562.0375
2360.98161	9533.5375
2363.80768	9504.0375
2366.63195	9521.5375
2369.45444	9496.9375
2372.27514	9480.3375
2375.09405	9440.7375
2377.91118	9447.8375
2380.72652	9415.5375
2383.54009	9381.1375
2386.35187	9352.8375
2389.16188	9368.6375
2391.97011	9343.0375
2394.77657	9351.7375
2397.58125	9333.8375
2400.38416	9318.6375
2403.18529	9317.5375
2405.98466	9277.0375
2408.78226	9273.4375
2411.57809	9267.5375
2414.37216	9238.8375
2417.16446	9219.0375
2419.955	9220.9375
2422.74378	9211.5375
2425.5308	9180.8375
2428.31606	9181.7375
2431.09956	9179.4375
2433.88131	9174.2375
2436.6613	9181.9375
2439.43954	9176.6375
2442.21603	9164.3375
2444.99077	9192.3375
2447.76377	9205.9375
2450.53501	9165.9375
2453.30451	9173.8375
2456.07226	9181.1375
2458.83827	9158.6375
2461.60254	9162.7375
2464.36507	9174.9375
2467.12586	9163.0375
2469.88492	9173.5375
2472.64224	9199.3375
2475.39782	9204.7375
2478.15167	9191.2375
2480.90379	9182.8375
2483.65417	9221.8375
2486.40283	9224.2375
2489.14976	9225.1375
2491.89497	9237.9375
2494.63845	9257.5375
2497.3802	9235.7375
2500.12024	9230.0375
2502.85855	9224.4375
2505.59514	9243.0375
2508.33002	9191.8375
2511.06318	9199.0375
2513.79462	9194.0375
2516.52435	9183.3375
2519.25237	9186.3375
2521.97867	9175.1375
2524.70327	9159.0375
2527.42616	9153.7375
2530.14734	9162.5375
2532.86681	9164.1375
2535.58458	9158.6375
2538.30065	9157.4375
2541.01501	9151.5375
2543.72768	9141.9375
2546.43864	9154.2375
2549.14791	9159.7375
2551.85548	9133.6375
2554.56136	9100.5375
2557.26554	9129.4375
2559.96803	9099.9375
2562.66883	9096.0375
2565.36794	9098.8375
2568.06536	9106.8375
2570.7611	9082.5375
2573.45514	9086.5375
2576.14751	9065.9375
2578.83819	9054.2375
2581.52719	9066.4375
2584.21451	9090.2375
2586.90015	9085.1375
2589.58411	9059.6375
2592.2664	9075.6375
2594.94701	9060.8375
2597.62594	9069.1375
2600.30321	9078.3375
2602.9788	9048.7375
2605.65273	9059.0375
2608.32498	9075.3375
2610.99557	9049.2375
2613.66449	9044.2375
2616.33175	9057.2375
2618.99734	9077.8375
2621.66128	9060.6375
2624.32355	9066.6375
2626.98416	9086.2375
2629.64311	9070.5375
2632.30041	9072.3375
2634.95605	9047.1375
2637.61004	9025.8375
2640.26238	9042.0375
2642.91306	9020.4375
2645.56209	9030.2375
2648.20948	9012.1375
2650.85521	8999.4375
2653.4993	9006.1375
2656.14175	9008.8375
2658.78255	9011.1375
2661.42171	9012.4375
2664.05923	9016.2375
2666.6951	9023.5375
2669.32934	9026.8375
2671.96194	9015.1375
2674.59291	9043.2375
2677.22224	9023.2375
2679.84993	9032.6375
2682.476	9001.8375
2685.10043	8992.6375
2687.72324	8971.0375
2690.34441	8954.5375
2692.96396	8971.6375
2695.58188	8961.0375
2698.19818	8972.7375
2700.81285	8947.7375
2703.4259	8930.7375
2706.03733	8955.8375
2708.64714	8925.9375
2711.25533	8959.6375
2713.86191	8964.1375
2716.46687	8987.4375
2719.07021	8984.1375
2721.67194	9003.4375
2724.27206	8999.6375
2726.87057	9017.6375
2729.46747	8990.0375
2732.06276	9016.0375
2734.65644	8993.3375
2737.24852	9002.3375
2739.83899	9006.2375
2742.42786	8994.1375
2745.01513	8974.1375
2747.60079	8983.6375
2750.18486	8971.9375
2752.76733	8977.0375
2755.3482	8952.6375
2757.92747	8986.6375
2760.50515	8959.8375
2763.08123	8941.1375
2765.65573	8931.4375
2768.22863	8943.1375
2770.79994	8957.6375
2773.36967	8932.5375
2775.9378	8978.1375
2778.50435	8961.5375
2781.06932	8953.1375
2783.6327	8955.9375
2786.1945	8955.1375
2788.75471	8916.7375
2791.31335	8911.5375
2793.87041	8904.3375
2796.42589	8882.0375
2798.97979	8882.1375
2801.53212	8866.3375
2804.08288	8856.7375
2806.63206	8823.1375
2809.17967	8803.8375
2811.72571	8807.6375
2814.27018	8798.7375
2816.81308	8802.2375
2819.35442	8782.0375
2821.89419	8783.5375
2824.43239	8760.3375
2826.96904	8789.9375
2829.50412	8774.3375
2832.03763	8749.1375
2834.56959	8762.9375
2837.1	8761.0375
2839.62884	8765.4375
2842.15613	8762.0375
2844.68186	8769.3375
2847.20604	8792.9375
2849.72867	8794.9375
2852.24974	8787.8375
2854.76927	8773.4375
2857.28724	8764.4375
2859.80367	8742.5375
2862.31855	8772.1375
2864.83189	8750.2375
2867.34368	8727.3375
2869.85393	8749.8375
2872.36264	8740.5375
2874.8698	8737.9375
2877.37543	8728.8375
2879.87952	8731.4375
2882.38207	8730.4375
2884.88308	8739.4375
2887.38256	8737.0375
2889.88051	8741.8375
2892.37692	8737.8375
2894.8718	8744.9375
2897.36515	8767.1375
2899.85698	8763.4375
2902.34727	8793.7375
2904.83604	8798.4375
2907.32328	8841.6375
2909.809	8830.4375
2912.29319	8835.5375
2914.77587	8846.1375
2917.25702	8817.5375
2919.73665	8824.8375
2922.21476	8830.4375
2924.69136	8802.5375
2927.16644	8812.5375
2929.64	8796.8375
2932.11205	8773.6375
2934.58258	8774.0375
2937.05161	8766.5375
2939.51912	8749.6375
2941.98513	8726.2375
2944.44962	8695.2375
2946.91261	8675.0375
2949.37409	8678.5375
2951.83407	8677.5375
2954.29254	8687.9375
2956.74951	8670.5375
2959.20498	8649.0375
2961.65895	8645.8375
2964.11142	8655.7375
2966.56239	8635.6375
2969.01186	8616.5375
2971.45984	8609.8375
2973.90632	8582.1375
2976.35131	8590.0375
2978.7948	8545.4375
2981.23681	8554.1375
2983.67732	8504.7375
2986.11635	8503.8375
2988.55388	8460.8375
2990.98993	8464.6375
2993.4245	8440.9375
2995.85758	8416.1375
2998.28917	8409.4375
3000.71928	8372.2375
3003.14791	8379.9375
3005.57506	8369.9375
3008.00073	8354.2375
3010.42493	8370.9375
3012.84764	8358.9375
3015.26888	8348.4375
3017.68865	8333.3375
3020.10694	8319.4375
3022.52376	8303.1375
3024.9391	8315.8375
3027.35298	8300.0375
3029.76539	8316.0375
3032.17632	8301.5375
3034.5858	8282.1375
3036.9938	8286.3375
3039.40034	8257.4375
3041.80542	8281.9375
3044.20903	8255.9375
3046.61118	8239.3375
3049.01187	8229.9375
3051.4111	8237.8375
3053.80888	8226.4375
3056.20519	8235.1375
3058.60005	8190.7375
3060.99345	8199.2375
3063.3854	8157.9375
3065.7759	8141.1375
3068.16494	8154.0375
3070.55254	8121.8375
3072.93868	8124.8375
3075.32338	8095.0375
3077.70662	8094.9375
3080.08842	8078.6375
3082.46878	8065.3375
3084.84769	8031.4375
3087.22515	8048.3375
3089.60118	8059.0375
3091.97576	8079.5375
3094.3489	8066.4375
3096.72061	8066.4375
3099.09087	8058.0375
3101.4597	8051.3375
3103.82709	8041.6375
3106.19305	8052.5375
3108.55757	8058.8375
3110.92066	8036.4375
3113.28232	8008.3375
3115.64255	8002.7375
3118.00134	8020.5375
3120.35871	7986.1375
3122.71466	7991.3375
3125.06917	7969.0375
3127.42226	7955.3375
3129.77393	7945.5375
3132.12417	7951.3375
3134.47299	7932.3375
3136.82039	7958.2375
3139.16636	7964.8375
3141.51092	7982.7375
3143.85406	7995.9375
3146.19579	7962.7375
3148.53609	7984.7375
3150.87499	8000.0375
3153.21246	7994.8375
3155.54853	8004.3375
3157.88318	7974.6375
3160.21642	8006.6375
3162.54826	7993.3375
3164.87868	8001.4375
3167.2077	8011.8375
3169.5353	8007.0375
3171.86151	8005.4375
3174.18631	8008.2375
3176.5097	8019.5375
3178.83169	8007.9375
3181.15228	7996.0375
3183.47147	7993.6375
3185.78926	7975.1375
3188.10565	7976.7375
3190.42065	7988.2375
3192.73424	7972.4375
3195.04645	7970.8375
3197.35725	7988.7375
3199.66667	7991.2375
3201.97469	7970.1375
3204.28132	7979.7375
3206.58656	8026.4375
3208.8904	8011.1375
3211.19287	8034.5375
3213.49394	8041.2375
3215.79363	8044.8375
3218.09193	8031.7375
3220.38884	8036.1375
3222.68438	8020.2375
3224.97853	8022.7375
3227.2713	8025.7375
3229.56269	8030.3375
3231.8527	8021.8375
3234.14133	8033.3375
3236.42858	8014.4375
3238.71446	8016.9375
3240.99896	7980.4375
3243.28209	8011.7375
3245.56384	7978.3375
3247.84423	7972.4375
3250.12324	7956.7375
3252.40088	7968.9375
3254.67715	7977.1375
3256.95205	7948.1375
3259.22558	7951.3375
3261.49775	7953.1375
3263.76855	7947.3375
3266.03799	7918.0375
3268.30606	7915.8375
3270.57277	7948.6375
3272.83812	7895.5375
3275.10211	7875.8375
3277.36474	7843.4375
3279.62601	7869.6375
3281.88593	7867.8375
3284.14448	7868.8375
3286.40168	7877.0375
3288.65753	7881.1375
3290.91202	7881.2375
3293.16516	7842.5375
3295.41695	7839.0375
3297.66738	7781.0375
3299.91647	7749.4375
3302.16421	7695.7375
3304.4106	7673.3375
3306.65564	7642.3375
3308.89933	7615.6375
3311.14169	7575.8375
3313.38269	7496.4375
3315.62236	7463.2375
3317.86068	7405.2375
3320.09766	7341.9375
3322.3333	7332.9375
3324.5676	7310.5375
3326.80056	7180.1375
3329.03219	7130.6375
3331.26248	2.7375
3333.49143	0.0375
3335.71905	-0.8625
