Data from AgNPs_FTO_APTES_UA_1uM_CRN_1uM_R6G_10uM_NaF_0.1M_Addition_RamanShift__33__12-50-39-522.txt Node

Date: Thu Jan 27 12:50:39 GMT 2022
User: TCL
Spectrometer: QEP01345
Trigger mode: 4
Integration Time (sec): 7.000000E0
Scans to average: 10
Electric dark correction enabled: true
Nonlinearity correction enabled: false
Boxcar width: 0
XAxis mode: Raman Shifts
Number of Pixels in Spectrum: 1044
>>>>>Begin Spectral Data<<<<<
46.04893	0.725
50.45542	1.325
54.85868	0.625
59.25871	-1.675
63.6555	33.925
68.04907	38.325
72.43941	41.025
76.82654	44.125
81.21044	45.825
85.59113	42.425
89.96862	47.425
94.34289	48.725
98.71396	53.125
103.08183	48.725
107.4465	54.625
111.80798	59.625
116.16626	52.125
120.52136	60.325
124.87327	59.725
129.222	55.025
133.56755	58.025
137.90993	58.625
142.24913	60.725
146.58517	67.225
150.91804	76.725
155.24774	85.825
159.57429	96.025
163.89768	123.625
168.21792	151.925
172.53501	206.625
176.84895	274.825
181.15975	374.725
185.46741	523.525
189.77193	708.425
194.07331	941.725
198.37157	1217.425
202.6667	1500.525
206.9587	1791.825
211.24758	2062.425
215.53334	2372.825
219.81599	2684.725
224.09553	3051.325
228.37195	3462.225
232.64527	3887.625
236.91549	4325.825
241.18261	4737.925
245.44663	5071.125
249.70755	5357.525
253.96539	5588.525
258.22014	5810.725
262.4718	6007.925
266.72039	6182.725
270.96589	6262.925
275.20832	6273.825
279.44768	6188.325
283.68397	6101.425
287.91719	6032.525
292.14735	6014.325
296.37445	6080.125
300.59849	6254.625
304.81948	6487.325
309.03742	6667.325
313.25231	6666.725
317.46415	6402.025
321.67296	5942.525
325.87872	5592.725
330.08145	5424.725
334.28114	5397.625
338.47781	5500.625
342.67145	5629.225
346.86207	5857.625
351.04966	6173.325
355.23424	6555.825
359.4158	6861.525
363.59435	6999.825
367.76989	7083.025
371.94243	7065.525
376.11196	7031.225
380.27849	6999.525
384.44203	6963.025
388.60257	6869.825
392.76012	6830.025
396.91468	6874.825
401.06626	7069.525
405.21485	7178.725
409.36047	7098.025
413.50311	6776.425
417.64277	6473.325
421.77947	6285.225
425.9132	6198.325
430.04396	6183.125
434.17176	6234.425
438.2966	6335.825
442.41849	6500.725
446.53742	6719.225
450.6534	6958.825
454.76644	7107.325
458.87653	7124.125
462.98368	7064.425
467.08789	6909.325
471.18916	6730.725
475.2875	6574.625
479.38291	6453.825
483.4754	6349.325
487.56496	6256.125
491.6516	6179.225
495.73531	6157.825
499.81612	6128.225
503.89401	6184.725
507.96899	6270.425
512.04106	6349.225
516.11023	6435.325
520.1765	6520.825
524.23987	6501.725
528.30034	6397.925
532.35792	6286.525
536.41261	6145.625
540.46441	6000.725
544.51333	5951.725
548.55936	5967.525
552.60252	6077.325
556.64279	6240.625
560.6802	6303.925
564.71473	6387.125
568.7464	6596.425
572.7752	6770.625
576.80114	6640.325
580.82422	6446.425
584.84444	6410.025
588.86181	6454.125
592.87633	6532.925
596.888	6644.525
600.89682	6844.725
604.9028	7457.025
608.90594	9109.125
612.90624	11417.325
616.90371	11189.925
620.89834	8133.425
624.89015	6543.025
628.87913	6217.625
632.86528	6210.625
636.84862	6291.425
640.82913	6224.725
644.80683	5993.925
648.78172	5823.725
652.75379	5870.425
656.72306	6075.225
660.68952	6372.525
664.65319	6369.825
668.61405	6059.325
672.57211	5892.925
676.52738	5877.025
680.47986	5875.425
684.42955	5829.925
688.37646	5797.325
692.32058	5825.925
696.26192	5855.025
700.20048	5928.125
704.13626	5991.225
708.06928	5970.225
711.99952	5913.925
715.927	5902.925
719.85171	5902.825
723.77365	5908.625
727.69284	5853.725
731.60928	5795.625
735.52295	5806.525
739.43388	5813.825
743.34206	5854.625
747.24749	5898.625
751.15017	5923.825
755.05012	6021.925
758.94733	6262.125
762.8418	6773.225
766.73354	7720.025
770.62254	8801.925
774.50882	9429.125
778.39237	9149.125
782.27321	8092.225
786.15132	7002.525
790.02671	6320.925
793.89938	6053.825
797.76935	5935.325
801.6366	5863.225
805.50115	5823.625
809.36299	5811.025
813.22213	5790.425
817.07857	5765.525
820.93231	5763.425
824.78336	5790.825
828.63172	5812.225
832.47738	5828.125
836.32036	5818.525
840.16066	5783.225
843.99827	5771.625
847.8332	5733.125
851.66546	5733.625
855.49504	5725.825
859.32195	5714.525
863.1462	5695.425
866.96777	5657.225
870.78668	5652.225
874.60293	5673.125
878.41652	5677.125
882.22745	5731.725
886.03573	5760.925
889.84136	5735.825
893.64433	5703.925
897.44466	5672.325
901.24235	5691.325
905.0374	5681.625
908.8298	5660.125
912.61957	5623.325
916.40671	5665.025
920.19121	5699.425
923.97308	5757.725
927.75233	5810.825
931.52895	5851.625
935.30295	5802.525
939.07433	5691.825
942.84309	5543.625
946.60924	5462.025
950.37278	5418.225
954.13371	5383.725
957.89203	5359.825
961.64774	5347.825
965.40086	5314.425
969.15137	5315.025
972.89929	5299.425
976.64461	5282.225
980.38733	5290.925
984.12747	5326.925
987.86502	5339.625
991.59999	5380.225
995.33237	5441.325
999.06217	5533.525
1002.78939	5672.825
1006.51404	5796.525
1010.23611	5903.825
1013.95561	5988.525
1017.67255	5971.425
1021.38692	5904.825
1025.09872	5770.225
1028.80796	5711.025
1032.51465	5702.225
1036.21877	5754.925
1039.92035	5830.125
1043.61937	5830.725
1047.31584	5801.025
1051.00976	5782.325
1054.70114	5747.325
1058.38998	5711.625
1062.07627	5727.425
1065.76003	5747.225
1069.44126	5783.025
1073.11995	5842.925
1076.79611	5923.425
1080.46974	6014.425
1084.14085	6125.325
1087.80943	6272.925
1091.47549	6331.525
1095.13903	6256.025
1098.80005	6056.825
1102.45857	5884.025
1106.11456	5789.325
1109.76805	5812.925
1113.41903	5938.725
1117.06751	6092.925
1120.71348	6308.525
1124.35696	6511.525
1127.99793	6722.925
1131.63641	6748.325
1135.2724	6486.225
1138.90589	6218.025
1142.5369	6033.325
1146.16542	5923.025
1149.79145	5857.925
1153.415	5863.925
1157.03607	5917.925
1160.65467	6023.825
1164.27079	6192.725
1167.88443	6480.925
1171.49561	6952.325
1175.10432	7759.325
1178.71056	8824.925
1182.31434	9711.625
1185.91565	10034.325
1189.51451	9888.725
1193.11091	9345.625
1196.70485	8552.425
1200.29634	7961.325
1203.88538	7476.625
1207.47197	7060.125
1211.05612	6702.325
1214.63782	6510.425
1218.21708	6446.725
1221.79391	6489.725
1225.36829	6558.125
1228.94024	6625.125
1232.50976	6650.625
1236.07685	6671.325
1239.6415	6661.125
1243.20374	6624.825
1246.76355	6617.725
1250.32093	6689.925
1253.8759	6787.725
1257.42845	6985.525
1260.97859	7179.725
1264.52631	7407.425
1268.07163	7635.825
1271.61453	7825.425
1275.15503	7974.725
1278.69312	8027.725
1282.22882	8072.725
1285.76211	8236.825
1289.29301	8501.125
1292.82151	8781.725
1296.34761	9059.125
1299.87133	9422.025
1303.39266	9996.625
1306.9116	10945.725
1310.42815	12059.825
1313.94233	12904.625
1317.45412	12879.325
1320.96354	12245.425
1324.47058	11465.825
1327.97525	10737.425
1331.47754	10274.925
1334.97747	10062.025
1338.47502	10014.925
1341.97022	10016.925
1345.46305	10156.325
1348.95352	10574.125
1352.44163	11239.625
1355.92738	12265.325
1359.41078	13791.325
1362.89183	15426.525
1366.37053	15417.425
1369.84688	13369.125
1373.32088	11084.025
1376.79254	9545.425
1380.26186	8843.325
1383.72883	8541.925
1387.19347	8299.825
1390.65578	7998.725
1394.11575	7719.025
1397.57339	7588.525
1401.0287	7661.725
1404.48168	7814.025
1407.93234	7952.225
1411.38068	8066.525
1414.82669	8046.225
1418.27039	7876.825
1421.71177	7702.025
1425.15083	7508.325
1428.58758	7413.325
1432.02203	7439.225
1435.45416	7533.125
1438.88399	7627.325
1442.31151	7640.625
1445.73673	7653.525
1449.15965	7695.525
1452.58027	7669.325
1455.9986	7565.525
1459.41463	7508.525
1462.82837	7572.025
1466.23982	7693.825
1469.64898	7847.025
1473.05586	7926.325
1476.46045	8018.925
1479.86276	8125.325
1483.26279	8239.925
1486.66054	8386.725
1490.05602	8560.625
1493.44922	8884.825
1496.84016	9277.825
1500.22882	10001.925
1503.61521	10906.225
1506.99934	12066.825
1510.38121	13249.825
1513.76081	13875.925
1517.13816	13399.325
1520.51324	11996.825
1523.88607	10445.125
1527.25665	9391.725
1530.62498	8787.325
1533.99105	8450.425
1537.35488	8223.525
1540.71647	8092.925
1544.07581	8004.125
1547.4329	7919.325
1550.78776	7828.825
1554.14038	7773.625
1557.49077	7768.425
1560.83892	7846.125
1564.18484	7978.125
1567.52853	8167.625
1570.86999	8383.325
1574.20922	8557.125
1577.54624	8588.425
1580.88103	8336.325
1584.2136	7837.925
1587.54395	7626.525
1590.87208	7755.225
1594.19801	8220.025
1597.52172	8854.225
1600.84321	9236.525
1604.16251	9051.625
1607.47959	8467.625
1610.79447	7763.625
1614.10715	7068.525
1617.41763	6547.825
1620.7259	6228.025
1624.03199	6098.325
1627.33587	6106.925
1630.63757	6228.325
1633.93707	6525.225
1637.23439	6997.125
1640.52951	7695.925
1643.82246	8614.325
1647.11321	9567.325
1650.40179	10220.125
1653.68819	9949.425
1656.97241	8719.625
1660.25446	7297.225
1663.53433	6274.225
1666.81203	5679.525
1670.08756	5343.025
1673.36092	5159.125
1676.63211	5043.725
1679.90115	4961.525
1683.16801	4887.725
1686.43272	4854.825
1689.69527	4811.125
1692.95567	4768.825
1696.2139	4721.725
1699.46999	4680.425
1702.72392	4647.925
1705.97571	4667.225
1709.22535	4687.225
1712.47284	4719.325
1715.71819	4738.625
1718.96139	4744.425
1722.20246	4744.925
1725.44139	4726.625
1728.67818	4691.225
1731.91284	4653.525
1735.14537	4626.525
1738.37576	4600.725
1741.60403	4569.225
1744.83017	4540.825
1748.05418	4513.225
1751.27607	4501.225
1754.49584	4491.825
1757.71349	4461.925
1760.92903	4460.725
1764.14244	4431.025
1767.35375	4447.425
1770.56294	4438.925
1773.77002	4424.325
1776.97499	4429.225
1780.17785	4425.425
1783.37861	4450.025
1786.57727	4421.325
1789.77382	4432.625
1792.96828	4421.925
1796.16064	4419.825
1799.3509	4417.225
1802.53907	4409.525
1805.72514	4392.025
1808.90913	4382.325
1812.09102	4376.225
1815.27083	4354.725
1818.44856	4350.525
1821.6242	4354.425
1824.79776	4343.125
1827.96924	4328.925
1831.13864	4311.125
1834.30597	4331.525
1837.47122	4319.225
1840.6344	4319.225
1843.7955	4319.425
1846.95454	4319.125
1850.11151	4315.025
1853.26642	4306.325
1856.41926	4294.725
1859.57004	4308.025
1862.71876	4317.425
1865.86542	4311.425
1869.01003	4301.725
1872.15258	4317.525
1875.29308	4312.025
1878.43152	4301.525
1881.56792	4314.825
1884.70227	4315.025
1887.83457	4324.225
1890.96482	4307.825
1894.09304	4312.225
1897.21921	4297.225
1900.34335	4318.925
1903.46544	4301.525
1906.58551	4310.825
1909.70353	4302.725
1912.81953	4307.725
1915.93349	4292.525
1919.04543	4291.225
1922.15534	4287.125
1925.26322	4285.825
1928.36908	4256.925
1931.47292	4235.025
1934.57473	4230.725
1937.67453	4207.125
1940.77232	4175.025
1943.86808	4160.725
1946.96184	4143.825
1950.05358	4133.125
1953.14331	4123.325
1956.23103	4105.625
1959.31675	4091.725
1962.40046	4076.425
1965.48217	4064.725
1968.56188	4046.725
1971.63959	4049.725
1974.7153	4035.625
1977.78901	4008.925
1980.86073	4004.625
1983.93046	3992.425
1986.99819	3969.025
1990.06394	3961.125
1993.1277	3938.525
1996.18947	3931.425
1999.24925	3916.725
2002.30706	3903.625
2005.36288	3882.325
2008.41672	3887.925
2011.46859	3868.025
2014.51848	3854.825
2017.56639	3846.525
2020.61233	3841.625
2023.6563	3816.325
2026.6983	3824.325
2029.73833	3809.025
2032.7764	3785.125
2035.8125	3791.425
2038.84664	3768.125
2041.87881	3772.125
2044.90903	3754.925
2047.93729	3752.525
2050.96359	3741.325
2053.98794	3744.725
2057.01034	3733.825
2060.03078	3726.525
2063.04927	3738.825
2066.06582	3720.325
2069.08042	3721.225
2072.09307	3729.025
2075.10378	3707.525
2078.11255	3705.525
2081.11938	3701.925
2084.12426	3710.625
2087.12722	3709.725
2090.12824	3710.325
2093.12732	3705.125
2096.12447	3703.325
2099.11969	3690.325
2102.11299	3709.225
2105.10435	3709.525
2108.09379	3692.525
2111.08131	3698.625
2114.0669	3688.425
2117.05057	3703.825
2120.03233	3697.025
2123.01216	3704.125
2125.99008	3710.125
2128.96609	3698.625
2131.94018	3713.725
2134.91236	3707.025
2137.88263	3714.925
2140.851	3697.025
2143.81746	3709.725
2146.78201	3708.525
2149.74466	3712.025
2152.7054	3706.825
2155.66425	3712.125
2158.6212	3697.925
2161.57625	3685.425
2164.52941	3682.825
2167.48067	3684.725
2170.43004	3686.525
2173.37752	3697.525
2176.32311	3670.325
2179.26681	3676.025
2182.20863	3684.425
2185.14856	3680.425
2188.08661	3692.325
2191.02278	3678.725
2193.95707	3678.625
2196.88948	3669.325
2199.82001	3681.125
2202.74867	3669.225
2205.67545	3655.325
2208.60037	3649.425
2211.52341	3641.025
2214.44458	3634.325
2217.36388	3638.925
2220.28132	3625.725
2223.1969	3607.525
2226.11061	3601.525
2229.02246	3599.025
2231.93245	3591.325
2234.84058	3577.925
2237.74686	3584.125
2240.65128	3579.725
2243.55385	3556.425
2246.45456	3573.925
2249.35343	3565.025
2252.25044	3553.725
2255.14561	3548.325
2258.03893	3556.625
2260.93041	3525.025
2263.82004	3536.525
2266.70783	3536.025
2269.59378	3526.025
2272.4779	3517.025
2275.36017	3512.425
2278.24061	3502.625
2281.11922	3495.925
2283.996	3472.825
2286.87094	3475.925
2289.74405	3470.525
2292.61534	3461.225
2295.4848	3453.625
2298.35243	3455.125
2301.21824	3444.225
2304.08223	3445.525
2306.94439	3458.125
2309.80474	3443.225
2312.66327	3443.825
2315.51999	3434.525
2318.37489	3422.025
2321.22797	3416.725
2324.07925	3421.225
2326.92871	3409.825
2329.77637	3423.825
2332.62222	3411.925
2335.46626	3381.125
2338.3085	3398.825
2341.14893	3395.125
2343.98756	3397.025
2346.8244	3397.925
2349.65943	3385.725
2352.49267	3393.025
2355.32411	3384.625
2358.15376	3384.625
2360.98161	3395.125
2363.80768	3397.025
2366.63195	3406.325
2369.45444	3396.425
2372.27514	3405.225
2375.09405	3391.825
2377.91118	3386.225
2380.72652	3370.525
2383.54009	3342.125
2386.35187	3356.325
2389.16188	3323.125
2391.97011	3317.825
2394.77657	3303.625
2397.58125	3299.125
2400.38416	3304.225
2403.18529	3299.325
2405.98466	3277.425
2408.78226	3279.925
2411.57809	3265.725
2414.37216	3265.425
2417.16446	3249.725
2419.955	3261.125
2422.74378	3256.425
2425.5308	3249.025
2428.31606	3243.325
2431.09956	3247.725
2433.88131	3238.625
2436.6613	3247.925
2439.43954	3238.325
2442.21603	3242.225
2444.99077	3237.325
2447.76377	3239.125
2450.53501	3242.425
2453.30451	3251.025
2456.07226	3241.525
2458.83827	3231.525
2461.60254	3232.825
2464.36507	3219.325
2467.12586	3228.425
2469.88492	3215.525
2472.64224	3228.725
2475.39782	3224.825
2478.15167	3218.325
2480.90379	3216.625
2483.65417	3240.325
2486.40283	3226.025
2489.14976	3229.025
2491.89497	3237.025
2494.63845	3242.425
2497.3802	3220.525
2500.12024	3228.625
2502.85855	3215.225
2505.59514	3213.625
2508.33002	3202.525
2511.06318	3201.425
2513.79462	3201.525
2516.52435	3177.225
2519.25237	3168.125
2521.97867	3168.525
2524.70327	3178.425
2527.42616	3146.325
2530.14734	3145.525
2532.86681	3142.025
2535.58458	3136.325
2538.30065	3147.325
2541.01501	3145.525
2543.72768	3148.225
2546.43864	3137.125
2549.14791	3136.725
2551.85548	3136.125
2554.56136	3110.625
2557.26554	3116.725
2559.96803	3106.525
2562.66883	3105.925
2565.36794	3113.625
2568.06536	3107.025
2570.7611	3089.625
2573.45514	3088.925
2576.14751	3077.725
2578.83819	3086.525
2581.52719	3092.825
2584.21451	3085.125
2586.90015	3063.225
2589.58411	3069.225
2592.2664	3060.025
2594.94701	3059.125
2597.62594	3055.225
2600.30321	3038.725
2602.9788	3045.725
2605.65273	3048.725
2608.32498	3045.025
2610.99557	3043.225
2613.66449	3033.625
2616.33175	3037.625
2618.99734	3027.325
2621.66128	3026.425
2624.32355	3012.625
2626.98416	3021.325
2629.64311	3032.425
2632.30041	3005.425
2634.95605	3011.225
2637.61004	2998.025
2640.26238	2997.825
2642.91306	3002.625
2645.56209	2995.925
2648.20948	2981.025
2650.85521	2994.925
2653.4993	2978.925
2656.14175	2992.225
2658.78255	2997.225
2661.42171	2992.725
2664.05923	3008.825
2666.6951	2994.825
2669.32934	3002.425
2671.96194	3006.025
2674.59291	3012.125
2677.22224	2998.325
2679.84993	3018.725
2682.476	3008.025
2685.10043	3007.525
2687.72324	2998.225
2690.34441	2999.825
2692.96396	3015.825
2695.58188	3011.825
2698.19818	3007.425
2700.81285	3005.625
2703.4259	2999.325
2706.03733	3000.225
2708.64714	2986.525
2711.25533	3007.225
2713.86191	3002.625
2716.46687	3017.725
2719.07021	3006.125
2721.67194	3017.225
2724.27206	3024.725
2726.87057	3033.525
2729.46747	3020.625
2732.06276	3023.625
2734.65644	3013.225
2737.24852	3010.425
2739.83899	3005.325
2742.42786	3005.325
2745.01513	2987.425
2747.60079	2999.725
2750.18486	2984.125
2752.76733	2978.925
2755.3482	2995.525
2757.92747	2979.925
2760.50515	2971.125
2763.08123	2961.325
2765.65573	2967.025
2768.22863	2974.925
2770.79994	2972.425
2773.36967	2960.325
2775.9378	2962.325
2778.50435	2970.425
2781.06932	2970.425
2783.6327	2959.325
2786.1945	2955.525
2788.75471	2961.425
2791.31335	2954.625
2793.87041	2946.025
2796.42589	2961.925
2798.97979	2957.925
2801.53212	2948.425
2804.08288	2950.325
2806.63206	2957.925
2809.17967	2932.425
2811.72571	2943.225
2814.27018	2947.425
2816.81308	2931.025
2819.35442	2939.225
2821.89419	2947.925
2824.43239	2939.325
2826.96904	2957.125
2829.50412	2946.725
2832.03763	2943.425
2834.56959	2965.325
2837.1	2965.125
2839.62884	2987.525
2842.15613	2993.125
2844.68186	3020.825
2847.20604	3070.625
2849.72867	3100.925
2852.24974	3102.425
2854.76927	3104.625
2857.28724	3091.025
2859.80367	3094.025
2862.31855	3086.325
2864.83189	3068.825
2867.34368	3056.525
2869.85393	3055.225
2872.36264	3055.525
2874.8698	3044.125
2877.37543	3046.825
2879.87952	3041.625
2882.38207	3043.225
2884.88308	3040.225
2887.38256	3040.225
2889.88051	3042.725
2892.37692	3022.325
2894.8718	3032.325
2897.36515	3043.125
2899.85698	3034.825
2902.34727	3038.525
2904.83604	3046.725
2907.32328	3047.825
2909.809	3044.025
2912.29319	3031.925
2914.77587	3046.325
2917.25702	3035.425
2919.73665	3035.725
2922.21476	3040.025
2924.69136	3025.225
2927.16644	3031.925
2929.64	3024.525
2932.11205	3023.625
2934.58258	3000.025
2937.05161	3002.825
2939.51912	2986.525
2941.98513	2967.125
2944.44962	2940.925
2946.91261	2928.025
2949.37409	2897.825
2951.83407	2894.725
2954.29254	2868.225
2956.74951	2844.225
2959.20498	2856.225
2961.65895	2842.625
2964.11142	2845.625
2966.56239	2836.925
2969.01186	2810.925
2971.45984	2817.425
2973.90632	2800.925
2976.35131	2802.725
2978.7948	2785.625
2981.23681	2771.325
2983.67732	2773.725
2986.11635	2769.125
2988.55388	2756.225
2990.98993	2745.125
2993.4245	2729.925
2995.85758	2726.625
2998.28917	2725.125
3000.71928	2704.025
3003.14791	2706.325
3005.57506	2708.625
3008.00073	2694.825
3010.42493	2687.925
3012.84764	2695.625
3015.26888	2703.125
3017.68865	2686.325
3020.10694	2683.625
3022.52376	2672.125
3024.9391	2676.325
3027.35298	2670.025
3029.76539	2678.625
3032.17632	2667.625
3034.5858	2656.325
3036.9938	2662.625
3039.40034	2655.625
3041.80542	2657.325
3044.20903	2651.925
3046.61118	2653.125
3049.01187	2651.225
3051.4111	2637.825
3053.80888	2653.725
3056.20519	2642.325
3058.60005	2634.525
3060.99345	2638.425
3063.3854	2631.725
3065.7759	2622.125
3068.16494	2623.525
3070.55254	2618.025
3072.93868	2611.025
3075.32338	2599.625
3077.70662	2598.825
3080.08842	2591.725
3082.46878	2589.425
3084.84769	2599.225
3087.22515	2570.725
3089.60118	2571.625
3091.97576	2589.025
3094.3489	2585.325
3096.72061	2592.225
3099.09087	2585.925
3101.4597	2580.325
3103.82709	2583.225
3106.19305	2573.925
3108.55757	2576.625
3110.92066	2575.425
3113.28232	2569.325
3115.64255	2571.925
3118.00134	2575.325
3120.35871	2563.125
3122.71466	2565.625
3125.06917	2567.325
3127.42226	2560.725
3129.77393	2568.325
3132.12417	2561.125
3134.47299	2569.425
3136.82039	2572.625
3139.16636	2584.525
3141.51092	2579.325
3143.85406	2578.325
3146.19579	2583.725
3148.53609	2592.325
3150.87499	2602.625
3153.21246	2606.525
3155.54853	2609.325
3157.88318	2616.125
3160.21642	2608.125
3162.54826	2620.425
3164.87868	2613.425
3167.2077	2612.325
3169.5353	2626.225
3171.86151	2631.225
3174.18631	2631.225
3176.5097	2638.725
3178.83169	2639.225
3181.15228	2630.425
3183.47147	2637.625
3185.78926	2631.225
3188.10565	2627.825
3190.42065	2638.525
3192.73424	2640.825
3195.04645	2638.525
3197.35725	2642.425
3199.66667	2636.425
3201.97469	2644.325
3204.28132	2636.125
3206.58656	2666.525
3208.8904	2672.125
3211.19287	2670.825
3213.49394	2664.225
3215.79363	2678.625
3218.09193	2677.925
3220.38884	2674.025
3222.68438	2676.925
3224.97853	2661.725
3227.2713	2669.825
3229.56269	2672.425
3231.8527	2666.625
3234.14133	2662.925
3236.42858	2675.525
3238.71446	2664.525
3240.99896	2654.825
3243.28209	2674.925
3245.56384	2656.225
3247.84423	2650.825
3250.12324	2644.125
3252.40088	2651.525
3254.67715	2639.025
3256.95205	2647.225
3259.22558	2653.225
3261.49775	2652.725
3263.76855	2648.025
3266.03799	2628.225
3268.30606	2624.625
3270.57277	2639.225
3272.83812	2616.725
3275.10211	2614.925
3277.36474	2609.525
3279.62601	2599.625
3281.88593	2593.325
3284.14448	2602.725
3286.40168	2600.125
3288.65753	2605.725
3290.91202	2607.025
3293.16516	2590.625
3295.41695	2593.425
3297.66738	2587.225
3299.91647	2569.025
3302.16421	2550.525
3304.4106	2535.225
3306.65564	2534.525
3308.89933	2531.525
3311.14169	2499.825
3313.38269	2483.125
3315.62236	2461.825
3317.86068	2429.925
3320.09766	2424.425
3322.3333	2415.025
3324.5676	2403.225
3326.80056	2354.025
3329.03219	2351.025
3331.26248	0.425
3333.49143	-0.575
3335.71905	-0.875
