Data from AgNPs_FTO_APTES_UA_1uM_CRN_500uM_R6G_10uM_NaF_0.1M_Addition_RamanShift__35__18-25-29-905.txt Node

Date: Thu Jan 27 18:25:29 GMT 2022
User: TCL
Spectrometer: QEP01345
Trigger mode: 4
Integration Time (sec): 7.000000E0
Scans to average: 10
Electric dark correction enabled: true
Nonlinearity correction enabled: false
Boxcar width: 0
XAxis mode: Raman Shifts
Number of Pixels in Spectrum: 1044
>>>>>Begin Spectral Data<<<<<
46.04893	0
50.45542	0.2
54.85868	-1.9
59.25871	-1.9
63.6555	46.9
68.04907	48.2
72.43941	53.8
76.82654	52.7
81.21044	52.9
85.59113	54.9
89.96862	59.1
94.34289	58.8
98.71396	62.6
103.08183	65.8
107.4465	67.6
111.80798	67.9
116.16626	70.6
120.52136	73.4
124.87327	72.2
129.222	74.5
133.56755	76.5
137.90993	78.4
142.24913	85.1
146.58517	91.1
150.91804	111.6
155.24774	124.4
159.57429	147.5
163.89768	186.1
168.21792	244.2
172.53501	325.9
176.84895	449.2
181.15975	622.2
185.46741	870.7
189.77193	1199
194.07331	1597.4
198.37157	2068.7
202.6667	2547.1
206.9587	3028.3
211.24758	3506.4
215.53334	3988.4
219.81599	4469.1
224.09553	5022.5
228.37195	5656.8
232.64527	6310.5
236.91549	7030.7
241.18261	7743.6
245.44663	8392.1
249.70755	9003.1
253.96539	9528.7
258.22014	9972.4
262.4718	10337.6
266.72039	10578
270.96589	10683.4
275.20832	10682.4
279.44768	10588.1
283.68397	10426.2
287.91719	10268.4
292.14735	10145.2
296.37445	10109.6
300.59849	10090.7
304.81948	10148.7
309.03742	10149.8
313.25231	10118.5
317.46415	10014
321.67296	9833.1
325.87872	9755.2
330.08145	9736.9
334.28114	9748.2
338.47781	9846.1
342.67145	9955
346.86207	10070.9
351.04966	10219.7
355.23424	10387
359.4158	10555.5
363.59435	10710.6
367.76989	10783.7
371.94243	10871.8
376.11196	10930.2
380.27849	11009.4
384.44203	11070.8
388.60257	11142.9
392.76012	11185.1
396.91468	11279.3
401.06626	11408.6
405.21485	11558.4
409.36047	11532.8
413.50311	11417.5
417.64277	11310.1
421.77947	11297
425.9132	11317.1
430.04396	11404.4
434.17176	11507.6
438.2966	11706.4
442.41849	11979.1
446.53742	12435
450.6534	12921
454.76644	13196.7
458.87653	13177
462.98368	12920.1
467.08789	12610.5
471.18916	12328.2
475.2875	12065.9
479.38291	11869
483.4754	11740.1
487.56496	11628
491.6516	11508.8
495.73531	11404
499.81612	11359.3
503.89401	11401.2
507.96899	11411.7
512.04106	11394.3
516.11023	11388.2
520.1765	11395.2
524.23987	11407.7
528.30034	11407.8
532.35792	11373.2
536.41261	11251.2
540.46441	11094.5
544.51333	11034.3
548.55936	11085.2
552.60252	11251.6
556.64279	11542.9
560.6802	11743.2
564.71473	11769
568.7464	11837.8
572.7752	11933.9
576.80114	12050.7
580.82422	12172.4
584.84444	12473
588.86181	13179.5
592.87633	14012.2
596.888	14510.5
600.89682	14170
604.9028	13870.2
608.90594	14304.2
612.90624	15136
616.90371	14515.8
620.89834	12567.6
624.89015	11623.8
628.87913	11460.6
632.86528	11469.7
636.84862	11435.9
640.82913	11293.4
644.80683	11089
648.78172	10969.3
652.75379	10983.2
656.72306	11095.2
660.68952	11246.9
664.65319	11184.8
668.61405	11030.5
672.57211	11008
676.52738	11028.7
680.47986	11079.5
684.42955	10999.6
688.37646	10950.4
692.32058	10930.6
696.26192	11057.7
700.20048	11143.8
704.13626	11205.1
708.06928	11159.8
711.99952	11084.2
715.927	11081.1
719.85171	11148.8
723.77365	11129.5
727.69284	11063.5
731.60928	10976
735.52295	10989.1
739.43388	11019.8
743.34206	11046.7
747.24749	11077.3
751.15017	11141.7
755.05012	11215.9
758.94733	11413
762.8418	11812
766.73354	12487
770.62254	13240.4
774.50882	13593.6
778.39237	13245.6
782.27321	12443.4
786.15132	11700.3
790.02671	11273
793.89938	11050.7
797.76935	11017.9
801.6366	10971.8
805.50115	10900.1
809.36299	10879.4
813.22213	10844.8
817.07857	10800.6
820.93231	10772.6
824.78336	10778.9
828.63172	10766.3
832.47738	10783.7
836.32036	10814.6
840.16066	10868.1
843.99827	10914.2
847.8332	10855.2
851.66546	10815.7
855.49504	10819.5
859.32195	10792.9
863.1462	10780.3
866.96777	10789
870.78668	10783.4
874.60293	10750.3
878.41652	10738.7
882.22745	10754.2
886.03573	10833.4
889.84136	10859.7
893.64433	10808
897.44466	10737
901.24235	10683.7
905.0374	10661
908.8298	10622.7
912.61957	10612.1
916.40671	10707.7
920.19121	10783.9
923.97308	10885.7
927.75233	10978.3
931.52895	10988.8
935.30295	10860.8
939.07433	10654.7
942.84309	10542.1
946.60924	10485.5
950.37278	10431.9
954.13371	10372.8
957.89203	10340.1
961.64774	10310
965.40086	10294.4
969.15137	10267.6
972.89929	10224.1
976.64461	10233.3
980.38733	10247
984.12747	10273.3
987.86502	10359.6
991.59999	10449.1
995.33237	10618.3
999.06217	10882.1
1002.78939	11167.1
1006.51404	11340.4
1010.23611	11343
1013.95561	11408.4
1017.67255	11411.1
1021.38692	11313.1
1025.09872	11173.2
1028.80796	11152.7
1032.51465	11326.4
1036.21877	11559.7
1039.92035	11665.8
1043.61937	11565.1
1047.31584	11386.3
1051.00976	11194.8
1054.70114	11076.1
1058.38998	11031.3
1062.07627	11038.7
1065.76003	11081.2
1069.44126	11124.5
1073.11995	11215.2
1076.79611	11328.2
1080.46974	11385.8
1084.14085	11421.1
1087.80943	11463.9
1091.47549	11498
1095.13903	11489.4
1098.80005	11354.7
1102.45857	11206.1
1106.11456	11085.2
1109.76805	11075.1
1113.41903	11146.6
1117.06751	11218.1
1120.71348	11330.5
1124.35696	11470.6
1127.99793	11650.7
1131.63641	11746.3
1135.2724	11613.8
1138.90589	11425
1142.5369	11367.8
1146.16542	11383.5
1149.79145	11441.5
1153.415	11471.6
1157.03607	11568.8
1160.65467	11785
1164.27079	12117.8
1167.88443	12646.5
1171.49561	13315.4
1175.10432	14186.7
1178.71056	15313.4
1182.31434	16377.8
1185.91565	16770
1189.51451	16437.5
1193.11091	15715.3
1196.70485	15029.4
1200.29634	14468.8
1203.88538	14064.7
1207.47197	13735.2
1211.05612	13415.2
1214.63782	13221.9
1218.21708	13172.9
1221.79391	13280.1
1225.36829	13374.6
1228.94024	13257.7
1232.50976	12968
1236.07685	12693.6
1239.6415	12512.2
1243.20374	12507.3
1246.76355	12519
1250.32093	12688.7
1253.8759	12913.7
1257.42845	13156.4
1260.97859	13455.4
1264.52631	13679.8
1268.07163	13980
1271.61453	14282.2
1275.15503	14572.8
1278.69312	14910.8
1282.22882	15238.7
1285.76211	15628.3
1289.29301	16142.3
1292.82151	16797.3
1296.34761	17564
1299.87133	18542.4
1303.39266	19617.7
1306.9116	20783.2
1310.42815	21963.1
1313.94233	22723
1317.45412	22745.2
1320.96354	22027.8
1324.47058	20985.8
1327.97525	19979.9
1331.47754	19286.7
1334.97747	18880.6
1338.47502	18656.7
1341.97022	18352.5
1345.46305	18028.8
1348.95352	18077.9
1352.44163	18673
1355.92738	19894.3
1359.41078	21364.4
1362.89183	22619.8
1366.37053	22591.4
1369.84688	20854.5
1373.32088	18298.2
1376.79254	16459.7
1380.26186	15744.2
1383.72883	15662.1
1387.19347	15537
1390.65578	15240.5
1394.11575	15071.2
1397.57339	15234.8
1401.0287	15660.8
1404.48168	16026.2
1407.93234	16166.3
1411.38068	16009.4
1414.82669	15612.8
1418.27039	15145
1421.71177	14648
1425.15083	14182.5
1428.58758	13957.6
1432.02203	14102.2
1435.45416	14451.5
1438.88399	14829.4
1442.31151	15105.4
1445.73673	15238.8
1449.15965	15300.9
1452.58027	15274.3
1455.9986	15059.1
1459.41463	14842.3
1462.82837	14861.3
1466.23982	15139.1
1469.64898	15525.5
1473.05586	15827.2
1476.46045	16061.7
1479.86276	16141.8
1483.26279	16158
1486.66054	16121.8
1490.05602	16118.7
1493.44922	16131.5
1496.84016	16104.8
1500.22882	16054.4
1503.61521	16283
1506.99934	16683.6
1510.38121	17098.9
1513.76081	17241.3
1517.13816	16912.6
1520.51324	16250.3
1523.88607	15687.1
1527.25665	15390.9
1530.62498	15325.4
1533.99105	15312.3
1537.35488	15252.4
1540.71647	15054.5
1544.07581	14804.9
1547.4329	14559.4
1550.78776	14319.9
1554.14038	14045.6
1557.49077	13864.3
1560.83892	13771.8
1564.18484	13694
1567.52853	13752.1
1570.86999	13923.4
1574.20922	14164.5
1577.54624	14353
1580.88103	14357
1584.2136	14314.4
1587.54395	14516.5
1590.87208	15177.7
1594.19801	16172.9
1597.52172	17323.5
1600.84321	18056.4
1604.16251	17736.9
1607.47959	16433.9
1610.79447	14805.8
1614.10715	13413.6
1617.41763	12470.5
1620.7259	11897.1
1624.03199	11656.1
1627.33587	11709.5
1630.63757	11968.7
1633.93707	12550.4
1637.23439	13549.5
1640.52951	15048.7
1643.82246	17003.6
1647.11321	18654.2
1650.40179	18959.7
1653.68819	17595.1
1656.97241	15198.7
1660.25446	13129.9
1663.53433	11744.2
1666.81203	10937.7
1670.08756	10458.4
1673.36092	10180.6
1676.63211	9975.8
1679.90115	9829
1683.16801	9734.1
1686.43272	9638.6
1689.69527	9572.8
1692.95567	9515.3
1696.2139	9448.7
1699.46999	9376.5
1702.72392	9334.2
1705.97571	9313
1709.22535	9378.8
1712.47284	9369.8
1715.71819	9391.3
1718.96139	9401.9
1722.20246	9383.9
1725.44139	9343.9
1728.67818	9288.9
1731.91284	9256.2
1735.14537	9232.3
1738.37576	9157.9
1741.60403	9169.7
1744.83017	9141.1
1748.05418	9132
1751.27607	9109.1
1754.49584	9077.1
1757.71349	9079.6
1760.92903	9058.6
1764.14244	9027.7
1767.35375	9021.9
1770.56294	8977.9
1773.77002	8968.5
1776.97499	8992.3
1780.17785	8995.5
1783.37861	9020.1
1786.57727	9009.8
1789.77382	8985.1
1792.96828	8956.3
1796.16064	8936.1
1799.3509	8909.6
1802.53907	8899.9
1805.72514	8894.4
1808.90913	8895.9
1812.09102	8833.2
1815.27083	8842.8
1818.44856	8829.2
1821.6242	8792.6
1824.79776	8773.9
1827.96924	8783.4
1831.13864	8783.2
1834.30597	8775.2
1837.47122	8760
1840.6344	8753.5
1843.7955	8743.1
1846.95454	8728.1
1850.11151	8720.9
1853.26642	8711.4
1856.41926	8736.1
1859.57004	8727.7
1862.71876	8716.1
1865.86542	8711.2
1869.01003	8717.4
1872.15258	8694.5
1875.29308	8706.1
1878.43152	8681.1
1881.56792	8662.8
1884.70227	8660.8
1887.83457	8674
1890.96482	8648.9
1894.09304	8644.5
1897.21921	8652.7
1900.34335	8649.1
1903.46544	8635.2
1906.58551	8660.1
1909.70353	8623.1
1912.81953	8612.1
1915.93349	8612.2
1919.04543	8580.2
1922.15534	8558.2
1925.26322	8575.4
1928.36908	8528.5
1931.47292	8539.5
1934.57473	8520
1937.67453	8485.8
1940.77232	8462.7
1943.86808	8440
1946.96184	8412.5
1950.05358	8413.3
1953.14331	8376.2
1956.23103	8353.7
1959.31675	8359.4
1962.40046	8308.7
1965.48217	8279.3
1968.56188	8278.3
1971.63959	8253.8
1974.7153	8224.2
1977.78901	8201.8
1980.86073	8187.1
1983.93046	8153.5
1986.99819	8127.6
1990.06394	8095.6
1993.1277	8081.8
1996.18947	8043.8
1999.24925	8040
2002.30706	7997.6
2005.36288	8009
2008.41672	7981.9
2011.46859	7964.3
2014.51848	7937.2
2017.56639	7923.5
2020.61233	7889.1
2023.6563	7895
2026.6983	7866.3
2029.73833	7853.6
2032.7764	7845.3
2035.8125	7814
2038.84664	7809.6
2041.87881	7803.4
2044.90903	7783.8
2047.93729	7790.5
2050.96359	7763.7
2053.98794	7733.4
2057.01034	7741.8
2060.03078	7742.8
2063.04927	7733
2066.06582	7741.2
2069.08042	7736.9
2072.09307	7718.5
2075.10378	7731.2
2078.11255	7720.3
2081.11938	7711
2084.12426	7701.2
2087.12722	7713.2
2090.12824	7693.4
2093.12732	7704.2
2096.12447	7690
2099.11969	7690.6
2102.11299	7698.4
2105.10435	7720.4
2108.09379	7724.6
2111.08131	7730.7
2114.0669	7705.3
2117.05057	7757.7
2120.03233	7736.3
2123.01216	7726
2125.99008	7746.5
2128.96609	7764.3
2131.94018	7765
2134.91236	7767.8
2137.88263	7776
2140.851	7764.7
2143.81746	7765
2146.78201	7756.3
2149.74466	7767
2152.7054	7764.9
2155.66425	7754.7
2158.6212	7745.5
2161.57625	7744.6
2164.52941	7747.7
2167.48067	7756.4
2170.43004	7760.7
2173.37752	7766.5
2176.32311	7764.5
2179.26681	7755.1
2182.20863	7752.2
2185.14856	7763.1
2188.08661	7774
2191.02278	7786.6
2193.95707	7764.4
2196.88948	7738.4
2199.82001	7748.8
2202.74867	7742.2
2205.67545	7750.5
2208.60037	7729.5
2211.52341	7711
2214.44458	7716.1
2217.36388	7693.1
2220.28132	7675
2223.1969	7684.1
2226.11061	7660.2
2229.02246	7655.8
2231.93245	7652.6
2234.84058	7631
2237.74686	7619
2240.65128	7634.7
2243.55385	7582.3
2246.45456	7574.3
2249.35343	7583.7
2252.25044	7571.9
2255.14561	7532.9
2258.03893	7530.1
2260.93041	7514.9
2263.82004	7501.5
2266.70783	7481.1
2269.59378	7460.3
2272.4779	7430.9
2275.36017	7457.9
2278.24061	7432.9
2281.11922	7422.3
2283.996	7410.6
2286.87094	7397.7
2289.74405	7403.6
2292.61534	7405.5
2295.4848	7376.2
2298.35243	7379.7
2301.21824	7368.5
2304.08223	7387.7
2306.94439	7384.5
2309.80474	7396.7
2312.66327	7393.7
2315.51999	7356
2318.37489	7391.4
2321.22797	7356.3
2324.07925	7340.8
2326.92871	7336.5
2329.77637	7323.1
2332.62222	7318.4
2335.46626	7312.7
2338.3085	7323.5
2341.14893	7316.9
2343.98756	7295.5
2346.8244	7290.2
2349.65943	7284.2
2352.49267	7286.4
2355.32411	7296.2
2358.15376	7294.7
2360.98161	7285.2
2363.80768	7287.7
2366.63195	7279.4
2369.45444	7268.2
2372.27514	7255.9
2375.09405	7246.4
2377.91118	7234.2
2380.72652	7214.4
2383.54009	7199.6
2386.35187	7190.7
2389.16188	7178
2391.97011	7171.9
2394.77657	7148.9
2397.58125	7144
2400.38416	7145.9
2403.18529	7136.7
2405.98466	7110.6
2408.78226	7103.6
2411.57809	7093.1
2414.37216	7096.5
2417.16446	7068.9
2419.955	7064.3
2422.74378	7057.8
2425.5308	7081.7
2428.31606	7071.3
2431.09956	7069.3
2433.88131	7055.1
2436.6613	7049.9
2439.43954	7047.1
2442.21603	7050.1
2444.99077	7050.3
2447.76377	7029.3
2450.53501	7046.7
2453.30451	7033.1
2456.07226	7017.9
2458.83827	7013.3
2461.60254	7025.2
2464.36507	7018.5
2467.12586	7017.7
2469.88492	7012.3
2472.64224	7017.2
2475.39782	6996.9
2478.15167	6998.4
2480.90379	6995.8
2483.65417	7015.6
2486.40283	6980.8
2489.14976	7008
2491.89497	7007
2494.63845	6972.4
2497.3802	6984.4
2500.12024	7002.8
2502.85855	6997.8
2505.59514	7010.7
2508.33002	6979.5
2511.06318	6978.5
2513.79462	6968.9
2516.52435	6956.7
2519.25237	6958.1
2521.97867	6953.2
2524.70327	6951.8
2527.42616	6928.4
2530.14734	6932.1
2532.86681	6928.3
2535.58458	6925
2538.30065	6909.3
2541.01501	6898.3
2543.72768	6912.8
2546.43864	6892.4
2549.14791	6881.5
2551.85548	6887.8
2554.56136	6867.4
2557.26554	6855
2559.96803	6850.1
2562.66883	6842.6
2565.36794	6861.6
2568.06536	6860.1
2570.7611	6849.6
2573.45514	6826.9
2576.14751	6827.8
2578.83819	6815.9
2581.52719	6814.6
2584.21451	6787.6
2586.90015	6812.2
2589.58411	6789.5
2592.2664	6793
2594.94701	6766.6
2597.62594	6763.5
2600.30321	6757.7
2602.9788	6765.3
2605.65273	6749
2608.32498	6755.8
2610.99557	6724.5
2613.66449	6735.3
2616.33175	6723.6
2618.99734	6710.6
2621.66128	6734.1
2624.32355	6727.8
2626.98416	6716.1
2629.64311	6714.6
2632.30041	6714.8
2634.95605	6709.9
2637.61004	6677.6
2640.26238	6684.4
2642.91306	6669.5
2645.56209	6661.5
2648.20948	6655.9
2650.85521	6681.7
2653.4993	6678.6
2656.14175	6684.4
2658.78255	6694
2661.42171	6690
2664.05923	6707.4
2666.6951	6689.8
2669.32934	6692.7
2671.96194	6690.7
2674.59291	6701.8
2677.22224	6680.9
2679.84993	6690.6
2682.476	6694
2685.10043	6670.9
2687.72324	6688.2
2690.34441	6690.1
2692.96396	6690.3
2695.58188	6708.3
2698.19818	6677.2
2700.81285	6698.9
2703.4259	6676.7
2706.03733	6682.6
2708.64714	6655.7
2711.25533	6683.9
2713.86191	6672.4
2716.46687	6687.4
2719.07021	6701.8
2721.67194	6711.1
2724.27206	6711.4
2726.87057	6722.2
2729.46747	6713.2
2732.06276	6744.1
2734.65644	6704.1
2737.24852	6724.9
2739.83899	6713
2742.42786	6722.2
2745.01513	6676.9
2747.60079	6697.5
2750.18486	6686.8
2752.76733	6694.3
2755.3482	6681.6
2757.92747	6689.2
2760.50515	6681.3
2763.08123	6678.1
2765.65573	6694.5
2768.22863	6669
2770.79994	6680.6
2773.36967	6678.9
2775.9378	6684.8
2778.50435	6661.4
2781.06932	6642.1
2783.6327	6653
2786.1945	6656.7
2788.75471	6635.3
2791.31335	6631.5
2793.87041	6615.7
2796.42589	6613.8
2798.97979	6628
2801.53212	6617.8
2804.08288	6613.5
2806.63206	6583.8
2809.17967	6573.4
2811.72571	6576.9
2814.27018	6559.6
2816.81308	6551.5
2819.35442	6548.5
2821.89419	6516.4
2824.43239	6527.3
2826.96904	6532.6
2829.50412	6533.4
2832.03763	6513.1
2834.56959	6535
2837.1	6531.6
2839.62884	6537.3
2842.15613	6574.6
2844.68186	6624.7
2847.20604	6670.5
2849.72867	6682.1
2852.24974	6668.4
2854.76927	6684.6
2857.28724	6655.5
2859.80367	6649.3
2862.31855	6633.7
2864.83189	6643.1
2867.34368	6628.1
2869.85393	6621.8
2872.36264	6639
2874.8698	6625.6
2877.37543	6612.7
2879.87952	6603.8
2882.38207	6618.8
2884.88308	6608.3
2887.38256	6625.1
2889.88051	6609.9
2892.37692	6613.9
2894.8718	6645.4
2897.36515	6635.6
2899.85698	6660.5
2902.34727	6654.4
2904.83604	6667.7
2907.32328	6694.3
2909.809	6693.1
2912.29319	6692.2
2914.77587	6690.2
2917.25702	6688.8
2919.73665	6669.5
2922.21476	6686.2
2924.69136	6682.6
2927.16644	6691.2
2929.64	6678.2
2932.11205	6669.5
2934.58258	6644.2
2937.05161	6667.5
2939.51912	6658.1
2941.98513	6636.5
2944.44962	6596.8
2946.91261	6559.1
2949.37409	6552.3
2951.83407	6547.2
2954.29254	6534.5
2956.74951	6517.5
2959.20498	6541.2
2961.65895	6520.5
2964.11142	6524.4
2966.56239	6501
2969.01186	6464.4
2971.45984	6472
2973.90632	6475.3
2976.35131	6457.7
2978.7948	6440.5
2981.23681	6433
2983.67732	6413.5
2986.11635	6401.2
2988.55388	6383.1
2990.98993	6347.7
2993.4245	6335.2
2995.85758	6344
2998.28917	6316.4
3000.71928	6323.5
3003.14791	6299.5
3005.57506	6307.9
3008.00073	6291.4
3010.42493	6275.4
3012.84764	6291.1
3015.26888	6276.2
3017.68865	6267.5
3020.10694	6260.5
3022.52376	6263.6
3024.9391	6241.7
3027.35298	6233.9
3029.76539	6249.8
3032.17632	6234.9
3034.5858	6233.7
3036.9938	6233.9
3039.40034	6201.6
3041.80542	6200.7
3044.20903	6202.2
3046.61118	6203.5
3049.01187	6182.3
3051.4111	6198.8
3053.80888	6200.9
3056.20519	6188.3
3058.60005	6191.5
3060.99345	6159
3063.3854	6162.3
3065.7759	6132.1
3068.16494	6127.7
3070.55254	6134.9
3072.93868	6117
3075.32338	6099.5
3077.70662	6088.7
3080.08842	6090.9
3082.46878	6081.5
3084.84769	6080.1
3087.22515	6076.7
3089.60118	6077.3
3091.97576	6094.7
3094.3489	6087.1
3096.72061	6092.1
3099.09087	6092.1
3101.4597	6087.3
3103.82709	6083
3106.19305	6107.2
3108.55757	6087.4
3110.92066	6084.9
3113.28232	6074.2
3115.64255	6057.6
3118.00134	6049.1
3120.35871	6056.6
3122.71466	6038.5
3125.06917	6028.3
3127.42226	6036.9
3129.77393	6047
3132.12417	6020.9
3134.47299	6034.7
3136.82039	6036.9
3139.16636	6054.8
3141.51092	6060.6
3143.85406	6057.6
3146.19579	6059.5
3148.53609	6072
3150.87499	6078.8
3153.21246	6085.3
3155.54853	6088.1
3157.88318	6103.2
3160.21642	6082.8
3162.54826	6101.2
3164.87868	6093.9
3167.2077	6100.1
3169.5353	6103.3
3171.86151	6126.4
3174.18631	6133.7
3176.5097	6095
3178.83169	6103.6
3181.15228	6090.5
3183.47147	6097.1
3185.78926	6092.4
3188.10565	6092.4
3190.42065	6095.5
3192.73424	6092.6
3195.04645	6100.2
3197.35725	6092.4
3199.66667	6090.9
3201.97469	6094
3204.28132	6090.2
3206.58656	6100.2
3208.8904	6112.4
3211.19287	6119.1
3213.49394	6135.9
3215.79363	6125
3218.09193	6137.9
3220.38884	6142.2
3222.68438	6156
3224.97853	6139.5
3227.2713	6145.3
3229.56269	6129.9
3231.8527	6142.5
3234.14133	6134.3
3236.42858	6113.8
3238.71446	6100
3240.99896	6107.5
3243.28209	6105.2
3245.56384	6085.7
3247.84423	6083.5
3250.12324	6090.1
3252.40088	6095.8
3254.67715	6092.4
3256.95205	6086.7
3259.22558	6072.8
3261.49775	6069.9
3263.76855	6053.7
3266.03799	6058.5
3268.30606	6052.6
3270.57277	6049.8
3272.83812	6029.3
3275.10211	6027.6
3277.36474	6013.9
3279.62601	6012.7
3281.88593	6004.2
3284.14448	6010
3286.40168	5995.2
3288.65753	6022.7
3290.91202	6015.7
3293.16516	5984.4
3295.41695	5974.3
3297.66738	5934.7
3299.91647	5949.5
3302.16421	5886.7
3304.4106	5855.1
3306.65564	5837.7
3308.89933	5806.3
3311.14169	5763.9
3313.38269	5721.2
3315.62236	5708.8
3317.86068	5662.4
3320.09766	5615.4
3322.3333	5574.4
3324.5676	5557.6
3326.80056	5477.5
3329.03219	5449.5
3331.26248	3.6
3333.49143	-0.4
3335.71905	-0.2
