Data from AgNPs_FTO_APTES_UA_1uM_CRN_100uM_R6G_10uM_NaF_0.1M_Addition_RamanShift__2__16-22-59-765.txt Node

Date: Thu Jan 27 16:22:59 GMT 2022
User: TCL
Spectrometer: QEP01345
Trigger mode: 4
Integration Time (sec): 7.000000E0
Scans to average: 10
Electric dark correction enabled: true
Nonlinearity correction enabled: false
Boxcar width: 0
XAxis mode: Raman Shifts
Number of Pixels in Spectrum: 1044
>>>>>Begin Spectral Data<<<<<
46.04893	0.5
50.45542	0.3
54.85868	-0.2
59.25871	-1.6
63.6555	45.6
68.04907	49.1
72.43941	51.2
76.82654	58.4
81.21044	56.5
85.59113	56
89.96862	60
94.34289	62.8
98.71396	69.8
103.08183	65.6
107.4465	65.7
111.80798	71.9
116.16626	70.5
120.52136	73.7
124.87327	77.9
129.222	72.1
133.56755	80.9
137.90993	84.9
142.24913	90.7
146.58517	101.2
150.91804	113.1
155.24774	132.3
159.57429	159.3
163.89768	196.3
168.21792	257.7
172.53501	350.5
176.84895	475.4
181.15975	665.2
185.46741	935.4
189.77193	1288.2
194.07331	1713.7
198.37157	2206.3
202.6667	2727.2
206.9587	3245
211.24758	3746
215.53334	4277.1
219.81599	4795
224.09553	5389.8
228.37195	6017.9
232.64527	6737.1
236.91549	7469.5
241.18261	8216.8
245.44663	8938.9
249.70755	9594.8
253.96539	10189.6
258.22014	10655.9
262.4718	11077.7
266.72039	11384.8
270.96589	11511.9
275.20832	11536.5
279.44768	11466.1
283.68397	11385.2
287.91719	11306.1
292.14735	11225.3
296.37445	11239.9
300.59849	11267.1
304.81948	11302.3
309.03742	11315.8
313.25231	11223.8
317.46415	11016.3
321.67296	10778.5
325.87872	10558.9
330.08145	10435.2
334.28114	10414.9
338.47781	10468.3
342.67145	10587.9
346.86207	10737.1
351.04966	10928.7
355.23424	11128.2
359.4158	11299
363.59435	11459.4
367.76989	11554.2
371.94243	11645
376.11196	11679.8
380.27849	11751.7
384.44203	11798
388.60257	11880.5
392.76012	11960.7
396.91468	12157.4
401.06626	12305.1
405.21485	12447.1
409.36047	12405.7
413.50311	12254.8
417.64277	12168.4
421.77947	12141.1
425.9132	12185.9
430.04396	12211.2
434.17176	12248.2
438.2966	12355.9
442.41849	12505.5
446.53742	12805.3
450.6534	13104.3
454.76644	13371.2
458.87653	13476.4
462.98368	13452.2
467.08789	13325.1
471.18916	13185
475.2875	13068.7
479.38291	13006.6
483.4754	12949.1
487.56496	12826.3
491.6516	12643.5
495.73531	12495.7
499.81612	12395.7
503.89401	12403.1
507.96899	12451.1
512.04106	12463.5
516.11023	12399.5
520.1765	12297.8
524.23987	12220.3
528.30034	12128.2
532.35792	12016.4
536.41261	11918.7
540.46441	11824.3
544.51333	11811.1
548.55936	11920.7
552.60252	12140.4
556.64279	12409.9
560.6802	12599.7
564.71473	12685
568.7464	12825.1
572.7752	13092.4
576.80114	13308
580.82422	13589.9
584.84444	13933.1
588.86181	14323.7
592.87633	14603.4
596.888	14518.9
600.89682	14168.2
604.9028	14156.2
608.90594	14939.7
612.90624	15898.9
616.90371	15190.7
620.89834	13225.4
624.89015	12302.8
628.87913	12202.6
632.86528	12248.2
636.84862	12219
640.82913	12089
644.80683	11881.5
648.78172	11720.3
652.75379	11689.5
656.72306	11790.2
660.68952	11941.9
664.65319	11880.9
668.61405	11718.4
672.57211	11682.6
676.52738	11709.7
680.47986	11717.8
684.42955	11660.5
688.37646	11632.7
692.32058	11663
696.26192	11789.4
700.20048	11954.3
704.13626	12007.8
708.06928	12009.1
711.99952	11959.6
715.927	11950.2
719.85171	11979.6
723.77365	11973.2
727.69284	11837.6
731.60928	11726.1
735.52295	11676.3
739.43388	11670.3
743.34206	11703.6
747.24749	11722.3
751.15017	11842
755.05012	12024
758.94733	12268.9
762.8418	12721.5
766.73354	13431.1
770.62254	14123.3
774.50882	14292.2
778.39237	13827.3
782.27321	13085.4
786.15132	12407.8
790.02671	11985.1
793.89938	11799.9
797.76935	11742
801.6366	11708.7
805.50115	11686.8
809.36299	11621.8
813.22213	11555.9
817.07857	11511
820.93231	11498.5
824.78336	11469.6
828.63172	11430.9
832.47738	11428
836.32036	11447.7
840.16066	11505.3
843.99827	11554.7
847.8332	11529.4
851.66546	11460.7
855.49504	11452.8
859.32195	11436.1
863.1462	11428.5
866.96777	11391.4
870.78668	11383
874.60293	11365.6
878.41652	11385.3
882.22745	11383.4
886.03573	11446.6
889.84136	11439.2
893.64433	11409.6
897.44466	11358.3
901.24235	11323.2
905.0374	11336.4
908.8298	11274.8
912.61957	11286.7
916.40671	11394.7
920.19121	11545.6
923.97308	11630.9
927.75233	11666
931.52895	11616.8
935.30295	11515.7
939.07433	11330.8
942.84309	11208.1
946.60924	11127.6
950.37278	11103.1
954.13371	11069.4
957.89203	11057.9
961.64774	11027
965.40086	11011.8
969.15137	10987.7
972.89929	10940
976.64461	10922.2
980.38733	10919.1
984.12747	10960.7
987.86502	11049.3
991.59999	11132.8
995.33237	11281.2
999.06217	11523.5
1002.78939	11796
1006.51404	11942.7
1010.23611	11994.5
1013.95561	12098.4
1017.67255	12084.2
1021.38692	12034.6
1025.09872	11939.2
1028.80796	11960.1
1032.51465	12228.5
1036.21877	12539
1039.92035	12627.9
1043.61937	12542.4
1047.31584	12281.6
1051.00976	12066.1
1054.70114	11907
1058.38998	11903.9
1062.07627	11949.4
1065.76003	12022.4
1069.44126	12128.4
1073.11995	12224.5
1076.79611	12345.3
1080.46974	12413.5
1084.14085	12491.8
1087.80943	12556.4
1091.47549	12625.8
1095.13903	12635.5
1098.80005	12531.1
1102.45857	12297.3
1106.11456	12171.3
1109.76805	12066.8
1113.41903	12089.3
1117.06751	12094.4
1120.71348	12167.4
1124.35696	12293.6
1127.99793	12426
1131.63641	12525.6
1135.2724	12408.1
1138.90589	12335.7
1142.5369	12354.9
1146.16542	12402.5
1149.79145	12449.4
1153.415	12539.7
1157.03607	12686.8
1160.65467	13004.6
1164.27079	13479
1167.88443	14069.5
1171.49561	14723.9
1175.10432	15507.8
1178.71056	16506.9
1182.31434	17525.6
1185.91565	18009.8
1189.51451	17882.6
1193.11091	17488.4
1196.70485	16918.4
1200.29634	16376.6
1203.88538	16055.8
1207.47197	15830
1211.05612	15587.6
1214.63782	15298
1218.21708	14995.3
1221.79391	14661.2
1225.36829	14460.7
1228.94024	14262
1232.50976	14071.7
1236.07685	13898.7
1239.6415	13812.7
1243.20374	13801.4
1246.76355	13913.9
1250.32093	14102.6
1253.8759	14347.3
1257.42845	14654.9
1260.97859	14987
1264.52631	15295.2
1268.07163	15662.2
1271.61453	16070
1275.15503	16491.9
1278.69312	16919.2
1282.22882	17326.7
1285.76211	17729.7
1289.29301	18258.4
1292.82151	19016.5
1296.34761	19917.1
1299.87133	21038.5
1303.39266	22215.5
1306.9116	23351.6
1310.42815	24232.4
1313.94233	24565.9
1317.45412	24264.1
1320.96354	23718.5
1324.47058	23212.9
1327.97525	22791.5
1331.47754	22496.6
1334.97747	22327.8
1338.47502	22164.9
1341.97022	21869.9
1345.46305	21626.4
1348.95352	21437.1
1352.44163	21502.3
1355.92738	21969.4
1359.41078	22764.6
1362.89183	23504.5
1366.37053	23190.9
1369.84688	21531.3
1373.32088	19493.2
1376.79254	18006.8
1380.26186	17483.8
1383.72883	17482.8
1387.19347	17525
1390.65578	17376
1394.11575	17274.8
1397.57339	17383.8
1401.0287	17603.3
1404.48168	17844.1
1407.93234	17808.6
1411.38068	17483.1
1414.82669	16990.2
1418.27039	16404.7
1421.71177	15811.2
1425.15083	15297.8
1428.58758	15041.1
1432.02203	15089
1435.45416	15393
1438.88399	15791.1
1442.31151	16115.2
1445.73673	16297.8
1449.15965	16464.6
1452.58027	16562.3
1455.9986	16511.8
1459.41463	16538.2
1462.82837	16659.7
1466.23982	16894.2
1469.64898	17169.8
1473.05586	17354.8
1476.46045	17440
1479.86276	17421.2
1483.26279	17249.7
1486.66054	17163.8
1490.05602	17206.5
1493.44922	17373.6
1496.84016	17544
1500.22882	17816.5
1503.61521	18247.3
1506.99934	18828.5
1510.38121	19335.8
1513.76081	19485.6
1517.13816	19177.2
1520.51324	18612.4
1523.88607	18113
1527.25665	17870.1
1530.62498	17814.9
1533.99105	17726.1
1537.35488	17598
1540.71647	17240.5
1544.07581	16875.8
1547.4329	16490.5
1550.78776	16174.8
1554.14038	15977.5
1557.49077	15823.7
1560.83892	15751.5
1564.18484	15744.9
1567.52853	15781.5
1570.86999	15953.5
1574.20922	16218.4
1577.54624	16469.1
1580.88103	16584.8
1584.2136	16719
1587.54395	17123
1590.87208	17838.8
1594.19801	18727.3
1597.52172	19508.7
1600.84321	19692.9
1604.16251	18952.1
1607.47959	17639.2
1610.79447	16293
1614.10715	15050.8
1617.41763	14122.8
1620.7259	13521.6
1624.03199	13176.5
1627.33587	13160.7
1630.63757	13468.3
1633.93707	14114.1
1637.23439	15142.2
1640.52951	16652.7
1643.82246	18531.9
1647.11321	20100.1
1650.40179	20476.2
1653.68819	19325.1
1656.97241	17168.8
1660.25446	14988.5
1663.53433	13385.4
1666.81203	12370.1
1670.08756	11716
1673.36092	11319.9
1676.63211	11059
1679.90115	10862.1
1683.16801	10729.9
1686.43272	10611.1
1689.69527	10534.3
1692.95567	10442.2
1696.2139	10364.8
1699.46999	10301.9
1702.72392	10282.3
1705.97571	10271.5
1709.22535	10313.2
1712.47284	10322.6
1715.71819	10346.8
1718.96139	10313.9
1722.20246	10281.8
1725.44139	10266.5
1728.67818	10195.6
1731.91284	10197.7
1735.14537	10146.3
1738.37576	10083.1
1741.60403	10068.4
1744.83017	10013.3
1748.05418	10005.6
1751.27607	9971.5
1754.49584	9947.2
1757.71349	9925.7
1760.92903	9927.4
1764.14244	9894.1
1767.35375	9898.8
1770.56294	9891
1773.77002	9861.5
1776.97499	9877.1
1780.17785	9891.2
1783.37861	9888.5
1786.57727	9874.4
1789.77382	9863.3
1792.96828	9850.8
1796.16064	9839.2
1799.3509	9818.9
1802.53907	9804.9
1805.72514	9773.6
1808.90913	9778.1
1812.09102	9743.6
1815.27083	9734.7
1818.44856	9713.2
1821.6242	9695.9
1824.79776	9679.7
1827.96924	9688.7
1831.13864	9691.7
1834.30597	9703.8
1837.47122	9663.3
1840.6344	9676
1843.7955	9646.3
1846.95454	9649.2
1850.11151	9664.5
1853.26642	9655.6
1856.41926	9648.4
1859.57004	9669
1862.71876	9648.7
1865.86542	9661
1869.01003	9634.4
1872.15258	9607.4
1875.29308	9611.7
1878.43152	9624.8
1881.56792	9593
1884.70227	9573.4
1887.83457	9598.9
1890.96482	9552.4
1894.09304	9555.4
1897.21921	9549.4
1900.34335	9524.2
1903.46544	9520.2
1906.58551	9520
1909.70353	9508.5
1912.81953	9490.6
1915.93349	9501.1
1919.04543	9460
1922.15534	9468.3
1925.26322	9452.8
1928.36908	9418.5
1931.47292	9401
1934.57473	9390.4
1937.67453	9399.2
1940.77232	9330.8
1943.86808	9311.7
1946.96184	9292
1950.05358	9286.1
1953.14331	9244.8
1956.23103	9226.7
1959.31675	9219.8
1962.40046	9192.8
1965.48217	9167.5
1968.56188	9113.1
1971.63959	9108.2
1974.7153	9086.2
1977.78901	9063.1
1980.86073	9049.3
1983.93046	9008.2
1986.99819	8998
1990.06394	8963.8
1993.1277	8929.8
1996.18947	8900
1999.24925	8907.4
2002.30706	8878.5
2005.36288	8852.7
2008.41672	8834.3
2011.46859	8803.6
2014.51848	8775.7
2017.56639	8770.3
2020.61233	8743
2023.6563	8715.6
2026.6983	8703.8
2029.73833	8704.8
2032.7764	8672.5
2035.8125	8675.3
2038.84664	8646.2
2041.87881	8637.1
2044.90903	8601.8
2047.93729	8609.2
2050.96359	8603.7
2053.98794	8578.2
2057.01034	8585
2060.03078	8601.7
2063.04927	8593.3
2066.06582	8578.4
2069.08042	8563.9
2072.09307	8573.1
2075.10378	8552.7
2078.11255	8568.4
2081.11938	8547.1
2084.12426	8539
2087.12722	8550.9
2090.12824	8545.1
2093.12732	8544.4
2096.12447	8545.7
2099.11969	8561.2
2102.11299	8534.9
2105.10435	8565.8
2108.09379	8568.7
2111.08131	8578.7
2114.0669	8569.7
2117.05057	8587.4
2120.03233	8583.9
2123.01216	8602.4
2125.99008	8600.6
2128.96609	8623.9
2131.94018	8635.2
2134.91236	8628.4
2137.88263	8652
2140.851	8640.5
2143.81746	8645.9
2146.78201	8652.5
2149.74466	8643.3
2152.7054	8652.7
2155.66425	8660.1
2158.6212	8652.2
2161.57625	8648.8
2164.52941	8642.4
2167.48067	8659.8
2170.43004	8657.6
2173.37752	8675.2
2176.32311	8671.7
2179.26681	8674.1
2182.20863	8646.8
2185.14856	8653.8
2188.08661	8649.5
2191.02278	8680.8
2193.95707	8663.1
2196.88948	8661.9
2199.82001	8675.4
2202.74867	8651.3
2205.67545	8640.3
2208.60037	8624.8
2211.52341	8624.8
2214.44458	8619.5
2217.36388	8601.6
2220.28132	8602.1
2223.1969	8595.7
2226.11061	8578
2229.02246	8564.3
2231.93245	8545.5
2234.84058	8542.2
2237.74686	8526.2
2240.65128	8516.2
2243.55385	8506.8
2246.45456	8500.1
2249.35343	8490.7
2252.25044	8476
2255.14561	8465.2
2258.03893	8451.5
2260.93041	8438.9
2263.82004	8398.2
2266.70783	8428
2269.59378	8386
2272.4779	8358.4
2275.36017	8348.6
2278.24061	8336.6
2281.11922	8331.2
2283.996	8352.8
2286.87094	8324.5
2289.74405	8299.5
2292.61534	8307.2
2295.4848	8306.1
2298.35243	8297.8
2301.21824	8311.3
2304.08223	8296.9
2306.94439	8320.6
2309.80474	8310.1
2312.66327	8306.9
2315.51999	8296
2318.37489	8285
2321.22797	8275.7
2324.07925	8283.6
2326.92871	8278.1
2329.77637	8282
2332.62222	8278.3
2335.46626	8235.2
2338.3085	8251.7
2341.14893	8249.9
2343.98756	8249.5
2346.8244	8231.3
2349.65943	8224.7
2352.49267	8239.4
2355.32411	8241
2358.15376	8242.4
2360.98161	8214.3
2363.80768	8213.9
2366.63195	8218.5
2369.45444	8190.5
2372.27514	8213.6
2375.09405	8195.9
2377.91118	8170.4
2380.72652	8150.2
2383.54009	8131.6
2386.35187	8125.9
2389.16188	8117.6
2391.97011	8095.6
2394.77657	8073.7
2397.58125	8078.8
2400.38416	8070.3
2403.18529	8063.6
2405.98466	8054.4
2408.78226	8040.1
2411.57809	8033.9
2414.37216	8021.7
2417.16446	8018.5
2419.955	8003.8
2422.74378	8018.8
2425.5308	8017.5
2428.31606	8005.8
2431.09956	7991.7
2433.88131	7988.3
2436.6613	7979.5
2439.43954	7984
2442.21603	8002.8
2444.99077	7979.8
2447.76377	8002.2
2450.53501	7966.5
2453.30451	7966.1
2456.07226	7956.8
2458.83827	7945.2
2461.60254	7972
2464.36507	7956.9
2467.12586	7972.5
2469.88492	7952.8
2472.64224	7957
2475.39782	7964.4
2478.15167	7930.5
2480.90379	7944.1
2483.65417	7948.4
2486.40283	7981.5
2489.14976	7969.3
2491.89497	7969.2
2494.63845	7957.3
2497.3802	7960.6
2500.12024	7966.9
2502.85855	7959.5
2505.59514	7962
2508.33002	7952.8
2511.06318	7948.5
2513.79462	7953.9
2516.52435	7923
2519.25237	7940.7
2521.97867	7911.3
2524.70327	7944.7
2527.42616	7905.7
2530.14734	7919
2532.86681	7891.3
2535.58458	7898.3
2538.30065	7874.7
2541.01501	7895.7
2543.72768	7871.6
2546.43864	7848.8
2549.14791	7845
2551.85548	7832.4
2554.56136	7841.2
2557.26554	7845.5
2559.96803	7844.2
2562.66883	7830.1
2565.36794	7830.9
2568.06536	7835.6
2570.7611	7819.4
2573.45514	7827.6
2576.14751	7806.6
2578.83819	7787.5
2581.52719	7801.4
2584.21451	7781.8
2586.90015	7799.6
2589.58411	7766.5
2592.2664	7771.5
2594.94701	7759.5
2597.62594	7776.8
2600.30321	7726.7
2602.9788	7727.5
2605.65273	7726.3
2608.32498	7732.7
2610.99557	7742.4
2613.66449	7713.1
2616.33175	7727.6
2618.99734	7741.6
2621.66128	7717.3
2624.32355	7733.8
2626.98416	7719.5
2629.64311	7678.9
2632.30041	7707.5
2634.95605	7686
2637.61004	7692.2
2640.26238	7662
2642.91306	7659.9
2645.56209	7685.4
2648.20948	7680.1
2650.85521	7648.3
2653.4993	7658
2656.14175	7677.5
2658.78255	7684.8
2661.42171	7703
2664.05923	7704
2666.6951	7708.1
2669.32934	7706.3
2671.96194	7692.7
2674.59291	7701
2677.22224	7691.3
2679.84993	7699.9
2682.476	7672.7
2685.10043	7698.4
2687.72324	7674.2
2690.34441	7687
2692.96396	7661.2
2695.58188	7695.7
2698.19818	7699.7
2700.81285	7668.9
2703.4259	7669.4
2706.03733	7679.2
2708.64714	7679.7
2711.25533	7685.9
2713.86191	7677.8
2716.46687	7710.8
2719.07021	7707.6
2721.67194	7717
2724.27206	7716.8
2726.87057	7724.4
2729.46747	7748.3
2732.06276	7742.9
2734.65644	7744.9
2737.24852	7755.7
2739.83899	7731
2742.42786	7724.3
2745.01513	7715
2747.60079	7710.2
2750.18486	7727.3
2752.76733	7709
2755.3482	7712.3
2757.92747	7710.4
2760.50515	7693.8
2763.08123	7703.3
2765.65573	7701.2
2768.22863	7700.1
2770.79994	7677.3
2773.36967	7669.7
2775.9378	7705.1
2778.50435	7692
2781.06932	7674.2
2783.6327	7683.1
2786.1945	7676.8
2788.75471	7682.2
2791.31335	7657.1
2793.87041	7653.2
2796.42589	7636.3
2798.97979	7618.9
2801.53212	7617.9
2804.08288	7610.9
2806.63206	7597.6
2809.17967	7584.7
2811.72571	7560.8
2814.27018	7557.4
2816.81308	7549.6
2819.35442	7538.7
2821.89419	7538.3
2824.43239	7518.2
2826.96904	7518.6
2829.50412	7542.3
2832.03763	7546.5
2834.56959	7539.3
2837.1	7515.6
2839.62884	7507.5
2842.15613	7511.4
2844.68186	7527.3
2847.20604	7545
2849.72867	7556.2
2852.24974	7530
2854.76927	7530.2
2857.28724	7530.5
2859.80367	7521.8
2862.31855	7508.8
2864.83189	7519.2
2867.34368	7509
2869.85393	7503
2872.36264	7507.6
2874.8698	7496.2
2877.37543	7508
2879.87952	7483.3
2882.38207	7482.6
2884.88308	7469.5
2887.38256	7484.7
2889.88051	7486.6
2892.37692	7508.2
2894.8718	7505.7
2897.36515	7506.5
2899.85698	7531.7
2902.34727	7548.7
2904.83604	7544.6
2907.32328	7546.2
2909.809	7549
2912.29319	7565.2
2914.77587	7539.9
2917.25702	7551.9
2919.73665	7551.7
2922.21476	7541.2
2924.69136	7528.9
2927.16644	7552.7
2929.64	7539.7
2932.11205	7550.4
2934.58258	7523.3
2937.05161	7532.4
2939.51912	7514
2941.98513	7515
2944.44962	7504.8
2946.91261	7475.2
2949.37409	7506.9
2951.83407	7487.4
2954.29254	7466.9
2956.74951	7478
2959.20498	7497.7
2961.65895	7476
2964.11142	7475.7
2966.56239	7450.6
2969.01186	7464.2
2971.45984	7439.4
2973.90632	7452.3
2976.35131	7426.9
2978.7948	7438.1
2981.23681	7430.4
2983.67732	7423.5
2986.11635	7380.6
2988.55388	7387.9
2990.98993	7372.7
2993.4245	7352.2
2995.85758	7355.1
2998.28917	7352.3
3000.71928	7340.1
3003.14791	7305.3
3005.57506	7298.2
3008.00073	7295.7
3010.42493	7301.3
3012.84764	7281.1
3015.26888	7301.1
3017.68865	7288.1
3020.10694	7267.5
3022.52376	7253.6
3024.9391	7258.9
3027.35298	7222
3029.76539	7245.7
3032.17632	7215.1
3034.5858	7224
3036.9938	7227.3
3039.40034	7227
3041.80542	7220.7
3044.20903	7205.6
3046.61118	7196
3049.01187	7189.2
3051.4111	7201
3053.80888	7202.7
3056.20519	7195.9
3058.60005	7182.9
3060.99345	7164.9
3063.3854	7138.9
3065.7759	7130.1
3068.16494	7133.3
3070.55254	7117.5
3072.93868	7087.4
3075.32338	7064.9
3077.70662	7081.2
3080.08842	7065.2
3082.46878	7049.3
3084.84769	7059.1
3087.22515	7047
3089.60118	7029.9
3091.97576	7059.2
3094.3489	7045.8
3096.72061	7071.6
3099.09087	7086.6
3101.4597	7079.5
3103.82709	7063.1
3106.19305	7077.6
3108.55757	7069.4
3110.92066	7066
3113.28232	7055.1
3115.64255	7029.2
3118.00134	7022
3120.35871	7025.6
3122.71466	7034.4
3125.06917	7002.7
3127.42226	6999
3129.77393	7014
3132.12417	7004.2
3134.47299	6994.2
3136.82039	7005.4
3139.16636	6998.1
3141.51092	7021.8
3143.85406	7020
3146.19579	7013.6
3148.53609	7022.9
3150.87499	7050.2
3153.21246	7051.8
3155.54853	7064.2
3157.88318	7046.5
3160.21642	7063.7
3162.54826	7064.6
3164.87868	7071.8
3167.2077	7059.9
3169.5353	7086.7
3171.86151	7071.7
3174.18631	7070.4
3176.5097	7050.6
3178.83169	7063.2
3181.15228	7058.6
3183.47147	7054.9
3185.78926	7050.9
3188.10565	7060
3190.42065	7057.8
3192.73424	7038.2
3195.04645	7044.5
3197.35725	7058.4
3199.66667	7048.9
3201.97469	7054.7
3204.28132	7032
3206.58656	7063
3208.8904	7063
3211.19287	7081.4
3213.49394	7083.5
3215.79363	7093.2
3218.09193	7092.4
3220.38884	7079.7
3222.68438	7063.1
3224.97853	7081.9
3227.2713	7081.6
3229.56269	7077.3
3231.8527	7093.2
3234.14133	7086.3
3236.42858	7050
3238.71446	7041.7
3240.99896	7038.1
3243.28209	7045.6
3245.56384	7036
3247.84423	7023.2
3250.12324	7024.3
3252.40088	7024.6
3254.67715	7022.5
3256.95205	7016.2
3259.22558	7042.6
3261.49775	7002.8
3263.76855	7012.5
3266.03799	6987.2
3268.30606	6994.7
3270.57277	6992.3
3272.83812	6974.7
3275.10211	6950.7
3277.36474	6932.1
3279.62601	6945.8
3281.88593	6941.1
3284.14448	6944.7
3286.40168	6925.9
3288.65753	6955.1
3290.91202	6937.8
3293.16516	6927.3
3295.41695	6896.3
3297.66738	6865.9
3299.91647	6858.3
3302.16421	6805.8
3304.4106	6762
3306.65564	6724.9
3308.89933	6713.4
3311.14169	6670.1
3313.38269	6614
3315.62236	6557.7
3317.86068	6528.4
3320.09766	6466.5
3322.3333	6439.4
3324.5676	6429.2
3326.80056	6316.8
3329.03219	6257.3
3331.26248	1.7
3333.49143	0.3
3335.71905	-1.1
