Data from AgNPs_FTO_APTES_UA_1uM_CRN_1000uM_R6G_10uM_NaF_0.1M_Addition_RamanShift__9__18-44-09-926.txt Node

Date: Thu Jan 27 18:44:09 GMT 2022
User: TCL
Spectrometer: QEP01345
Trigger mode: 4
Integration Time (sec): 7.000000E0
Scans to average: 10
Electric dark correction enabled: true
Nonlinearity correction enabled: false
Boxcar width: 0
XAxis mode: Raman Shifts
Number of Pixels in Spectrum: 1044
>>>>>Begin Spectral Data<<<<<
46.04893	1.1
50.45542	0.2
54.85868	-0.4
59.25871	-0.1
63.6555	43.7
68.04907	45.3
72.43941	48.5
76.82654	48.7
81.21044	51
85.59113	53
89.96862	54.1
94.34289	56.9
98.71396	60.9
103.08183	59.1
107.4465	65.7
111.80798	66
116.16626	66.6
120.52136	72.8
124.87327	71.7
129.222	69.9
133.56755	75.6
137.90993	79.6
142.24913	81.3
146.58517	95
150.91804	107.3
155.24774	121.3
159.57429	151.1
163.89768	189.4
168.21792	248.2
172.53501	332.7
176.84895	456.6
181.15975	637.6
185.46741	897.4
189.77193	1243.5
194.07331	1675.6
198.37157	2155.8
202.6667	2686.7
206.9587	3202.4
211.24758	3732.5
215.53334	4223.7
219.81599	4760.7
224.09553	5351.6
228.37195	5953.3
232.64527	6647.2
236.91549	7373.1
241.18261	8120.1
245.44663	8824.5
249.70755	9468.3
253.96539	10002.5
258.22014	10455.6
262.4718	10841
266.72039	11106.3
270.96589	11192.1
275.20832	11192.5
279.44768	11064.2
283.68397	10939.2
287.91719	10786.7
292.14735	10676.1
296.37445	10601.5
300.59849	10598.3
304.81948	10617.3
309.03742	10614.8
313.25231	10550
317.46415	10351.1
321.67296	10135
325.87872	9959.1
330.08145	9857.1
334.28114	9857
338.47781	9929
342.67145	10039.8
346.86207	10203.6
351.04966	10389.3
355.23424	10546.3
359.4158	10742.3
363.59435	10861.4
367.76989	10939.8
371.94243	11028.5
376.11196	11076.9
380.27849	11122.4
384.44203	11190.3
388.60257	11241.5
392.76012	11297.2
396.91468	11402.2
401.06626	11554.5
405.21485	11656
409.36047	11642.7
413.50311	11507.2
417.64277	11389.7
421.77947	11356.4
425.9132	11384.4
430.04396	11437.3
434.17176	11467.5
438.2966	11511.4
442.41849	11600.7
446.53742	11758.7
450.6534	11935.1
454.76644	12067.9
458.87653	12099
462.98368	12072.9
467.08789	12003.2
471.18916	11881.6
475.2875	11773
479.38291	11649.6
483.4754	11606.2
487.56496	11504.3
491.6516	11434
495.73531	11411.6
499.81612	11436
503.89401	11510
507.96899	11545.2
512.04106	11584.7
516.11023	11608.4
520.1765	11538.4
524.23987	11454.9
528.30034	11384
532.35792	11324.4
536.41261	11232.1
540.46441	11128.6
544.51333	11116.4
548.55936	11170
552.60252	11298.9
556.64279	11454.5
560.6802	11590.1
564.71473	11615.5
568.7464	11670.7
572.7752	11845.5
576.80114	12006.8
580.82422	12249.2
584.84444	12540.4
588.86181	12907.5
592.87633	13267.3
596.888	13214.1
600.89682	12840.5
604.9028	12769.7
608.90594	13480.7
612.90624	14574.7
616.90371	14143.8
620.89834	12329.1
624.89015	11356.6
628.87913	11184.9
632.86528	11263.1
636.84862	11368.6
640.82913	11337
644.80683	11169.5
648.78172	11080.3
652.75379	11080.2
656.72306	11150
660.68952	11287.6
664.65319	11232.8
668.61405	11123.2
672.57211	11095.7
676.52738	11209.5
680.47986	11303.9
684.42955	11310.3
688.37646	11199
692.32058	11109.1
696.26192	11091.6
700.20048	11131.6
704.13626	11190.8
708.06928	11203.9
711.99952	11176.6
715.927	11168.8
719.85171	11145.3
723.77365	11088.6
727.69284	11073.9
731.60928	11001.7
735.52295	10945.5
739.43388	10950.5
743.34206	10947.1
747.24749	11009.7
751.15017	11046.2
755.05012	11135.6
758.94733	11353.5
762.8418	11700.3
766.73354	12312
770.62254	13052.1
774.50882	13400.4
778.39237	13114.8
782.27321	12354.6
786.15132	11628.4
790.02671	11205.4
793.89938	10992.4
797.76935	10918.7
801.6366	10848.7
805.50115	10817
809.36299	10755.1
813.22213	10707.8
817.07857	10675.4
820.93231	10635
824.78336	10639.2
828.63172	10581
832.47738	10591.8
836.32036	10581.4
840.16066	10590.6
843.99827	10552.7
847.8332	10538.2
851.66546	10556.9
855.49504	10549.8
859.32195	10546.4
863.1462	10529.2
866.96777	10535.5
870.78668	10550.4
874.60293	10560.7
878.41652	10549.2
882.22745	10555.5
886.03573	10637.2
889.84136	10629.1
893.64433	10623.9
897.44466	10582.1
901.24235	10542.9
905.0374	10505.4
908.8298	10444.2
912.61957	10467.1
916.40671	10490.8
920.19121	10556.8
923.97308	10583.7
927.75233	10646.4
931.52895	10626
935.30295	10527.6
939.07433	10363.4
942.84309	10269.1
946.60924	10156.8
950.37278	10125.6
954.13371	10079
957.89203	10068.2
961.64774	10061
965.40086	10024.7
969.15137	10014.5
972.89929	9972.7
976.64461	9926.8
980.38733	9913.8
984.12747	9893.6
987.86502	9911.2
991.59999	9914.5
995.33237	9956.9
999.06217	10021.2
1002.78939	10128
1006.51404	10213.3
1010.23611	10315
1013.95561	10434.4
1017.67255	10490.9
1021.38692	10454
1025.09872	10372.3
1028.80796	10228.3
1032.51465	10183.7
1036.21877	10172.1
1039.92035	10179.2
1043.61937	10230.5
1047.31584	10289.9
1051.00976	10349.1
1054.70114	10382.1
1058.38998	10435.5
1062.07627	10491.5
1065.76003	10565.4
1069.44126	10662.4
1073.11995	10799.1
1076.79611	10929.2
1080.46974	10928.1
1084.14085	10896.8
1087.80943	10855.7
1091.47549	10892.2
1095.13903	10908.4
1098.80005	10843.5
1102.45857	10677.2
1106.11456	10541.8
1109.76805	10450.2
1113.41903	10435.1
1117.06751	10526.1
1120.71348	10604.9
1124.35696	10767.5
1127.99793	10963.8
1131.63641	11080.4
1135.2724	10942.5
1138.90589	10759.6
1142.5369	10679.2
1146.16542	10664
1149.79145	10623.8
1153.415	10623.4
1157.03607	10678.5
1160.65467	10857.7
1164.27079	11163.3
1167.88443	11554.5
1171.49561	12017.4
1175.10432	12617.7
1178.71056	13383.5
1182.31434	14171.1
1185.91565	14508.2
1189.51451	14472.3
1193.11091	14133.8
1196.70485	13684.8
1200.29634	13194.7
1203.88538	12764.7
1207.47197	12464.9
1211.05612	12153.8
1214.63782	11942.5
1218.21708	11724.4
1221.79391	11520.9
1225.36829	11446.3
1228.94024	11428
1232.50976	11394.1
1236.07685	11333.6
1239.6415	11235.4
1243.20374	11214.6
1246.76355	11216.3
1250.32093	11301.7
1253.8759	11425
1257.42845	11564.1
1260.97859	11778.8
1264.52631	12002.7
1268.07163	12210.4
1271.61453	12410.6
1275.15503	12607.4
1278.69312	12840.4
1282.22882	13053.2
1285.76211	13342.8
1289.29301	13674.1
1292.82151	14119.8
1296.34761	14642.3
1299.87133	15299.3
1303.39266	15999
1306.9116	16718.7
1310.42815	17411.3
1313.94233	17787.3
1317.45412	17645.6
1320.96354	17188.2
1324.47058	16650.6
1327.97525	16221.1
1331.47754	15955.2
1334.97747	15809.7
1338.47502	15696.6
1341.97022	15691.2
1345.46305	15784.3
1348.95352	15979.4
1352.44163	16387.7
1355.92738	17001.6
1359.41078	17904
1362.89183	18639.2
1366.37053	18567.3
1369.84688	17197.5
1373.32088	15381.7
1376.79254	13991.3
1380.26186	13361.2
1383.72883	13088.2
1387.19347	12922.7
1390.65578	12636.4
1394.11575	12503.2
1397.57339	12516.3
1401.0287	12645.5
1404.48168	12755.8
1407.93234	12782.3
1411.38068	12658.3
1414.82669	12433.1
1418.27039	12177
1421.71177	11917.1
1425.15083	11675.1
1428.58758	11483.6
1432.02203	11516.3
1435.45416	11662.1
1438.88399	11815.1
1442.31151	11949.3
1445.73673	11979
1449.15965	12024.4
1452.58027	12023.6
1455.9986	12007.6
1459.41463	12051.2
1462.82837	12152.9
1466.23982	12386.4
1469.64898	12575.4
1473.05586	12712.1
1476.46045	12759.5
1479.86276	12788
1483.26279	12764.9
1486.66054	12815.1
1490.05602	12960.1
1493.44922	13220.1
1496.84016	13544.1
1500.22882	14060.4
1503.61521	14764.9
1506.99934	15534.2
1510.38121	16120.3
1513.76081	16214.5
1517.13816	15676.5
1520.51324	14870
1523.88607	14100
1527.25665	13610.6
1530.62498	13355.1
1533.99105	13187.9
1537.35488	13019.4
1540.71647	12832.5
1544.07581	12625.6
1547.4329	12418.6
1550.78776	12208.8
1554.14038	12036.8
1557.49077	11999.3
1560.83892	11918
1564.18484	11963
1567.52853	12077.8
1570.86999	12270.5
1574.20922	12463.4
1577.54624	12644.9
1580.88103	12549.4
1584.2136	12331.2
1587.54395	12228.5
1590.87208	12417.3
1594.19801	12847.4
1597.52172	13406
1600.84321	13755.4
1604.16251	13588.9
1607.47959	12942.7
1610.79447	12197.5
1614.10715	11467.4
1617.41763	10806.2
1620.7259	10337.8
1624.03199	10017.5
1627.33587	9952.7
1630.63757	10059.9
1633.93707	10350.8
1637.23439	10940.9
1640.52951	11929
1643.82246	13231.2
1647.11321	14522.5
1650.40179	15111.5
1653.68819	14482.8
1656.97241	13032
1660.25446	11482.8
1663.53433	10321.6
1666.81203	9641.1
1670.08756	9205.7
1673.36092	8978.3
1676.63211	8797.7
1679.90115	8667
1683.16801	8584.8
1686.43272	8480.8
1689.69527	8447.4
1692.95567	8369.2
1696.2139	8311.3
1699.46999	8247.3
1702.72392	8208.1
1705.97571	8217.3
1709.22535	8227.5
1712.47284	8248.7
1715.71819	8254.4
1718.96139	8247.9
1722.20246	8231.5
1725.44139	8217.8
1728.67818	8164.3
1731.91284	8095
1735.14537	8080
1738.37576	8038
1741.60403	8046.6
1744.83017	8011.9
1748.05418	7991.3
1751.27607	8006.9
1754.49584	7998.6
1757.71349	8029.4
1760.92903	8030.1
1764.14244	7985
1767.35375	7956.9
1770.56294	7907.1
1773.77002	7869.8
1776.97499	7864.3
1780.17785	7839.8
1783.37861	7841.2
1786.57727	7808.9
1789.77382	7782.5
1792.96828	7766.9
1796.16064	7749.6
1799.3509	7714.9
1802.53907	7692.3
1805.72514	7661.9
1808.90913	7636.5
1812.09102	7646
1815.27083	7604.1
1818.44856	7602.1
1821.6242	7588.8
1824.79776	7558
1827.96924	7554.3
1831.13864	7549.2
1834.30597	7551.9
1837.47122	7531.3
1840.6344	7520.8
1843.7955	7526.3
1846.95454	7482.9
1850.11151	7511.2
1853.26642	7497.1
1856.41926	7478.5
1859.57004	7501.3
1862.71876	7478
1865.86542	7478.3
1869.01003	7449
1872.15258	7427.2
1875.29308	7422
1878.43152	7413.5
1881.56792	7404.2
1884.70227	7390
1887.83457	7372.6
1890.96482	7355.5
1894.09304	7351.4
1897.21921	7344
1900.34335	7321.1
1903.46544	7322.1
1906.58551	7319.4
1909.70353	7295.2
1912.81953	7276.9
1915.93349	7269.5
1919.04543	7242.2
1922.15534	7224.7
1925.26322	7232.7
1928.36908	7204.4
1931.47292	7179.4
1934.57473	7165.1
1937.67453	7144.2
1940.77232	7123.7
1943.86808	7091.1
1946.96184	7094.6
1950.05358	7064.7
1953.14331	7053.5
1956.23103	7022.2
1959.31675	7000.1
1962.40046	6984.8
1965.48217	6968.5
1968.56188	6932
1971.63959	6903.3
1974.7153	6880.8
1977.78901	6875.3
1980.86073	6853
1983.93046	6837.6
1986.99819	6795.2
1990.06394	6768.4
1993.1277	6755.2
1996.18947	6724.8
1999.24925	6725.6
2002.30706	6703
2005.36288	6673.1
2008.41672	6642.1
2011.46859	6651.6
2014.51848	6626.8
2017.56639	6603.5
2020.61233	6584.5
2023.6563	6564.4
2026.6983	6548
2029.73833	6538.1
2032.7764	6514.3
2035.8125	6493.6
2038.84664	6465.1
2041.87881	6467.3
2044.90903	6430.3
2047.93729	6420.3
2050.96359	6405.4
2053.98794	6385.1
2057.01034	6387
2060.03078	6390.1
2063.04927	6373.5
2066.06582	6379.5
2069.08042	6374.6
2072.09307	6383.1
2075.10378	6353.6
2078.11255	6354.3
2081.11938	6355.1
2084.12426	6360.5
2087.12722	6323.4
2090.12824	6349
2093.12732	6348.1
2096.12447	6344.3
2099.11969	6334.7
2102.11299	6333.7
2105.10435	6339.8
2108.09379	6332.5
2111.08131	6339.2
2114.0669	6340.6
2117.05057	6354.6
2120.03233	6341.3
2123.01216	6330.5
2125.99008	6348.9
2128.96609	6354
2131.94018	6357
2134.91236	6359.1
2137.88263	6383
2140.851	6363.1
2143.81746	6352.3
2146.78201	6352.5
2149.74466	6351.6
2152.7054	6352.9
2155.66425	6326.7
2158.6212	6328.1
2161.57625	6330.6
2164.52941	6320.4
2167.48067	6319.8
2170.43004	6337.3
2173.37752	6337.7
2176.32311	6300.2
2179.26681	6314.6
2182.20863	6308.4
2185.14856	6293.1
2188.08661	6308.6
2191.02278	6300.3
2193.95707	6271.8
2196.88948	6275.1
2199.82001	6270.8
2202.74867	6237.2
2205.67545	6257.3
2208.60037	6235.5
2211.52341	6227.1
2214.44458	6205.5
2217.36388	6181.3
2220.28132	6191.9
2223.1969	6190.5
2226.11061	6164
2229.02246	6163.1
2231.93245	6129.1
2234.84058	6147
2237.74686	6129.7
2240.65128	6099.7
2243.55385	6095.2
2246.45456	6079.5
2249.35343	6059.5
2252.25044	6069
2255.14561	6052.9
2258.03893	6044.3
2260.93041	6038.3
2263.82004	6013.6
2266.70783	5992
2269.59378	5959.9
2272.4779	5956.8
2275.36017	5945.9
2278.24061	5952.2
2281.11922	5938.4
2283.996	5910.6
2286.87094	5910.3
2289.74405	5910.9
2292.61534	5876.3
2295.4848	5867.3
2298.35243	5881.2
2301.21824	5860.9
2304.08223	5870.2
2306.94439	5845.1
2309.80474	5847.3
2312.66327	5833.1
2315.51999	5818.9
2318.37489	5821.5
2321.22797	5803.1
2324.07925	5798.5
2326.92871	5791.9
2329.77637	5787.7
2332.62222	5769.1
2335.46626	5760.1
2338.3085	5739.6
2341.14893	5749.8
2343.98756	5734
2346.8244	5718.5
2349.65943	5711
2352.49267	5707.2
2355.32411	5723.5
2358.15376	5705.6
2360.98161	5703.1
2363.80768	5715.5
2366.63195	5700.2
2369.45444	5682
2372.27514	5691.3
2375.09405	5688.1
2377.91118	5669.2
2380.72652	5670.7
2383.54009	5640.8
2386.35187	5632.6
2389.16188	5592.1
2391.97011	5612.9
2394.77657	5594.1
2397.58125	5570.7
2400.38416	5559.5
2403.18529	5553.5
2405.98466	5525.6
2408.78226	5537.2
2411.57809	5535.6
2414.37216	5487
2417.16446	5499.6
2419.955	5485.1
2422.74378	5508.7
2425.5308	5489.9
2428.31606	5496.9
2431.09956	5489.1
2433.88131	5454.8
2436.6613	5471.6
2439.43954	5454.5
2442.21603	5457.5
2444.99077	5446.9
2447.76377	5465.8
2450.53501	5438.2
2453.30451	5429.1
2456.07226	5429.6
2458.83827	5418.4
2461.60254	5419.5
2464.36507	5401.1
2467.12586	5402.6
2469.88492	5403.2
2472.64224	5389.7
2475.39782	5389.6
2478.15167	5372.2
2480.90379	5375.2
2483.65417	5377.4
2486.40283	5366.2
2489.14976	5379.1
2491.89497	5348.7
2494.63845	5339.2
2497.3802	5340.1
2500.12024	5316.6
2502.85855	5341.7
2505.59514	5338.3
2508.33002	5312.8
2511.06318	5325.6
2513.79462	5308.4
2516.52435	5288.9
2519.25237	5282.2
2521.97867	5259.8
2524.70327	5257.5
2527.42616	5261.7
2530.14734	5254
2532.86681	5240.6
2535.58458	5241.8
2538.30065	5227.8
2541.01501	5234.6
2543.72768	5193.4
2546.43864	5204.8
2549.14791	5187.8
2551.85548	5192.9
2554.56136	5172.9
2557.26554	5170.3
2559.96803	5158.5
2562.66883	5150.2
2565.36794	5151.6
2568.06536	5135.5
2570.7611	5124
2573.45514	5106.2
2576.14751	5096.4
2578.83819	5078.7
2581.52719	5090.6
2584.21451	5068
2586.90015	5062.6
2589.58411	5038.7
2592.2664	5043
2594.94701	5039.3
2597.62594	5016.4
2600.30321	4997.8
2602.9788	5010.8
2605.65273	4997.6
2608.32498	4982.7
2610.99557	4989.6
2613.66449	4987.6
2616.33175	4963.5
2618.99734	4963
2621.66128	4958.8
2624.32355	4952.4
2626.98416	4939.5
2629.64311	4941
2632.30041	4926
2634.95605	4916.3
2637.61004	4897.4
2640.26238	4898.2
2642.91306	4890.3
2645.56209	4877.6
2648.20948	4884.1
2650.85521	4879.6
2653.4993	4866.8
2656.14175	4880.2
2658.78255	4886.3
2661.42171	4891.5
2664.05923	4890.8
2666.6951	4884.8
2669.32934	4887.6
2671.96194	4871.2
2674.59291	4877.2
2677.22224	4878.4
2679.84993	4870
2682.476	4867.7
2685.10043	4866.9
2687.72324	4854.5
2690.34441	4866.6
2692.96396	4862.5
2695.58188	4862.1
2698.19818	4857.4
2700.81285	4867.4
2703.4259	4857.7
2706.03733	4848.4
2708.64714	4836.8
2711.25533	4850.9
2713.86191	4843.8
2716.46687	4864.8
2719.07021	4852
2721.67194	4857.7
2724.27206	4858.1
2726.87057	4855.7
2729.46747	4852.4
2732.06276	4846.8
2734.65644	4843.3
2737.24852	4843.6
2739.83899	4841.6
2742.42786	4837.3
2745.01513	4802.2
2747.60079	4814.2
2750.18486	4792.4
2752.76733	4784.1
2755.3482	4784.1
2757.92747	4781.2
2760.50515	4784.4
2763.08123	4780.1
2765.65573	4781.1
2768.22863	4781.5
2770.79994	4753.6
2773.36967	4745
2775.9378	4748.4
2778.50435	4743.3
2781.06932	4719.3
2783.6327	4715.7
2786.1945	4709.3
2788.75471	4704.5
2791.31335	4684.7
2793.87041	4684
2796.42589	4684
2798.97979	4671.2
2801.53212	4679.4
2804.08288	4665.2
2806.63206	4653.8
2809.17967	4641
2811.72571	4638.3
2814.27018	4639.3
2816.81308	4614.3
2819.35442	4615
2821.89419	4610.4
2824.43239	4613.3
2826.96904	4595.8
2829.50412	4606.4
2832.03763	4597.5
2834.56959	4590.4
2837.1	4604.4
2839.62884	4622.8
2842.15613	4644.6
2844.68186	4680.7
2847.20604	4699.7
2849.72867	4726.1
2852.24974	4726.8
2854.76927	4720.7
2857.28724	4700.1
2859.80367	4706.1
2862.31855	4684
2864.83189	4675
2867.34368	4661
2869.85393	4672.8
2872.36264	4661.9
2874.8698	4657.2
2877.37543	4666.6
2879.87952	4651.7
2882.38207	4643.9
2884.88308	4649.1
2887.38256	4651.2
2889.88051	4637.1
2892.37692	4645.8
2894.8718	4663.4
2897.36515	4660.4
2899.85698	4673.4
2902.34727	4663.9
2904.83604	4676.6
2907.32328	4692.1
2909.809	4669.3
2912.29319	4676.5
2914.77587	4682.8
2917.25702	4690.8
2919.73665	4675.4
2922.21476	4691.9
2924.69136	4692.1
2927.16644	4699.3
2929.64	4693.1
2932.11205	4684.8
2934.58258	4679.6
2937.05161	4683.9
2939.51912	4681.9
2941.98513	4670.9
2944.44962	4640
2946.91261	4622.2
2949.37409	4620
2951.83407	4604
2954.29254	4598.2
2956.74951	4583.8
2959.20498	4569.8
2961.65895	4559.2
2964.11142	4558.1
2966.56239	4515.7
2969.01186	4528.4
2971.45984	4486.5
2973.90632	4485.4
2976.35131	4469.2
2978.7948	4462.4
2981.23681	4452.7
2983.67732	4435.9
2986.11635	4426.5
2988.55388	4398.7
2990.98993	4383.4
2993.4245	4379.9
2995.85758	4362.6
2998.28917	4363.2
3000.71928	4364.5
3003.14791	4342.1
3005.57506	4348
3008.00073	4318.8
3010.42493	4312.4
3012.84764	4316.6
3015.26888	4317.2
3017.68865	4306.6
3020.10694	4296.3
3022.52376	4278.6
3024.9391	4267.5
3027.35298	4282.2
3029.76539	4265.5
3032.17632	4245.9
3034.5858	4241.1
3036.9938	4242.8
3039.40034	4232.8
3041.80542	4237.5
3044.20903	4219.5
3046.61118	4210.5
3049.01187	4209.9
3051.4111	4214.6
3053.80888	4204.1
3056.20519	4201
3058.60005	4189.6
3060.99345	4181
3063.3854	4174.3
3065.7759	4153.5
3068.16494	4162.2
3070.55254	4145.6
3072.93868	4154
3075.32338	4140
3077.70662	4125.3
3080.08842	4127
3082.46878	4123.9
3084.84769	4132
3087.22515	4112.8
3089.60118	4130.2
3091.97576	4131.5
3094.3489	4122.5
3096.72061	4130.5
3099.09087	4146.3
3101.4597	4138.5
3103.82709	4128.6
3106.19305	4136.5
3108.55757	4133
3110.92066	4121.7
3113.28232	4132.9
3115.64255	4096.6
3118.00134	4104.2
3120.35871	4107.7
3122.71466	4109.7
3125.06917	4090.2
3127.42226	4093.2
3129.77393	4096.5
3132.12417	4097.2
3134.47299	4111.7
3136.82039	4111.5
3139.16636	4115.4
3141.51092	4118
3143.85406	4129.5
3146.19579	4122.9
3148.53609	4124.6
3150.87499	4137.7
3153.21246	4163
3155.54853	4151.3
3157.88318	4153.7
3160.21642	4168.1
3162.54826	4167.5
3164.87868	4173.1
3167.2077	4176.7
3169.5353	4173
3171.86151	4173.4
3174.18631	4174.5
3176.5097	4183.9
3178.83169	4167.5
3181.15228	4167
3183.47147	4165
3185.78926	4184
3188.10565	4167.5
3190.42065	4161.2
3192.73424	4161.8
3195.04645	4164.3
3197.35725	4165
3199.66667	4173.5
3201.97469	4156.6
3204.28132	4178.8
3206.58656	4169.8
3208.8904	4199.6
3211.19287	4181.1
3213.49394	4189.6
3215.79363	4197.1
3218.09193	4198.4
3220.38884	4209.6
3222.68438	4191.2
3224.97853	4207.1
3227.2713	4210.6
3229.56269	4201.2
3231.8527	4206.2
3234.14133	4196.5
3236.42858	4186.2
3238.71446	4181.2
3240.99896	4174.8
3243.28209	4175.9
3245.56384	4163.7
3247.84423	4159.3
3250.12324	4173.5
3252.40088	4150.3
3254.67715	4142.6
3256.95205	4157.4
3259.22558	4154.5
3261.49775	4149.4
3263.76855	4141.8
3266.03799	4103.8
3268.30606	4135.6
3270.57277	4128.4
3272.83812	4105.1
3275.10211	4109.1
3277.36474	4086.7
3279.62601	4105.4
3281.88593	4083.1
3284.14448	4084.4
3286.40168	4088.6
3288.65753	4088.4
3290.91202	4087
3293.16516	4088.5
3295.41695	4065.7
3297.66738	4043.6
3299.91647	4033.6
3302.16421	4001.3
3304.4106	3987.8
3306.65564	3972.3
3308.89933	3941
3311.14169	3926.3
3313.38269	3902.2
3315.62236	3863.6
3317.86068	3837.1
3320.09766	3800.5
3322.3333	3775.7
3324.5676	3784.1
3326.80056	3706.7
3329.03219	3682
3331.26248	0.9
3333.49143	0.2
3335.71905	-1.1
