Data from AgNPs_FTO_APTES_UA_1uM_CRN_10uM_R6G_50uM_NaF_0.1M_Addition_RamanShift__13__15-56-09-735.txt Node

Date: Thu Jan 27 15:56:09 GMT 2022
User: TCL
Spectrometer: QEP01345
Trigger mode: 4
Integration Time (sec): 7.000000E0
Scans to average: 10
Electric dark correction enabled: true
Nonlinearity correction enabled: false
Boxcar width: 0
XAxis mode: Raman Shifts
Number of Pixels in Spectrum: 1044
>>>>>Begin Spectral Data<<<<<
46.04893	1.1375
50.45542	0.5375
54.85868	-1.3625
59.25871	-0.5625
63.6555	45.8375
68.04907	49.4375
72.43941	50.7375
76.82654	53.1375
81.21044	56.6375
85.59113	53.1375
89.96862	57.1375
94.34289	58.2375
98.71396	64.0375
103.08183	61.3375
107.4465	70.4375
111.80798	69.1375
116.16626	68.7375
120.52136	77.9375
124.87327	75.6375
129.222	73.7375
133.56755	78.8375
137.90993	85.2375
142.24913	91.2375
146.58517	102.5375
150.91804	114.8375
155.24774	134.2375
159.57429	159.6375
163.89768	206.3375
168.21792	274.1375
172.53501	366.1375
176.84895	504.2375
181.15975	702.9375
185.46741	986.2375
189.77193	1377.4375
194.07331	1839.7375
198.37157	2368.5375
202.6667	2947.3375
206.9587	3508.6375
211.24758	4062.0375
215.53334	4617.2375
219.81599	5175.7375
224.09553	5782.7375
228.37195	6453.8375
232.64527	7200.3375
236.91549	8010.3375
241.18261	8846.3375
245.44663	9626.9375
249.70755	10365.6375
253.96539	10999.9375
258.22014	11585.8375
262.4718	12020.0375
266.72039	12339.4375
270.96589	12515.1375
275.20832	12569.8375
279.44768	12526.0375
283.68397	12409.9375
287.91719	12341.7375
292.14735	12247.9375
296.37445	12174.0375
300.59849	12170.8375
304.81948	12175.2375
309.03742	12104.9375
313.25231	12028.6375
317.46415	11858.4375
321.67296	11661.3375
325.87872	11507.4375
330.08145	11435.1375
334.28114	11478.1375
338.47781	11572.2375
342.67145	11658.8375
346.86207	11774.4375
351.04966	11910.9375
355.23424	12076.1375
359.4158	12213.6375
363.59435	12322.6375
367.76989	12445.6375
371.94243	12505.2375
376.11196	12603.7375
380.27849	12662.0375
384.44203	12735.0375
388.60257	12785.9375
392.76012	12900.5375
396.91468	13018.2375
401.06626	13207.2375
405.21485	13290.1375
409.36047	13305.7375
413.50311	13219.8375
417.64277	13126.7375
421.77947	13155.3375
425.9132	13187.9375
430.04396	13256.5375
434.17176	13310.5375
438.2966	13393.9375
442.41849	13508.2375
446.53742	13649.4375
450.6534	13835.6375
454.76644	13998.7375
458.87653	14077.3375
462.98368	14120.5375
467.08789	14127.5375
471.18916	14083.6375
475.2875	14042.8375
479.38291	13995.0375
483.4754	13949.7375
487.56496	13883.4375
491.6516	13769.4375
495.73531	13674.5375
499.81612	13646.6375
503.89401	13694.8375
507.96899	13739.8375
512.04106	13744.8375
516.11023	13755.6375
520.1765	13698.8375
524.23987	13611.8375
528.30034	13532.2375
532.35792	13453.6375
536.41261	13416.5375
540.46441	13343.6375
544.51333	13327.4375
548.55936	13424.2375
552.60252	13609.9375
556.64279	13778.0375
560.6802	13891.5375
564.71473	13942.4375
568.7464	14034.1375
572.7752	14229.1375
576.80114	14501.8375
580.82422	14742.0375
584.84444	14950.1375
588.86181	15062.0375
592.87633	15094.5375
596.888	15031.6375
600.89682	14958.5375
604.9028	15078.6375
608.90594	15520.5375
612.90624	16104.8375
616.90371	15561.7375
620.89834	14223.5375
624.89015	13668.0375
628.87913	13598.3375
632.86528	13677.3375
636.84862	13745.3375
640.82913	13656.5375
644.80683	13559.3375
648.78172	13397.8375
652.75379	13343.2375
656.72306	13430.2375
660.68952	13537.8375
664.65319	13544.8375
668.61405	13487.8375
672.57211	13460.4375
676.52738	13481.8375
680.47986	13496.3375
684.42955	13467.6375
688.37646	13407.6375
692.32058	13429.7375
696.26192	13489.0375
700.20048	13596.6375
704.13626	13679.5375
708.06928	13692.4375
711.99952	13706.7375
715.927	13644.1375
719.85171	13630.9375
723.77365	13571.6375
727.69284	13501.0375
731.60928	13417.2375
735.52295	13348.6375
739.43388	13342.4375
743.34206	13337.3375
747.24749	13390.2375
751.15017	13464.8375
755.05012	13582.9375
758.94733	13778.6375
762.8418	14114.6375
766.73354	14648.5375
770.62254	15156.0375
774.50882	15268.5375
778.39237	14890.3375
782.27321	14352.4375
786.15132	13915.5375
790.02671	13596.2375
793.89938	13417.4375
797.76935	13326.4375
801.6366	13256.5375
805.50115	13238.1375
809.36299	13209.0375
813.22213	13173.2375
817.07857	13158.0375
820.93231	13160.1375
824.78336	13149.9375
828.63172	13128.3375
832.47738	13099.8375
836.32036	13094.0375
840.16066	13076.3375
843.99827	13073.0375
847.8332	13114.5375
851.66546	13096.2375
855.49504	13086.0375
859.32195	13126.8375
863.1462	13108.0375
866.96777	13089.2375
870.78668	13085.2375
874.60293	13084.9375
878.41652	13061.5375
882.22745	13086.7375
886.03573	13118.7375
889.84136	13133.7375
893.64433	13130.1375
897.44466	13093.5375
901.24235	13072.8375
905.0374	13068.0375
908.8298	13040.8375
912.61957	13025.4375
916.40671	13106.4375
920.19121	13214.5375
923.97308	13255.5375
927.75233	13211.8375
931.52895	13131.8375
935.30295	13044.0375
939.07433	12914.7375
942.84309	12819.3375
946.60924	12754.7375
950.37278	12712.5375
954.13371	12717.5375
957.89203	12667.9375
961.64774	12663.5375
965.40086	12638.4375
969.15137	12619.6375
972.89929	12577.0375
976.64461	12561.5375
980.38733	12500.8375
984.12747	12530.7375
987.86502	12520.0375
991.59999	12568.9375
995.33237	12609.3375
999.06217	12666.2375
1002.78939	12780.8375
1006.51404	12824.2375
1010.23611	12941.8375
1013.95561	13030.9375
1017.67255	13026.7375
1021.38692	13006.6375
1025.09872	12941.3375
1028.80796	12840.4375
1032.51465	12816.2375
1036.21877	12813.2375
1039.92035	12848.4375
1043.61937	12899.8375
1047.31584	12909.6375
1051.00976	12991.6375
1054.70114	13040.9375
1058.38998	13079.5375
1062.07627	13180.1375
1065.76003	13310.7375
1069.44126	13421.4375
1073.11995	13540.9375
1076.79611	13631.3375
1080.46974	13667.6375
1084.14085	13673.1375
1087.80943	13663.7375
1091.47549	13693.8375
1095.13903	13803.1375
1098.80005	13720.5375
1102.45857	13561.2375
1106.11456	13445.9375
1109.76805	13269.6375
1113.41903	13225.4375
1117.06751	13244.7375
1120.71348	13287.7375
1124.35696	13320.0375
1127.99793	13465.6375
1131.63641	13548.1375
1135.2724	13480.5375
1138.90589	13427.8375
1142.5369	13429.2375
1146.16542	13438.3375
1149.79145	13452.1375
1153.415	13505.5375
1157.03607	13556.7375
1160.65467	13699.0375
1164.27079	13943.2375
1167.88443	14255.3375
1171.49561	14633.3375
1175.10432	15145.3375
1178.71056	15694.3375
1182.31434	16234.1375
1185.91565	16633.1375
1189.51451	16799.3375
1193.11091	16793.4375
1196.70485	16530.4375
1200.29634	16171.2375
1203.88538	15840.8375
1207.47197	15558.7375
1211.05612	15356.0375
1214.63782	15163.0375
1218.21708	14902.7375
1221.79391	14651.6375
1225.36829	14429.5375
1228.94024	14308.5375
1232.50976	14268.2375
1236.07685	14195.8375
1239.6415	14235.8375
1243.20374	14229.2375
1246.76355	14295.4375
1250.32093	14379.4375
1253.8759	14511.9375
1257.42845	14697.5375
1260.97859	14919.3375
1264.52631	15146.1375
1268.07163	15337.6375
1271.61453	15526.1375
1275.15503	15714.4375
1278.69312	15927.1375
1282.22882	16106.5375
1285.76211	16368.1375
1289.29301	16615.3375
1292.82151	16964.6375
1296.34761	17369.9375
1299.87133	17849.5375
1303.39266	18305.1375
1306.9116	18731.2375
1310.42815	19102.1375
1313.94233	19302.4375
1317.45412	19266.2375
1320.96354	19215.0375
1324.47058	19163.2375
1327.97525	19151.0375
1331.47754	19140.5375
1334.97747	19174.6375
1338.47502	19353.7375
1341.97022	19562.7375
1345.46305	19783.3375
1348.95352	19893.6375
1352.44163	19841.3375
1355.92738	19707.6375
1359.41078	19757.3375
1362.89183	19781.6375
1366.37053	19438.9375
1369.84688	18561.8375
1373.32088	17439.3375
1376.79254	16616.7375
1380.26186	16186.4375
1383.72883	16020.5375
1387.19347	15957.8375
1390.65578	15807.5375
1394.11575	15698.8375
1397.57339	15617.1375
1401.0287	15601.0375
1404.48168	15653.4375
1407.93234	15592.6375
1411.38068	15404.2375
1414.82669	15157.3375
1418.27039	14862.8375
1421.71177	14518.1375
1425.15083	14257.9375
1428.58758	14108.5375
1432.02203	14083.6375
1435.45416	14172.6375
1438.88399	14348.4375
1442.31151	14453.6375
1445.73673	14561.5375
1449.15965	14702.4375
1452.58027	14808.5375
1455.9986	14896.2375
1459.41463	15015.0375
1462.82837	15148.6375
1466.23982	15340.8375
1469.64898	15500.6375
1473.05586	15628.8375
1476.46045	15703.8375
1479.86276	15669.6375
1483.26279	15659.1375
1486.66054	15701.0375
1490.05602	15757.7375
1493.44922	15948.0375
1496.84016	16256.1375
1500.22882	16616.3375
1503.61521	17115.4375
1506.99934	17599.4375
1510.38121	17933.3375
1513.76081	17990.7375
1517.13816	17747.0375
1520.51324	17390.2375
1523.88607	17055.2375
1527.25665	16852.5375
1530.62498	16716.0375
1533.99105	16588.8375
1537.35488	16393.3375
1540.71647	16152.3375
1544.07581	15862.9375
1547.4329	15599.0375
1550.78776	15381.3375
1554.14038	15250.5375
1557.49077	15186.3375
1560.83892	15167.4375
1564.18484	15147.8375
1567.52853	15237.6375
1570.86999	15299.4375
1574.20922	15451.9375
1577.54624	15537.5375
1580.88103	15517.0375
1584.2136	15423.8375
1587.54395	15450.7375
1590.87208	15601.7375
1594.19801	15925.0375
1597.52172	16285.4375
1600.84321	16393.6375
1604.16251	16103.6375
1607.47959	15602.0375
1610.79447	15028.8375
1614.10715	14417.5375
1617.41763	13836.4375
1620.7259	13393.4375
1624.03199	13097.7375
1627.33587	12959.1375
1630.63757	13057.8375
1633.93707	13355.2375
1637.23439	13892.3375
1640.52951	14690.3375
1643.82246	15746.1375
1647.11321	16724.8375
1650.40179	17172.6375
1653.68819	16846.1375
1656.97241	15772.1375
1660.25446	14469.7375
1663.53433	13387.2375
1666.81203	12622.5375
1670.08756	12067.6375
1673.36092	11793.2375
1676.63211	11561.3375
1679.90115	11425.7375
1683.16801	11310.7375
1686.43272	11187.3375
1689.69527	11133.5375
1692.95567	11041.3375
1696.2139	11008.2375
1699.46999	10932.2375
1702.72392	10879.9375
1705.97571	10901.1375
1709.22535	10903.7375
1712.47284	10907.1375
1715.71819	10918.4375
1718.96139	10904.3375
1722.20246	10898.3375
1725.44139	10861.6375
1728.67818	10817.0375
1731.91284	10772.7375
1735.14537	10738.7375
1738.37576	10692.3375
1741.60403	10651.0375
1744.83017	10632.2375
1748.05418	10587.5375
1751.27607	10562.7375
1754.49584	10550.6375
1757.71349	10508.4375
1760.92903	10514.2375
1764.14244	10484.5375
1767.35375	10470.5375
1770.56294	10462.6375
1773.77002	10468.5375
1776.97499	10446.4375
1780.17785	10460.6375
1783.37861	10461.0375
1786.57727	10437.5375
1789.77382	10404.2375
1792.96828	10394.2375
1796.16064	10377.0375
1799.3509	10373.5375
1802.53907	10346.9375
1805.72514	10296.8375
1808.90913	10263.6375
1812.09102	10263.6375
1815.27083	10241.9375
1818.44856	10219.6375
1821.6242	10195.1375
1824.79776	10193.1375
1827.96924	10185.7375
1831.13864	10170.3375
1834.30597	10160.6375
1837.47122	10152.2375
1840.6344	10126.1375
1843.7955	10153.1375
1846.95454	10118.6375
1850.11151	10092.4375
1853.26642	10101.9375
1856.41926	10116.7375
1859.57004	10087.7375
1862.71876	10084.3375
1865.86542	10080.7375
1869.01003	10068.5375
1872.15258	10031.9375
1875.29308	10026.8375
1878.43152	10000.9375
1881.56792	9985.2375
1884.70227	9959.8375
1887.83457	9953.6375
1890.96482	9936.6375
1894.09304	9911.1375
1897.21921	9905.1375
1900.34335	9889.1375
1903.46544	9882.9375
1906.58551	9847.1375
1909.70353	9839.8375
1912.81953	9842.6375
1915.93349	9814.2375
1919.04543	9793.8375
1922.15534	9770.7375
1925.26322	9760.8375
1928.36908	9736.8375
1931.47292	9722.6375
1934.57473	9691.6375
1937.67453	9684.7375
1940.77232	9656.1375
1943.86808	9621.8375
1946.96184	9595.6375
1950.05358	9550.8375
1953.14331	9541.7375
1956.23103	9505.0375
1959.31675	9507.3375
1962.40046	9448.5375
1965.48217	9424.7375
1968.56188	9417.5375
1971.63959	9372.3375
1974.7153	9364.3375
1977.78901	9319.1375
1980.86073	9289.1375
1983.93046	9265.1375
1986.99819	9261.2375
1990.06394	9225.1375
1993.1277	9193.1375
1996.18947	9147.4375
1999.24925	9121.3375
2002.30706	9088.6375
2005.36288	9064.1375
2008.41672	9053.8375
2011.46859	9014.1375
2014.51848	8980.0375
2017.56639	8954.9375
2020.61233	8934.0375
2023.6563	8902.7375
2026.6983	8871.5375
2029.73833	8859.0375
2032.7764	8841.4375
2035.8125	8833.2375
2038.84664	8783.8375
2041.87881	8760.2375
2044.90903	8760.1375
2047.93729	8723.4375
2050.96359	8702.4375
2053.98794	8712.8375
2057.01034	8701.6375
2060.03078	8700.1375
2063.04927	8691.3375
2066.06582	8676.8375
2069.08042	8674.0375
2072.09307	8659.4375
2075.10378	8660.8375
2078.11255	8652.3375
2081.11938	8642.6375
2084.12426	8648.2375
2087.12722	8636.0375
2090.12824	8628.5375
2093.12732	8625.7375
2096.12447	8603.4375
2099.11969	8602.8375
2102.11299	8608.9375
2105.10435	8608.0375
2108.09379	8634.4375
2111.08131	8624.8375
2114.0669	8634.8375
2117.05057	8651.9375
2120.03233	8632.5375
2123.01216	8634.9375
2125.99008	8646.7375
2128.96609	8664.6375
2131.94018	8669.3375
2134.91236	8665.1375
2137.88263	8669.8375
2140.851	8680.6375
2143.81746	8672.9375
2146.78201	8662.8375
2149.74466	8661.3375
2152.7054	8672.8375
2155.66425	8641.9375
2158.6212	8648.2375
2161.57625	8640.9375
2164.52941	8631.2375
2167.48067	8653.8375
2170.43004	8656.5375
2173.37752	8618.5375
2176.32311	8641.9375
2179.26681	8646.7375
2182.20863	8620.4375
2185.14856	8632.3375
2188.08661	8629.3375
2191.02278	8618.2375
2193.95707	8594.8375
2196.88948	8601.0375
2199.82001	8583.7375
2202.74867	8567.2375
2205.67545	8576.1375
2208.60037	8538.4375
2211.52341	8544.8375
2214.44458	8515.2375
2217.36388	8510.8375
2220.28132	8487.2375
2223.1969	8461.2375
2226.11061	8426.2375
2229.02246	8447.5375
2231.93245	8414.4375
2234.84058	8398.8375
2237.74686	8382.9375
2240.65128	8374.6375
2243.55385	8350.0375
2246.45456	8338.0375
2249.35343	8334.6375
2252.25044	8325.0375
2255.14561	8298.1375
2258.03893	8302.9375
2260.93041	8265.0375
2263.82004	8227.9375
2266.70783	8227.3375
2269.59378	8186.0375
2272.4779	8168.7375
2275.36017	8149.2375
2278.24061	8159.0375
2281.11922	8140.1375
2283.996	8133.6375
2286.87094	8118.9375
2289.74405	8111.8375
2292.61534	8070.6375
2295.4848	8060.4375
2298.35243	8059.7375
2301.21824	8036.9375
2304.08223	8044.4375
2306.94439	8034.1375
2309.80474	8011.1375
2312.66327	8010.3375
2315.51999	7998.5375
2318.37489	7981.4375
2321.22797	7978.2375
2324.07925	7965.2375
2326.92871	7947.0375
2329.77637	7924.5375
2332.62222	7925.6375
2335.46626	7905.8375
2338.3085	7878.6375
2341.14893	7877.7375
2343.98756	7868.0375
2346.8244	7866.0375
2349.65943	7859.1375
2352.49267	7837.8375
2355.32411	7856.5375
2358.15376	7833.3375
2360.98161	7825.2375
2363.80768	7842.6375
2366.63195	7831.5375
2369.45444	7816.9375
2372.27514	7808.9375
2375.09405	7799.5375
2377.91118	7772.7375
2380.72652	7752.9375
2383.54009	7742.2375
2386.35187	7721.3375
2389.16188	7698.1375
2391.97011	7690.8375
2394.77657	7650.3375
2397.58125	7642.4375
2400.38416	7634.3375
2403.18529	7645.2375
2405.98466	7624.4375
2408.78226	7615.2375
2411.57809	7598.0375
2414.37216	7582.3375
2417.16446	7576.9375
2419.955	7559.4375
2422.74378	7567.5375
2425.5308	7558.7375
2428.31606	7555.6375
2431.09956	7522.8375
2433.88131	7534.4375
2436.6613	7514.6375
2439.43954	7508.1375
2442.21603	7502.5375
2444.99077	7495.9375
2447.76377	7498.4375
2450.53501	7484.5375
2453.30451	7489.9375
2456.07226	7449.9375
2458.83827	7458.8375
2461.60254	7443.0375
2464.36507	7432.8375
2467.12586	7407.3375
2469.88492	7394.2375
2472.64224	7390.1375
2475.39782	7407.9375
2478.15167	7386.3375
2480.90379	7353.3375
2483.65417	7371.1375
2486.40283	7376.6375
2489.14976	7344.4375
2491.89497	7343.9375
2494.63845	7357.0375
2497.3802	7343.0375
2500.12024	7351.3375
2502.85855	7310.2375
2505.59514	7311.4375
2508.33002	7292.0375
2511.06318	7295.3375
2513.79462	7292.5375
2516.52435	7276.7375
2519.25237	7279.5375
2521.97867	7249.0375
2524.70327	7260.3375
2527.42616	7268.6375
2530.14734	7252.3375
2532.86681	7233.6375
2535.58458	7214.1375
2538.30065	7192.9375
2541.01501	7200.6375
2543.72768	7174.1375
2546.43864	7165.1375
2549.14791	7148.3375
2551.85548	7124.6375
2554.56136	7129.9375
2557.26554	7109.0375
2559.96803	7082.8375
2562.66883	7081.4375
2565.36794	7071.5375
2568.06536	7060.3375
2570.7611	7041.2375
2573.45514	7012.5375
2576.14751	7013.0375
2578.83819	7002.0375
2581.52719	6974.3375
2584.21451	6984.5375
2586.90015	6957.6375
2589.58411	6949.3375
2592.2664	6957.7375
2594.94701	6917.3375
2597.62594	6927.4375
2600.30321	6908.0375
2602.9788	6899.1375
2605.65273	6863.6375
2608.32498	6884.2375
2610.99557	6861.5375
2613.66449	6870.3375
2616.33175	6849.1375
2618.99734	6842.2375
2621.66128	6831.8375
2624.32355	6835.3375
2626.98416	6825.3375
2629.64311	6804.0375
2632.30041	6790.5375
2634.95605	6767.2375
2637.61004	6780.4375
2640.26238	6786.6375
2642.91306	6737.3375
2645.56209	6751.6375
2648.20948	6741.7375
2650.85521	6736.6375
2653.4993	6747.7375
2656.14175	6742.0375
2658.78255	6745.4375
2661.42171	6730.2375
2664.05923	6752.4375
2666.6951	6744.2375
2669.32934	6738.5375
2671.96194	6707.7375
2674.59291	6718.4375
2677.22224	6719.5375
2679.84993	6721.2375
2682.476	6698.5375
2685.10043	6707.5375
2687.72324	6694.9375
2690.34441	6696.3375
2692.96396	6722.0375
2695.58188	6688.1375
2698.19818	6698.6375
2700.81285	6685.9375
2703.4259	6696.6375
2706.03733	6686.6375
2708.64714	6656.8375
2711.25533	6663.5375
2713.86191	6659.2375
2716.46687	6671.0375
2719.07021	6667.6375
2721.67194	6681.8375
2724.27206	6688.0375
2726.87057	6681.3375
2729.46747	6668.5375
2732.06276	6692.7375
2734.65644	6647.9375
2737.24852	6643.2375
2739.83899	6645.2375
2742.42786	6639.6375
2745.01513	6617.4375
2747.60079	6629.3375
2750.18486	6624.4375
2752.76733	6607.9375
2755.3482	6609.5375
2757.92747	6608.0375
2760.50515	6571.4375
2763.08123	6573.9375
2765.65573	6562.0375
2768.22863	6551.9375
2770.79994	6562.9375
2773.36967	6541.8375
2775.9378	6544.8375
2778.50435	6525.1375
2781.06932	6504.3375
2783.6327	6505.5375
2786.1945	6503.4375
2788.75471	6477.0375
2791.31335	6469.3375
2793.87041	6461.2375
2796.42589	6448.0375
2798.97979	6428.1375
2801.53212	6414.3375
2804.08288	6417.4375
2806.63206	6393.6375
2809.17967	6375.7375
2811.72571	6365.5375
2814.27018	6352.0375
2816.81308	6331.7375
2819.35442	6331.9375
2821.89419	6324.8375
2824.43239	6315.4375
2826.96904	6319.7375
2829.50412	6300.4375
2832.03763	6288.8375
2834.56959	6283.1375
2837.1	6263.3375
2839.62884	6271.6375
2842.15613	6255.8375
2844.68186	6272.2375
2847.20604	6277.1375
2849.72867	6267.0375
2852.24974	6253.8375
2854.76927	6265.0375
2857.28724	6247.7375
2859.80367	6239.5375
2862.31855	6224.5375
2864.83189	6204.4375
2867.34368	6229.4375
2869.85393	6203.0375
2872.36264	6189.5375
2874.8698	6181.7375
2877.37543	6178.8375
2879.87952	6170.5375
2882.38207	6167.2375
2884.88308	6155.9375
2887.38256	6178.3375
2889.88051	6131.8375
2892.37692	6144.3375
2894.8718	6152.6375
2897.36515	6156.1375
2899.85698	6128.0375
2902.34727	6137.6375
2904.83604	6151.3375
2907.32328	6141.1375
2909.809	6131.7375
2912.29319	6150.9375
2914.77587	6144.1375
2917.25702	6134.7375
2919.73665	6127.8375
2922.21476	6147.2375
2924.69136	6135.5375
2927.16644	6126.8375
2929.64	6111.7375
2932.11205	6117.9375
2934.58258	6095.8375
2937.05161	6093.9375
2939.51912	6092.1375
2941.98513	6083.9375
2944.44962	6081.6375
2946.91261	6046.7375
2949.37409	6062.5375
2951.83407	6067.2375
2954.29254	6047.6375
2956.74951	6041.1375
2959.20498	6060.8375
2961.65895	6020.2375
2964.11142	6044.5375
2966.56239	6013.3375
2969.01186	6008.5375
2971.45984	6007.0375
2973.90632	6001.5375
2976.35131	5993.9375
2978.7948	5977.3375
2981.23681	5964.5375
2983.67732	5976.9375
2986.11635	5949.5375
2988.55388	5922.8375
2990.98993	5919.2375
2993.4245	5919.7375
2995.85758	5899.8375
2998.28917	5897.5375
3000.71928	5871.7375
3003.14791	5861.2375
3005.57506	5860.5375
3008.00073	5841.9375
3010.42493	5840.5375
3012.84764	5811.1375
3015.26888	5828.7375
3017.68865	5807.4375
3020.10694	5803.1375
3022.52376	5793.9375
3024.9391	5765.9375
3027.35298	5780.5375
3029.76539	5761.8375
3032.17632	5765.5375
3034.5858	5749.0375
3036.9938	5758.8375
3039.40034	5737.2375
3041.80542	5735.6375
3044.20903	5723.4375
3046.61118	5718.2375
3049.01187	5701.1375
3051.4111	5718.8375
3053.80888	5693.5375
3056.20519	5673.0375
3058.60005	5670.3375
3060.99345	5659.4375
3063.3854	5631.4375
3065.7759	5626.1375
3068.16494	5653.0375
3070.55254	5595.8375
3072.93868	5589.7375
3075.32338	5585.4375
3077.70662	5592.5375
3080.08842	5572.0375
3082.46878	5565.2375
3084.84769	5561.0375
3087.22515	5565.2375
3089.60118	5575.7375
3091.97576	5549.9375
3094.3489	5558.1375
3096.72061	5568.7375
3099.09087	5558.6375
3101.4597	5540.8375
3103.82709	5552.0375
3106.19305	5551.0375
3108.55757	5547.0375
3110.92066	5533.4375
3113.28232	5517.4375
3115.64255	5506.9375
3118.00134	5514.2375
3120.35871	5520.4375
3122.71466	5499.9375
3125.06917	5482.7375
3127.42226	5471.2375
3129.77393	5473.3375
3132.12417	5460.7375
3134.47299	5473.1375
3136.82039	5468.2375
3139.16636	5465.2375
3141.51092	5475.7375
3143.85406	5474.7375
3146.19579	5483.3375
3148.53609	5489.0375
3150.87499	5480.6375
3153.21246	5488.7375
3155.54853	5492.8375
3157.88318	5503.3375
3160.21642	5498.4375
3162.54826	5492.8375
3164.87868	5502.8375
3167.2077	5482.7375
3169.5353	5507.5375
3171.86151	5496.3375
3174.18631	5497.2375
3176.5097	5485.3375
3178.83169	5490.7375
3181.15228	5498.4375
3183.47147	5469.0375
3185.78926	5472.5375
3188.10565	5446.7375
3190.42065	5447.9375
3192.73424	5447.1375
3195.04645	5469.8375
3197.35725	5446.3375
3199.66667	5466.0375
3201.97469	5458.5375
3204.28132	5461.8375
3206.58656	5446.9375
3208.8904	5457.5375
3211.19287	5447.2375
3213.49394	5481.8375
3215.79363	5464.7375
3218.09193	5473.6375
3220.38884	5474.9375
3222.68438	5445.3375
3224.97853	5448.0375
3227.2713	5446.8375
3229.56269	5444.8375
3231.8527	5441.4375
3234.14133	5445.8375
3236.42858	5431.9375
3238.71446	5399.4375
3240.99896	5387.6375
3243.28209	5402.3375
3245.56384	5367.6375
3247.84423	5364.4375
3250.12324	5368.7375
3252.40088	5377.9375
3254.67715	5381.3375
3256.95205	5369.3375
3259.22558	5381.3375
3261.49775	5369.1375
3263.76855	5341.6375
3266.03799	5327.2375
3268.30606	5319.8375
3270.57277	5328.1375
3272.83812	5306.6375
3275.10211	5293.5375
3277.36474	5278.7375
3279.62601	5274.5375
3281.88593	5260.4375
3284.14448	5276.2375
3286.40168	5278.9375
3288.65753	5284.9375
3290.91202	5269.9375
3293.16516	5248.4375
3295.41695	5236.3375
3297.66738	5205.4375
3299.91647	5185.5375
3302.16421	5148.1375
3304.4106	5119.7375
3306.65564	5087.6375
3308.89933	5076.7375
3311.14169	5037.7375
3313.38269	5008.5375
3315.62236	4971.4375
3317.86068	4917.2375
3320.09766	4875.4375
3322.3333	4866.8375
3324.5676	4840.3375
3326.80056	4745.0375
3329.03219	4733.5375
3331.26248	2.9375
3333.49143	-0.6625
3335.71905	-1.6625
