Data from AgNPs_FTO_APTES_UA_1uM_CRN_1000uM_R6G_10uM_NaF_0.1M_Addition_RamanShift__5__18-39-29-920.txt Node

Date: Thu Jan 27 18:39:29 GMT 2022
User: TCL
Spectrometer: QEP01345
Trigger mode: 4
Integration Time (sec): 7.000000E0
Scans to average: 10
Electric dark correction enabled: true
Nonlinearity correction enabled: false
Boxcar width: 0
XAxis mode: Raman Shifts
Number of Pixels in Spectrum: 1044
>>>>>Begin Spectral Data<<<<<
46.04893	0.4
50.45542	0.6
54.85868	-1.3
59.25871	-1
63.6555	42.4
68.04907	46.4
72.43941	47.4
76.82654	53.1
81.21044	56.7
85.59113	56.6
89.96862	56.3
94.34289	58.5
98.71396	63.1
103.08183	63.7
107.4465	66.5
111.80798	67.1
116.16626	68.3
120.52136	72.2
124.87327	74
129.222	73.4
133.56755	78.6
137.90993	81.5
142.24913	90.6
146.58517	97.3
150.91804	113.5
155.24774	128.7
159.57429	157.2
163.89768	193.3
168.21792	256.8
172.53501	345.5
176.84895	487.7
181.15975	672.4
185.46741	938.6
189.77193	1299.1
194.07331	1743.6
198.37157	2266.4
202.6667	2804.7
206.9587	3348.8
211.24758	3879
215.53334	4412.7
219.81599	4965.7
224.09553	5580
228.37195	6255.5
232.64527	6957.3
236.91549	7734.2
241.18261	8501.1
245.44663	9254.4
249.70755	9883
253.96539	10432
258.22014	10893.2
262.4718	11273.5
266.72039	11532.4
270.96589	11644.9
275.20832	11613.1
279.44768	11501.5
283.68397	11332.2
287.91719	11175.7
292.14735	11019.7
296.37445	10977.5
300.59849	10973.2
304.81948	11014.2
309.03742	11060.2
313.25231	10976.4
317.46415	10787.6
321.67296	10546.8
325.87872	10352.7
330.08145	10273.5
334.28114	10263.8
338.47781	10339
342.67145	10467.3
346.86207	10633.6
351.04966	10815
355.23424	11041.7
359.4158	11194.5
363.59435	11308.6
367.76989	11423
371.94243	11508.6
376.11196	11548
380.27849	11578.1
384.44203	11684.1
388.60257	11726.9
392.76012	11814.2
396.91468	11919.2
401.06626	12041.1
405.21485	12194.4
409.36047	12161.9
413.50311	11999.9
417.64277	11846
421.77947	11854.7
425.9132	11883.8
430.04396	11899.7
434.17176	11960.2
438.2966	12004.1
442.41849	12124.4
446.53742	12323.5
450.6534	12571.4
454.76644	12694.8
458.87653	12743.4
462.98368	12666.1
467.08789	12518.5
471.18916	12393.8
475.2875	12209.4
479.38291	12106.4
483.4754	12005.1
487.56496	11912.1
491.6516	11823.5
495.73531	11791.9
499.81612	11810.1
503.89401	11862.8
507.96899	11938.5
512.04106	11951.8
516.11023	11942.7
520.1765	11921.6
524.23987	11866.6
528.30034	11789.7
532.35792	11728.1
536.41261	11625.5
540.46441	11482.2
544.51333	11431.4
548.55936	11497.8
552.60252	11684.9
556.64279	11873.4
560.6802	11993.2
564.71473	12026.9
568.7464	12114.7
572.7752	12294.7
576.80114	12427.6
580.82422	12696.9
584.84444	13090.8
588.86181	13610.5
592.87633	14058.1
596.888	14062.4
600.89682	13598.9
604.9028	13461.1
608.90594	14206.9
612.90624	15445.7
616.90371	14940.9
620.89834	12841.3
624.89015	11766.9
628.87913	11587.4
632.86528	11695.2
636.84862	11740.8
640.82913	11693.8
644.80683	11517
648.78172	11393.8
652.75379	11388.1
656.72306	11480.8
660.68952	11593.7
664.65319	11588.8
668.61405	11385.3
672.57211	11386.6
676.52738	11503.6
680.47986	11594.8
684.42955	11563.4
688.37646	11448.2
692.32058	11358.5
696.26192	11396.9
700.20048	11461.1
704.13626	11488.9
708.06928	11512.4
711.99952	11478.3
715.927	11457.3
719.85171	11504.9
723.77365	11463.7
727.69284	11373.1
731.60928	11308.1
735.52295	11265.4
739.43388	11285.8
743.34206	11298.8
747.24749	11319.7
751.15017	11401.5
755.05012	11486.7
758.94733	11690.1
762.8418	12109.5
766.73354	12812.2
770.62254	13658.3
774.50882	14032.4
778.39237	13701.5
782.27321	12856.4
786.15132	12045.8
790.02671	11541.2
793.89938	11330.7
797.76935	11212.8
801.6366	11162.3
805.50115	11136.8
809.36299	11087
813.22213	11035.4
817.07857	10967.5
820.93231	10934.8
824.78336	10910.2
828.63172	10906
832.47738	10885.4
836.32036	10902.3
840.16066	10886.3
843.99827	10858.7
847.8332	10865.3
851.66546	10857.7
855.49504	10838.7
859.32195	10859.4
863.1462	10839.9
866.96777	10864.8
870.78668	10828.7
874.60293	10859.7
878.41652	10857.6
882.22745	10869.9
886.03573	10934.4
889.84136	10908.7
893.64433	10904.8
897.44466	10842.1
901.24235	10799.4
905.0374	10769.3
908.8298	10716.9
912.61957	10722.4
916.40671	10755.8
920.19121	10845.9
923.97308	10930.3
927.75233	10964.3
931.52895	10970.9
935.30295	10873.2
939.07433	10692.1
942.84309	10566.3
946.60924	10439.1
950.37278	10397.2
954.13371	10359.5
957.89203	10341.7
961.64774	10315.7
965.40086	10312.3
969.15137	10291
972.89929	10230.2
976.64461	10207.1
980.38733	10173.2
984.12747	10191
987.86502	10188.3
991.59999	10230
995.33237	10284.8
999.06217	10386.7
1002.78939	10523.1
1006.51404	10642.4
1010.23611	10768.1
1013.95561	10901.8
1017.67255	10945.9
1021.38692	10918.8
1025.09872	10757
1028.80796	10644.1
1032.51465	10608.5
1036.21877	10642.6
1039.92035	10689.8
1043.61937	10705.7
1047.31584	10713.8
1051.00976	10743.4
1054.70114	10779.9
1058.38998	10772
1062.07627	10841.1
1065.76003	10962.7
1069.44126	11087.9
1073.11995	11196.3
1076.79611	11335
1080.46974	11372.9
1084.14085	11271.6
1087.80943	11301
1091.47549	11311.1
1095.13903	11328.8
1098.80005	11245.3
1102.45857	11060.4
1106.11456	10901.8
1109.76805	10834.1
1113.41903	10816.7
1117.06751	10920.7
1120.71348	11030.3
1124.35696	11223.5
1127.99793	11408
1131.63641	11562.5
1135.2724	11419
1138.90589	11186.2
1142.5369	11106
1146.16542	11092.3
1149.79145	11059.6
1153.415	11055.8
1157.03607	11150.5
1160.65467	11330.4
1164.27079	11686.7
1167.88443	12165.7
1171.49561	12692.2
1175.10432	13405
1178.71056	14352.1
1182.31434	15250.7
1185.91565	15677.3
1189.51451	15486.4
1193.11091	15025
1196.70485	14451.2
1200.29634	13874.8
1203.88538	13432.3
1207.47197	13062.9
1211.05612	12774.3
1214.63782	12506.8
1218.21708	12324.6
1221.79391	12164.8
1225.36829	12086.6
1228.94024	12090.1
1232.50976	11980.6
1236.07685	11878.7
1239.6415	11776.3
1243.20374	11715
1246.76355	11716.7
1250.32093	11843.7
1253.8759	11974.3
1257.42845	12187.6
1260.97859	12412.7
1264.52631	12644.6
1268.07163	12906.3
1271.61453	13141.9
1275.15503	13419.2
1278.69312	13690
1282.22882	13967.7
1285.76211	14286.7
1289.29301	14702.7
1292.82151	15257.5
1296.34761	15882.1
1299.87133	16637.8
1303.39266	17507.3
1306.9116	18434.7
1310.42815	19320.2
1313.94233	19851.7
1317.45412	19678.7
1320.96354	19074.2
1324.47058	18355.5
1327.97525	17727.4
1331.47754	17307.6
1334.97747	17071.2
1338.47502	16901.4
1341.97022	16803.6
1345.46305	16783.5
1348.95352	17027.2
1352.44163	17549.9
1355.92738	18421.5
1359.41078	19609.3
1362.89183	20644.5
1366.37053	20576
1369.84688	18974.7
1373.32088	16763.6
1376.79254	15111
1380.26186	14370.7
1383.72883	14096
1387.19347	13887.4
1390.65578	13589.9
1394.11575	13427.6
1397.57339	13488.7
1401.0287	13686.5
1404.48168	13854
1407.93234	13901.8
1411.38068	13791.9
1414.82669	13564.9
1418.27039	13286.6
1421.71177	12957
1425.15083	12641.8
1428.58758	12445.5
1432.02203	12500.6
1435.45416	12662
1438.88399	12917.7
1442.31151	13091.4
1445.73673	13104.8
1449.15965	13145.6
1452.58027	13148.9
1455.9986	13091.1
1459.41463	13088.3
1462.82837	13201.4
1466.23982	13483.9
1469.64898	13720.4
1473.05586	13883.8
1476.46045	13998.1
1479.86276	13997.3
1483.26279	14009.5
1486.66054	14048.4
1490.05602	14219.7
1493.44922	14432.5
1496.84016	14774.9
1500.22882	15257.6
1503.61521	15964.3
1506.99934	16797.7
1510.38121	17454.9
1513.76081	17574.1
1517.13816	16982.2
1520.51324	15972.3
1523.88607	15079
1527.25665	14542.5
1530.62498	14256.8
1533.99105	14046.8
1537.35488	13882.8
1540.71647	13697.8
1544.07581	13490.7
1547.4329	13274
1550.78776	13051.3
1554.14038	12873.7
1557.49077	12745.4
1560.83892	12725.6
1564.18484	12769.8
1567.52853	12897.8
1570.86999	13087.2
1574.20922	13342
1577.54624	13533.1
1580.88103	13456.8
1584.2136	13208.2
1587.54395	13176.2
1590.87208	13447
1594.19801	14057.9
1597.52172	14813.3
1600.84321	15266.3
1604.16251	15034.3
1607.47959	14256.9
1610.79447	13258.5
1614.10715	12323.6
1617.41763	11535.5
1620.7259	10975.1
1624.03199	10665.5
1627.33587	10603.4
1630.63757	10749.1
1633.93707	11139
1637.23439	11881.2
1640.52951	13111.3
1643.82246	14781.6
1647.11321	16362.2
1650.40179	17012.4
1653.68819	16178.4
1656.97241	14301.9
1660.25446	12449.3
1663.53433	11112.5
1666.81203	10293.6
1670.08756	9844
1673.36092	9538.7
1676.63211	9364.6
1679.90115	9222.4
1683.16801	9103.8
1686.43272	9017.3
1689.69527	8930.5
1692.95567	8890.1
1696.2139	8823.6
1699.46999	8744
1702.72392	8727.1
1705.97571	8723.6
1709.22535	8735.9
1712.47284	8770.2
1715.71819	8744.3
1718.96139	8745.5
1722.20246	8745.3
1725.44139	8705.9
1728.67818	8669.1
1731.91284	8628.1
1735.14537	8592.3
1738.37576	8574.6
1741.60403	8555
1744.83017	8510.9
1748.05418	8534.3
1751.27607	8547.5
1754.49584	8500.5
1757.71349	8536.6
1760.92903	8521.4
1764.14244	8473.1
1767.35375	8451.2
1770.56294	8388.6
1773.77002	8362
1776.97499	8340.1
1780.17785	8337.6
1783.37861	8314.4
1786.57727	8316
1789.77382	8294.5
1792.96828	8286.2
1796.16064	8261.1
1799.3509	8219.2
1802.53907	8194.2
1805.72514	8165.4
1808.90913	8160.4
1812.09102	8159.2
1815.27083	8111.7
1818.44856	8124.2
1821.6242	8081.5
1824.79776	8057.9
1827.96924	8071.9
1831.13864	8054.7
1834.30597	8077.5
1837.47122	8033.2
1840.6344	8030.7
1843.7955	8020.5
1846.95454	8009.6
1850.11151	8024.2
1853.26642	8012.8
1856.41926	8013.2
1859.57004	8002.4
1862.71876	7988.2
1865.86542	7979.1
1869.01003	7977.6
1872.15258	7958.5
1875.29308	7956.6
1878.43152	7934.9
1881.56792	7934.2
1884.70227	7919.9
1887.83457	7918.1
1890.96482	7898.8
1894.09304	7893.7
1897.21921	7878.2
1900.34335	7867.3
1903.46544	7853.1
1906.58551	7845.1
1909.70353	7800.3
1912.81953	7833.7
1915.93349	7792.2
1919.04543	7792.6
1922.15534	7767.8
1925.26322	7748.8
1928.36908	7726.3
1931.47292	7725.5
1934.57473	7705.7
1937.67453	7674.2
1940.77232	7667.3
1943.86808	7608.7
1946.96184	7603.3
1950.05358	7567
1953.14331	7569.8
1956.23103	7543.3
1959.31675	7549.6
1962.40046	7504.9
1965.48217	7491.8
1968.56188	7462.9
1971.63959	7434.8
1974.7153	7423.2
1977.78901	7393.7
1980.86073	7374.7
1983.93046	7350.3
1986.99819	7335.4
1990.06394	7278.5
1993.1277	7280.3
1996.18947	7265.1
1999.24925	7248.4
2002.30706	7229.8
2005.36288	7197.3
2008.41672	7180.8
2011.46859	7163.6
2014.51848	7139.5
2017.56639	7115.9
2020.61233	7096.9
2023.6563	7096.2
2026.6983	7070.2
2029.73833	7058.6
2032.7764	7024.5
2035.8125	7027.4
2038.84664	6987.7
2041.87881	6986.5
2044.90903	6957.5
2047.93729	6947.1
2050.96359	6922.6
2053.98794	6935.2
2057.01034	6922.9
2060.03078	6947.1
2063.04927	6919.8
2066.06582	6903.7
2069.08042	6895.3
2072.09307	6897
2075.10378	6899.3
2078.11255	6893.4
2081.11938	6878
2084.12426	6877.6
2087.12722	6883.2
2090.12824	6862.5
2093.12732	6890.7
2096.12447	6873.7
2099.11969	6848.8
2102.11299	6861.2
2105.10435	6879.5
2108.09379	6860.8
2111.08131	6879.1
2114.0669	6874.8
2117.05057	6886.8
2120.03233	6888.8
2123.01216	6869.1
2125.99008	6898.7
2128.96609	6902.1
2131.94018	6909.7
2134.91236	6894.6
2137.88263	6921.4
2140.851	6898.4
2143.81746	6914.3
2146.78201	6901.3
2149.74466	6891.3
2152.7054	6900.8
2155.66425	6901.7
2158.6212	6880.2
2161.57625	6878.7
2164.52941	6873.5
2167.48067	6887.7
2170.43004	6889.7
2173.37752	6878.2
2176.32311	6876.3
2179.26681	6869.3
2182.20863	6851.6
2185.14856	6856.4
2188.08661	6865.6
2191.02278	6878.5
2193.95707	6862.9
2196.88948	6841.6
2199.82001	6828.8
2202.74867	6814.2
2205.67545	6823.8
2208.60037	6808.6
2211.52341	6790.8
2214.44458	6780.6
2217.36388	6768.5
2220.28132	6765.7
2223.1969	6744.4
2226.11061	6740.2
2229.02246	6707
2231.93245	6701.7
2234.84058	6694.1
2237.74686	6693.8
2240.65128	6687.8
2243.55385	6664.8
2246.45456	6649.1
2249.35343	6670.9
2252.25044	6635.8
2255.14561	6626.3
2258.03893	6632.4
2260.93041	6595.4
2263.82004	6569.6
2266.70783	6557.3
2269.59378	6544
2272.4779	6528
2275.36017	6533
2278.24061	6520.2
2281.11922	6495
2283.996	6486.4
2286.87094	6474.1
2289.74405	6454.9
2292.61534	6445.6
2295.4848	6444.9
2298.35243	6447.9
2301.21824	6443.5
2304.08223	6424.5
2306.94439	6433.3
2309.80474	6409.5
2312.66327	6412
2315.51999	6403.6
2318.37489	6414.5
2321.22797	6402
2324.07925	6387.9
2326.92871	6354.5
2329.77637	6363.7
2332.62222	6356.4
2335.46626	6332.1
2338.3085	6337.6
2341.14893	6346.6
2343.98756	6328.2
2346.8244	6299.9
2349.65943	6298.8
2352.49267	6306.2
2355.32411	6291.1
2358.15376	6283.8
2360.98161	6301.6
2363.80768	6285.2
2366.63195	6289.5
2369.45444	6297.1
2372.27514	6281.6
2375.09405	6278.1
2377.91118	6256.3
2380.72652	6249.7
2383.54009	6218.1
2386.35187	6232.4
2389.16188	6204.7
2391.97011	6174.3
2394.77657	6168
2397.58125	6144
2400.38416	6148.4
2403.18529	6125.7
2405.98466	6129.2
2408.78226	6111
2411.57809	6105.5
2414.37216	6093.7
2417.16446	6075.5
2419.955	6094.8
2422.74378	6079.7
2425.5308	6076
2428.31606	6078.7
2431.09956	6063.1
2433.88131	6064.1
2436.6613	6052.9
2439.43954	6052.9
2442.21603	6049.9
2444.99077	6039.6
2447.76377	6052.8
2450.53501	6035.2
2453.30451	6028.8
2456.07226	6021.8
2458.83827	6011.5
2461.60254	6005.2
2464.36507	6001.1
2467.12586	6010
2469.88492	6001.4
2472.64224	6013.7
2475.39782	5988.1
2478.15167	5970.3
2480.90379	5976.5
2483.65417	5982.2
2486.40283	5987.5
2489.14976	5970
2491.89497	5966.4
2494.63845	5951.7
2497.3802	5944.1
2500.12024	5957.5
2502.85855	5959
2505.59514	5949
2508.33002	5930.6
2511.06318	5929.9
2513.79462	5922.2
2516.52435	5900
2519.25237	5902.4
2521.97867	5878.8
2524.70327	5876.1
2527.42616	5848.5
2530.14734	5867.8
2532.86681	5872.2
2535.58458	5850.1
2538.30065	5826.7
2541.01501	5838.9
2543.72768	5827.1
2546.43864	5819.8
2549.14791	5803.5
2551.85548	5814.7
2554.56136	5785
2557.26554	5784.9
2559.96803	5790.5
2562.66883	5763.8
2565.36794	5765.9
2568.06536	5747.5
2570.7611	5758.8
2573.45514	5725.1
2576.14751	5711.7
2578.83819	5702.8
2581.52719	5706.8
2584.21451	5680.7
2586.90015	5671.5
2589.58411	5690.4
2592.2664	5664.9
2594.94701	5658.5
2597.62594	5641.1
2600.30321	5641.6
2602.9788	5625.5
2605.65273	5616.4
2608.32498	5615.2
2610.99557	5600.3
2613.66449	5601
2616.33175	5592.3
2618.99734	5589
2621.66128	5582.1
2624.32355	5572.7
2626.98416	5559.9
2629.64311	5565.5
2632.30041	5543.8
2634.95605	5548.5
2637.61004	5523.6
2640.26238	5515.2
2642.91306	5536.1
2645.56209	5504.6
2648.20948	5511
2650.85521	5501.2
2653.4993	5524.5
2656.14175	5507
2658.78255	5525.9
2661.42171	5528.4
2664.05923	5536.5
2666.6951	5529.4
2669.32934	5518.8
2671.96194	5514.7
2674.59291	5516.9
2677.22224	5496.2
2679.84993	5509.8
2682.476	5493.2
2685.10043	5494.9
2687.72324	5487.9
2690.34441	5486.5
2692.96396	5482.5
2695.58188	5512
2698.19818	5494.1
2700.81285	5504.7
2703.4259	5497.3
2706.03733	5487.9
2708.64714	5474.8
2711.25533	5496.4
2713.86191	5489.8
2716.46687	5500.5
2719.07021	5499.2
2721.67194	5499.1
2724.27206	5502.8
2726.87057	5498
2729.46747	5515.3
2732.06276	5506.9
2734.65644	5489.8
2737.24852	5499.3
2739.83899	5483.4
2742.42786	5477.5
2745.01513	5474
2747.60079	5470.6
2750.18486	5476.1
2752.76733	5452.1
2755.3482	5443.6
2757.92747	5430
2760.50515	5423.2
2763.08123	5431
2765.65573	5417.6
2768.22863	5414.6
2770.79994	5417.7
2773.36967	5400.6
2775.9378	5406.4
2778.50435	5400.2
2781.06932	5409.7
2783.6327	5394.1
2786.1945	5373.7
2788.75471	5381.8
2791.31335	5371.7
2793.87041	5354.7
2796.42589	5339.2
2798.97979	5341.5
2801.53212	5345.9
2804.08288	5342.4
2806.63206	5322.8
2809.17967	5309.3
2811.72571	5297.1
2814.27018	5287.8
2816.81308	5295.1
2819.35442	5278.3
2821.89419	5284.1
2824.43239	5274.1
2826.96904	5285.3
2829.50412	5264.4
2832.03763	5270.8
2834.56959	5261.5
2837.1	5274.7
2839.62884	5280
2842.15613	5302.5
2844.68186	5354.4
2847.20604	5373.4
2849.72867	5394.1
2852.24974	5408.6
2854.76927	5386.1
2857.28724	5367.3
2859.80367	5361.1
2862.31855	5361.2
2864.83189	5348.9
2867.34368	5338.7
2869.85393	5350.4
2872.36264	5327.9
2874.8698	5340
2877.37543	5340.4
2879.87952	5318.3
2882.38207	5343.6
2884.88308	5318.2
2887.38256	5355.2
2889.88051	5330.8
2892.37692	5338.5
2894.8718	5338.7
2897.36515	5345.4
2899.85698	5355
2902.34727	5366.4
2904.83604	5374.6
2907.32328	5393.7
2909.809	5375.8
2912.29319	5393.1
2914.77587	5382.8
2917.25702	5372.2
2919.73665	5378.6
2922.21476	5384
2924.69136	5407.6
2927.16644	5411.4
2929.64	5400.2
2932.11205	5403.9
2934.58258	5382.1
2937.05161	5386.7
2939.51912	5391.7
2941.98513	5369
2944.44962	5355
2946.91261	5321.7
2949.37409	5326.5
2951.83407	5297.4
2954.29254	5288.4
2956.74951	5271.7
2959.20498	5273.7
2961.65895	5257.2
2964.11142	5239.2
2966.56239	5213.6
2969.01186	5200.8
2971.45984	5189.9
2973.90632	5188.8
2976.35131	5154.1
2978.7948	5155.1
2981.23681	5125.5
2983.67732	5124.5
2986.11635	5103.5
2988.55388	5082.2
2990.98993	5065.4
2993.4245	5060
2995.85758	5052.9
2998.28917	5052.7
3000.71928	5037.8
3003.14791	5023
3005.57506	5018.9
3008.00073	5006.6
3010.42493	5009.8
3012.84764	4991.5
3015.26888	4996
3017.68865	4970.7
3020.10694	4975.9
3022.52376	4956.7
3024.9391	4956.8
3027.35298	4938.6
3029.76539	4934.9
3032.17632	4921.7
3034.5858	4909.9
3036.9938	4910.5
3039.40034	4917.3
3041.80542	4920.5
3044.20903	4893.2
3046.61118	4884.3
3049.01187	4887.7
3051.4111	4882.2
3053.80888	4876.6
3056.20519	4885.1
3058.60005	4872.7
3060.99345	4845.7
3063.3854	4861
3065.7759	4817.4
3068.16494	4838.3
3070.55254	4819.9
3072.93868	4822.6
3075.32338	4806.7
3077.70662	4796.6
3080.08842	4796
3082.46878	4796.2
3084.84769	4781.4
3087.22515	4780.4
3089.60118	4797.3
3091.97576	4786.8
3094.3489	4784.3
3096.72061	4795.9
3099.09087	4787.7
3101.4597	4790.5
3103.82709	4800.7
3106.19305	4785.4
3108.55757	4794.9
3110.92066	4781.6
3113.28232	4774.4
3115.64255	4761.1
3118.00134	4765.1
3120.35871	4761.1
3122.71466	4759
3125.06917	4775.5
3127.42226	4735.2
3129.77393	4766.9
3132.12417	4746.4
3134.47299	4768.8
3136.82039	4765.5
3139.16636	4772.1
3141.51092	4777.2
3143.85406	4772.1
3146.19579	4785.4
3148.53609	4782.8
3150.87499	4800.8
3153.21246	4797
3155.54853	4808.7
3157.88318	4803.2
3160.21642	4818.4
3162.54826	4833.3
3164.87868	4831
3167.2077	4823.4
3169.5353	4838.4
3171.86151	4820.4
3174.18631	4826.3
3176.5097	4840.4
3178.83169	4835.4
3181.15228	4828.5
3183.47147	4826.9
3185.78926	4832.7
3188.10565	4805.2
3190.42065	4824.2
3192.73424	4825
3195.04645	4818.9
3197.35725	4822.9
3199.66667	4837.4
3201.97469	4828.8
3204.28132	4835.6
3206.58656	4838.8
3208.8904	4843.5
3211.19287	4832.8
3213.49394	4863.2
3215.79363	4871.9
3218.09193	4865.1
3220.38884	4866.8
3222.68438	4854.2
3224.97853	4848.2
3227.2713	4856.5
3229.56269	4849.5
3231.8527	4860.4
3234.14133	4853.9
3236.42858	4841.3
3238.71446	4835.4
3240.99896	4821.3
3243.28209	4811.4
3245.56384	4822.8
3247.84423	4828.6
3250.12324	4805.3
3252.40088	4823.3
3254.67715	4805.2
3256.95205	4807.6
3259.22558	4806.7
3261.49775	4804.6
3263.76855	4802.1
3266.03799	4789.7
3268.30606	4788.8
3270.57277	4776.1
3272.83812	4765.7
3275.10211	4746.3
3277.36474	4743.2
3279.62601	4749.9
3281.88593	4745.8
3284.14448	4739.5
3286.40168	4742.4
3288.65753	4745.4
3290.91202	4734.7
3293.16516	4733.8
3295.41695	4715
3297.66738	4691.4
3299.91647	4686.3
3302.16421	4640.5
3304.4106	4612.9
3306.65564	4611.5
3308.89933	4583.4
3311.14169	4561.3
3313.38269	4509.2
3315.62236	4488.1
3317.86068	4452
3320.09766	4418.4
3322.3333	4397.6
3324.5676	4375.9
3326.80056	4304.9
3329.03219	4275.4
3331.26248	2.1
3333.49143	-0.4
3335.71905	-0.4
