Data from AgNPs_FTO_APTES_UA_1uM_CRN_500uM_R6G_10uM_NaF_0.1M_Addition_RamanShift__37__18-27-49-907.txt Node

Date: Thu Jan 27 18:27:49 GMT 2022
User: TCL
Spectrometer: QEP01345
Trigger mode: 4
Integration Time (sec): 7.000000E0
Scans to average: 10
Electric dark correction enabled: true
Nonlinearity correction enabled: false
Boxcar width: 0
XAxis mode: Raman Shifts
Number of Pixels in Spectrum: 1044
>>>>>Begin Spectral Data<<<<<
46.04893	-0.0625
50.45542	0.8375
54.85868	-0.2625
59.25871	-2.0625
63.6555	46.5375
68.04907	48.2375
72.43941	49.9375
76.82654	58.6375
81.21044	56.3375
85.59113	57.4375
89.96862	62.0375
94.34289	63.6375
98.71396	71.4375
103.08183	65.1375
107.4465	69.9375
111.80798	71.6375
116.16626	71.0375
120.52136	77.5375
124.87327	77.0375
129.222	76.6375
133.56755	82.3375
137.90993	84.3375
142.24913	91.1375
146.58517	103.8375
150.91804	116.9375
155.24774	136.5375
159.57429	161.2375
163.89768	204.5375
168.21792	266.7375
172.53501	363.4375
176.84895	493.6375
181.15975	692.4375
185.46741	972.9375
189.77193	1333.7375
194.07331	1775.5375
198.37157	2293.9375
202.6667	2839.4375
206.9587	3389.3375
211.24758	3906.1375
215.53334	4432.7375
219.81599	4995.9375
224.09553	5611.3375
228.37195	6279.5375
232.64527	7019.0375
236.91549	7758.4375
241.18261	8570.2375
245.44663	9314.7375
249.70755	9985.1375
253.96539	10590.2375
258.22014	11115.3375
262.4718	11499.2375
266.72039	11770.0375
270.96589	11886.9375
275.20832	11913.3375
279.44768	11804.3375
283.68397	11651.2375
287.91719	11503.3375
292.14735	11415.8375
296.37445	11321.6375
300.59849	11315.5375
304.81948	11337.1375
309.03742	11333.2375
313.25231	11269.3375
317.46415	11127.5375
321.67296	10980.2375
325.87872	10878.4375
330.08145	10821.1375
334.28114	10821.6375
338.47781	10914.1375
342.67145	11011.5375
346.86207	11142.9375
351.04966	11313.5375
355.23424	11482.7375
359.4158	11609.8375
363.59435	11766.6375
367.76989	11865.0375
371.94243	11957.7375
376.11196	12029.6375
380.27849	12102.0375
384.44203	12168.6375
388.60257	12264.9375
392.76012	12318.7375
396.91468	12449.8375
401.06626	12599.9375
405.21485	12728.9375
409.36047	12736.8375
413.50311	12649.2375
417.64277	12643.5375
421.77947	12693.3375
425.9132	12729.5375
430.04396	12825.4375
434.17176	12935.0375
438.2966	13039.7375
442.41849	13267.6375
446.53742	13653.4375
450.6534	14091.1375
454.76644	14287.7375
458.87653	14308.7375
462.98368	14127.0375
467.08789	13851.7375
471.18916	13535.1375
475.2875	13319.7375
479.38291	13110.7375
483.4754	13006.8375
487.56496	12872.5375
491.6516	12768.4375
495.73531	12684.7375
499.81612	12622.1375
503.89401	12700.3375
507.96899	12713.9375
512.04106	12684.5375
516.11023	12613.0375
520.1765	12536.7375
524.23987	12470.9375
528.30034	12439.4375
532.35792	12348.8375
536.41261	12257.1375
540.46441	12118.0375
544.51333	12075.3375
548.55936	12137.3375
552.60252	12373.2375
556.64279	12652.9375
560.6802	12903.6375
564.71473	12988.3375
568.7464	13085.7375
572.7752	13272.3375
576.80114	13549.0375
580.82422	13887.8375
584.84444	14446.4375
588.86181	15328.9375
592.87633	16147.1375
596.888	16265.0375
600.89682	15526.9375
604.9028	14990.6375
608.90594	15344.2375
612.90624	16039.5375
616.90371	15328.4375
620.89834	13414.0375
624.89015	12527.8375
628.87913	12371.6375
632.86528	12430.0375
636.84862	12396.5375
640.82913	12247.0375
644.80683	12040.2375
648.78172	11939.7375
652.75379	11987.2375
656.72306	12049.3375
660.68952	12183.0375
664.65319	12080.1375
668.61405	11904.8375
672.57211	11903.3375
676.52738	11995.2375
680.47986	12032.9375
684.42955	11965.9375
688.37646	11907.4375
692.32058	11904.2375
696.26192	12033.4375
700.20048	12159.1375
704.13626	12222.7375
708.06928	12200.7375
711.99952	12176.3375
715.927	12185.7375
719.85171	12228.9375
723.77365	12244.4375
727.69284	12096.9375
731.60928	11985.0375
735.52295	11970.6375
739.43388	11988.0375
743.34206	12019.1375
747.24749	12061.5375
751.15017	12145.6375
755.05012	12260.5375
758.94733	12499.3375
762.8418	12899.3375
766.73354	13570.8375
770.62254	14228.7375
774.50882	14464.1375
778.39237	14063.2375
782.27321	13247.7375
786.15132	12587.4375
790.02671	12144.9375
793.89938	11986.7375
797.76935	11904.8375
801.6366	11881.2375
805.50115	11872.1375
809.36299	11831.6375
813.22213	11754.6375
817.07857	11707.5375
820.93231	11663.5375
824.78336	11598.1375
828.63172	11545.3375
832.47738	11530.0375
836.32036	11573.8375
840.16066	11613.5375
843.99827	11650.8375
847.8332	11615.9375
851.66546	11576.1375
855.49504	11581.8375
859.32195	11587.3375
863.1462	11573.9375
866.96777	11561.1375
870.78668	11523.1375
874.60293	11531.2375
878.41652	11530.3375
882.22745	11553.2375
886.03573	11604.3375
889.84136	11647.3375
893.64433	11591.4375
897.44466	11536.3375
901.24235	11478.7375
905.0374	11433.5375
908.8298	11392.3375
912.61957	11384.5375
916.40671	11459.5375
920.19121	11579.5375
923.97308	11693.9375
927.75233	11745.0375
931.52895	11714.2375
935.30295	11543.8375
939.07433	11327.3375
942.84309	11225.6375
946.60924	11151.3375
950.37278	11105.9375
954.13371	11083.5375
957.89203	11036.6375
961.64774	11028.5375
965.40086	11008.8375
969.15137	10966.9375
972.89929	10930.1375
976.64461	10881.0375
980.38733	10869.6375
984.12747	10890.1375
987.86502	10948.8375
991.59999	11029.4375
995.33237	11128.1375
999.06217	11324.1375
1002.78939	11539.3375
1006.51404	11713.2375
1010.23611	11826.5375
1013.95561	11926.1375
1017.67255	11983.8375
1021.38692	11884.2375
1025.09872	11725.6375
1028.80796	11590.7375
1032.51465	11665.2375
1036.21877	11804.6375
1039.92035	11892.3375
1043.61937	11850.9375
1047.31584	11751.3375
1051.00976	11659.9375
1054.70114	11633.1375
1058.38998	11611.0375
1062.07627	11648.3375
1065.76003	11741.0375
1069.44126	11835.6375
1073.11995	11976.7375
1076.79611	12084.0375
1080.46974	12132.9375
1084.14085	12147.7375
1087.80943	12189.6375
1091.47549	12219.8375
1095.13903	12244.4375
1098.80005	12093.8375
1102.45857	11904.6375
1106.11456	11777.9375
1109.76805	11699.5375
1113.41903	11759.4375
1117.06751	11814.0375
1120.71348	11944.7375
1124.35696	12075.4375
1127.99793	12240.9375
1131.63641	12327.5375
1135.2724	12259.4375
1138.90589	12126.3375
1142.5369	12088.3375
1146.16542	12158.1375
1149.79145	12203.7375
1153.415	12275.5375
1157.03607	12429.6375
1160.65467	12762.1375
1164.27079	13270.4375
1167.88443	13885.0375
1171.49561	14527.5375
1175.10432	15344.3375
1178.71056	16389.4375
1182.31434	17362.9375
1185.91565	17722.7375
1189.51451	17352.0375
1193.11091	16724.5375
1196.70485	16199.4375
1200.29634	15692.7375
1203.88538	15353.0375
1207.47197	15120.5375
1211.05612	14909.5375
1214.63782	14628.5375
1218.21708	14433.9375
1221.79391	14264.3375
1225.36829	14187.0375
1228.94024	14074.6375
1232.50976	13829.3375
1236.07685	13555.3375
1239.6415	13396.5375
1243.20374	13337.5375
1246.76355	13393.2375
1250.32093	13567.3375
1253.8759	13782.1375
1257.42845	14059.4375
1260.97859	14347.7375
1264.52631	14615.0375
1268.07163	14962.3375
1271.61453	15251.1375
1275.15503	15600.5375
1278.69312	16009.2375
1282.22882	16442.1375
1285.76211	17030.8375
1289.29301	17717.2375
1292.82151	18600.2375
1296.34761	19602.5375
1299.87133	20781.7375
1303.39266	22024.3375
1306.9116	23152.1375
1310.42815	24102.2375
1313.94233	24622.7375
1317.45412	24440.8375
1320.96354	23722.1375
1324.47058	22858.4375
1327.97525	22150.0375
1331.47754	21620.5375
1334.97747	21306.2375
1338.47502	20983.7375
1341.97022	20549.0375
1345.46305	20140.5375
1348.95352	20012.3375
1352.44163	20504.0375
1355.92738	21614.6375
1359.41078	23065.8375
1362.89183	24141.2375
1366.37053	24136.0375
1369.84688	22414.0375
1373.32088	19765.0375
1376.79254	17779.3375
1380.26186	17081.8375
1383.72883	17041.7375
1387.19347	16990.3375
1390.65578	16680.8375
1394.11575	16563.0375
1397.57339	16850.5375
1401.0287	17314.1375
1404.48168	17763.8375
1407.93234	17870.6375
1411.38068	17605.7375
1414.82669	17128.6375
1418.27039	16520.4375
1421.71177	15897.8375
1425.15083	15334.9375
1428.58758	15025.4375
1432.02203	15153.8375
1435.45416	15577.9375
1438.88399	16061.2375
1442.31151	16403.2375
1445.73673	16534.6375
1449.15965	16624.1375
1452.58027	16534.5375
1455.9986	16311.6375
1459.41463	16101.5375
1462.82837	16196.9375
1466.23982	16552.5375
1469.64898	16941.7375
1473.05586	17238.2375
1476.46045	17488.5375
1479.86276	17530.1375
1483.26279	17471.1375
1486.66054	17399.3375
1490.05602	17358.0375
1493.44922	17384.0375
1496.84016	17354.7375
1500.22882	17366.2375
1503.61521	17542.7375
1506.99934	17869.1375
1510.38121	18187.3375
1513.76081	18289.9375
1517.13816	17956.7375
1520.51324	17444.5375
1523.88607	17080.7375
1527.25665	16972.8375
1530.62498	16986.1375
1533.99105	16948.0375
1537.35488	16815.9375
1540.71647	16502.1375
1544.07581	16167.7375
1547.4329	15791.5375
1550.78776	15422.3375
1554.14038	15101.4375
1557.49077	14871.9375
1560.83892	14735.4375
1564.18484	14660.2375
1567.52853	14683.7375
1570.86999	14853.3375
1574.20922	15130.2375
1577.54624	15380.6375
1580.88103	15497.0375
1584.2136	15573.9375
1587.54395	16026.2375
1590.87208	16911.7375
1594.19801	18096.1375
1597.52172	19309.3375
1600.84321	19884.8375
1604.16251	19284.6375
1607.47959	17695.2375
1610.79447	15936.4375
1614.10715	14389.7375
1617.41763	13352.3375
1620.7259	12687.2375
1624.03199	12398.2375
1627.33587	12417.3375
1630.63757	12781.3375
1633.93707	13460.0375
1637.23439	14640.5375
1640.52951	16527.5375
1643.82246	18982.3375
1647.11321	21032.4375
1650.40179	21394.5375
1653.68819	19651.7375
1656.97241	16855.9375
1660.25446	14351.3375
1663.53433	12653.5375
1666.81203	11656.8375
1670.08756	11048.4375
1673.36092	10690.8375
1676.63211	10471.7375
1679.90115	10286.8375
1683.16801	10157.1375
1686.43272	10034.1375
1689.69527	9954.2375
1692.95567	9885.9375
1696.2139	9818.0375
1699.46999	9745.2375
1702.72392	9687.9375
1705.97571	9716.1375
1709.22535	9706.5375
1712.47284	9719.8375
1715.71819	9730.3375
1718.96139	9724.7375
1722.20246	9696.3375
1725.44139	9673.2375
1728.67818	9632.7375
1731.91284	9545.7375
1735.14537	9530.0375
1738.37576	9465.4375
1741.60403	9454.3375
1744.83017	9413.1375
1748.05418	9371.7375
1751.27607	9370.5375
1754.49584	9366.8375
1757.71349	9358.9375
1760.92903	9324.6375
1764.14244	9285.8375
1767.35375	9289.8375
1770.56294	9255.6375
1773.77002	9272.4375
1776.97499	9248.2375
1780.17785	9254.4375
1783.37861	9238.7375
1786.57727	9241.0375
1789.77382	9212.4375
1792.96828	9206.4375
1796.16064	9169.9375
1799.3509	9149.6375
1802.53907	9141.6375
1805.72514	9113.7375
1808.90913	9117.2375
1812.09102	9090.0375
1815.27083	9060.9375
1818.44856	9051.5375
1821.6242	9045.9375
1824.79776	9004.5375
1827.96924	9002.1375
1831.13864	8973.4375
1834.30597	8997.0375
1837.47122	8975.8375
1840.6344	8977.0375
1843.7955	8957.6375
1846.95454	8956.0375
1850.11151	8954.8375
1853.26642	8932.9375
1856.41926	8967.1375
1859.57004	8936.3375
1862.71876	8943.5375
1865.86542	8929.5375
1869.01003	8924.5375
1872.15258	8946.1375
1875.29308	8913.1375
1878.43152	8901.0375
1881.56792	8888.9375
1884.70227	8884.5375
1887.83457	8852.2375
1890.96482	8859.6375
1894.09304	8836.5375
1897.21921	8855.3375
1900.34335	8826.3375
1903.46544	8832.1375
1906.58551	8812.2375
1909.70353	8809.2375
1912.81953	8794.0375
1915.93349	8784.2375
1919.04543	8763.7375
1922.15534	8755.4375
1925.26322	8740.2375
1928.36908	8732.0375
1931.47292	8711.6375
1934.57473	8681.1375
1937.67453	8644.6375
1940.77232	8651.4375
1943.86808	8591.0375
1946.96184	8600.6375
1950.05358	8569.3375
1953.14331	8530.7375
1956.23103	8512.0375
1959.31675	8492.4375
1962.40046	8482.1375
1965.48217	8460.6375
1968.56188	8424.6375
1971.63959	8392.2375
1974.7153	8377.7375
1977.78901	8333.8375
1980.86073	8320.2375
1983.93046	8300.5375
1986.99819	8271.1375
1990.06394	8238.2375
1993.1277	8219.1375
1996.18947	8187.9375
1999.24925	8174.5375
2002.30706	8151.6375
2005.36288	8157.2375
2008.41672	8123.2375
2011.46859	8101.8375
2014.51848	8062.0375
2017.56639	8068.5375
2020.61233	8032.4375
2023.6563	8012.7375
2026.6983	8011.6375
2029.73833	8014.8375
2032.7764	7989.2375
2035.8125	7942.7375
2038.84664	7941.4375
2041.87881	7919.1375
2044.90903	7895.3375
2047.93729	7886.9375
2050.96359	7871.5375
2053.98794	7857.7375
2057.01034	7872.9375
2060.03078	7879.9375
2063.04927	7858.0375
2066.06582	7872.2375
2069.08042	7826.4375
2072.09307	7858.0375
2075.10378	7844.0375
2078.11255	7823.1375
2081.11938	7813.6375
2084.12426	7800.4375
2087.12722	7809.6375
2090.12824	7802.4375
2093.12732	7822.3375
2096.12447	7813.6375
2099.11969	7812.2375
2102.11299	7814.6375
2105.10435	7803.4375
2108.09379	7822.6375
2111.08131	7811.4375
2114.0669	7812.5375
2117.05057	7833.1375
2120.03233	7821.8375
2123.01216	7826.6375
2125.99008	7850.8375
2128.96609	7845.9375
2131.94018	7870.7375
2134.91236	7851.0375
2137.88263	7862.1375
2140.851	7870.6375
2143.81746	7844.7375
2146.78201	7837.2375
2149.74466	7851.6375
2152.7054	7870.9375
2155.66425	7853.7375
2158.6212	7857.7375
2161.57625	7824.3375
2164.52941	7829.5375
2167.48067	7865.8375
2170.43004	7833.7375
2173.37752	7847.3375
2176.32311	7853.6375
2179.26681	7854.2375
2182.20863	7839.8375
2185.14856	7840.9375
2188.08661	7825.0375
2191.02278	7844.4375
2193.95707	7820.7375
2196.88948	7833.9375
2199.82001	7806.1375
2202.74867	7805.8375
2205.67545	7806.6375
2208.60037	7801.2375
2211.52341	7772.0375
2214.44458	7764.6375
2217.36388	7737.6375
2220.28132	7731.5375
2223.1969	7712.9375
2226.11061	7728.0375
2229.02246	7722.2375
2231.93245	7670.4375
2234.84058	7679.8375
2237.74686	7658.9375
2240.65128	7668.3375
2243.55385	7652.1375
2246.45456	7631.8375
2249.35343	7624.6375
2252.25044	7596.3375
2255.14561	7591.8375
2258.03893	7590.9375
2260.93041	7542.9375
2263.82004	7550.7375
2266.70783	7526.9375
2269.59378	7497.8375
2272.4779	7485.8375
2275.36017	7470.9375
2278.24061	7469.9375
2281.11922	7467.2375
2283.996	7447.7375
2286.87094	7439.7375
2289.74405	7426.9375
2292.61534	7404.1375
2295.4848	7405.2375
2298.35243	7414.1375
2301.21824	7404.9375
2304.08223	7409.0375
2306.94439	7402.8375
2309.80474	7396.1375
2312.66327	7403.2375
2315.51999	7380.7375
2318.37489	7382.3375
2321.22797	7366.2375
2324.07925	7353.1375
2326.92871	7345.7375
2329.77637	7336.8375
2332.62222	7330.3375
2335.46626	7311.1375
2338.3085	7302.8375
2341.14893	7325.4375
2343.98756	7304.5375
2346.8244	7296.7375
2349.65943	7279.0375
2352.49267	7276.9375
2355.32411	7268.4375
2358.15376	7273.2375
2360.98161	7266.1375
2363.80768	7276.6375
2366.63195	7254.4375
2369.45444	7269.9375
2372.27514	7240.0375
2375.09405	7250.3375
2377.91118	7233.9375
2380.72652	7223.1375
2383.54009	7187.3375
2386.35187	7184.1375
2389.16188	7158.5375
2391.97011	7143.9375
2394.77657	7146.0375
2397.58125	7136.1375
2400.38416	7121.0375
2403.18529	7089.7375
2405.98466	7111.5375
2408.78226	7097.7375
2411.57809	7077.5375
2414.37216	7073.2375
2417.16446	7062.9375
2419.955	7037.8375
2422.74378	7061.6375
2425.5308	7075.8375
2428.31606	7050.8375
2431.09956	7042.0375
2433.88131	7041.0375
2436.6613	7079.9375
2439.43954	7027.4375
2442.21603	7024.3375
2444.99077	7011.0375
2447.76377	7011.7375
2450.53501	7005.4375
2453.30451	7009.2375
2456.07226	7002.8375
2458.83827	6993.3375
2461.60254	7013.9375
2464.36507	6999.7375
2467.12586	6994.2375
2469.88492	6992.6375
2472.64224	6999.2375
2475.39782	6995.6375
2478.15167	6976.6375
2480.90379	6972.7375
2483.65417	6988.7375
2486.40283	6962.6375
2489.14976	6976.3375
2491.89497	6949.2375
2494.63845	6947.0375
2497.3802	6948.9375
2500.12024	6945.8375
2502.85855	6958.7375
2505.59514	6981.8375
2508.33002	6944.1375
2511.06318	6954.4375
2513.79462	6921.8375
2516.52435	6921.5375
2519.25237	6916.7375
2521.97867	6911.6375
2524.70327	6914.7375
2527.42616	6908.6375
2530.14734	6901.9375
2532.86681	6878.6375
2535.58458	6882.6375
2538.30065	6870.9375
2541.01501	6866.1375
2543.72768	6875.0375
2546.43864	6851.1375
2549.14791	6825.5375
2551.85548	6847.4375
2554.56136	6830.1375
2557.26554	6819.5375
2559.96803	6798.4375
2562.66883	6802.4375
2565.36794	6815.5375
2568.06536	6807.9375
2570.7611	6786.6375
2573.45514	6775.9375
2576.14751	6762.4375
2578.83819	6745.9375
2581.52719	6777.6375
2584.21451	6747.3375
2586.90015	6741.2375
2589.58411	6755.1375
2592.2664	6754.8375
2594.94701	6714.7375
2597.62594	6722.3375
2600.30321	6708.9375
2602.9788	6706.7375
2605.65273	6676.0375
2608.32498	6694.7375
2610.99557	6677.5375
2613.66449	6669.1375
2616.33175	6669.4375
2618.99734	6685.3375
2621.66128	6661.6375
2624.32355	6669.9375
2626.98416	6645.2375
2629.64311	6656.5375
2632.30041	6660.3375
2634.95605	6624.8375
2637.61004	6621.2375
2640.26238	6627.1375
2642.91306	6627.9375
2645.56209	6623.1375
2648.20948	6610.2375
2650.85521	6604.6375
2653.4993	6616.8375
2656.14175	6623.6375
2658.78255	6629.0375
2661.42171	6634.9375
2664.05923	6640.8375
2666.6951	6652.0375
2669.32934	6631.9375
2671.96194	6620.2375
2674.59291	6635.1375
2677.22224	6636.2375
2679.84993	6623.5375
2682.476	6606.2375
2685.10043	6626.2375
2687.72324	6619.1375
2690.34441	6621.2375
2692.96396	6599.6375
2695.58188	6610.3375
2698.19818	6625.7375
2700.81285	6640.4375
2703.4259	6637.6375
2706.03733	6619.9375
2708.64714	6595.4375
2711.25533	6624.9375
2713.86191	6625.3375
2716.46687	6644.4375
2719.07021	6638.4375
2721.67194	6650.9375
2724.27206	6634.1375
2726.87057	6664.6375
2729.46747	6649.7375
2732.06276	6643.8375
2734.65644	6661.3375
2737.24852	6660.8375
2739.83899	6659.5375
2742.42786	6660.8375
2745.01513	6631.3375
2747.60079	6622.8375
2750.18486	6623.0375
2752.76733	6616.1375
2755.3482	6627.5375
2757.92747	6617.0375
2760.50515	6603.0375
2763.08123	6620.9375
2765.65573	6612.0375
2768.22863	6625.0375
2770.79994	6606.4375
2773.36967	6603.1375
2775.9378	6604.1375
2778.50435	6587.9375
2781.06932	6593.9375
2783.6327	6604.8375
2786.1945	6598.4375
2788.75471	6579.9375
2791.31335	6539.7375
2793.87041	6550.6375
2796.42589	6541.8375
2798.97979	6569.6375
2801.53212	6548.0375
2804.08288	6540.9375
2806.63206	6510.9375
2809.17967	6518.5375
2811.72571	6504.4375
2814.27018	6474.1375
2816.81308	6491.4375
2819.35442	6467.4375
2821.89419	6442.5375
2824.43239	6467.8375
2826.96904	6436.3375
2829.50412	6461.1375
2832.03763	6433.0375
2834.56959	6445.8375
2837.1	6439.4375
2839.62884	6471.9375
2842.15613	6478.1375
2844.68186	6543.9375
2847.20604	6558.7375
2849.72867	6545.0375
2852.24974	6569.1375
2854.76927	6549.9375
2857.28724	6552.2375
2859.80367	6552.6375
2862.31855	6544.0375
2864.83189	6532.6375
2867.34368	6511.1375
2869.85393	6489.4375
2872.36264	6500.4375
2874.8698	6499.5375
2877.37543	6499.7375
2879.87952	6486.5375
2882.38207	6486.7375
2884.88308	6500.0375
2887.38256	6506.3375
2889.88051	6490.4375
2892.37692	6496.8375
2894.8718	6509.3375
2897.36515	6509.3375
2899.85698	6531.4375
2902.34727	6552.9375
2904.83604	6559.3375
2907.32328	6544.3375
2909.809	6548.2375
2912.29319	6553.1375
2914.77587	6575.3375
2917.25702	6540.4375
2919.73665	6543.9375
2922.21476	6534.7375
2924.69136	6539.5375
2927.16644	6542.3375
2929.64	6550.2375
2932.11205	6546.8375
2934.58258	6522.6375
2937.05161	6533.4375
2939.51912	6555.2375
2941.98513	6510.2375
2944.44962	6485.0375
2946.91261	6450.0375
2949.37409	6445.8375
2951.83407	6442.9375
2954.29254	6416.7375
2956.74951	6414.9375
2959.20498	6416.2375
2961.65895	6389.9375
2964.11142	6402.7375
2966.56239	6382.1375
2969.01186	6365.9375
2971.45984	6331.5375
2973.90632	6338.1375
2976.35131	6318.7375
2978.7948	6336.0375
2981.23681	6307.6375
2983.67732	6279.7375
2986.11635	6275.9375
2988.55388	6258.4375
2990.98993	6235.9375
2993.4245	6223.6375
2995.85758	6216.0375
2998.28917	6189.0375
3000.71928	6181.7375
3003.14791	6190.9375
3005.57506	6156.9375
3008.00073	6165.0375
3010.42493	6148.2375
3012.84764	6155.7375
3015.26888	6146.1375
3017.68865	6133.6375
3020.10694	6120.4375
3022.52376	6103.6375
3024.9391	6105.6375
3027.35298	6099.0375
3029.76539	6097.8375
3032.17632	6082.7375
3034.5858	6090.8375
3036.9938	6071.6375
3039.40034	6076.2375
3041.80542	6070.5375
3044.20903	6058.7375
3046.61118	6063.7375
3049.01187	6063.4375
3051.4111	6077.7375
3053.80888	6039.6375
3056.20519	6039.1375
3058.60005	6033.0375
3060.99345	5999.5375
3063.3854	5996.3375
3065.7759	5992.4375
3068.16494	6001.5375
3070.55254	5969.3375
3072.93868	5961.3375
3075.32338	5939.3375
3077.70662	5934.7375
3080.08842	5897.0375
3082.46878	5924.3375
3084.84769	5914.6375
3087.22515	5908.8375
3089.60118	5915.2375
3091.97576	5923.1375
3094.3489	5935.7375
3096.72061	5911.4375
3099.09087	5929.4375
3101.4597	5932.4375
3103.82709	5923.3375
3106.19305	5928.2375
3108.55757	5929.6375
3110.92066	5898.2375
3113.28232	5889.3375
3115.64255	5894.8375
3118.00134	5878.3375
3120.35871	5882.3375
3122.71466	5877.6375
3125.06917	5865.3375
3127.42226	5856.4375
3129.77393	5873.4375
3132.12417	5869.8375
3134.47299	5874.0375
3136.82039	5868.3375
3139.16636	5864.3375
3141.51092	5877.0375
3143.85406	5874.2375
3146.19579	5888.2375
3148.53609	5877.1375
3150.87499	5897.0375
3153.21246	5892.0375
3155.54853	5881.4375
3157.88318	5895.2375
3160.21642	5922.0375
3162.54826	5912.3375
3164.87868	5912.5375
3167.2077	5930.7375
3169.5353	5919.0375
3171.86151	5917.9375
3174.18631	5926.5375
3176.5097	5921.7375
3178.83169	5929.4375
3181.15228	5915.0375
3183.47147	5909.3375
3185.78926	5921.0375
3188.10565	5908.4375
3190.42065	5900.0375
3192.73424	5904.0375
3195.04645	5896.9375
3197.35725	5917.6375
3199.66667	5891.5375
3201.97469	5911.6375
3204.28132	5902.6375
3206.58656	5908.4375
3208.8904	5901.9375
3211.19287	5904.7375
3213.49394	5918.1375
3215.79363	5928.2375
3218.09193	5912.5375
3220.38884	5938.6375
3222.68438	5933.7375
3224.97853	5929.2375
3227.2713	5936.6375
3229.56269	5928.9375
3231.8527	5929.7375
3234.14133	5917.6375
3236.42858	5911.5375
3238.71446	5900.3375
3240.99896	5899.1375
3243.28209	5895.1375
3245.56384	5878.7375
3247.84423	5867.6375
3250.12324	5882.9375
3252.40088	5882.7375
3254.67715	5887.1375
3256.95205	5880.6375
3259.22558	5869.5375
3261.49775	5869.1375
3263.76855	5839.4375
3266.03799	5809.5375
3268.30606	5814.6375
3270.57277	5807.1375
3272.83812	5805.1375
3275.10211	5799.5375
3277.36474	5777.8375
3279.62601	5777.2375
3281.88593	5782.9375
3284.14448	5772.8375
3286.40168	5770.4375
3288.65753	5771.1375
3290.91202	5783.6375
3293.16516	5765.0375
3295.41695	5767.0375
3297.66738	5718.1375
3299.91647	5700.7375
3302.16421	5665.7375
3304.4106	5635.3375
3306.65564	5601.5375
3308.89933	5584.1375
3311.14169	5549.9375
3313.38269	5496.0375
3315.62236	5457.1375
3317.86068	5430.2375
3320.09766	5387.1375
3322.3333	5355.0375
3324.5676	5316.2375
3326.80056	5234.1375
3329.03219	5222.5375
3331.26248	2.9375
3333.49143	0.0375
3335.71905	-0.5625
