Data from AgNPs_FTO_APTES_UA_1uM_CRN_100uM_R6G_10uM_NaF_0.1M_Addition_RamanShift__19__16-42-49-788.txt Node

Date: Thu Jan 27 16:42:49 GMT 2022
User: TCL
Spectrometer: QEP01345
Trigger mode: 4
Integration Time (sec): 7.000000E0
Scans to average: 10
Electric dark correction enabled: true
Nonlinearity correction enabled: false
Boxcar width: 0
XAxis mode: Raman Shifts
Number of Pixels in Spectrum: 1044
>>>>>Begin Spectral Data<<<<<
46.04893	0.3375
50.45542	0.4375
54.85868	-0.2625
59.25871	-2.1625
63.6555	40.8375
68.04907	45.2375
72.43941	46.7375
76.82654	49.6375
81.21044	48.5375
85.59113	49.2375
89.96862	54.7375
94.34289	55.2375
98.71396	58.7375
103.08183	59.8375
107.4465	59.6375
111.80798	63.8375
116.16626	60.7375
120.52136	67.5375
124.87327	69.6375
129.222	68.3375
133.56755	71.4375
137.90993	78.2375
142.24913	79.6375
146.58517	87.6375
150.91804	101.7375
155.24774	116.7375
159.57429	138.2375
163.89768	175.3375
168.21792	232.5375
172.53501	307.7375
176.84895	419.5375
181.15975	585.1375
185.46741	818.8375
189.77193	1125.5375
194.07331	1497.4375
198.37157	1932.6375
202.6667	2400.7375
206.9587	2833.9375
211.24758	3278.9375
215.53334	3722.2375
219.81599	4200.5375
224.09553	4704.0375
228.37195	5264.2375
232.64527	5854.6375
236.91549	6513.4375
241.18261	7166.5375
245.44663	7786.0375
249.70755	8381.1375
253.96539	8872.5375
258.22014	9297.4375
262.4718	9655.8375
266.72039	9886.6375
270.96589	10045.6375
275.20832	10051.7375
279.44768	10071.8375
283.68397	9995.5375
287.91719	9912.2375
292.14735	9915.9375
296.37445	9920.3375
300.59849	9967.4375
304.81948	9990.5375
309.03742	9912.4375
313.25231	9765.0375
317.46415	9533.1375
321.67296	9285.9375
325.87872	9044.1375
330.08145	8947.0375
334.28114	8927.4375
338.47781	8970.2375
342.67145	9056.9375
346.86207	9170.8375
351.04966	9332.9375
355.23424	9473.5375
359.4158	9614.0375
363.59435	9718.5375
367.76989	9791.8375
371.94243	9848.0375
376.11196	9927.9375
380.27849	9982.9375
384.44203	10046.6375
388.60257	10108.6375
392.76012	10226.9375
396.91468	10367.4375
401.06626	10495.7375
405.21485	10585.8375
409.36047	10550.0375
413.50311	10454.8375
417.64277	10337.6375
421.77947	10344.4375
425.9132	10373.3375
430.04396	10440.4375
434.17176	10478.3375
438.2966	10578.2375
442.41849	10752.1375
446.53742	10989.3375
450.6534	11242.7375
454.76644	11510.9375
458.87653	11608.3375
462.98368	11620.7375
467.08789	11560.7375
471.18916	11476.0375
475.2875	11422.6375
479.38291	11415.4375
483.4754	11381.5375
487.56496	11238.8375
491.6516	10987.7375
495.73531	10798.8375
499.81612	10703.7375
503.89401	10744.5375
507.96899	10782.1375
512.04106	10756.5375
516.11023	10694.9375
520.1765	10600.6375
524.23987	10480.4375
528.30034	10362.1375
532.35792	10285.5375
536.41261	10221.5375
540.46441	10129.9375
544.51333	10151.2375
548.55936	10302.3375
552.60252	10515.3375
556.64279	10747.3375
560.6802	10883.9375
564.71473	10971.3375
568.7464	11145.2375
572.7752	11328.6375
576.80114	11574.7375
580.82422	11756.3375
584.84444	11913.2375
588.86181	12036.0375
592.87633	12159.8375
596.888	12185.0375
600.89682	12199.9375
604.9028	12441.2375
608.90594	13075.0375
612.90624	13697.9375
616.90371	12938.3375
620.89834	11282.8375
624.89015	10597.6375
628.87913	10595.8375
632.86528	10685.2375
636.84862	10638.3375
640.82913	10506.9375
644.80683	10261.3375
648.78172	10053.7375
652.75379	10015.8375
656.72306	10054.0375
660.68952	10165.6375
664.65319	10116.2375
668.61405	10001.3375
672.57211	9966.4375
676.52738	9993.1375
680.47986	10009.6375
684.42955	9986.0375
688.37646	9979.4375
692.32058	9949.0375
696.26192	10026.6375
700.20048	10084.1375
704.13626	10155.1375
708.06928	10114.2375
711.99952	10091.5375
715.927	10066.3375
719.85171	10096.9375
723.77365	10056.8375
727.69284	9993.9375
731.60928	9914.0375
735.52295	9890.9375
739.43388	9874.1375
743.34206	9882.1375
747.24749	9923.1375
751.15017	10006.7375
755.05012	10151.6375
758.94733	10423.1375
762.8418	10888.0375
766.73354	11554.7375
770.62254	12133.9375
774.50882	12248.0375
778.39237	11739.9375
782.27321	10991.8375
786.15132	10388.3375
790.02671	10060.7375
793.89938	9913.3375
797.76935	9857.5375
801.6366	9852.9375
805.50115	9796.9375
809.36299	9759.8375
813.22213	9698.1375
817.07857	9654.1375
820.93231	9643.7375
824.78336	9607.6375
828.63172	9579.4375
832.47738	9581.3375
836.32036	9578.1375
840.16066	9600.7375
843.99827	9660.8375
847.8332	9635.4375
851.66546	9566.6375
855.49504	9541.9375
859.32195	9550.0375
863.1462	9532.5375
866.96777	9503.7375
870.78668	9480.4375
874.60293	9458.2375
878.41652	9449.9375
882.22745	9472.9375
886.03573	9520.3375
889.84136	9497.8375
893.64433	9452.1375
897.44466	9424.8375
901.24235	9413.0375
905.0374	9358.4375
908.8298	9328.4375
912.61957	9364.0375
916.40671	9489.3375
920.19121	9616.0375
923.97308	9713.8375
927.75233	9707.2375
931.52895	9643.9375
935.30295	9532.1375
939.07433	9374.9375
942.84309	9260.7375
946.60924	9168.8375
950.37278	9138.8375
954.13371	9130.0375
957.89203	9081.3375
961.64774	9074.4375
965.40086	9041.4375
969.15137	9016.2375
972.89929	8973.3375
976.64461	8915.9375
980.38733	8909.1375
984.12747	8919.8375
987.86502	8987.7375
991.59999	9088.1375
995.33237	9218.1375
999.06217	9474.3375
1002.78939	9744.0375
1006.51404	9883.7375
1010.23611	9903.5375
1013.95561	9943.5375
1017.67255	9971.8375
1021.38692	9905.9375
1025.09872	9845.1375
1028.80796	9930.1375
1032.51465	10189.8375
1036.21877	10429.1375
1039.92035	10489.1375
1043.61937	10353.7375
1047.31584	10120.0375
1051.00976	9910.0375
1054.70114	9817.8375
1058.38998	9858.9375
1062.07627	9913.6375
1065.76003	9958.8375
1069.44126	10006.3375
1073.11995	10101.6375
1076.79611	10196.6375
1080.46974	10224.6375
1084.14085	10269.3375
1087.80943	10304.4375
1091.47549	10361.5375
1095.13903	10392.4375
1098.80005	10325.2375
1102.45857	10142.9375
1106.11456	9968.6375
1109.76805	9917.2375
1113.41903	9945.3375
1117.06751	9968.5375
1120.71348	10054.5375
1124.35696	10134.9375
1127.99793	10264.5375
1131.63641	10340.0375
1135.2724	10309.5375
1138.90589	10218.8375
1142.5369	10202.9375
1146.16542	10237.8375
1149.79145	10319.8375
1153.415	10425.6375
1157.03607	10600.9375
1160.65467	10848.0375
1164.27079	11267.6375
1167.88443	11842.7375
1171.49561	12481.9375
1175.10432	13273.2375
1178.71056	14250.1375
1182.31434	15194.9375
1185.91565	15747.6375
1189.51451	15730.1375
1193.11091	15389.6375
1196.70485	14845.8375
1200.29634	14290.8375
1203.88538	13848.0375
1207.47197	13547.9375
1211.05612	13321.0375
1214.63782	13103.0375
1218.21708	12860.0375
1221.79391	12634.7375
1225.36829	12516.6375
1228.94024	12306.9375
1232.50976	12091.9375
1236.07685	11903.6375
1239.6415	11792.2375
1243.20374	11791.1375
1246.76355	11861.8375
1250.32093	12015.4375
1253.8759	12243.7375
1257.42845	12525.0375
1260.97859	12795.2375
1264.52631	13100.1375
1268.07163	13396.5375
1271.61453	13776.2375
1275.15503	14168.8375
1278.69312	14654.9375
1282.22882	15072.6375
1285.76211	15444.6375
1289.29301	15849.0375
1292.82151	16448.4375
1296.34761	17270.7375
1299.87133	18209.7375
1303.39266	19272.9375
1306.9116	20365.9375
1310.42815	21357.8375
1313.94233	21921.1375
1317.45412	21877.0375
1320.96354	21579.2375
1324.47058	21237.7375
1327.97525	20978.1375
1331.47754	20770.6375
1334.97747	20629.1375
1338.47502	20558.7375
1341.97022	20444.2375
1345.46305	20280.8375
1348.95352	19938.1375
1352.44163	19603.2375
1355.92738	19484.8375
1359.41078	19878.9375
1362.89183	20224.4375
1366.37053	19871.0375
1369.84688	18579.3375
1373.32088	16964.2375
1376.79254	15791.3375
1380.26186	15369.2375
1383.72883	15385.5375
1387.19347	15520.8375
1390.65578	15525.4375
1394.11575	15543.4375
1397.57339	15739.4375
1401.0287	16108.8375
1404.48168	16364.5375
1407.93234	16371.5375
1411.38068	16036.3375
1414.82669	15460.1375
1418.27039	14776.4375
1421.71177	14081.3375
1425.15083	13506.4375
1428.58758	13164.4375
1432.02203	13127.7375
1435.45416	13380.9375
1438.88399	13761.2375
1442.31151	14147.8375
1445.73673	14452.0375
1449.15965	14709.7375
1452.58027	14953.8375
1455.9986	15098.2375
1459.41463	15186.6375
1462.82837	15369.5375
1466.23982	15606.7375
1469.64898	15787.2375
1473.05586	15909.7375
1476.46045	15851.4375
1479.86276	15705.7375
1483.26279	15483.9375
1486.66054	15271.2375
1490.05602	15155.7375
1493.44922	15126.6375
1496.84016	15167.1375
1500.22882	15329.9375
1503.61521	15662.9375
1506.99934	16111.2375
1510.38121	16574.2375
1513.76081	16741.3375
1517.13816	16551.0375
1520.51324	16164.2375
1523.88607	15799.6375
1527.25665	15616.0375
1530.62498	15555.1375
1533.99105	15542.3375
1537.35488	15483.8375
1540.71647	15305.1375
1544.07581	15006.9375
1547.4329	14659.6375
1550.78776	14348.6375
1554.14038	14182.7375
1557.49077	14104.1375
1560.83892	14030.0375
1564.18484	14013.0375
1567.52853	14018.3375
1570.86999	14098.8375
1574.20922	14333.1375
1577.54624	14568.7375
1580.88103	14714.4375
1584.2136	14860.1375
1587.54395	15257.5375
1590.87208	15852.3375
1594.19801	16655.9375
1597.52172	17450.6375
1600.84321	17690.1375
1604.16251	16959.7375
1607.47959	15776.2375
1610.79447	14540.1375
1614.10715	13375.8375
1617.41763	12413.0375
1620.7259	11710.8375
1624.03199	11347.7375
1627.33587	11282.2375
1630.63757	11537.9375
1633.93707	12169.5375
1637.23439	13160.7375
1640.52951	14571.7375
1643.82246	16166.9375
1647.11321	17441.3375
1650.40179	17703.3375
1653.68819	16701.9375
1656.97241	14851.2375
1660.25446	12949.0375
1663.53433	11413.4375
1666.81203	10392.8375
1670.08756	9747.4375
1673.36092	9359.4375
1676.63211	9074.8375
1679.90115	8864.9375
1683.16801	8713.7375
1686.43272	8619.5375
1689.69527	8502.6375
1692.95567	8439.5375
1696.2139	8353.0375
1699.46999	8300.6375
1702.72392	8245.0375
1705.97571	8226.3375
1709.22535	8243.6375
1712.47284	8276.3375
1715.71819	8275.6375
1718.96139	8251.8375
1722.20246	8232.9375
1725.44139	8198.8375
1728.67818	8145.4375
1731.91284	8103.0375
1735.14537	8076.6375
1738.37576	8036.9375
1741.60403	8012.5375
1744.83017	7982.8375
1748.05418	7975.4375
1751.27607	7943.8375
1754.49584	7916.8375
1757.71349	7886.8375
1760.92903	7863.8375
1764.14244	7865.8375
1767.35375	7855.3375
1770.56294	7823.4375
1773.77002	7807.6375
1776.97499	7802.5375
1780.17785	7829.5375
1783.37861	7818.2375
1786.57727	7802.9375
1789.77382	7791.4375
1792.96828	7771.2375
1796.16064	7764.0375
1799.3509	7760.4375
1802.53907	7750.3375
1805.72514	7703.1375
1808.90913	7712.4375
1812.09102	7680.5375
1815.27083	7677.2375
1818.44856	7651.8375
1821.6242	7640.5375
1824.79776	7626.8375
1827.96924	7620.0375
1831.13864	7610.1375
1834.30597	7628.5375
1837.47122	7607.6375
1840.6344	7594.2375
1843.7955	7637.9375
1846.95454	7596.2375
1850.11151	7624.4375
1853.26642	7595.5375
1856.41926	7600.3375
1859.57004	7599.1375
1862.71876	7579.7375
1865.86542	7586.8375
1869.01003	7597.4375
1872.15258	7574.5375
1875.29308	7550.8375
1878.43152	7555.3375
1881.56792	7555.0375
1884.70227	7555.3375
1887.83457	7550.9375
1890.96482	7529.0375
1894.09304	7525.6375
1897.21921	7521.4375
1900.34335	7513.4375
1903.46544	7507.2375
1906.58551	7495.5375
1909.70353	7474.0375
1912.81953	7476.2375
1915.93349	7476.0375
1919.04543	7451.3375
1922.15534	7420.6375
1925.26322	7428.8375
1928.36908	7394.6375
1931.47292	7387.5375
1934.57473	7387.8375
1937.67453	7367.2375
1940.77232	7343.1375
1943.86808	7329.3375
1946.96184	7277.3375
1950.05358	7254.0375
1953.14331	7243.2375
1956.23103	7225.3375
1959.31675	7223.5375
1962.40046	7176.8375
1965.48217	7166.9375
1968.56188	7150.2375
1971.63959	7119.3375
1974.7153	7114.0375
1977.78901	7071.9375
1980.86073	7062.0375
1983.93046	7044.5375
1986.99819	7023.4375
1990.06394	7004.7375
1993.1277	6970.1375
1996.18947	6946.3375
1999.24925	6951.5375
2002.30706	6925.3375
2005.36288	6906.3375
2008.41672	6903.2375
2011.46859	6859.3375
2014.51848	6842.5375
2017.56639	6840.6375
2020.61233	6815.4375
2023.6563	6814.4375
2026.6983	6805.4375
2029.73833	6785.2375
2032.7764	6777.3375
2035.8125	6773.3375
2038.84664	6731.9375
2041.87881	6746.4375
2044.90903	6715.6375
2047.93729	6716.3375
2050.96359	6714.0375
2053.98794	6683.1375
2057.01034	6687.5375
2060.03078	6699.8375
2063.04927	6696.5375
2066.06582	6684.6375
2069.08042	6668.0375
2072.09307	6668.5375
2075.10378	6660.5375
2078.11255	6664.1375
2081.11938	6659.6375
2084.12426	6661.4375
2087.12722	6656.0375
2090.12824	6644.4375
2093.12732	6644.4375
2096.12447	6644.3375
2099.11969	6645.6375
2102.11299	6637.5375
2105.10435	6641.9375
2108.09379	6635.6375
2111.08131	6655.7375
2114.0669	6652.4375
2117.05057	6663.7375
2120.03233	6669.1375
2123.01216	6664.9375
2125.99008	6689.8375
2128.96609	6699.0375
2131.94018	6686.7375
2134.91236	6702.8375
2137.88263	6701.7375
2140.851	6686.5375
2143.81746	6711.0375
2146.78201	6716.5375
2149.74466	6722.5375
2152.7054	6707.6375
2155.66425	6712.6375
2158.6212	6691.7375
2161.57625	6700.7375
2164.52941	6709.7375
2167.48067	6699.5375
2170.43004	6696.7375
2173.37752	6710.4375
2176.32311	6700.9375
2179.26681	6682.9375
2182.20863	6711.0375
2185.14856	6729.0375
2188.08661	6711.0375
2191.02278	6723.5375
2193.95707	6694.2375
2196.88948	6695.5375
2199.82001	6680.9375
2202.74867	6683.7375
2205.67545	6690.9375
2208.60037	6679.3375
2211.52341	6674.8375
2214.44458	6655.1375
2217.36388	6654.4375
2220.28132	6641.5375
2223.1969	6640.9375
2226.11061	6627.2375
2229.02246	6632.9375
2231.93245	6603.4375
2234.84058	6583.0375
2237.74686	6585.1375
2240.65128	6584.3375
2243.55385	6566.8375
2246.45456	6553.9375
2249.35343	6537.9375
2252.25044	6527.7375
2255.14561	6519.9375
2258.03893	6497.1375
2260.93041	6479.9375
2263.82004	6508.1375
2266.70783	6463.2375
2269.59378	6452.6375
2272.4779	6421.6375
2275.36017	6418.6375
2278.24061	6435.9375
2281.11922	6413.0375
2283.996	6400.0375
2286.87094	6380.8375
2289.74405	6395.5375
2292.61534	6371.6375
2295.4848	6377.5375
2298.35243	6391.6375
2301.21824	6370.0375
2304.08223	6392.2375
2306.94439	6391.0375
2309.80474	6398.6375
2312.66327	6381.8375
2315.51999	6395.8375
2318.37489	6388.3375
2321.22797	6378.3375
2324.07925	6374.5375
2326.92871	6368.9375
2329.77637	6369.7375
2332.62222	6342.8375
2335.46626	6331.8375
2338.3085	6340.2375
2341.14893	6344.9375
2343.98756	6339.0375
2346.8244	6332.9375
2349.65943	6337.9375
2352.49267	6351.7375
2355.32411	6353.3375
2358.15376	6345.5375
2360.98161	6331.5375
2363.80768	6336.0375
2366.63195	6318.4375
2369.45444	6323.8375
2372.27514	6304.3375
2375.09405	6281.7375
2377.91118	6304.3375
2380.72652	6264.9375
2383.54009	6238.9375
2386.35187	6245.6375
2389.16188	6215.8375
2391.97011	6219.1375
2394.77657	6210.4375
2397.58125	6178.4375
2400.38416	6182.1375
2403.18529	6173.5375
2405.98466	6176.6375
2408.78226	6161.7375
2411.57809	6159.7375
2414.37216	6142.8375
2417.16446	6158.0375
2419.955	6126.4375
2422.74378	6126.8375
2425.5308	6116.9375
2428.31606	6110.1375
2431.09956	6116.4375
2433.88131	6101.8375
2436.6613	6100.8375
2439.43954	6110.6375
2442.21603	6108.9375
2444.99077	6097.1375
2447.76377	6093.2375
2450.53501	6108.0375
2453.30451	6091.7375
2456.07226	6095.4375
2458.83827	6089.2375
2461.60254	6096.9375
2464.36507	6084.8375
2467.12586	6059.9375
2469.88492	6080.9375
2472.64224	6079.0375
2475.39782	6079.7375
2478.15167	6080.8375
2480.90379	6081.6375
2483.65417	6081.7375
2486.40283	6085.6375
2489.14976	6095.3375
2491.89497	6089.6375
2494.63845	6109.2375
2497.3802	6083.2375
2500.12024	6103.1375
2502.85855	6090.5375
2505.59514	6096.3375
2508.33002	6078.5375
2511.06318	6085.6375
2513.79462	6062.1375
2516.52435	6060.7375
2519.25237	6059.6375
2521.97867	6067.8375
2524.70327	6078.1375
2527.42616	6049.9375
2530.14734	6044.2375
2532.86681	6049.5375
2535.58458	6051.7375
2538.30065	6040.5375
2541.01501	6030.0375
2543.72768	6033.0375
2546.43864	6008.2375
2549.14791	6019.5375
2551.85548	6005.7375
2554.56136	5986.8375
2557.26554	5997.0375
2559.96803	5986.7375
2562.66883	5993.7375
2565.36794	6006.4375
2568.06536	5979.4375
2570.7611	5968.6375
2573.45514	5966.9375
2576.14751	5956.7375
2578.83819	5962.3375
2581.52719	5945.8375
2584.21451	5946.0375
2586.90015	5965.9375
2589.58411	5949.6375
2592.2664	5953.4375
2594.94701	5927.1375
2597.62594	5933.2375
2600.30321	5925.4375
2602.9788	5921.9375
2605.65273	5922.5375
2608.32498	5922.6375
2610.99557	5905.5375
2613.66449	5915.8375
2616.33175	5916.9375
2618.99734	5916.4375
2621.66128	5936.3375
2624.32355	5911.1375
2626.98416	5930.2375
2629.64311	5921.2375
2632.30041	5932.0375
2634.95605	5909.6375
2637.61004	5917.5375
2640.26238	5928.8375
2642.91306	5889.1375
2645.56209	5893.0375
2648.20948	5877.6375
2650.85521	5883.9375
2653.4993	5885.3375
2656.14175	5895.1375
2658.78255	5889.8375
2661.42171	5897.3375
2664.05923	5897.4375
2666.6951	5907.4375
2669.32934	5921.5375
2671.96194	5896.7375
2674.59291	5916.4375
2677.22224	5891.6375
2679.84993	5894.2375
2682.476	5888.2375
2685.10043	5878.8375
2687.72324	5880.3375
2690.34441	5871.5375
2692.96396	5870.6375
2695.58188	5901.0375
2698.19818	5866.1375
2700.81285	5887.3375
2703.4259	5856.9375
2706.03733	5846.3375
2708.64714	5870.0375
2711.25533	5879.9375
2713.86191	5866.3375
2716.46687	5901.1375
2719.07021	5896.2375
2721.67194	5910.2375
2724.27206	5910.5375
2726.87057	5914.2375
2729.46747	5929.0375
2732.06276	5916.2375
2734.65644	5915.3375
2737.24852	5919.9375
2739.83899	5921.3375
2742.42786	5923.3375
2745.01513	5888.5375
2747.60079	5898.7375
2750.18486	5909.5375
2752.76733	5902.5375
2755.3482	5882.7375
2757.92747	5896.9375
2760.50515	5894.7375
2763.08123	5862.6375
2765.65573	5886.2375
2768.22863	5882.5375
2770.79994	5881.3375
2773.36967	5895.1375
2775.9378	5888.7375
2778.50435	5883.1375
2781.06932	5877.1375
2783.6327	5883.9375
2786.1945	5867.3375
2788.75471	5871.0375
2791.31335	5856.9375
2793.87041	5860.0375
2796.42589	5836.6375
2798.97979	5850.7375
2801.53212	5841.4375
2804.08288	5842.8375
2806.63206	5819.0375
2809.17967	5805.5375
2811.72571	5805.3375
2814.27018	5790.8375
2816.81308	5778.9375
2819.35442	5774.3375
2821.89419	5774.8375
2824.43239	5775.3375
2826.96904	5760.3375
2829.50412	5769.1375
2832.03763	5751.3375
2834.56959	5749.2375
2837.1	5743.8375
2839.62884	5752.9375
2842.15613	5758.9375
2844.68186	5760.0375
2847.20604	5765.3375
2849.72867	5807.3375
2852.24974	5782.1375
2854.76927	5762.2375
2857.28724	5762.9375
2859.80367	5753.6375
2862.31855	5749.9375
2864.83189	5751.8375
2867.34368	5732.3375
2869.85393	5738.5375
2872.36264	5730.4375
2874.8698	5737.4375
2877.37543	5734.7375
2879.87952	5730.4375
2882.38207	5736.5375
2884.88308	5735.7375
2887.38256	5732.7375
2889.88051	5739.3375
2892.37692	5747.0375
2894.8718	5746.5375
2897.36515	5764.5375
2899.85698	5754.0375
2902.34727	5788.9375
2904.83604	5789.5375
2907.32328	5800.8375
2909.809	5790.7375
2912.29319	5804.9375
2914.77587	5812.7375
2917.25702	5796.5375
2919.73665	5799.8375
2922.21476	5810.1375
2924.69136	5819.6375
2927.16644	5805.9375
2929.64	5797.8375
2932.11205	5795.0375
2934.58258	5783.1375
2937.05161	5783.3375
2939.51912	5791.8375
2941.98513	5777.6375
2944.44962	5765.5375
2946.91261	5743.5375
2949.37409	5756.0375
2951.83407	5750.3375
2954.29254	5746.7375
2956.74951	5737.4375
2959.20498	5742.5375
2961.65895	5728.7375
2964.11142	5734.2375
2966.56239	5704.6375
2969.01186	5703.0375
2971.45984	5689.0375
2973.90632	5697.9375
2976.35131	5675.9375
2978.7948	5684.2375
2981.23681	5664.7375
2983.67732	5672.1375
2986.11635	5630.6375
2988.55388	5617.2375
2990.98993	5619.5375
2993.4245	5620.7375
2995.85758	5604.7375
2998.28917	5585.1375
3000.71928	5587.5375
3003.14791	5566.5375
3005.57506	5582.1375
3008.00073	5558.5375
3010.42493	5521.8375
3012.84764	5545.2375
3015.26888	5547.3375
3017.68865	5526.9375
3020.10694	5541.4375
3022.52376	5514.7375
3024.9391	5517.2375
3027.35298	5527.8375
3029.76539	5501.8375
3032.17632	5515.6375
3034.5858	5502.0375
3036.9938	5509.9375
3039.40034	5510.5375
3041.80542	5505.0375
3044.20903	5498.9375
3046.61118	5499.9375
3049.01187	5487.4375
3051.4111	5485.8375
3053.80888	5479.6375
3056.20519	5478.1375
3058.60005	5453.6375
3060.99345	5441.1375
3063.3854	5419.2375
3065.7759	5427.2375
3068.16494	5415.1375
3070.55254	5400.5375
3072.93868	5385.8375
3075.32338	5390.3375
3077.70662	5373.7375
3080.08842	5393.1375
3082.46878	5375.0375
3084.84769	5369.4375
3087.22515	5369.3375
3089.60118	5355.4375
3091.97576	5375.3375
3094.3489	5378.8375
3096.72061	5381.8375
3099.09087	5376.7375
3101.4597	5373.9375
3103.82709	5407.3375
3106.19305	5382.8375
3108.55757	5382.4375
3110.92066	5378.4375
3113.28232	5371.6375
3115.64255	5355.9375
3118.00134	5344.6375
3120.35871	5359.4375
3122.71466	5354.1375
3125.06917	5338.1375
3127.42226	5329.1375
3129.77393	5349.3375
3132.12417	5325.5375
3134.47299	5332.8375
3136.82039	5338.6375
3139.16636	5342.4375
3141.51092	5335.4375
3143.85406	5361.3375
3146.19579	5359.3375
3148.53609	5357.2375
3150.87499	5374.4375
3153.21246	5383.1375
3155.54853	5391.7375
3157.88318	5400.8375
3160.21642	5410.8375
3162.54826	5403.9375
3164.87868	5403.6375
3167.2077	5404.4375
3169.5353	5418.5375
3171.86151	5411.6375
3174.18631	5421.7375
3176.5097	5415.6375
3178.83169	5422.0375
3181.15228	5422.0375
3183.47147	5412.1375
3185.78926	5415.2375
3188.10565	5402.6375
3190.42065	5413.5375
3192.73424	5412.1375
3195.04645	5422.0375
3197.35725	5416.5375
3199.66667	5430.8375
3201.97469	5419.1375
3204.28132	5416.0375
3206.58656	5446.2375
3208.8904	5446.6375
3211.19287	5448.7375
3213.49394	5446.8375
3215.79363	5457.3375
3218.09193	5460.1375
3220.38884	5469.2375
3222.68438	5465.5375
3224.97853	5455.2375
3227.2713	5442.8375
3229.56269	5465.9375
3231.8527	5472.3375
3234.14133	5454.2375
3236.42858	5451.7375
3238.71446	5431.1375
3240.99896	5427.0375
3243.28209	5446.9375
3245.56384	5428.0375
3247.84423	5428.8375
3250.12324	5405.7375
3252.40088	5436.6375
3254.67715	5426.7375
3256.95205	5414.7375
3259.22558	5440.5375
3261.49775	5427.3375
3263.76855	5427.8375
3266.03799	5392.2375
3268.30606	5383.3375
3270.57277	5390.4375
3272.83812	5363.9375
3275.10211	5350.8375
3277.36474	5368.1375
3279.62601	5381.7375
3281.88593	5356.0375
3284.14448	5364.8375
3286.40168	5376.1375
3288.65753	5371.6375
3290.91202	5378.6375
3293.16516	5353.4375
3295.41695	5331.8375
3297.66738	5313.7375
3299.91647	5294.5375
3302.16421	5267.2375
3304.4106	5251.5375
3306.65564	5218.3375
3308.89933	5198.8375
3311.14169	5161.6375
3313.38269	5116.1375
3315.62236	5086.2375
3317.86068	5035.5375
3320.09766	5010.0375
3322.3333	4976.2375
3324.5676	4981.6375
3326.80056	4871.6375
3329.03219	4859.1375
3331.26248	1.8375
3333.49143	1.0375
3335.71905	-2.2625
