Data from AgNPs_UA_2uM_CRN_0uM_R6G_10uM_Q_RamanShift__13__13-16-11-912.txt Node

Date: Wed Jul 13 13:16:11 BST 2022
User: TCL
Spectrometer: QEP01345
Trigger mode: 4
Integration Time (sec): 7.000000E0
Scans to average: 10
Electric dark correction enabled: true
Nonlinearity correction enabled: false
Boxcar width: 0
XAxis mode: Raman Shifts
Number of Pixels in Spectrum: 1044
>>>>>Begin Spectral Data<<<<<
46.04893	-2.9
50.45542	-0.9
54.85868	-1
59.25871	-1.6
63.6555	140.5
68.04907	144.9
72.43941	152.7
76.82654	156.8
81.21044	165.1
85.59113	170.2
89.96862	178.1
94.34289	174.9
98.71396	182.8
103.08183	191.7
107.4465	199.5
111.80798	202.4
116.16626	207.4
120.52136	216.9
124.87327	223.3
129.222	239.8
133.56755	256.5
137.90993	272.9
142.24913	300.8
146.58517	335.2
150.91804	390.2
155.24774	463.6
159.57429	577.4
163.89768	731.1
168.21792	964.4
172.53501	1316.5
176.84895	1847.1
181.15975	2595.6
185.46741	3643
189.77193	5048
194.07331	6772.4
198.37157	8723.1
202.6667	10790.5
206.9587	12799.1
211.24758	14792
215.53334	16793.3
219.81599	18873.9
224.09553	21168.3
228.37195	23692.3
232.64527	26463.8
236.91549	29351.9
241.18261	32402.6
245.44663	35275.2
249.70755	37828.8
253.96539	40201.8
258.22014	42195.3
262.4718	43774.8
266.72039	44846.3
270.96589	45327.8
275.20832	45386.6
279.44768	45161.5
283.68397	44777.5
287.91719	44349.9
292.14735	44062.2
296.37445	43909.9
300.59849	43955.3
304.81948	44089
309.03742	44199.9
313.25231	44148.3
317.46415	43871.5
321.67296	43415.8
325.87872	42976.7
330.08145	42949.7
334.28114	43066.2
338.47781	43544.1
342.67145	44065.8
346.86207	44735.1
351.04966	45534.8
355.23424	46321.6
359.4158	46940.3
363.59435	47467.2
367.76989	47888.2
371.94243	48169
376.11196	48422.6
380.27849	48634.6
384.44203	48942
388.60257	49347.8
392.76012	49781.3
396.91468	50380.4
401.06626	51023.1
405.21485	51491.7
409.36047	51367.2
413.50311	51046.2
417.64277	50789.5
421.77947	50876.2
425.9132	51108.9
430.04396	51409.3
434.17176	51688.1
438.2966	52119.6
442.41849	52664.9
446.53742	53336.3
450.6534	54107.3
454.76644	54641.6
458.87653	54995.4
462.98368	55091.9
467.08789	55118.5
471.18916	54962
475.2875	54730.5
479.38291	54551.6
483.4754	54387.7
487.56496	54351
491.6516	54270.3
495.73531	54228.5
499.81612	54135.2
503.89401	54414.9
507.96899	54669
512.04106	54813.3
516.11023	54904.9
520.1765	54867.8
524.23987	54969.8
528.30034	54854.3
532.35792	54795.3
536.41261	54624.2
540.46441	54419.7
544.51333	54507.1
548.55936	54804.2
552.60252	55305.1
556.64279	55906.8
560.6802	56228.4
564.71473	56596.6
568.7464	57108.3
572.7752	57856
576.80114	58434.4
580.82422	59162.3
584.84444	59737.9
588.86181	60240.6
592.87633	60709
596.888	60844.6
600.89682	60916.9
604.9028	62213.4
608.90594	65447
612.90624	68185.4
616.90371	65162.3
620.89834	59784.2
624.89015	57805.2
628.87913	57752.9
632.86528	58229.5
636.84862	58493.6
640.82913	58155.8
644.80683	57552.7
648.78172	57183.2
652.75379	57330
656.72306	57853
660.68952	58403.6
664.65319	58362.6
668.61405	57998.9
672.57211	58134.3
676.52738	58248.8
680.47986	58185
684.42955	58004.8
688.37646	58042.5
692.32058	58298
696.26192	58713.7
700.20048	59224
704.13626	59522.4
708.06928	59694.8
711.99952	59659.1
715.927	59487.6
719.85171	59539.8
723.77365	59532.1
727.69284	59289.1
731.60928	59079.1
735.52295	59091.4
739.43388	59103.1
743.34206	59349.5
747.24749	59457
751.15017	59663.3
755.05012	60196.6
758.94733	61057.1
762.8418	62719.6
766.73354	65298.3
770.62254	67306.8
774.50882	67592.4
778.39237	66118
782.27321	64162.4
786.15132	62407.2
790.02671	61238.5
793.89938	60464
797.76935	60155.9
801.6366	60019.1
805.50115	59931.1
809.36299	60010.9
813.22213	59904.9
817.07857	59908.5
820.93231	59935.8
824.78336	60001.3
828.63172	60118.7
832.47738	60130.6
836.32036	60117.6
840.16066	60133.7
843.99827	60171.9
847.8332	60341.6
851.66546	60488.1
855.49504	60640.8
859.32195	60698.2
863.1462	60763.3
866.96777	60848.6
870.78668	60895.3
874.60293	61095.7
878.41652	61235
882.22745	61392.3
886.03573	61508.7
889.84136	61571.9
893.64433	61558.5
897.44466	61427.3
901.24235	61451.1
905.0374	61343.4
908.8298	61303.2
912.61957	61347.7
916.40671	61530.3
920.19121	61769.3
923.97308	62057.9
927.75233	62086.2
931.52895	61832.4
935.30295	61570.1
939.07433	61024.9
942.84309	60765.7
946.60924	60732
950.37278	60612
954.13371	60505.9
957.89203	60480.4
961.64774	60444.6
965.40086	60445.3
969.15137	60376.5
972.89929	60283.2
976.64461	60191.4
980.38733	60200
984.12747	60276.6
987.86502	60459.9
991.59999	60615.8
995.33237	60844.8
999.06217	61137.1
1002.78939	61431.8
1006.51404	61978.5
1010.23611	62473.3
1013.95561	62768.2
1017.67255	62783.9
1021.38692	62661.9
1025.09872	62312.7
1028.80796	62087.2
1032.51465	61946.6
1036.21877	61970.3
1039.92035	61977.2
1043.61937	62184.4
1047.31584	62376.4
1051.00976	62465.1
1054.70114	62638.6
1058.38998	62931.8
1062.07627	63262
1065.76003	63681.4
1069.44126	64137.4
1073.11995	64824.5
1076.79611	65353.3
1080.46974	65655.5
1084.14085	65795.1
1087.80943	66083.3
1091.47549	66192.1
1095.13903	66170.4
1098.80005	65951.5
1102.45857	65520.2
1106.11456	65128.6
1109.76805	64743.2
1113.41903	64454
1117.06751	64574.8
1120.71348	64875.6
1124.35696	65323.4
1127.99793	65690
1131.63641	65698.8
1135.2724	65273.8
1138.90589	65069.3
1142.5369	64957
1146.16542	64908.7
1149.79145	64943.9
1153.415	64854.2
1157.03607	64922.5
1160.65467	65390.4
1164.27079	66134.4
1167.88443	67258.9
1171.49561	68718
1175.10432	70763
1178.71056	73172
1182.31434	75203.1
1185.91565	76052.3
1189.51451	76153.7
1193.11091	75741.8
1196.70485	74783.8
1200.29634	73619.5
1203.88538	72660.3
1207.47197	71655.1
1211.05612	70876.6
1214.63782	70126.9
1218.21708	69307.4
1221.79391	68626
1225.36829	68224.7
1228.94024	67939.1
1232.50976	67875.3
1236.07685	67843
1239.6415	67894.2
1243.20374	68041.9
1246.76355	68108.7
1250.32093	68432.1
1253.8759	68967.2
1257.42845	69767.5
1260.97859	70680.5
1264.52631	71555.9
1268.07163	72232
1271.61453	72798.7
1275.15503	73321.5
1278.69312	73887.7
1282.22882	74385.5
1285.76211	75106.2
1289.29301	75940
1292.82151	76938
1296.34761	78143.5
1299.87133	79783
1303.39266	81761.2
1306.9116	83913.2
1310.42815	86028.9
1313.94233	86983.9
1317.45412	86258.4
1320.96354	85028.8
1324.47058	83966.6
1327.97525	83070.7
1331.47754	82456.9
1334.97747	82266.9
1338.47502	82379.6
1341.97022	83132.3
1345.46305	84432
1348.95352	85761.9
1352.44163	86643.5
1355.92738	87320.5
1359.41078	88606.6
1362.89183	89744.3
1366.37053	88213.7
1369.84688	83884
1373.32088	79086.7
1376.79254	75769.5
1380.26186	74054.3
1383.72883	73291
1387.19347	72671.5
1390.65578	71932
1394.11575	71273.9
1397.57339	70718.9
1401.0287	70433.8
1404.48168	70264.5
1407.93234	70020.2
1411.38068	69734.1
1414.82669	69146.7
1418.27039	68431.4
1421.71177	67757.3
1425.15083	67190.8
1428.58758	66884.2
1432.02203	66985
1435.45416	67459.8
1438.88399	67827
1442.31151	68145.5
1445.73673	68483.9
1449.15965	68719.6
1452.58027	68846.7
1455.9986	68855.5
1459.41463	69130.7
1462.82837	69638.2
1466.23982	70233
1469.64898	70875.2
1473.05586	71292.4
1476.46045	71593.1
1479.86276	71819.2
1483.26279	72031.4
1486.66054	72516.4
1490.05602	73006.9
1493.44922	74102
1496.84016	75714.4
1500.22882	77990.1
1503.61521	80583.6
1506.99934	83155.9
1510.38121	84834.7
1513.76081	84512.1
1517.13816	82445.3
1520.51324	79698.9
1523.88607	77540.8
1527.25665	76278.3
1530.62498	75633.2
1533.99105	75042.3
1537.35488	74565.4
1540.71647	73860.2
1544.07581	73148.2
1547.4329	72565.3
1550.78776	71988.7
1554.14038	71622
1557.49077	71476.2
1560.83892	71577.4
1564.18484	71882
1567.52853	72424.9
1570.86999	72867.9
1574.20922	73282.4
1577.54624	73257.4
1580.88103	72534
1584.2136	71724.8
1587.54395	71534.4
1590.87208	72194.9
1594.19801	73429.5
1597.52172	74775.7
1600.84321	75061.4
1604.16251	74241.2
1607.47959	72866.7
1610.79447	71071.2
1614.10715	69005.3
1617.41763	67115
1620.7259	65738.6
1624.03199	64895.2
1627.33587	64713.7
1630.63757	64994.5
1633.93707	66100.7
1637.23439	68172.3
1640.52951	71454.1
1643.82246	75533
1647.11321	79037
1650.40179	80299.4
1653.68819	78312.1
1656.97241	73979.5
1660.25446	69326.4
1663.53433	65704.3
1666.81203	63355.7
1670.08756	61817.2
1673.36092	60899.6
1676.63211	60214
1679.90115	59654.4
1683.16801	59303.2
1686.43272	58996
1689.69527	58805.6
1692.95567	58607.6
1696.2139	58542.8
1699.46999	58491
1702.72392	58479.4
1705.97571	58440
1709.22535	58389.8
1712.47284	58370.4
1715.71819	58397.7
1718.96139	58342.8
1722.20246	58250.6
1725.44139	58118.7
1728.67818	58052.8
1731.91284	57949.8
1735.14537	57700.6
1738.37576	57557.3
1741.60403	57451.8
1744.83017	57300.1
1748.05418	57312.5
1751.27607	57193.3
1754.49584	57158.8
1757.71349	57127.2
1760.92903	57043.4
1764.14244	56981.8
1767.35375	56903.6
1770.56294	56879.7
1773.77002	56881.9
1776.97499	56803.1
1780.17785	56750.4
1783.37861	56645.2
1786.57727	56584.3
1789.77382	56543.3
1792.96828	56528
1796.16064	56437.3
1799.3509	56393.1
1802.53907	56324.8
1805.72514	56247.3
1808.90913	56127.1
1812.09102	56030.4
1815.27083	55902.7
1818.44856	55815.7
1821.6242	55790.8
1824.79776	55661.5
1827.96924	55689.3
1831.13864	55550.2
1834.30597	55504.6
1837.47122	55489.2
1840.6344	55442.1
1843.7955	55382.1
1846.95454	55362
1850.11151	55267.5
1853.26642	55211.8
1856.41926	55224.9
1859.57004	55186.4
1862.71876	55196.1
1865.86542	55133.5
1869.01003	55105.7
1872.15258	54984.2
1875.29308	54945.1
1878.43152	54872.2
1881.56792	54776.8
1884.70227	54735.1
1887.83457	54707.4
1890.96482	54647.8
1894.09304	54476.4
1897.21921	54514
1900.34335	54489.6
1903.46544	54372.3
1906.58551	54292.5
1909.70353	54282.2
1912.81953	54209.4
1915.93349	54154.5
1919.04543	54093.7
1922.15534	53950.7
1925.26322	53828.9
1928.36908	53806.7
1931.47292	53715.9
1934.57473	53634.7
1937.67453	53528.7
1940.77232	53421.2
1943.86808	53268.1
1946.96184	53143.9
1950.05358	52998.9
1953.14331	52858.2
1956.23103	52733
1959.31675	52620.5
1962.40046	52520.2
1965.48217	52401
1968.56188	52176.2
1971.63959	51992.4
1974.7153	51859
1977.78901	51675.8
1980.86073	51487.3
1983.93046	51376.1
1986.99819	51251.9
1990.06394	51125
1993.1277	50993.3
1996.18947	50792.4
1999.24925	50840.2
2002.30706	50653.8
2005.36288	50521
2008.41672	50375.4
2011.46859	50193.1
2014.51848	50037.6
2017.56639	49918.6
2020.61233	49814.3
2023.6563	49638.6
2026.6983	49554.7
2029.73833	49342.6
2032.7764	49238.4
2035.8125	49181.6
2038.84664	49046.9
2041.87881	48960.3
2044.90903	48861.2
2047.93729	48738.2
2050.96359	48737.4
2053.98794	48636
2057.01034	48689.7
2060.03078	48648.9
2063.04927	48547.8
2066.06582	48443.4
2069.08042	48464.5
2072.09307	48432.5
2075.10378	48433.6
2078.11255	48418.2
2081.11938	48356.5
2084.12426	48250.9
2087.12722	48234.8
2090.12824	48217.9
2093.12732	48235.5
2096.12447	48232.7
2099.11969	48292.6
2102.11299	48289
2105.10435	48312.3
2108.09379	48290.1
2111.08131	48393.1
2114.0669	48415.1
2117.05057	48428.7
2120.03233	48468.6
2123.01216	48550.5
2125.99008	48491.6
2128.96609	48638.7
2131.94018	48573.3
2134.91236	48655
2137.88263	48730
2140.851	48690
2143.81746	48802.7
2146.78201	48787.1
2149.74466	48853.5
2152.7054	48783.9
2155.66425	48766.1
2158.6212	48757.5
2161.57625	48698.9
2164.52941	48719.6
2167.48067	48754.8
2170.43004	48671.9
2173.37752	48654.4
2176.32311	48644.9
2179.26681	48638
2182.20863	48577
2185.14856	48630.1
2188.08661	48643
2191.02278	48589.5
2193.95707	48553.8
2196.88948	48560
2199.82001	48517.3
2202.74867	48368.2
2205.67545	48336.7
2208.60037	48266.2
2211.52341	48203.6
2214.44458	48160.8
2217.36388	48045.2
2220.28132	47906.6
2223.1969	47718.6
2226.11061	47721.4
2229.02246	47637.7
2231.93245	47517.6
2234.84058	47534.7
2237.74686	47385.2
2240.65128	47404.3
2243.55385	47340.3
2246.45456	47307.9
2249.35343	47306.3
2252.25044	47242.3
2255.14561	47213.4
2258.03893	47157.6
2260.93041	47049.4
2263.82004	46861.2
2266.70783	46865.7
2269.59378	46622.4
2272.4779	46539.7
2275.36017	46480.8
2278.24061	46277.6
2281.11922	46276.3
2283.996	46158
2286.87094	46119.8
2289.74405	45938.1
2292.61534	45935.5
2295.4848	45938.7
2298.35243	45968.8
2301.21824	45858.2
2304.08223	45795.5
2306.94439	45770.1
2309.80474	45675.3
2312.66327	45685
2315.51999	45572.2
2318.37489	45536.6
2321.22797	45519.1
2324.07925	45445.2
2326.92871	45338.3
2329.77637	45293.8
2332.62222	45191.8
2335.46626	45122.2
2338.3085	45062.5
2341.14893	44991.6
2343.98756	44918
2346.8244	44817.1
2349.65943	44792.7
2352.49267	44727.7
2355.32411	44855.8
2358.15376	44749.9
2360.98161	44688.7
2363.80768	44690.7
2366.63195	44626.1
2369.45444	44627.5
2372.27514	44568.5
2375.09405	44518.3
2377.91118	44442
2380.72652	44471.9
2383.54009	44291.1
2386.35187	44220.2
2389.16188	44012.4
2391.97011	43977.3
2394.77657	43877.2
2397.58125	43778.6
2400.38416	43748.5
2403.18529	43603.7
2405.98466	43562.7
2408.78226	43483.5
2411.57809	43447.4
2414.37216	43429.9
2417.16446	43398.8
2419.955	43277
2422.74378	43340.7
2425.5308	43249.6
2428.31606	43238.6
2431.09956	43224.8
2433.88131	43057.1
2436.6613	43070.1
2439.43954	43074.6
2442.21603	43044.8
2444.99077	42963.9
2447.76377	42951.1
2450.53501	42818.5
2453.30451	42841.9
2456.07226	42762.6
2458.83827	42723
2461.60254	42651
2464.36507	42590
2467.12586	42461.3
2469.88492	42398.1
2472.64224	42456.6
2475.39782	42454.2
2478.15167	42460.4
2480.90379	42388.2
2483.65417	42396.1
2486.40283	42353
2489.14976	42335.4
2491.89497	42246
2494.63845	42270.5
2497.3802	42268.1
2500.12024	42255.7
2502.85855	42184.9
2505.59514	42106.5
2508.33002	42106.3
2511.06318	42047.8
2513.79462	41865.7
2516.52435	41768.6
2519.25237	41765.9
2521.97867	41643.2
2524.70327	41695.4
2527.42616	41574.9
2530.14734	41520.3
2532.86681	41428.9
2535.58458	41402
2538.30065	41313.1
2541.01501	41280.8
2543.72768	41190.7
2546.43864	41235
2549.14791	41050.7
2551.85548	40994.5
2554.56136	40913.3
2557.26554	40835.8
2559.96803	40721.6
2562.66883	40662.9
2565.36794	40626
2568.06536	40522
2570.7611	40404.4
2573.45514	40423.2
2576.14751	40335.8
2578.83819	40227.6
2581.52719	40183.2
2584.21451	40146
2586.90015	40086.7
2589.58411	39943
2592.2664	39887.8
2594.94701	39789.3
2597.62594	39784.7
2600.30321	39653.8
2602.9788	39571.8
2605.65273	39557.1
2608.32498	39482.3
2610.99557	39429.9
2613.66449	39372.4
2616.33175	39319.2
2618.99734	39375
2621.66128	39230.3
2624.32355	39192.2
2626.98416	39056.9
2629.64311	39009.7
2632.30041	38950.1
2634.95605	38906.2
2637.61004	38782.3
2640.26238	38766.7
2642.91306	38670.7
2645.56209	38651.8
2648.20948	38658.2
2650.85521	38633.6
2653.4993	38631.5
2656.14175	38600.2
2658.78255	38585.1
2661.42171	38579.5
2664.05923	38572.1
2666.6951	38542.5
2669.32934	38569.2
2671.96194	38516.2
2674.59291	38493
2677.22224	38456.7
2679.84993	38493.7
2682.476	38399.3
2685.10043	38428.6
2687.72324	38397.3
2690.34441	38420.9
2692.96396	38410.6
2695.58188	38362.5
2698.19818	38373.7
2700.81285	38382.2
2703.4259	38404.2
2706.03733	38421.8
2708.64714	38404.2
2711.25533	38419.5
2713.86191	38362.3
2716.46687	38382.2
2719.07021	38367.5
2721.67194	38357.7
2724.27206	38328.4
2726.87057	38336.7
2729.46747	38352.5
2732.06276	38364.1
2734.65644	38325.5
2737.24852	38322.1
2739.83899	38200.7
2742.42786	38172
2745.01513	38031.2
2747.60079	38003.6
2750.18486	37888.9
2752.76733	37911
2755.3482	37865.3
2757.92747	37818.2
2760.50515	37698.1
2763.08123	37634.8
2765.65573	37592.4
2768.22863	37568.7
2770.79994	37549.5
2773.36967	37530.4
2775.9378	37448.2
2778.50435	37383.3
2781.06932	37327.8
2783.6327	37279.6
2786.1945	37182.3
2788.75471	37088.4
2791.31335	37073.9
2793.87041	37020.1
2796.42589	36887.2
2798.97979	36889.2
2801.53212	36823.4
2804.08288	36712.5
2806.63206	36552.5
2809.17967	36494.8
2811.72571	36422.2
2814.27018	36373.9
2816.81308	36288.9
2819.35442	36168.9
2821.89419	36060.1
2824.43239	35974.1
2826.96904	35957.1
2829.50412	35891.4
2832.03763	35837.2
2834.56959	35800.8
2837.1	35738.6
2839.62884	35746.8
2842.15613	35692.4
2844.68186	35695.6
2847.20604	35612.2
2849.72867	35575.8
2852.24974	35459.5
2854.76927	35421.1
2857.28724	35379
2859.80367	35337
2862.31855	35297.5
2864.83189	35208.5
2867.34368	35144
2869.85393	35113.2
2872.36264	35034
2874.8698	34979.6
2877.37543	34945.3
2879.87952	34921.3
2882.38207	34885.1
2884.88308	34867.2
2887.38256	34841
2889.88051	34822.7
2892.37692	34892
2894.8718	34838.2
2897.36515	34876.9
2899.85698	34856.1
2902.34727	34893
2904.83604	34857.3
2907.32328	34915.5
2909.809	34894.8
2912.29319	34898.3
2914.77587	34816.9
2917.25702	34853.8
2919.73665	34832.1
2922.21476	34802.6
2924.69136	34701.3
2927.16644	34689
2929.64	34635.5
2932.11205	34648.8
2934.58258	34567.7
2937.05161	34588
2939.51912	34551.3
2941.98513	34543.6
2944.44962	34493.4
2946.91261	34405.2
2949.37409	34490.5
2951.83407	34412.3
2954.29254	34419.5
2956.74951	34411.8
2959.20498	34436.4
2961.65895	34380
2964.11142	34377.4
2966.56239	34355.5
2969.01186	34347.8
2971.45984	34254.1
2973.90632	34258.1
2976.35131	34193.8
2978.7948	34182.5
2981.23681	34133.3
2983.67732	34026.5
2986.11635	33966
2988.55388	33903.5
2990.98993	33873.7
2993.4245	33810.1
2995.85758	33755.9
2998.28917	33595.9
3000.71928	33544.7
3003.14791	33485.8
3005.57506	33476.3
3008.00073	33309.7
3010.42493	33240.2
3012.84764	33215.2
3015.26888	33238.2
3017.68865	33138.1
3020.10694	33047.3
3022.52376	33006.2
3024.9391	32982.6
3027.35298	32910.4
3029.76539	32881
3032.17632	32928.5
3034.5858	32769.2
3036.9938	32743.1
3039.40034	32689.1
3041.80542	32649.4
3044.20903	32554.7
3046.61118	32555.6
3049.01187	32464.9
3051.4111	32492.7
3053.80888	32365.4
3056.20519	32278.2
3058.60005	32232.8
3060.99345	32203.9
3063.3854	32100.3
3065.7759	32014.3
3068.16494	31980.7
3070.55254	31847.4
3072.93868	31769.7
3075.32338	31674.9
3077.70662	31609.7
3080.08842	31569.7
3082.46878	31510.9
3084.84769	31475.5
3087.22515	31450
3089.60118	31429.6
3091.97576	31396.7
3094.3489	31355.8
3096.72061	31308.4
3099.09087	31355
3101.4597	31286.6
3103.82709	31273.4
3106.19305	31199.3
3108.55757	31268.9
3110.92066	31220.5
3113.28232	31170.3
3115.64255	31063.7
3118.00134	31023.7
3120.35871	30953.4
3122.71466	30864.4
3125.06917	30808
3127.42226	30764.3
3129.77393	30746.5
3132.12417	30633.7
3134.47299	30584.8
3136.82039	30540.9
3139.16636	30549.5
3141.51092	30510
3143.85406	30489.2
3146.19579	30503.6
3148.53609	30488
3150.87499	30529.1
3153.21246	30506.4
3155.54853	30491.2
3157.88318	30467.3
3160.21642	30526.6
3162.54826	30478.5
3164.87868	30458
3167.2077	30391.1
3169.5353	30388.1
3171.86151	30365.6
3174.18631	30327.5
3176.5097	30245.4
3178.83169	30192.7
3181.15228	30164.3
3183.47147	30051.8
3185.78926	30029.3
3188.10565	29962.7
3190.42065	29930.3
3192.73424	29913.1
3195.04645	29837.2
3197.35725	29813.5
3199.66667	29737.6
3201.97469	29756.1
3204.28132	29686.1
3206.58656	29735.8
3208.8904	29753.1
3211.19287	29726
3213.49394	29722
3215.79363	29709.5
3218.09193	29707.1
3220.38884	29671.4
3222.68438	29719.5
3224.97853	29685.1
3227.2713	29659.3
3229.56269	29646.9
3231.8527	29589.3
3234.14133	29514.4
3236.42858	29451.3
3238.71446	29415.7
3240.99896	29271.8
3243.28209	29197.8
3245.56384	29188.4
3247.84423	29219.9
3250.12324	29154.3
3252.40088	29132.1
3254.67715	29083.4
3256.95205	29006.4
3259.22558	29022.1
3261.49775	29030.1
3263.76855	29061.9
3266.03799	28999.7
3268.30606	28923.5
3270.57277	28885
3272.83812	28829.1
3275.10211	28763.8
3277.36474	28679.9
3279.62601	28653
3281.88593	28521.6
3284.14448	28565.2
3286.40168	28570.3
3288.65753	28558.2
3290.91202	28501.9
3293.16516	28398.9
3295.41695	28379.9
3297.66738	28197.4
3299.91647	28071.6
3302.16421	27855.1
3304.4106	27749.5
3306.65564	27546.1
3308.89933	27382.6
3311.14169	27176.4
3313.38269	26927.5
3315.62236	26810.5
3317.86068	26603.9
3320.09766	26395.5
3322.3333	26280.1
3324.5676	26065.6
3326.80056	25740.8
3329.03219	25632
3331.26248	5.3
3333.49143	0.7
3335.71905	0.5
