Data from AgNPs_UA_2uM_CRN_0uM_R6G_10uM_Q_RamanShift__3__13-04-31-900.txt Node

Date: Wed Jul 13 13:04:31 BST 2022
User: TCL
Spectrometer: QEP01345
Trigger mode: 4
Integration Time (sec): 7.000000E0
Scans to average: 10
Electric dark correction enabled: true
Nonlinearity correction enabled: false
Boxcar width: 0
XAxis mode: Raman Shifts
Number of Pixels in Spectrum: 1044
>>>>>Begin Spectral Data<<<<<
46.04893	-1.975
50.45542	-2.175
54.85868	-0.775
59.25871	-1.875
63.6555	99.525
68.04907	104.125
72.43941	109.125
76.82654	114.525
81.21044	122.025
85.59113	123.225
89.96862	132.025
94.34289	128.525
98.71396	140.925
103.08183	139.425
107.4465	142.725
111.80798	146.825
116.16626	152.825
120.52136	157.525
124.87327	161.925
129.222	168.925
133.56755	180.025
137.90993	196.725
142.24913	213.825
146.58517	233.225
150.91804	268.225
155.24774	323.825
159.57429	396.525
163.89768	507.425
168.21792	666.825
172.53501	910.125
176.84895	1281.625
181.15975	1794.925
185.46741	2511.525
189.77193	3461.025
194.07331	4615.025
198.37157	5937.425
202.6667	7334.925
206.9587	8697.725
211.24758	10052.525
215.53334	11455.725
219.81599	12935.525
224.09553	14594.025
228.37195	16406.825
232.64527	18378.925
236.91549	20383.825
241.18261	22292.825
245.44663	23988.025
249.70755	25410.025
253.96539	26687.325
258.22014	27747.525
262.4718	28715.525
266.72039	29292.825
270.96589	29608.325
275.20832	29512.125
279.44768	29221.225
283.68397	28900.125
287.91719	28595.825
292.14735	28549.325
296.37445	28734.125
300.59849	29203.925
304.81948	29791.825
309.03742	30253.525
313.25231	30378.725
317.46415	29930.825
321.67296	29087.125
325.87872	28424.725
330.08145	28126.125
334.28114	28076.625
338.47781	28422.025
342.67145	28944.125
346.86207	29622.925
351.04966	30493.225
355.23424	31302.925
359.4158	31818.025
363.59435	32094.025
367.76989	32234.025
371.94243	32270.225
376.11196	32253.625
380.27849	32305.625
384.44203	32344.125
388.60257	32456.325
392.76012	32654.025
396.91468	33010.825
401.06626	33579.125
405.21485	33813.725
409.36047	33494.225
413.50311	32769.125
417.64277	32274.525
421.77947	32094.825
425.9132	32011.525
430.04396	32131.025
434.17176	32274.225
438.2966	32694.425
442.41849	33351.225
446.53742	34346.025
450.6534	35332.225
454.76644	35794.625
458.87653	35766.825
462.98368	35367.125
467.08789	34872.225
471.18916	34286.025
475.2875	33622.825
479.38291	33125.325
483.4754	32711.625
487.56496	32473.925
491.6516	32303.125
495.73531	32291.025
499.81612	32348.225
503.89401	32615.425
507.96899	32760.625
512.04106	32752.925
516.11023	32807.825
520.1765	32853.425
524.23987	32884.725
528.30034	32836.625
532.35792	32691.125
536.41261	32294.725
540.46441	31857.125
544.51333	31772.925
548.55936	32094.125
552.60252	32702.025
556.64279	33474.025
560.6802	33944.825
564.71473	34157.125
568.7464	34723.325
572.7752	35170.725
576.80114	35342.425
580.82422	35732.325
584.84444	36608.925
588.86181	37958.225
592.87633	39265.125
596.888	39595.225
600.89682	38783.925
604.9028	39945.225
608.90594	44737.625
612.90624	49374.625
616.90371	45321.925
620.89834	37112.325
624.89015	33992.825
628.87913	33700.225
632.86528	33963.925
636.84862	33980.825
640.82913	33373.925
644.80683	32523.125
648.78172	31992.425
652.75379	32196.525
656.72306	32955.925
660.68952	33622.125
664.65319	33250.825
668.61405	32587.625
672.57211	32551.525
676.52738	32692.925
680.47986	32439.525
684.42955	32158.625
688.37646	32089.625
692.32058	32414.525
696.26192	32908.725
700.20048	33408.325
704.13626	33589.725
708.06928	33411.825
711.99952	33197.125
715.927	33290.725
719.85171	33398.725
723.77365	33336.725
727.69284	32886.725
731.60928	32633.425
735.52295	32619.725
739.43388	32684.925
743.34206	32874.025
747.24749	32958.325
751.15017	33237.125
755.05012	33726.125
758.94733	34829.525
762.8418	37090.225
766.73354	40583.825
770.62254	43379.825
774.50882	43674.825
778.39237	41576.925
782.27321	38654.625
786.15132	36057.025
790.02671	34402.025
793.89938	33658.425
797.76935	33286.725
801.6366	33067.925
805.50115	32937.525
809.36299	32828.325
813.22213	32661.725
817.07857	32578.125
820.93231	32490.925
824.78336	32457.825
828.63172	32546.525
832.47738	32538.925
836.32036	32576.125
840.16066	32565.025
843.99827	32571.725
847.8332	32534.725
851.66546	32591.525
855.49504	32631.525
859.32195	32634.325
863.1462	32592.825
866.96777	32533.625
870.78668	32511.425
874.60293	32645.325
878.41652	32730.425
882.22745	32917.725
886.03573	33068.325
889.84136	33002.725
893.64433	32874.125
897.44466	32727.225
901.24235	32679.925
905.0374	32582.625
908.8298	32454.325
912.61957	32464.525
916.40671	32628.325
920.19121	32950.525
923.97308	33363.725
927.75233	33531.025
931.52895	33501.825
935.30295	33078.925
939.07433	32554.125
942.84309	32134.425
946.60924	32024.125
950.37278	31956.625
954.13371	31896.825
957.89203	31815.225
961.64774	31796.825
965.40086	31750.325
969.15137	31763.525
972.89929	31749.525
976.64461	31743.525
980.38733	31768.425
984.12747	31898.125
987.86502	32108.925
991.59999	32356.025
995.33237	32775.325
999.06217	33322.825
1002.78939	33969.825
1006.51404	34525.425
1010.23611	34980.625
1013.95561	35318.725
1017.67255	35337.225
1021.38692	34988.125
1025.09872	34527.725
1028.80796	34429.825
1032.51465	34789.225
1036.21877	35182.625
1039.92035	35191.625
1043.61937	35015.525
1047.31584	34757.925
1051.00976	34329.625
1054.70114	34157.325
1058.38998	34292.725
1062.07627	34464.925
1065.76003	34639.225
1069.44126	34933.525
1073.11995	35452.025
1076.79611	36073.725
1080.46974	36534.925
1084.14085	36952.325
1087.80943	37489.625
1091.47549	37564.025
1095.13903	37223.825
1098.80005	36636.925
1102.45857	36045.225
1106.11456	35741.925
1109.76805	35616.325
1113.41903	35773.925
1117.06751	36177.525
1120.71348	36686.725
1124.35696	37339.625
1127.99793	37799.625
1131.63641	37594.925
1135.2724	36953.125
1138.90589	36481.425
1142.5369	36221.625
1146.16542	36184.625
1149.79145	36253.225
1153.415	36271.525
1157.03607	36437.925
1160.65467	37046.325
1164.27079	38204.325
1167.88443	39775.225
1171.49561	42043.325
1175.10432	45191.025
1178.71056	49113.925
1182.31434	52226.825
1185.91565	52957.025
1189.51451	51801.625
1193.11091	49779.225
1196.70485	47688.825
1200.29634	45977.625
1203.88538	44566.625
1207.47197	43373.625
1211.05612	42246.725
1214.63782	41493.325
1218.21708	40931.325
1221.79391	40776.525
1225.36829	40812.925
1228.94024	40693.425
1232.50976	40120.125
1236.07685	39505.425
1239.6415	39171.425
1243.20374	39146.125
1246.76355	39353.425
1250.32093	39827.925
1253.8759	40523.025
1257.42845	41478.825
1260.97859	42624.925
1264.52631	43802.825
1268.07163	44928.125
1271.61453	45986.525
1275.15503	46902.625
1278.69312	47675.425
1282.22882	48366.225
1285.76211	49384.025
1289.29301	50829.525
1292.82151	52377.425
1296.34761	54450.125
1299.87133	57233.825
1303.39266	60894.125
1306.9116	65288.725
1310.42815	69665.225
1313.94233	71879.725
1317.45412	70282.125
1320.96354	66911.525
1324.47058	63599.325
1327.97525	60785.825
1331.47754	58891.625
1334.97747	57903.125
1338.47502	57358.025
1341.97022	57490.925
1345.46305	58242.625
1348.95352	59785.125
1352.44163	61872.925
1355.92738	65053.725
1359.41078	69942.125
1362.89183	74032.625
1366.37053	72107.325
1369.84688	64428.425
1373.32088	56299.025
1376.79254	51312.925
1380.26186	49308.925
1383.72883	48685.525
1387.19347	48242.125
1390.65578	47351.025
1394.11575	46723.425
1397.57339	46518.825
1401.0287	46527.825
1404.48168	46460.125
1407.93234	46203.825
1411.38068	45822.225
1414.82669	45226.125
1418.27039	44522.125
1421.71177	43702.625
1425.15083	42932.725
1428.58758	42721.025
1432.02203	43287.525
1435.45416	44265.525
1438.88399	44955.625
1442.31151	45246.425
1445.73673	45350.225
1449.15965	45345.225
1452.58027	45039.825
1455.9986	44782.825
1459.41463	44723.725
1462.82837	45221.825
1466.23982	45887.425
1469.64898	46604.525
1473.05586	47188.425
1476.46045	47516.225
1479.86276	47658.825
1483.26279	47824.525
1486.66054	48331.925
1490.05602	49155.925
1493.44922	50404.025
1496.84016	52126.125
1500.22882	54701.025
1503.61521	58329.225
1506.99934	62338.925
1510.38121	65487.025
1513.76081	65651.025
1517.13816	62342.525
1520.51324	57370.225
1523.88607	53455.125
1527.25665	51314.425
1530.62498	50333.425
1533.99105	49692.625
1537.35488	49000.625
1540.71647	48099.625
1544.07581	47157.525
1547.4329	46163.925
1550.78776	45584.225
1554.14038	45186.325
1557.49077	45108.725
1560.83892	45431.225
1564.18484	46089.225
1567.52853	46852.125
1570.86999	47579.325
1574.20922	48172.225
1577.54624	48063.525
1580.88103	46955.925
1584.2136	45886.325
1587.54395	45947.725
1590.87208	47454.825
1594.19801	50011.325
1597.52172	52708.225
1600.84321	53590.525
1604.16251	51891.625
1607.47959	48909.825
1610.79447	45745.125
1614.10715	42626.325
1617.41763	40134.725
1620.7259	38563.525
1624.03199	37864.425
1627.33587	38005.825
1630.63757	38778.025
1633.93707	40734.225
1637.23439	43957.025
1640.52951	49033.325
1643.82246	55371.025
1647.11321	60778.125
1650.40179	62171.425
1653.68819	58142.725
1656.97241	50798.525
1660.25446	43886.225
1663.53433	39119.025
1666.81203	36252.025
1670.08756	34517.325
1673.36092	33470.725
1676.63211	32745.725
1679.90115	32245.225
1683.16801	31857.725
1686.43272	31582.925
1689.69527	31378.725
1692.95567	31309.025
1696.2139	31151.125
1699.46999	31114.525
1702.72392	31059.725
1705.97571	31043.125
1709.22535	31028.625
1712.47284	31058.125
1715.71819	31004.325
1718.96139	30963.325
1722.20246	30894.925
1725.44139	30789.525
1728.67818	30640.925
1731.91284	30539.825
1735.14537	30355.725
1738.37576	30241.225
1741.60403	30185.725
1744.83017	30095.425
1748.05418	30053.425
1751.27607	29991.625
1754.49584	29965.625
1757.71349	29934.425
1760.92903	29906.325
1764.14244	29884.625
1767.35375	29828.325
1770.56294	29788.925
1773.77002	29770.625
1776.97499	29702.225
1780.17785	29635.925
1783.37861	29627.825
1786.57727	29578.625
1789.77382	29577.425
1792.96828	29493.525
1796.16064	29455.425
1799.3509	29442.125
1802.53907	29411.725
1805.72514	29324.525
1808.90913	29245.025
1812.09102	29186.525
1815.27083	29117.125
1818.44856	29055.425
1821.6242	29036.025
1824.79776	29002.225
1827.96924	29004.525
1831.13864	28955.125
1834.30597	28953.925
1837.47122	28921.125
1840.6344	28913.325
1843.7955	28914.125
1846.95454	28829.825
1850.11151	28857.325
1853.26642	28804.625
1856.41926	28796.025
1859.57004	28823.225
1862.71876	28813.525
1865.86542	28793.725
1869.01003	28727.625
1872.15258	28710.925
1875.29308	28684.125
1878.43152	28700.325
1881.56792	28676.525
1884.70227	28641.325
1887.83457	28648.125
1890.96482	28578.025
1894.09304	28556.725
1897.21921	28532.725
1900.34335	28563.525
1903.46544	28497.625
1906.58551	28479.925
1909.70353	28473.825
1912.81953	28429.425
1915.93349	28395.525
1919.04543	28357.025
1922.15534	28263.225
1925.26322	28263.325
1928.36908	28236.825
1931.47292	28200.625
1934.57473	28133.125
1937.67453	28095.825
1940.77232	28002.825
1943.86808	27906.725
1946.96184	27854.125
1950.05358	27802.125
1953.14331	27747.625
1956.23103	27657.225
1959.31675	27633.425
1962.40046	27547.025
1965.48217	27499.825
1968.56188	27419.225
1971.63959	27335.625
1974.7153	27263.625
1977.78901	27202.025
1980.86073	27072.025
1983.93046	27004.325
1986.99819	26912.225
1990.06394	26837.625
1993.1277	26805.425
1996.18947	26722.225
1999.24925	26733.625
2002.30706	26590.325
2005.36288	26578.825
2008.41672	26496.325
2011.46859	26397.425
2014.51848	26338.525
2017.56639	26261.425
2020.61233	26195.825
2023.6563	26133.525
2026.6983	26090.025
2029.73833	26020.525
2032.7764	25976.525
2035.8125	25950.525
2038.84664	25896.025
2041.87881	25867.825
2044.90903	25843.625
2047.93729	25815.625
2050.96359	25769.125
2053.98794	25750.225
2057.01034	25721.925
2060.03078	25708.625
2063.04927	25652.125
2066.06582	25614.525
2069.08042	25621.325
2072.09307	25604.225
2075.10378	25642.025
2078.11255	25637.625
2081.11938	25622.525
2084.12426	25545.525
2087.12722	25531.425
2090.12824	25536.425
2093.12732	25535.725
2096.12447	25568.625
2099.11969	25577.625
2102.11299	25627.525
2105.10435	25636.725
2108.09379	25609.325
2111.08131	25652.825
2114.0669	25670.025
2117.05057	25744.425
2120.03233	25757.725
2123.01216	25776.425
2125.99008	25730.825
2128.96609	25808.025
2131.94018	25808.825
2134.91236	25870.725
2137.88263	25927.425
2140.851	25873.325
2143.81746	25911.325
2146.78201	25931.925
2149.74466	25969.025
2152.7054	25944.625
2155.66425	25885.525
2158.6212	25943.225
2161.57625	25864.325
2164.52941	25921.225
2167.48067	25932.025
2170.43004	25922.125
2173.37752	25923.625
2176.32311	25882.825
2179.26681	25907.525
2182.20863	25883.425
2185.14856	25918.025
2188.08661	25941.725
2191.02278	25949.225
2193.95707	25923.725
2196.88948	25911.725
2199.82001	25889.025
2202.74867	25872.325
2205.67545	25847.625
2208.60037	25804.725
2211.52341	25811.225
2214.44458	25796.225
2217.36388	25715.325
2220.28132	25667.725
2223.1969	25623.825
2226.11061	25590.625
2229.02246	25536.625
2231.93245	25539.625
2234.84058	25503.725
2237.74686	25471.825
2240.65128	25469.825
2243.55385	25451.225
2246.45456	25430.425
2249.35343	25378.025
2252.25044	25437.125
2255.14561	25386.525
2258.03893	25362.725
2260.93041	25289.625
2263.82004	25268.325
2266.70783	25238.925
2269.59378	25115.825
2272.4779	25069.625
2275.36017	25005.825
2278.24061	24985.825
2281.11922	24963.125
2283.996	24936.825
2286.87094	24850.525
2289.74405	24834.925
2292.61534	24816.025
2295.4848	24836.225
2298.35243	24855.325
2301.21824	24804.725
2304.08223	24798.325
2306.94439	24782.825
2309.80474	24820.825
2312.66327	24793.525
2315.51999	24773.825
2318.37489	24792.825
2321.22797	24777.525
2324.07925	24717.625
2326.92871	24732.125
2329.77637	24695.725
2332.62222	24647.125
2335.46626	24625.025
2338.3085	24595.825
2341.14893	24586.325
2343.98756	24609.825
2346.8244	24535.325
2349.65943	24562.725
2352.49267	24562.425
2355.32411	24601.025
2358.15376	24636.425
2360.98161	24560.625
2363.80768	24582.425
2366.63195	24518.325
2369.45444	24535.025
2372.27514	24526.325
2375.09405	24483.825
2377.91118	24436.525
2380.72652	24418.325
2383.54009	24337.625
2386.35187	24299.425
2389.16188	24270.225
2391.97011	24174.325
2394.77657	24126.425
2397.58125	24073.125
2400.38416	24066.425
2403.18529	24044.725
2405.98466	24040.525
2408.78226	23943.425
2411.57809	23959.925
2414.37216	23929.925
2417.16446	23908.325
2419.955	23869.425
2422.74378	23891.025
2425.5308	23883.225
2428.31606	23915.525
2431.09956	23916.425
2433.88131	23843.625
2436.6613	23807.425
2439.43954	23841.725
2442.21603	23841.725
2444.99077	23809.825
2447.76377	23821.125
2450.53501	23832.625
2453.30451	23814.525
2456.07226	23777.525
2458.83827	23814.925
2461.60254	23786.525
2464.36507	23725.625
2467.12586	23747.725
2469.88492	23679.725
2472.64224	23717.825
2475.39782	23734.025
2478.15167	23768.225
2480.90379	23728.025
2483.65417	23787.725
2486.40283	23819.125
2489.14976	23813.225
2491.89497	23759.825
2494.63845	23802.925
2497.3802	23792.925
2500.12024	23793.225
2502.85855	23777.225
2505.59514	23732.425
2508.33002	23707.725
2511.06318	23731.425
2513.79462	23641.225
2516.52435	23570.425
2519.25237	23542.725
2521.97867	23506.025
2524.70327	23541.825
2527.42616	23470.125
2530.14734	23497.525
2532.86681	23458.225
2535.58458	23431.825
2538.30065	23414.225
2541.01501	23393.025
2543.72768	23386.725
2546.43864	23407.125
2549.14791	23372.725
2551.85548	23363.825
2554.56136	23322.025
2557.26554	23271.125
2559.96803	23262.025
2562.66883	23247.325
2565.36794	23206.025
2568.06536	23175.125
2570.7611	23113.925
2573.45514	23149.325
2576.14751	23094.725
2578.83819	23100.525
2581.52719	23102.525
2584.21451	23064.125
2586.90015	23049.325
2589.58411	22983.425
2592.2664	23000.725
2594.94701	22915.225
2597.62594	22937.025
2600.30321	22904.725
2602.9788	22890.925
2605.65273	22848.625
2608.32498	22868.925
2610.99557	22813.025
2613.66449	22812.225
2616.33175	22838.025
2618.99734	22876.225
2621.66128	22839.225
2624.32355	22787.425
2626.98416	22756.225
2629.64311	22752.625
2632.30041	22713.125
2634.95605	22693.825
2637.61004	22655.825
2640.26238	22657.225
2642.91306	22629.525
2645.56209	22584.925
2648.20948	22610.425
2650.85521	22593.625
2653.4993	22602.925
2656.14175	22592.325
2658.78255	22628.025
2661.42171	22613.925
2664.05923	22669.625
2666.6951	22663.925
2669.32934	22691.225
2671.96194	22659.225
2674.59291	22694.625
2677.22224	22666.625
2679.84993	22653.625
2682.476	22613.025
2685.10043	22642.225
2687.72324	22609.625
2690.34441	22648.425
2692.96396	22655.125
2695.58188	22618.125
2698.19818	22621.825
2700.81285	22650.325
2703.4259	22634.125
2706.03733	22653.825
2708.64714	22685.125
2711.25533	22699.525
2713.86191	22710.525
2716.46687	22726.225
2719.07021	22724.825
2721.67194	22720.025
2724.27206	22688.425
2726.87057	22724.325
2729.46747	22750.025
2732.06276	22795.325
2734.65644	22755.625
2737.24852	22743.625
2739.83899	22718.125
2742.42786	22721.825
2745.01513	22661.425
2747.60079	22674.025
2750.18486	22569.925
2752.76733	22578.825
2755.3482	22597.025
2757.92747	22599.825
2760.50515	22544.525
2763.08123	22497.125
2765.65573	22466.925
2768.22863	22518.825
2770.79994	22506.625
2773.36967	22515.925
2775.9378	22478.625
2778.50435	22477.525
2781.06932	22473.525
2783.6327	22439.125
2786.1945	22404.425
2788.75471	22408.425
2791.31335	22354.825
2793.87041	22321.225
2796.42589	22301.325
2798.97979	22295.325
2801.53212	22289.525
2804.08288	22219.625
2806.63206	22139.525
2809.17967	22125.325
2811.72571	22078.925
2814.27018	22082.925
2816.81308	22048.625
2819.35442	22001.025
2821.89419	21959.325
2824.43239	21901.225
2826.96904	21893.925
2829.50412	21888.225
2832.03763	21879.125
2834.56959	21827.225
2837.1	21843.325
2839.62884	21833.125
2842.15613	21814.925
2844.68186	21823.625
2847.20604	21787.425
2849.72867	21782.825
2852.24974	21750.925
2854.76927	21740.225
2857.28724	21707.225
2859.80367	21669.025
2862.31855	21680.125
2864.83189	21690.825
2867.34368	21626.425
2869.85393	21618.025
2872.36264	21607.325
2874.8698	21594.525
2877.37543	21581.725
2879.87952	21570.625
2882.38207	21543.125
2884.88308	21514.325
2887.38256	21521.825
2889.88051	21535.325
2892.37692	21549.825
2894.8718	21566.625
2897.36515	21581.725
2899.85698	21619.425
2902.34727	21643.025
2904.83604	21649.825
2907.32328	21743.925
2909.809	21702.325
2912.29319	21702.125
2914.77587	21709.725
2917.25702	21728.925
2919.73665	21735.525
2922.21476	21710.325
2924.69136	21628.325
2927.16644	21624.625
2929.64	21616.125
2932.11205	21591.225
2934.58258	21536.625
2937.05161	21569.425
2939.51912	21556.325
2941.98513	21568.025
2944.44962	21552.025
2946.91261	21463.725
2949.37409	21516.225
2951.83407	21516.025
2954.29254	21516.625
2956.74951	21532.225
2959.20498	21535.925
2961.65895	21525.425
2964.11142	21533.325
2966.56239	21519.925
2969.01186	21494.525
2971.45984	21413.225
2973.90632	21456.125
2976.35131	21389.825
2978.7948	21385.425
2981.23681	21380.125
2983.67732	21318.525
2986.11635	21276.625
2988.55388	21255.625
2990.98993	21234.425
2993.4245	21200.425
2995.85758	21169.425
2998.28917	21097.025
3000.71928	21071.025
3003.14791	21062.425
3005.57506	21004.425
3008.00073	20930.725
3010.42493	20944.325
3012.84764	20881.025
3015.26888	20873.925
3017.68865	20867.425
3020.10694	20818.225
3022.52376	20786.525
3024.9391	20774.025
3027.35298	20753.825
3029.76539	20744.725
3032.17632	20736.025
3034.5858	20686.725
3036.9938	20640.125
3039.40034	20625.525
3041.80542	20620.925
3044.20903	20501.125
3046.61118	20552.825
3049.01187	20497.025
3051.4111	20476.425
3053.80888	20449.625
3056.20519	20425.525
3058.60005	20408.325
3060.99345	20369.125
3063.3854	20327.425
3065.7759	20289.225
3068.16494	20255.025
3070.55254	20174.825
3072.93868	20124.125
3075.32338	20078.825
3077.70662	20029.325
3080.08842	19977.525
3082.46878	19985.825
3084.84769	19935.325
3087.22515	19960.525
3089.60118	19964.525
3091.97576	19929.525
3094.3489	19933.425
3096.72061	19925.425
3099.09087	19918.625
3101.4597	19916.025
3103.82709	19899.725
3106.19305	19885.625
3108.55757	19903.525
3110.92066	19855.225
3113.28232	19858.325
3115.64255	19806.825
3118.00134	19800.325
3120.35871	19746.925
3122.71466	19716.525
3125.06917	19670.725
3127.42226	19620.625
3129.77393	19646.325
3132.12417	19614.825
3134.47299	19613.825
3136.82039	19525.825
3139.16636	19568.525
3141.51092	19531.325
3143.85406	19517.725
3146.19579	19528.525
3148.53609	19532.825
3150.87499	19538.425
3153.21246	19554.925
3155.54853	19552.225
3157.88318	19594.325
3160.21642	19582.625
3162.54826	19581.525
3164.87868	19553.525
3167.2077	19549.925
3169.5353	19507.325
3171.86151	19541.825
3174.18631	19517.925
3176.5097	19490.925
3178.83169	19456.825
3181.15228	19430.425
3183.47147	19395.225
3185.78926	19386.625
3188.10565	19353.825
3190.42065	19329.925
3192.73424	19360.025
3195.04645	19295.825
3197.35725	19282.925
3199.66667	19255.025
3201.97469	19255.925
3204.28132	19204.525
3206.58656	19304.425
3208.8904	19304.225
3211.19287	19282.225
3213.49394	19259.325
3215.79363	19277.525
3218.09193	19273.525
3220.38884	19258.125
3222.68438	19302.425
3224.97853	19278.225
3227.2713	19272.825
3229.56269	19303.425
3231.8527	19304.925
3234.14133	19263.325
3236.42858	19219.625
3238.71446	19188.825
3240.99896	19095.425
3243.28209	19088.325
3245.56384	19076.625
3247.84423	19112.325
3250.12324	19077.325
3252.40088	19041.625
3254.67715	19027.025
3256.95205	18969.925
3259.22558	18998.825
3261.49775	18995.425
3263.76855	19003.025
3266.03799	18987.625
3268.30606	18948.225
3270.57277	18937.725
3272.83812	18904.725
3275.10211	18842.525
3277.36474	18827.725
3279.62601	18781.025
3281.88593	18762.725
3284.14448	18796.725
3286.40168	18824.125
3288.65753	18805.225
3290.91202	18777.325
3293.16516	18728.025
3295.41695	18744.125
3297.66738	18622.525
3299.91647	18552.525
3302.16421	18419.225
3304.4106	18353.225
3306.65564	18224.825
3308.89933	18087.225
3311.14169	17992.025
3313.38269	17852.025
3315.62236	17771.425
3317.86068	17634.725
3320.09766	17530.225
3322.3333	17437.725
3324.5676	17288.025
3326.80056	17093.025
3329.03219	17026.325
3331.26248	3.725
3333.49143	1.625
3335.71905	1.025
