Data from AgNPs_UA_1uM_CRN_0uM_R6G_10uM_Q_RamanShift__33__12-49-15-903.txt Node

Date: Wed Jul 13 12:49:15 BST 2022
User: TCL
Spectrometer: QEP01345
Trigger mode: 4
Integration Time (sec): 7.000000E0
Scans to average: 10
Electric dark correction enabled: true
Nonlinearity correction enabled: false
Boxcar width: 0
XAxis mode: Raman Shifts
Number of Pixels in Spectrum: 1044
>>>>>Begin Spectral Data<<<<<
46.04893	-1.2375
50.45542	-0.5375
54.85868	-0.6375
59.25871	-0.3375
63.6555	49.2625
68.04907	54.0625
72.43941	55.9625
76.82654	61.1625
81.21044	64.7625
85.59113	64.3625
89.96862	69.3625
94.34289	72.4625
98.71396	73.5625
103.08183	76.5625
107.4465	81.1625
111.80798	72.2625
116.16626	79.6625
120.52136	81.8625
124.87327	80.1625
129.222	85.1625
133.56755	86.5625
137.90993	93.2625
142.24913	96.1625
146.58517	102.8625
150.91804	112.8625
155.24774	134.2625
159.57429	156.0625
163.89768	191.9625
168.21792	250.3625
172.53501	324.8625
176.84895	439.7625
181.15975	603.1625
185.46741	836.3625
189.77193	1144.3625
194.07331	1510.7625
198.37157	1936.4625
202.6667	2362.5625
206.9587	2816.8625
211.24758	3266.4625
215.53334	3743.3625
219.81599	4275.5625
224.09553	4874.0625
228.37195	5523.0625
232.64527	6229.5625
236.91549	6915.9625
241.18261	7524.5625
245.44663	8028.3625
249.70755	8437.6625
253.96539	8773.6625
258.22014	9052.7625
262.4718	9302.5625
266.72039	9472.9625
270.96589	9562.3625
275.20832	9526.8625
279.44768	9434.7625
283.68397	9361.6625
287.91719	9334.8625
292.14735	9439.7625
296.37445	9658.5625
300.59849	9964.3625
304.81948	10332.7625
309.03742	10594.1625
313.25231	10492.7625
317.46415	9975.6625
321.67296	9255.6625
325.87872	8724.2625
330.08145	8505.2625
334.28114	8523.1625
338.47781	8679.4625
342.67145	8925.1625
346.86207	9316.8625
351.04966	9851.0625
355.23424	10440.6625
359.4158	10847.1625
363.59435	11009.9625
367.76989	11016.0625
371.94243	10942.9625
376.11196	10853.0625
380.27849	10764.6625
384.44203	10652.1625
388.60257	10517.6625
392.76012	10532.9625
396.91468	10682.9625
401.06626	11009.2625
405.21485	11204.8625
409.36047	10981.5625
413.50311	10518.7625
417.64277	10287.4625
421.77947	10133.6625
425.9132	9883.3625
430.04396	9865.2625
434.17176	10010.4625
438.2966	10256.1625
442.41849	10647.4625
446.53742	11173.9625
450.6534	11595.3625
454.76644	11775.6625
458.87653	11713.6625
462.98368	11402.6625
467.08789	11073.1625
471.18916	10704.5625
475.2875	10388.6625
479.38291	10164.4625
483.4754	9950.0625
487.56496	9778.0625
491.6516	9636.5625
495.73531	9545.9625
499.81612	9557.0625
503.89401	9655.4625
507.96899	9750.2625
512.04106	9834.8625
516.11023	9888.4625
520.1765	9945.3625
524.23987	9903.4625
528.30034	9778.3625
532.35792	9616.8625
536.41261	9358.4625
540.46441	9114.9625
544.51333	8988.7625
548.55936	9126.9625
552.60252	9423.0625
556.64279	9746.7625
560.6802	9945.3625
564.71473	10208.1625
568.7464	10786.2625
572.7752	11148.5625
576.80114	10938.9625
580.82422	10807.8625
584.84444	10863.0625
588.86181	11132.2625
592.87633	11520.7625
596.888	11828.1625
600.89682	12166.5625
604.9028	13335.7625
608.90594	16474.4625
612.90624	19614.2625
616.90371	17282.1625
620.89834	12126.4625
624.89015	10173.0625
628.87913	9905.3625
632.86528	9948.2625
636.84862	9931.7625
640.82913	9601.9625
644.80683	9114.2625
648.78172	8849.0625
652.75379	8957.8625
656.72306	9409.5625
660.68952	9807.5625
664.65319	9581.4625
668.61405	9156.9625
672.57211	8940.5625
676.52738	8929.1625
680.47986	8847.1625
684.42955	8753.3625
688.37646	8716.7625
692.32058	8801.2625
696.26192	8916.3625
700.20048	9085.7625
704.13626	9209.6625
708.06928	9196.8625
711.99952	9070.4625
715.927	9012.1625
719.85171	9022.3625
723.77365	8959.5625
727.69284	8836.3625
731.60928	8770.9625
735.52295	8842.8625
739.43388	8910.8625
743.34206	9003.2625
747.24749	9106.3625
751.15017	9254.4625
755.05012	9534.3625
758.94733	10181.6625
762.8418	11548.7625
766.73354	13588.1625
770.62254	15344.9625
774.50882	15762.7625
778.39237	14682.2625
782.27321	12602.2625
786.15132	10759.3625
790.02671	9712.7625
793.89938	9246.8625
797.76935	9032.2625
801.6366	8952.6625
805.50115	8861.5625
809.36299	8778.8625
813.22213	8752.3625
817.07857	8738.3625
820.93231	8754.7625
824.78336	8819.6625
828.63172	8884.6625
832.47738	8902.5625
836.32036	8881.5625
840.16066	8825.6625
843.99827	8771.6625
847.8332	8709.5625
851.66546	8698.9625
855.49504	8684.4625
859.32195	8646.0625
863.1462	8550.1625
866.96777	8547.3625
870.78668	8525.1625
874.60293	8559.6625
878.41652	8632.3625
882.22745	8696.8625
886.03573	8753.1625
889.84136	8696.0625
893.64433	8652.2625
897.44466	8618.0625
901.24235	8613.9625
905.0374	8584.1625
908.8298	8528.9625
912.61957	8551.5625
916.40671	8636.3625
920.19121	8802.2625
923.97308	8956.9625
927.75233	9069.5625
931.52895	9046.0625
935.30295	8854.2625
939.07433	8556.0625
942.84309	8305.9625
946.60924	8198.1625
950.37278	8136.8625
954.13371	8084.2625
957.89203	8073.0625
961.64774	8032.0625
965.40086	8016.5625
969.15137	8005.3625
972.89929	7992.7625
976.64461	7990.9625
980.38733	8005.2625
984.12747	8029.0625
987.86502	8096.9625
991.59999	8181.5625
995.33237	8388.9625
999.06217	8769.5625
1002.78939	9214.6625
1006.51404	9535.6625
1010.23611	9797.3625
1013.95561	9888.0625
1017.67255	9784.1625
1021.38692	9483.4625
1025.09872	9184.1625
1028.80796	9143.3625
1032.51465	9252.3625
1036.21877	9412.2625
1039.92035	9503.4625
1043.61937	9459.7625
1047.31584	9345.7625
1051.00976	9178.3625
1054.70114	9080.5625
1058.38998	9098.3625
1062.07627	9152.5625
1065.76003	9232.0625
1069.44126	9369.4625
1073.11995	9549.8625
1076.79611	9706.8625
1080.46974	9882.2625
1084.14085	10141.2625
1087.80943	10376.6625
1091.47549	10421.7625
1095.13903	10160.7625
1098.80005	9776.2625
1102.45857	9435.0625
1106.11456	9284.6625
1109.76805	9330.8625
1113.41903	9545.4625
1117.06751	9881.5625
1120.71348	10318.7625
1124.35696	10780.9625
1127.99793	11100.7625
1131.63641	10949.9625
1135.2724	10460.2625
1138.90589	10047.5625
1142.5369	9838.5625
1146.16542	9704.6625
1149.79145	9670.9625
1153.415	9755.3625
1157.03607	9913.1625
1160.65467	10182.7625
1164.27079	10668.8625
1167.88443	11436.2625
1171.49561	12695.4625
1175.10432	14656.9625
1178.71056	17035.8625
1182.31434	18698.6625
1185.91565	19120.7625
1189.51451	18631.6625
1193.11091	17434.6625
1196.70485	16045.7625
1200.29634	14810.7625
1203.88538	13784.9625
1207.47197	12839.9625
1211.05612	12184.0625
1214.63782	11946.1625
1218.21708	12041.8625
1221.79391	12224.4625
1225.36829	12313.4625
1228.94024	12259.2625
1232.50976	12071.5625
1236.07685	11918.6625
1239.6415	11806.3625
1243.20374	11797.4625
1246.76355	11769.2625
1250.32093	11883.7625
1253.8759	12236.3625
1257.42845	12689.4625
1260.97859	13216.5625
1264.52631	13710.3625
1268.07163	14134.9625
1271.61453	14588.4625
1275.15503	14983.3625
1278.69312	15295.3625
1282.22882	15669.6625
1285.76211	16222.8625
1289.29301	16977.4625
1292.82151	17724.4625
1296.34761	18613.6625
1299.87133	19778.7625
1303.39266	21543.3625
1306.9116	24060.5625
1310.42815	26701.0625
1313.94233	28130.8625
1317.45412	27632.4625
1320.96354	26044.2625
1324.47058	24321.3625
1327.97525	22888.6625
1331.47754	22071.8625
1334.97747	21730.5625
1338.47502	21732.0625
1341.97022	21920.2625
1345.46305	22261.8625
1348.95352	22874.7625
1352.44163	23889.8625
1355.92738	25757.2625
1359.41078	28613.5625
1362.89183	30828.6625
1366.37053	29468.2625
1369.84688	25490.7625
1373.32088	21542.5625
1376.79254	19036.9625
1380.26186	17784.4625
1383.72883	17217.9625
1387.19347	16844.7625
1390.65578	16450.3625
1394.11575	16365.8625
1397.57339	16615.4625
1401.0287	17068.2625
1404.48168	17540.9625
1407.93234	17808.2625
1411.38068	17775.7625
1414.82669	17368.5625
1418.27039	16536.0625
1421.71177	15676.2625
1425.15083	15072.5625
1428.58758	14857.5625
1432.02203	14987.3625
1435.45416	15238.3625
1438.88399	15417.5625
1442.31151	15512.8625
1445.73673	15666.2625
1449.15965	15735.1625
1452.58027	15701.8625
1455.9986	15605.1625
1459.41463	15648.2625
1462.82837	15894.2625
1466.23982	16290.4625
1469.64898	16597.9625
1473.05586	16777.6625
1476.46045	16890.6625
1479.86276	16995.5625
1483.26279	17176.6625
1486.66054	17463.4625
1490.05602	17890.5625
1493.44922	18459.1625
1496.84016	19243.3625
1500.22882	20587.8625
1503.61521	22365.8625
1506.99934	24469.7625
1510.38121	26253.8625
1513.76081	26738.9625
1517.13816	25303.5625
1520.51324	22701.5625
1523.88607	20322.4625
1527.25665	18893.6625
1530.62498	18118.7625
1533.99105	17741.9625
1537.35488	17426.4625
1540.71647	17197.0625
1544.07581	16914.0625
1547.4329	16556.7625
1550.78776	16148.1625
1554.14038	15742.3625
1557.49077	15623.6625
1560.83892	15618.2625
1564.18484	15874.2625
1567.52853	16166.6625
1570.86999	16474.8625
1574.20922	16667.5625
1577.54624	16559.9625
1580.88103	15918.3625
1584.2136	15221.3625
1587.54395	15265.6625
1590.87208	16183.6625
1594.19801	17795.5625
1597.52172	19652.0625
1600.84321	20480.9625
1604.16251	19702.0625
1607.47959	17847.5625
1610.79447	15662.6625
1614.10715	13787.7625
1617.41763	12426.6625
1620.7259	11652.4625
1624.03199	11314.3625
1627.33587	11369.0625
1630.63757	11824.3625
1633.93707	12720.2625
1637.23439	14172.1625
1640.52951	16155.3625
1643.82246	18616.8625
1647.11321	20728.0625
1650.40179	21573.6625
1653.68819	20107.7625
1656.97241	17021.3625
1660.25446	13943.0625
1663.53433	11692.6625
1666.81203	10338.9625
1670.08756	9542.6625
1673.36092	9052.8625
1676.63211	8739.5625
1679.90115	8516.9625
1683.16801	8383.5625
1686.43272	8264.0625
1689.69527	8189.2625
1692.95567	8116.9625
1696.2139	8081.9625
1699.46999	8060.7625
1702.72392	8045.2625
1705.97571	8003.4625
1709.22535	7985.3625
1712.47284	8012.5625
1715.71819	8013.0625
1718.96139	8003.7625
1722.20246	7943.3625
1725.44139	7917.8625
1728.67818	7862.2625
1731.91284	7790.0625
1735.14537	7741.8625
1738.37576	7700.7625
1741.60403	7661.1625
1744.83017	7626.2625
1748.05418	7609.6625
1751.27607	7558.4625
1754.49584	7581.7625
1757.71349	7584.4625
1760.92903	7554.8625
1764.14244	7551.0625
1767.35375	7556.7625
1770.56294	7517.4625
1773.77002	7513.1625
1776.97499	7486.5625
1780.17785	7457.1625
1783.37861	7459.4625
1786.57727	7436.3625
1789.77382	7408.0625
1792.96828	7393.1625
1796.16064	7401.4625
1799.3509	7406.3625
1802.53907	7384.5625
1805.72514	7357.9625
1808.90913	7333.7625
1812.09102	7318.1625
1815.27083	7299.6625
1818.44856	7276.7625
1821.6242	7254.9625
1824.79776	7245.5625
1827.96924	7229.7625
1831.13864	7243.0625
1834.30597	7230.2625
1837.47122	7232.7625
1840.6344	7231.3625
1843.7955	7212.4625
1846.95454	7212.2625
1850.11151	7221.1625
1853.26642	7220.3625
1856.41926	7204.9625
1859.57004	7210.0625
1862.71876	7214.7625
1865.86542	7232.0625
1869.01003	7224.5625
1872.15258	7255.1625
1875.29308	7238.3625
1878.43152	7264.1625
1881.56792	7254.6625
1884.70227	7250.7625
1887.83457	7261.7625
1890.96482	7268.1625
1894.09304	7289.9625
1897.21921	7273.2625
1900.34335	7271.5625
1903.46544	7254.9625
1906.58551	7281.8625
1909.70353	7275.9625
1912.81953	7263.7625
1915.93349	7254.8625
1919.04543	7256.3625
1922.15534	7239.4625
1925.26322	7220.7625
1928.36908	7195.9625
1931.47292	7179.7625
1934.57473	7133.0625
1937.67453	7116.5625
1940.77232	7057.6625
1943.86808	7031.1625
1946.96184	7009.4625
1950.05358	6973.6625
1953.14331	6938.7625
1956.23103	6916.1625
1959.31675	6889.0625
1962.40046	6849.6625
1965.48217	6856.7625
1968.56188	6830.7625
1971.63959	6792.9625
1974.7153	6784.5625
1977.78901	6774.5625
1980.86073	6742.7625
1983.93046	6714.9625
1986.99819	6696.9625
1990.06394	6669.2625
1993.1277	6662.8625
1996.18947	6634.9625
1999.24925	6618.3625
2002.30706	6597.0625
2005.36288	6557.2625
2008.41672	6550.2625
2011.46859	6546.3625
2014.51848	6511.2625
2017.56639	6504.1625
2020.61233	6481.5625
2023.6563	6459.7625
2026.6983	6427.6625
2029.73833	6431.8625
2032.7764	6407.4625
2035.8125	6395.4625
2038.84664	6384.3625
2041.87881	6374.8625
2044.90903	6354.2625
2047.93729	6361.2625
2050.96359	6369.2625
2053.98794	6332.8625
2057.01034	6321.7625
2060.03078	6321.8625
2063.04927	6303.4625
2066.06582	6288.9625
2069.08042	6300.7625
2072.09307	6288.1625
2075.10378	6261.4625
2078.11255	6265.5625
2081.11938	6262.9625
2084.12426	6253.6625
2087.12722	6233.7625
2090.12824	6247.3625
2093.12732	6246.8625
2096.12447	6233.7625
2099.11969	6245.2625
2102.11299	6250.5625
2105.10435	6243.1625
2108.09379	6218.2625
2111.08131	6232.4625
2114.0669	6239.7625
2117.05057	6226.4625
2120.03233	6229.4625
2123.01216	6244.5625
2125.99008	6239.6625
2128.96609	6240.5625
2131.94018	6276.1625
2134.91236	6252.1625
2137.88263	6251.9625
2140.851	6239.1625
2143.81746	6260.4625
2146.78201	6248.8625
2149.74466	6246.0625
2152.7054	6240.4625
2155.66425	6216.3625
2158.6212	6225.2625
2161.57625	6204.8625
2164.52941	6192.2625
2167.48067	6204.4625
2170.43004	6196.2625
2173.37752	6213.0625
2176.32311	6192.5625
2179.26681	6219.1625
2182.20863	6208.6625
2185.14856	6200.2625
2188.08661	6203.7625
2191.02278	6213.2625
2193.95707	6219.3625
2196.88948	6193.7625
2199.82001	6188.3625
2202.74867	6165.4625
2205.67545	6180.8625
2208.60037	6174.0625
2211.52341	6162.7625
2214.44458	6142.1625
2217.36388	6125.4625
2220.28132	6110.9625
2223.1969	6084.7625
2226.11061	6098.9625
2229.02246	6074.7625
2231.93245	6071.4625
2234.84058	6057.3625
2237.74686	6057.0625
2240.65128	6046.1625
2243.55385	6056.2625
2246.45456	6031.0625
2249.35343	6027.4625
2252.25044	6014.1625
2255.14561	5997.1625
2258.03893	5996.9625
2260.93041	5989.7625
2263.82004	5976.8625
2266.70783	5946.9625
2269.59378	5924.9625
2272.4779	5923.7625
2275.36017	5917.3625
2278.24061	5883.3625
2281.11922	5877.6625
2283.996	5861.1625
2286.87094	5854.2625
2289.74405	5832.5625
2292.61534	5828.8625
2295.4848	5830.8625
2298.35243	5832.3625
2301.21824	5819.9625
2304.08223	5813.7625
2306.94439	5817.0625
2309.80474	5826.0625
2312.66327	5833.6625
2315.51999	5815.9625
2318.37489	5821.0625
2321.22797	5796.6625
2324.07925	5796.9625
2326.92871	5798.5625
2329.77637	5796.1625
2332.62222	5795.1625
2335.46626	5784.5625
2338.3085	5774.5625
2341.14893	5776.1625
2343.98756	5787.3625
2346.8244	5790.7625
2349.65943	5785.6625
2352.49267	5776.1625
2355.32411	5798.9625
2358.15376	5798.0625
2360.98161	5799.8625
2363.80768	5794.1625
2366.63195	5800.7625
2369.45444	5798.7625
2372.27514	5773.8625
2375.09405	5774.0625
2377.91118	5762.3625
2380.72652	5742.4625
2383.54009	5727.3625
2386.35187	5693.6625
2389.16188	5672.0625
2391.97011	5654.0625
2394.77657	5641.1625
2397.58125	5620.3625
2400.38416	5622.9625
2403.18529	5611.0625
2405.98466	5604.6625
2408.78226	5579.2625
2411.57809	5591.5625
2414.37216	5558.5625
2417.16446	5557.2625
2419.955	5569.5625
2422.74378	5536.9625
2425.5308	5544.6625
2428.31606	5533.3625
2431.09956	5548.2625
2433.88131	5518.2625
2436.6613	5540.2625
2439.43954	5527.2625
2442.21603	5531.2625
2444.99077	5540.2625
2447.76377	5529.3625
2450.53501	5524.6625
2453.30451	5529.1625
2456.07226	5515.4625
2458.83827	5521.3625
2461.60254	5530.3625
2464.36507	5505.3625
2467.12586	5517.1625
2469.88492	5519.0625
2472.64224	5502.9625
2475.39782	5524.4625
2478.15167	5533.7625
2480.90379	5534.6625
2483.65417	5543.3625
2486.40283	5554.0625
2489.14976	5558.3625
2491.89497	5559.9625
2494.63845	5570.8625
2497.3802	5571.3625
2500.12024	5559.2625
2502.85855	5555.5625
2505.59514	5534.3625
2508.33002	5528.5625
2511.06318	5537.5625
2513.79462	5492.3625
2516.52435	5483.2625
2519.25237	5484.9625
2521.97867	5444.7625
2524.70327	5456.0625
2527.42616	5445.5625
2530.14734	5448.1625
2532.86681	5445.3625
2535.58458	5445.9625
2538.30065	5442.5625
2541.01501	5448.8625
2543.72768	5447.0625
2546.43864	5424.7625
2549.14791	5434.0625
2551.85548	5419.1625
2554.56136	5421.0625
2557.26554	5409.5625
2559.96803	5398.5625
2562.66883	5387.8625
2565.36794	5394.6625
2568.06536	5373.2625
2570.7611	5384.7625
2573.45514	5376.1625
2576.14751	5387.6625
2578.83819	5377.8625
2581.52719	5381.4625
2584.21451	5370.8625
2586.90015	5366.1625
2589.58411	5361.1625
2592.2664	5359.9625
2594.94701	5347.4625
2597.62594	5347.3625
2600.30321	5360.1625
2602.9788	5361.0625
2605.65273	5339.8625
2608.32498	5347.8625
2610.99557	5344.1625
2613.66449	5348.3625
2616.33175	5355.8625
2618.99734	5360.0625
2621.66128	5365.2625
2624.32355	5366.8625
2626.98416	5354.8625
2629.64311	5363.6625
2632.30041	5351.2625
2634.95605	5340.2625
2637.61004	5320.3625
2640.26238	5319.3625
2642.91306	5303.0625
2645.56209	5299.6625
2648.20948	5297.5625
2650.85521	5281.3625
2653.4993	5285.7625
2656.14175	5317.8625
2658.78255	5308.2625
2661.42171	5321.1625
2664.05923	5317.2625
2666.6951	5329.0625
2669.32934	5339.1625
2671.96194	5335.0625
2674.59291	5335.0625
2677.22224	5349.3625
2679.84993	5360.1625
2682.476	5345.1625
2685.10043	5348.3625
2687.72324	5347.1625
2690.34441	5345.5625
2692.96396	5355.7625
2695.58188	5336.2625
2698.19818	5335.6625
2700.81285	5325.0625
2703.4259	5329.2625
2706.03733	5352.3625
2708.64714	5340.8625
2711.25533	5347.4625
2713.86191	5345.3625
2716.46687	5357.7625
2719.07021	5339.8625
2721.67194	5375.4625
2724.27206	5372.9625
2726.87057	5363.8625
2729.46747	5379.0625
2732.06276	5358.6625
2734.65644	5372.0625
2737.24852	5357.9625
2739.83899	5371.9625
2742.42786	5369.5625
2745.01513	5342.9625
2747.60079	5363.4625
2750.18486	5336.0625
2752.76733	5332.8625
2755.3482	5323.0625
2757.92747	5356.5625
2760.50515	5326.4625
2763.08123	5323.1625
2765.65573	5321.0625
2768.22863	5325.5625
2770.79994	5308.7625
2773.36967	5291.8625
2775.9378	5315.6625
2778.50435	5305.9625
2781.06932	5328.5625
2783.6327	5308.5625
2786.1945	5316.8625
2788.75471	5313.3625
2791.31335	5299.6625
2793.87041	5304.1625
2796.42589	5318.1625
2798.97979	5289.5625
2801.53212	5277.1625
2804.08288	5283.1625
2806.63206	5253.8625
2809.17967	5246.5625
2811.72571	5239.8625
2814.27018	5257.1625
2816.81308	5248.0625
2819.35442	5257.3625
2821.89419	5254.4625
2824.43239	5245.9625
2826.96904	5263.6625
2829.50412	5257.9625
2832.03763	5252.3625
2834.56959	5271.7625
2837.1	5265.7625
2839.62884	5265.6625
2842.15613	5260.6625
2844.68186	5294.2625
2847.20604	5326.1625
2849.72867	5328.4625
2852.24974	5330.2625
2854.76927	5320.9625
2857.28724	5330.7625
2859.80367	5315.5625
2862.31855	5316.0625
2864.83189	5293.7625
2867.34368	5305.9625
2869.85393	5289.8625
2872.36264	5266.2625
2874.8698	5267.7625
2877.37543	5276.7625
2879.87952	5250.4625
2882.38207	5251.6625
2884.88308	5234.7625
2887.38256	5244.1625
2889.88051	5235.4625
2892.37692	5245.6625
2894.8718	5250.9625
2897.36515	5249.9625
2899.85698	5256.4625
2902.34727	5271.6625
2904.83604	5262.9625
2907.32328	5273.6625
2909.809	5271.1625
2912.29319	5262.8625
2914.77587	5278.2625
2917.25702	5257.9625
2919.73665	5262.8625
2922.21476	5230.6625
2924.69136	5227.8625
2927.16644	5234.0625
2929.64	5218.2625
2932.11205	5205.1625
2934.58258	5190.1625
2937.05161	5173.3625
2939.51912	5164.0625
2941.98513	5179.8625
2944.44962	5145.8625
2946.91261	5093.5625
2949.37409	5103.5625
2951.83407	5100.7625
2954.29254	5065.8625
2956.74951	5075.0625
2959.20498	5079.5625
2961.65895	5040.3625
2964.11142	5056.8625
2966.56239	5046.6625
2969.01186	5037.8625
2971.45984	5025.9625
2973.90632	5006.5625
2976.35131	4979.4625
2978.7948	4987.7625
2981.23681	4959.3625
2983.67732	4981.7625
2986.11635	4975.4625
2988.55388	4940.2625
2990.98993	4891.6625
2993.4245	4879.9625
2995.85758	4864.0625
2998.28917	4873.6625
3000.71928	4850.5625
3003.14791	4844.5625
3005.57506	4830.1625
3008.00073	4817.2625
3010.42493	4803.6625
3012.84764	4807.5625
3015.26888	4777.4625
3017.68865	4758.6625
3020.10694	4745.6625
3022.52376	4745.9625
3024.9391	4738.4625
3027.35298	4731.5625
3029.76539	4741.5625
3032.17632	4717.4625
3034.5858	4720.7625
3036.9938	4698.0625
3039.40034	4695.4625
3041.80542	4695.8625
3044.20903	4692.3625
3046.61118	4698.4625
3049.01187	4668.1625
3051.4111	4673.4625
3053.80888	4655.3625
3056.20519	4650.0625
3058.60005	4647.3625
3060.99345	4627.7625
3063.3854	4594.4625
3065.7759	4588.9625
3068.16494	4580.0625
3070.55254	4541.5625
3072.93868	4529.5625
3075.32338	4508.9625
3077.70662	4501.6625
3080.08842	4484.2625
3082.46878	4478.0625
3084.84769	4463.6625
3087.22515	4456.5625
3089.60118	4437.1625
3091.97576	4458.7625
3094.3489	4441.6625
3096.72061	4434.6625
3099.09087	4445.3625
3101.4597	4434.2625
3103.82709	4434.1625
3106.19305	4408.8625
3108.55757	4406.8625
3110.92066	4398.7625
3113.28232	4408.1625
3115.64255	4384.1625
3118.00134	4375.4625
3120.35871	4387.7625
3122.71466	4365.5625
3125.06917	4370.4625
3127.42226	4345.5625
3129.77393	4364.0625
3132.12417	4335.6625
3134.47299	4338.5625
3136.82039	4348.4625
3139.16636	4329.5625
3141.51092	4346.2625
3143.85406	4337.8625
3146.19579	4337.0625
3148.53609	4323.9625
3150.87499	4329.1625
3153.21246	4328.0625
3155.54853	4329.3625
3157.88318	4323.4625
3160.21642	4328.2625
3162.54826	4320.8625
3164.87868	4337.3625
3167.2077	4344.8625
3169.5353	4343.5625
3171.86151	4338.6625
3174.18631	4342.6625
3176.5097	4321.0625
3178.83169	4312.7625
3181.15228	4319.6625
3183.47147	4305.7625
3185.78926	4328.9625
3188.10565	4319.0625
3190.42065	4306.0625
3192.73424	4320.9625
3195.04645	4328.4625
3197.35725	4295.1625
3199.66667	4306.2625
3201.97469	4325.3625
3204.28132	4311.5625
3206.58656	4315.8625
3208.8904	4313.7625
3211.19287	4298.3625
3213.49394	4303.2625
3215.79363	4315.6625
3218.09193	4329.1625
3220.38884	4315.6625
3222.68438	4331.8625
3224.97853	4306.7625
3227.2713	4313.0625
3229.56269	4316.6625
3231.8527	4316.9625
3234.14133	4305.4625
3236.42858	4300.7625
3238.71446	4284.3625
3240.99896	4272.2625
3243.28209	4277.7625
3245.56384	4257.9625
3247.84423	4255.3625
3250.12324	4251.2625
3252.40088	4249.0625
3254.67715	4233.8625
3256.95205	4232.8625
3259.22558	4235.2625
3261.49775	4224.4625
3263.76855	4217.6625
3266.03799	4201.2625
3268.30606	4206.9625
3270.57277	4209.8625
3272.83812	4184.0625
3275.10211	4191.0625
3277.36474	4167.4625
3279.62601	4177.2625
3281.88593	4146.4625
3284.14448	4175.2625
3286.40168	4161.5625
3288.65753	4168.7625
3290.91202	4174.6625
3293.16516	4164.9625
3295.41695	4138.9625
3297.66738	4113.1625
3299.91647	4106.7625
3302.16421	4064.4625
3304.4106	4056.7625
3306.65564	4033.0625
3308.89933	4011.6625
3311.14169	3990.2625
3313.38269	3950.2625
3315.62236	3914.7625
3317.86068	3893.6625
3320.09766	3860.5625
3322.3333	3817.3625
3324.5676	3807.3625
3326.80056	3755.8625
3329.03219	3722.5625
3331.26248	1.5625
3333.49143	1.9625
3335.71905	0.4625
