Data from AgNPs_UA_0uM_CRN_0uM_R6G_10uM_Q_RamanShift__31__11-54-38-782.txt Node

Date: Wed Jul 13 11:54:38 BST 2022
User: TCL
Spectrometer: QEP01345
Trigger mode: 4
Integration Time (sec): 7.000000E0
Scans to average: 10
Electric dark correction enabled: true
Nonlinearity correction enabled: false
Boxcar width: 0
XAxis mode: Raman Shifts
Number of Pixels in Spectrum: 1044
>>>>>Begin Spectral Data<<<<<
46.04893	1
50.45542	0.3
54.85868	-1
59.25871	-1.1
63.6555	42.2
68.04907	42.4
72.43941	47.4
76.82654	55.1
81.21044	54.6
85.59113	64.1
89.96862	63.8
94.34289	61.9
98.71396	61.5
103.08183	69.2
107.4465	68.5
111.80798	68.5
116.16626	70.1
120.52136	68.9
124.87327	67.4
129.222	69.1
133.56755	69.8
137.90993	74.3
142.24913	77.8
146.58517	79
150.91804	80.9
155.24774	90.2
159.57429	104.3
163.89768	116.6
168.21792	146
172.53501	187.7
176.84895	245.9
181.15975	336.3
185.46741	448.9
189.77193	599.6
194.07331	785.8
198.37157	1002.2
202.6667	1219.1
206.9587	1460.9
211.24758	1675.2
215.53334	1905.5
219.81599	2172.1
224.09553	2454
228.37195	2791.7
232.64527	3141.3
236.91549	3507.4
241.18261	3835.1
245.44663	4126.4
249.70755	4354.4
253.96539	4537.5
258.22014	4684.6
262.4718	4766.4
266.72039	4785.8
270.96589	4765.2
275.20832	4714.7
279.44768	4618.9
283.68397	4549.8
287.91719	4495.7
292.14735	4485.6
296.37445	4551.5
300.59849	4676
304.81948	4836.9
309.03742	4962.4
313.25231	4955
317.46415	4765.7
321.67296	4485.9
325.87872	4243.9
330.08145	4142.8
334.28114	4160.2
338.47781	4204.8
342.67145	4319
346.86207	4486.8
351.04966	4737.4
355.23424	5000.6
359.4158	5188.4
363.59435	5288.4
367.76989	5295.2
371.94243	5265.2
376.11196	5240.5
380.27849	5219.5
384.44203	5155.7
388.60257	5090.4
392.76012	5091
396.91468	5150.2
401.06626	5276.7
405.21485	5346.6
409.36047	5217.1
413.50311	4981.4
417.64277	4747.4
421.77947	4646.6
425.9132	4610.9
430.04396	4663.3
434.17176	4732.6
438.2966	4857.7
442.41849	5081.2
446.53742	5335.8
450.6534	5548.3
454.76644	5620.1
458.87653	5566
462.98368	5422.9
467.08789	5246
471.18916	5055.3
475.2875	4864
479.38291	4714.8
483.4754	4602.1
487.56496	4495.4
491.6516	4429.7
495.73531	4373.8
499.81612	4365.2
503.89401	4402.2
507.96899	4465.9
512.04106	4539.2
516.11023	4611.9
520.1765	4662.9
524.23987	4647.4
528.30034	4613.8
532.35792	4551.5
536.41261	4409.9
540.46441	4318.6
544.51333	4262.8
548.55936	4285.4
552.60252	4379.7
556.64279	4495.6
560.6802	4573.2
564.71473	4678.6
568.7464	4875.7
572.7752	4980.2
576.80114	4859
580.82422	4752.5
584.84444	4799
588.86181	4984.1
592.87633	5310.5
596.888	5599.4
600.89682	5804.2
604.9028	6293.6
608.90594	7608.4
612.90624	8959.7
616.90371	7955
620.89834	5641
624.89015	4704.7
628.87913	4558.4
632.86528	4586.4
636.84862	4577.4
640.82913	4420.2
644.80683	4207.7
648.78172	4085.3
652.75379	4130.8
656.72306	4311.8
660.68952	4494.2
664.65319	4384.2
668.61405	4186.7
672.57211	4107.1
676.52738	4103.8
680.47986	4050.6
684.42955	3992.6
688.37646	3981.8
692.32058	4013.6
696.26192	4100
700.20048	4174.7
704.13626	4239.9
708.06928	4190.1
711.99952	4101.8
715.927	4077.9
719.85171	4064.8
723.77365	4055.5
727.69284	3995.6
731.60928	3960.7
735.52295	3979.1
739.43388	4024.4
743.34206	4035
747.24749	4053.8
751.15017	4070.4
755.05012	4184.6
758.94733	4496.1
762.8418	5095.9
766.73354	5993.6
770.62254	6772
774.50882	7090
778.39237	6709.8
782.27321	5785.8
786.15132	4881.3
790.02671	4375.9
793.89938	4131.1
797.76935	4021.1
801.6366	3963.5
805.50115	3931.6
809.36299	3889.5
813.22213	3859.9
817.07857	3837
820.93231	3839.8
824.78336	3878.9
828.63172	3907.9
832.47738	3912.3
836.32036	3917.3
840.16066	3872.8
843.99827	3847.7
847.8332	3817.5
851.66546	3802.5
855.49504	3796.3
859.32195	3775.9
863.1462	3749.9
866.96777	3725.1
870.78668	3719.2
874.60293	3718.2
878.41652	3753.6
882.22745	3789.3
886.03573	3813
889.84136	3776.2
893.64433	3760.5
897.44466	3755.7
901.24235	3758.2
905.0374	3720.3
908.8298	3688.7
912.61957	3679.1
916.40671	3698.3
920.19121	3744.6
923.97308	3817.6
927.75233	3883.8
931.52895	3898.7
935.30295	3802.6
939.07433	3659.9
942.84309	3548.4
946.60924	3506.2
950.37278	3467.5
954.13371	3451.1
957.89203	3424.9
961.64774	3402.6
965.40086	3382.7
969.15137	3380.1
972.89929	3382
976.64461	3373.4
980.38733	3367.2
984.12747	3375.4
987.86502	3411.2
991.59999	3458
995.33237	3545.3
999.06217	3682
1002.78939	3867.9
1006.51404	3994.6
1010.23611	4094
1013.95561	4147.1
1017.67255	4129.4
1021.38692	3983.7
1025.09872	3849
1028.80796	3773.7
1032.51465	3806.5
1036.21877	3849.9
1039.92035	3909.2
1043.61937	3911.1
1047.31584	3860
1051.00976	3800.1
1054.70114	3785.2
1058.38998	3777.7
1062.07627	3778
1065.76003	3784.4
1069.44126	3817
1073.11995	3910
1076.79611	4016.8
1080.46974	4107.9
1084.14085	4246.7
1087.80943	4344.5
1091.47549	4354.1
1095.13903	4225.5
1098.80005	4061.7
1102.45857	3931.1
1106.11456	3892.7
1109.76805	3939.8
1113.41903	4055.8
1117.06751	4224.7
1120.71348	4467.1
1124.35696	4718.1
1127.99793	4837.7
1131.63641	4730.1
1135.2724	4452
1138.90589	4249.8
1142.5369	4113.7
1146.16542	4060.2
1149.79145	4041.2
1153.415	4080.7
1157.03607	4134.1
1160.65467	4264.6
1164.27079	4481.5
1167.88443	4823.2
1171.49561	5358
1175.10432	6182.3
1178.71056	7217.1
1182.31434	8039.5
1185.91565	8336.7
1189.51451	8189.2
1193.11091	7739.2
1196.70485	7186.6
1200.29634	6615.3
1203.88538	6032.5
1207.47197	5503.7
1211.05612	5194.4
1214.63782	5085.2
1218.21708	5115.9
1221.79391	5207.2
1225.36829	5250.7
1228.94024	5255.9
1232.50976	5170.5
1236.07685	5103.5
1239.6415	5087.1
1243.20374	5098.7
1246.76355	5076
1250.32093	5100.8
1253.8759	5222
1257.42845	5411.1
1260.97859	5659.3
1264.52631	5923.8
1268.07163	6156.1
1271.61453	6354.2
1275.15503	6494.7
1278.69312	6577.2
1282.22882	6729.2
1285.76211	7008.4
1289.29301	7380.1
1292.82151	7745.8
1296.34761	8190.2
1299.87133	8756
1303.39266	9513.9
1306.9116	10554.4
1310.42815	11631.4
1313.94233	12150.4
1317.45412	11798.9
1320.96354	10952.4
1324.47058	10081.8
1327.97525	9427.1
1331.47754	9032.8
1334.97747	8971.2
1338.47502	9044.7
1341.97022	9199.8
1345.46305	9448
1348.95352	9885.2
1352.44163	10575.2
1355.92738	11630
1359.41078	12927.4
1362.89183	13711.8
1366.37053	12896.2
1369.84688	11140.5
1373.32088	9502
1376.79254	8453.3
1380.26186	7850.4
1383.72883	7468.8
1387.19347	7200.1
1390.65578	6959
1394.11575	6870.1
1397.57339	6922.7
1401.0287	7054.9
1404.48168	7170.7
1407.93234	7230.1
1411.38068	7209.9
1414.82669	7059.3
1418.27039	6778.1
1421.71177	6506
1425.15083	6365.7
1428.58758	6358.6
1432.02203	6478.6
1435.45416	6571
1438.88399	6620.3
1442.31151	6621.3
1445.73673	6619.6
1449.15965	6621
1452.58027	6558.6
1455.9986	6491
1459.41463	6505.7
1462.82837	6655.7
1466.23982	6841.5
1469.64898	6988
1473.05586	7066.7
1476.46045	7108.1
1479.86276	7150.3
1483.26279	7213.7
1486.66054	7300.9
1490.05602	7463.8
1493.44922	7696.4
1496.84016	7994.9
1500.22882	8534.2
1503.61521	9246.1
1506.99934	10072.2
1510.38121	10718.1
1513.76081	10786.4
1517.13816	10094.5
1520.51324	8996.9
1523.88607	8079.7
1527.25665	7547.7
1530.62498	7316.2
1533.99105	7213.5
1537.35488	7117.3
1540.71647	6991.4
1544.07581	6879.3
1547.4329	6737.4
1550.78776	6595.8
1554.14038	6451.4
1557.49077	6372.4
1560.83892	6354.5
1564.18484	6441.3
1567.52853	6583.8
1570.86999	6740.9
1574.20922	6878.5
1577.54624	6793.8
1580.88103	6464.2
1584.2136	6132
1587.54395	6111.5
1590.87208	6453.8
1594.19801	7108.3
1597.52172	7863.8
1600.84321	8262.7
1604.16251	7974.3
1607.47959	7214.8
1610.79447	6320.6
1614.10715	5523.4
1617.41763	4928.7
1620.7259	4591.5
1624.03199	4467.8
1627.33587	4482.4
1630.63757	4679.3
1633.93707	5113.2
1637.23439	5818.1
1640.52951	6831.2
1643.82246	7983.6
1647.11321	8880.7
1650.40179	9040.4
1653.68819	8237.1
1656.97241	6828.5
1660.25446	5499.8
1663.53433	4576
1666.81203	4003.9
1670.08756	3671.8
1673.36092	3438.8
1676.63211	3297.5
1679.90115	3181.6
1683.16801	3115.1
1686.43272	3057.4
1689.69527	3031.8
1692.95567	3007.5
1696.2139	3002.1
1699.46999	2989.9
1702.72392	2972.7
1705.97571	2947
1709.22535	2927.2
1712.47284	2918.7
1715.71819	2912.9
1718.96139	2895.6
1722.20246	2911.9
1725.44139	2869.3
1728.67818	2850.7
1731.91284	2814.2
1735.14537	2780.3
1738.37576	2751.8
1741.60403	2732.6
1744.83017	2713.8
1748.05418	2712.7
1751.27607	2692.9
1754.49584	2694.3
1757.71349	2702.3
1760.92903	2681.5
1764.14244	2684.7
1767.35375	2680.6
1770.56294	2669.4
1773.77002	2653.6
1776.97499	2648.5
1780.17785	2622.7
1783.37861	2613.1
1786.57727	2598.6
1789.77382	2587.2
1792.96828	2579.3
1796.16064	2583
1799.3509	2577.3
1802.53907	2558.3
1805.72514	2563.7
1808.90913	2558.3
1812.09102	2544.8
1815.27083	2535.2
1818.44856	2524.4
1821.6242	2507.3
1824.79776	2497.5
1827.96924	2494.3
1831.13864	2494.5
1834.30597	2493.2
1837.47122	2476.2
1840.6344	2483.4
1843.7955	2478.7
1846.95454	2473.2
1850.11151	2476.1
1853.26642	2481.8
1856.41926	2470.6
1859.57004	2480.5
1862.71876	2478.9
1865.86542	2478
1869.01003	2485.2
1872.15258	2480.8
1875.29308	2486
1878.43152	2479.4
1881.56792	2487.5
1884.70227	2491
1887.83457	2498.3
1890.96482	2482.5
1894.09304	2486.4
1897.21921	2491.3
1900.34335	2473.1
1903.46544	2470.3
1906.58551	2479.5
1909.70353	2484.3
1912.81953	2481.6
1915.93349	2486.1
1919.04543	2468.4
1922.15534	2463.1
1925.26322	2447.7
1928.36908	2436.2
1931.47292	2426.3
1934.57473	2419.9
1937.67453	2394.8
1940.77232	2379.4
1943.86808	2374.2
1946.96184	2364.8
1950.05358	2350.6
1953.14331	2339.5
1956.23103	2343.2
1959.31675	2338.2
1962.40046	2315.5
1965.48217	2312.2
1968.56188	2311.5
1971.63959	2303.8
1974.7153	2285.3
1977.78901	2278.2
1980.86073	2270.1
1983.93046	2258.5
1986.99819	2244.5
1990.06394	2240.2
1993.1277	2229
1996.18947	2220.2
1999.24925	2217.6
2002.30706	2209.5
2005.36288	2202.1
2008.41672	2194
2011.46859	2194.3
2014.51848	2181.1
2017.56639	2181.3
2020.61233	2170.3
2023.6563	2159.7
2026.6983	2152.2
2029.73833	2141.9
2032.7764	2137.9
2035.8125	2146.5
2038.84664	2131.9
2041.87881	2142.3
2044.90903	2134.7
2047.93729	2122.3
2050.96359	2122.2
2053.98794	2116.4
2057.01034	2114.7
2060.03078	2122.1
2063.04927	2106.2
2066.06582	2102.6
2069.08042	2101.6
2072.09307	2096.2
2075.10378	2094.2
2078.11255	2080.4
2081.11938	2102.5
2084.12426	2099.2
2087.12722	2087.3
2090.12824	2076
2093.12732	2087.7
2096.12447	2092.3
2099.11969	2085.5
2102.11299	2082.4
2105.10435	2082.7
2108.09379	2082.5
2111.08131	2080
2114.0669	2079
2117.05057	2083.6
2120.03233	2074.7
2123.01216	2082.3
2125.99008	2093.8
2128.96609	2093.8
2131.94018	2090.4
2134.91236	2085.1
2137.88263	2094.6
2140.851	2082.9
2143.81746	2085.4
2146.78201	2075.9
2149.74466	2069.5
2152.7054	2067.6
2155.66425	2069.3
2158.6212	2067.2
2161.57625	2061
2164.52941	2055.6
2167.48067	2064.4
2170.43004	2060.2
2173.37752	2046.7
2176.32311	2061.5
2179.26681	2065.2
2182.20863	2058.3
2185.14856	2058.5
2188.08661	2048.1
2191.02278	2056.7
2193.95707	2048.2
2196.88948	2047.1
2199.82001	2054.1
2202.74867	2037
2205.67545	2041.4
2208.60037	2042.2
2211.52341	2031.5
2214.44458	2023
2217.36388	2021
2220.28132	2027
2223.1969	1996.4
2226.11061	2008.2
2229.02246	2010.9
2231.93245	1997.1
2234.84058	1999
2237.74686	1984.3
2240.65128	2002.5
2243.55385	1994.5
2246.45456	1991.5
2249.35343	1985.6
2252.25044	1987.1
2255.14561	1982.2
2258.03893	1977.3
2260.93041	1978.8
2263.82004	1971.4
2266.70783	1962
2269.59378	1952.1
2272.4779	1952.9
2275.36017	1949.2
2278.24061	1951.8
2281.11922	1935.5
2283.996	1932.3
2286.87094	1925.9
2289.74405	1925.9
2292.61534	1912.1
2295.4848	1917.8
2298.35243	1909.9
2301.21824	1921.4
2304.08223	1913.1
2306.94439	1912
2309.80474	1901.7
2312.66327	1923.4
2315.51999	1917.3
2318.37489	1911.8
2321.22797	1902.4
2324.07925	1909.7
2326.92871	1906.2
2329.77637	1895.6
2332.62222	1901.6
2335.46626	1891.8
2338.3085	1892.8
2341.14893	1892.6
2343.98756	1896.6
2346.8244	1888
2349.65943	1887.1
2352.49267	1895.8
2355.32411	1904
2358.15376	1904.9
2360.98161	1905.7
2363.80768	1908.8
2366.63195	1910.8
2369.45444	1909.1
2372.27514	1917.1
2375.09405	1910.2
2377.91118	1899.1
2380.72652	1892.6
2383.54009	1886.5
2386.35187	1878
2389.16188	1880.5
2391.97011	1868.7
2394.77657	1850.5
2397.58125	1858.5
2400.38416	1856.8
2403.18529	1840.7
2405.98466	1838.4
2408.78226	1833.4
2411.57809	1843.8
2414.37216	1831.4
2417.16446	1828.7
2419.955	1838.6
2422.74378	1835.6
2425.5308	1828.2
2428.31606	1836.9
2431.09956	1821.5
2433.88131	1830.3
2436.6613	1826.4
2439.43954	1823.8
2442.21603	1832.1
2444.99077	1843.1
2447.76377	1833.7
2450.53501	1830.8
2453.30451	1838.2
2456.07226	1833.1
2458.83827	1823.7
2461.60254	1833.7
2464.36507	1839.6
2467.12586	1825.6
2469.88492	1835.4
2472.64224	1834.4
2475.39782	1849.5
2478.15167	1853
2480.90379	1856
2483.65417	1854.5
2486.40283	1860.6
2489.14976	1858.2
2491.89497	1851.7
2494.63845	1858.1
2497.3802	1856.3
2500.12024	1861.6
2502.85855	1868
2505.59514	1850.6
2508.33002	1841.8
2511.06318	1839.9
2513.79462	1830.5
2516.52435	1832.9
2519.25237	1824.4
2521.97867	1826.7
2524.70327	1829.3
2527.42616	1822.6
2530.14734	1814.2
2532.86681	1818.1
2535.58458	1821.2
2538.30065	1814.7
2541.01501	1819.4
2543.72768	1813.8
2546.43864	1814.7
2549.14791	1816.5
2551.85548	1815.7
2554.56136	1817.6
2557.26554	1818.5
2559.96803	1817.3
2562.66883	1817.7
2565.36794	1809.4
2568.06536	1804.8
2570.7611	1801.1
2573.45514	1803.9
2576.14751	1803.9
2578.83819	1806.1
2581.52719	1808.3
2584.21451	1817.1
2586.90015	1803.6
2589.58411	1798.9
2592.2664	1807.9
2594.94701	1815.9
2597.62594	1806.8
2600.30321	1806.2
2602.9788	1812.7
2605.65273	1798.1
2608.32498	1804.3
2610.99557	1809.4
2613.66449	1806.8
2616.33175	1807.2
2618.99734	1809.2
2621.66128	1802.5
2624.32355	1810.7
2626.98416	1814.2
2629.64311	1800.7
2632.30041	1805.6
2634.95605	1799.1
2637.61004	1797.1
2640.26238	1799.5
2642.91306	1795.8
2645.56209	1797.1
2648.20948	1800
2650.85521	1787.7
2653.4993	1782.8
2656.14175	1805.5
2658.78255	1804.2
2661.42171	1812.9
2664.05923	1800.4
2666.6951	1808.5
2669.32934	1808.6
2671.96194	1804.1
2674.59291	1814.8
2677.22224	1825.6
2679.84993	1821.5
2682.476	1824.9
2685.10043	1827.7
2687.72324	1817
2690.34441	1813.6
2692.96396	1814.7
2695.58188	1816.7
2698.19818	1820.4
2700.81285	1828.5
2703.4259	1824.5
2706.03733	1837.3
2708.64714	1834.5
2711.25533	1832.5
2713.86191	1837.8
2716.46687	1843.8
2719.07021	1869.9
2721.67194	1854.6
2724.27206	1861.1
2726.87057	1862.1
2729.46747	1861.8
2732.06276	1856.7
2734.65644	1846.1
2737.24852	1866.1
2739.83899	1846.5
2742.42786	1848.5
2745.01513	1836
2747.60079	1854.7
2750.18486	1842.6
2752.76733	1849
2755.3482	1839.3
2757.92747	1844.2
2760.50515	1833.5
2763.08123	1824.5
2765.65573	1835.1
2768.22863	1834.8
2770.79994	1827.9
2773.36967	1837.6
2775.9378	1848.8
2778.50435	1855.4
2781.06932	1850.8
2783.6327	1857
2786.1945	1853.5
2788.75471	1850.2
2791.31335	1855.2
2793.87041	1867.5
2796.42589	1864.4
2798.97979	1868.2
2801.53212	1866.3
2804.08288	1875.3
2806.63206	1866.6
2809.17967	1874.5
2811.72571	1869.4
2814.27018	1881.7
2816.81308	1886
2819.35442	1881.5
2821.89419	1889.2
2824.43239	1892.5
2826.96904	1896.9
2829.50412	1900.5
2832.03763	1896.4
2834.56959	1908
2837.1	1908.8
2839.62884	1921.8
2842.15613	1949
2844.68186	1979.6
2847.20604	2013.2
2849.72867	2032.7
2852.24974	2062
2854.76927	2055.1
2857.28724	2056.2
2859.80367	2055.3
2862.31855	2056.8
2864.83189	2029.8
2867.34368	2041.4
2869.85393	2024.3
2872.36264	2012.3
2874.8698	2018.6
2877.37543	2007.7
2879.87952	2001.1
2882.38207	2006.8
2884.88308	2010.3
2887.38256	2003.7
2889.88051	1999.8
2892.37692	2009.2
2894.8718	2014.4
2897.36515	2015.6
2899.85698	2012.7
2902.34727	2025.4
2904.83604	2027.1
2907.32328	2027.5
2909.809	2028.9
2912.29319	2025
2914.77587	2031.8
2917.25702	2016.7
2919.73665	2015.2
2922.21476	2014.6
2924.69136	2013.9
2927.16644	1993.8
2929.64	1979.9
2932.11205	1979.5
2934.58258	1971
2937.05161	1955.7
2939.51912	1951.2
2941.98513	1934.1
2944.44962	1924.2
2946.91261	1889.7
2949.37409	1871.8
2951.83407	1866.6
2954.29254	1852.7
2956.74951	1836.9
2959.20498	1829.5
2961.65895	1833.9
2964.11142	1826.6
2966.56239	1820.5
2969.01186	1812.8
2971.45984	1802.1
2973.90632	1787.8
2976.35131	1783.5
2978.7948	1773.6
2981.23681	1771
2983.67732	1767
2986.11635	1760.4
2988.55388	1735
2990.98993	1737.2
2993.4245	1737.7
2995.85758	1716.4
2998.28917	1716.6
3000.71928	1721.3
3003.14791	1710.1
3005.57506	1707.6
3008.00073	1711.5
3010.42493	1694.8
3012.84764	1700.5
3015.26888	1700.5
3017.68865	1694.9
3020.10694	1698.6
3022.52376	1680.1
3024.9391	1689.8
3027.35298	1686.3
3029.76539	1691.9
3032.17632	1682.6
3034.5858	1683.5
3036.9938	1677.1
3039.40034	1689.1
3041.80542	1677.9
3044.20903	1674.4
3046.61118	1682
3049.01187	1681.1
3051.4111	1671.6
3053.80888	1675
3056.20519	1669.6
3058.60005	1677.5
3060.99345	1669.8
3063.3854	1666.9
3065.7759	1665
3068.16494	1659.7
3070.55254	1652.5
3072.93868	1658.4
3075.32338	1656.9
3077.70662	1647.4
3080.08842	1647.2
3082.46878	1645.3
3084.84769	1632.7
3087.22515	1639.2
3089.60118	1634.4
3091.97576	1637.2
3094.3489	1630.2
3096.72061	1634.6
3099.09087	1639.9
3101.4597	1635.4
3103.82709	1631.8
3106.19305	1640.9
3108.55757	1640.2
3110.92066	1632.2
3113.28232	1633.7
3115.64255	1642
3118.00134	1634.7
3120.35871	1637.3
3122.71466	1634
3125.06917	1644.4
3127.42226	1641.6
3129.77393	1642.5
3132.12417	1645
3134.47299	1642.6
3136.82039	1646.1
3139.16636	1660.4
3141.51092	1652.6
3143.85406	1665.3
3146.19579	1667.5
3148.53609	1678.8
3150.87499	1681.4
3153.21246	1677.6
3155.54853	1691.3
3157.88318	1694.4
3160.21642	1706
3162.54826	1702.2
3164.87868	1709
3167.2077	1707.5
3169.5353	1707.3
3171.86151	1718.8
3174.18631	1719.8
3176.5097	1732.8
3178.83169	1722.8
3181.15228	1738.7
3183.47147	1728.2
3185.78926	1734.6
3188.10565	1737.8
3190.42065	1746.2
3192.73424	1744.7
3195.04645	1749.4
3197.35725	1759.7
3199.66667	1760.8
3201.97469	1745.3
3204.28132	1748.9
3206.58656	1759.4
3208.8904	1759.3
3211.19287	1769.3
3213.49394	1773.9
3215.79363	1772.7
3218.09193	1779.2
3220.38884	1788.5
3222.68438	1777.6
3224.97853	1792.1
3227.2713	1797.5
3229.56269	1792
3231.8527	1801.8
3234.14133	1788.5
3236.42858	1794.2
3238.71446	1783.2
3240.99896	1781.9
3243.28209	1790.6
3245.56384	1786.4
3247.84423	1795.4
3250.12324	1777
3252.40088	1784.1
3254.67715	1782.9
3256.95205	1775.3
3259.22558	1779.8
3261.49775	1780.1
3263.76855	1783.8
3266.03799	1771.1
3268.30606	1775.5
3270.57277	1760.6
3272.83812	1766.5
3275.10211	1760.7
3277.36474	1763.6
3279.62601	1761.8
3281.88593	1760.1
3284.14448	1755.6
3286.40168	1763.9
3288.65753	1756.1
3290.91202	1765.6
3293.16516	1755.7
3295.41695	1748.3
3297.66738	1748.6
3299.91647	1736.3
3302.16421	1721.5
3304.4106	1726.4
3306.65564	1714.2
3308.89933	1701.1
3311.14169	1685.7
3313.38269	1680.1
3315.62236	1668.2
3317.86068	1647.5
3320.09766	1645.9
3322.3333	1625.8
3324.5676	1628.4
3326.80056	1599.6
3329.03219	1597.2
3331.26248	0.5
3333.49143	0.6
3335.71905	0.6
