Data from AgNPs_UA_1uM_CRN_0uM_R6G_10uM_Q_RamanShift__31__12-46-55-901.txt Node

Date: Wed Jul 13 12:46:55 BST 2022
User: TCL
Spectrometer: QEP01345
Trigger mode: 4
Integration Time (sec): 7.000000E0
Scans to average: 10
Electric dark correction enabled: true
Nonlinearity correction enabled: false
Boxcar width: 0
XAxis mode: Raman Shifts
Number of Pixels in Spectrum: 1044
>>>>>Begin Spectral Data<<<<<
46.04893	-0.9625
50.45542	-0.8625
54.85868	-0.4625
59.25871	0.3375
63.6555	50.1375
68.04907	54.3375
72.43941	60.4375
76.82654	62.9375
81.21044	70.1375
85.59113	70.7375
89.96862	73.4375
94.34289	76.5375
98.71396	78.4375
103.08183	80.2375
107.4465	82.5375
111.80798	76.8375
116.16626	84.5375
120.52136	83.3375
124.87327	86.3375
129.222	90.5375
133.56755	91.9375
137.90993	99.6375
142.24913	104.5375
146.58517	113.2375
150.91804	128.0375
155.24774	143.7375
159.57429	170.0375
163.89768	211.6375
168.21792	271.3375
172.53501	359.0375
176.84895	492.9375
181.15975	670.4375
185.46741	941.1375
189.77193	1284.2375
194.07331	1712.5375
198.37157	2176.2375
202.6667	2677.8375
206.9587	3162.3375
211.24758	3648.2375
215.53334	4184.0375
219.81599	4763.9375
224.09553	5398.6375
228.37195	6136.8375
232.64527	6895.9375
236.91549	7661.8375
241.18261	8376.1375
245.44663	8985.6375
249.70755	9508.2375
253.96539	9915.4375
258.22014	10294.7375
262.4718	10590.0375
266.72039	10812.8375
270.96589	10897.3375
275.20832	10894.9375
279.44768	10836.3375
283.68397	10764.5375
287.91719	10726.7375
292.14735	10804.4375
296.37445	10918.0375
300.59849	11179.6375
304.81948	11475.5375
309.03742	11656.3375
313.25231	11580.1375
317.46415	11110.8375
321.67296	10472.8375
325.87872	10006.1375
330.08145	9837.7375
334.28114	9865.4375
338.47781	10054.1375
342.67145	10271.7375
346.86207	10661.5375
351.04966	11163.5375
355.23424	11676.4375
359.4158	12120.5375
363.59435	12263.4375
367.76989	12270.0375
371.94243	12237.5375
376.11196	12172.6375
380.27849	12135.7375
384.44203	12073.7375
388.60257	11987.3375
392.76012	12012.6375
396.91468	12218.9375
401.06626	12550.1375
405.21485	12768.2375
409.36047	12601.0375
413.50311	12285.0375
417.64277	12127.6375
421.77947	12064.1375
425.9132	11815.7375
430.04396	11796.7375
434.17176	11930.2375
438.2966	12223.1375
442.41849	12667.9375
446.53742	13200.7375
450.6534	13692.7375
454.76644	13958.5375
458.87653	13914.4375
462.98368	13601.8375
467.08789	13186.6375
471.18916	12789.0375
475.2875	12436.3375
479.38291	12200.2375
483.4754	12003.6375
487.56496	11835.1375
491.6516	11670.0375
495.73531	11590.6375
499.81612	11575.6375
503.89401	11685.5375
507.96899	11788.8375
512.04106	11841.1375
516.11023	11888.5375
520.1765	11910.8375
524.23987	11856.4375
528.30034	11766.6375
532.35792	11590.3375
536.41261	11346.1375
540.46441	11135.2375
544.51333	11044.9375
548.55936	11207.9375
552.60252	11493.4375
556.64279	11818.9375
560.6802	12002.6375
564.71473	12258.1375
568.7464	12745.7375
572.7752	13095.8375
576.80114	13034.5375
580.82422	13013.1375
584.84444	13206.0375
588.86181	13504.0375
592.87633	13969.8375
596.888	14276.9375
600.89682	14567.6375
604.9028	15630.5375
608.90594	18466.1375
612.90624	21154.6375
616.90371	18850.5375
620.89834	14229.8375
624.89015	12496.1375
628.87913	12294.1375
632.86528	12284.3375
636.84862	12187.8375
640.82913	11849.0375
644.80683	11310.2375
648.78172	11072.5375
652.75379	11180.0375
656.72306	11593.5375
660.68952	11996.8375
664.65319	11823.9375
668.61405	11431.2375
672.57211	11220.5375
676.52738	11207.6375
680.47986	11136.3375
684.42955	11055.0375
688.37646	11040.7375
692.32058	11122.2375
696.26192	11234.8375
700.20048	11446.2375
704.13626	11564.3375
708.06928	11570.2375
711.99952	11434.6375
715.927	11361.2375
719.85171	11334.6375
723.77365	11248.7375
727.69284	11162.6375
731.60928	11094.4375
735.52295	11149.6375
739.43388	11214.7375
743.34206	11341.0375
747.24749	11501.5375
751.15017	11635.3375
755.05012	11977.1375
758.94733	12601.5375
762.8418	13913.1375
766.73354	15822.7375
770.62254	17443.9375
774.50882	17762.5375
778.39237	16633.7375
782.27321	14695.8375
786.15132	12987.0375
790.02671	12034.1375
793.89938	11602.9375
797.76935	11411.0375
801.6366	11323.3375
805.50115	11253.6375
809.36299	11178.8375
813.22213	11124.1375
817.07857	11123.2375
820.93231	11133.4375
824.78336	11186.0375
828.63172	11253.0375
832.47738	11277.1375
836.32036	11277.3375
840.16066	11255.6375
843.99827	11222.9375
847.8332	11183.9375
851.66546	11125.6375
855.49504	11124.7375
859.32195	11075.8375
863.1462	11014.4375
866.96777	10961.2375
870.78668	10973.4375
874.60293	10996.1375
878.41652	11047.6375
882.22745	11130.8375
886.03573	11182.1375
889.84136	11144.8375
893.64433	11096.7375
897.44466	11061.5375
901.24235	11061.3375
905.0374	10993.9375
908.8298	10982.0375
912.61957	11005.8375
916.40671	11130.7375
920.19121	11320.7375
923.97308	11487.0375
927.75233	11595.7375
931.52895	11588.2375
935.30295	11358.1375
939.07433	11018.2375
942.84309	10815.4375
946.60924	10696.4375
950.37278	10638.4375
954.13371	10574.0375
957.89203	10523.7375
961.64774	10488.1375
965.40086	10481.9375
969.15137	10439.6375
972.89929	10440.3375
976.64461	10408.4375
980.38733	10445.3375
984.12747	10490.8375
987.86502	10591.7375
991.59999	10704.9375
995.33237	10973.4375
999.06217	11425.8375
1002.78939	11953.1375
1006.51404	12328.7375
1010.23611	12537.8375
1013.95561	12733.3375
1017.67255	12680.3375
1021.38692	12328.1375
1025.09872	12074.5375
1028.80796	12076.7375
1032.51465	12337.4375
1036.21877	12594.4375
1039.92035	12653.9375
1043.61937	12478.3375
1047.31584	12210.3375
1051.00976	11982.3375
1054.70114	11840.6375
1058.38998	11864.8375
1062.07627	11949.1375
1065.76003	12005.6375
1069.44126	12156.7375
1073.11995	12346.8375
1076.79611	12490.6375
1080.46974	12629.6375
1084.14085	12871.9375
1087.80943	13091.6375
1091.47549	13129.8375
1095.13903	12857.5375
1098.80005	12440.6375
1102.45857	12097.1375
1106.11456	11946.4375
1109.76805	11951.0375
1113.41903	12148.4375
1117.06751	12497.6375
1120.71348	12870.4375
1124.35696	13298.5375
1127.99793	13632.1375
1131.63641	13482.5375
1135.2724	13037.1375
1138.90589	12678.5375
1142.5369	12485.2375
1146.16542	12360.0375
1149.79145	12371.9375
1153.415	12452.2375
1157.03607	12638.7375
1160.65467	12902.5375
1164.27079	13398.0375
1167.88443	14181.3375
1171.49561	15472.8375
1175.10432	17444.2375
1178.71056	19809.1375
1182.31434	21553.6375
1185.91565	22201.2375
1189.51451	21729.7375
1193.11091	20611.0375
1196.70485	19211.4375
1200.29634	17952.9375
1203.88538	16830.0375
1207.47197	15875.3375
1211.05612	15199.1375
1214.63782	14999.3375
1218.21708	15152.2375
1221.79391	15342.7375
1225.36829	15506.9375
1228.94024	15415.6375
1232.50976	15209.5375
1236.07685	15019.8375
1239.6415	14901.4375
1243.20374	14860.2375
1246.76355	14877.2375
1250.32093	15046.1375
1253.8759	15401.8375
1257.42845	15976.3375
1260.97859	16508.1375
1264.52631	16972.7375
1268.07163	17446.9375
1271.61453	17902.3375
1275.15503	18360.1375
1278.69312	18851.2375
1282.22882	19297.3375
1285.76211	19929.3375
1289.29301	20706.4375
1292.82151	21444.1375
1296.34761	22367.9375
1299.87133	23595.3375
1303.39266	25430.6375
1306.9116	27914.6375
1310.42815	30681.0375
1313.94233	32117.2375
1317.45412	31686.7375
1320.96354	30105.6375
1324.47058	28350.1375
1327.97525	27052.7375
1331.47754	26236.5375
1334.97747	26016.2375
1338.47502	26170.8375
1341.97022	26416.4375
1345.46305	26654.6375
1348.95352	27041.1375
1352.44163	27784.2375
1355.92738	29356.8375
1359.41078	31888.1375
1362.89183	33802.2375
1366.37053	32454.4375
1369.84688	28624.8375
1373.32088	24830.5375
1376.79254	22389.3375
1380.26186	21168.9375
1383.72883	20614.5375
1387.19347	20274.8375
1390.65578	19977.4375
1394.11575	19910.1375
1397.57339	20179.4375
1401.0287	20706.2375
1404.48168	21214.3375
1407.93234	21585.0375
1411.38068	21651.5375
1414.82669	21260.5375
1418.27039	20320.8375
1421.71177	19361.3375
1425.15083	18658.0375
1428.58758	18445.9375
1432.02203	18633.5375
1435.45416	18861.2375
1438.88399	19067.3375
1442.31151	19135.4375
1445.73673	19290.0375
1449.15965	19359.6375
1452.58027	19299.3375
1455.9986	19173.7375
1459.41463	19184.8375
1462.82837	19459.8375
1466.23982	19899.0375
1469.64898	20241.0375
1473.05586	20430.0375
1476.46045	20523.2375
1479.86276	20703.2375
1483.26279	20886.7375
1486.66054	21216.4375
1490.05602	21666.1375
1493.44922	22223.6375
1496.84016	22998.3375
1500.22882	24144.4375
1503.61521	25655.6375
1506.99934	27412.6375
1510.38121	28918.7375
1513.76081	29254.5375
1517.13816	27955.5375
1520.51324	25722.1375
1523.88607	23669.5375
1527.25665	22450.7375
1530.62498	21787.2375
1533.99105	21436.0375
1537.35488	21153.1375
1540.71647	20988.6375
1544.07581	20724.7375
1547.4329	20338.1375
1550.78776	19874.6375
1554.14038	19418.5375
1557.49077	19197.2375
1560.83892	19226.8375
1564.18484	19364.1375
1567.52853	19545.8375
1570.86999	19700.6375
1574.20922	19864.2375
1577.54624	19733.5375
1580.88103	19134.1375
1584.2136	18615.8375
1587.54395	18783.0375
1590.87208	19932.5375
1594.19801	21801.4375
1597.52172	23930.5375
1600.84321	24936.9375
1604.16251	24095.2375
1607.47959	22050.2375
1610.79447	19566.0375
1614.10715	17416.4375
1617.41763	15850.0375
1620.7259	14973.1375
1624.03199	14610.1375
1627.33587	14669.3375
1630.63757	15169.3375
1633.93707	16185.7375
1637.23439	17775.4375
1640.52951	19934.0375
1643.82246	22331.3375
1647.11321	24291.6375
1650.40179	24781.4375
1653.68819	23148.3375
1656.97241	20027.4375
1660.25446	16930.6375
1663.53433	14641.0375
1666.81203	13239.7375
1670.08756	12380.7375
1673.36092	11873.1375
1676.63211	11554.4375
1679.90115	11303.3375
1683.16801	11153.1375
1686.43272	11040.1375
1689.69527	10942.5375
1692.95567	10850.2375
1696.2139	10830.0375
1699.46999	10791.9375
1702.72392	10758.7375
1705.97571	10757.6375
1709.22535	10731.8375
1712.47284	10756.6375
1715.71819	10747.2375
1718.96139	10738.3375
1722.20246	10697.5375
1725.44139	10651.5375
1728.67818	10590.3375
1731.91284	10523.4375
1735.14537	10475.9375
1738.37576	10416.7375
1741.60403	10371.0375
1744.83017	10345.3375
1748.05418	10319.7375
1751.27607	10307.8375
1754.49584	10281.5375
1757.71349	10287.4375
1760.92903	10283.2375
1764.14244	10250.0375
1767.35375	10247.0375
1770.56294	10223.9375
1773.77002	10203.4375
1776.97499	10225.7375
1780.17785	10198.9375
1783.37861	10169.7375
1786.57727	10164.6375
1789.77382	10170.2375
1792.96828	10131.5375
1796.16064	10129.8375
1799.3509	10119.3375
1802.53907	10093.5375
1805.72514	10080.1375
1808.90913	10064.8375
1812.09102	10030.7375
1815.27083	10006.6375
1818.44856	10004.0375
1821.6242	9974.3375
1824.79776	9956.9375
1827.96924	9952.5375
1831.13864	9925.1375
1834.30597	9944.2375
1837.47122	9907.8375
1840.6344	9901.1375
1843.7955	9920.4375
1846.95454	9914.3375
1850.11151	9906.9375
1853.26642	9930.8375
1856.41926	9927.0375
1859.57004	9939.8375
1862.71876	9938.7375
1865.86542	9951.0375
1869.01003	9967.7375
1872.15258	9954.5375
1875.29308	9969.5375
1878.43152	9969.3375
1881.56792	9975.2375
1884.70227	9981.1375
1887.83457	9983.9375
1890.96482	9979.0375
1894.09304	9982.5375
1897.21921	9986.5375
1900.34335	9977.4375
1903.46544	9989.4375
1906.58551	9981.3375
1909.70353	9971.5375
1912.81953	10004.0375
1915.93349	9980.2375
1919.04543	9978.9375
1922.15534	9943.2375
1925.26322	9947.1375
1928.36908	9904.9375
1931.47292	9874.9375
1934.57473	9825.0375
1937.67453	9797.1375
1940.77232	9747.1375
1943.86808	9730.5375
1946.96184	9689.6375
1950.05358	9626.5375
1953.14331	9592.1375
1956.23103	9579.1375
1959.31675	9536.0375
1962.40046	9511.4375
1965.48217	9480.6375
1968.56188	9435.5375
1971.63959	9412.5375
1974.7153	9392.2375
1977.78901	9363.8375
1980.86073	9333.1375
1983.93046	9315.4375
1986.99819	9295.7375
1990.06394	9271.3375
1993.1277	9203.9375
1996.18947	9167.7375
1999.24925	9174.9375
2002.30706	9138.6375
2005.36288	9092.1375
2008.41672	9082.4375
2011.46859	9049.6375
2014.51848	9033.0375
2017.56639	9008.5375
2020.61233	8978.7375
2023.6563	8952.4375
2026.6983	8929.9375
2029.73833	8933.9375
2032.7764	8890.4375
2035.8125	8878.4375
2038.84664	8866.6375
2041.87881	8853.6375
2044.90903	8859.2375
2047.93729	8821.1375
2050.96359	8848.4375
2053.98794	8820.7375
2057.01034	8795.7375
2060.03078	8805.2375
2063.04927	8803.0375
2066.06582	8768.0375
2069.08042	8773.0375
2072.09307	8779.8375
2075.10378	8743.6375
2078.11255	8696.7375
2081.11938	8726.5375
2084.12426	8727.9375
2087.12722	8707.5375
2090.12824	8700.5375
2093.12732	8695.5375
2096.12447	8693.3375
2099.11969	8697.6375
2102.11299	8684.3375
2105.10435	8713.7375
2108.09379	8668.8375
2111.08131	8670.1375
2114.0669	8685.0375
2117.05057	8692.4375
2120.03233	8707.6375
2123.01216	8695.5375
2125.99008	8692.2375
2128.96609	8704.4375
2131.94018	8721.8375
2134.91236	8706.1375
2137.88263	8732.2375
2140.851	8720.9375
2143.81746	8723.9375
2146.78201	8724.5375
2149.74466	8735.3375
2152.7054	8740.7375
2155.66425	8722.2375
2158.6212	8708.1375
2161.57625	8695.8375
2164.52941	8697.5375
2167.48067	8695.2375
2170.43004	8671.0375
2173.37752	8688.0375
2176.32311	8695.1375
2179.26681	8707.1375
2182.20863	8701.9375
2185.14856	8717.4375
2188.08661	8704.2375
2191.02278	8699.3375
2193.95707	8677.8375
2196.88948	8676.8375
2199.82001	8699.7375
2202.74867	8689.5375
2205.67545	8651.8375
2208.60037	8662.1375
2211.52341	8642.1375
2214.44458	8636.7375
2217.36388	8608.2375
2220.28132	8604.1375
2223.1969	8567.2375
2226.11061	8568.5375
2229.02246	8547.4375
2231.93245	8537.6375
2234.84058	8516.5375
2237.74686	8490.4375
2240.65128	8505.1375
2243.55385	8500.0375
2246.45456	8485.8375
2249.35343	8487.1375
2252.25044	8462.8375
2255.14561	8433.7375
2258.03893	8428.5375
2260.93041	8415.7375
2263.82004	8410.2375
2266.70783	8372.0375
2269.59378	8366.4375
2272.4779	8321.6375
2275.36017	8309.6375
2278.24061	8279.5375
2281.11922	8286.0375
2283.996	8236.1375
2286.87094	8238.8375
2289.74405	8218.2375
2292.61534	8218.1375
2295.4848	8193.9375
2298.35243	8200.8375
2301.21824	8229.3375
2304.08223	8204.6375
2306.94439	8226.3375
2309.80474	8211.5375
2312.66327	8215.4375
2315.51999	8211.5375
2318.37489	8191.7375
2321.22797	8190.0375
2324.07925	8196.3375
2326.92871	8170.3375
2329.77637	8153.3375
2332.62222	8178.0375
2335.46626	8166.2375
2338.3085	8173.2375
2341.14893	8161.7375
2343.98756	8150.9375
2346.8244	8155.0375
2349.65943	8171.8375
2352.49267	8174.7375
2355.32411	8178.6375
2358.15376	8188.1375
2360.98161	8171.1375
2363.80768	8173.6375
2366.63195	8155.7375
2369.45444	8161.0375
2372.27514	8125.9375
2375.09405	8128.1375
2377.91118	8080.7375
2380.72652	8068.8375
2383.54009	8050.4375
2386.35187	8032.7375
2389.16188	8001.6375
2391.97011	7984.0375
2394.77657	7968.7375
2397.58125	7938.3375
2400.38416	7933.0375
2403.18529	7915.6375
2405.98466	7912.5375
2408.78226	7864.7375
2411.57809	7840.5375
2414.37216	7849.0375
2417.16446	7848.9375
2419.955	7838.2375
2422.74378	7848.4375
2425.5308	7804.9375
2428.31606	7825.8375
2431.09956	7825.7375
2433.88131	7813.8375
2436.6613	7813.3375
2439.43954	7811.2375
2442.21603	7813.7375
2444.99077	7800.7375
2447.76377	7803.6375
2450.53501	7781.8375
2453.30451	7798.4375
2456.07226	7790.5375
2458.83827	7790.7375
2461.60254	7766.7375
2464.36507	7771.9375
2467.12586	7739.7375
2469.88492	7758.8375
2472.64224	7764.6375
2475.39782	7773.3375
2478.15167	7752.2375
2480.90379	7788.7375
2483.65417	7781.5375
2486.40283	7790.2375
2489.14976	7815.7375
2491.89497	7814.8375
2494.63845	7807.3375
2497.3802	7810.3375
2500.12024	7811.7375
2502.85855	7811.7375
2505.59514	7802.6375
2508.33002	7774.0375
2511.06318	7757.4375
2513.79462	7750.4375
2516.52435	7729.8375
2519.25237	7726.7375
2521.97867	7709.8375
2524.70327	7708.9375
2527.42616	7682.7375
2530.14734	7693.2375
2532.86681	7688.5375
2535.58458	7672.6375
2538.30065	7671.5375
2541.01501	7685.2375
2543.72768	7665.8375
2546.43864	7654.8375
2549.14791	7660.5375
2551.85548	7652.2375
2554.56136	7623.7375
2557.26554	7640.2375
2559.96803	7618.5375
2562.66883	7618.5375
2565.36794	7596.0375
2568.06536	7595.4375
2570.7611	7574.3375
2573.45514	7580.5375
2576.14751	7606.9375
2578.83819	7583.8375
2581.52719	7593.9375
2584.21451	7565.2375
2586.90015	7564.2375
2589.58411	7541.3375
2592.2664	7544.7375
2594.94701	7544.9375
2597.62594	7551.0375
2600.30321	7547.7375
2602.9788	7546.7375
2605.65273	7542.2375
2608.32498	7555.9375
2610.99557	7540.2375
2613.66449	7544.6375
2616.33175	7546.6375
2618.99734	7539.5375
2621.66128	7566.5375
2624.32355	7561.8375
2626.98416	7544.6375
2629.64311	7550.9375
2632.30041	7577.5375
2634.95605	7533.0375
2637.61004	7537.7375
2640.26238	7495.5375
2642.91306	7510.2375
2645.56209	7480.8375
2648.20948	7472.7375
2650.85521	7463.0375
2653.4993	7472.8375
2656.14175	7466.5375
2658.78255	7468.8375
2661.42171	7473.5375
2664.05923	7479.8375
2666.6951	7487.0375
2669.32934	7509.8375
2671.96194	7491.3375
2674.59291	7527.9375
2677.22224	7516.0375
2679.84993	7533.7375
2682.476	7513.7375
2685.10043	7511.8375
2687.72324	7507.4375
2690.34441	7478.8375
2692.96396	7508.9375
2695.58188	7502.9375
2698.19818	7496.1375
2700.81285	7494.2375
2703.4259	7490.2375
2706.03733	7521.5375
2708.64714	7508.2375
2711.25533	7504.0375
2713.86191	7490.8375
2716.46687	7500.1375
2719.07021	7529.7375
2721.67194	7532.6375
2724.27206	7506.8375
2726.87057	7520.8375
2729.46747	7531.0375
2732.06276	7529.2375
2734.65644	7531.6375
2737.24852	7528.1375
2739.83899	7518.1375
2742.42786	7512.2375
2745.01513	7488.9375
2747.60079	7508.1375
2750.18486	7496.3375
2752.76733	7490.4375
2755.3482	7505.1375
2757.92747	7496.0375
2760.50515	7475.9375
2763.08123	7482.0375
2765.65573	7472.1375
2768.22863	7472.4375
2770.79994	7473.1375
2773.36967	7458.4375
2775.9378	7457.0375
2778.50435	7465.1375
2781.06932	7454.1375
2783.6327	7454.4375
2786.1945	7464.6375
2788.75471	7448.9375
2791.31335	7438.0375
2793.87041	7438.2375
2796.42589	7421.2375
2798.97979	7423.1375
2801.53212	7390.5375
2804.08288	7389.6375
2806.63206	7378.5375
2809.17967	7344.8375
2811.72571	7339.9375
2814.27018	7332.6375
2816.81308	7335.2375
2819.35442	7318.4375
2821.89419	7332.5375
2824.43239	7333.6375
2826.96904	7327.7375
2829.50412	7329.9375
2832.03763	7320.8375
2834.56959	7336.4375
2837.1	7332.4375
2839.62884	7327.9375
2842.15613	7336.8375
2844.68186	7361.9375
2847.20604	7369.7375
2849.72867	7370.4375
2852.24974	7371.0375
2854.76927	7361.0375
2857.28724	7359.1375
2859.80367	7351.5375
2862.31855	7342.3375
2864.83189	7330.1375
2867.34368	7317.4375
2869.85393	7328.2375
2872.36264	7307.0375
2874.8698	7295.3375
2877.37543	7283.6375
2879.87952	7273.8375
2882.38207	7265.2375
2884.88308	7240.6375
2887.38256	7269.6375
2889.88051	7252.3375
2892.37692	7271.1375
2894.8718	7262.4375
2897.36515	7280.3375
2899.85698	7287.7375
2902.34727	7294.4375
2904.83604	7286.9375
2907.32328	7308.4375
2909.809	7318.1375
2912.29319	7308.1375
2914.77587	7313.5375
2917.25702	7295.7375
2919.73665	7276.4375
2922.21476	7247.5375
2924.69136	7253.9375
2927.16644	7252.0375
2929.64	7215.3375
2932.11205	7225.6375
2934.58258	7203.4375
2937.05161	7202.4375
2939.51912	7191.4375
2941.98513	7189.4375
2944.44962	7158.0375
2946.91261	7098.1375
2949.37409	7111.8375
2951.83407	7111.7375
2954.29254	7091.3375
2956.74951	7107.3375
2959.20498	7087.2375
2961.65895	7046.0375
2964.11142	7064.9375
2966.56239	7070.9375
2969.01186	7060.8375
2971.45984	7051.8375
2973.90632	7025.6375
2976.35131	6995.0375
2978.7948	6970.7375
2981.23681	6950.7375
2983.67732	6946.1375
2986.11635	6934.0375
2988.55388	6905.7375
2990.98993	6885.2375
2993.4245	6857.3375
2995.85758	6853.6375
2998.28917	6819.7375
3000.71928	6797.5375
3003.14791	6781.8375
3005.57506	6796.1375
3008.00073	6755.2375
3010.42493	6732.1375
3012.84764	6746.6375
3015.26888	6726.5375
3017.68865	6693.5375
3020.10694	6696.2375
3022.52376	6675.1375
3024.9391	6650.0375
3027.35298	6640.7375
3029.76539	6641.4375
3032.17632	6640.4375
3034.5858	6628.9375
3036.9938	6621.9375
3039.40034	6624.4375
3041.80542	6616.0375
3044.20903	6568.7375
3046.61118	6570.0375
3049.01187	6575.8375
3051.4111	6564.4375
3053.80888	6543.5375
3056.20519	6535.7375
3058.60005	6516.8375
3060.99345	6497.9375
3063.3854	6472.5375
3065.7759	6424.3375
3068.16494	6421.7375
3070.55254	6384.4375
3072.93868	6398.1375
3075.32338	6356.7375
3077.70662	6329.0375
3080.08842	6312.7375
3082.46878	6307.9375
3084.84769	6309.1375
3087.22515	6272.7375
3089.60118	6276.8375
3091.97576	6277.7375
3094.3489	6264.9375
3096.72061	6261.9375
3099.09087	6259.4375
3101.4597	6277.7375
3103.82709	6260.4375
3106.19305	6249.1375
3108.55757	6228.5375
3110.92066	6229.2375
3113.28232	6218.6375
3115.64255	6191.0375
3118.00134	6180.9375
3120.35871	6171.4375
3122.71466	6173.0375
3125.06917	6141.9375
3127.42226	6176.9375
3129.77393	6167.1375
3132.12417	6141.9375
3134.47299	6117.4375
3136.82039	6107.8375
3139.16636	6114.3375
3141.51092	6092.4375
3143.85406	6135.0375
3146.19579	6113.6375
3148.53609	6111.8375
3150.87499	6101.0375
3153.21246	6122.3375
3155.54853	6112.7375
3157.88318	6109.5375
3160.21642	6123.7375
3162.54826	6113.5375
3164.87868	6099.4375
3167.2077	6092.7375
3169.5353	6089.4375
3171.86151	6099.9375
3174.18631	6110.2375
3176.5097	6092.1375
3178.83169	6073.3375
3181.15228	6076.2375
3183.47147	6076.5375
3185.78926	6055.6375
3188.10565	6057.8375
3190.42065	6059.5375
3192.73424	6054.5375
3195.04645	6045.8375
3197.35725	6047.9375
3199.66667	6054.2375
3201.97469	6050.3375
3204.28132	6038.9375
3206.58656	6055.0375
3208.8904	6042.9375
3211.19287	6040.9375
3213.49394	6042.0375
3215.79363	6044.6375
3218.09193	6050.0375
3220.38884	6050.5375
3222.68438	6054.1375
3224.97853	6045.5375
3227.2713	6041.4375
3229.56269	6041.9375
3231.8527	6038.1375
3234.14133	6031.1375
3236.42858	6027.0375
3238.71446	6008.7375
3240.99896	5986.3375
3243.28209	5999.8375
3245.56384	5977.1375
3247.84423	5985.1375
3250.12324	5958.3375
3252.40088	5944.4375
3254.67715	5924.2375
3256.95205	5915.2375
3259.22558	5946.6375
3261.49775	5918.9375
3263.76855	5933.5375
3266.03799	5894.8375
3268.30606	5914.7375
3270.57277	5913.1375
3272.83812	5888.7375
3275.10211	5871.3375
3277.36474	5855.5375
3279.62601	5863.6375
3281.88593	5854.8375
3284.14448	5845.0375
3286.40168	5833.6375
3288.65753	5836.9375
3290.91202	5843.4375
3293.16516	5805.0375
3295.41695	5805.3375
3297.66738	5784.5375
3299.91647	5750.2375
3302.16421	5714.3375
3304.4106	5689.4375
3306.65564	5638.7375
3308.89933	5614.7375
3311.14169	5589.0375
3313.38269	5543.3375
3315.62236	5511.9375
3317.86068	5462.9375
3320.09766	5413.4375
3322.3333	5377.5375
3324.5676	5353.7375
3326.80056	5287.3375
3329.03219	5247.7375
3331.26248	3.0375
3333.49143	-0.0625
3335.71905	0.0375
