Data from AgNPs_UA_0uM_CRN_0uM_R6G_10uM_Q_RamanShift__6__11-25-28-752.txt Node

Date: Wed Jul 13 11:25:28 BST 2022
User: TCL
Spectrometer: QEP01345
Trigger mode: 4
Integration Time (sec): 7.000000E0
Scans to average: 10
Electric dark correction enabled: true
Nonlinearity correction enabled: false
Boxcar width: 0
XAxis mode: Raman Shifts
Number of Pixels in Spectrum: 1044
>>>>>Begin Spectral Data<<<<<
46.04893	-0.9125
50.45542	-1.3125
54.85868	-0.5125
59.25871	-0.4125
63.6555	51.6875
68.04907	55.7875
72.43941	59.7875
76.82654	63.0875
81.21044	65.8875
85.59113	68.3875
89.96862	74.1875
94.34289	74.3875
98.71396	74.5875
103.08183	79.0875
107.4465	80.6875
111.80798	81.0875
116.16626	82.4875
120.52136	84.0875
124.87327	86.0875
129.222	89.2875
133.56755	92.3875
137.90993	102.4875
142.24913	102.1875
146.58517	110.8875
150.91804	127.4875
155.24774	144.3875
159.57429	176.1875
163.89768	212.8875
168.21792	280.4875
172.53501	380.1875
176.84895	526.0875
181.15975	729.8875
185.46741	1015.7875
189.77193	1400.7875
194.07331	1884.2875
198.37157	2442.6875
202.6667	3012.0875
206.9587	3598.2875
211.24758	4198.4875
215.53334	4816.5875
219.81599	5529.6875
224.09553	6291.4875
228.37195	7102.5875
232.64527	7941.5875
236.91549	8660.9875
241.18261	9296.7875
245.44663	9736.0875
249.70755	10063.4875
253.96539	10386.6875
258.22014	10740.6875
262.4718	11067.2875
266.72039	11231.9875
270.96589	11220.7875
275.20832	11039.6875
279.44768	10772.6875
283.68397	10478.2875
287.91719	10278.2875
292.14735	10324.1875
296.37445	10678.6875
300.59849	11328.3875
304.81948	12204.4875
309.03742	13019.0875
313.25231	13400.4875
317.46415	12996.0875
321.67296	11894.2875
325.87872	10778.1875
330.08145	10153.3875
334.28114	10041.7875
338.47781	10270.8875
342.67145	10702.8875
346.86207	11347.5875
351.04966	12289.1875
355.23424	13219.4875
359.4158	13629.1875
363.59435	13553.1875
367.76989	13240.8875
371.94243	12899.8875
376.11196	12604.5875
380.27849	12328.0875
384.44203	12103.7875
388.60257	11936.5875
392.76012	11941.8875
396.91468	12194.7875
401.06626	12527.0875
405.21485	12619.2875
409.36047	12120.5875
413.50311	11268.1875
417.64277	10427.5875
421.77947	9978.3875
425.9132	9765.8875
430.04396	9671.5875
434.17176	9667.9875
438.2966	9798.1875
442.41849	10068.1875
446.53742	10353.9875
450.6534	10605.1875
454.76644	10684.6875
458.87653	10621.2875
462.98368	10498.3875
467.08789	10330.9875
471.18916	10067.1875
475.2875	9711.7875
479.38291	9390.2875
483.4754	9171.2875
487.56496	9099.1875
491.6516	9023.2875
495.73531	9019.1875
499.81612	9109.5875
503.89401	9287.9875
507.96899	9486.2875
512.04106	9751.8875
516.11023	10002.7875
520.1765	10170.9875
524.23987	10232.6875
528.30034	10162.6875
532.35792	10062.5875
536.41261	9834.2875
540.46441	9542.2875
544.51333	9376.1875
548.55936	9421.8875
552.60252	9644.1875
556.64279	9980.1875
560.6802	10268.3875
564.71473	10726.8875
568.7464	11469.6875
572.7752	11533.1875
576.80114	10657.8875
580.82422	9906.1875
584.84444	9682.1875
588.86181	9762.4875
592.87633	9989.1875
596.888	10267.8875
600.89682	10807.8875
604.9028	12974.2875
608.90594	18775.0875
612.90624	25519.5875
616.90371	23171.4875
620.89834	14412.6875
624.89015	10621.3875
628.87913	10053.6875
632.86528	10448.2875
636.84862	10700.7875
640.82913	10164.4875
644.80683	9324.6875
648.78172	8911.2875
652.75379	9034.7875
656.72306	9689.1875
660.68952	10366.4875
664.65319	10036.8875
668.61405	9250.6875
672.57211	8952.7875
676.52738	8962.0875
680.47986	8905.6875
684.42955	8752.7875
688.37646	8645.2875
692.32058	8660.3875
696.26192	8831.0875
700.20048	9002.7875
704.13626	9063.7875
708.06928	8969.9875
711.99952	8853.4875
715.927	8876.2875
719.85171	8986.5875
723.77365	9074.0875
727.69284	8985.5875
731.60928	8883.1875
735.52295	8887.4875
739.43388	8946.0875
743.34206	9002.4875
747.24749	8985.4875
751.15017	8979.5875
755.05012	9200.3875
758.94733	10115.7875
762.8418	12269.4875
766.73354	15557.7875
770.62254	18013.8875
774.50882	18358.9875
778.39237	16899.8875
782.27321	14421.3875
786.15132	11768.9875
790.02671	10095.4875
793.89938	9320.0875
797.76935	8979.6875
801.6366	8821.1875
805.50115	8718.6875
809.36299	8658.8875
813.22213	8580.3875
817.07857	8570.1875
820.93231	8598.7875
824.78336	8628.7875
828.63172	8734.8875
832.47738	8745.6875
836.32036	8657.0875
840.16066	8529.6875
843.99827	8452.9875
847.8332	8435.5875
851.66546	8455.7875
855.49504	8450.3875
859.32195	8424.0875
863.1462	8385.9875
866.96777	8361.4875
870.78668	8378.5875
874.60293	8437.2875
878.41652	8524.9875
882.22745	8627.4875
886.03573	8737.2875
889.84136	8694.8875
893.64433	8644.4875
897.44466	8683.8875
901.24235	8680.3875
905.0374	8655.7875
908.8298	8541.7875
912.61957	8509.7875
916.40671	8516.9875
920.19121	8595.5875
923.97308	8751.6875
927.75233	9041.5875
931.52895	9334.1875
935.30295	9129.5875
939.07433	8663.4875
942.84309	8285.8875
946.60924	8090.7875
950.37278	7981.0875
954.13371	7922.5875
957.89203	7890.7875
961.64774	7845.6875
965.40086	7812.5875
969.15137	7779.1875
972.89929	7765.2875
976.64461	7727.4875
980.38733	7702.5875
984.12747	7712.5875
987.86502	7737.2875
991.59999	7785.3875
995.33237	7862.5875
999.06217	7993.3875
1002.78939	8207.5875
1006.51404	8492.6875
1010.23611	8752.4875
1013.95561	8778.9875
1017.67255	8689.6875
1021.38692	8522.3875
1025.09872	8314.6875
1028.80796	8164.6875
1032.51465	8150.9875
1036.21877	8209.0875
1039.92035	8249.9875
1043.61937	8303.0875
1047.31584	8329.8875
1051.00976	8376.8875
1054.70114	8335.6875
1058.38998	8315.5875
1062.07627	8340.2875
1065.76003	8353.7875
1069.44126	8417.5875
1073.11995	8579.5875
1076.79611	8837.1875
1080.46974	9197.2875
1084.14085	9756.5875
1087.80943	10285.5875
1091.47549	10364.7875
1095.13903	9942.7875
1098.80005	9437.0875
1102.45857	9212.1875
1106.11456	9118.7875
1109.76805	9154.0875
1113.41903	9395.6875
1117.06751	9902.2875
1120.71348	10575.9875
1124.35696	11462.1875
1127.99793	12225.3875
1131.63641	11910.0875
1135.2724	10827.6875
1138.90589	9933.9875
1142.5369	9420.1875
1146.16542	9092.4875
1149.79145	8881.3875
1153.415	8786.1875
1157.03607	8836.2875
1160.65467	9067.0875
1164.27079	9526.4875
1167.88443	10257.2875
1171.49561	11344.8875
1175.10432	13270.9875
1178.71056	15861.7875
1182.31434	17815.3875
1185.91565	17988.6875
1189.51451	16842.4875
1193.11091	15392.3875
1196.70485	13982.4875
1200.29634	13050.7875
1203.88538	12236.1875
1207.47197	11189.0875
1211.05612	10284.6875
1214.63782	9701.9875
1218.21708	9331.8875
1221.79391	9235.9875
1225.36829	9284.0875
1228.94024	9275.2875
1232.50976	9229.7875
1236.07685	9183.5875
1239.6415	9219.2875
1243.20374	9299.7875
1246.76355	9384.7875
1250.32093	9557.9875
1253.8759	9817.2875
1257.42845	10256.7875
1260.97859	10913.9875
1264.52631	11589.0875
1268.07163	12115.9875
1271.61453	12440.3875
1275.15503	12436.9875
1278.69312	12282.4875
1282.22882	12254.4875
1285.76211	12676.9875
1289.29301	13488.7875
1292.82151	14204.5875
1296.34761	14867.1875
1299.87133	15903.4875
1303.39266	17853.8875
1306.9116	21077.1875
1310.42815	24953.5875
1313.94233	26919.6875
1317.45412	25216.9875
1320.96354	21682.5875
1324.47058	18299.1875
1327.97525	15730.9875
1331.47754	14105.1875
1334.97747	13385.3875
1338.47502	13371.4875
1341.97022	14097.3875
1345.46305	15778.4875
1348.95352	18230.3875
1352.44163	20900.0875
1355.92738	24069.6875
1359.41078	29129.1875
1362.89183	34510.8875
1366.37053	33570.8875
1369.84688	26227.8875
1373.32088	19109.2875
1376.79254	15294.2875
1380.26186	13589.2875
1383.72883	12548.5875
1387.19347	11649.3875
1390.65578	10889.6875
1394.11575	10379.8875
1397.57339	10114.2875
1401.0287	9949.7875
1404.48168	9846.4875
1407.93234	9768.0875
1411.38068	9779.0875
1414.82669	9982.2875
1418.27039	10184.4875
1421.71177	10240.1875
1425.15083	10107.9875
1428.58758	10031.6875
1432.02203	10244.2875
1435.45416	10618.4875
1438.88399	10636.0875
1442.31151	10477.1875
1445.73673	10403.2875
1449.15965	10359.7875
1452.58027	10228.7875
1455.9986	10065.1875
1459.41463	9957.1875
1462.82837	10029.9875
1466.23982	10250.0875
1469.64898	10561.5875
1473.05586	10774.9875
1476.46045	10855.5875
1479.86276	11006.8875
1483.26279	11302.6875
1486.66054	11842.1875
1490.05602	12628.4875
1493.44922	13859.7875
1496.84016	15729.1875
1500.22882	18667.5875
1503.61521	22872.6875
1506.99934	27934.4875
1510.38121	32677.0875
1513.76081	34359.4875
1517.13816	31389.6875
1520.51324	25544.3875
1523.88607	20033.2875
1527.25665	16297.2875
1530.62498	14092.8875
1533.99105	12829.7875
1537.35488	11951.1875
1540.71647	11353.2875
1544.07581	10992.5875
1547.4329	10806.0875
1550.78776	10823.9875
1554.14038	11008.3875
1557.49077	11369.7875
1560.83892	11965.1875
1564.18484	12886.8875
1567.52853	13983.7875
1570.86999	14859.5875
1574.20922	15220.6875
1577.54624	14953.9875
1580.88103	13630.3875
1584.2136	11849.9875
1587.54395	10753.2875
1590.87208	10516.6875
1594.19801	11103.6875
1597.52172	12009.2875
1600.84321	12246.7875
1604.16251	11609.7875
1607.47959	10773.1875
1610.79447	10070.4875
1614.10715	9342.2875
1617.41763	8680.6875
1620.7259	8278.8875
1624.03199	8117.3875
1627.33587	8168.6875
1630.63757	8507.1875
1633.93707	9181.2875
1637.23439	10343.0875
1640.52951	12362.9875
1643.82246	15458.2875
1647.11321	19225.4875
1650.40179	22102.3875
1653.68819	21610.3875
1656.97241	17834.2875
1660.25446	13523.0875
1663.53433	10440.5875
1666.81203	8720.8875
1670.08756	7750.7875
1673.36092	7206.9875
1676.63211	6889.0875
1679.90115	6647.4875
1683.16801	6507.6875
1686.43272	6348.0875
1689.69527	6289.8875
1692.95567	6211.8875
1696.2139	6175.6875
1699.46999	6124.4875
1702.72392	6092.4875
1705.97571	6087.7875
1709.22535	6101.7875
1712.47284	6112.3875
1715.71819	6126.1875
1718.96139	6118.7875
1722.20246	6068.6875
1725.44139	6049.0875
1728.67818	5965.9875
1731.91284	5889.3875
1735.14537	5840.5875
1738.37576	5798.2875
1741.60403	5774.5875
1744.83017	5739.5875
1748.05418	5720.6875
1751.27607	5693.1875
1754.49584	5651.7875
1757.71349	5636.4875
1760.92903	5597.0875
1764.14244	5573.8875
1767.35375	5574.1875
1770.56294	5541.2875
1773.77002	5528.7875
1776.97499	5511.8875
1780.17785	5464.5875
1783.37861	5468.0875
1786.57727	5417.4875
1789.77382	5393.4875
1792.96828	5403.9875
1796.16064	5397.6875
1799.3509	5356.0875
1802.53907	5365.9875
1805.72514	5327.7875
1808.90913	5306.7875
1812.09102	5290.6875
1815.27083	5232.0875
1818.44856	5227.5875
1821.6242	5201.1875
1824.79776	5151.0875
1827.96924	5155.9875
1831.13864	5132.0875
1834.30597	5122.1875
1837.47122	5090.0875
1840.6344	5069.3875
1843.7955	5065.5875
1846.95454	5056.3875
1850.11151	5028.2875
1853.26642	5009.7875
1856.41926	4996.1875
1859.57004	4990.5875
1862.71876	4997.6875
1865.86542	4994.8875
1869.01003	4982.3875
1872.15258	4960.9875
1875.29308	4941.5875
1878.43152	4938.6875
1881.56792	4928.4875
1884.70227	4918.8875
1887.83457	4910.3875
1890.96482	4873.9875
1894.09304	4852.6875
1897.21921	4859.4875
1900.34335	4839.7875
1903.46544	4828.2875
1906.58551	4824.2875
1909.70353	4832.1875
1912.81953	4829.4875
1915.93349	4828.0875
1919.04543	4784.7875
1922.15534	4778.8875
1925.26322	4771.7875
1928.36908	4742.4875
1931.47292	4722.9875
1934.57473	4687.1875
1937.67453	4663.5875
1940.77232	4634.1875
1943.86808	4602.3875
1946.96184	4613.7875
1950.05358	4576.7875
1953.14331	4579.4875
1956.23103	4558.3875
1959.31675	4542.1875
1962.40046	4538.0875
1965.48217	4526.3875
1968.56188	4536.2875
1971.63959	4520.4875
1974.7153	4497.4875
1977.78901	4501.5875
1980.86073	4467.9875
1983.93046	4437.4875
1986.99819	4397.1875
1990.06394	4378.9875
1993.1277	4345.4875
1996.18947	4331.2875
1999.24925	4313.2875
2002.30706	4291.9875
2005.36288	4255.4875
2008.41672	4257.5875
2011.46859	4245.5875
2014.51848	4228.0875
2017.56639	4191.0875
2020.61233	4197.8875
2023.6563	4169.2875
2026.6983	4156.3875
2029.73833	4144.2875
2032.7764	4117.3875
2035.8125	4113.0875
2038.84664	4096.6875
2041.87881	4105.7875
2044.90903	4096.7875
2047.93729	4082.6875
2050.96359	4060.1875
2053.98794	4066.9875
2057.01034	4061.3875
2060.03078	4050.8875
2063.04927	4040.2875
2066.06582	4034.7875
2069.08042	4008.5875
2072.09307	4008.0875
2075.10378	3987.5875
2078.11255	4006.2875
2081.11938	3984.0875
2084.12426	3999.6875
2087.12722	4011.1875
2090.12824	4001.1875
2093.12732	3992.0875
2096.12447	4004.9875
2099.11969	3997.8875
2102.11299	3994.5875
2105.10435	4021.7875
2108.09379	3999.1875
2111.08131	3994.9875
2114.0669	4006.9875
2117.05057	4009.1875
2120.03233	4012.9875
2123.01216	4031.9875
2125.99008	4037.3875
2128.96609	4027.8875
2131.94018	4021.6875
2134.91236	4012.3875
2137.88263	4007.3875
2140.851	3985.4875
2143.81746	3991.1875
2146.78201	3969.1875
2149.74466	3966.1875
2152.7054	3960.2875
2155.66425	3925.5875
2158.6212	3913.0875
2161.57625	3906.4875
2164.52941	3905.8875
2167.48067	3909.9875
2170.43004	3882.9875
2173.37752	3895.3875
2176.32311	3895.8875
2179.26681	3888.4875
2182.20863	3897.2875
2185.14856	3889.8875
2188.08661	3893.0875
2191.02278	3878.1875
2193.95707	3870.6875
2196.88948	3863.4875
2199.82001	3860.2875
2202.74867	3814.7875
2205.67545	3815.5875
2208.60037	3817.4875
2211.52341	3813.1875
2214.44458	3801.6875
2217.36388	3782.5875
2220.28132	3774.8875
2223.1969	3764.8875
2226.11061	3758.0875
2229.02246	3743.6875
2231.93245	3729.2875
2234.84058	3718.8875
2237.74686	3713.1875
2240.65128	3710.8875
2243.55385	3713.0875
2246.45456	3711.8875
2249.35343	3712.8875
2252.25044	3703.2875
2255.14561	3696.8875
2258.03893	3721.8875
2260.93041	3737.4875
2263.82004	3729.5875
2266.70783	3714.4875
2269.59378	3690.3875
2272.4779	3689.9875
2275.36017	3665.1875
2278.24061	3674.1875
2281.11922	3654.5875
2283.996	3654.2875
2286.87094	3623.9875
2289.74405	3602.6875
2292.61534	3591.2875
2295.4848	3581.1875
2298.35243	3592.9875
2301.21824	3568.0875
2304.08223	3557.2875
2306.94439	3549.8875
2309.80474	3554.5875
2312.66327	3553.6875
2315.51999	3541.1875
2318.37489	3539.3875
2321.22797	3522.0875
2324.07925	3524.0875
2326.92871	3514.7875
2329.77637	3517.6875
2332.62222	3500.0875
2335.46626	3501.0875
2338.3085	3492.0875
2341.14893	3492.2875
2343.98756	3488.6875
2346.8244	3489.3875
2349.65943	3484.7875
2352.49267	3505.4875
2355.32411	3516.1875
2358.15376	3518.4875
2360.98161	3520.7875
2363.80768	3536.5875
2366.63195	3549.4875
2369.45444	3542.8875
2372.27514	3554.6875
2375.09405	3549.0875
2377.91118	3514.6875
2380.72652	3493.3875
2383.54009	3496.3875
2386.35187	3465.0875
2389.16188	3448.6875
2391.97011	3432.3875
2394.77657	3402.0875
2397.58125	3398.8875
2400.38416	3363.0875
2403.18529	3348.8875
2405.98466	3361.7875
2408.78226	3356.1875
2411.57809	3352.1875
2414.37216	3336.4875
2417.16446	3325.5875
2419.955	3329.8875
2422.74378	3320.4875
2425.5308	3327.9875
2428.31606	3336.5875
2431.09956	3340.8875
2433.88131	3321.5875
2436.6613	3332.1875
2439.43954	3321.2875
2442.21603	3331.5875
2444.99077	3335.4875
2447.76377	3341.8875
2450.53501	3339.3875
2453.30451	3350.8875
2456.07226	3336.8875
2458.83827	3334.9875
2461.60254	3335.7875
2464.36507	3320.6875
2467.12586	3318.8875
2469.88492	3326.5875
2472.64224	3311.4875
2475.39782	3316.9875
2478.15167	3322.4875
2480.90379	3340.5875
2483.65417	3339.4875
2486.40283	3345.0875
2489.14976	3354.2875
2491.89497	3359.9875
2494.63845	3372.0875
2497.3802	3351.4875
2500.12024	3345.8875
2502.85855	3343.0875
2505.59514	3314.0875
2508.33002	3304.7875
2511.06318	3278.1875
2513.79462	3247.2875
2516.52435	3230.7875
2519.25237	3202.1875
2521.97867	3185.7875
2524.70327	3175.1875
2527.42616	3179.6875
2530.14734	3156.7875
2532.86681	3149.0875
2535.58458	3141.3875
2538.30065	3154.0875
2541.01501	3147.8875
2543.72768	3147.7875
2546.43864	3147.5875
2549.14791	3142.0875
2551.85548	3144.6875
2554.56136	3152.6875
2557.26554	3157.3875
2559.96803	3150.0875
2562.66883	3138.0875
2565.36794	3127.0875
2568.06536	3126.9875
2570.7611	3122.8875
2573.45514	3105.0875
2576.14751	3100.7875
2578.83819	3087.3875
2581.52719	3081.3875
2584.21451	3078.4875
2586.90015	3057.3875
2589.58411	3058.6875
2592.2664	3058.4875
2594.94701	3048.6875
2597.62594	3039.2875
2600.30321	3033.0875
2602.9788	3034.9875
2605.65273	3026.9875
2608.32498	3016.9875
2610.99557	3029.0875
2613.66449	3022.8875
2616.33175	3027.4875
2618.99734	3029.1875
2621.66128	3015.2875
2624.32355	3018.2875
2626.98416	3002.0875
2629.64311	2997.5875
2632.30041	3000.5875
2634.95605	2975.5875
2637.61004	2951.8875
2640.26238	2946.0875
2642.91306	2929.3875
2645.56209	2929.3875
2648.20948	2927.4875
2650.85521	2923.7875
2653.4993	2909.6875
2656.14175	2929.8875
2658.78255	2928.5875
2661.42171	2932.6875
2664.05923	2944.2875
2666.6951	2956.8875
2669.32934	2945.3875
2671.96194	2948.4875
2674.59291	2954.2875
2677.22224	2957.7875
2679.84993	2945.5875
2682.476	2955.6875
2685.10043	2945.7875
2687.72324	2939.8875
2690.34441	2926.8875
2692.96396	2919.7875
2695.58188	2921.7875
2698.19818	2927.3875
2700.81285	2921.6875
2703.4259	2909.7875
2706.03733	2893.9875
2708.64714	2910.1875
2711.25533	2906.7875
2713.86191	2910.5875
2716.46687	2919.2875
2719.07021	2931.8875
2721.67194	2936.9875
2724.27206	2928.8875
2726.87057	2923.6875
2729.46747	2910.2875
2732.06276	2911.7875
2734.65644	2905.8875
2737.24852	2903.5875
2739.83899	2890.5875
2742.42786	2891.3875
2745.01513	2862.6875
2747.60079	2871.7875
2750.18486	2868.2875
2752.76733	2854.9875
2755.3482	2843.1875
2757.92747	2829.1875
2760.50515	2837.2875
2763.08123	2821.7875
2765.65573	2813.1875
2768.22863	2804.8875
2770.79994	2791.5875
2773.36967	2795.5875
2775.9378	2797.5875
2778.50435	2788.5875
2781.06932	2796.3875
2783.6327	2787.6875
2786.1945	2781.2875
2788.75471	2774.7875
2791.31335	2773.7875
2793.87041	2785.6875
2796.42589	2775.3875
2798.97979	2771.0875
2801.53212	2764.5875
2804.08288	2757.3875
2806.63206	2767.9875
2809.17967	2762.4875
2811.72571	2765.8875
2814.27018	2779.2875
2816.81308	2769.0875
2819.35442	2776.1875
2821.89419	2774.6875
2824.43239	2774.8875
2826.96904	2777.6875
2829.50412	2781.1875
2832.03763	2765.9875
2834.56959	2764.8875
2837.1	2766.2875
2839.62884	2761.4875
2842.15613	2767.4875
2844.68186	2761.7875
2847.20604	2773.3875
2849.72867	2763.7875
2852.24974	2764.5875
2854.76927	2763.8875
2857.28724	2770.9875
2859.80367	2772.8875
2862.31855	2784.7875
2864.83189	2797.8875
2867.34368	2790.5875
2869.85393	2786.2875
2872.36264	2801.2875
2874.8698	2797.9875
2877.37543	2790.4875
2879.87952	2788.6875
2882.38207	2773.4875
2884.88308	2779.4875
2887.38256	2762.8875
2889.88051	2751.0875
2892.37692	2744.5875
2894.8718	2759.0875
2897.36515	2745.6875
2899.85698	2751.3875
2902.34727	2764.3875
2904.83604	2777.8875
2907.32328	2777.5875
2909.809	2785.8875
2912.29319	2783.2875
2914.77587	2807.9875
2917.25702	2808.1875
2919.73665	2794.5875
2922.21476	2793.6875
2924.69136	2780.8875
2927.16644	2766.7875
2929.64	2742.4875
2932.11205	2735.2875
2934.58258	2733.8875
2937.05161	2723.9875
2939.51912	2703.9875
2941.98513	2715.9875
2944.44962	2702.9875
2946.91261	2690.4875
2949.37409	2675.0875
2951.83407	2681.8875
2954.29254	2684.5875
2956.74951	2692.2875
2959.20498	2680.1875
2961.65895	2681.5875
2964.11142	2678.6875
2966.56239	2675.2875
2969.01186	2660.9875
2971.45984	2655.0875
2973.90632	2656.4875
2976.35131	2642.5875
2978.7948	2633.6875
2981.23681	2621.4875
2983.67732	2616.3875
2986.11635	2638.3875
2988.55388	2621.9875
2990.98993	2613.2875
2993.4245	2605.8875
2995.85758	2596.1875
2998.28917	2583.7875
3000.71928	2586.2875
3003.14791	2584.0875
3005.57506	2595.8875
3008.00073	2568.9875
3010.42493	2571.4875
3012.84764	2576.1875
3015.26888	2574.7875
3017.68865	2563.2875
3020.10694	2548.1875
3022.52376	2548.6875
3024.9391	2545.4875
3027.35298	2549.5875
3029.76539	2530.6875
3032.17632	2518.6875
3034.5858	2512.4875
3036.9938	2505.8875
3039.40034	2503.1875
3041.80542	2494.6875
3044.20903	2471.3875
3046.61118	2473.0875
3049.01187	2473.6875
3051.4111	2471.3875
3053.80888	2469.1875
3056.20519	2472.0875
3058.60005	2461.7875
3060.99345	2454.3875
3063.3854	2450.1875
3065.7759	2455.5875
3068.16494	2444.0875
3070.55254	2435.6875
3072.93868	2440.7875
3075.32338	2419.2875
3077.70662	2426.2875
3080.08842	2423.7875
3082.46878	2417.5875
3084.84769	2411.6875
3087.22515	2419.0875
3089.60118	2407.1875
3091.97576	2420.8875
3094.3489	2408.6875
3096.72061	2412.4875
3099.09087	2417.4875
3101.4597	2408.4875
3103.82709	2412.8875
3106.19305	2413.0875
3108.55757	2413.9875
3110.92066	2408.7875
3113.28232	2411.3875
3115.64255	2407.2875
3118.00134	2402.8875
3120.35871	2410.2875
3122.71466	2410.6875
3125.06917	2402.9875
3127.42226	2401.5875
3129.77393	2408.4875
3132.12417	2416.4875
3134.47299	2410.3875
3136.82039	2401.4875
3139.16636	2414.7875
3141.51092	2416.9875
3143.85406	2413.9875
3146.19579	2426.8875
3148.53609	2434.6875
3150.87499	2442.0875
3153.21246	2441.8875
3155.54853	2446.5875
3157.88318	2440.3875
3160.21642	2458.7875
3162.54826	2455.4875
3164.87868	2472.2875
3167.2077	2463.0875
3169.5353	2463.8875
3171.86151	2465.4875
3174.18631	2461.0875
3176.5097	2464.4875
3178.83169	2460.7875
3181.15228	2463.2875
3183.47147	2451.5875
3185.78926	2444.2875
3188.10565	2443.2875
3190.42065	2445.2875
3192.73424	2450.0875
3195.04645	2447.0875
3197.35725	2456.0875
3199.66667	2446.6875
3201.97469	2447.8875
3204.28132	2457.6875
3206.58656	2455.0875
3208.8904	2469.5875
3211.19287	2463.2875
3213.49394	2476.6875
3215.79363	2482.0875
3218.09193	2475.2875
3220.38884	2489.3875
3222.68438	2479.6875
3224.97853	2491.8875
3227.2713	2490.8875
3229.56269	2487.2875
3231.8527	2477.2875
3234.14133	2473.6875
3236.42858	2464.2875
3238.71446	2474.2875
3240.99896	2464.3875
3243.28209	2463.2875
3245.56384	2463.2875
3247.84423	2455.8875
3250.12324	2446.5875
3252.40088	2459.0875
3254.67715	2457.3875
3256.95205	2450.6875
3259.22558	2442.6875
3261.49775	2454.6875
3263.76855	2451.5875
3266.03799	2444.3875
3268.30606	2440.3875
3270.57277	2438.6875
3272.83812	2437.0875
3275.10211	2432.1875
3277.36474	2419.0875
3279.62601	2431.2875
3281.88593	2429.0875
3284.14448	2428.6875
3286.40168	2437.1875
3288.65753	2433.9875
3290.91202	2440.2875
3293.16516	2427.4875
3295.41695	2433.4875
3297.66738	2433.3875
3299.91647	2409.5875
3302.16421	2406.2875
3304.4106	2382.9875
3306.65564	2384.1875
3308.89933	2367.4875
3311.14169	2344.2875
3313.38269	2326.4875
3315.62236	2311.1875
3317.86068	2290.2875
3320.09766	2282.5875
3322.3333	2270.6875
3324.5676	2260.9875
3326.80056	2217.9875
3329.03219	2201.8875
3331.26248	0.7875
3333.49143	1.3875
3335.71905	1.1875
