Data from AgNPs_UA_0uM_CRN_0uM_R6G_10uM_Q_RamanShift__35__11-59-18-787.txt Node

Date: Wed Jul 13 11:59:18 BST 2022
User: TCL
Spectrometer: QEP01345
Trigger mode: 4
Integration Time (sec): 7.000000E0
Scans to average: 10
Electric dark correction enabled: true
Nonlinearity correction enabled: false
Boxcar width: 0
XAxis mode: Raman Shifts
Number of Pixels in Spectrum: 1044
>>>>>Begin Spectral Data<<<<<
46.04893	0.4375
50.45542	-0.3625
54.85868	-1.5625
59.25871	-0.4625
63.6555	36.2375
68.04907	44.3375
72.43941	46.1375
76.82654	53.5375
81.21044	54.2375
85.59113	58.3375
89.96862	58.0375
94.34289	61.2375
98.71396	58.8375
103.08183	64.3375
107.4465	68.4375
111.80798	68.6375
116.16626	63.6375
120.52136	64.9375
124.87327	66.4375
129.222	66.9375
133.56755	64.4375
137.90993	69.6375
142.24913	69.0375
146.58517	70.2375
150.91804	76.9375
155.24774	78.1375
159.57429	85.5375
163.89768	99.4375
168.21792	120.9375
172.53501	150.9375
176.84895	194.1375
181.15975	257.9375
185.46741	351.3375
189.77193	462.4375
194.07331	614.4375
198.37157	774.8375
202.6667	932.6375
206.9587	1108.2375
211.24758	1288.9375
215.53334	1462.1375
219.81599	1658.1375
224.09553	1889.7375
228.37195	2136.0375
232.64527	2416.8375
236.91549	2665.6375
241.18261	2913.8375
245.44663	3134.3375
249.70755	3295.4375
253.96539	3412.2375
258.22014	3503.1375
262.4718	3555.5375
266.72039	3577.8375
270.96589	3564.4375
275.20832	3547.8375
279.44768	3476.6375
283.68397	3418.9375
287.91719	3379.6375
292.14735	3378.2375
296.37445	3442.0375
300.59849	3566.2375
304.81948	3722.4375
309.03742	3831.7375
313.25231	3812.6375
317.46415	3628.3375
321.67296	3353.3375
325.87872	3154.7375
330.08145	3076.1375
334.28114	3068.5375
338.47781	3127.4375
342.67145	3212.6375
346.86207	3358.0375
351.04966	3574.0375
355.23424	3819.7375
359.4158	3975.3375
363.59435	4037.2375
367.76989	4057.1375
371.94243	4008.6375
376.11196	3969.0375
380.27849	3945.3375
384.44203	3894.7375
388.60257	3809.3375
392.76012	3813.5375
396.91468	3835.0375
401.06626	3947.0375
405.21485	4008.4375
409.36047	3901.4375
413.50311	3680.2375
417.64277	3499.8375
421.77947	3391.0375
425.9132	3372.9375
430.04396	3390.5375
434.17176	3436.9375
438.2966	3548.6375
442.41849	3743.9375
446.53742	3943.4375
450.6534	4090.0375
454.76644	4142.2375
458.87653	4094.5375
462.98368	3984.1375
467.08789	3834.1375
471.18916	3682.1375
475.2875	3530.5375
479.38291	3417.3375
483.4754	3302.9375
487.56496	3251.0375
491.6516	3218.5375
495.73531	3169.2375
499.81612	3167.5375
503.89401	3204.9375
507.96899	3263.9375
512.04106	3310.6375
516.11023	3388.7375
520.1765	3439.0375
524.23987	3432.6375
528.30034	3403.1375
532.35792	3333.5375
536.41261	3244.1375
540.46441	3140.8375
544.51333	3112.6375
548.55936	3119.1375
552.60252	3208.0375
556.64279	3297.4375
560.6802	3359.2375
564.71473	3410.4375
568.7464	3563.2375
572.7752	3635.1375
576.80114	3504.5375
580.82422	3391.9375
584.84444	3401.0375
588.86181	3527.7375
592.87633	3739.1375
596.888	3927.8375
600.89682	4107.5375
604.9028	4539.8375
608.90594	5706.0375
612.90624	6948.2375
616.90371	6154.8375
620.89834	4218.4375
624.89015	3415.6375
628.87913	3253.8375
632.86528	3279.3375
636.84862	3281.4375
640.82913	3174.6375
644.80683	3013.6375
648.78172	2947.1375
652.75379	3016.5375
656.72306	3195.4375
660.68952	3335.7375
664.65319	3235.3375
668.61405	3032.3375
672.57211	2968.5375
676.52738	2956.1375
680.47986	2896.6375
684.42955	2882.7375
688.37646	2871.8375
692.32058	2906.7375
696.26192	2984.2375
700.20048	3059.5375
704.13626	3103.1375
708.06928	3074.8375
711.99952	3008.2375
715.927	2951.9375
719.85171	2951.3375
723.77365	2941.1375
727.69284	2898.9375
731.60928	2874.8375
735.52295	2896.9375
739.43388	2904.8375
743.34206	2905.1375
747.24749	2920.8375
751.15017	2936.9375
755.05012	3022.5375
758.94733	3245.8375
762.8418	3730.2375
766.73354	4442.7375
770.62254	5120.9375
774.50882	5415.2375
778.39237	5159.8375
782.27321	4386.9375
786.15132	3638.4375
790.02671	3197.4375
793.89938	3026.4375
797.76935	2946.4375
801.6366	2913.1375
805.50115	2867.0375
809.36299	2851.8375
813.22213	2842.1375
817.07857	2844.9375
820.93231	2825.4375
824.78336	2853.1375
828.63172	2864.3375
832.47738	2862.1375
836.32036	2852.9375
840.16066	2820.3375
843.99827	2792.0375
847.8332	2767.6375
851.66546	2773.8375
855.49504	2750.6375
859.32195	2735.2375
863.1462	2706.4375
866.96777	2666.5375
870.78668	2664.8375
874.60293	2669.6375
878.41652	2702.3375
882.22745	2729.4375
886.03573	2738.1375
889.84136	2712.8375
893.64433	2689.2375
897.44466	2700.5375
901.24235	2692.8375
905.0374	2662.5375
908.8298	2643.3375
912.61957	2629.0375
916.40671	2648.8375
920.19121	2687.4375
923.97308	2713.9375
927.75233	2766.7375
931.52895	2779.5375
935.30295	2707.3375
939.07433	2606.5375
942.84309	2513.1375
946.60924	2458.8375
950.37278	2440.3375
954.13371	2426.5375
957.89203	2402.8375
961.64774	2375.3375
965.40086	2374.5375
969.15137	2370.8375
972.89929	2355.3375
976.64461	2356.4375
980.38733	2360.4375
984.12747	2367.8375
987.86502	2387.2375
991.59999	2403.5375
995.33237	2461.3375
999.06217	2541.3375
1002.78939	2664.8375
1006.51404	2749.4375
1010.23611	2818.4375
1013.95561	2858.8375
1017.67255	2830.4375
1021.38692	2743.4375
1025.09872	2646.3375
1028.80796	2595.6375
1032.51465	2602.0375
1036.21877	2664.2375
1039.92035	2739.4375
1043.61937	2767.5375
1047.31584	2755.1375
1051.00976	2708.7375
1054.70114	2665.4375
1058.38998	2641.7375
1062.07627	2619.6375
1065.76003	2643.2375
1069.44126	2641.3375
1073.11995	2689.2375
1076.79611	2788.0375
1080.46974	2864.2375
1084.14085	2975.6375
1087.80943	3063.7375
1091.47549	3042.6375
1095.13903	2932.7375
1098.80005	2812.3375
1102.45857	2708.5375
1106.11456	2695.7375
1109.76805	2754.1375
1113.41903	2858.5375
1117.06751	2997.1375
1120.71348	3194.6375
1124.35696	3409.7375
1127.99793	3512.5375
1131.63641	3405.1375
1135.2724	3157.7375
1138.90589	2972.1375
1142.5369	2857.3375
1146.16542	2818.2375
1149.79145	2793.4375
1153.415	2813.9375
1157.03607	2876.8375
1160.65467	2968.8375
1164.27079	3133.4375
1167.88443	3388.3375
1171.49561	3812.2375
1175.10432	4487.5375
1178.71056	5297.8375
1182.31434	5867.0375
1185.91565	6045.0375
1189.51451	5903.1375
1193.11091	5544.3375
1196.70485	5077.2375
1200.29634	4621.4375
1203.88538	4197.4375
1207.47197	3809.7375
1211.05612	3541.9375
1214.63782	3449.7375
1218.21708	3459.7375
1221.79391	3493.4375
1225.36829	3548.8375
1228.94024	3530.5375
1232.50976	3495.6375
1236.07685	3489.7375
1239.6415	3483.5375
1243.20374	3487.6375
1246.76355	3473.4375
1250.32093	3512.0375
1253.8759	3603.1375
1257.42845	3771.1375
1260.97859	3968.5375
1264.52631	4177.0375
1268.07163	4363.2375
1271.61453	4498.8375
1275.15503	4561.0375
1278.69312	4604.3375
1282.22882	4684.2375
1285.76211	4892.2375
1289.29301	5180.4375
1292.82151	5476.4375
1296.34761	5775.1375
1299.87133	6175.1375
1303.39266	6734.7375
1306.9116	7550.1375
1310.42815	8402.5375
1313.94233	8757.2375
1317.45412	8393.9375
1320.96354	7681.0375
1324.47058	6976.9375
1327.97525	6439.9375
1331.47754	6186.7375
1334.97747	6148.1375
1338.47502	6142.4375
1341.97022	6246.9375
1345.46305	6437.9375
1348.95352	6883.7375
1352.44163	7578.4375
1355.92738	8540.4375
1359.41078	9697.1375
1362.89183	10371.0375
1366.37053	9712.3375
1369.84688	8289.5375
1373.32088	6941.0375
1376.79254	6088.8375
1380.26186	5601.2375
1383.72883	5289.3375
1387.19347	5027.2375
1390.65578	4767.4375
1394.11575	4644.7375
1397.57339	4616.5375
1401.0287	4681.3375
1404.48168	4720.8375
1407.93234	4755.4375
1411.38068	4724.4375
1414.82669	4624.5375
1418.27039	4466.4375
1421.71177	4322.4375
1425.15083	4252.6375
1428.58758	4286.3375
1432.02203	4378.8375
1435.45416	4446.5375
1438.88399	4459.7375
1442.31151	4418.8375
1445.73673	4418.7375
1449.15965	4402.2375
1452.58027	4327.1375
1455.9986	4231.8375
1459.41463	4251.9375
1462.82837	4336.2375
1466.23982	4477.0375
1469.64898	4605.8375
1473.05586	4672.5375
1476.46045	4727.5375
1479.86276	4782.9375
1483.26279	4844.1375
1486.66054	4911.0375
1490.05602	5010.2375
1493.44922	5197.6375
1496.84016	5472.8375
1500.22882	5995.3375
1503.61521	6702.9375
1506.99934	7480.6375
1510.38121	8109.1375
1513.76081	8205.0375
1517.13816	7565.5375
1520.51324	6554.6375
1523.88607	5736.4375
1527.25665	5248.3375
1530.62498	5066.9375
1533.99105	4942.8375
1537.35488	4865.1375
1540.71647	4763.8375
1544.07581	4690.1375
1547.4329	4567.4375
1550.78776	4466.3375
1554.14038	4353.7375
1557.49077	4285.8375
1560.83892	4272.0375
1564.18484	4337.3375
1567.52853	4507.7375
1570.86999	4706.4375
1574.20922	4845.4375
1577.54624	4806.7375
1580.88103	4539.4375
1584.2136	4218.6375
1587.54395	4126.1375
1590.87208	4354.6375
1594.19801	4824.2375
1597.52172	5362.0375
1600.84321	5611.8375
1604.16251	5374.4375
1607.47959	4815.1375
1610.79447	4182.2375
1614.10715	3627.0375
1617.41763	3220.8375
1620.7259	3014.2375
1624.03199	2935.0375
1627.33587	2956.7375
1630.63757	3103.1375
1633.93707	3369.9375
1637.23439	3823.8375
1640.52951	4509.0375
1643.82246	5320.0375
1647.11321	5980.6375
1650.40179	6165.1375
1653.68819	5660.5375
1656.97241	4634.7375
1660.25446	3679.2375
1663.53433	3032.2375
1666.81203	2630.4375
1670.08756	2401.1375
1673.36092	2240.1375
1676.63211	2152.1375
1679.90115	2059.8375
1683.16801	2030.8375
1686.43272	1978.2375
1689.69527	1956.4375
1692.95567	1935.2375
1696.2139	1935.9375
1699.46999	1932.5375
1702.72392	1918.5375
1705.97571	1897.6375
1709.22535	1869.1375
1712.47284	1861.2375
1715.71819	1848.6375
1718.96139	1850.7375
1722.20246	1848.3375
1725.44139	1821.7375
1728.67818	1792.6375
1731.91284	1764.1375
1735.14537	1756.7375
1738.37576	1722.8375
1741.60403	1698.0375
1744.83017	1689.2375
1748.05418	1686.6375
1751.27607	1676.9375
1754.49584	1676.5375
1757.71349	1672.8375
1760.92903	1669.9375
1764.14244	1666.1375
1767.35375	1650.0375
1770.56294	1645.4375
1773.77002	1630.9375
1776.97499	1622.1375
1780.17785	1601.7375
1783.37861	1593.7375
1786.57727	1587.9375
1789.77382	1582.4375
1792.96828	1567.1375
1796.16064	1566.5375
1799.3509	1559.9375
1802.53907	1545.1375
1805.72514	1536.5375
1808.90913	1552.3375
1812.09102	1529.1375
1815.27083	1523.3375
1818.44856	1515.5375
1821.6242	1510.3375
1824.79776	1503.5375
1827.96924	1495.0375
1831.13864	1499.4375
1834.30597	1491.2375
1837.47122	1480.0375
1840.6344	1480.0375
1843.7955	1471.8375
1846.95454	1459.3375
1850.11151	1480.0375
1853.26642	1466.1375
1856.41926	1470.3375
1859.57004	1460.9375
1862.71876	1463.7375
1865.86542	1469.3375
1869.01003	1460.7375
1872.15258	1471.2375
1875.29308	1459.5375
1878.43152	1468.5375
1881.56792	1477.2375
1884.70227	1475.3375
1887.83457	1466.5375
1890.96482	1465.4375
1894.09304	1470.0375
1897.21921	1471.0375
1900.34335	1467.0375
1903.46544	1462.2375
1906.58551	1458.2375
1909.70353	1460.1375
1912.81953	1460.4375
1915.93349	1461.0375
1919.04543	1452.7375
1922.15534	1445.0375
1925.26322	1440.2375
1928.36908	1425.4375
1931.47292	1417.0375
1934.57473	1408.9375
1937.67453	1399.5375
1940.77232	1391.3375
1943.86808	1382.1375
1946.96184	1372.2375
1950.05358	1371.4375
1953.14331	1360.8375
1956.23103	1348.3375
1959.31675	1351.4375
1962.40046	1348.3375
1965.48217	1339.2375
1968.56188	1333.7375
1971.63959	1326.1375
1974.7153	1321.4375
1977.78901	1320.0375
1980.86073	1312.9375
1983.93046	1305.9375
1986.99819	1293.4375
1990.06394	1287.9375
1993.1277	1286.1375
1996.18947	1267.3375
1999.24925	1275.2375
2002.30706	1254.2375
2005.36288	1253.2375
2008.41672	1250.0375
2011.46859	1253.7375
2014.51848	1251.3375
2017.56639	1241.0375
2020.61233	1239.7375
2023.6563	1224.4375
2026.6983	1228.9375
2029.73833	1231.7375
2032.7764	1230.3375
2035.8125	1218.6375
2038.84664	1213.3375
2041.87881	1213.4375
2044.90903	1212.7375
2047.93729	1206.9375
2050.96359	1200.5375
2053.98794	1189.6375
2057.01034	1192.7375
2060.03078	1190.3375
2063.04927	1189.0375
2066.06582	1184.3375
2069.08042	1178.8375
2072.09307	1183.4375
2075.10378	1188.5375
2078.11255	1174.5375
2081.11938	1175.1375
2084.12426	1168.9375
2087.12722	1174.7375
2090.12824	1177.2375
2093.12732	1177.2375
2096.12447	1173.9375
2099.11969	1166.1375
2102.11299	1165.4375
2105.10435	1165.6375
2108.09379	1166.8375
2111.08131	1166.9375
2114.0669	1168.9375
2117.05057	1165.3375
2120.03233	1162.8375
2123.01216	1173.9375
2125.99008	1164.3375
2128.96609	1164.4375
2131.94018	1163.6375
2134.91236	1161.8375
2137.88263	1159.5375
2140.851	1169.9375
2143.81746	1158.2375
2146.78201	1155.2375
2149.74466	1147.5375
2152.7054	1143.4375
2155.66425	1145.0375
2158.6212	1138.0375
2161.57625	1135.2375
2164.52941	1132.7375
2167.48067	1136.1375
2170.43004	1133.6375
2173.37752	1129.2375
2176.32311	1125.0375
2179.26681	1123.5375
2182.20863	1128.7375
2185.14856	1127.0375
2188.08661	1121.2375
2191.02278	1110.9375
2193.95707	1117.0375
2196.88948	1115.0375
2199.82001	1116.9375
2202.74867	1106.4375
2205.67545	1110.1375
2208.60037	1108.3375
2211.52341	1107.3375
2214.44458	1097.0375
2217.36388	1091.7375
2220.28132	1086.4375
2223.1969	1080.3375
2226.11061	1093.1375
2229.02246	1076.3375
2231.93245	1074.5375
2234.84058	1062.2375
2237.74686	1070.5375
2240.65128	1070.8375
2243.55385	1066.7375
2246.45456	1075.6375
2249.35343	1067.2375
2252.25044	1060.0375
2255.14561	1063.5375
2258.03893	1066.3375
2260.93041	1059.2375
2263.82004	1054.8375
2266.70783	1055.2375
2269.59378	1053.8375
2272.4779	1044.1375
2275.36017	1030.6375
2278.24061	1043.0375
2281.11922	1030.9375
2283.996	1035.8375
2286.87094	1019.9375
2289.74405	1014.1375
2292.61534	1012.6375
2295.4848	1012.6375
2298.35243	1022.3375
2301.21824	1011.8375
2304.08223	1015.0375
2306.94439	1018.2375
2309.80474	1004.0375
2312.66327	1013.7375
2315.51999	1011.0375
2318.37489	1007.5375
2321.22797	1000.8375
2324.07925	1003.2375
2326.92871	1005.5375
2329.77637	1009.9375
2332.62222	998.6375
2335.46626	998.1375
2338.3085	990.5375
2341.14893	989.6375
2343.98756	988.5375
2346.8244	987.1375
2349.65943	991.3375
2352.49267	1001.2375
2355.32411	993.2375
2358.15376	997.5375
2360.98161	988.6375
2363.80768	1000.5375
2366.63195	996.8375
2369.45444	999.4375
2372.27514	1010.1375
2375.09405	1003.6375
2377.91118	1006.2375
2380.72652	996.8375
2383.54009	987.8375
2386.35187	982.5375
2389.16188	971.2375
2391.97011	974.4375
2394.77657	969.2375
2397.58125	962.9375
2400.38416	956.2375
2403.18529	957.0375
2405.98466	956.7375
2408.78226	953.0375
2411.57809	947.7375
2414.37216	937.4375
2417.16446	943.9375
2419.955	948.5375
2422.74378	947.9375
2425.5308	944.3375
2428.31606	936.1375
2431.09956	936.8375
2433.88131	942.6375
2436.6613	949.1375
2439.43954	940.2375
2442.21603	947.5375
2444.99077	944.4375
2447.76377	940.5375
2450.53501	946.6375
2453.30451	942.6375
2456.07226	941.3375
2458.83827	941.1375
2461.60254	947.3375
2464.36507	948.5375
2467.12586	946.7375
2469.88492	946.0375
2472.64224	939.8375
2475.39782	946.1375
2478.15167	948.3375
2480.90379	952.0375
2483.65417	951.1375
2486.40283	955.7375
2489.14976	961.1375
2491.89497	961.3375
2494.63845	969.6375
2497.3802	964.3375
2500.12024	963.1375
2502.85855	963.5375
2505.59514	953.3375
2508.33002	947.7375
2511.06318	934.4375
2513.79462	937.0375
2516.52435	932.7375
2519.25237	926.9375
2521.97867	926.3375
2524.70327	927.2375
2527.42616	923.1375
2530.14734	923.0375
2532.86681	918.4375
2535.58458	916.6375
2538.30065	917.6375
2541.01501	919.0375
2543.72768	923.3375
2546.43864	923.2375
2549.14791	924.0375
2551.85548	928.2375
2554.56136	922.7375
2557.26554	924.5375
2559.96803	916.8375
2562.66883	926.9375
2565.36794	927.9375
2568.06536	917.8375
2570.7611	921.2375
2573.45514	917.3375
2576.14751	917.7375
2578.83819	918.5375
2581.52719	918.2375
2584.21451	910.3375
2586.90015	912.4375
2589.58411	919.0375
2592.2664	916.9375
2594.94701	907.8375
2597.62594	910.9375
2600.30321	904.8375
2602.9788	912.2375
2605.65273	914.5375
2608.32498	915.2375
2610.99557	913.4375
2613.66449	922.0375
2616.33175	917.0375
2618.99734	920.6375
2621.66128	911.7375
2624.32355	923.0375
2626.98416	917.5375
2629.64311	914.7375
2632.30041	912.7375
2634.95605	906.9375
2637.61004	912.0375
2640.26238	903.0375
2642.91306	909.6375
2645.56209	901.9375
2648.20948	899.5375
2650.85521	901.6375
2653.4993	904.6375
2656.14175	915.0375
2658.78255	908.5375
2661.42171	912.4375
2664.05923	914.6375
2666.6951	921.0375
2669.32934	917.6375
2671.96194	921.5375
2674.59291	924.8375
2677.22224	927.3375
2679.84993	928.8375
2682.476	926.8375
2685.10043	931.5375
2687.72324	928.0375
2690.34441	928.4375
2692.96396	926.6375
2695.58188	935.0375
2698.19818	938.7375
2700.81285	938.8375
2703.4259	947.3375
2706.03733	949.1375
2708.64714	952.3375
2711.25533	956.8375
2713.86191	954.8375
2716.46687	963.7375
2719.07021	963.6375
2721.67194	971.6375
2724.27206	969.5375
2726.87057	967.2375
2729.46747	972.9375
2732.06276	967.5375
2734.65644	973.0375
2737.24852	958.8375
2739.83899	958.1375
2742.42786	967.8375
2745.01513	950.6375
2747.60079	954.7375
2750.18486	948.9375
2752.76733	949.4375
2755.3482	943.3375
2757.92747	942.3375
2760.50515	938.4375
2763.08123	939.4375
2765.65573	945.9375
2768.22863	942.8375
2770.79994	946.6375
2773.36967	956.0375
2775.9378	950.9375
2778.50435	962.0375
2781.06932	970.5375
2783.6327	969.6375
2786.1945	966.6375
2788.75471	982.2375
2791.31335	984.8375
2793.87041	988.9375
2796.42589	999.2375
2798.97979	1005.5375
2801.53212	1006.8375
2804.08288	1014.3375
2806.63206	1023.8375
2809.17967	1037.4375
2811.72571	1043.8375
2814.27018	1043.5375
2816.81308	1048.6375
2819.35442	1059.8375
2821.89419	1056.1375
2824.43239	1057.9375
2826.96904	1061.7375
2829.50412	1074.1375
2832.03763	1063.3375
2834.56959	1082.2375
2837.1	1077.3375
2839.62884	1109.8375
2842.15613	1125.9375
2844.68186	1161.2375
2847.20604	1200.5375
2849.72867	1229.1375
2852.24974	1238.0375
2854.76927	1251.4375
2857.28724	1258.3375
2859.80367	1235.4375
2862.31855	1234.6375
2864.83189	1223.0375
2867.34368	1213.6375
2869.85393	1214.7375
2872.36264	1207.5375
2874.8698	1212.6375
2877.37543	1204.5375
2879.87952	1195.0375
2882.38207	1195.6375
2884.88308	1191.0375
2887.38256	1188.7375
2889.88051	1186.5375
2892.37692	1204.5375
2894.8718	1194.6375
2897.36515	1207.5375
2899.85698	1207.5375
2902.34727	1206.1375
2904.83604	1226.1375
2907.32328	1216.8375
2909.809	1208.4375
2912.29319	1209.3375
2914.77587	1217.4375
2917.25702	1206.6375
2919.73665	1200.5375
2922.21476	1194.7375
2924.69136	1180.5375
2927.16644	1174.8375
2929.64	1172.1375
2932.11205	1165.9375
2934.58258	1153.3375
2937.05161	1144.1375
2939.51912	1123.4375
2941.98513	1105.3375
2944.44962	1081.7375
2946.91261	1053.7375
2949.37409	1033.5375
2951.83407	1024.5375
2954.29254	1014.3375
2956.74951	998.6375
2959.20498	995.7375
2961.65895	981.3375
2964.11142	975.4375
2966.56239	968.3375
2969.01186	968.0375
2971.45984	963.7375
2973.90632	956.5375
2976.35131	947.3375
2978.7948	942.0375
2981.23681	942.1375
2983.67732	927.6375
2986.11635	927.2375
2988.55388	918.8375
2990.98993	919.5375
2993.4245	904.9375
2995.85758	894.8375
2998.28917	888.2375
3000.71928	889.4375
3003.14791	884.7375
3005.57506	889.8375
3008.00073	878.2375
3010.42493	880.0375
3012.84764	879.7375
3015.26888	879.7375
3017.68865	873.7375
3020.10694	870.3375
3022.52376	866.4375
3024.9391	876.3375
3027.35298	879.0375
3029.76539	879.4375
3032.17632	883.4375
3034.5858	876.9375
3036.9938	873.4375
3039.40034	871.4375
3041.80542	878.3375
3044.20903	872.8375
3046.61118	871.5375
3049.01187	877.4375
3051.4111	877.3375
3053.80888	883.1375
3056.20519	880.9375
3058.60005	879.1375
3060.99345	883.1375
3063.3854	878.4375
3065.7759	882.9375
3068.16494	875.6375
3070.55254	877.2375
3072.93868	883.2375
3075.32338	880.5375
3077.70662	873.5375
3080.08842	871.9375
3082.46878	870.5375
3084.84769	868.7375
3087.22515	866.1375
3089.60118	864.5375
3091.97576	864.2375
3094.3489	864.3375
3096.72061	859.5375
3099.09087	871.9375
3101.4597	868.8375
3103.82709	857.9375
3106.19305	859.9375
3108.55757	866.6375
3110.92066	874.6375
3113.28232	868.4375
3115.64255	881.0375
3118.00134	875.3375
3120.35871	882.6375
3122.71466	882.2375
3125.06917	883.6375
3127.42226	887.4375
3129.77393	897.6375
3132.12417	898.3375
3134.47299	906.4375
3136.82039	905.6375
3139.16636	905.5375
3141.51092	916.7375
3143.85406	925.9375
3146.19579	923.4375
3148.53609	928.4375
3150.87499	938.0375
3153.21246	943.0375
3155.54853	945.9375
3157.88318	951.1375
3160.21642	959.5375
3162.54826	958.1375
3164.87868	967.5375
3167.2077	969.6375
3169.5353	979.2375
3171.86151	976.1375
3174.18631	980.8375
3176.5097	982.2375
3178.83169	988.6375
3181.15228	1003.2375
3183.47147	1002.6375
3185.78926	1004.9375
3188.10565	1004.2375
3190.42065	1015.5375
3192.73424	1016.9375
3195.04645	1029.6375
3197.35725	1026.1375
3199.66667	1032.8375
3201.97469	1028.3375
3204.28132	1041.7375
3206.58656	1041.9375
3208.8904	1044.1375
3211.19287	1055.6375
3213.49394	1052.9375
3215.79363	1057.4375
3218.09193	1063.6375
3220.38884	1057.6375
3222.68438	1068.2375
3224.97853	1070.7375
3227.2713	1073.6375
3229.56269	1068.0375
3231.8527	1070.3375
3234.14133	1073.1375
3236.42858	1068.2375
3238.71446	1073.3375
3240.99896	1067.7375
3243.28209	1072.3375
3245.56384	1078.1375
3247.84423	1069.6375
3250.12324	1070.5375
3252.40088	1062.3375
3254.67715	1071.7375
3256.95205	1081.3375
3259.22558	1075.2375
3261.49775	1072.1375
3263.76855	1074.8375
3266.03799	1075.0375
3268.30606	1077.9375
3270.57277	1068.3375
3272.83812	1062.7375
3275.10211	1067.2375
3277.36474	1088.7375
3279.62601	1077.7375
3281.88593	1061.8375
3284.14448	1069.4375
3286.40168	1064.8375
3288.65753	1069.6375
3290.91202	1068.6375
3293.16516	1066.6375
3295.41695	1069.9375
3297.66738	1067.4375
3299.91647	1062.8375
3302.16421	1048.7375
3304.4106	1043.9375
3306.65564	1044.5375
3308.89933	1043.7375
3311.14169	1023.4375
3313.38269	1025.1375
3315.62236	1023.0375
3317.86068	1016.7375
3320.09766	1007.0375
3322.3333	995.5375
3324.5676	992.4375
3326.80056	985.3375
3329.03219	983.2375
3331.26248	1.4375
3333.49143	0.5375
3335.71905	1.5375
