Data from AgNPs_UA_1uM_CRN_0uM_R6G_10uM_Q_RamanShift__18__12-31-45-885.txt Node

Date: Wed Jul 13 12:31:45 BST 2022
User: TCL
Spectrometer: QEP01345
Trigger mode: 4
Integration Time (sec): 7.000000E0
Scans to average: 10
Electric dark correction enabled: true
Nonlinearity correction enabled: false
Boxcar width: 0
XAxis mode: Raman Shifts
Number of Pixels in Spectrum: 1044
>>>>>Begin Spectral Data<<<<<
46.04893	-1.575
50.45542	-0.875
54.85868	-2.375
59.25871	-0.875
63.6555	89.425
68.04907	92.725
72.43941	99.625
76.82654	103.425
81.21044	109.625
85.59113	109.625
89.96862	118.125
94.34289	121.425
98.71396	123.625
103.08183	123.625
107.4465	128.625
111.80798	129.725
116.16626	139.025
120.52136	144.225
124.87327	146.625
129.222	157.425
133.56755	163.625
137.90993	177.125
142.24913	189.925
146.58517	212.825
150.91804	244.525
155.24774	291.125
159.57429	356.125
163.89768	459.725
168.21792	603.725
172.53501	835.625
176.84895	1155.425
181.15975	1613.725
185.46741	2256.525
189.77193	3110.625
194.07331	4140.425
198.37157	5315.925
202.6667	6527.525
206.9587	7733.825
211.24758	8911.725
215.53334	10115.525
219.81599	11429.225
224.09553	12876.925
228.37195	14480.825
232.64527	16219.025
236.91549	18029.225
241.18261	19854.125
245.44663	21474.625
249.70755	22904.325
253.96539	24124.625
258.22014	25233.825
262.4718	26086.225
266.72039	26667.425
270.96589	26903.525
275.20832	26813.125
279.44768	26628.525
283.68397	26295.025
287.91719	26069.425
292.14735	25886.425
296.37445	25952.725
300.59849	26058.025
304.81948	26282.725
309.03742	26472.325
313.25231	26423.825
317.46415	26029.025
321.67296	25486.125
325.87872	25022.125
330.08145	24836.625
334.28114	24930.425
338.47781	25190.625
342.67145	25531.525
346.86207	26048.625
351.04966	26640.325
355.23424	27277.625
359.4158	27801.725
363.59435	28115.425
367.76989	28303.625
371.94243	28444.625
376.11196	28555.725
380.27849	28654.425
384.44203	28792.325
388.60257	28929.425
392.76012	29129.825
396.91468	29480.425
401.06626	29912.725
405.21485	30232.325
409.36047	30015.925
413.50311	29621.525
417.64277	29407.325
421.77947	29397.925
425.9132	29369.825
430.04396	29526.325
434.17176	29704.425
438.2966	30098.325
442.41849	30693.925
446.53742	31533.325
450.6534	32365.025
454.76644	32884.725
458.87653	32906.425
462.98368	32498.525
467.08789	32013.625
471.18916	31421.825
475.2875	30961.625
479.38291	30608.825
483.4754	30357.825
487.56496	30070.525
491.6516	29854.225
495.73531	29744.525
499.81612	29704.225
503.89401	29881.625
507.96899	30015.825
512.04106	30075.225
516.11023	30064.325
520.1765	29992.125
524.23987	29943.525
528.30034	29862.225
532.35792	29725.625
536.41261	29379.625
540.46441	29010.125
544.51333	28970.425
548.55936	29243.125
552.60252	29728.225
556.64279	30343.425
560.6802	30730.025
564.71473	31021.825
568.7464	31435.725
572.7752	32027.125
576.80114	32357.525
580.82422	32870.825
584.84444	33612.325
588.86181	34568.225
592.87633	35695.825
596.888	36098.325
600.89682	35960.025
604.9028	36891.425
608.90594	39862.125
612.90624	42366.825
616.90371	39149.325
620.89834	33498.825
624.89015	31410.825
628.87913	31328.725
632.86528	31328.825
636.84862	31040.125
640.82913	30542.025
644.80683	29789.325
648.78172	29395.525
652.75379	29499.125
656.72306	29963.025
660.68952	30350.725
664.65319	30119.325
668.61405	29652.225
672.57211	29583.325
676.52738	29559.925
680.47986	29470.225
684.42955	29216.025
688.37646	29234.225
692.32058	29389.525
696.26192	29757.525
700.20048	30106.225
704.13626	30303.625
708.06928	30153.825
711.99952	29957.925
715.927	29923.225
719.85171	29965.125
723.77365	29919.725
727.69284	29694.925
731.60928	29504.125
735.52295	29508.525
739.43388	29630.125
743.34206	29742.925
747.24749	29866.125
751.15017	30034.825
755.05012	30462.525
758.94733	31259.725
762.8418	32856.025
766.73354	35242.225
770.62254	37314.725
774.50882	37416.725
778.39237	35809.225
782.27321	33609.425
786.15132	31757.425
790.02671	30596.425
793.89938	30062.225
797.76935	29859.925
801.6366	29785.325
805.50115	29697.825
809.36299	29542.325
813.22213	29390.525
817.07857	29312.625
820.93231	29201.625
824.78336	29226.725
828.63172	29230.625
832.47738	29235.525
836.32036	29310.025
840.16066	29445.325
843.99827	29562.725
847.8332	29514.525
851.66546	29430.925
855.49504	29417.525
859.32195	29447.325
863.1462	29333.025
866.96777	29268.625
870.78668	29238.925
874.60293	29235.925
878.41652	29349.925
882.22745	29463.725
886.03573	29508.625
889.84136	29510.125
893.64433	29390.825
897.44466	29312.125
901.24235	29170.125
905.0374	29143.825
908.8298	29044.025
912.61957	29082.925
916.40671	29261.125
920.19121	29576.525
923.97308	29952.125
927.75233	30180.225
931.52895	30171.825
935.30295	29802.925
939.07433	29210.225
942.84309	28861.125
946.60924	28758.625
950.37278	28728.825
954.13371	28620.025
957.89203	28467.625
961.64774	28401.125
965.40086	28335.725
969.15137	28264.025
972.89929	28195.725
976.64461	28220.125
980.38733	28249.225
984.12747	28400.225
987.86502	28694.725
991.59999	29045.625
995.33237	29601.125
999.06217	30500.225
1002.78939	31257.225
1006.51404	31649.525
1010.23611	31820.625
1013.95561	32107.725
1017.67255	32071.025
1021.38692	31697.525
1025.09872	31383.725
1028.80796	31627.725
1032.51465	32368.025
1036.21877	32994.325
1039.92035	32925.425
1043.61937	32368.825
1047.31584	31709.525
1051.00976	30960.425
1054.70114	30704.125
1058.38998	30738.725
1062.07627	30836.625
1065.76003	30897.425
1069.44126	31064.725
1073.11995	31476.825
1076.79611	31906.025
1080.46974	32219.225
1084.14085	32554.825
1087.80943	32976.025
1091.47549	33061.425
1095.13903	32818.725
1098.80005	32319.325
1102.45857	31808.025
1106.11456	31540.025
1109.76805	31510.525
1113.41903	31716.325
1117.06751	31996.025
1120.71348	32384.825
1124.35696	32728.025
1127.99793	33049.425
1131.63641	33033.525
1135.2724	32614.925
1138.90589	32275.225
1142.5369	32101.025
1146.16542	32022.725
1149.79145	31996.525
1153.415	32139.525
1157.03607	32466.525
1160.65467	33025.125
1164.27079	34071.925
1167.88443	35630.825
1171.49561	37725.425
1175.10432	40609.625
1178.71056	44120.425
1182.31434	46911.925
1185.91565	47881.925
1189.51451	46911.625
1193.11091	44971.225
1196.70485	42923.225
1200.29634	41139.325
1203.88538	39801.725
1207.47197	38811.225
1211.05612	38082.825
1214.63782	37640.625
1218.21708	37504.125
1221.79391	37787.525
1225.36829	38027.925
1228.94024	37721.425
1232.50976	36852.725
1236.07685	36018.725
1239.6415	35534.125
1243.20374	35439.725
1246.76355	35632.825
1250.32093	36057.725
1253.8759	36688.025
1257.42845	37588.425
1260.97859	38607.525
1264.52631	39587.125
1268.07163	40624.925
1271.61453	41722.025
1275.15503	42863.925
1278.69312	43965.725
1282.22882	44951.425
1285.76211	45783.825
1289.29301	46762.525
1292.82151	47883.825
1296.34761	49596.325
1299.87133	52011.925
1303.39266	55227.525
1306.9116	59207.525
1310.42815	63488.325
1313.94233	66128.025
1317.45412	66012.325
1320.96354	63858.225
1324.47058	61320.025
1327.97525	58934.625
1331.47754	57182.225
1334.97747	56051.225
1338.47502	55503.225
1341.97022	55215.925
1345.46305	54997.325
1348.95352	54917.225
1352.44163	55495.825
1355.92738	57375.525
1359.41078	60752.625
1362.89183	63529.225
1366.37053	62210.325
1369.84688	56649.525
1373.32088	50397.425
1376.79254	46394.125
1380.26186	44670.225
1383.72883	44243.725
1387.19347	43980.025
1390.65578	43385.125
1394.11575	43180.025
1397.57339	43682.125
1401.0287	44469.125
1404.48168	45184.125
1407.93234	45247.725
1411.38068	44729.225
1414.82669	43700.825
1418.27039	42400.525
1421.71177	41157.025
1425.15083	40072.825
1428.58758	39677.425
1432.02203	40086.825
1435.45416	41004.525
1438.88399	41968.125
1442.31151	42632.925
1445.73673	43160.625
1449.15965	43357.525
1452.58027	43403.125
1455.9986	43249.025
1459.41463	43362.125
1462.82837	44064.225
1466.23982	44993.425
1469.64898	45767.225
1473.05586	46269.025
1476.46045	46325.525
1479.86276	46136.825
1483.26279	45741.925
1486.66054	45612.125
1490.05602	45732.125
1493.44922	46036.625
1496.84016	46487.325
1500.22882	47500.425
1503.61521	49271.425
1506.99934	51391.625
1510.38121	53237.225
1513.76081	53719.125
1517.13816	52197.225
1520.51324	49434.125
1523.88607	46986.625
1527.25665	45575.025
1530.62498	44858.425
1533.99105	44516.425
1537.35488	44208.525
1540.71647	43778.225
1544.07581	43191.025
1547.4329	42591.725
1550.78776	42114.625
1554.14038	41591.125
1557.49077	41382.225
1560.83892	41296.025
1564.18484	41439.225
1567.52853	41702.425
1570.86999	42025.525
1574.20922	42402.725
1577.54624	42506.825
1580.88103	42067.025
1584.2136	41735.325
1587.54395	42578.425
1590.87208	44658.925
1594.19801	47820.325
1597.52172	51099.225
1600.84321	52216.025
1604.16251	50220.525
1607.47959	46696.025
1610.79447	42876.525
1614.10715	39508.725
1617.41763	36890.325
1620.7259	35113.225
1624.03199	34255.925
1627.33587	34354.425
1630.63757	35314.625
1633.93707	37313.125
1637.23439	40732.725
1640.52951	45522.425
1643.82246	50891.725
1647.11321	54665.925
1650.40179	54803.825
1653.68819	50681.025
1656.97241	44382.425
1660.25446	38521.025
1663.53433	34418.525
1666.81203	31923.925
1670.08756	30406.225
1673.36092	29431.925
1676.63211	28777.625
1679.90115	28307.725
1683.16801	27959.225
1686.43272	27699.725
1689.69527	27499.425
1692.95567	27337.725
1696.2139	27311.025
1699.46999	27213.125
1702.72392	27120.625
1705.97571	27142.025
1709.22535	27122.625
1712.47284	27128.025
1715.71819	27100.225
1718.96139	27043.625
1722.20246	26962.025
1725.44139	26854.525
1728.67818	26725.025
1731.91284	26656.325
1735.14537	26501.625
1738.37576	26421.825
1741.60403	26388.125
1744.83017	26285.125
1748.05418	26202.725
1751.27607	26141.825
1754.49584	26155.525
1757.71349	26129.925
1760.92903	26119.725
1764.14244	26058.025
1767.35375	26075.725
1770.56294	26036.925
1773.77002	26018.725
1776.97499	25983.325
1780.17785	25998.225
1783.37861	25951.225
1786.57727	25832.425
1789.77382	25842.325
1792.96828	25780.125
1796.16064	25766.025
1799.3509	25761.825
1802.53907	25736.025
1805.72514	25684.425
1808.90913	25649.825
1812.09102	25532.125
1815.27083	25494.025
1818.44856	25482.125
1821.6242	25432.325
1824.79776	25381.725
1827.96924	25350.425
1831.13864	25351.425
1834.30597	25334.825
1837.47122	25315.825
1840.6344	25286.125
1843.7955	25279.625
1846.95454	25301.525
1850.11151	25281.925
1853.26642	25283.325
1856.41926	25256.325
1859.57004	25214.625
1862.71876	25257.925
1865.86542	25276.225
1869.01003	25242.325
1872.15258	25234.825
1875.29308	25238.225
1878.43152	25168.725
1881.56792	25187.725
1884.70227	25179.525
1887.83457	25168.825
1890.96482	25173.325
1894.09304	25097.925
1897.21921	25146.025
1900.34335	25114.525
1903.46544	25032.525
1906.58551	25094.125
1909.70353	25044.025
1912.81953	25071.125
1915.93349	24992.925
1919.04543	24977.825
1922.15534	24955.025
1925.26322	24928.825
1928.36908	24855.625
1931.47292	24798.925
1934.57473	24758.225
1937.67453	24695.525
1940.77232	24586.825
1943.86808	24570.225
1946.96184	24542.025
1950.05358	24420.125
1953.14331	24387.325
1956.23103	24300.225
1959.31675	24275.225
1962.40046	24206.025
1965.48217	24147.525
1968.56188	24076.725
1971.63959	23989.825
1974.7153	23924.525
1977.78901	23909.625
1980.86073	23837.325
1983.93046	23772.425
1986.99819	23667.225
1990.06394	23648.525
1993.1277	23554.725
1996.18947	23480.425
1999.24925	23453.825
2002.30706	23425.825
2005.36288	23323.125
2008.41672	23309.725
2011.46859	23209.025
2014.51848	23130.325
2017.56639	23074.025
2020.61233	23053.825
2023.6563	22963.825
2026.6983	22951.125
2029.73833	22932.425
2032.7764	22899.625
2035.8125	22852.725
2038.84664	22811.525
2041.87881	22817.625
2044.90903	22771.725
2047.93729	22712.125
2050.96359	22735.825
2053.98794	22679.525
2057.01034	22677.625
2060.03078	22693.525
2063.04927	22681.725
2066.06582	22686.025
2069.08042	22673.525
2072.09307	22600.925
2075.10378	22583.025
2078.11255	22607.925
2081.11938	22559.325
2084.12426	22580.325
2087.12722	22535.625
2090.12824	22553.625
2093.12732	22542.125
2096.12447	22576.825
2099.11969	22579.325
2102.11299	22524.325
2105.10435	22583.125
2108.09379	22581.325
2111.08131	22588.225
2114.0669	22630.425
2117.05057	22633.825
2120.03233	22707.825
2123.01216	22753.825
2125.99008	22719.525
2128.96609	22775.525
2131.94018	22793.125
2134.91236	22808.925
2137.88263	22835.325
2140.851	22872.825
2143.81746	22900.625
2146.78201	22873.625
2149.74466	22939.925
2152.7054	22924.625
2155.66425	22876.025
2158.6212	22899.325
2161.57625	22890.225
2164.52941	22889.925
2167.48067	22896.925
2170.43004	22920.225
2173.37752	22898.825
2176.32311	22958.125
2179.26681	22966.625
2182.20863	22955.325
2185.14856	22974.925
2188.08661	22983.625
2191.02278	22990.925
2193.95707	22999.425
2196.88948	22981.025
2199.82001	22992.725
2202.74867	22945.225
2205.67545	22987.725
2208.60037	22937.525
2211.52341	22947.825
2214.44458	22918.725
2217.36388	22892.725
2220.28132	22859.125
2223.1969	22821.025
2226.11061	22817.325
2229.02246	22793.025
2231.93245	22739.325
2234.84058	22696.125
2237.74686	22678.325
2240.65128	22668.625
2243.55385	22631.325
2246.45456	22631.525
2249.35343	22610.625
2252.25044	22550.525
2255.14561	22512.325
2258.03893	22514.625
2260.93041	22479.025
2263.82004	22421.825
2266.70783	22413.025
2269.59378	22324.125
2272.4779	22311.225
2275.36017	22224.425
2278.24061	22198.625
2281.11922	22171.025
2283.996	22155.225
2286.87094	22160.025
2289.74405	22128.825
2292.61534	22071.825
2295.4848	22060.525
2298.35243	22116.425
2301.21824	22100.925
2304.08223	22117.325
2306.94439	22142.825
2309.80474	22151.825
2312.66327	22189.925
2315.51999	22169.025
2318.37489	22154.025
2321.22797	22130.525
2324.07925	22118.425
2326.92871	22073.625
2329.77637	22081.925
2332.62222	22061.925
2335.46626	22053.925
2338.3085	22051.725
2341.14893	22009.125
2343.98756	22037.525
2346.8244	22005.325
2349.65943	22056.425
2352.49267	22079.725
2355.32411	22130.625
2358.15376	22138.025
2360.98161	22127.725
2363.80768	22076.725
2366.63195	22023.725
2369.45444	22007.525
2372.27514	21986.125
2375.09405	21951.925
2377.91118	21891.825
2380.72652	21870.725
2383.54009	21790.425
2386.35187	21790.225
2389.16188	21707.225
2391.97011	21713.525
2394.77657	21713.225
2397.58125	21671.225
2400.38416	21647.925
2403.18529	21588.525
2405.98466	21604.625
2408.78226	21534.425
2411.57809	21493.325
2414.37216	21498.825
2417.16446	21487.325
2419.955	21439.325
2422.74378	21447.025
2425.5308	21435.525
2428.31606	21460.525
2431.09956	21457.225
2433.88131	21417.425
2436.6613	21442.325
2439.43954	21410.625
2442.21603	21409.825
2444.99077	21453.625
2447.76377	21461.425
2450.53501	21440.725
2453.30451	21429.725
2456.07226	21406.725
2458.83827	21387.725
2461.60254	21366.525
2464.36507	21391.725
2467.12586	21354.225
2469.88492	21362.125
2472.64224	21368.925
2475.39782	21395.725
2478.15167	21394.325
2480.90379	21380.125
2483.65417	21431.825
2486.40283	21446.125
2489.14976	21488.825
2491.89497	21460.925
2494.63845	21478.525
2497.3802	21495.125
2500.12024	21494.725
2502.85855	21485.925
2505.59514	21447.825
2508.33002	21438.125
2511.06318	21439.525
2513.79462	21356.725
2516.52435	21372.025
2519.25237	21330.225
2521.97867	21321.525
2524.70327	21340.225
2527.42616	21351.125
2530.14734	21297.125
2532.86681	21303.325
2535.58458	21328.325
2538.30065	21304.625
2541.01501	21314.425
2543.72768	21295.725
2546.43864	21295.025
2549.14791	21300.725
2551.85548	21261.525
2554.56136	21211.525
2557.26554	21168.825
2559.96803	21194.825
2562.66883	21165.225
2565.36794	21149.425
2568.06536	21066.625
2570.7611	21085.225
2573.45514	21109.625
2576.14751	21137.625
2578.83819	21133.625
2581.52719	21099.825
2584.21451	21080.925
2586.90015	21103.425
2589.58411	21070.625
2592.2664	21063.725
2594.94701	21031.425
2597.62594	21026.525
2600.30321	20977.925
2602.9788	21008.825
2605.65273	20964.125
2608.32498	20989.325
2610.99557	20953.625
2613.66449	20992.325
2616.33175	20969.825
2618.99734	21019.925
2621.66128	21037.025
2624.32355	21011.625
2626.98416	21052.125
2629.64311	21050.325
2632.30041	21076.725
2634.95605	21069.225
2637.61004	21014.825
2640.26238	20972.125
2642.91306	20887.025
2645.56209	20868.225
2648.20948	20855.425
2650.85521	20867.325
2653.4993	20866.425
2656.14175	20885.625
2658.78255	20906.825
2661.42171	20908.825
2664.05923	20961.325
2666.6951	20957.825
2669.32934	20970.025
2671.96194	20948.325
2674.59291	20961.425
2677.22224	20928.425
2679.84993	21027.425
2682.476	20970.325
2685.10043	21005.025
2687.72324	20939.525
2690.34441	20945.225
2692.96396	20941.425
2695.58188	20933.525
2698.19818	20924.525
2700.81285	20938.125
2703.4259	20875.725
2706.03733	20954.425
2708.64714	20950.925
2711.25533	20980.425
2713.86191	21005.725
2716.46687	21052.325
2719.07021	21025.425
2721.67194	21066.825
2724.27206	21033.725
2726.87057	21086.325
2729.46747	21125.825
2732.06276	21108.625
2734.65644	21122.025
2737.24852	21135.825
2739.83899	21091.125
2742.42786	21076.125
2745.01513	21020.825
2747.60079	21073.825
2750.18486	21043.925
2752.76733	21026.825
2755.3482	21033.425
2757.92747	21005.125
2760.50515	20957.825
2763.08123	21029.625
2765.65573	20977.125
2768.22863	21015.025
2770.79994	20980.325
2773.36967	20989.825
2775.9378	20982.225
2778.50435	20999.825
2781.06932	20976.725
2783.6327	20968.425
2786.1945	20972.325
2788.75471	20941.125
2791.31335	20904.625
2793.87041	20891.825
2796.42589	20850.225
2798.97979	20849.625
2801.53212	20834.725
2804.08288	20792.625
2806.63206	20725.125
2809.17967	20706.925
2811.72571	20616.525
2814.27018	20615.325
2816.81308	20611.425
2819.35442	20579.125
2821.89419	20544.125
2824.43239	20561.425
2826.96904	20549.525
2829.50412	20549.525
2832.03763	20484.725
2834.56959	20510.125
2837.1	20475.725
2839.62884	20481.525
2842.15613	20479.725
2844.68186	20484.825
2847.20604	20457.925
2849.72867	20438.625
2852.24974	20412.625
2854.76927	20405.625
2857.28724	20402.525
2859.80367	20421.325
2862.31855	20373.425
2864.83189	20374.125
2867.34368	20342.225
2869.85393	20366.625
2872.36264	20367.625
2874.8698	20344.925
2877.37543	20317.125
2879.87952	20325.825
2882.38207	20316.925
2884.88308	20298.825
2887.38256	20317.025
2889.88051	20315.025
2892.37692	20332.125
2894.8718	20323.825
2897.36515	20378.325
2899.85698	20446.525
2902.34727	20459.425
2904.83604	20458.725
2907.32328	20458.625
2909.809	20536.725
2912.29319	20565.825
2914.77587	20567.925
2917.25702	20576.425
2919.73665	20546.625
2922.21476	20554.025
2924.69136	20507.325
2927.16644	20482.125
2929.64	20468.225
2932.11205	20473.125
2934.58258	20385.825
2937.05161	20468.225
2939.51912	20411.825
2941.98513	20432.525
2944.44962	20380.425
2946.91261	20336.625
2949.37409	20418.225
2951.83407	20415.025
2954.29254	20435.625
2956.74951	20426.925
2959.20498	20405.425
2961.65895	20387.625
2964.11142	20415.625
2966.56239	20435.125
2969.01186	20424.225
2971.45984	20412.725
2973.90632	20395.825
2976.35131	20390.325
2978.7948	20352.925
2981.23681	20283.325
2983.67732	20254.025
2986.11635	20205.825
2988.55388	20190.625
2990.98993	20110.225
2993.4245	20043.725
2995.85758	20038.525
2998.28917	20017.725
3000.71928	19992.125
3003.14791	19906.225
3005.57506	19969.825
3008.00073	19875.125
3010.42493	19888.925
3012.84764	19856.125
3015.26888	19860.825
3017.68865	19804.725
3020.10694	19788.125
3022.52376	19798.625
3024.9391	19774.525
3027.35298	19753.425
3029.76539	19718.125
3032.17632	19738.125
3034.5858	19687.825
3036.9938	19690.225
3039.40034	19676.125
3041.80542	19677.925
3044.20903	19624.225
3046.61118	19607.525
3049.01187	19580.825
3051.4111	19632.725
3053.80888	19602.325
3056.20519	19539.225
3058.60005	19524.425
3060.99345	19504.425
3063.3854	19456.625
3065.7759	19372.225
3068.16494	19343.525
3070.55254	19300.725
3072.93868	19300.425
3075.32338	19231.725
3077.70662	19216.225
3080.08842	19183.825
3082.46878	19172.425
3084.84769	19139.225
3087.22515	19160.925
3089.60118	19168.125
3091.97576	19131.025
3094.3489	19157.725
3096.72061	19141.025
3099.09087	19135.425
3101.4597	19164.525
3103.82709	19154.025
3106.19305	19143.225
3108.55757	19159.225
3110.92066	19124.525
3113.28232	19122.325
3115.64255	19071.425
3118.00134	19059.725
3120.35871	19043.425
3122.71466	19031.025
3125.06917	19007.525
3127.42226	18986.225
3129.77393	18995.625
3132.12417	18940.725
3134.47299	18904.025
3136.82039	18876.525
3139.16636	18898.225
3141.51092	18885.125
3143.85406	18902.025
3146.19579	18867.525
3148.53609	18906.625
3150.87499	18905.925
3153.21246	18899.325
3155.54853	18926.825
3157.88318	18919.825
3160.21642	18958.725
3162.54826	18971.825
3164.87868	18972.425
3167.2077	18934.425
3169.5353	18991.625
3171.86151	18969.525
3174.18631	18931.425
3176.5097	18949.025
3178.83169	18927.025
3181.15228	18909.325
3183.47147	18877.025
3185.78926	18867.525
3188.10565	18866.725
3190.42065	18852.325
3192.73424	18848.625
3195.04645	18843.425
3197.35725	18836.125
3199.66667	18811.925
3201.97469	18838.425
3204.28132	18827.525
3206.58656	18854.625
3208.8904	18856.525
3211.19287	18865.525
3213.49394	18806.225
3215.79363	18842.725
3218.09193	18903.625
3220.38884	18898.825
3222.68438	18960.725
3224.97853	18912.325
3227.2713	18927.325
3229.56269	18867.925
3231.8527	18889.825
3234.14133	18886.325
3236.42858	18862.725
3238.71446	18834.925
3240.99896	18797.825
3243.28209	18763.825
3245.56384	18774.425
3247.84423	18745.925
3250.12324	18728.025
3252.40088	18700.925
3254.67715	18672.325
3256.95205	18723.325
3259.22558	18706.625
3261.49775	18705.225
3263.76855	18703.925
3266.03799	18680.325
3268.30606	18691.125
3270.57277	18680.625
3272.83812	18635.325
3275.10211	18576.725
3277.36474	18563.325
3279.62601	18560.925
3281.88593	18536.225
3284.14448	18566.025
3286.40168	18567.525
3288.65753	18576.225
3290.91202	18554.125
3293.16516	18529.625
3295.41695	18492.625
3297.66738	18402.125
3299.91647	18315.225
3302.16421	18210.425
3304.4106	18164.625
3306.65564	18079.225
3308.89933	17960.225
3311.14169	17878.225
3313.38269	17726.725
3315.62236	17666.625
3317.86068	17555.825
3320.09766	17392.025
3322.3333	17320.925
3324.5676	17218.125
3326.80056	17007.625
3329.03219	16891.925
3331.26248	4.825
3333.49143	1.425
3335.71905	0.125
