Data from AgNPs_UA_2uM_CRN_0uM_R6G_10uM_Q_RamanShift__26__13-31-21-928.txt Node

Date: Wed Jul 13 13:31:21 BST 2022
User: TCL
Spectrometer: QEP01345
Trigger mode: 4
Integration Time (sec): 7.000000E0
Scans to average: 10
Electric dark correction enabled: true
Nonlinearity correction enabled: false
Boxcar width: 0
XAxis mode: Raman Shifts
Number of Pixels in Spectrum: 1044
>>>>>Begin Spectral Data<<<<<
46.04893	-0.425
50.45542	-2.325
54.85868	-0.225
59.25871	-1.725
63.6555	92.375
68.04907	98.375
72.43941	100.075
76.82654	105.175
81.21044	109.675
85.59113	114.175
89.96862	122.475
94.34289	120.275
98.71396	127.375
103.08183	127.175
107.4465	133.575
111.80798	134.975
116.16626	140.575
120.52136	144.175
124.87327	146.775
129.222	152.275
133.56755	161.875
137.90993	172.275
142.24913	185.275
146.58517	202.275
150.91804	233.175
155.24774	273.475
159.57429	330.575
163.89768	420.575
168.21792	542.975
172.53501	748.975
176.84895	1051.075
181.15975	1411.075
185.46741	1965.375
189.77193	2695.375
194.07331	3582.575
198.37157	4576.175
202.6667	5639.275
206.9587	6680.775
211.24758	7724.275
215.53334	8773.475
219.81599	9924.175
224.09553	11171.875
228.37195	12588.775
232.64527	14126.775
236.91549	15693.275
241.18261	17271.075
245.44663	18664.875
249.70755	19929.175
253.96539	21086.375
258.22014	22060.875
262.4718	22887.175
266.72039	23425.375
270.96589	23733.075
275.20832	23758.075
279.44768	23694.775
283.68397	23524.675
287.91719	23424.475
292.14735	23336.475
296.37445	23376.375
300.59849	23491.875
304.81948	23672.275
309.03742	23726.775
313.25231	23518.275
317.46415	22983.675
321.67296	22328.475
325.87872	21857.675
330.08145	21753.875
334.28114	21875.875
338.47781	22186.475
342.67145	22557.675
346.86207	23064.875
351.04966	23695.375
355.23424	24423.375
359.4158	24988.875
363.59435	25319.875
367.76989	25543.475
371.94243	25702.075
376.11196	25762.475
380.27849	25890.075
384.44203	26005.975
388.60257	26114.875
392.76012	26267.475
396.91468	26635.375
401.06626	27205.875
405.21485	27578.975
409.36047	27495.975
413.50311	27118.775
417.64277	26862.875
421.77947	26908.275
425.9132	27030.675
430.04396	27302.575
434.17176	27581.675
438.2966	28053.475
442.41849	28839.975
446.53742	29866.975
450.6534	30904.275
454.76644	31545.275
458.87653	31650.775
462.98368	31252.975
467.08789	30620.775
471.18916	29897.475
475.2875	29350.075
479.38291	28990.175
483.4754	28693.075
487.56496	28351.575
491.6516	27909.675
495.73531	27622.175
499.81612	27529.175
503.89401	27637.675
507.96899	27729.875
512.04106	27649.175
516.11023	27662.775
520.1765	27664.975
524.23987	27662.675
528.30034	27504.375
532.35792	27248.275
536.41261	26969.175
540.46441	26683.475
544.51333	26717.375
548.55936	27034.575
552.60252	27577.475
556.64279	28140.075
560.6802	28446.475
564.71473	28801.975
568.7464	29480.675
572.7752	30079.875
576.80114	30236.175
580.82422	30423.375
584.84444	30918.875
588.86181	31657.075
592.87633	32587.975
596.888	33187.375
600.89682	33484.975
604.9028	34954.975
608.90594	38488.275
612.90624	41115.575
616.90371	37547.175
620.89834	31970.275
624.89015	30302.675
628.87913	30350.475
632.86528	29942.275
636.84862	29161.575
640.82913	28404.575
644.80683	27645.875
648.78172	27227.375
652.75379	27353.475
656.72306	27878.375
660.68952	28444.075
664.65319	28317.075
668.61405	27855.575
672.57211	27663.675
676.52738	27563.275
680.47986	27477.675
684.42955	27438.375
688.37646	27531.675
692.32058	27752.275
696.26192	28009.875
700.20048	28266.375
704.13626	28443.875
708.06928	28370.775
711.99952	28164.875
715.927	28095.975
719.85171	28088.375
723.77365	27966.075
727.69284	27662.475
731.60928	27592.975
735.52295	27668.575
739.43388	27903.175
743.34206	28090.875
747.24749	28285.775
751.15017	28652.675
755.05012	29151.875
758.94733	30118.575
762.8418	31888.975
766.73354	34345.675
770.62254	36322.875
774.50882	36424.575
778.39237	34639.475
782.27321	32081.175
786.15132	30072.275
790.02671	29008.875
793.89938	28497.175
797.76935	28393.275
801.6366	28298.975
805.50115	28206.075
809.36299	28036.375
813.22213	27950.975
817.07857	27916.175
820.93231	27890.075
824.78336	27992.975
828.63172	28126.675
832.47738	28188.575
836.32036	28349.675
840.16066	28522.975
843.99827	28648.475
847.8332	28487.475
851.66546	28326.175
855.49504	28238.075
859.32195	28165.075
863.1462	28036.375
866.96777	27857.675
870.78668	27828.875
874.60293	27861.175
878.41652	27945.275
882.22745	28119.775
886.03573	28180.475
889.84136	28142.675
893.64433	27982.975
897.44466	27889.075
901.24235	27889.675
905.0374	27828.375
908.8298	27859.975
912.61957	27968.175
916.40671	28276.075
920.19121	28712.575
923.97308	29197.875
927.75233	29444.775
931.52895	29405.775
935.30295	29028.975
939.07433	28382.275
942.84309	28006.475
946.60924	27935.775
950.37278	27747.975
954.13371	27516.275
957.89203	27337.475
961.64774	27275.475
965.40086	27198.875
969.15137	27141.975
972.89929	27031.475
976.64461	27040.175
980.38733	27110.775
984.12747	27285.575
987.86502	27630.275
991.59999	28102.175
995.33237	28974.875
999.06217	30403.175
1002.78939	31779.675
1006.51404	32335.875
1010.23611	32449.075
1013.95561	32731.175
1017.67255	32842.675
1021.38692	32497.875
1025.09872	32416.875
1028.80796	33332.375
1032.51465	34975.775
1036.21877	36093.375
1039.92035	35769.575
1043.61937	34640.075
1047.31584	33113.875
1051.00976	31648.275
1054.70114	31001.875
1058.38998	30954.175
1062.07627	30903.075
1065.76003	30864.775
1069.44126	30903.275
1073.11995	31119.575
1076.79611	31352.375
1080.46974	31525.775
1084.14085	31850.675
1087.80943	32149.975
1091.47549	32124.175
1095.13903	31757.475
1098.80005	31154.275
1102.45857	30740.575
1106.11456	30620.375
1109.76805	30718.175
1113.41903	30989.475
1117.06751	31327.175
1120.71348	31733.175
1124.35696	32084.475
1127.99793	32342.675
1131.63641	32341.375
1135.2724	31965.975
1138.90589	31642.475
1142.5369	31487.475
1146.16542	31386.275
1149.79145	31526.875
1153.415	31802.375
1157.03607	32175.975
1160.65467	32748.075
1164.27079	33704.175
1167.88443	35307.475
1171.49561	37649.775
1175.10432	40888.175
1178.71056	44908.875
1182.31434	48245.575
1185.91565	49920.475
1189.51451	49371.475
1193.11091	47134.475
1196.70485	44493.775
1200.29634	42243.475
1203.88538	40536.975
1207.47197	39233.175
1211.05612	38364.175
1214.63782	38138.675
1218.21708	38470.675
1221.79391	39089.375
1225.36829	39467.675
1228.94024	38995.275
1232.50976	38107.775
1236.07685	37398.875
1239.6415	37059.275
1243.20374	36973.775
1246.76355	37211.975
1250.32093	37815.475
1253.8759	38777.675
1257.42845	39976.275
1260.97859	40908.475
1264.52631	41669.775
1268.07163	42564.375
1271.61453	43641.775
1275.15503	45144.175
1278.69312	46757.475
1282.22882	48239.475
1285.76211	49178.275
1289.29301	49981.275
1292.82151	51143.875
1296.34761	52887.475
1299.87133	55498.075
1303.39266	59226.175
1306.9116	63946.875
1310.42815	69090.375
1313.94233	72248.375
1317.45412	71712.375
1320.96354	69035.575
1324.47058	65898.075
1327.97525	63310.775
1331.47754	61715.075
1334.97747	61242.275
1338.47502	61531.475
1341.97022	62114.875
1345.46305	62102.775
1348.95352	61617.975
1352.44163	61378.175
1355.92738	62638.875
1359.41078	65967.875
1362.89183	68577.575
1366.37053	66448.375
1369.84688	60373.475
1373.32088	54086.575
1376.79254	50002.875
1380.26186	48181.975
1383.72883	47591.775
1387.19347	47288.775
1390.65578	47047.475
1394.11575	47230.275
1397.57339	48079.075
1401.0287	49519.175
1404.48168	50708.175
1407.93234	51523.375
1411.38068	51798.175
1414.82669	51038.275
1418.27039	49276.975
1421.71177	47068.475
1425.15083	45374.475
1428.58758	44550.375
1432.02203	44738.175
1435.45416	45316.575
1438.88399	45975.775
1442.31151	46475.475
1445.73673	46987.275
1449.15965	47331.275
1452.58027	47437.475
1455.9986	47281.075
1459.41463	47278.775
1462.82837	47810.275
1466.23982	48529.175
1469.64898	49337.375
1473.05586	49806.375
1476.46045	50090.375
1479.86276	50266.275
1483.26279	50436.575
1486.66054	50613.475
1490.05602	51085.875
1493.44922	51634.275
1496.84016	52049.375
1500.22882	52632.075
1503.61521	53611.975
1506.99934	55088.075
1510.38121	56683.675
1513.76081	57167.675
1517.13816	56136.875
1520.51324	53941.775
1523.88607	51889.875
1527.25665	50506.275
1530.62498	49840.675
1533.99105	49512.975
1537.35488	49335.475
1540.71647	49206.475
1544.07581	48808.275
1547.4329	48186.675
1550.78776	47347.675
1554.14038	46630.875
1557.49077	46159.275
1560.83892	45939.775
1564.18484	45738.875
1567.52853	45538.675
1570.86999	45432.675
1574.20922	45496.375
1577.54624	45549.175
1580.88103	45273.975
1584.2136	45321.475
1587.54395	46585.675
1590.87208	49496.875
1594.19801	53841.675
1597.52172	58427.575
1600.84321	60510.475
1604.16251	58467.475
1607.47959	53621.675
1610.79447	48332.075
1614.10715	43762.675
1617.41763	40467.175
1620.7259	38488.275
1624.03199	37644.775
1627.33587	37815.275
1630.63757	39018.875
1633.93707	41330.375
1637.23439	44576.575
1640.52951	48448.875
1643.82246	52377.875
1647.11321	55074.475
1650.40179	54794.275
1653.68819	51175.075
1656.97241	45550.375
1660.25446	40125.975
1663.53433	36215.175
1666.81203	33737.175
1670.08756	32139.775
1673.36092	31068.375
1676.63211	30394.975
1679.90115	29867.175
1683.16801	29558.875
1686.43272	29282.375
1689.69527	29072.475
1692.95567	28968.575
1696.2139	28861.975
1699.46999	28850.975
1702.72392	28793.075
1705.97571	28799.875
1709.22535	28759.975
1712.47284	28767.375
1715.71819	28726.175
1718.96139	28748.075
1722.20246	28674.275
1725.44139	28583.075
1728.67818	28497.375
1731.91284	28346.775
1735.14537	28200.775
1738.37576	28118.775
1741.60403	28034.175
1744.83017	27989.175
1748.05418	27990.375
1751.27607	27880.875
1754.49584	27908.375
1757.71349	27886.475
1760.92903	27857.875
1764.14244	27832.175
1767.35375	27821.175
1770.56294	27813.375
1773.77002	27827.575
1776.97499	27803.875
1780.17785	27767.275
1783.37861	27781.575
1786.57727	27733.075
1789.77382	27729.275
1792.96828	27741.575
1796.16064	27727.875
1799.3509	27682.675
1802.53907	27666.175
1805.72514	27595.775
1808.90913	27607.475
1812.09102	27526.275
1815.27083	27446.575
1818.44856	27397.175
1821.6242	27396.175
1824.79776	27359.975
1827.96924	27308.675
1831.13864	27319.475
1834.30597	27367.175
1837.47122	27284.275
1840.6344	27306.275
1843.7955	27370.175
1846.95454	27323.675
1850.11151	27322.475
1853.26642	27333.875
1856.41926	27335.775
1859.57004	27362.575
1862.71876	27341.475
1865.86542	27375.875
1869.01003	27419.375
1872.15258	27394.275
1875.29308	27388.775
1878.43152	27424.675
1881.56792	27439.475
1884.70227	27441.775
1887.83457	27437.175
1890.96482	27425.775
1894.09304	27396.275
1897.21921	27380.675
1900.34335	27446.675
1903.46544	27433.075
1906.58551	27405.275
1909.70353	27428.875
1912.81953	27452.075
1915.93349	27418.075
1919.04543	27375.075
1922.15534	27375.875
1925.26322	27324.775
1928.36908	27235.875
1931.47292	27261.575
1934.57473	27213.775
1937.67453	27163.975
1940.77232	27085.375
1943.86808	26979.775
1946.96184	26922.675
1950.05358	26841.475
1953.14331	26754.475
1956.23103	26654.975
1959.31675	26632.175
1962.40046	26577.175
1965.48217	26429.675
1968.56188	26413.775
1971.63959	26314.475
1974.7153	26242.275
1977.78901	26199.075
1980.86073	26074.575
1983.93046	26044.775
1986.99819	25939.275
1990.06394	25867.875
1993.1277	25834.175
1996.18947	25757.975
1999.24925	25744.875
2002.30706	25685.075
2005.36288	25594.675
2008.41672	25523.275
2011.46859	25478.575
2014.51848	25417.175
2017.56639	25357.175
2020.61233	25274.375
2023.6563	25277.475
2026.6983	25181.975
2029.73833	25183.575
2032.7764	25193.275
2035.8125	25158.275
2038.84664	25091.975
2041.87881	25063.975
2044.90903	25040.475
2047.93729	25011.975
2050.96359	25008.475
2053.98794	24968.975
2057.01034	25013.475
2060.03078	24972.275
2063.04927	24927.475
2066.06582	24895.875
2069.08042	24881.075
2072.09307	24839.675
2075.10378	24857.075
2078.11255	24816.775
2081.11938	24786.475
2084.12426	24708.875
2087.12722	24763.675
2090.12824	24708.375
2093.12732	24673.875
2096.12447	24702.575
2099.11969	24723.675
2102.11299	24709.675
2105.10435	24729.075
2108.09379	24747.475
2111.08131	24801.875
2114.0669	24812.975
2117.05057	24830.375
2120.03233	24819.475
2123.01216	24849.275
2125.99008	24818.475
2128.96609	24900.975
2131.94018	24940.475
2134.91236	24973.775
2137.88263	24963.875
2140.851	24953.375
2143.81746	24972.775
2146.78201	25003.775
2149.74466	25037.575
2152.7054	25036.175
2155.66425	25061.575
2158.6212	25021.875
2161.57625	25014.875
2164.52941	25030.975
2167.48067	25025.175
2170.43004	25036.575
2173.37752	25022.375
2176.32311	25060.375
2179.26681	25024.375
2182.20863	25006.475
2185.14856	25064.175
2188.08661	25099.275
2191.02278	25123.975
2193.95707	25093.275
2196.88948	25125.375
2199.82001	25105.775
2202.74867	25148.975
2205.67545	25135.775
2208.60037	25120.075
2211.52341	25139.075
2214.44458	25096.375
2217.36388	25090.275
2220.28132	25072.575
2223.1969	25021.975
2226.11061	25040.175
2229.02246	24960.375
2231.93245	24898.175
2234.84058	24849.775
2237.74686	24835.075
2240.65128	24774.575
2243.55385	24754.875
2246.45456	24741.275
2249.35343	24752.775
2252.25044	24680.675
2255.14561	24694.475
2258.03893	24675.075
2260.93041	24619.675
2263.82004	24543.475
2266.70783	24507.475
2269.59378	24417.875
2272.4779	24356.875
2275.36017	24282.575
2278.24061	24300.275
2281.11922	24187.775
2283.996	24205.275
2286.87094	24207.575
2289.74405	24163.675
2292.61534	24160.775
2295.4848	24169.475
2298.35243	24205.375
2301.21824	24205.775
2304.08223	24189.475
2306.94439	24239.275
2309.80474	24285.075
2312.66327	24339.975
2315.51999	24376.575
2318.37489	24348.675
2321.22797	24342.175
2324.07925	24333.175
2326.92871	24294.675
2329.77637	24283.575
2332.62222	24282.075
2335.46626	24304.275
2338.3085	24331.275
2341.14893	24355.875
2343.98756	24389.675
2346.8244	24402.875
2349.65943	24422.475
2352.49267	24420.275
2355.32411	24437.675
2358.15376	24433.275
2360.98161	24411.375
2363.80768	24332.575
2366.63195	24279.575
2369.45444	24242.175
2372.27514	24200.275
2375.09405	24106.475
2377.91118	24061.675
2380.72652	24059.975
2383.54009	23947.575
2386.35187	23924.275
2389.16188	23884.775
2391.97011	23818.375
2394.77657	23809.175
2397.58125	23781.475
2400.38416	23747.275
2403.18529	23711.175
2405.98466	23675.375
2408.78226	23594.375
2411.57809	23531.675
2414.37216	23510.875
2417.16446	23436.375
2419.955	23383.675
2422.74378	23398.975
2425.5308	23381.775
2428.31606	23381.875
2431.09956	23393.675
2433.88131	23324.275
2436.6613	23325.075
2439.43954	23332.875
2442.21603	23357.575
2444.99077	23337.075
2447.76377	23342.975
2450.53501	23328.375
2453.30451	23356.275
2456.07226	23302.775
2458.83827	23285.175
2461.60254	23275.675
2464.36507	23250.875
2467.12586	23258.775
2469.88492	23255.275
2472.64224	23238.975
2475.39782	23317.375
2478.15167	23359.375
2480.90379	23354.175
2483.65417	23396.275
2486.40283	23438.875
2489.14976	23474.175
2491.89497	23437.375
2494.63845	23538.275
2497.3802	23524.475
2500.12024	23565.875
2502.85855	23508.075
2505.59514	23473.775
2508.33002	23472.875
2511.06318	23428.175
2513.79462	23369.975
2516.52435	23354.075
2519.25237	23348.375
2521.97867	23287.275
2524.70327	23302.775
2527.42616	23277.275
2530.14734	23308.075
2532.86681	23292.275
2535.58458	23288.975
2538.30065	23294.175
2541.01501	23311.675
2543.72768	23260.875
2546.43864	23284.575
2549.14791	23245.975
2551.85548	23213.975
2554.56136	23194.375
2557.26554	23161.175
2559.96803	23120.175
2562.66883	23114.675
2565.36794	23092.375
2568.06536	23091.675
2570.7611	23034.575
2573.45514	23070.675
2576.14751	23061.475
2578.83819	23052.675
2581.52719	23068.875
2584.21451	23096.275
2586.90015	23116.775
2589.58411	23105.275
2592.2664	23129.375
2594.94701	23050.975
2597.62594	23093.975
2600.30321	23112.975
2602.9788	23063.675
2605.65273	23066.675
2608.32498	23029.975
2610.99557	23010.175
2613.66449	23093.675
2616.33175	23139.075
2618.99734	23154.675
2621.66128	23143.275
2624.32355	23177.875
2626.98416	23183.075
2629.64311	23209.175
2632.30041	23215.575
2634.95605	23196.275
2637.61004	23150.875
2640.26238	23098.575
2642.91306	23096.375
2645.56209	23038.275
2648.20948	23022.875
2650.85521	22956.275
2653.4993	22918.375
2656.14175	22938.575
2658.78255	22953.775
2661.42171	22987.175
2664.05923	23010.075
2666.6951	22982.775
2669.32934	23031.175
2671.96194	23045.675
2674.59291	23063.775
2677.22224	23068.475
2679.84993	23109.475
2682.476	23043.975
2685.10043	23037.075
2687.72324	23036.375
2690.34441	23005.575
2692.96396	22956.675
2695.58188	22972.075
2698.19818	22918.075
2700.81285	22906.975
2703.4259	22923.075
2706.03733	22951.575
2708.64714	22942.175
2711.25533	22960.275
2713.86191	22964.775
2716.46687	22998.175
2719.07021	22998.575
2721.67194	23039.475
2724.27206	22976.275
2726.87057	23002.875
2729.46747	23037.975
2732.06276	23056.975
2734.65644	23051.575
2737.24852	23081.275
2739.83899	23044.675
2742.42786	23053.075
2745.01513	23020.475
2747.60079	23021.275
2750.18486	22939.975
2752.76733	22975.175
2755.3482	22964.975
2757.92747	22977.375
2760.50515	22911.075
2763.08123	22913.275
2765.65573	22953.175
2768.22863	22953.775
2770.79994	22943.275
2773.36967	22958.675
2775.9378	22926.675
2778.50435	22973.975
2781.06932	22921.475
2783.6327	22938.175
2786.1945	22931.675
2788.75471	22950.175
2791.31335	22903.575
2793.87041	22858.575
2796.42589	22874.775
2798.97979	22852.875
2801.53212	22790.475
2804.08288	22755.175
2806.63206	22694.675
2809.17967	22619.075
2811.72571	22589.075
2814.27018	22601.675
2816.81308	22571.275
2819.35442	22560.475
2821.89419	22496.475
2824.43239	22513.675
2826.96904	22515.475
2829.50412	22504.975
2832.03763	22458.675
2834.56959	22480.575
2837.1	22448.875
2839.62884	22453.675
2842.15613	22450.475
2844.68186	22470.075
2847.20604	22468.775
2849.72867	22440.875
2852.24974	22424.775
2854.76927	22409.875
2857.28724	22352.475
2859.80367	22352.175
2862.31855	22331.175
2864.83189	22311.575
2867.34368	22258.475
2869.85393	22250.375
2872.36264	22227.775
2874.8698	22224.975
2877.37543	22239.775
2879.87952	22245.075
2882.38207	22232.475
2884.88308	22239.975
2887.38256	22250.775
2889.88051	22236.875
2892.37692	22257.875
2894.8718	22307.775
2897.36515	22345.675
2899.85698	22318.075
2902.34727	22377.975
2904.83604	22396.475
2907.32328	22441.575
2909.809	22460.375
2912.29319	22480.475
2914.77587	22496.275
2917.25702	22473.975
2919.73665	22481.475
2922.21476	22452.775
2924.69136	22375.175
2927.16644	22386.175
2929.64	22343.975
2932.11205	22358.475
2934.58258	22256.075
2937.05161	22314.775
2939.51912	22303.675
2941.98513	22301.275
2944.44962	22238.275
2946.91261	22184.475
2949.37409	22249.775
2951.83407	22237.475
2954.29254	22263.575
2956.74951	22243.175
2959.20498	22243.575
2961.65895	22237.175
2964.11142	22210.875
2966.56239	22169.175
2969.01186	22182.775
2971.45984	22100.775
2973.90632	22086.775
2976.35131	22045.875
2978.7948	22033.075
2981.23681	21968.575
2983.67732	21930.575
2986.11635	21862.375
2988.55388	21816.575
2990.98993	21846.575
2993.4245	21757.175
2995.85758	21716.475
2998.28917	21688.075
3000.71928	21643.375
3003.14791	21622.475
3005.57506	21597.575
3008.00073	21513.575
3010.42493	21468.375
3012.84764	21452.475
3015.26888	21454.475
3017.68865	21384.075
3020.10694	21321.475
3022.52376	21315.375
3024.9391	21289.975
3027.35298	21252.075
3029.76539	21267.275
3032.17632	21255.675
3034.5858	21239.775
3036.9938	21231.275
3039.40034	21228.875
3041.80542	21211.175
3044.20903	21196.175
3046.61118	21187.475
3049.01187	21160.775
3051.4111	21127.475
3053.80888	21085.775
3056.20519	21019.275
3058.60005	20991.575
3060.99345	20962.375
3063.3854	20910.775
3065.7759	20835.175
3068.16494	20793.175
3070.55254	20718.775
3072.93868	20666.775
3075.32338	20592.775
3077.70662	20567.875
3080.08842	20492.875
3082.46878	20486.975
3084.84769	20490.575
3087.22515	20474.275
3089.60118	20453.775
3091.97576	20449.575
3094.3489	20471.075
3096.72061	20425.575
3099.09087	20443.275
3101.4597	20403.475
3103.82709	20392.575
3106.19305	20373.075
3108.55757	20417.075
3110.92066	20396.475
3113.28232	20403.175
3115.64255	20348.175
3118.00134	20301.375
3120.35871	20272.775
3122.71466	20250.375
3125.06917	20196.075
3127.42226	20177.275
3129.77393	20148.275
3132.12417	20120.375
3134.47299	20087.675
3136.82039	20087.275
3139.16636	20077.775
3141.51092	20091.575
3143.85406	20071.875
3146.19579	20027.975
3148.53609	20094.675
3150.87499	20090.275
3153.21246	20080.575
3155.54853	20126.375
3157.88318	20076.175
3160.21642	20157.875
3162.54826	20137.775
3164.87868	20122.775
3167.2077	20084.075
3169.5353	20047.675
3171.86151	20106.475
3174.18631	20084.575
3176.5097	20078.575
3178.83169	20023.475
3181.15228	20043.775
3183.47147	19996.975
3185.78926	19985.875
3188.10565	19984.875
3190.42065	19987.475
3192.73424	19953.175
3195.04645	19949.475
3197.35725	19970.675
3199.66667	19932.175
3201.97469	19935.875
3204.28132	19923.875
3206.58656	19942.475
3208.8904	19980.375
3211.19287	19971.775
3213.49394	19988.675
3215.79363	19995.975
3218.09193	19982.375
3220.38884	19963.075
3222.68438	20023.175
3224.97853	20025.875
3227.2713	20039.375
3229.56269	20031.275
3231.8527	20039.975
3234.14133	19972.875
3236.42858	19939.875
3238.71446	19962.275
3240.99896	19881.175
3243.28209	19859.075
3245.56384	19851.475
3247.84423	19863.375
3250.12324	19842.675
3252.40088	19823.075
3254.67715	19788.075
3256.95205	19762.075
3259.22558	19769.875
3261.49775	19785.775
3263.76855	19790.375
3266.03799	19760.475
3268.30606	19776.775
3270.57277	19711.475
3272.83812	19760.575
3275.10211	19681.175
3277.36474	19639.075
3279.62601	19655.775
3281.88593	19595.775
3284.14448	19598.775
3286.40168	19624.375
3288.65753	19631.475
3290.91202	19638.175
3293.16516	19557.575
3295.41695	19562.875
3297.66738	19461.475
3299.91647	19383.875
3302.16421	19280.675
3304.4106	19149.375
3306.65564	19069.375
3308.89933	18943.775
3311.14169	18818.175
3313.38269	18674.975
3315.62236	18577.675
3317.86068	18479.475
3320.09766	18389.575
3322.3333	18256.075
3324.5676	18176.875
3326.80056	17957.675
3329.03219	17844.075
3331.26248	3.075
3333.49143	1.575
3335.71905	0.575
