Data from AgNPs_UA_1uM_CRN_0uM_R6G_10uM_Q_RamanShift__23__12-37-35-892.txt Node

Date: Wed Jul 13 12:37:35 BST 2022
User: TCL
Spectrometer: QEP01345
Trigger mode: 4
Integration Time (sec): 7.000000E0
Scans to average: 10
Electric dark correction enabled: true
Nonlinearity correction enabled: false
Boxcar width: 0
XAxis mode: Raman Shifts
Number of Pixels in Spectrum: 1044
>>>>>Begin Spectral Data<<<<<
46.04893	-1.6
50.45542	-1.6
54.85868	-1.3
59.25871	-0.2
63.6555	83.8
68.04907	89.8
72.43941	91.1
76.82654	99.4
81.21044	103.3
85.59113	107.3
89.96862	109.1
94.34289	113
98.71396	114
103.08183	116.8
107.4465	123.4
111.80798	119.9
116.16626	127.7
120.52136	135.3
124.87327	136.5
129.222	146.1
133.56755	152.5
137.90993	168.1
142.24913	179.8
146.58517	203.9
150.91804	230
155.24774	271.6
159.57429	331.7
163.89768	426.4
168.21792	552.6
172.53501	754.7
176.84895	1042.7
181.15975	1455.6
185.46741	2037
189.77193	2794.7
194.07331	3716.1
198.37157	4767.9
202.6667	5861.9
206.9587	6926.2
211.24758	8010.6
215.53334	9111.5
219.81599	10302
224.09553	11604.8
228.37195	13062.8
232.64527	14653.1
236.91549	16282
241.18261	17853.7
245.44663	19307.1
249.70755	20577.5
253.96539	21708.6
258.22014	22642
262.4718	23430.8
266.72039	23970.6
270.96589	24204.1
275.20832	24168.9
279.44768	23988.2
283.68397	23763.9
287.91719	23578.6
292.14735	23484.9
296.37445	23507.1
300.59849	23696
304.81948	23948.3
309.03742	24105.2
313.25231	24022.3
317.46415	23512.9
321.67296	22928.9
325.87872	22409.2
330.08145	22232.4
334.28114	22359.6
338.47781	22612.6
342.67145	22965.4
346.86207	23521.1
351.04966	24114.9
355.23424	24764.3
359.4158	25327.9
363.59435	25637.6
367.76989	25840.7
371.94243	25972.5
376.11196	26099.5
380.27849	26187.8
384.44203	26293.4
388.60257	26365.6
392.76012	26527.3
396.91468	26897.5
401.06626	27380.2
405.21485	27663.9
409.36047	27525.8
413.50311	27209
417.64277	27094.2
421.77947	27135.2
425.9132	27009.4
430.04396	27112.4
434.17176	27407.7
438.2966	27809.1
442.41849	28586.9
446.53742	29543
450.6534	30572.9
454.76644	31193.6
458.87653	31207.6
462.98368	30719.7
467.08789	30008.4
471.18916	29267.1
475.2875	28636.4
479.38291	28252.9
483.4754	27934.8
487.56496	27684
491.6516	27339.6
495.73531	27096.5
499.81612	27036.7
503.89401	27172.6
507.96899	27319.2
512.04106	27346.5
516.11023	27327.1
520.1765	27299.4
524.23987	27235.3
528.30034	27147
532.35792	26922.3
536.41261	26579.2
540.46441	26170.2
544.51333	26141.8
548.55936	26430.6
552.60252	26964
556.64279	27578.8
560.6802	27990.2
564.71473	28181.4
568.7464	28776.8
572.7752	29326.2
576.80114	29549.6
580.82422	29896.9
584.84444	30583.2
588.86181	31586.8
592.87633	32795.8
596.888	33542.7
600.89682	33525
604.9028	34534.3
608.90594	37764.9
612.90624	40432.9
616.90371	37094.1
620.89834	31181.5
624.89015	29198.4
628.87913	29136
632.86528	28851.5
636.84862	28280.2
640.82913	27601.6
644.80683	26845.5
648.78172	26410
652.75379	26484.3
656.72306	26964.5
660.68952	27407.4
664.65319	27179.5
668.61405	26759.2
672.57211	26583.8
676.52738	26563.2
680.47986	26432.4
684.42955	26330.6
688.37646	26354.3
692.32058	26581.1
696.26192	26805
700.20048	27194.7
704.13626	27346.6
708.06928	27173.5
711.99952	26940
715.927	26867.6
719.85171	26910.8
723.77365	26809.6
727.69284	26552.8
731.60928	26414.9
735.52295	26487.8
739.43388	26632.6
743.34206	26796.3
747.24749	26948.6
751.15017	27211.3
755.05012	27673.6
758.94733	28539.7
762.8418	30168.4
766.73354	32735
770.62254	34850.1
774.50882	34957.1
778.39237	33240.6
782.27321	30806.3
786.15132	28797
790.02671	27606.6
793.89938	27122.2
797.76935	26942.6
801.6366	26873.5
805.50115	26782.7
809.36299	26645.3
813.22213	26438.5
817.07857	26405.9
820.93231	26340.5
824.78336	26345.6
828.63172	26394.5
832.47738	26511.3
836.32036	26639.2
840.16066	26828.3
843.99827	26983
847.8332	26863.9
851.66546	26631.8
855.49504	26596.7
859.32195	26551.3
863.1462	26439.3
866.96777	26245.1
870.78668	26184.5
874.60293	26269
878.41652	26281.7
882.22745	26421.8
886.03573	26492.9
889.84136	26422
893.64433	26306.5
897.44466	26212.4
901.24235	26132.9
905.0374	26116.3
908.8298	25985.7
912.61957	26106.7
916.40671	26350.2
920.19121	26743.4
923.97308	27270.9
927.75233	27520.3
931.52895	27493.6
935.30295	27109.7
939.07433	26533.6
942.84309	26135.4
946.60924	26072
950.37278	25939.5
954.13371	25756.4
957.89203	25549.9
961.64774	25404.7
965.40086	25352
969.15137	25249.9
972.89929	25206.8
976.64461	25192.6
980.38733	25271.3
984.12747	25463.4
987.86502	25788.7
991.59999	26248.2
995.33237	27062.2
999.06217	28375.1
1002.78939	29609.6
1006.51404	30157.9
1010.23611	30211.1
1013.95561	30363.5
1017.67255	30415
1021.38692	29996.5
1025.09872	29888.5
1028.80796	30630.3
1032.51465	32156.6
1036.21877	33283
1039.92035	33145.3
1043.61937	32223.5
1047.31584	30791.7
1051.00976	29409.1
1054.70114	28698.7
1058.38998	28529.3
1062.07627	28458.3
1065.76003	28368.9
1069.44126	28406.9
1073.11995	28692.3
1076.79611	28994.3
1080.46974	29319.8
1084.14085	29708.5
1087.80943	30072.4
1091.47549	30131.5
1095.13903	29687
1098.80005	29105.4
1102.45857	28656.4
1106.11456	28524.7
1109.76805	28637.6
1113.41903	28891.5
1117.06751	29320.8
1120.71348	29742.4
1124.35696	30085.8
1127.99793	30396.6
1131.63641	30303.4
1135.2724	29881.5
1138.90589	29525.5
1142.5369	29298.4
1146.16542	29146.6
1149.79145	29224
1153.415	29478.6
1157.03607	29849.6
1160.65467	30463.2
1164.27079	31518.3
1167.88443	33186.4
1171.49561	35540.5
1175.10432	38863.4
1178.71056	42893.3
1182.31434	46214.1
1185.91565	47544.2
1189.51451	46530.7
1193.11091	44175.3
1196.70485	41608.8
1200.29634	39530.4
1203.88538	37951.7
1207.47197	36759.8
1211.05612	35907.7
1214.63782	35619.8
1218.21708	35890.7
1221.79391	36469.3
1225.36829	36774.1
1228.94024	36232.3
1232.50976	35171.4
1236.07685	34289.2
1239.6415	33862.8
1243.20374	33766.9
1246.76355	33981.5
1250.32093	34483.8
1253.8759	35307.9
1257.42845	36352.6
1260.97859	37429.4
1264.52631	38398.9
1268.07163	39456.7
1271.61453	40729.8
1275.15503	42133.5
1278.69312	43584.3
1282.22882	44875.6
1285.76211	45835.9
1289.29301	46700.6
1292.82151	47947.9
1296.34761	49873.4
1299.87133	52603.9
1303.39266	56266.8
1306.9116	61022.4
1310.42815	65948.8
1313.94233	68978.7
1317.45412	68515.9
1320.96354	65696.4
1324.47058	62474.9
1327.97525	59637.6
1331.47754	57750.8
1334.97747	56910.4
1338.47502	56877.9
1341.97022	56998.3
1345.46305	56863.4
1348.95352	56571.6
1352.44163	56813.4
1355.92738	58776.3
1359.41078	62590.2
1362.89183	65702
1366.37053	63865.5
1369.84688	57500.9
1373.32088	50700.5
1376.79254	46340.2
1380.26186	44353.6
1383.72883	43843.6
1387.19347	43496.4
1390.65578	43026.3
1394.11575	43047.3
1397.57339	43920.5
1401.0287	45138.1
1404.48168	46203
1407.93234	46716.7
1411.38068	46618.4
1414.82669	45768.7
1418.27039	44260.7
1421.71177	42515.9
1425.15083	40978.6
1428.58758	40345.2
1432.02203	40653.3
1435.45416	41462.3
1438.88399	42354.2
1442.31151	43033.3
1445.73673	43510.5
1449.15965	43847.4
1452.58027	43879.6
1455.9986	43651.8
1459.41463	43631.1
1462.82837	44156.5
1466.23982	45055.2
1469.64898	45910.1
1473.05586	46509.4
1476.46045	46731.5
1479.86276	46732
1483.26279	46624.6
1486.66054	46671.7
1490.05602	46852.7
1493.44922	47197.5
1496.84016	47515.6
1500.22882	48030.3
1503.61521	49161.2
1506.99934	50921.5
1510.38121	52682
1513.76081	53396.1
1517.13816	52073.5
1520.51324	49632.2
1523.88607	47258.1
1527.25665	45812.3
1530.62498	45049.4
1533.99105	44689.2
1537.35488	44463.1
1540.71647	44088.5
1544.07581	43567.2
1547.4329	42946.3
1550.78776	42279.7
1554.14038	41686.5
1557.49077	41347.8
1560.83892	41169.3
1564.18484	41038.3
1567.52853	41000.9
1570.86999	41057.8
1574.20922	41252.2
1577.54624	41442
1580.88103	41182.3
1584.2136	41177.7
1587.54395	42480
1590.87208	45169
1594.19801	49208.8
1597.52172	53423.5
1600.84321	55031.3
1604.16251	52886.7
1607.47959	48430.8
1610.79447	43512.8
1614.10715	39323.7
1617.41763	36224.1
1620.7259	34253.4
1624.03199	33370.9
1627.33587	33603.3
1630.63757	34801.2
1633.93707	37087.8
1637.23439	40602.2
1640.52951	45094.2
1643.82246	49978.3
1647.11321	53351.7
1650.40179	53168.3
1653.68819	48988.1
1656.97241	42520.4
1660.25446	36609.1
1663.53433	32462.5
1666.81203	29949.1
1670.08756	28358.8
1673.36092	27396.2
1676.63211	26711.8
1679.90115	26277.3
1683.16801	25919.6
1686.43272	25677.1
1689.69527	25453.9
1692.95567	25304.8
1696.2139	25254.1
1699.46999	25190.5
1702.72392	25099
1705.97571	25126.7
1709.22535	25071.1
1712.47284	25107.6
1715.71819	25081.3
1718.96139	25028.3
1722.20246	24939.7
1725.44139	24864
1728.67818	24719.7
1731.91284	24635.7
1735.14537	24533.7
1738.37576	24412.5
1741.60403	24352.3
1744.83017	24285.6
1748.05418	24244.7
1751.27607	24191.6
1754.49584	24135.2
1757.71349	24158.5
1760.92903	24109.4
1764.14244	24072.5
1767.35375	24090
1770.56294	24075.3
1773.77002	24026.5
1776.97499	24058.1
1780.17785	24013.1
1783.37861	24020.6
1786.57727	23964.1
1789.77382	23895.4
1792.96828	23912.1
1796.16064	23912.5
1799.3509	23861
1802.53907	23855.7
1805.72514	23807.1
1808.90913	23792.7
1812.09102	23723.7
1815.27083	23669.7
1818.44856	23607.8
1821.6242	23590.7
1824.79776	23533.8
1827.96924	23522.6
1831.13864	23522.9
1834.30597	23499.8
1837.47122	23448.6
1840.6344	23452.7
1843.7955	23477.2
1846.95454	23510.7
1850.11151	23479.1
1853.26642	23476.3
1856.41926	23441.1
1859.57004	23468.8
1862.71876	23452.4
1865.86542	23479.4
1869.01003	23526.4
1872.15258	23480.4
1875.29308	23544.5
1878.43152	23493.4
1881.56792	23487.6
1884.70227	23487.3
1887.83457	23505
1890.96482	23506.1
1894.09304	23484.9
1897.21921	23465.5
1900.34335	23512.2
1903.46544	23455.8
1906.58551	23430.1
1909.70353	23444.1
1912.81953	23466.2
1915.93349	23458.4
1919.04543	23438.9
1922.15534	23393.4
1925.26322	23366.9
1928.36908	23314.7
1931.47292	23260.4
1934.57473	23212.2
1937.67453	23161.9
1940.77232	23073.7
1943.86808	23049.9
1946.96184	22979.4
1950.05358	22896.1
1953.14331	22849.4
1956.23103	22788.5
1959.31675	22693.1
1962.40046	22654.5
1965.48217	22573.3
1968.56188	22531.8
1971.63959	22481.8
1974.7153	22450.5
1977.78901	22363.4
1980.86073	22311.8
1983.93046	22266.8
1986.99819	22183.7
1990.06394	22099.2
1993.1277	22050.2
1996.18947	21977.5
1999.24925	21959
2002.30706	21898.2
2005.36288	21805.3
2008.41672	21767.8
2011.46859	21709
2014.51848	21658.7
2017.56639	21623.7
2020.61233	21591.9
2023.6563	21507.3
2026.6983	21519
2029.73833	21510.3
2032.7764	21430.6
2035.8125	21453.1
2038.84664	21412.4
2041.87881	21435.9
2044.90903	21392.2
2047.93729	21313.9
2050.96359	21302.5
2053.98794	21286.2
2057.01034	21317.6
2060.03078	21243.9
2063.04927	21238.5
2066.06582	21258.4
2069.08042	21205.5
2072.09307	21196.1
2075.10378	21158.5
2078.11255	21129.6
2081.11938	21175.7
2084.12426	21118.4
2087.12722	21099
2090.12824	21060
2093.12732	21065.6
2096.12447	21097
2099.11969	21107.7
2102.11299	21067.1
2105.10435	21133
2108.09379	21117.7
2111.08131	21132.3
2114.0669	21140.2
2117.05057	21190.1
2120.03233	21207.4
2123.01216	21228.2
2125.99008	21204.5
2128.96609	21262.8
2131.94018	21261.3
2134.91236	21306.7
2137.88263	21331.7
2140.851	21347.2
2143.81746	21358.1
2146.78201	21350
2149.74466	21399.5
2152.7054	21398.5
2155.66425	21384.8
2158.6212	21371.4
2161.57625	21389.4
2164.52941	21388.4
2167.48067	21396.5
2170.43004	21374.5
2173.37752	21403
2176.32311	21393.7
2179.26681	21443
2182.20863	21430.2
2185.14856	21487.3
2188.08661	21470.6
2191.02278	21469.9
2193.95707	21520.4
2196.88948	21515.6
2199.82001	21497.7
2202.74867	21498.4
2205.67545	21500.4
2208.60037	21506.4
2211.52341	21488.1
2214.44458	21493.9
2217.36388	21477.6
2220.28132	21501.9
2223.1969	21442.3
2226.11061	21476.3
2229.02246	21404.9
2231.93245	21338.8
2234.84058	21293.2
2237.74686	21283.3
2240.65128	21207.9
2243.55385	21230.7
2246.45456	21213.6
2249.35343	21193.3
2252.25044	21198.6
2255.14561	21133.1
2258.03893	21091.7
2260.93041	21061.4
2263.82004	21029.7
2266.70783	20963.8
2269.59378	20927.7
2272.4779	20886.5
2275.36017	20787.4
2278.24061	20793.4
2281.11922	20756.3
2283.996	20722.5
2286.87094	20742.4
2289.74405	20694.6
2292.61534	20698.8
2295.4848	20693
2298.35243	20748.7
2301.21824	20774.9
2304.08223	20784.3
2306.94439	20794.8
2309.80474	20866.4
2312.66327	20917
2315.51999	20882.9
2318.37489	20884.2
2321.22797	20871.2
2324.07925	20821.4
2326.92871	20859.5
2329.77637	20871.8
2332.62222	20861.5
2335.46626	20891.5
2338.3085	20896.8
2341.14893	20880.2
2343.98756	20871.4
2346.8244	20898.7
2349.65943	20966.7
2352.49267	20988.6
2355.32411	20980.6
2358.15376	20966.6
2360.98161	20927.5
2363.80768	20883.5
2366.63195	20859
2369.45444	20809.9
2372.27514	20796.1
2375.09405	20741
2377.91118	20697.7
2380.72652	20659.2
2383.54009	20577.2
2386.35187	20532.8
2389.16188	20489.5
2391.97011	20477.9
2394.77657	20483.4
2397.58125	20453.1
2400.38416	20427
2403.18529	20384.8
2405.98466	20358.3
2408.78226	20308.8
2411.57809	20265.8
2414.37216	20215.9
2417.16446	20227.2
2419.955	20184.3
2422.74378	20184.2
2425.5308	20124
2428.31606	20143.3
2431.09956	20161.8
2433.88131	20146.3
2436.6613	20148.5
2439.43954	20141.7
2442.21603	20158.1
2444.99077	20172.8
2447.76377	20188.5
2450.53501	20184.7
2453.30451	20163.7
2456.07226	20097.3
2458.83827	20096.8
2461.60254	20122.4
2464.36507	20110.9
2467.12586	20116.6
2469.88492	20179.9
2472.64224	20146.4
2475.39782	20178.2
2478.15167	20179.5
2480.90379	20189.1
2483.65417	20199.3
2486.40283	20230.9
2489.14976	20305.6
2491.89497	20282.9
2494.63845	20306.2
2497.3802	20315.7
2500.12024	20311.6
2502.85855	20340.7
2505.59514	20307.2
2508.33002	20294.1
2511.06318	20300.1
2513.79462	20243.2
2516.52435	20178.2
2519.25237	20190.8
2521.97867	20168.8
2524.70327	20176.3
2527.42616	20200.7
2530.14734	20177.5
2532.86681	20183.9
2535.58458	20176.3
2538.30065	20213.5
2541.01501	20237.1
2543.72768	20177.8
2546.43864	20175.8
2549.14791	20167.1
2551.85548	20147.2
2554.56136	20125.9
2557.26554	20084.2
2559.96803	20068.4
2562.66883	20066.7
2565.36794	20047.5
2568.06536	20043.4
2570.7611	20059.9
2573.45514	20071.8
2576.14751	20117.6
2578.83819	20080.3
2581.52719	20106.8
2584.21451	20072.1
2586.90015	20072.9
2589.58411	20084.5
2592.2664	20077.7
2594.94701	20061.8
2597.62594	20078.9
2600.30321	20045.2
2602.9788	20050.4
2605.65273	20038.4
2608.32498	20072.8
2610.99557	20073.1
2613.66449	20069.5
2616.33175	20106.4
2618.99734	20110.8
2621.66128	20168.5
2624.32355	20178.2
2626.98416	20207.3
2629.64311	20219.7
2632.30041	20258.4
2634.95605	20241.5
2637.61004	20173
2640.26238	20124.5
2642.91306	20075.9
2645.56209	20027.3
2648.20948	20045.1
2650.85521	19984
2653.4993	19972
2656.14175	20019.7
2658.78255	20004.1
2661.42171	20027.9
2664.05923	20080.2
2666.6951	20092.2
2669.32934	20089.6
2671.96194	20073.6
2674.59291	20106
2677.22224	20086.8
2679.84993	20156
2682.476	20127.6
2685.10043	20102.8
2687.72324	20064.8
2690.34441	20034.5
2692.96396	20038.3
2695.58188	20012.2
2698.19818	20025.2
2700.81285	20041.6
2703.4259	19993
2706.03733	20045.8
2708.64714	20025.9
2711.25533	20084.7
2713.86191	20027
2716.46687	20095.1
2719.07021	20069.4
2721.67194	20116.6
2724.27206	20090.5
2726.87057	20136.4
2729.46747	20175.4
2732.06276	20182.1
2734.65644	20164.8
2737.24852	20184.4
2739.83899	20183.1
2742.42786	20171.3
2745.01513	20117.5
2747.60079	20151
2750.18486	20125.2
2752.76733	20093.6
2755.3482	20092.9
2757.92747	20146.5
2760.50515	20072.5
2763.08123	20099.9
2765.65573	20102.9
2768.22863	20137.1
2770.79994	20131
2773.36967	20112.2
2775.9378	20094.1
2778.50435	20166.1
2781.06932	20103.9
2783.6327	20151.6
2786.1945	20121.8
2788.75471	20088.6
2791.31335	20069.4
2793.87041	20049.1
2796.42589	20018.5
2798.97979	19996.9
2801.53212	19961.9
2804.08288	19919.8
2806.63206	19875.2
2809.17967	19854
2811.72571	19833.9
2814.27018	19822
2816.81308	19810.5
2819.35442	19777.6
2821.89419	19716.6
2824.43239	19770.2
2826.96904	19793.2
2829.50412	19782.7
2832.03763	19715.8
2834.56959	19789.7
2837.1	19704.4
2839.62884	19712.5
2842.15613	19691.4
2844.68186	19729.3
2847.20604	19687
2849.72867	19682.8
2852.24974	19657.8
2854.76927	19675.3
2857.28724	19645.8
2859.80367	19654.7
2862.31855	19631.3
2864.83189	19624.3
2867.34368	19577.2
2869.85393	19586.8
2872.36264	19584.7
2874.8698	19540.2
2877.37543	19532.6
2879.87952	19526.7
2882.38207	19553.6
2884.88308	19532.8
2887.38256	19543
2889.88051	19538.6
2892.37692	19567.3
2894.8718	19574.7
2897.36515	19642
2899.85698	19654.2
2902.34727	19717.6
2904.83604	19694.9
2907.32328	19723.3
2909.809	19785.5
2912.29319	19777.9
2914.77587	19777.9
2917.25702	19796.8
2919.73665	19791
2922.21476	19795.8
2924.69136	19703.4
2927.16644	19718.9
2929.64	19679.9
2932.11205	19660.2
2934.58258	19621.5
2937.05161	19635.4
2939.51912	19606
2941.98513	19613.5
2944.44962	19613.9
2946.91261	19536.4
2949.37409	19594
2951.83407	19601.1
2954.29254	19604.9
2956.74951	19617.9
2959.20498	19603.3
2961.65895	19563.2
2964.11142	19593.5
2966.56239	19584.8
2969.01186	19585.1
2971.45984	19504.4
2973.90632	19476.6
2976.35131	19466.2
2978.7948	19378.6
2981.23681	19356.9
2983.67732	19343.2
2986.11635	19291.9
2988.55388	19284.5
2990.98993	19225.1
2993.4245	19156.4
2995.85758	19146.6
2998.28917	19106
3000.71928	19073.4
3003.14791	19045.4
3005.57506	19050.2
3008.00073	18977.7
3010.42493	18955
3012.84764	18911.3
3015.26888	18901.7
3017.68865	18868.3
3020.10694	18866.7
3022.52376	18806
3024.9391	18805.4
3027.35298	18775.5
3029.76539	18760.5
3032.17632	18744.2
3034.5858	18726.5
3036.9938	18754.3
3039.40034	18723.8
3041.80542	18682.3
3044.20903	18659.6
3046.61118	18666.5
3049.01187	18627.3
3051.4111	18663.8
3053.80888	18631.2
3056.20519	18617.8
3058.60005	18557.7
3060.99345	18520.2
3063.3854	18484.4
3065.7759	18398.6
3068.16494	18380.4
3070.55254	18298.7
3072.93868	18275.6
3075.32338	18166.2
3077.70662	18218.1
3080.08842	18164.4
3082.46878	18151.9
3084.84769	18123.9
3087.22515	18134.8
3089.60118	18113.1
3091.97576	18098.4
3094.3489	18105.4
3096.72061	18099.6
3099.09087	18104
3101.4597	18118.9
3103.82709	18095.9
3106.19305	18122.7
3108.55757	18058.7
3110.92066	18051
3113.28232	18045.3
3115.64255	17975
3118.00134	17969.7
3120.35871	17982.2
3122.71466	17963
3125.06917	17936.4
3127.42226	17889.7
3129.77393	17899.9
3132.12417	17845.8
3134.47299	17825.1
3136.82039	17826.4
3139.16636	17811.8
3141.51092	17814.3
3143.85406	17816
3146.19579	17802.3
3148.53609	17808.5
3150.87499	17792.2
3153.21246	17789.5
3155.54853	17825.7
3157.88318	17803.6
3160.21642	17876.9
3162.54826	17854.9
3164.87868	17868.6
3167.2077	17833.2
3169.5353	17848.5
3171.86151	17854.9
3174.18631	17827.6
3176.5097	17841.4
3178.83169	17811.7
3181.15228	17806.4
3183.47147	17756.1
3185.78926	17813.1
3188.10565	17732.7
3190.42065	17747.8
3192.73424	17749.1
3195.04645	17738.8
3197.35725	17754.2
3199.66667	17692.3
3201.97469	17745.6
3204.28132	17728.7
3206.58656	17756.1
3208.8904	17744.7
3211.19287	17727.8
3213.49394	17734.5
3215.79363	17747.2
3218.09193	17750.4
3220.38884	17789.8
3222.68438	17840.3
3224.97853	17787.4
3227.2713	17803
3229.56269	17762.5
3231.8527	17785.4
3234.14133	17754.9
3236.42858	17712.1
3238.71446	17752.9
3240.99896	17687.1
3243.28209	17686.5
3245.56384	17635.7
3247.84423	17660
3250.12324	17607.3
3252.40088	17582
3254.67715	17566
3256.95205	17591.6
3259.22558	17621
3261.49775	17568.5
3263.76855	17553.4
3266.03799	17554.1
3268.30606	17550.2
3270.57277	17547.5
3272.83812	17534.8
3275.10211	17484.9
3277.36474	17445.8
3279.62601	17468
3281.88593	17446.6
3284.14448	17467.9
3286.40168	17460.2
3288.65753	17453.4
3290.91202	17459.9
3293.16516	17416.2
3295.41695	17399.2
3297.66738	17316.8
3299.91647	17235.3
3302.16421	17116.4
3304.4106	17065.7
3306.65564	16978.7
3308.89933	16922.6
3311.14169	16809.6
3313.38269	16650.1
3315.62236	16589.5
3317.86068	16494
3320.09766	16366.7
3322.3333	16262.5
3324.5676	16195.4
3326.80056	15980.8
3329.03219	15901.3
3331.26248	5.1
3333.49143	0.5
3335.71905	0.1
