Data from AgNPs_UA_2uM_CRN_0uM_R6G_10uM_Q_RamanShift__21__13-25-31-922.txt Node

Date: Wed Jul 13 13:25:31 BST 2022
User: TCL
Spectrometer: QEP01345
Trigger mode: 4
Integration Time (sec): 7.000000E0
Scans to average: 10
Electric dark correction enabled: true
Nonlinearity correction enabled: false
Boxcar width: 0
XAxis mode: Raman Shifts
Number of Pixels in Spectrum: 1044
>>>>>Begin Spectral Data<<<<<
46.04893	-2.0875
50.45542	-2.0875
54.85868	-0.9875
59.25871	-0.4875
63.6555	103.4125
68.04907	109.3125
72.43941	115.4125
76.82654	116.2125
81.21044	124.6125
85.59113	130.1125
89.96862	134.3125
94.34289	133.0125
98.71396	139.8125
103.08183	141.2125
107.4465	148.2125
111.80798	149.0125
116.16626	154.7125
120.52136	166.7125
124.87327	168.1125
129.222	178.4125
133.56755	190.3125
137.90993	202.2125
142.24913	222.1125
146.58517	241.7125
150.91804	282.1125
155.24774	335.8125
159.57429	410.4125
163.89768	519.3125
168.21792	689.2125
172.53501	937.6125
176.84895	1307.0125
181.15975	1825.8125
185.46741	2557.6125
189.77193	3498.7125
194.07331	4670.7125
198.37157	5994.3125
202.6667	7378.2125
206.9587	8724.9125
211.24758	10051.5125
215.53334	11415.6125
219.81599	12856.4125
224.09553	14492.8125
228.37195	16271.9125
232.64527	18233.9125
236.91549	20291.0125
241.18261	22333.3125
245.44663	24197.6125
249.70755	25861.8125
253.96539	27360.4125
258.22014	28626.4125
262.4718	29684.2125
266.72039	30297.0125
270.96589	30650.8125
275.20832	30668.6125
279.44768	30552.2125
283.68397	30223.9125
287.91719	30025.7125
292.14735	29844.4125
296.37445	29757.5125
300.59849	29869.7125
304.81948	30004.7125
309.03742	30082.2125
313.25231	29875.8125
317.46415	29418.1125
321.67296	28803.8125
325.87872	28345.2125
330.08145	28174.3125
334.28114	28282.3125
338.47781	28600.1125
342.67145	29014.0125
346.86207	29559.5125
351.04966	30248.0125
355.23424	30894.5125
359.4158	31461.5125
363.59435	31847.5125
367.76989	32152.9125
371.94243	32337.9125
376.11196	32544.4125
380.27849	32699.0125
384.44203	32847.6125
388.60257	33031.5125
392.76012	33221.8125
396.91468	33630.8125
401.06626	34208.9125
405.21485	34595.7125
409.36047	34473.3125
413.50311	34082.9125
417.64277	33829.9125
421.77947	33789.9125
425.9132	33951.1125
430.04396	34251.1125
434.17176	34512.0125
438.2966	35023.0125
442.41849	35797.4125
446.53742	36815.3125
450.6534	38042.7125
454.76644	38715.7125
458.87653	38784.1125
462.98368	38342.4125
467.08789	37677.5125
471.18916	36921.8125
475.2875	36368.7125
479.38291	35926.8125
483.4754	35571.2125
487.56496	35214.7125
491.6516	34909.4125
495.73531	34629.7125
499.81612	34518.5125
503.89401	34623.8125
507.96899	34739.6125
512.04106	34631.9125
516.11023	34630.4125
520.1765	34551.6125
524.23987	34562.9125
528.30034	34444.5125
532.35792	34186.0125
536.41261	33851.4125
540.46441	33582.5125
544.51333	33511.6125
548.55936	33865.8125
552.60252	34514.1125
556.64279	35163.1125
560.6802	35564.1125
564.71473	35849.0125
568.7464	36394.0125
572.7752	37010.8125
576.80114	37377.4125
580.82422	37881.5125
584.84444	38680.0125
588.86181	39695.7125
592.87633	40945.6125
596.888	41534.3125
600.89682	41510.9125
604.9028	42664.4125
608.90594	45897.8125
612.90624	48386.2125
616.90371	44610.0125
620.89834	38627.8125
624.89015	36711.9125
628.87913	36628.9125
632.86528	36460.5125
636.84862	35903.5125
640.82913	35152.6125
644.80683	34384.4125
648.78172	33859.6125
652.75379	33920.5125
656.72306	34392.4125
660.68952	34927.9125
664.65319	34699.3125
668.61405	34221.0125
672.57211	34081.1125
676.52738	34091.9125
680.47986	33953.3125
684.42955	33838.0125
688.37646	33854.1125
692.32058	34093.2125
696.26192	34426.3125
700.20048	34836.5125
704.13626	35013.2125
708.06928	34859.8125
711.99952	34627.4125
715.927	34545.0125
719.85171	34641.6125
723.77365	34505.9125
727.69284	34200.3125
731.60928	34060.6125
735.52295	34087.5125
739.43388	34180.1125
743.34206	34388.4125
747.24749	34494.5125
751.15017	34811.8125
755.05012	35394.7125
758.94733	36314.6125
762.8418	38161.2125
766.73354	40831.3125
770.62254	42995.8125
774.50882	43116.3125
778.39237	41114.7125
782.27321	38446.5125
786.15132	36397.5125
790.02671	35192.0125
793.89938	34639.4125
797.76935	34467.3125
801.6366	34392.2125
805.50115	34274.7125
809.36299	34103.6125
813.22213	33942.1125
817.07857	33895.1125
820.93231	33812.2125
824.78336	33798.3125
828.63172	33919.2125
832.47738	33950.4125
836.32036	34065.0125
840.16066	34259.0125
843.99827	34379.1125
847.8332	34293.3125
851.66546	34164.6125
855.49504	34108.1125
859.32195	34117.0125
863.1462	33948.0125
866.96777	33772.3125
870.78668	33697.0125
874.60293	33751.5125
878.41652	33808.4125
882.22745	33911.3125
886.03573	34026.6125
889.84136	33987.1125
893.64433	33807.5125
897.44466	33718.4125
901.24235	33628.7125
905.0374	33557.1125
908.8298	33502.2125
912.61957	33607.8125
916.40671	33849.9125
920.19121	34320.9125
923.97308	34878.5125
927.75233	35050.7125
931.52895	34925.3125
935.30295	34467.5125
939.07433	33847.0125
942.84309	33492.1125
946.60924	33403.0125
950.37278	33284.6125
954.13371	33069.2125
957.89203	32839.9125
961.64774	32763.4125
965.40086	32687.9125
969.15137	32585.5125
972.89929	32518.2125
976.64461	32494.6125
980.38733	32528.7125
984.12747	32760.9125
987.86502	33129.8125
991.59999	33683.0125
995.33237	34530.9125
999.06217	35827.6125
1002.78939	37038.8125
1006.51404	37554.5125
1010.23611	37688.6125
1013.95561	37865.2125
1017.67255	37923.5125
1021.38692	37536.5125
1025.09872	37413.6125
1028.80796	38109.2125
1032.51465	39562.2125
1036.21877	40607.8125
1039.92035	40415.5125
1043.61937	39493.4125
1047.31584	38176.5125
1051.00976	36774.5125
1054.70114	36189.8125
1058.38998	36090.9125
1062.07627	36102.8125
1065.76003	36136.6125
1069.44126	36265.8125
1073.11995	36604.4125
1076.79611	36838.4125
1080.46974	37171.7125
1084.14085	37512.7125
1087.80943	37933.8125
1091.47549	37994.9125
1095.13903	37633.9125
1098.80005	37111.1125
1102.45857	36550.1125
1106.11456	36394.4125
1109.76805	36475.1125
1113.41903	36731.1125
1117.06751	37132.8125
1120.71348	37514.1125
1124.35696	37843.9125
1127.99793	38108.0125
1131.63641	38041.5125
1135.2724	37689.8125
1138.90589	37383.6125
1142.5369	37174.7125
1146.16542	37167.0125
1149.79145	37245.7125
1153.415	37488.1125
1157.03607	37893.8125
1160.65467	38700.0125
1164.27079	39988.0125
1167.88443	41831.7125
1171.49561	44418.3125
1175.10432	47922.0125
1178.71056	52132.3125
1182.31434	55609.8125
1185.91565	57044.4125
1189.51451	56188.2125
1193.11091	53801.7125
1196.70485	51241.7125
1200.29634	48984.7125
1203.88538	47360.4125
1207.47197	46048.6125
1211.05612	45118.4125
1214.63782	44678.3125
1218.21708	44777.3125
1221.79391	45252.5125
1225.36829	45459.1125
1228.94024	44874.9125
1232.50976	43763.5125
1236.07685	42884.1125
1239.6415	42496.3125
1243.20374	42407.0125
1246.76355	42689.1125
1250.32093	43214.5125
1253.8759	44218.1125
1257.42845	45305.5125
1260.97859	46433.1125
1264.52631	47466.5125
1268.07163	48565.7125
1271.61453	49837.8125
1275.15503	51424.3125
1278.69312	53025.5125
1282.22882	54425.6125
1285.76211	55413.1125
1289.29301	56544.8125
1292.82151	57965.1125
1296.34761	60202.4125
1299.87133	63253.1125
1303.39266	67208.0125
1306.9116	72068.7125
1310.42815	76903.6125
1313.94233	79993.1125
1317.45412	79696.7125
1320.96354	77296.9125
1324.47058	74304.7125
1327.97525	71692.3125
1331.47754	69974.8125
1334.97747	69076.5125
1338.47502	68905.8125
1341.97022	69010.5125
1345.46305	68754.3125
1348.95352	68291.4125
1352.44163	68290.6125
1355.92738	69902.4125
1359.41078	73362.6125
1362.89183	76035.6125
1366.37053	74261.9125
1369.84688	67843.7125
1373.32088	60766.2125
1376.79254	56094.1125
1380.26186	54111.7125
1383.72883	53711.9125
1387.19347	53471.5125
1390.65578	53016.0125
1394.11575	53089.0125
1397.57339	53914.3125
1401.0287	55178.6125
1404.48168	56294.2125
1407.93234	56846.9125
1411.38068	56662.1125
1414.82669	55634.1125
1418.27039	53671.9125
1421.71177	51596.7125
1425.15083	49937.2125
1428.58758	49132.5125
1432.02203	49406.2125
1435.45416	50360.5125
1438.88399	51434.7125
1442.31151	52238.7125
1445.73673	52931.2125
1449.15965	53425.3125
1452.58027	53551.9125
1455.9986	53353.0125
1459.41463	53304.4125
1462.82837	53936.2125
1466.23982	54827.3125
1469.64898	55829.1125
1473.05586	56485.6125
1476.46045	56749.2125
1479.86276	56667.0125
1483.26279	56467.3125
1486.66054	56370.7125
1490.05602	56673.5125
1493.44922	56953.8125
1496.84016	57206.3125
1500.22882	57786.9125
1503.61521	58885.3125
1506.99934	60538.3125
1510.38121	62324.2125
1513.76081	62762.0125
1517.13816	61481.5125
1520.51324	59042.8125
1523.88607	56912.2125
1527.25665	55686.6125
1530.62498	55128.7125
1533.99105	54834.5125
1537.35488	54635.8125
1540.71647	54277.1125
1544.07581	53658.8125
1547.4329	52837.1125
1550.78776	51964.5125
1554.14038	51263.9125
1557.49077	50796.7125
1560.83892	50569.9125
1564.18484	50501.1125
1567.52853	50408.7125
1570.86999	50547.4125
1574.20922	50894.3125
1577.54624	51127.6125
1580.88103	50927.7125
1584.2136	51039.8125
1587.54395	52412.4125
1590.87208	55334.6125
1594.19801	59557.4125
1597.52172	63792.5125
1600.84321	65398.4125
1604.16251	63052.9125
1607.47959	58363.8125
1610.79447	53086.7125
1614.10715	48552.8125
1617.41763	45120.8125
1620.7259	42901.7125
1624.03199	41892.1125
1627.33587	42048.7125
1630.63757	43314.2125
1633.93707	45793.1125
1637.23439	49654.7125
1640.52951	54653.3125
1643.82246	60066.2125
1647.11321	63783.5125
1650.40179	63475.7125
1653.68819	58701.8125
1656.97241	51752.1125
1660.25446	45301.9125
1663.53433	40722.6125
1666.81203	37805.0125
1670.08756	35981.4125
1673.36092	34813.9125
1676.63211	34006.4125
1679.90115	33432.1125
1683.16801	32976.0125
1686.43272	32688.2125
1689.69527	32494.8125
1692.95567	32292.6125
1696.2139	32172.6125
1699.46999	32130.6125
1702.72392	32037.9125
1705.97571	32045.2125
1709.22535	31988.7125
1712.47284	31998.2125
1715.71819	32012.3125
1718.96139	31918.6125
1722.20246	31827.5125
1725.44139	31709.8125
1728.67818	31580.4125
1731.91284	31506.4125
1735.14537	31301.4125
1738.37576	31184.2125
1741.60403	31045.2125
1744.83017	30980.8125
1748.05418	30979.8125
1751.27607	30908.5125
1754.49584	30846.7125
1757.71349	30812.4125
1760.92903	30821.1125
1764.14244	30797.5125
1767.35375	30774.0125
1770.56294	30720.6125
1773.77002	30712.5125
1776.97499	30719.4125
1780.17785	30640.2125
1783.37861	30637.4125
1786.57727	30539.5125
1789.77382	30564.7125
1792.96828	30544.5125
1796.16064	30511.9125
1799.3509	30480.0125
1802.53907	30414.9125
1805.72514	30363.0125
1808.90913	30303.7125
1812.09102	30254.1125
1815.27083	30185.6125
1818.44856	30132.0125
1821.6242	30108.5125
1824.79776	30021.0125
1827.96924	29989.8125
1831.13864	29993.1125
1834.30597	29979.4125
1837.47122	29987.5125
1840.6344	29924.0125
1843.7955	29948.8125
1846.95454	29947.7125
1850.11151	29968.2125
1853.26642	29906.0125
1856.41926	29914.1125
1859.57004	29919.4125
1862.71876	29950.6125
1865.86542	29907.0125
1869.01003	29906.8125
1872.15258	29912.4125
1875.29308	29911.1125
1878.43152	29885.6125
1881.56792	29900.4125
1884.70227	29904.8125
1887.83457	29869.3125
1890.96482	29789.6125
1894.09304	29842.7125
1897.21921	29832.9125
1900.34335	29849.7125
1903.46544	29815.9125
1906.58551	29810.3125
1909.70353	29837.8125
1912.81953	29778.8125
1915.93349	29785.2125
1919.04543	29728.6125
1922.15534	29652.0125
1925.26322	29618.8125
1928.36908	29566.3125
1931.47292	29532.1125
1934.57473	29480.7125
1937.67453	29444.6125
1940.77232	29343.1125
1943.86808	29262.4125
1946.96184	29168.6125
1950.05358	29108.4125
1953.14331	29034.1125
1956.23103	28951.9125
1959.31675	28899.1125
1962.40046	28821.6125
1965.48217	28723.0125
1968.56188	28651.0125
1971.63959	28567.2125
1974.7153	28462.9125
1977.78901	28389.3125
1980.86073	28312.8125
1983.93046	28223.2125
1986.99819	28154.8125
1990.06394	28065.7125
1993.1277	28004.2125
1996.18947	27959.7125
1999.24925	27909.2125
2002.30706	27825.4125
2005.36288	27774.8125
2008.41672	27677.4125
2011.46859	27605.1125
2014.51848	27493.6125
2017.56639	27458.9125
2020.61233	27389.8125
2023.6563	27350.2125
2026.6983	27288.2125
2029.73833	27286.9125
2032.7764	27234.9125
2035.8125	27203.7125
2038.84664	27181.4125
2041.87881	27157.6125
2044.90903	27102.5125
2047.93729	27095.7125
2050.96359	27062.0125
2053.98794	27026.5125
2057.01034	27040.4125
2060.03078	27006.1125
2063.04927	26947.8125
2066.06582	26896.5125
2069.08042	26910.3125
2072.09307	26901.4125
2075.10378	26913.2125
2078.11255	26844.6125
2081.11938	26863.3125
2084.12426	26754.2125
2087.12722	26772.1125
2090.12824	26748.8125
2093.12732	26729.8125
2096.12447	26732.2125
2099.11969	26804.3125
2102.11299	26810.3125
2105.10435	26793.1125
2108.09379	26810.7125
2111.08131	26847.3125
2114.0669	26849.3125
2117.05057	26854.4125
2120.03233	26913.1125
2123.01216	26881.0125
2125.99008	26892.6125
2128.96609	26969.6125
2131.94018	27027.5125
2134.91236	26998.4125
2137.88263	27033.6125
2140.851	27037.0125
2143.81746	27103.2125
2146.78201	27100.9125
2149.74466	27136.0125
2152.7054	27145.9125
2155.66425	27117.0125
2158.6212	27127.8125
2161.57625	27110.7125
2164.52941	27134.1125
2167.48067	27111.8125
2170.43004	27129.3125
2173.37752	27097.4125
2176.32311	27111.8125
2179.26681	27081.1125
2182.20863	27122.5125
2185.14856	27190.7125
2188.08661	27182.3125
2191.02278	27182.5125
2193.95707	27173.6125
2196.88948	27206.4125
2199.82001	27202.2125
2202.74867	27158.9125
2205.67545	27171.0125
2208.60037	27167.5125
2211.52341	27151.4125
2214.44458	27140.1125
2217.36388	27083.8125
2220.28132	27085.4125
2223.1969	27005.2125
2226.11061	26996.6125
2229.02246	26960.9125
2231.93245	26904.9125
2234.84058	26882.2125
2237.74686	26804.8125
2240.65128	26802.9125
2243.55385	26776.2125
2246.45456	26797.1125
2249.35343	26749.3125
2252.25044	26739.2125
2255.14561	26737.6125
2258.03893	26677.1125
2260.93041	26586.6125
2263.82004	26554.3125
2266.70783	26467.4125
2269.59378	26390.2125
2272.4779	26333.3125
2275.36017	26280.4125
2278.24061	26218.0125
2281.11922	26200.6125
2283.996	26179.9125
2286.87094	26152.5125
2289.74405	26109.3125
2292.61534	26083.9125
2295.4848	26088.4125
2298.35243	26199.6125
2301.21824	26139.7125
2304.08223	26153.8125
2306.94439	26204.1125
2309.80474	26238.0125
2312.66327	26249.2125
2315.51999	26236.1125
2318.37489	26229.8125
2321.22797	26247.8125
2324.07925	26252.6125
2326.92871	26199.5125
2329.77637	26209.1125
2332.62222	26196.2125
2335.46626	26159.6125
2338.3085	26189.6125
2341.14893	26227.9125
2343.98756	26214.6125
2346.8244	26257.6125
2349.65943	26220.5125
2352.49267	26261.6125
2355.32411	26251.5125
2358.15376	26248.0125
2360.98161	26206.7125
2363.80768	26179.7125
2366.63195	26116.7125
2369.45444	26133.9125
2372.27514	26069.1125
2375.09405	25994.3125
2377.91118	25938.4125
2380.72652	25901.5125
2383.54009	25830.5125
2386.35187	25755.4125
2389.16188	25725.1125
2391.97011	25703.1125
2394.77657	25666.8125
2397.58125	25613.1125
2400.38416	25628.8125
2403.18529	25554.7125
2405.98466	25499.2125
2408.78226	25439.2125
2411.57809	25447.1125
2414.37216	25385.3125
2417.16446	25382.6125
2419.955	25301.6125
2422.74378	25309.5125
2425.5308	25316.8125
2428.31606	25305.6125
2431.09956	25285.5125
2433.88131	25208.2125
2436.6613	25216.1125
2439.43954	25260.4125
2442.21603	25252.2125
2444.99077	25235.5125
2447.76377	25253.2125
2450.53501	25247.0125
2453.30451	25233.8125
2456.07226	25237.4125
2458.83827	25237.0125
2461.60254	25194.1125
2464.36507	25175.7125
2467.12586	25132.5125
2469.88492	25163.0125
2472.64224	25197.7125
2475.39782	25224.5125
2478.15167	25251.8125
2480.90379	25273.1125
2483.65417	25315.1125
2486.40283	25325.2125
2489.14976	25343.9125
2491.89497	25367.2125
2494.63845	25364.5125
2497.3802	25410.0125
2500.12024	25449.6125
2502.85855	25409.3125
2505.59514	25391.8125
2508.33002	25340.8125
2511.06318	25360.9125
2513.79462	25228.0125
2516.52435	25217.9125
2519.25237	25191.4125
2521.97867	25178.3125
2524.70327	25191.7125
2527.42616	25182.5125
2530.14734	25163.0125
2532.86681	25171.3125
2535.58458	25179.9125
2538.30065	25131.7125
2541.01501	25135.6125
2543.72768	25088.2125
2546.43864	25129.5125
2549.14791	25117.3125
2551.85548	25076.7125
2554.56136	24993.3125
2557.26554	25007.3125
2559.96803	24995.1125
2562.66883	24973.1125
2565.36794	24947.1125
2568.06536	24928.7125
2570.7611	24902.6125
2573.45514	24916.3125
2576.14751	24924.8125
2578.83819	24922.8125
2581.52719	24925.2125
2584.21451	24906.5125
2586.90015	24901.7125
2589.58411	24886.4125
2592.2664	24919.1125
2594.94701	24888.2125
2597.62594	24925.6125
2600.30321	24881.5125
2602.9788	24849.7125
2605.65273	24821.7125
2608.32498	24856.6125
2610.99557	24855.3125
2613.66449	24848.3125
2616.33175	24896.7125
2618.99734	24963.9125
2621.66128	24922.2125
2624.32355	24944.8125
2626.98416	24960.5125
2629.64311	24974.4125
2632.30041	24972.6125
2634.95605	24916.8125
2637.61004	24907.2125
2640.26238	24881.9125
2642.91306	24832.9125
2645.56209	24816.4125
2648.20948	24780.3125
2650.85521	24737.5125
2653.4993	24771.3125
2656.14175	24749.6125
2658.78255	24762.3125
2661.42171	24736.4125
2664.05923	24767.6125
2666.6951	24755.0125
2669.32934	24795.2125
2671.96194	24801.1125
2674.59291	24860.3125
2677.22224	24870.3125
2679.84993	24877.5125
2682.476	24797.0125
2685.10043	24834.8125
2687.72324	24783.4125
2690.34441	24790.4125
2692.96396	24752.5125
2695.58188	24748.8125
2698.19818	24736.9125
2700.81285	24769.9125
2703.4259	24714.2125
2706.03733	24743.8125
2708.64714	24752.3125
2711.25533	24793.1125
2713.86191	24784.7125
2716.46687	24795.7125
2719.07021	24820.7125
2721.67194	24865.0125
2724.27206	24780.3125
2726.87057	24826.7125
2729.46747	24877.6125
2732.06276	24909.1125
2734.65644	24940.2125
2737.24852	24906.9125
2739.83899	24895.1125
2742.42786	24897.6125
2745.01513	24832.7125
2747.60079	24796.6125
2750.18486	24770.2125
2752.76733	24758.9125
2755.3482	24797.9125
2757.92747	24833.9125
2760.50515	24719.4125
2763.08123	24741.6125
2765.65573	24739.0125
2768.22863	24801.3125
2770.79994	24758.6125
2773.36967	24767.0125
2775.9378	24780.3125
2778.50435	24791.2125
2781.06932	24789.8125
2783.6327	24772.2125
2786.1945	24708.0125
2788.75471	24758.6125
2791.31335	24680.4125
2793.87041	24653.0125
2796.42589	24612.3125
2798.97979	24601.4125
2801.53212	24577.8125
2804.08288	24591.8125
2806.63206	24525.0125
2809.17967	24446.4125
2811.72571	24385.0125
2814.27018	24393.6125
2816.81308	24340.5125
2819.35442	24304.4125
2821.89419	24294.5125
2824.43239	24236.0125
2826.96904	24239.0125
2829.50412	24269.0125
2832.03763	24215.8125
2834.56959	24186.2125
2837.1	24155.9125
2839.62884	24166.3125
2842.15613	24145.0125
2844.68186	24197.8125
2847.20604	24170.5125
2849.72867	24126.3125
2852.24974	24077.3125
2854.76927	24089.5125
2857.28724	24056.5125
2859.80367	24035.2125
2862.31855	24013.4125
2864.83189	23965.3125
2867.34368	23973.8125
2869.85393	23962.8125
2872.36264	23920.7125
2874.8698	23945.2125
2877.37543	23930.6125
2879.87952	23928.1125
2882.38207	23925.0125
2884.88308	23926.6125
2887.38256	23971.2125
2889.88051	23914.1125
2892.37692	23943.7125
2894.8718	24035.0125
2897.36515	24057.5125
2899.85698	24046.0125
2902.34727	24081.7125
2904.83604	24114.0125
2907.32328	24181.8125
2909.809	24191.0125
2912.29319	24192.9125
2914.77587	24175.0125
2917.25702	24219.0125
2919.73665	24173.4125
2922.21476	24195.4125
2924.69136	24145.6125
2927.16644	24104.6125
2929.64	24095.8125
2932.11205	24043.8125
2934.58258	23974.9125
2937.05161	24003.3125
2939.51912	24004.8125
2941.98513	23986.6125
2944.44962	23987.0125
2946.91261	23948.0125
2949.37409	23992.2125
2951.83407	23971.9125
2954.29254	24007.1125
2956.74951	23989.7125
2959.20498	24008.5125
2961.65895	23981.7125
2964.11142	24001.1125
2966.56239	23934.8125
2969.01186	23920.5125
2971.45984	23872.7125
2973.90632	23844.9125
2976.35131	23806.7125
2978.7948	23800.8125
2981.23681	23781.6125
2983.67732	23737.1125
2986.11635	23657.6125
2988.55388	23589.3125
2990.98993	23579.8125
2993.4245	23527.3125
2995.85758	23482.2125
2998.28917	23418.4125
3000.71928	23410.9125
3003.14791	23347.2125
3005.57506	23362.3125
3008.00073	23223.8125
3010.42493	23255.4125
3012.84764	23202.6125
3015.26888	23183.8125
3017.68865	23121.5125
3020.10694	23109.9125
3022.52376	23086.6125
3024.9391	23037.4125
3027.35298	23007.1125
3029.76539	23008.0125
3032.17632	23033.0125
3034.5858	22973.1125
3036.9938	22983.2125
3039.40034	22958.9125
3041.80542	22933.7125
3044.20903	22910.1125
3046.61118	22903.6125
3049.01187	22876.4125
3051.4111	22864.0125
3053.80888	22812.9125
3056.20519	22782.5125
3058.60005	22735.9125
3060.99345	22664.8125
3063.3854	22664.3125
3065.7759	22593.9125
3068.16494	22581.7125
3070.55254	22446.7125
3072.93868	22391.8125
3075.32338	22313.3125
3077.70662	22302.3125
3080.08842	22218.0125
3082.46878	22233.2125
3084.84769	22231.6125
3087.22515	22231.5125
3089.60118	22199.3125
3091.97576	22170.7125
3094.3489	22178.9125
3096.72061	22156.9125
3099.09087	22199.8125
3101.4597	22156.1125
3103.82709	22179.5125
3106.19305	22118.0125
3108.55757	22154.1125
3110.92066	22104.4125
3113.28232	22115.2125
3115.64255	22024.0125
3118.00134	22038.3125
3120.35871	21982.7125
3122.71466	21972.9125
3125.06917	21905.4125
3127.42226	21864.8125
3129.77393	21906.2125
3132.12417	21855.7125
3134.47299	21821.1125
3136.82039	21777.1125
3139.16636	21782.5125
3141.51092	21769.7125
3143.85406	21812.1125
3146.19579	21746.3125
3148.53609	21759.3125
3150.87499	21836.6125
3153.21246	21793.3125
3155.54853	21839.6125
3157.88318	21821.7125
3160.21642	21847.4125
3162.54826	21807.4125
3164.87868	21793.7125
3167.2077	21796.5125
3169.5353	21784.6125
3171.86151	21812.4125
3174.18631	21792.8125
3176.5097	21748.9125
3178.83169	21727.1125
3181.15228	21758.2125
3183.47147	21686.9125
3185.78926	21680.6125
3188.10565	21665.7125
3190.42065	21644.9125
3192.73424	21652.3125
3195.04645	21623.6125
3197.35725	21588.6125
3199.66667	21599.1125
3201.97469	21620.9125
3204.28132	21576.6125
3206.58656	21615.2125
3208.8904	21612.3125
3211.19287	21635.1125
3213.49394	21629.0125
3215.79363	21647.7125
3218.09193	21665.1125
3220.38884	21604.5125
3222.68438	21681.5125
3224.97853	21659.9125
3227.2713	21659.6125
3229.56269	21703.9125
3231.8527	21664.2125
3234.14133	21626.2125
3236.42858	21562.0125
3238.71446	21564.0125
3240.99896	21500.1125
3243.28209	21471.7125
3245.56384	21461.1125
3247.84423	21511.4125
3250.12324	21474.4125
3252.40088	21444.7125
3254.67715	21402.5125
3256.95205	21371.5125
3259.22558	21404.8125
3261.49775	21391.9125
3263.76855	21408.0125
3266.03799	21409.2125
3268.30606	21371.5125
3270.57277	21329.0125
3272.83812	21361.4125
3275.10211	21273.2125
3277.36474	21239.6125
3279.62601	21226.5125
3281.88593	21174.2125
3284.14448	21192.1125
3286.40168	21242.2125
3288.65753	21223.8125
3290.91202	21229.6125
3293.16516	21181.7125
3295.41695	21126.4125
3297.66738	20998.2125
3299.91647	20930.9125
3302.16421	20845.9125
3304.4106	20723.8125
3306.65564	20569.0125
3308.89933	20483.1125
3311.14169	20330.6125
3313.38269	20157.0125
3315.62236	20060.5125
3317.86068	19942.7125
3320.09766	19828.2125
3322.3333	19704.5125
3324.5676	19633.5125
3326.80056	19367.6125
3329.03219	19261.1125
3331.26248	3.5125
3333.49143	1.6125
3335.71905	0.9125
