Data from AgNPs_UA_0uM_CRN_0uM_R6G_10uM_Q_RamanShift__16__11-37-08-764.txt Node

Date: Wed Jul 13 11:37:08 BST 2022
User: TCL
Spectrometer: QEP01345
Trigger mode: 4
Integration Time (sec): 7.000000E0
Scans to average: 10
Electric dark correction enabled: true
Nonlinearity correction enabled: false
Boxcar width: 0
XAxis mode: Raman Shifts
Number of Pixels in Spectrum: 1044
>>>>>Begin Spectral Data<<<<<
46.04893	-1.1
50.45542	-1
54.85868	-1.5
59.25871	-1.5
63.6555	59.6
68.04907	63.2
72.43941	68
76.82654	74.1
81.21044	75.1
85.59113	78.7
89.96862	82.2
94.34289	85.1
98.71396	88.7
103.08183	95.1
107.4465	91.8
111.80798	93.6
116.16626	97.9
120.52136	97.6
124.87327	102.7
129.222	104.7
133.56755	107.7
137.90993	121.1
142.24913	125.8
146.58517	138.4
150.91804	157.5
155.24774	178.4
159.57429	214.7
163.89768	276.9
168.21792	363.7
172.53501	491.6
176.84895	675.8
181.15975	939
185.46741	1326.6
189.77193	1816.6
194.07331	2448.8
198.37157	3147.9
202.6667	3902.9
206.9587	4664.1
211.24758	5425.5
215.53334	6170.5
219.81599	7011.6
224.09553	7886.9
228.37195	8861.6
232.64527	9928.1
236.91549	10938.1
241.18261	11933.4
245.44663	12888.1
249.70755	13684.1
253.96539	14399.4
258.22014	15027
262.4718	15509.1
266.72039	15810.5
270.96589	15883.5
275.20832	15793.5
279.44768	15553.8
283.68397	15261.1
287.91719	15041.4
292.14735	14880.2
296.37445	14962.6
300.59849	15207.3
304.81948	15546.2
309.03742	15869.7
313.25231	15986.5
317.46415	15740.1
321.67296	15131.9
325.87872	14558.3
330.08145	14259.5
334.28114	14269.8
338.47781	14453.8
342.67145	14758.2
346.86207	15176.7
351.04966	15776.7
355.23424	16368.5
359.4158	16696.2
363.59435	16796.3
367.76989	16771.1
371.94243	16694.2
376.11196	16621
380.27849	16584.8
384.44203	16525
388.60257	16548.7
392.76012	16673.4
396.91468	16865.2
401.06626	17197.8
405.21485	17341.3
409.36047	17124.4
413.50311	16632.4
417.64277	16233.2
421.77947	16021.7
425.9132	15968.9
430.04396	16014.2
434.17176	16058.3
438.2966	16210.3
442.41849	16440.5
446.53742	16633.8
450.6534	16837
454.76644	16983.5
458.87653	17025.1
462.98368	17056
467.08789	17017
471.18916	16869.2
475.2875	16625.3
479.38291	16498.1
483.4754	16363.5
487.56496	16317
491.6516	16283.9
495.73531	16308.2
499.81612	16349.8
503.89401	16512
507.96899	16690.3
512.04106	16866.9
516.11023	17011.8
520.1765	17116.5
524.23987	17143.4
528.30034	17138.8
532.35792	17056.7
536.41261	16966.6
540.46441	16801.5
544.51333	16774.7
548.55936	16872.4
552.60252	17047.1
556.64279	17285.2
560.6802	17485.6
564.71473	17700.3
568.7464	18016.4
572.7752	18090.8
576.80114	17737.5
580.82422	17483.6
584.84444	17461.3
588.86181	17515.3
592.87633	17659.5
596.888	17884.2
600.89682	18399.7
604.9028	19859.4
608.90594	23294.6
612.90624	26968.6
616.90371	25456
620.89834	20451.2
624.89015	18247.7
628.87913	17902.4
632.86528	18064.8
636.84862	18233.9
640.82913	17937.1
644.80683	17424.6
648.78172	17140.9
652.75379	17220
656.72306	17619.2
660.68952	18068.5
664.65319	17903.5
668.61405	17463.5
672.57211	17339.9
676.52738	17334.6
680.47986	17301.5
684.42955	17236.9
688.37646	17179.9
692.32058	17223.6
696.26192	17363.7
700.20048	17506.3
704.13626	17610.7
708.06928	17618
711.99952	17520.3
715.927	17489.8
719.85171	17546.8
723.77365	17582.6
727.69284	17517.6
731.60928	17486.3
735.52295	17460.1
739.43388	17577.5
743.34206	17622.8
747.24749	17624.7
751.15017	17704.4
755.05012	17818.5
758.94733	18333.4
762.8418	19618.6
766.73354	21574.7
770.62254	23104.4
774.50882	23336.3
778.39237	22554.4
782.27321	21089
786.15132	19565.9
790.02671	18521.7
793.89938	18004.7
797.76935	17809.1
801.6366	17667.4
805.50115	17581.1
809.36299	17533.9
813.22213	17496.4
817.07857	17499.4
820.93231	17478.5
824.78336	17558.9
828.63172	17607.6
832.47738	17646.8
836.32036	17589.7
840.16066	17577.3
843.99827	17529.2
847.8332	17532.2
851.66546	17563.6
855.49504	17585.6
859.32195	17603
863.1462	17616
866.96777	17649
870.78668	17652.7
874.60293	17697.6
878.41652	17810.9
882.22745	17904.2
886.03573	17971.1
889.84136	18027.3
893.64433	18035
897.44466	18045.3
901.24235	18054.8
905.0374	18056.5
908.8298	18061.6
912.61957	18070.2
916.40671	18111.3
920.19121	18150.7
923.97308	18266.4
927.75233	18409.2
931.52895	18481.9
935.30295	18318.4
939.07433	18028.4
942.84309	17749.5
946.60924	17614.6
950.37278	17538.9
954.13371	17447.5
957.89203	17407.9
961.64774	17335.1
965.40086	17317.6
969.15137	17248.6
972.89929	17201.9
976.64461	17172.9
980.38733	17149.7
984.12747	17153
987.86502	17161.1
991.59999	17220.3
995.33237	17290.1
999.06217	17358.7
1002.78939	17544.3
1006.51404	17810.2
1010.23611	17945.1
1013.95561	17979.1
1017.67255	17949
1021.38692	17835.4
1025.09872	17703.4
1028.80796	17572.3
1032.51465	17528.7
1036.21877	17575.2
1039.92035	17580.6
1043.61937	17675.1
1047.31584	17713.1
1051.00976	17760.6
1054.70114	17795.2
1058.38998	17790.3
1062.07627	17802.4
1065.76003	17860.1
1069.44126	17918.2
1073.11995	18084.9
1076.79611	18287.4
1080.46974	18573.7
1084.14085	18842.8
1087.80943	19132.7
1091.47549	19177.1
1095.13903	18908.8
1098.80005	18601.6
1102.45857	18458.4
1106.11456	18382.8
1109.76805	18335.9
1113.41903	18377.5
1117.06751	18618.6
1120.71348	18975.4
1124.35696	19449.9
1127.99793	19885.6
1131.63641	19735.3
1135.2724	19150.6
1138.90589	18658.5
1142.5369	18342.4
1146.16542	18131.1
1149.79145	17969.7
1153.415	17907.1
1157.03607	17922.6
1160.65467	18085.9
1164.27079	18464.3
1167.88443	18963.4
1171.49561	19742.7
1175.10432	20967.7
1178.71056	22587.7
1182.31434	23949.5
1185.91565	24300.6
1189.51451	23947.1
1193.11091	23226.1
1196.70485	22378.4
1200.29634	21707.8
1203.88538	20896.6
1207.47197	20174.9
1211.05612	19466.2
1214.63782	18971.8
1218.21708	18657.4
1221.79391	18528.9
1225.36829	18509.4
1228.94024	18467.3
1232.50976	18510.7
1236.07685	18546.7
1239.6415	18620
1243.20374	18664
1246.76355	18712.9
1250.32093	18778.1
1253.8759	18930.1
1257.42845	19202.4
1260.97859	19612.5
1264.52631	20063.9
1268.07163	20384.2
1271.61453	20662.5
1275.15503	20761.2
1278.69312	20759.4
1282.22882	20776.3
1285.76211	21006.7
1289.29301	21486.4
1292.82151	21830.7
1296.34761	22282.3
1299.87133	22932.6
1303.39266	24042
1306.9116	25840.5
1310.42815	27898.7
1313.94233	28912.5
1317.45412	28119.8
1320.96354	26436.9
1324.47058	24863.5
1327.97525	23518.7
1331.47754	22660.7
1334.97747	22236.5
1338.47502	22269.1
1341.97022	22829.8
1345.46305	23972.1
1348.95352	25501.5
1352.44163	26999.8
1355.92738	28525.8
1359.41078	30848
1362.89183	33344.4
1366.37053	32743.5
1369.84688	28768.3
1373.32088	24668.6
1376.79254	22202.3
1380.26186	21023
1383.72883	20301.3
1387.19347	19598.7
1390.65578	18992.4
1394.11575	18615
1397.57339	18370
1401.0287	18242.1
1404.48168	18153.6
1407.93234	18130
1411.38068	18130.1
1414.82669	18208
1418.27039	18233
1421.71177	18189.3
1425.15083	18030.5
1428.58758	17949.1
1432.02203	17966.3
1435.45416	18087.9
1438.88399	18058.3
1442.31151	18011.7
1445.73673	18008.3
1449.15965	18059.4
1452.58027	17997.7
1455.9986	17959.5
1459.41463	17969.7
1462.82837	18056.9
1466.23982	18246.8
1469.64898	18466.7
1473.05586	18649.7
1476.46045	18789.1
1479.86276	18985.4
1483.26279	19260.8
1486.66054	19619.4
1490.05602	20213.8
1493.44922	21106.9
1496.84016	22399.9
1500.22882	24391.2
1503.61521	26889.8
1506.99934	29743.8
1510.38121	31888.4
1513.76081	32341.6
1517.13816	30353.9
1520.51324	27124.7
1523.88607	24138.4
1527.25665	22159.4
1530.62498	21061.5
1533.99105	20349.5
1537.35488	19862.5
1540.71647	19510.4
1544.07581	19250
1547.4329	19117.3
1550.78776	19083.9
1554.14038	19084
1557.49077	19286.3
1560.83892	19567.2
1564.18484	20034.9
1567.52853	20613.8
1570.86999	21150.7
1574.20922	21418.2
1577.54624	21305.2
1580.88103	20547.9
1584.2136	19511.8
1587.54395	18805.8
1590.87208	18671
1594.19801	19001.9
1597.52172	19554.2
1600.84321	19665.3
1604.16251	19250.3
1607.47959	18817.3
1610.79447	18391
1614.10715	17838
1617.41763	17249.1
1620.7259	16879.6
1624.03199	16594.4
1627.33587	16615.3
1630.63757	16803.7
1633.93707	17214.8
1637.23439	18007.3
1640.52951	19313.7
1643.82246	21079.2
1647.11321	23045.2
1650.40179	24419
1653.68819	23981.8
1656.97241	21821.9
1660.25446	19348.5
1663.53433	17569.1
1666.81203	16466.9
1670.08756	15867.9
1673.36092	15491.9
1676.63211	15269.3
1679.90115	15073
1683.16801	14953.3
1686.43272	14865.1
1689.69527	14739.9
1692.95567	14695.1
1696.2139	14668.5
1699.46999	14630.8
1702.72392	14580.4
1705.97571	14595.6
1709.22535	14595.9
1712.47284	14583.8
1715.71819	14594.6
1718.96139	14593
1722.20246	14572.3
1725.44139	14553
1728.67818	14455.3
1731.91284	14427.6
1735.14537	14390.3
1738.37576	14351.2
1741.60403	14308.9
1744.83017	14278.1
1748.05418	14270.8
1751.27607	14228.2
1754.49584	14203.7
1757.71349	14176
1760.92903	14147.9
1764.14244	14121.4
1767.35375	14125.4
1770.56294	14128.5
1773.77002	14133.8
1776.97499	14100.4
1780.17785	14074.5
1783.37861	14040.3
1786.57727	13946.8
1789.77382	13943
1792.96828	13934.9
1796.16064	13875.9
1799.3509	13852.1
1802.53907	13826.3
1805.72514	13789.9
1808.90913	13740.2
1812.09102	13706.7
1815.27083	13632.6
1818.44856	13616.3
1821.6242	13568.4
1824.79776	13551.3
1827.96924	13516.6
1831.13864	13517
1834.30597	13515.7
1837.47122	13457.7
1840.6344	13471.3
1843.7955	13484.9
1846.95454	13448.2
1850.11151	13427.4
1853.26642	13401.2
1856.41926	13405.4
1859.57004	13386.9
1862.71876	13376.2
1865.86542	13382.4
1869.01003	13380.2
1872.15258	13363.2
1875.29308	13317.1
1878.43152	13274.8
1881.56792	13227.3
1884.70227	13242
1887.83457	13194
1890.96482	13160.2
1894.09304	13135.4
1897.21921	13144.4
1900.34335	13099.2
1903.46544	13073.4
1906.58551	13045.7
1909.70353	13024.1
1912.81953	13018.8
1915.93349	13022
1919.04543	12995.2
1922.15534	12949.8
1925.26322	12918.9
1928.36908	12865
1931.47292	12862.2
1934.57473	12799.7
1937.67453	12748.6
1940.77232	12675.7
1943.86808	12654
1946.96184	12655.7
1950.05358	12604
1953.14331	12571.9
1956.23103	12531.5
1959.31675	12479
1962.40046	12452.1
1965.48217	12422.2
1968.56188	12360.3
1971.63959	12336.4
1974.7153	12316.5
1977.78901	12250.2
1980.86073	12211.8
1983.93046	12138
1986.99819	12090
1990.06394	12040.5
1993.1277	11989.2
1996.18947	11943.1
1999.24925	11948.2
2002.30706	11890.3
2005.36288	11827.9
2008.41672	11810.6
2011.46859	11770.3
2014.51848	11731.7
2017.56639	11716.4
2020.61233	11697.1
2023.6563	11631.4
2026.6983	11586.2
2029.73833	11564.2
2032.7764	11513.9
2035.8125	11504.1
2038.84664	11467.8
2041.87881	11461.9
2044.90903	11448.6
2047.93729	11395
2050.96359	11378.2
2053.98794	11365.8
2057.01034	11350.7
2060.03078	11318.8
2063.04927	11326.8
2066.06582	11339.3
2069.08042	11319.5
2072.09307	11258.1
2075.10378	11247.4
2078.11255	11257.4
2081.11938	11259.5
2084.12426	11227.6
2087.12722	11233.9
2090.12824	11227.5
2093.12732	11225.1
2096.12447	11227.3
2099.11969	11230.2
2102.11299	11213.5
2105.10435	11202.8
2108.09379	11214.6
2111.08131	11223
2114.0669	11211.5
2117.05057	11248.5
2120.03233	11216.3
2123.01216	11255
2125.99008	11265.9
2128.96609	11259.3
2131.94018	11248.1
2134.91236	11247.7
2137.88263	11250.4
2140.851	11253.1
2143.81746	11273
2146.78201	11238.3
2149.74466	11220.9
2152.7054	11235.5
2155.66425	11198
2158.6212	11218.9
2161.57625	11172.4
2164.52941	11191.8
2167.48067	11209.4
2170.43004	11162.8
2173.37752	11153.6
2176.32311	11154.6
2179.26681	11177.7
2182.20863	11159
2185.14856	11161.3
2188.08661	11121.9
2191.02278	11134
2193.95707	11099.3
2196.88948	11107.9
2199.82001	11062.7
2202.74867	11041.9
2205.67545	11033.9
2208.60037	10995.5
2211.52341	10994.9
2214.44458	10980.4
2217.36388	10959.7
2220.28132	10919.5
2223.1969	10879.6
2226.11061	10881.7
2229.02246	10860.2
2231.93245	10809.2
2234.84058	10795.6
2237.74686	10767.5
2240.65128	10778.5
2243.55385	10745.5
2246.45456	10757.2
2249.35343	10727.8
2252.25044	10707.7
2255.14561	10689.3
2258.03893	10696.8
2260.93041	10688.9
2263.82004	10655.4
2266.70783	10617.9
2269.59378	10581.2
2272.4779	10584.7
2275.36017	10542.7
2278.24061	10529.4
2281.11922	10470.1
2283.996	10453.4
2286.87094	10451.6
2289.74405	10412.2
2292.61534	10373.3
2295.4848	10379.3
2298.35243	10376.4
2301.21824	10337.4
2304.08223	10317.9
2306.94439	10316.7
2309.80474	10334.7
2312.66327	10289.3
2315.51999	10280.2
2318.37489	10267.8
2321.22797	10252.2
2324.07925	10195.9
2326.92871	10177.4
2329.77637	10155.3
2332.62222	10118
2335.46626	10133.3
2338.3085	10097.2
2341.14893	10085.3
2343.98756	10053.3
2346.8244	10038.1
2349.65943	10030.9
2352.49267	10080.4
2355.32411	10042.8
2358.15376	10058.1
2360.98161	10045.2
2363.80768	10035.8
2366.63195	10016.3
2369.45444	10012.4
2372.27514	10030.5
2375.09405	10004.3
2377.91118	9951
2380.72652	9942.9
2383.54009	9917
2386.35187	9884
2389.16188	9846.9
2391.97011	9813.6
2394.77657	9793
2397.58125	9777
2400.38416	9741.4
2403.18529	9727.4
2405.98466	9707.1
2408.78226	9678.9
2411.57809	9677.9
2414.37216	9647.3
2417.16446	9628
2419.955	9622
2422.74378	9612.5
2425.5308	9621.6
2428.31606	9604.3
2431.09956	9580.4
2433.88131	9574.3
2436.6613	9583.3
2439.43954	9556.6
2442.21603	9541.8
2444.99077	9529
2447.76377	9535.3
2450.53501	9512
2453.30451	9511.8
2456.07226	9472.5
2458.83827	9469.4
2461.60254	9460.2
2464.36507	9434.7
2467.12586	9435.3
2469.88492	9427.9
2472.64224	9404.9
2475.39782	9400.6
2478.15167	9401.2
2480.90379	9393.4
2483.65417	9396.6
2486.40283	9371.9
2489.14976	9377.5
2491.89497	9358.6
2494.63845	9377.7
2497.3802	9357.7
2500.12024	9310.9
2502.85855	9327.8
2505.59514	9266
2508.33002	9274.2
2511.06318	9269.8
2513.79462	9201.9
2516.52435	9198.3
2519.25237	9186
2521.97867	9173.1
2524.70327	9146.4
2527.42616	9109.2
2530.14734	9089.5
2532.86681	9060.9
2535.58458	9052
2538.30065	9044.2
2541.01501	9034.8
2543.72768	9037.2
2546.43864	9001.5
2549.14791	8987.8
2551.85548	8990.3
2554.56136	8972.2
2557.26554	8980.3
2559.96803	8922.9
2562.66883	8915.5
2565.36794	8904.2
2568.06536	8851.1
2570.7611	8825.2
2573.45514	8836.8
2576.14751	8829.2
2578.83819	8804.6
2581.52719	8769.4
2584.21451	8716.1
2586.90015	8715.5
2589.58411	8711
2592.2664	8691.9
2594.94701	8678.8
2597.62594	8679
2600.30321	8650.5
2602.9788	8629
2605.65273	8594.8
2608.32498	8569.5
2610.99557	8565.4
2613.66449	8560
2616.33175	8543.7
2618.99734	8532.6
2621.66128	8508.6
2624.32355	8523.5
2626.98416	8497.5
2629.64311	8482.6
2632.30041	8479.7
2634.95605	8447.2
2637.61004	8442.5
2640.26238	8405
2642.91306	8392.8
2645.56209	8364.7
2648.20948	8367.7
2650.85521	8340.7
2653.4993	8324.5
2656.14175	8316.3
2658.78255	8335.4
2661.42171	8321.3
2664.05923	8325.7
2666.6951	8333.2
2669.32934	8318.8
2671.96194	8325
2674.59291	8323.3
2677.22224	8318.8
2679.84993	8344.8
2682.476	8313
2685.10043	8312.4
2687.72324	8268.5
2690.34441	8268.5
2692.96396	8249.9
2695.58188	8288.9
2698.19818	8243.7
2700.81285	8280
2703.4259	8257.7
2706.03733	8226.1
2708.64714	8245.8
2711.25533	8251.2
2713.86191	8230.8
2716.46687	8272.1
2719.07021	8220.9
2721.67194	8260.6
2724.27206	8238.7
2726.87057	8218.7
2729.46747	8215.7
2732.06276	8210.5
2734.65644	8206.4
2737.24852	8216
2739.83899	8171.5
2742.42786	8210.7
2745.01513	8150.9
2747.60079	8151.9
2750.18486	8127.6
2752.76733	8104.4
2755.3482	8068.9
2757.92747	8068.9
2760.50515	8040.2
2763.08123	8047.1
2765.65573	8013.4
2768.22863	8001.2
2770.79994	7995.4
2773.36967	7990.2
2775.9378	7979.6
2778.50435	7956.9
2781.06932	7964.7
2783.6327	7936.2
2786.1945	7929.3
2788.75471	7900
2791.31335	7898.6
2793.87041	7886.3
2796.42589	7872
2798.97979	7863
2801.53212	7821.2
2804.08288	7797
2806.63206	7770.2
2809.17967	7755
2811.72571	7737.1
2814.27018	7728.6
2816.81308	7714.7
2819.35442	7692
2821.89419	7673.7
2824.43239	7670.2
2826.96904	7662.6
2829.50412	7664.8
2832.03763	7629.9
2834.56959	7621
2837.1	7607.8
2839.62884	7631.4
2842.15613	7601.9
2844.68186	7618.5
2847.20604	7594.4
2849.72867	7569.9
2852.24974	7564.3
2854.76927	7579.3
2857.28724	7561.8
2859.80367	7576.5
2862.31855	7554.4
2864.83189	7540.8
2867.34368	7535.3
2869.85393	7534.9
2872.36264	7512.7
2874.8698	7491.6
2877.37543	7480
2879.87952	7483.1
2882.38207	7466.5
2884.88308	7473.9
2887.38256	7424.6
2889.88051	7428.9
2892.37692	7436
2894.8718	7436
2897.36515	7442.2
2899.85698	7441.7
2902.34727	7451.2
2904.83604	7447.5
2907.32328	7476.6
2909.809	7450
2912.29319	7486.2
2914.77587	7461.9
2917.25702	7473
2919.73665	7468.1
2922.21476	7465.3
2924.69136	7422
2927.16644	7431.2
2929.64	7402.3
2932.11205	7384.1
2934.58258	7353.1
2937.05161	7362.2
2939.51912	7372.5
2941.98513	7356.6
2944.44962	7345.6
2946.91261	7290.9
2949.37409	7322
2951.83407	7314.8
2954.29254	7325
2956.74951	7299.1
2959.20498	7306.7
2961.65895	7288.2
2964.11142	7287.2
2966.56239	7273.4
2969.01186	7291.1
2971.45984	7263.9
2973.90632	7269.2
2976.35131	7255
2978.7948	7241.1
2981.23681	7230.4
2983.67732	7205.4
2986.11635	7191.1
2988.55388	7181.4
2990.98993	7164.6
2993.4245	7148.9
2995.85758	7111.4
2998.28917	7100.1
3000.71928	7098.4
3003.14791	7072.1
3005.57506	7057.4
3008.00073	7044
3010.42493	7056.8
3012.84764	7032.5
3015.26888	7042.4
3017.68865	7011.8
3020.10694	6988.2
3022.52376	6962.2
3024.9391	6977.5
3027.35298	6950.8
3029.76539	6950.3
3032.17632	6940.1
3034.5858	6931.6
3036.9938	6911
3039.40034	6887.5
3041.80542	6876.7
3044.20903	6852
3046.61118	6858.6
3049.01187	6839.3
3051.4111	6850
3053.80888	6842.6
3056.20519	6813.9
3058.60005	6811.1
3060.99345	6780.3
3063.3854	6758.9
3065.7759	6765.2
3068.16494	6726.6
3070.55254	6719
3072.93868	6704.4
3075.32338	6691
3077.70662	6669.5
3080.08842	6673.2
3082.46878	6659
3084.84769	6664.1
3087.22515	6639.3
3089.60118	6652.1
3091.97576	6645.6
3094.3489	6641.5
3096.72061	6654.4
3099.09087	6624.6
3101.4597	6646.8
3103.82709	6640.9
3106.19305	6635.4
3108.55757	6606.6
3110.92066	6613.3
3113.28232	6606
3115.64255	6602.9
3118.00134	6594.5
3120.35871	6571.3
3122.71466	6579.7
3125.06917	6561.9
3127.42226	6551.2
3129.77393	6553.6
3132.12417	6516
3134.47299	6506.3
3136.82039	6493
3139.16636	6516.5
3141.51092	6497.9
3143.85406	6527.1
3146.19579	6512
3148.53609	6547.5
3150.87499	6543.3
3153.21246	6530.9
3155.54853	6546
3157.88318	6546.5
3160.21642	6549.9
3162.54826	6542.2
3164.87868	6522.2
3167.2077	6537.4
3169.5353	6538.4
3171.86151	6549
3174.18631	6553.5
3176.5097	6532.8
3178.83169	6528
3181.15228	6515.5
3183.47147	6490.7
3185.78926	6493.7
3188.10565	6483.9
3190.42065	6459.1
3192.73424	6477.1
3195.04645	6465
3197.35725	6469.9
3199.66667	6467.9
3201.97469	6442.9
3204.28132	6460.3
3206.58656	6456
3208.8904	6469.6
3211.19287	6453.2
3213.49394	6458.1
3215.79363	6464.4
3218.09193	6481.9
3220.38884	6462.6
3222.68438	6482.3
3224.97853	6472.5
3227.2713	6475.2
3229.56269	6458.3
3231.8527	6421.6
3234.14133	6422.8
3236.42858	6437.8
3238.71446	6415.3
3240.99896	6382.3
3243.28209	6401.9
3245.56384	6376.2
3247.84423	6362.5
3250.12324	6353.9
3252.40088	6347.9
3254.67715	6342.8
3256.95205	6342.9
3259.22558	6358.5
3261.49775	6317.5
3263.76855	6340.5
3266.03799	6338.6
3268.30606	6321
3270.57277	6306.5
3272.83812	6269.3
3275.10211	6267.6
3277.36474	6234.6
3279.62601	6218.9
3281.88593	6217.5
3284.14448	6205.3
3286.40168	6214.8
3288.65753	6224.9
3290.91202	6195.7
3293.16516	6188.1
3295.41695	6205.5
3297.66738	6154.8
3299.91647	6120.1
3302.16421	6099.2
3304.4106	6071.4
3306.65564	6045.5
3308.89933	5986.5
3311.14169	5935.8
3313.38269	5894.1
3315.62236	5857.7
3317.86068	5822.2
3320.09766	5758.2
3322.3333	5738.4
3324.5676	5697.2
3326.80056	5633.7
3329.03219	5580.8
3331.26248	2.1
3333.49143	1.6
3335.71905	1.8
