Data from AgNPs_UA_1uM_CRN_0uM_R6G_10uM_Q_RamanShift__12__12-24-45-881.txt Node

Date: Wed Jul 13 12:24:45 BST 2022
User: TCL
Spectrometer: QEP01345
Trigger mode: 4
Integration Time (sec): 7.000000E0
Scans to average: 10
Electric dark correction enabled: true
Nonlinearity correction enabled: false
Boxcar width: 0
XAxis mode: Raman Shifts
Number of Pixels in Spectrum: 1044
>>>>>Begin Spectral Data<<<<<
46.04893	-2.175
50.45542	-1.675
54.85868	-1.275
59.25871	0.725
63.6555	102.825
68.04907	109.125
72.43941	115.025
76.82654	120.925
81.21044	124.725
85.59113	123.425
89.96862	129.725
94.34289	135.525
98.71396	139.325
103.08183	138.025
107.4465	147.025
111.80798	150.325
116.16626	153.625
120.52136	160.925
124.87327	165.025
129.222	177.325
133.56755	187.825
137.90993	198.125
142.24913	218.825
146.58517	244.325
150.91804	289.725
155.24774	332.325
159.57429	415.625
163.89768	527.225
168.21792	693.925
172.53501	951.825
176.84895	1323.325
181.15975	1850.525
185.46741	2599.425
189.77193	3584.825
194.07331	4797.725
198.37157	6215.225
202.6667	7646.025
206.9587	9115.325
211.24758	10552.925
215.53334	11972.725
219.81599	13508.425
224.09553	15149.225
228.37195	17022.125
232.64527	19025.025
236.91549	21080.825
241.18261	23129.325
245.44663	25007.325
249.70755	26702.325
253.96539	28164.325
258.22014	29438.225
262.4718	30488.625
266.72039	31140.825
270.96589	31416.125
275.20832	31385.425
279.44768	31169.525
283.68397	30875.125
287.91719	30575.125
292.14735	30451.125
296.37445	30487.925
300.59849	30745.125
304.81948	31056.525
309.03742	31403.025
313.25231	31470.125
317.46415	31101.625
321.67296	30492.725
325.87872	29980.425
330.08145	29727.025
334.28114	29799.525
338.47781	30147.525
342.67145	30611.825
346.86207	31217.125
351.04966	31932.625
355.23424	32642.725
359.4158	33170.325
363.59435	33573.425
367.76989	33715.225
371.94243	33837.025
376.11196	33925.225
380.27849	33997.525
384.44203	34098.825
388.60257	34248.325
392.76012	34583.125
396.91468	35027.025
401.06626	35558.925
405.21485	35852.025
409.36047	35549.825
413.50311	35040.925
417.64277	34741.225
421.77947	34605.225
425.9132	34697.325
430.04396	34814.525
434.17176	34978.425
438.2966	35226.625
442.41849	35623.125
446.53742	36146.425
450.6534	36768.525
454.76644	37158.225
458.87653	37318.325
462.98368	37369.725
467.08789	37283.925
471.18916	37013.525
475.2875	36614.425
479.38291	36295.725
483.4754	36116.225
487.56496	35978.725
491.6516	35914.625
495.73531	35925.425
499.81612	36006.025
503.89401	36198.825
507.96899	36374.025
512.04106	36475.325
516.11023	36542.225
520.1765	36519.325
524.23987	36502.925
528.30034	36373.325
532.35792	36288.125
536.41261	36076.625
540.46441	35847.425
544.51333	35761.125
548.55936	36036.825
552.60252	36467.625
556.64279	36915.225
560.6802	37240.825
564.71473	37508.625
568.7464	38010.825
572.7752	38478.225
576.80114	38777.425
580.82422	39246.625
584.84444	39735.725
588.86181	40303.525
592.87633	40790.725
596.888	41001.625
600.89682	41081.225
604.9028	42327.625
608.90594	46117.525
612.90624	49665.525
616.90371	46802.925
620.89834	40555.225
624.89015	38103.925
628.87913	37855.725
632.86528	38184.325
636.84862	38404.025
640.82913	38086.425
644.80683	37387.425
648.78172	37013.825
652.75379	37138.225
656.72306	37702.425
660.68952	38243.625
664.65319	38040.225
668.61405	37665.825
672.57211	37699.425
676.52738	37769.425
680.47986	37614.225
684.42955	37365.125
688.37646	37284.025
692.32058	37502.125
696.26192	37906.125
700.20048	38342.025
704.13626	38603.725
708.06928	38558.025
711.99952	38398.725
715.927	38299.825
719.85171	38406.025
723.77365	38389.425
727.69284	38107.925
731.60928	37893.225
735.52295	37826.625
739.43388	37871.025
743.34206	37995.525
747.24749	38106.125
751.15017	38328.625
755.05012	38714.025
758.94733	39514.925
762.8418	41313.225
766.73354	44029.725
770.62254	46161.625
774.50882	46361.325
778.39237	44962.425
782.27321	42957.825
786.15132	40929.925
790.02671	39658.425
793.89938	38963.525
797.76935	38627.525
801.6366	38446.525
805.50115	38305.425
809.36299	38240.925
813.22213	38130.725
817.07857	38118.325
820.93231	38094.525
824.78336	38112.525
828.63172	38131.125
832.47738	38097.125
836.32036	38082.625
840.16066	38103.525
843.99827	38121.325
847.8332	38149.125
851.66546	38235.025
855.49504	38289.525
859.32195	38291.825
863.1462	38304.025
866.96777	38311.025
870.78668	38357.425
874.60293	38433.125
878.41652	38557.425
882.22745	38723.425
886.03573	38867.825
889.84136	38931.925
893.64433	38875.825
897.44466	38830.825
901.24235	38705.325
905.0374	38663.925
908.8298	38569.325
912.61957	38528.725
916.40671	38653.425
920.19121	38880.925
923.97308	39060.925
927.75233	39209.825
931.52895	39186.925
935.30295	38936.925
939.07433	38414.225
942.84309	38065.325
946.60924	37975.025
950.37278	37889.825
954.13371	37912.525
957.89203	37806.825
961.64774	37757.125
965.40086	37737.625
969.15137	37724.825
972.89929	37641.325
976.64461	37589.625
980.38733	37609.125
984.12747	37664.525
987.86502	37755.425
991.59999	37856.625
995.33237	37985.325
999.06217	38245.825
1002.78939	38617.225
1006.51404	39129.825
1010.23611	39523.325
1013.95561	39806.925
1017.67255	39815.825
1021.38692	39626.325
1025.09872	39330.325
1028.80796	39057.625
1032.51465	38858.025
1036.21877	38949.725
1039.92035	38953.725
1043.61937	39064.825
1047.31584	39183.425
1051.00976	39254.725
1054.70114	39428.125
1058.38998	39559.825
1062.07627	39810.925
1065.76003	40065.625
1069.44126	40382.725
1073.11995	40952.925
1076.79611	41584.725
1080.46974	41950.025
1084.14085	42246.325
1087.80943	42521.325
1091.47549	42623.225
1095.13903	42439.525
1098.80005	42111.325
1102.45857	41755.025
1106.11456	41433.625
1109.76805	41117.225
1113.41903	40981.925
1117.06751	41145.625
1120.71348	41596.625
1124.35696	42082.325
1127.99793	42509.425
1131.63641	42343.925
1135.2724	41846.425
1138.90589	41392.425
1142.5369	41218.125
1146.16542	41096.225
1149.79145	41001.325
1153.415	40973.825
1157.03607	41073.325
1160.65467	41417.825
1164.27079	42087.025
1167.88443	43195.325
1171.49561	44545.625
1175.10432	46682.725
1178.71056	49264.625
1182.31434	51265.225
1185.91565	52087.025
1189.51451	51878.725
1193.11091	51153.625
1196.70485	49979.925
1200.29634	48829.925
1203.88538	47803.725
1207.47197	46684.025
1211.05612	45853.425
1214.63782	45031.525
1218.21708	44333.925
1221.79391	43819.125
1225.36829	43560.325
1228.94024	43403.925
1232.50976	43293.725
1236.07685	43219.025
1239.6415	43142.825
1243.20374	43210.625
1246.76355	43279.725
1250.32093	43518.425
1253.8759	43891.525
1257.42845	44614.425
1260.97859	45591.625
1264.52631	46512.425
1268.07163	47212.825
1271.61453	47834.525
1275.15503	48329.725
1278.69312	48668.225
1282.22882	49074.525
1285.76211	49680.425
1289.29301	50503.925
1292.82151	51467.925
1296.34761	52607.525
1299.87133	54078.525
1303.39266	56113.325
1306.9116	58639.825
1310.42815	61158.425
1313.94233	62286.425
1317.45412	61232.425
1320.96354	59465.625
1324.47058	57935.225
1327.97525	56693.225
1331.47754	55902.925
1334.97747	55613.725
1338.47502	55635.325
1341.97022	56336.025
1345.46305	57515.325
1348.95352	59088.925
1352.44163	60424.425
1355.92738	61870.725
1359.41078	64137.125
1362.89183	66203.725
1366.37053	64773.725
1369.84688	59637.125
1373.32088	54247.025
1376.79254	50809.925
1380.26186	49191.125
1383.72883	48329.725
1387.19347	47664.025
1390.65578	46886.525
1394.11575	46329.525
1397.57339	45903.125
1401.0287	45669.325
1404.48168	45577.925
1407.93234	45510.825
1411.38068	45336.025
1414.82669	45004.325
1418.27039	44533.525
1421.71177	44115.325
1425.15083	43693.925
1428.58758	43465.525
1432.02203	43721.625
1435.45416	44067.425
1438.88399	44487.125
1442.31151	44591.925
1445.73673	44717.725
1449.15965	44794.025
1452.58027	44807.425
1455.9986	44733.425
1459.41463	44932.725
1462.82837	45423.925
1466.23982	45993.125
1469.64898	46511.725
1473.05586	46909.825
1476.46045	47130.425
1479.86276	47283.425
1483.26279	47597.525
1486.66054	48095.525
1490.05602	48788.425
1493.44922	49880.725
1496.84016	51477.125
1500.22882	53843.425
1503.61521	56948.025
1506.99934	60105.525
1510.38121	62142.525
1513.76081	61918.125
1517.13816	59379.225
1520.51324	55738.825
1523.88607	52720.625
1527.25665	50971.725
1530.62498	50002.225
1533.99105	49477.325
1537.35488	48926.325
1540.71647	48304.425
1544.07581	47646.925
1547.4329	47129.925
1550.78776	46658.325
1554.14038	46390.625
1557.49077	46375.025
1560.83892	46551.325
1564.18484	47109.825
1567.52853	47634.425
1570.86999	48104.825
1574.20922	48559.025
1577.54624	48428.425
1580.88103	47533.025
1584.2136	46405.725
1587.54395	46105.525
1590.87208	46662.125
1594.19801	47883.625
1597.52172	49411.925
1600.84321	49794.925
1604.16251	48944.025
1607.47959	47707.625
1610.79447	46085.825
1614.10715	44236.425
1617.41763	42484.125
1620.7259	41261.925
1624.03199	40492.025
1627.33587	40422.725
1630.63757	40757.625
1633.93707	41862.125
1637.23439	43910.425
1640.52951	47084.825
1643.82246	51097.425
1647.11321	54770.425
1650.40179	56264.425
1653.68819	54227.225
1656.97241	49658.825
1660.25446	44910.325
1663.53433	41545.325
1666.81203	39395.825
1670.08756	38075.625
1673.36092	37301.925
1676.63211	36768.725
1679.90115	36396.925
1683.16801	36108.925
1686.43272	35904.725
1689.69527	35671.525
1692.95567	35550.825
1696.2139	35459.125
1699.46999	35421.025
1702.72392	35322.025
1705.97571	35300.525
1709.22535	35354.325
1712.47284	35360.625
1715.71819	35374.625
1718.96139	35270.225
1722.20246	35159.425
1725.44139	35125.625
1728.67818	35007.225
1731.91284	34828.825
1735.14537	34766.625
1738.37576	34676.425
1741.60403	34543.025
1744.83017	34554.225
1748.05418	34439.425
1751.27607	34362.825
1754.49584	34293.025
1757.71349	34309.325
1760.92903	34275.325
1764.14244	34230.125
1767.35375	34200.025
1770.56294	34167.425
1773.77002	34130.625
1776.97499	34099.125
1780.17785	34076.125
1783.37861	33993.325
1786.57727	33902.625
1789.77382	33840.825
1792.96828	33851.025
1796.16064	33808.325
1799.3509	33792.825
1802.53907	33718.225
1805.72514	33668.125
1808.90913	33586.525
1812.09102	33554.625
1815.27083	33426.525
1818.44856	33343.025
1821.6242	33295.625
1824.79776	33251.225
1827.96924	33213.425
1831.13864	33205.425
1834.30597	33162.725
1837.47122	33119.825
1840.6344	33093.925
1843.7955	33072.925
1846.95454	33015.625
1850.11151	33008.525
1853.26642	32952.825
1856.41926	32933.825
1859.57004	32894.225
1862.71876	32906.325
1865.86542	32973.525
1869.01003	32925.925
1872.15258	32871.425
1875.29308	32799.125
1878.43152	32720.525
1881.56792	32675.325
1884.70227	32644.925
1887.83457	32633.825
1890.96482	32548.625
1894.09304	32481.025
1897.21921	32508.925
1900.34335	32439.425
1903.46544	32397.525
1906.58551	32343.825
1909.70353	32344.425
1912.81953	32293.025
1915.93349	32229.125
1919.04543	32202.725
1922.15534	32113.225
1925.26322	32060.925
1928.36908	32020.925
1931.47292	31944.325
1934.57473	31872.425
1937.67453	31762.425
1940.77232	31681.425
1943.86808	31636.825
1946.96184	31546.825
1950.05358	31462.025
1953.14331	31403.925
1956.23103	31273.125
1959.31675	31226.425
1962.40046	31169.325
1965.48217	31046.425
1968.56188	30912.525
1971.63959	30825.625
1974.7153	30779.225
1977.78901	30697.525
1980.86073	30588.225
1983.93046	30531.225
1986.99819	30402.125
1990.06394	30269.225
1993.1277	30181.025
1996.18947	30128.425
1999.24925	30072.525
2002.30706	30026.325
2005.36288	29903.225
2008.41672	29785.725
2011.46859	29729.825
2014.51848	29589.525
2017.56639	29594.925
2020.61233	29482.025
2023.6563	29348.725
2026.6983	29284.325
2029.73833	29257.425
2032.7764	29159.525
2035.8125	29072.925
2038.84664	28992.425
2041.87881	28982.525
2044.90903	28903.925
2047.93729	28830.825
2050.96359	28834.925
2053.98794	28777.525
2057.01034	28758.025
2060.03078	28741.325
2063.04927	28739.125
2066.06582	28738.925
2069.08042	28680.325
2072.09307	28636.525
2075.10378	28553.325
2078.11255	28537.525
2081.11938	28586.825
2084.12426	28524.825
2087.12722	28518.425
2090.12824	28533.925
2093.12732	28506.425
2096.12447	28558.125
2099.11969	28529.325
2102.11299	28518.325
2105.10435	28535.025
2108.09379	28559.525
2111.08131	28567.825
2114.0669	28544.225
2117.05057	28577.125
2120.03233	28618.825
2123.01216	28641.725
2125.99008	28671.525
2128.96609	28698.125
2131.94018	28706.725
2134.91236	28775.425
2137.88263	28773.525
2140.851	28763.325
2143.81746	28791.925
2146.78201	28781.525
2149.74466	28818.125
2152.7054	28808.225
2155.66425	28761.625
2158.6212	28725.125
2161.57625	28730.325
2164.52941	28740.125
2167.48067	28708.425
2170.43004	28697.925
2173.37752	28697.525
2176.32311	28757.725
2179.26681	28729.325
2182.20863	28692.025
2185.14856	28723.825
2188.08661	28695.425
2191.02278	28663.925
2193.95707	28679.325
2196.88948	28660.225
2199.82001	28608.825
2202.74867	28596.825
2205.67545	28594.525
2208.60037	28486.325
2211.52341	28458.925
2214.44458	28414.825
2217.36388	28330.125
2220.28132	28261.825
2223.1969	28205.025
2226.11061	28171.025
2229.02246	28125.825
2231.93245	28049.025
2234.84058	27993.825
2237.74686	27977.725
2240.65128	27967.325
2243.55385	27952.625
2246.45456	27908.425
2249.35343	27842.525
2252.25044	27818.925
2255.14561	27749.025
2258.03893	27736.525
2260.93041	27706.925
2263.82004	27626.425
2266.70783	27546.725
2269.59378	27491.825
2272.4779	27463.625
2275.36017	27367.025
2278.24061	27315.925
2281.11922	27201.625
2283.996	27154.625
2286.87094	27128.925
2289.74405	27092.525
2292.61534	27053.125
2295.4848	26999.125
2298.35243	27008.125
2301.21824	26980.825
2304.08223	26946.125
2306.94439	26901.525
2309.80474	26954.925
2312.66327	26975.825
2315.51999	26875.725
2318.37489	26826.725
2321.22797	26801.325
2324.07925	26749.125
2326.92871	26705.525
2329.77637	26669.425
2332.62222	26633.125
2335.46626	26593.825
2338.3085	26532.725
2341.14893	26444.325
2343.98756	26392.625
2346.8244	26395.225
2349.65943	26400.625
2352.49267	26409.825
2355.32411	26402.525
2358.15376	26422.125
2360.98161	26433.125
2363.80768	26375.125
2366.63195	26349.725
2369.45444	26316.325
2372.27514	26316.725
2375.09405	26269.225
2377.91118	26239.925
2380.72652	26182.125
2383.54009	26099.425
2386.35187	26050.925
2389.16188	25964.025
2391.97011	25897.925
2394.77657	25879.725
2397.58125	25818.325
2400.38416	25792.525
2403.18529	25694.025
2405.98466	25678.325
2408.78226	25625.625
2411.57809	25640.225
2414.37216	25594.525
2417.16446	25598.025
2419.955	25547.325
2422.74378	25508.825
2425.5308	25518.325
2428.31606	25524.325
2431.09956	25490.225
2433.88131	25426.125
2436.6613	25459.525
2439.43954	25422.325
2442.21603	25354.325
2444.99077	25382.825
2447.76377	25376.025
2450.53501	25328.925
2453.30451	25327.325
2456.07226	25227.525
2458.83827	25192.925
2461.60254	25194.825
2464.36507	25163.025
2467.12586	25106.525
2469.88492	25090.125
2472.64224	25105.325
2475.39782	25084.825
2478.15167	25069.725
2480.90379	25022.525
2483.65417	25032.925
2486.40283	24979.225
2489.14976	25016.125
2491.89497	24965.125
2494.63845	24978.225
2497.3802	24922.625
2500.12024	24947.725
2502.85855	24912.625
2505.59514	24889.125
2508.33002	24833.025
2511.06318	24782.025
2513.79462	24745.225
2516.52435	24710.625
2519.25237	24667.225
2521.97867	24654.125
2524.70327	24616.125
2527.42616	24574.425
2530.14734	24538.725
2532.86681	24535.825
2535.58458	24497.925
2538.30065	24459.825
2541.01501	24451.525
2543.72768	24366.525
2546.43864	24336.525
2549.14791	24321.825
2551.85548	24261.825
2554.56136	24204.625
2557.26554	24161.025
2559.96803	24096.125
2562.66883	24085.325
2565.36794	24027.925
2568.06536	23959.625
2570.7611	23957.725
2573.45514	23935.325
2576.14751	23956.325
2578.83819	23919.425
2581.52719	23823.325
2584.21451	23728.825
2586.90015	23730.625
2589.58411	23685.925
2592.2664	23640.725
2594.94701	23562.125
2597.62594	23557.025
2600.30321	23508.425
2602.9788	23488.525
2605.65273	23428.025
2608.32498	23442.425
2610.99557	23368.025
2613.66449	23338.725
2616.33175	23306.425
2618.99734	23343.225
2621.66128	23279.625
2624.32355	23266.325
2626.98416	23223.925
2629.64311	23159.525
2632.30041	23174.825
2634.95605	23124.325
2637.61004	23098.925
2640.26238	23022.425
2642.91306	22958.725
2645.56209	22939.125
2648.20948	22926.325
2650.85521	22878.225
2653.4993	22890.225
2656.14175	22881.525
2658.78255	22880.625
2661.42171	22931.425
2664.05923	22922.225
2666.6951	22921.025
2669.32934	22918.625
2671.96194	22877.725
2674.59291	22873.525
2677.22224	22877.825
2679.84993	22903.525
2682.476	22900.825
2685.10043	22892.725
2687.72324	22843.825
2690.34441	22841.025
2692.96396	22854.625
2695.58188	22831.225
2698.19818	22811.025
2700.81285	22813.325
2703.4259	22775.125
2706.03733	22857.325
2708.64714	22811.325
2711.25533	22835.825
2713.86191	22818.025
2716.46687	22852.825
2719.07021	22809.525
2721.67194	22868.225
2724.27206	22800.025
2726.87057	22795.525
2729.46747	22819.425
2732.06276	22814.725
2734.65644	22781.625
2737.24852	22786.625
2739.83899	22775.825
2742.42786	22726.825
2745.01513	22677.925
2747.60079	22707.725
2750.18486	22656.325
2752.76733	22565.425
2755.3482	22561.025
2757.92747	22541.225
2760.50515	22459.125
2763.08123	22475.925
2765.65573	22476.725
2768.22863	22453.125
2770.79994	22389.825
2773.36967	22389.925
2775.9378	22340.925
2778.50435	22329.225
2781.06932	22262.125
2783.6327	22246.625
2786.1945	22206.225
2788.75471	22161.125
2791.31335	22091.625
2793.87041	22069.825
2796.42589	22046.625
2798.97979	22028.625
2801.53212	21921.825
2804.08288	21891.625
2806.63206	21828.225
2809.17967	21774.625
2811.72571	21700.125
2814.27018	21695.225
2816.81308	21714.525
2819.35442	21601.325
2821.89419	21557.425
2824.43239	21570.725
2826.96904	21513.925
2829.50412	21498.625
2832.03763	21439.525
2834.56959	21466.925
2837.1	21401.325
2839.62884	21373.925
2842.15613	21362.125
2844.68186	21394.225
2847.20604	21346.725
2849.72867	21312.725
2852.24974	21296.125
2854.76927	21264.125
2857.28724	21268.325
2859.80367	21225.525
2862.31855	21170.025
2864.83189	21158.125
2867.34368	21128.725
2869.85393	21073.325
2872.36264	21032.425
2874.8698	21006.325
2877.37543	20981.425
2879.87952	20981.125
2882.38207	20951.525
2884.88308	20917.625
2887.38256	20892.825
2889.88051	20869.325
2892.37692	20896.425
2894.8718	20877.025
2897.36515	20931.025
2899.85698	20894.625
2902.34727	20924.225
2904.83604	20935.825
2907.32328	20933.925
2909.809	20931.325
2912.29319	20924.425
2914.77587	20962.925
2917.25702	20919.725
2919.73665	20933.825
2922.21476	20925.425
2924.69136	20814.825
2927.16644	20847.625
2929.64	20805.825
2932.11205	20789.525
2934.58258	20696.225
2937.05161	20755.525
2939.51912	20751.325
2941.98513	20765.125
2944.44962	20700.625
2946.91261	20574.525
2949.37409	20644.525
2951.83407	20651.125
2954.29254	20626.425
2956.74951	20606.725
2959.20498	20592.925
2961.65895	20577.225
2964.11142	20612.125
2966.56239	20597.525
2969.01186	20652.625
2971.45984	20560.925
2973.90632	20573.125
2976.35131	20490.525
2978.7948	20500.225
2981.23681	20450.425
2983.67732	20410.625
2986.11635	20370.425
2988.55388	20335.925
2990.98993	20258.125
2993.4245	20225.125
2995.85758	20173.525
2998.28917	20103.925
3000.71928	20069.825
3003.14791	20060.325
3005.57506	20028.725
3008.00073	19926.525
3010.42493	19932.625
3012.84764	19915.525
3015.26888	19914.525
3017.68865	19819.025
3020.10694	19813.425
3022.52376	19774.525
3024.9391	19717.125
3027.35298	19716.325
3029.76539	19683.425
3032.17632	19631.625
3034.5858	19619.425
3036.9938	19615.625
3039.40034	19535.625
3041.80542	19507.225
3044.20903	19442.725
3046.61118	19490.325
3049.01187	19410.925
3051.4111	19431.425
3053.80888	19392.225
3056.20519	19371.925
3058.60005	19306.825
3060.99345	19277.025
3063.3854	19255.725
3065.7759	19179.225
3068.16494	19142.025
3070.55254	19049.125
3072.93868	19038.725
3075.32338	18987.025
3077.70662	18931.025
3080.08842	18902.225
3082.46878	18897.525
3084.84769	18855.325
3087.22515	18827.925
3089.60118	18805.925
3091.97576	18811.025
3094.3489	18769.525
3096.72061	18778.725
3099.09087	18780.625
3101.4597	18781.125
3103.82709	18769.525
3106.19305	18753.325
3108.55757	18696.025
3110.92066	18680.425
3113.28232	18650.725
3115.64255	18592.325
3118.00134	18592.425
3120.35871	18557.225
3122.71466	18540.725
3125.06917	18488.625
3127.42226	18442.525
3129.77393	18466.025
3132.12417	18381.025
3134.47299	18361.425
3136.82039	18346.725
3139.16636	18359.325
3141.51092	18355.725
3143.85406	18349.125
3146.19579	18331.125
3148.53609	18314.925
3150.87499	18317.025
3153.21246	18305.225
3155.54853	18295.025
3157.88318	18306.425
3160.21642	18340.825
3162.54826	18294.325
3164.87868	18306.625
3167.2077	18278.125
3169.5353	18287.325
3171.86151	18252.225
3174.18631	18211.225
3176.5097	18190.525
3178.83169	18194.525
3181.15228	18160.925
3183.47147	18114.225
3185.78926	18107.425
3188.10565	18035.825
3190.42065	18020.125
3192.73424	18010.625
3195.04645	18003.625
3197.35725	17981.925
3199.66667	17939.425
3201.97469	17957.225
3204.28132	17900.925
3206.58656	17945.025
3208.8904	17923.025
3211.19287	17914.425
3213.49394	17922.725
3215.79363	17907.425
3218.09193	17926.625
3220.38884	17933.225
3222.68438	17968.825
3224.97853	17930.125
3227.2713	17883.425
3229.56269	17902.825
3231.8527	17856.525
3234.14133	17832.325
3236.42858	17777.125
3238.71446	17742.625
3240.99896	17690.025
3243.28209	17684.725
3245.56384	17623.425
3247.84423	17607.725
3250.12324	17583.325
3252.40088	17568.525
3254.67715	17554.425
3256.95205	17520.225
3259.22558	17544.925
3261.49775	17518.725
3263.76855	17505.625
3266.03799	17474.225
3268.30606	17435.925
3270.57277	17421.525
3272.83812	17412.725
3275.10211	17330.425
3277.36474	17323.825
3279.62601	17293.925
3281.88593	17252.325
3284.14448	17304.325
3286.40168	17241.925
3288.65753	17226.625
3290.91202	17233.225
3293.16516	17167.425
3295.41695	17140.425
3297.66738	17042.525
3299.91647	16948.525
3302.16421	16843.925
3304.4106	16782.425
3306.65564	16681.825
3308.89933	16582.925
3311.14169	16490.725
3313.38269	16347.425
3315.62236	16293.725
3317.86068	16132.325
3320.09766	16010.425
3322.3333	15917.825
3324.5676	15838.525
3326.80056	15617.625
3329.03219	15524.925
3331.26248	6.225
3333.49143	0.525
3335.71905	-0.875
