Data from AgNPs_UA_0uM_CRN_0uM_R6G_10uM_Q_RamanShift__30__11-53-28-781.txt Node

Date: Wed Jul 13 11:53:28 BST 2022
User: TCL
Spectrometer: QEP01345
Trigger mode: 4
Integration Time (sec): 7.000000E0
Scans to average: 10
Electric dark correction enabled: true
Nonlinearity correction enabled: false
Boxcar width: 0
XAxis mode: Raman Shifts
Number of Pixels in Spectrum: 1044
>>>>>Begin Spectral Data<<<<<
46.04893	-0.275
50.45542	-0.575
54.85868	0.025
59.25871	-1.375
63.6555	43.225
68.04907	46.625
72.43941	50.925
76.82654	53.525
81.21044	58.525
85.59113	59.925
89.96862	64.725
94.34289	65.425
98.71396	63.125
103.08183	69.025
107.4465	70.925
111.80798	71.525
116.16626	71.225
120.52136	71.425
124.87327	69.325
129.222	71.825
133.56755	71.525
137.90993	80.825
142.24913	76.625
146.58517	80.725
150.91804	84.325
155.24774	93.025
159.57429	106.525
163.89768	122.825
168.21792	156.525
172.53501	203.625
176.84895	268.625
181.15975	361.125
185.46741	487.225
189.77193	660.025
194.07331	874.825
198.37157	1114.925
202.6667	1354.225
206.9587	1601.225
211.24758	1868.925
215.53334	2114.225
219.81599	2408.525
224.09553	2737.125
228.37195	3104.525
232.64527	3495.425
236.91549	3898.425
241.18261	4264.025
245.44663	4564.925
249.70755	4843.325
253.96539	5058.525
258.22014	5192.725
262.4718	5285.825
266.72039	5332.125
270.96589	5315.825
275.20832	5241.625
279.44768	5162.225
283.68397	5062.625
287.91719	5012.525
292.14735	4999.925
296.37445	5069.325
300.59849	5232.325
304.81948	5431.125
309.03742	5572.225
313.25231	5570.725
317.46415	5349.125
321.67296	5024.725
325.87872	4743.525
330.08145	4619.525
334.28114	4638.425
338.47781	4709.225
342.67145	4825.125
346.86207	5038.225
351.04966	5312.525
355.23424	5618.425
359.4158	5824.725
363.59435	5943.425
367.76989	5954.025
371.94243	5914.025
376.11196	5889.425
380.27849	5854.625
384.44203	5798.625
388.60257	5731.325
392.76012	5705.325
396.91468	5755.425
401.06626	5912.925
405.21485	5996.125
409.36047	5842.825
413.50311	5567.825
417.64277	5303.525
421.77947	5177.525
425.9132	5165.225
430.04396	5168.925
434.17176	5257.925
438.2966	5404.525
442.41849	5647.825
446.53742	5943.025
450.6534	6195.725
454.76644	6273.925
458.87653	6216.325
462.98368	6038.425
467.08789	5863.025
471.18916	5642.125
475.2875	5448.225
479.38291	5280.825
483.4754	5138.425
487.56496	5017.325
491.6516	4920.025
495.73531	4884.125
499.81612	4868.025
503.89401	4917.425
507.96899	4974.125
512.04106	5084.525
516.11023	5166.325
520.1765	5222.825
524.23987	5200.125
528.30034	5153.225
532.35792	5082.025
536.41261	4961.525
540.46441	4811.425
544.51333	4760.225
548.55936	4799.225
552.60252	4904.225
556.64279	5049.825
560.6802	5146.125
564.71473	5269.425
568.7464	5492.925
572.7752	5616.625
576.80114	5499.825
580.82422	5358.825
584.84444	5396.025
588.86181	5601.825
592.87633	5946.125
596.888	6275.125
600.89682	6473.925
604.9028	7025.825
608.90594	8631.625
612.90624	10259.225
616.90371	9111.325
620.89834	6370.925
624.89015	5267.125
628.87913	5100.625
632.86528	5125.925
636.84862	5132.725
640.82913	4961.425
644.80683	4709.525
648.78172	4576.025
652.75379	4600.925
656.72306	4812.525
660.68952	5030.525
664.65319	4915.925
668.61405	4683.125
672.57211	4615.025
676.52738	4592.125
680.47986	4539.825
684.42955	4471.725
688.37646	4445.025
692.32058	4500.725
696.26192	4575.425
700.20048	4664.825
704.13626	4694.425
708.06928	4660.025
711.99952	4581.725
715.927	4566.525
719.85171	4574.125
723.77365	4531.525
727.69284	4469.225
731.60928	4445.425
735.52295	4467.025
739.43388	4504.325
743.34206	4523.725
747.24749	4541.725
751.15017	4584.225
755.05012	4692.825
758.94733	5014.925
762.8418	5731.425
766.73354	6765.525
770.62254	7718.025
774.50882	8090.525
778.39237	7617.525
782.27321	6530.325
786.15132	5510.825
790.02671	4914.025
793.89938	4640.025
797.76935	4510.025
801.6366	4443.325
805.50115	4404.225
809.36299	4360.125
813.22213	4333.425
817.07857	4310.125
820.93231	4322.025
824.78336	4349.125
828.63172	4388.225
832.47738	4402.225
836.32036	4385.825
840.16066	4348.125
843.99827	4326.625
847.8332	4299.525
851.66546	4275.325
855.49504	4269.425
859.32195	4256.925
863.1462	4208.425
866.96777	4173.425
870.78668	4172.325
874.60293	4194.025
878.41652	4213.325
882.22745	4265.025
886.03573	4283.425
889.84136	4244.825
893.64433	4237.925
897.44466	4214.625
901.24235	4211.425
905.0374	4192.625
908.8298	4157.625
912.61957	4148.225
916.40671	4161.225
920.19121	4217.425
923.97308	4294.925
927.75233	4376.125
931.52895	4388.725
935.30295	4302.525
939.07433	4146.325
942.84309	4007.025
946.60924	3943.725
950.37278	3916.525
954.13371	3890.525
957.89203	3877.525
961.64774	3853.225
965.40086	3847.125
969.15137	3824.025
972.89929	3796.125
976.64461	3807.725
980.38733	3814.125
984.12747	3827.425
987.86502	3877.325
991.59999	3899.125
995.33237	4013.425
999.06217	4170.625
1002.78939	4380.125
1006.51404	4542.125
1010.23611	4645.925
1013.95561	4705.225
1017.67255	4661.225
1021.38692	4546.525
1025.09872	4370.425
1028.80796	4298.925
1032.51465	4331.725
1036.21877	4389.025
1039.92035	4423.225
1043.61937	4428.525
1047.31584	4381.925
1051.00976	4310.525
1054.70114	4293.625
1058.38998	4268.825
1062.07627	4265.625
1065.76003	4265.525
1069.44126	4330.125
1073.11995	4403.925
1076.79611	4515.525
1080.46974	4649.325
1084.14085	4801.125
1087.80943	4929.625
1091.47549	4940.025
1095.13903	4787.825
1098.80005	4588.025
1102.45857	4460.625
1106.11456	4430.525
1109.76805	4482.625
1113.41903	4627.925
1117.06751	4804.925
1120.71348	5058.425
1124.35696	5348.325
1127.99793	5516.625
1131.63641	5378.625
1135.2724	5073.225
1138.90589	4823.925
1142.5369	4673.125
1146.16542	4598.725
1149.79145	4590.225
1153.415	4626.225
1157.03607	4699.325
1160.65467	4835.425
1164.27079	5079.125
1167.88443	5473.625
1171.49561	6117.725
1175.10432	7069.625
1178.71056	8231.725
1182.31434	9173.425
1185.91565	9480.925
1189.51451	9295.825
1193.11091	8807.425
1196.70485	8143.025
1200.29634	7483.225
1203.88538	6846.025
1207.47197	6262.425
1211.05612	5873.125
1214.63782	5751.025
1218.21708	5811.525
1221.79391	5923.325
1225.36829	5977.225
1228.94024	5935.425
1232.50976	5830.425
1236.07685	5760.225
1239.6415	5749.525
1243.20374	5748.725
1246.76355	5716.425
1250.32093	5746.025
1253.8759	5906.525
1257.42845	6129.825
1260.97859	6401.625
1264.52631	6702.725
1268.07163	6978.525
1271.61453	7211.325
1275.15503	7379.225
1278.69312	7493.325
1282.22882	7654.025
1285.76211	7931.725
1289.29301	8340.025
1292.82151	8776.225
1296.34761	9290.525
1299.87133	9905.925
1303.39266	10774.325
1306.9116	11996.225
1310.42815	13275.925
1313.94233	13885.025
1317.45412	13499.825
1320.96354	12542.125
1324.47058	11496.925
1327.97525	10719.625
1331.47754	10279.625
1334.97747	10165.825
1338.47502	10243.725
1341.97022	10419.325
1345.46305	10705.925
1348.95352	11169.125
1352.44163	11939.825
1355.92738	13171.125
1359.41078	14721.025
1362.89183	15715.525
1366.37053	14845.725
1369.84688	12749.425
1373.32088	10785.025
1376.79254	9530.725
1380.26186	8834.425
1383.72883	8443.725
1387.19347	8149.625
1390.65578	7875.325
1394.11575	7767.525
1397.57339	7846.225
1401.0287	8018.425
1404.48168	8153.525
1407.93234	8246.325
1411.38068	8221.925
1414.82669	8033.425
1418.27039	7740.125
1421.71177	7415.825
1425.15083	7237.925
1428.58758	7235.925
1432.02203	7335.525
1435.45416	7469.825
1438.88399	7526.025
1442.31151	7546.425
1445.73673	7562.125
1449.15965	7573.925
1452.58027	7504.725
1455.9986	7438.825
1459.41463	7503.925
1462.82837	7627.325
1466.23982	7830.525
1469.64898	7997.625
1473.05586	8093.325
1476.46045	8115.025
1479.86276	8212.125
1483.26279	8266.125
1486.66054	8349.925
1490.05602	8544.425
1493.44922	8811.725
1496.84016	9161.525
1500.22882	9776.525
1503.61521	10606.425
1506.99934	11593.125
1510.38121	12428.025
1513.76081	12554.325
1517.13816	11755.925
1520.51324	10433.525
1523.88607	9270.925
1527.25665	8601.125
1530.62498	8304.025
1533.99105	8152.425
1537.35488	8005.925
1540.71647	7901.825
1544.07581	7758.725
1547.4329	7626.525
1550.78776	7494.025
1554.14038	7384.225
1557.49077	7293.125
1560.83892	7289.325
1564.18484	7392.725
1567.52853	7547.425
1570.86999	7745.825
1574.20922	7888.925
1577.54624	7805.525
1580.88103	7445.925
1584.2136	7059.425
1587.54395	7001.925
1590.87208	7374.725
1594.19801	8117.825
1597.52172	9004.225
1600.84321	9407.425
1604.16251	9102.325
1607.47959	8228.625
1610.79447	7218.125
1614.10715	6309.125
1617.41763	5665.825
1620.7259	5285.425
1624.03199	5119.725
1627.33587	5179.425
1630.63757	5408.625
1633.93707	5872.325
1637.23439	6686.425
1640.52951	7862.825
1643.82246	9216.925
1647.11321	10307.125
1650.40179	10508.925
1653.68819	9595.425
1656.97241	7953.925
1660.25446	6405.625
1663.53433	5304.025
1666.81203	4624.825
1670.08756	4222.525
1673.36092	3970.025
1676.63211	3816.425
1679.90115	3697.225
1683.16801	3608.625
1686.43272	3553.925
1689.69527	3508.025
1692.95567	3485.925
1696.2139	3457.125
1699.46999	3465.525
1702.72392	3430.825
1705.97571	3422.125
1709.22535	3396.525
1712.47284	3390.825
1715.71819	3386.625
1718.96139	3400.425
1722.20246	3384.225
1725.44139	3359.525
1728.67818	3320.625
1731.91284	3292.125
1735.14537	3258.825
1738.37576	3246.125
1741.60403	3202.825
1744.83017	3188.825
1748.05418	3178.625
1751.27607	3169.325
1754.49584	3165.725
1757.71349	3154.125
1760.92903	3163.525
1764.14244	3144.625
1767.35375	3138.625
1770.56294	3118.025
1773.77002	3128.525
1776.97499	3109.425
1780.17785	3087.825
1783.37861	3086.725
1786.57727	3057.425
1789.77382	3044.725
1792.96828	3049.825
1796.16064	3051.925
1799.3509	3026.925
1802.53907	3040.125
1805.72514	3022.525
1808.90913	3011.625
1812.09102	2996.325
1815.27083	2987.525
1818.44856	2968.025
1821.6242	2984.425
1824.79776	2957.625
1827.96924	2953.025
1831.13864	2949.025
1834.30597	2938.025
1837.47122	2926.025
1840.6344	2921.625
1843.7955	2925.325
1846.95454	2925.225
1850.11151	2921.525
1853.26642	2924.525
1856.41926	2928.525
1859.57004	2920.625
1862.71876	2920.025
1865.86542	2920.325
1869.01003	2938.325
1872.15258	2948.525
1875.29308	2926.725
1878.43152	2937.525
1881.56792	2938.925
1884.70227	2946.125
1887.83457	2961.025
1890.96482	2948.025
1894.09304	2938.825
1897.21921	2930.025
1900.34335	2943.525
1903.46544	2937.525
1906.58551	2939.125
1909.70353	2943.525
1912.81953	2950.025
1915.93349	2937.025
1919.04543	2937.725
1922.15534	2922.325
1925.26322	2907.425
1928.36908	2905.025
1931.47292	2885.325
1934.57473	2865.225
1937.67453	2860.525
1940.77232	2837.725
1943.86808	2823.425
1946.96184	2817.325
1950.05358	2804.225
1953.14331	2795.825
1956.23103	2792.125
1959.31675	2783.425
1962.40046	2761.525
1965.48217	2763.225
1968.56188	2745.825
1971.63959	2749.525
1974.7153	2739.925
1977.78901	2724.725
1980.86073	2719.825
1983.93046	2705.825
1986.99819	2696.325
1990.06394	2680.025
1993.1277	2671.625
1996.18947	2659.125
1999.24925	2655.625
2002.30706	2641.125
2005.36288	2633.925
2008.41672	2627.125
2011.46859	2619.325
2014.51848	2602.625
2017.56639	2609.625
2020.61233	2609.325
2023.6563	2583.725
2026.6983	2584.625
2029.73833	2582.725
2032.7764	2567.225
2035.8125	2573.225
2038.84664	2564.225
2041.87881	2556.825
2044.90903	2561.825
2047.93729	2543.625
2050.96359	2551.425
2053.98794	2543.125
2057.01034	2551.325
2060.03078	2532.025
2063.04927	2537.925
2066.06582	2525.425
2069.08042	2529.925
2072.09307	2524.425
2075.10378	2509.225
2078.11255	2519.925
2081.11938	2527.225
2084.12426	2512.725
2087.12722	2513.125
2090.12824	2519.025
2093.12732	2518.025
2096.12447	2513.525
2099.11969	2520.325
2102.11299	2504.625
2105.10435	2513.725
2108.09379	2515.425
2111.08131	2504.725
2114.0669	2521.825
2117.05057	2526.025
2120.03233	2513.225
2123.01216	2515.225
2125.99008	2533.125
2128.96609	2519.625
2131.94018	2518.825
2134.91236	2523.325
2137.88263	2530.325
2140.851	2525.925
2143.81746	2525.625
2146.78201	2519.125
2149.74466	2502.225
2152.7054	2517.525
2155.66425	2505.425
2158.6212	2513.325
2161.57625	2498.925
2164.52941	2501.825
2167.48067	2501.825
2170.43004	2492.525
2173.37752	2495.625
2176.32311	2491.425
2179.26681	2499.225
2182.20863	2493.725
2185.14856	2497.725
2188.08661	2496.925
2191.02278	2503.225
2193.95707	2508.125
2196.88948	2506.825
2199.82001	2501.025
2202.74867	2488.125
2205.67545	2483.725
2208.60037	2483.525
2211.52341	2481.825
2214.44458	2475.325
2217.36388	2459.825
2220.28132	2473.925
2223.1969	2456.025
2226.11061	2453.325
2229.02246	2451.525
2231.93245	2449.925
2234.84058	2447.025
2237.74686	2432.125
2240.65128	2451.525
2243.55385	2439.825
2246.45456	2432.325
2249.35343	2438.125
2252.25044	2433.325
2255.14561	2422.925
2258.03893	2432.425
2260.93041	2432.525
2263.82004	2426.925
2266.70783	2415.425
2269.59378	2397.225
2272.4779	2399.325
2275.36017	2384.425
2278.24061	2379.525
2281.11922	2383.025
2283.996	2380.925
2286.87094	2374.425
2289.74405	2368.725
2292.61534	2356.725
2295.4848	2354.125
2298.35243	2356.725
2301.21824	2364.025
2304.08223	2361.025
2306.94439	2353.825
2309.80474	2359.425
2312.66327	2364.225
2315.51999	2357.725
2318.37489	2364.225
2321.22797	2362.925
2324.07925	2356.125
2326.92871	2352.225
2329.77637	2355.925
2332.62222	2346.525
2335.46626	2338.625
2338.3085	2338.825
2341.14893	2340.925
2343.98756	2342.025
2346.8244	2339.725
2349.65943	2339.325
2352.49267	2351.225
2355.32411	2353.025
2358.15376	2355.425
2360.98161	2358.825
2363.80768	2362.625
2366.63195	2365.625
2369.45444	2361.825
2372.27514	2364.825
2375.09405	2363.125
2377.91118	2364.125
2380.72652	2353.125
2383.54009	2345.725
2386.35187	2322.625
2389.16188	2330.125
2391.97011	2330.225
2394.77657	2310.425
2397.58125	2308.725
2400.38416	2305.825
2403.18529	2289.425
2405.98466	2288.625
2408.78226	2283.025
2411.57809	2287.625
2414.37216	2281.125
2417.16446	2282.425
2419.955	2283.925
2422.74378	2279.325
2425.5308	2273.925
2428.31606	2281.025
2431.09956	2266.225
2433.88131	2278.525
2436.6613	2278.325
2439.43954	2265.325
2442.21603	2285.625
2444.99077	2279.725
2447.76377	2278.625
2450.53501	2283.625
2453.30451	2282.425
2456.07226	2286.725
2458.83827	2281.525
2461.60254	2274.025
2464.36507	2279.625
2467.12586	2284.925
2469.88492	2291.725
2472.64224	2295.725
2475.39782	2294.125
2478.15167	2311.025
2480.90379	2303.325
2483.65417	2309.325
2486.40283	2312.025
2489.14976	2304.525
2491.89497	2316.525
2494.63845	2335.325
2497.3802	2329.125
2500.12024	2328.225
2502.85855	2313.825
2505.59514	2324.725
2508.33002	2315.525
2511.06318	2312.725
2513.79462	2289.225
2516.52435	2290.325
2519.25237	2293.225
2521.97867	2279.525
2524.70327	2282.925
2527.42616	2288.625
2530.14734	2268.025
2532.86681	2263.925
2535.58458	2268.325
2538.30065	2271.925
2541.01501	2276.725
2543.72768	2262.925
2546.43864	2271.425
2549.14791	2268.325
2551.85548	2285.425
2554.56136	2269.225
2557.26554	2260.925
2559.96803	2272.425
2562.66883	2273.225
2565.36794	2263.325
2568.06536	2259.025
2570.7611	2255.125
2573.45514	2256.825
2576.14751	2264.325
2578.83819	2257.025
2581.52719	2261.825
2584.21451	2248.225
2586.90015	2253.825
2589.58411	2256.525
2592.2664	2244.325
2594.94701	2251.225
2597.62594	2257.625
2600.30321	2268.825
2602.9788	2265.325
2605.65273	2262.225
2608.32498	2251.225
2610.99557	2267.725
2613.66449	2263.425
2616.33175	2267.725
2618.99734	2262.525
2621.66128	2265.425
2624.32355	2260.425
2626.98416	2259.525
2629.64311	2265.725
2632.30041	2257.625
2634.95605	2259.525
2637.61004	2257.825
2640.26238	2254.325
2642.91306	2246.725
2645.56209	2254.025
2648.20948	2248.025
2650.85521	2242.125
2653.4993	2250.025
2656.14175	2253.125
2658.78255	2261.225
2661.42171	2262.325
2664.05923	2255.925
2666.6951	2261.625
2669.32934	2285.725
2671.96194	2269.625
2674.59291	2277.425
2677.22224	2275.525
2679.84993	2275.425
2682.476	2278.925
2685.10043	2291.525
2687.72324	2275.625
2690.34441	2272.525
2692.96396	2276.325
2695.58188	2264.225
2698.19818	2276.725
2700.81285	2276.925
2703.4259	2286.125
2706.03733	2298.225
2708.64714	2300.325
2711.25533	2299.625
2713.86191	2298.125
2716.46687	2310.425
2719.07021	2323.625
2721.67194	2327.225
2724.27206	2307.625
2726.87057	2311.425
2729.46747	2321.125
2732.06276	2314.225
2734.65644	2324.925
2737.24852	2307.725
2739.83899	2318.525
2742.42786	2321.325
2745.01513	2312.025
2747.60079	2309.425
2750.18486	2304.825
2752.76733	2303.725
2755.3482	2286.925
2757.92747	2302.225
2760.50515	2290.825
2763.08123	2288.525
2765.65573	2284.525
2768.22863	2295.425
2770.79994	2291.425
2773.36967	2300.125
2775.9378	2305.025
2778.50435	2310.925
2781.06932	2312.325
2783.6327	2317.825
2786.1945	2309.825
2788.75471	2307.125
2791.31335	2313.125
2793.87041	2324.325
2796.42589	2317.525
2798.97979	2320.325
2801.53212	2315.725
2804.08288	2316.625
2806.63206	2313.325
2809.17967	2314.525
2811.72571	2308.425
2814.27018	2314.225
2816.81308	2328.325
2819.35442	2330.025
2821.89419	2317.125
2824.43239	2322.425
2826.96904	2331.525
2829.50412	2332.925
2832.03763	2321.125
2834.56959	2331.725
2837.1	2340.025
2839.62884	2357.525
2842.15613	2372.125
2844.68186	2416.925
2847.20604	2447.725
2849.72867	2468.125
2852.24974	2478.925
2854.76927	2482.425
2857.28724	2493.025
2859.80367	2489.625
2862.31855	2476.425
2864.83189	2467.825
2867.34368	2452.625
2869.85393	2458.825
2872.36264	2454.325
2874.8698	2452.625
2877.37543	2435.825
2879.87952	2441.525
2882.38207	2429.725
2884.88308	2426.825
2887.38256	2433.825
2889.88051	2441.825
2892.37692	2428.625
2894.8718	2446.325
2897.36515	2450.725
2899.85698	2459.125
2902.34727	2453.725
2904.83604	2454.625
2907.32328	2469.625
2909.809	2464.225
2912.29319	2451.325
2914.77587	2456.125
2917.25702	2462.025
2919.73665	2452.425
2922.21476	2449.425
2924.69136	2446.025
2927.16644	2434.925
2929.64	2434.825
2932.11205	2421.525
2934.58258	2412.625
2937.05161	2400.125
2939.51912	2403.625
2941.98513	2370.925
2944.44962	2353.325
2946.91261	2331.825
2949.37409	2320.425
2951.83407	2312.225
2954.29254	2300.025
2956.74951	2281.725
2959.20498	2268.325
2961.65895	2269.825
2964.11142	2262.425
2966.56239	2259.325
2969.01186	2254.125
2971.45984	2237.425
2973.90632	2235.725
2976.35131	2231.125
2978.7948	2220.625
2981.23681	2215.125
2983.67732	2205.225
2986.11635	2195.125
2988.55388	2191.725
2990.98993	2173.125
2993.4245	2176.425
2995.85758	2158.725
2998.28917	2155.725
3000.71928	2164.125
3003.14791	2143.825
3005.57506	2150.525
3008.00073	2137.325
3010.42493	2134.725
3012.84764	2140.525
3015.26888	2142.525
3017.68865	2127.225
3020.10694	2132.325
3022.52376	2114.525
3024.9391	2119.025
3027.35298	2120.425
3029.76539	2123.425
3032.17632	2117.825
3034.5858	2115.125
3036.9938	2110.425
3039.40034	2112.425
3041.80542	2106.125
3044.20903	2098.025
3046.61118	2100.925
3049.01187	2109.225
3051.4111	2098.325
3053.80888	2100.525
3056.20519	2108.125
3058.60005	2095.025
3060.99345	2082.125
3063.3854	2087.525
3065.7759	2086.125
3068.16494	2079.325
3070.55254	2071.725
3072.93868	2067.825
3075.32338	2056.925
3077.70662	2051.725
3080.08842	2057.225
3082.46878	2046.825
3084.84769	2043.425
3087.22515	2042.425
3089.60118	2044.525
3091.97576	2038.925
3094.3489	2054.625
3096.72061	2043.325
3099.09087	2045.825
3101.4597	2054.925
3103.82709	2044.325
3106.19305	2055.125
3108.55757	2042.125
3110.92066	2046.325
3113.28232	2033.725
3115.64255	2037.025
3118.00134	2045.825
3120.35871	2036.425
3122.71466	2037.425
3125.06917	2041.725
3127.42226	2039.725
3129.77393	2043.225
3132.12417	2041.325
3134.47299	2044.025
3136.82039	2048.825
3139.16636	2055.925
3141.51092	2052.625
3143.85406	2067.325
3146.19579	2061.825
3148.53609	2059.125
3150.87499	2079.225
3153.21246	2076.725
3155.54853	2081.425
3157.88318	2086.325
3160.21642	2088.725
3162.54826	2091.225
3164.87868	2101.625
3167.2077	2113.325
3169.5353	2105.325
3171.86151	2111.725
3174.18631	2117.025
3176.5097	2119.525
3178.83169	2119.025
3181.15228	2119.625
3183.47147	2125.025
3185.78926	2129.225
3188.10565	2131.925
3190.42065	2129.525
3192.73424	2139.025
3195.04645	2133.525
3197.35725	2140.425
3199.66667	2147.025
3201.97469	2138.025
3204.28132	2133.725
3206.58656	2139.025
3208.8904	2147.825
3211.19287	2153.325
3213.49394	2166.725
3215.79363	2174.225
3218.09193	2164.725
3220.38884	2159.525
3222.68438	2178.925
3224.97853	2167.325
3227.2713	2182.325
3229.56269	2169.325
3231.8527	2172.625
3234.14133	2170.025
3236.42858	2168.725
3238.71446	2173.225
3240.99896	2161.625
3243.28209	2158.025
3245.56384	2159.425
3247.84423	2160.425
3250.12324	2158.325
3252.40088	2143.825
3254.67715	2146.025
3256.95205	2152.025
3259.22558	2154.025
3261.49775	2152.525
3263.76855	2149.925
3266.03799	2150.625
3268.30606	2164.225
3270.57277	2155.025
3272.83812	2130.525
3275.10211	2133.525
3277.36474	2135.825
3279.62601	2133.025
3281.88593	2125.025
3284.14448	2125.625
3286.40168	2136.025
3288.65753	2126.125
3290.91202	2137.525
3293.16516	2121.725
3295.41695	2132.225
3297.66738	2119.825
3299.91647	2102.025
3302.16421	2100.125
3304.4106	2083.625
3306.65564	2076.525
3308.89933	2054.925
3311.14169	2052.025
3313.38269	2031.825
3315.62236	2026.725
3317.86068	1996.425
3320.09766	1998.925
3322.3333	1966.825
3324.5676	1962.725
3326.80056	1937.225
3329.03219	1926.625
3331.26248	0.225
3333.49143	0.225
3335.71905	2.925
