Data from AgNPs_UA_1uM_CRN_0uM_R6G_10uM_Q_RamanShift__29__12-44-35-899.txt Node

Date: Wed Jul 13 12:44:35 BST 2022
User: TCL
Spectrometer: QEP01345
Trigger mode: 4
Integration Time (sec): 7.000000E0
Scans to average: 10
Electric dark correction enabled: true
Nonlinearity correction enabled: false
Boxcar width: 0
XAxis mode: Raman Shifts
Number of Pixels in Spectrum: 1044
>>>>>Begin Spectral Data<<<<<
46.04893	-1.7625
50.45542	-0.9625
54.85868	-0.8625
59.25871	-0.5625
63.6555	69.5375
68.04907	75.1375
72.43941	79.8375
76.82654	82.1375
81.21044	90.9375
85.59113	85.9375
89.96862	95.5375
94.34289	95.2375
98.71396	98.2375
103.08183	99.1375
107.4465	107.7375
111.80798	101.6375
116.16626	108.3375
120.52136	112.2375
124.87327	110.9375
129.222	118.9375
133.56755	128.4375
137.90993	134.6375
142.24913	140.4375
146.58517	158.9375
150.91804	174.0375
155.24774	206.2375
159.57429	254.4375
163.89768	313.0375
168.21792	408.8375
172.53501	548.9375
176.84895	752.9375
181.15975	1035.7375
185.46741	1455.4375
189.77193	2008.2375
194.07331	2663.4375
198.37157	3413.0375
202.6667	4201.7375
206.9587	4961.5375
211.24758	5732.6375
215.53334	6536.3375
219.81599	7420.2375
224.09553	8397.1375
228.37195	9497.0375
232.64527	10641.0375
236.91549	11798.4375
241.18261	12974.1375
245.44663	13966.2375
249.70755	14840.9375
253.96539	15619.9375
258.22014	16242.4375
262.4718	16824.3375
266.72039	17169.8375
270.96589	17339.1375
275.20832	17362.6375
279.44768	17218.9375
283.68397	17101.3375
287.91719	16998.8375
292.14735	17019.3375
296.37445	17123.9375
300.59849	17395.7375
304.81948	17688.8375
309.03742	17843.5375
313.25231	17726.8375
317.46415	17217.4375
321.67296	16500.7375
325.87872	15989.7375
330.08145	15801.3375
334.28114	15893.4375
338.47781	16142.1375
342.67145	16474.4375
346.86207	16923.6375
351.04966	17564.7375
355.23424	18204.2375
359.4158	18772.0375
363.59435	19058.4375
367.76989	19181.0375
371.94243	19229.8375
376.11196	19279.0375
380.27849	19296.8375
384.44203	19286.3375
388.60257	19300.3375
392.76012	19363.7375
396.91468	19651.8375
401.06626	20087.5375
405.21485	20412.1375
409.36047	20264.9375
413.50311	19949.8375
417.64277	19803.2375
421.77947	19758.9375
425.9132	19560.5375
430.04396	19667.6375
434.17176	19882.7375
438.2966	20325.8375
442.41849	21028.1375
446.53742	21893.1375
450.6534	22741.1375
454.76644	23261.7375
458.87653	23272.1375
462.98368	22887.4375
467.08789	22232.9375
471.18916	21592.5375
475.2875	21071.9375
479.38291	20753.3375
483.4754	20465.4375
487.56496	20164.5375
491.6516	19830.7375
495.73531	19566.2375
499.81612	19473.1375
503.89401	19592.6375
507.96899	19693.0375
512.04106	19766.1375
516.11023	19802.3375
520.1765	19857.8375
524.23987	19776.5375
528.30034	19701.0375
532.35792	19465.0375
536.41261	19153.7375
540.46441	18852.3375
544.51333	18769.4375
548.55936	19000.2375
552.60252	19474.0375
556.64279	19952.0375
560.6802	20236.8375
564.71473	20606.1375
568.7464	21224.5375
572.7752	21733.1375
576.80114	21750.8375
580.82422	21803.9375
584.84444	22094.2375
588.86181	22805.6375
592.87633	23707.4375
596.888	24245.7375
600.89682	24517.9375
604.9028	25818.2375
608.90594	29299.0375
612.90624	32303.2375
616.90371	29233.6375
620.89834	23529.7375
624.89015	21667.3375
628.87913	21516.6375
632.86528	21245.5375
636.84862	20696.8375
640.82913	20050.3375
644.80683	19352.1375
648.78172	19020.8375
652.75379	19102.8375
656.72306	19602.9375
660.68952	20115.5375
664.65319	19930.8375
668.61405	19500.2375
672.57211	19272.3375
676.52738	19212.2375
680.47986	19131.4375
684.42955	19070.0375
688.37646	19174.5375
692.32058	19276.6375
696.26192	19465.9375
700.20048	19703.7375
704.13626	19827.2375
708.06928	19726.6375
711.99952	19593.4375
715.927	19520.1375
719.85171	19509.6375
723.77365	19394.5375
727.69284	19186.1375
731.60928	19136.0375
735.52295	19217.3375
739.43388	19366.4375
743.34206	19539.3375
747.24749	19715.8375
751.15017	19988.9375
755.05012	20430.2375
758.94733	21280.9375
762.8418	22869.4375
766.73354	25186.6375
770.62254	27175.4375
774.50882	27432.5375
778.39237	25949.8375
782.27321	23525.4375
786.15132	21538.7375
790.02671	20423.0375
793.89938	19965.4375
797.76935	19825.5375
801.6366	19689.0375
805.50115	19613.9375
809.36299	19473.4375
813.22213	19382.1375
817.07857	19320.8375
820.93231	19365.2375
824.78336	19452.6375
828.63172	19538.6375
832.47738	19626.1375
836.32036	19697.5375
840.16066	19847.1375
843.99827	19919.2375
847.8332	19769.0375
851.66546	19595.7375
855.49504	19563.9375
859.32195	19514.1375
863.1462	19347.5375
866.96777	19240.3375
870.78668	19163.8375
874.60293	19228.0375
878.41652	19317.1375
882.22745	19403.5375
886.03573	19486.5375
889.84136	19407.0375
893.64433	19335.6375
897.44466	19303.5375
901.24235	19288.8375
905.0374	19247.7375
908.8298	19188.8375
912.61957	19270.0375
916.40671	19479.2375
920.19121	19849.9375
923.97308	20249.9375
927.75233	20502.1375
931.52895	20554.5375
935.30295	20214.0375
939.07433	19612.9375
942.84309	19277.8375
946.60924	19191.9375
950.37278	19065.2375
954.13371	18910.7375
957.89203	18742.1375
961.64774	18662.4375
965.40086	18623.3375
969.15137	18561.7375
972.89929	18503.5375
976.64461	18499.1375
980.38733	18541.2375
984.12747	18716.3375
987.86502	18943.7375
991.59999	19310.6375
995.33237	20004.9375
999.06217	21164.9375
1002.78939	22337.8375
1006.51404	22853.2375
1010.23611	23002.8375
1013.95561	23160.4375
1017.67255	23182.4375
1021.38692	22821.0375
1025.09872	22660.6375
1028.80796	23309.2375
1032.51465	24567.5375
1036.21877	25490.0375
1039.92035	25261.0375
1043.61937	24477.0375
1047.31584	23257.2375
1051.00976	22159.5375
1054.70114	21575.0375
1058.38998	21427.2375
1062.07627	21400.3375
1065.76003	21296.3375
1069.44126	21320.3375
1073.11995	21504.7375
1076.79611	21730.0375
1080.46974	21970.5375
1084.14085	22271.4375
1087.80943	22617.4375
1091.47549	22597.6375
1095.13903	22222.7375
1098.80005	21699.4375
1102.45857	21284.8375
1106.11456	21113.5375
1109.76805	21262.5375
1113.41903	21521.8375
1117.06751	21897.3375
1120.71348	22346.6375
1124.35696	22799.8375
1127.99793	23131.1375
1131.63641	22991.6375
1135.2724	22553.7375
1138.90589	22179.5375
1142.5369	21950.0375
1146.16542	21874.3375
1149.79145	21909.4375
1153.415	22115.6375
1157.03607	22387.9375
1160.65467	22835.3375
1164.27079	23669.0375
1167.88443	24936.1375
1171.49561	26972.1375
1175.10432	29909.3375
1178.71056	33499.4375
1182.31434	36454.1375
1185.91565	37773.5375
1189.51451	37123.2375
1193.11091	35107.2375
1196.70485	32744.8375
1200.29634	30785.1375
1203.88538	29273.1375
1207.47197	27993.1375
1211.05612	27244.2375
1214.63782	27025.6375
1218.21708	27398.2375
1221.79391	27935.9375
1225.36829	28268.2375
1228.94024	27905.9375
1232.50976	27148.7375
1236.07685	26500.5375
1239.6415	26291.8375
1243.20374	26192.7375
1246.76355	26341.5375
1250.32093	26792.7375
1253.8759	27532.1375
1257.42845	28524.7375
1260.97859	29391.5375
1264.52631	30102.5375
1268.07163	30840.7375
1271.61453	31772.8375
1275.15503	32883.7375
1278.69312	34144.0375
1282.22882	35218.3375
1285.76211	36074.7375
1289.29301	36859.9375
1292.82151	37816.0375
1296.34761	39243.5375
1299.87133	41399.6375
1303.39266	44495.3375
1306.9116	48775.6375
1310.42815	53502.5375
1313.94233	56230.6375
1317.45412	55629.4375
1320.96354	52846.0375
1324.47058	49752.7375
1327.97525	47291.0375
1331.47754	45795.6375
1334.97747	45322.4375
1338.47502	45612.3375
1341.97022	46088.4375
1345.46305	46267.9375
1348.95352	46195.2375
1352.44163	46533.3375
1355.92738	48291.4375
1359.41078	51820.3375
1362.89183	54678.0375
1366.37053	52750.2375
1369.84688	46981.9375
1373.32088	41194.6375
1376.79254	37519.2375
1380.26186	35765.7375
1383.72883	35138.2375
1387.19347	34740.7375
1390.65578	34359.3375
1394.11575	34545.2375
1397.57339	35319.1375
1401.0287	36448.9375
1404.48168	37458.7375
1407.93234	38144.9375
1411.38068	38290.4375
1414.82669	37622.1375
1418.27039	36255.1375
1421.71177	34540.0375
1425.15083	33190.6375
1428.58758	32630.6375
1432.02203	32823.8375
1435.45416	33301.6375
1438.88399	33772.0375
1442.31151	34171.6375
1445.73673	34495.3375
1449.15965	34704.8375
1452.58027	34734.0375
1455.9986	34548.1375
1459.41463	34525.7375
1462.82837	34968.9375
1466.23982	35612.9375
1469.64898	36236.4375
1473.05586	36627.7375
1476.46045	36806.3375
1479.86276	36970.5375
1483.26279	37157.9375
1486.66054	37423.7375
1490.05602	37819.1375
1493.44922	38361.4375
1496.84016	38825.6375
1500.22882	39495.8375
1503.61521	40715.4375
1506.99934	42398.8375
1510.38121	44126.3375
1513.76081	44902.9375
1517.13816	43856.3375
1520.51324	41436.2375
1523.88607	39139.5375
1527.25665	37545.9375
1530.62498	36665.4375
1533.99105	36274.5375
1537.35488	36022.1375
1540.71647	35826.8375
1544.07581	35507.3375
1547.4329	35050.0375
1550.78776	34401.9375
1554.14038	33799.6375
1557.49077	33431.0375
1560.83892	33304.2375
1564.18484	33204.8375
1567.52853	33143.4375
1570.86999	33088.4375
1574.20922	33211.5375
1577.54624	33178.8375
1580.88103	32779.8375
1584.2136	32575.3375
1587.54395	33566.6375
1590.87208	35881.2375
1594.19801	39554.7375
1597.52172	43441.1375
1600.84321	45247.1375
1604.16251	43532.8375
1607.47959	39479.5375
1610.79447	35006.1375
1614.10715	31240.0375
1617.41763	28552.9375
1620.7259	26963.0375
1624.03199	26278.9375
1627.33587	26505.6375
1630.63757	27528.2375
1633.93707	29424.6375
1637.23439	32078.7375
1640.52951	35443.9375
1643.82246	38904.9375
1647.11321	41429.3375
1650.40179	41645.1375
1653.68819	38707.3375
1656.97241	33723.5375
1660.25446	28986.0375
1663.53433	25578.2375
1666.81203	23442.9375
1670.08756	22193.4375
1673.36092	21349.9375
1676.63211	20791.2375
1679.90115	20439.3375
1683.16801	20165.4375
1686.43272	19988.1375
1689.69527	19828.6375
1692.95567	19690.5375
1696.2139	19647.6375
1699.46999	19624.5375
1702.72392	19547.6375
1705.97571	19551.2375
1709.22535	19542.7375
1712.47284	19560.7375
1715.71819	19544.7375
1718.96139	19511.6375
1722.20246	19441.3375
1725.44139	19383.8375
1728.67818	19320.9375
1731.91284	19243.4375
1735.14537	19073.0375
1738.37576	19032.4375
1741.60403	18958.4375
1744.83017	18936.5375
1748.05418	18893.0375
1751.27607	18861.5375
1754.49584	18827.9375
1757.71349	18845.7375
1760.92903	18858.2375
1764.14244	18807.2375
1767.35375	18825.7375
1770.56294	18769.7375
1773.77002	18762.3375
1776.97499	18785.7375
1780.17785	18767.2375
1783.37861	18736.2375
1786.57727	18723.5375
1789.77382	18713.0375
1792.96828	18708.6375
1796.16064	18681.6375
1799.3509	18687.6375
1802.53907	18674.5375
1805.72514	18644.9375
1808.90913	18596.9375
1812.09102	18541.0375
1815.27083	18509.0375
1818.44856	18461.5375
1821.6242	18449.9375
1824.79776	18423.1375
1827.96924	18409.3375
1831.13864	18420.7375
1834.30597	18420.6375
1837.47122	18378.7375
1840.6344	18371.7375
1843.7955	18383.2375
1846.95454	18419.1375
1850.11151	18408.8375
1853.26642	18404.4375
1856.41926	18388.3375
1859.57004	18422.1375
1862.71876	18436.9375
1865.86542	18488.5375
1869.01003	18482.9375
1872.15258	18444.6375
1875.29308	18496.8375
1878.43152	18487.7375
1881.56792	18483.2375
1884.70227	18514.3375
1887.83457	18528.5375
1890.96482	18540.4375
1894.09304	18511.1375
1897.21921	18512.7375
1900.34335	18507.3375
1903.46544	18468.8375
1906.58551	18510.1375
1909.70353	18498.4375
1912.81953	18482.0375
1915.93349	18490.9375
1919.04543	18464.5375
1922.15534	18490.9375
1925.26322	18429.0375
1928.36908	18392.0375
1931.47292	18380.3375
1934.57473	18284.3375
1937.67453	18269.0375
1940.77232	18227.2375
1943.86808	18157.7375
1946.96184	18120.0375
1950.05358	18029.5375
1953.14331	17959.7375
1956.23103	17932.4375
1959.31675	17879.8375
1962.40046	17824.4375
1965.48217	17769.0375
1968.56188	17721.8375
1971.63959	17691.6375
1974.7153	17631.1375
1977.78901	17592.0375
1980.86073	17556.8375
1983.93046	17494.9375
1986.99819	17411.3375
1990.06394	17356.3375
1993.1277	17309.6375
1996.18947	17248.6375
1999.24925	17254.1375
2002.30706	17205.9375
2005.36288	17127.3375
2008.41672	17131.5375
2011.46859	17032.8375
2014.51848	16999.5375
2017.56639	16981.0375
2020.61233	16949.7375
2023.6563	16913.6375
2026.6983	16876.5375
2029.73833	16847.9375
2032.7764	16833.9375
2035.8125	16846.3375
2038.84664	16822.4375
2041.87881	16767.4375
2044.90903	16783.9375
2047.93729	16774.3375
2050.96359	16728.1375
2053.98794	16728.5375
2057.01034	16708.1375
2060.03078	16694.1375
2063.04927	16684.4375
2066.06582	16687.4375
2069.08042	16655.5375
2072.09307	16624.9375
2075.10378	16568.7375
2078.11255	16563.0375
2081.11938	16606.9375
2084.12426	16542.9375
2087.12722	16541.5375
2090.12824	16524.1375
2093.12732	16493.6375
2096.12447	16493.4375
2099.11969	16508.6375
2102.11299	16516.1375
2105.10435	16517.6375
2108.09379	16530.7375
2111.08131	16554.2375
2114.0669	16544.9375
2117.05057	16571.7375
2120.03233	16569.9375
2123.01216	16613.7375
2125.99008	16590.9375
2128.96609	16605.3375
2131.94018	16614.8375
2134.91236	16647.5375
2137.88263	16641.2375
2140.851	16657.2375
2143.81746	16683.6375
2146.78201	16663.0375
2149.74466	16676.0375
2152.7054	16713.0375
2155.66425	16697.2375
2158.6212	16681.5375
2161.57625	16673.4375
2164.52941	16693.2375
2167.48067	16664.3375
2170.43004	16700.3375
2173.37752	16650.0375
2176.32311	16723.4375
2179.26681	16728.0375
2182.20863	16737.0375
2185.14856	16744.8375
2188.08661	16754.4375
2191.02278	16765.9375
2193.95707	16754.0375
2196.88948	16755.4375
2199.82001	16743.7375
2202.74867	16783.3375
2205.67545	16792.0375
2208.60037	16766.5375
2211.52341	16759.5375
2214.44458	16776.2375
2217.36388	16755.2375
2220.28132	16731.0375
2223.1969	16696.6375
2226.11061	16713.7375
2229.02246	16677.7375
2231.93245	16620.1375
2234.84058	16624.0375
2237.74686	16565.6375
2240.65128	16523.0375
2243.55385	16523.9375
2246.45456	16516.9375
2249.35343	16474.9375
2252.25044	16462.2375
2255.14561	16423.1375
2258.03893	16423.7375
2260.93041	16385.2375
2263.82004	16348.2375
2266.70783	16321.7375
2269.59378	16262.2375
2272.4779	16260.2375
2275.36017	16184.5375
2278.24061	16157.1375
2281.11922	16125.4375
2283.996	16103.0375
2286.87094	16107.4375
2289.74405	16096.2375
2292.61534	16058.7375
2295.4848	16078.9375
2298.35243	16092.5375
2301.21824	16077.4375
2304.08223	16149.6375
2306.94439	16118.6375
2309.80474	16170.2375
2312.66327	16224.1375
2315.51999	16223.6375
2318.37489	16218.2375
2321.22797	16197.9375
2324.07925	16194.0375
2326.92871	16220.3375
2329.77637	16180.9375
2332.62222	16164.7375
2335.46626	16207.5375
2338.3085	16185.0375
2341.14893	16208.3375
2343.98756	16241.5375
2346.8244	16273.7375
2349.65943	16279.4375
2352.49267	16277.2375
2355.32411	16328.8375
2358.15376	16286.1375
2360.98161	16260.4375
2363.80768	16220.3375
2366.63195	16215.3375
2369.45444	16165.2375
2372.27514	16119.1375
2375.09405	16073.7375
2377.91118	16022.6375
2380.72652	15970.2375
2383.54009	15952.5375
2386.35187	15905.5375
2389.16188	15904.1375
2391.97011	15862.3375
2394.77657	15840.9375
2397.58125	15834.4375
2400.38416	15802.9375
2403.18529	15782.3375
2405.98466	15731.7375
2408.78226	15692.8375
2411.57809	15703.3375
2414.37216	15636.5375
2417.16446	15614.4375
2419.955	15550.9375
2422.74378	15533.4375
2425.5308	15533.3375
2428.31606	15535.4375
2431.09956	15553.8375
2433.88131	15523.0375
2436.6613	15542.8375
2439.43954	15533.0375
2442.21603	15533.4375
2444.99077	15539.1375
2447.76377	15544.6375
2450.53501	15512.4375
2453.30451	15516.7375
2456.07226	15496.2375
2458.83827	15448.6375
2461.60254	15487.9375
2464.36507	15462.9375
2467.12586	15500.7375
2469.88492	15489.6375
2472.64224	15474.6375
2475.39782	15517.8375
2478.15167	15524.1375
2480.90379	15554.7375
2483.65417	15573.1375
2486.40283	15617.5375
2489.14976	15621.7375
2491.89497	15608.5375
2494.63845	15649.7375
2497.3802	15638.7375
2500.12024	15645.0375
2502.85855	15662.8375
2505.59514	15640.9375
2508.33002	15629.1375
2511.06318	15587.2375
2513.79462	15544.7375
2516.52435	15505.3375
2519.25237	15510.1375
2521.97867	15490.0375
2524.70327	15522.1375
2527.42616	15481.0375
2530.14734	15519.7375
2532.86681	15494.6375
2535.58458	15515.3375
2538.30065	15555.8375
2541.01501	15535.4375
2543.72768	15485.6375
2546.43864	15505.9375
2549.14791	15495.0375
2551.85548	15498.8375
2554.56136	15446.1375
2557.26554	15433.9375
2559.96803	15421.3375
2562.66883	15394.4375
2565.36794	15386.4375
2568.06536	15360.2375
2570.7611	15362.1375
2573.45514	15397.6375
2576.14751	15402.6375
2578.83819	15415.3375
2581.52719	15418.8375
2584.21451	15419.7375
2586.90015	15429.0375
2589.58411	15435.6375
2592.2664	15426.2375
2594.94701	15386.8375
2597.62594	15404.2375
2600.30321	15389.7375
2602.9788	15391.2375
2605.65273	15390.6375
2608.32498	15392.7375
2610.99557	15377.1375
2613.66449	15416.1375
2616.33175	15441.0375
2618.99734	15464.8375
2621.66128	15479.0375
2624.32355	15497.0375
2626.98416	15528.4375
2629.64311	15511.8375
2632.30041	15561.1375
2634.95605	15540.4375
2637.61004	15502.4375
2640.26238	15464.2375
2642.91306	15395.5375
2645.56209	15358.8375
2648.20948	15345.4375
2650.85521	15288.4375
2653.4993	15342.5375
2656.14175	15324.0375
2658.78255	15341.8375
2661.42171	15326.5375
2664.05923	15359.3375
2666.6951	15383.8375
2669.32934	15396.8375
2671.96194	15359.9375
2674.59291	15394.1375
2677.22224	15393.6375
2679.84993	15451.7375
2682.476	15404.5375
2685.10043	15396.2375
2687.72324	15356.0375
2690.34441	15320.6375
2692.96396	15343.8375
2695.58188	15317.3375
2698.19818	15292.7375
2700.81285	15307.8375
2703.4259	15287.4375
2706.03733	15308.0375
2708.64714	15313.0375
2711.25533	15339.6375
2713.86191	15309.5375
2716.46687	15350.0375
2719.07021	15331.9375
2721.67194	15352.5375
2724.27206	15344.0375
2726.87057	15390.4375
2729.46747	15368.8375
2732.06276	15412.2375
2734.65644	15386.6375
2737.24852	15407.4375
2739.83899	15395.0375
2742.42786	15391.1375
2745.01513	15367.3375
2747.60079	15366.0375
2750.18486	15357.7375
2752.76733	15303.8375
2755.3482	15332.5375
2757.92747	15350.6375
2760.50515	15348.9375
2763.08123	15342.5375
2765.65573	15299.1375
2768.22863	15332.1375
2770.79994	15331.1375
2773.36967	15363.7375
2775.9378	15328.5375
2778.50435	15357.9375
2781.06932	15352.5375
2783.6327	15334.3375
2786.1945	15328.3375
2788.75471	15320.0375
2791.31335	15273.6375
2793.87041	15301.8375
2796.42589	15288.8375
2798.97979	15272.7375
2801.53212	15215.8375
2804.08288	15193.0375
2806.63206	15135.4375
2809.17967	15108.7375
2811.72571	15081.8375
2814.27018	15103.7375
2816.81308	15103.7375
2819.35442	15074.5375
2821.89419	15080.6375
2824.43239	15073.5375
2826.96904	15053.8375
2829.50412	15075.7375
2832.03763	15049.5375
2834.56959	15074.6375
2837.1	15026.7375
2839.62884	15034.4375
2842.15613	15049.1375
2844.68186	15083.9375
2847.20604	15054.0375
2849.72867	15061.9375
2852.24974	15019.8375
2854.76927	15013.3375
2857.28724	15036.0375
2859.80367	15014.1375
2862.31855	15013.4375
2864.83189	14999.2375
2867.34368	14967.5375
2869.85393	14964.3375
2872.36264	14930.4375
2874.8698	14926.7375
2877.37543	14909.3375
2879.87952	14914.4375
2882.38207	14902.3375
2884.88308	14891.2375
2887.38256	14903.2375
2889.88051	14901.4375
2892.37692	14908.1375
2894.8718	14964.9375
2897.36515	14961.9375
2899.85698	14964.2375
2902.34727	14995.1375
2904.83604	15002.9375
2907.32328	15054.3375
2909.809	15078.4375
2912.29319	15083.6375
2914.77587	15068.8375
2917.25702	15058.4375
2919.73665	15062.1375
2922.21476	15047.4375
2924.69136	14978.9375
2927.16644	14935.1375
2929.64	14957.0375
2932.11205	14932.7375
2934.58258	14886.0375
2937.05161	14889.7375
2939.51912	14904.1375
2941.98513	14898.9375
2944.44962	14883.9375
2946.91261	14809.5375
2949.37409	14833.4375
2951.83407	14815.4375
2954.29254	14870.8375
2956.74951	14809.7375
2959.20498	14824.2375
2961.65895	14783.2375
2964.11142	14785.9375
2966.56239	14768.5375
2969.01186	14795.1375
2971.45984	14757.2375
2973.90632	14718.4375
2976.35131	14650.3375
2978.7948	14618.2375
2981.23681	14591.8375
2983.67732	14573.1375
2986.11635	14529.5375
2988.55388	14459.3375
2990.98993	14450.4375
2993.4245	14428.7375
2995.85758	14399.9375
2998.28917	14384.8375
3000.71928	14314.2375
3003.14791	14321.5375
3005.57506	14304.2375
3008.00073	14257.3375
3010.42493	14254.9375
3012.84764	14202.9375
3015.26888	14202.6375
3017.68865	14152.6375
3020.10694	14135.0375
3022.52376	14100.4375
3024.9391	14098.7375
3027.35298	14047.1375
3029.76539	14035.6375
3032.17632	14063.1375
3034.5858	14027.6375
3036.9938	14023.8375
3039.40034	14053.3375
3041.80542	14006.8375
3044.20903	14005.5375
3046.61118	13982.5375
3049.01187	13946.1375
3051.4111	13970.0375
3053.80888	13940.4375
3056.20519	13915.6375
3058.60005	13854.9375
3060.99345	13824.1375
3063.3854	13780.2375
3065.7759	13726.0375
3068.16494	13687.3375
3070.55254	13647.2375
3072.93868	13617.9375
3075.32338	13577.7375
3077.70662	13541.3375
3080.08842	13524.6375
3082.46878	13498.8375
3084.84769	13477.3375
3087.22515	13472.2375
3089.60118	13465.4375
3091.97576	13465.0375
3094.3489	13462.8375
3096.72061	13442.2375
3099.09087	13458.8375
3101.4597	13447.8375
3103.82709	13442.9375
3106.19305	13432.4375
3108.55757	13440.6375
3110.92066	13382.9375
3113.28232	13376.8375
3115.64255	13340.6375
3118.00134	13356.1375
3120.35871	13333.8375
3122.71466	13296.3375
3125.06917	13283.8375
3127.42226	13257.7375
3129.77393	13276.4375
3132.12417	13226.9375
3134.47299	13200.6375
3136.82039	13191.0375
3139.16636	13201.1375
3141.51092	13225.6375
3143.85406	13182.9375
3146.19579	13188.7375
3148.53609	13192.5375
3150.87499	13191.6375
3153.21246	13182.0375
3155.54853	13196.2375
3157.88318	13161.0375
3160.21642	13183.4375
3162.54826	13185.1375
3164.87868	13210.4375
3167.2077	13171.0375
3169.5353	13193.0375
3171.86151	13178.4375
3174.18631	13177.2375
3176.5097	13189.1375
3178.83169	13179.7375
3181.15228	13160.3375
3183.47147	13142.4375
3185.78926	13132.5375
3188.10565	13105.7375
3190.42065	13127.2375
3192.73424	13132.5375
3195.04645	13125.7375
3197.35725	13111.6375
3199.66667	13099.1375
3201.97469	13110.3375
3204.28132	13114.0375
3206.58656	13141.2375
3208.8904	13102.2375
3211.19287	13100.3375
3213.49394	13119.2375
3215.79363	13091.4375
3218.09193	13120.7375
3220.38884	13115.9375
3222.68438	13206.5375
3224.97853	13155.2375
3227.2713	13116.2375
3229.56269	13141.6375
3231.8527	13151.7375
3234.14133	13136.7375
3236.42858	13103.1375
3238.71446	13093.6375
3240.99896	13023.5375
3243.28209	13039.6375
3245.56384	13036.9375
3247.84423	13028.5375
3250.12324	13020.1375
3252.40088	13004.1375
3254.67715	12991.6375
3256.95205	12996.1375
3259.22558	12992.8375
3261.49775	12946.6375
3263.76855	12968.6375
3266.03799	12956.2375
3268.30606	12956.5375
3270.57277	12935.0375
3272.83812	12941.2375
3275.10211	12891.3375
3277.36474	12847.6375
3279.62601	12877.2375
3281.88593	12843.5375
3284.14448	12877.3375
3286.40168	12867.1375
3288.65753	12836.6375
3290.91202	12855.9375
3293.16516	12847.8375
3295.41695	12793.9375
3297.66738	12741.0375
3299.91647	12672.7375
3302.16421	12599.4375
3304.4106	12590.2375
3306.65564	12512.5375
3308.89933	12433.1375
3311.14169	12354.2375
3313.38269	12260.5375
3315.62236	12200.6375
3317.86068	12112.0375
3320.09766	12045.9375
3322.3333	11951.0375
3324.5676	11908.8375
3326.80056	11762.3375
3329.03219	11688.7375
3331.26248	4.2375
3333.49143	0.7375
3335.71905	-0.3625
