Data from AgNPs_UA_2uM_CRN_0uM_R6G_10uM_Q_RamanShift__29__13-34-51-931.txt Node

Date: Wed Jul 13 13:34:51 BST 2022
User: TCL
Spectrometer: QEP01345
Trigger mode: 4
Integration Time (sec): 7.000000E0
Scans to average: 10
Electric dark correction enabled: true
Nonlinearity correction enabled: false
Boxcar width: 0
XAxis mode: Raman Shifts
Number of Pixels in Spectrum: 1044
>>>>>Begin Spectral Data<<<<<
46.04893	-1.1125
50.45542	-1.1125
54.85868	-0.7125
59.25871	-1.1125
63.6555	76.5875
68.04907	80.9875
72.43941	84.7875
76.82654	88.7875
81.21044	93.3875
85.59113	95.5875
89.96862	105.3875
94.34289	101.9875
98.71396	104.7875
103.08183	106.9875
107.4465	113.1875
111.80798	114.3875
116.16626	114.9875
120.52136	119.9875
124.87327	121.0875
129.222	127.7875
133.56755	131.7875
137.90993	141.5875
142.24913	150.3875
146.58517	161.9875
150.91804	182.0875
155.24774	217.2875
159.57429	259.2875
163.89768	321.3875
168.21792	418.5875
172.53501	556.5875
176.84895	764.9875
181.15975	1062.1875
185.46741	1472.4875
189.77193	2023.9875
194.07331	2684.7875
198.37157	3431.9875
202.6667	4215.0875
206.9587	5000.9875
211.24758	5764.9875
215.53334	6571.4875
219.81599	7426.0875
224.09553	8405.9875
228.37195	9456.6875
232.64527	10628.4875
236.91549	11821.4875
241.18261	13020.5875
245.44663	14015.8875
249.70755	14921.6875
253.96539	15732.1875
258.22014	16437.6875
262.4718	17029.3875
266.72039	17400.4875
270.96589	17625.6875
275.20832	17671.3875
279.44768	17625.8875
283.68397	17506.0875
287.91719	17440.7875
292.14735	17477.2875
296.37445	17533.0875
300.59849	17727.8875
304.81948	17927.8875
309.03742	18010.4875
313.25231	17846.8875
317.46415	17334.5875
321.67296	16730.2875
325.87872	16252.3875
330.08145	16118.0875
334.28114	16216.2875
338.47781	16408.2875
342.67145	16745.3875
346.86207	17181.4875
351.04966	17749.7875
355.23424	18332.9875
359.4158	18819.6875
363.59435	19039.3875
367.76989	19186.6875
371.94243	19209.6875
376.11196	19295.2875
380.27849	19323.9875
384.44203	19317.1875
388.60257	19386.1875
392.76012	19499.0875
396.91468	19800.0875
401.06626	20247.2875
405.21485	20552.5875
409.36047	20458.4875
413.50311	20109.7875
417.64277	19831.0875
421.77947	19799.0875
425.9132	19898.1875
430.04396	20058.6875
434.17176	20277.2875
438.2966	20677.6875
442.41849	21258.0875
446.53742	22111.9875
450.6534	22904.7875
454.76644	23372.6875
458.87653	23403.6875
462.98368	23080.8875
467.08789	22554.5875
471.18916	22039.1875
475.2875	21553.1875
479.38291	21281.5875
483.4754	21052.6875
487.56496	20739.0875
491.6516	20445.6875
495.73531	20207.9875
499.81612	20105.2875
503.89401	20251.7875
507.96899	20300.5875
512.04106	20327.1875
516.11023	20321.3875
520.1765	20296.9875
524.23987	20257.6875
528.30034	20154.8875
532.35792	19946.4875
536.41261	19688.9875
540.46441	19441.7875
544.51333	19426.3875
548.55936	19637.9875
552.60252	20111.1875
556.64279	20541.1875
560.6802	20847.0875
564.71473	21165.5875
568.7464	21818.7875
572.7752	22348.8875
576.80114	22360.7875
580.82422	22492.7875
584.84444	22794.4875
588.86181	23359.4875
592.87633	24037.9875
596.888	24473.8875
600.89682	24769.3875
604.9028	25964.0875
608.90594	29119.5875
612.90624	31669.4875
616.90371	28675.4875
620.89834	23648.7875
624.89015	21975.6875
628.87913	21921.1875
632.86528	21725.2875
636.84862	21290.1875
640.82913	20708.7875
644.80683	20087.3875
648.78172	19710.2875
652.75379	19836.0875
656.72306	20350.8875
660.68952	20802.6875
664.65319	20649.0875
668.61405	20244.9875
672.57211	20063.6875
676.52738	19995.3875
680.47986	19918.8875
684.42955	19878.7875
688.37646	19955.1875
692.32058	20077.4875
696.26192	20246.9875
700.20048	20499.9875
704.13626	20628.1875
708.06928	20582.3875
711.99952	20453.0875
715.927	20398.7875
719.85171	20384.3875
723.77365	20223.3875
727.69284	20038.4875
731.60928	19930.1875
735.52295	20059.5875
739.43388	20175.2875
743.34206	20345.6875
747.24749	20549.6875
751.15017	20812.5875
755.05012	21275.7875
758.94733	22081.9875
762.8418	23637.2875
766.73354	25802.8875
770.62254	27573.0875
774.50882	27784.9875
778.39237	26222.1875
782.27321	23928.4875
786.15132	22158.1875
790.02671	21124.4875
793.89938	20684.2875
797.76935	20556.2875
801.6366	20472.8875
805.50115	20356.5875
809.36299	20291.7875
813.22213	20203.4875
817.07857	20169.0875
820.93231	20201.5875
824.78336	20238.4875
828.63172	20338.1875
832.47738	20412.5875
836.32036	20441.4875
840.16066	20577.1875
843.99827	20617.3875
847.8332	20512.1875
851.66546	20403.0875
855.49504	20343.0875
859.32195	20269.1875
863.1462	20212.1875
866.96777	20092.9875
870.78668	20053.0875
874.60293	20113.9875
878.41652	20199.2875
882.22745	20308.5875
886.03573	20358.3875
889.84136	20313.4875
893.64433	20223.5875
897.44466	20140.0875
901.24235	20159.3875
905.0374	20098.0875
908.8298	20097.8875
912.61957	20205.7875
916.40671	20432.8875
920.19121	20718.2875
923.97308	21049.9875
927.75233	21223.5875
931.52895	21170.4875
935.30295	20816.0875
939.07433	20367.1875
942.84309	20090.3875
946.60924	19966.3875
950.37278	19853.7875
954.13371	19754.0875
957.89203	19598.0875
961.64774	19609.0875
965.40086	19516.1875
969.15137	19482.0875
972.89929	19428.1875
976.64461	19405.4875
980.38733	19426.1875
984.12747	19589.7875
987.86502	19794.8875
991.59999	20068.1875
995.33237	20673.6875
999.06217	21613.0875
1002.78939	22588.5875
1006.51404	23082.4875
1010.23611	23305.4875
1013.95561	23510.3875
1017.67255	23550.2875
1021.38692	23167.3875
1025.09872	22976.4875
1028.80796	23391.1875
1032.51465	24313.2875
1036.21877	24989.4875
1039.92035	24879.2875
1043.61937	24243.9875
1047.31584	23373.6875
1051.00976	22552.9875
1054.70114	22196.7875
1058.38998	22195.0875
1062.07627	22254.3875
1065.76003	22250.6875
1069.44126	22452.6875
1073.11995	22630.6875
1076.79611	22795.3875
1080.46974	22934.3875
1084.14085	23145.1875
1087.80943	23451.6875
1091.47549	23472.8875
1095.13903	23120.5875
1098.80005	22650.5875
1102.45857	22215.7875
1106.11456	22025.2875
1109.76805	22098.8875
1113.41903	22294.3875
1117.06751	22587.9875
1120.71348	23032.7875
1124.35696	23437.1875
1127.99793	23714.0875
1131.63641	23665.6875
1135.2724	23320.0875
1138.90589	22988.5875
1142.5369	22801.4875
1146.16542	22734.8875
1149.79145	22780.5875
1153.415	22990.5875
1157.03607	23281.3875
1160.65467	23734.5875
1164.27079	24456.8875
1167.88443	25658.4875
1171.49561	27520.6875
1175.10432	30130.3875
1178.71056	33395.5875
1182.31434	35998.5875
1185.91565	37108.2875
1189.51451	36684.5875
1193.11091	35032.4875
1196.70485	33052.7875
1200.29634	31272.7875
1203.88538	29852.0875
1207.47197	28704.2875
1211.05612	27928.7875
1214.63782	27696.1875
1218.21708	27922.7875
1221.79391	28292.4875
1225.36829	28579.1875
1228.94024	28246.2875
1232.50976	27661.3875
1236.07685	27228.8875
1239.6415	27035.8875
1243.20374	26999.4875
1246.76355	27122.4875
1250.32093	27517.5875
1253.8759	28260.6875
1257.42845	29151.5875
1260.97859	29953.5875
1264.52631	30572.5875
1268.07163	31191.1875
1271.61453	31956.5875
1275.15503	32949.0875
1278.69312	33970.5875
1282.22882	34898.1875
1285.76211	35768.8875
1289.29301	36612.8875
1292.82151	37714.3875
1296.34761	39096.4875
1299.87133	41146.7875
1303.39266	43991.9875
1306.9116	47635.4875
1310.42815	51538.1875
1313.94233	53887.7875
1317.45412	53516.7875
1320.96354	51455.8875
1324.47058	49125.5875
1327.97525	47225.6875
1331.47754	46115.5875
1334.97747	45770.2875
1338.47502	46044.8875
1341.97022	46426.5875
1345.46305	46436.7875
1348.95352	46227.5875
1352.44163	46298.1875
1355.92738	47595.6875
1359.41078	50421.9875
1362.89183	52611.6875
1366.37053	50981.6875
1369.84688	45982.2875
1373.32088	40914.3875
1376.79254	37628.8875
1380.26186	36145.4875
1383.72883	35651.6875
1387.19347	35491.2875
1390.65578	35318.3875
1394.11575	35411.6875
1397.57339	36060.9875
1401.0287	37060.4875
1404.48168	38001.0875
1407.93234	38654.4875
1411.38068	38829.0875
1414.82669	38163.3875
1418.27039	36675.7875
1421.71177	34877.4875
1425.15083	33529.8875
1428.58758	33017.8875
1432.02203	33242.2875
1435.45416	33679.0875
1438.88399	34082.2875
1442.31151	34418.2875
1445.73673	34743.0875
1449.15965	35050.2875
1452.58027	35063.6875
1455.9986	34911.4875
1459.41463	34995.0875
1462.82837	35332.2875
1466.23982	35937.7875
1469.64898	36490.0875
1473.05586	36767.2875
1476.46045	36977.3875
1479.86276	37133.4875
1483.26279	37248.1875
1486.66054	37574.7875
1490.05602	37986.6875
1493.44922	38552.3875
1496.84016	39097.4875
1500.22882	39849.4875
1503.61521	41062.1875
1506.99934	42620.4875
1510.38121	44144.3875
1513.76081	44602.9875
1517.13816	43441.8875
1520.51324	41291.0875
1523.88607	39313.1875
1527.25665	38082.4875
1530.62498	37426.0875
1533.99105	37125.8875
1537.35488	36985.5875
1540.71647	36801.1875
1544.07581	36479.9875
1547.4329	35960.0875
1550.78776	35211.7875
1554.14038	34585.5875
1557.49077	34191.0875
1560.83892	34064.7875
1564.18484	34031.5875
1567.52853	34045.5875
1570.86999	34049.7875
1574.20922	34165.8875
1577.54624	34151.3875
1580.88103	33705.3875
1584.2136	33576.1875
1587.54395	34361.2875
1590.87208	36510.4875
1594.19801	39733.1875
1597.52172	43167.4875
1600.84321	44738.1875
1604.16251	43253.1875
1607.47959	39674.4875
1610.79447	35627.4875
1614.10715	32089.1875
1617.41763	29539.3875
1620.7259	27997.8875
1624.03199	27328.8875
1627.33587	27492.8875
1630.63757	28400.2875
1633.93707	30077.6875
1637.23439	32648.0875
1640.52951	35786.0875
1643.82246	39147.0875
1647.11321	41549.9875
1650.40179	41648.0875
1653.68819	38882.6875
1656.97241	34288.8875
1660.25446	29875.2875
1663.53433	26684.5875
1666.81203	24619.8875
1670.08756	23362.3875
1673.36092	22493.3875
1676.63211	21986.5875
1679.90115	21554.3875
1683.16801	21334.8875
1686.43272	21084.9875
1689.69527	20974.2875
1692.95567	20881.0875
1696.2139	20823.4875
1699.46999	20784.1875
1702.72392	20728.7875
1705.97571	20721.0875
1709.22535	20692.5875
1712.47284	20703.3875
1715.71819	20661.3875
1718.96139	20657.4875
1722.20246	20614.8875
1725.44139	20540.5875
1728.67818	20451.2875
1731.91284	20372.3875
1735.14537	20263.2875
1738.37576	20172.8875
1741.60403	20169.9875
1744.83017	20124.3875
1748.05418	20074.0875
1751.27607	20032.8875
1754.49584	19986.8875
1757.71349	19987.2875
1760.92903	20003.3875
1764.14244	19970.6875
1767.35375	19980.4875
1770.56294	19965.5875
1773.77002	19947.3875
1776.97499	19924.6875
1780.17785	19911.0875
1783.37861	19899.6875
1786.57727	19865.5875
1789.77382	19875.6875
1792.96828	19885.2875
1796.16064	19849.1875
1799.3509	19847.9875
1802.53907	19788.0875
1805.72514	19788.0875
1808.90913	19777.8875
1812.09102	19729.9875
1815.27083	19639.1875
1818.44856	19618.7875
1821.6242	19604.3875
1824.79776	19597.5875
1827.96924	19581.4875
1831.13864	19566.6875
1834.30597	19547.8875
1837.47122	19566.6875
1840.6344	19557.6875
1843.7955	19556.6875
1846.95454	19535.2875
1850.11151	19529.6875
1853.26642	19560.0875
1856.41926	19566.9875
1859.57004	19561.4875
1862.71876	19622.0875
1865.86542	19612.8875
1869.01003	19597.8875
1872.15258	19600.4875
1875.29308	19603.7875
1878.43152	19635.6875
1881.56792	19652.1875
1884.70227	19646.3875
1887.83457	19636.8875
1890.96482	19671.5875
1894.09304	19638.4875
1897.21921	19631.9875
1900.34335	19640.8875
1903.46544	19631.4875
1906.58551	19636.4875
1909.70353	19670.7875
1912.81953	19641.4875
1915.93349	19633.7875
1919.04543	19598.6875
1922.15534	19589.3875
1925.26322	19579.6875
1928.36908	19545.5875
1931.47292	19511.3875
1934.57473	19448.7875
1937.67453	19429.6875
1940.77232	19371.2875
1943.86808	19286.0875
1946.96184	19251.5875
1950.05358	19168.1875
1953.14331	19106.9875
1956.23103	19055.5875
1959.31675	18985.2875
1962.40046	18956.8875
1965.48217	18904.3875
1968.56188	18838.1875
1971.63959	18773.0875
1974.7153	18732.1875
1977.78901	18690.5875
1980.86073	18613.7875
1983.93046	18571.1875
1986.99819	18488.2875
1990.06394	18473.9875
1993.1277	18430.5875
1996.18947	18365.2875
1999.24925	18334.6875
2002.30706	18311.2875
2005.36288	18233.8875
2008.41672	18224.7875
2011.46859	18155.7875
2014.51848	18087.1875
2017.56639	18073.1875
2020.61233	18010.8875
2023.6563	17999.0875
2026.6983	17945.2875
2029.73833	17946.8875
2032.7764	17890.8875
2035.8125	17859.2875
2038.84664	17908.2875
2041.87881	17849.5875
2044.90903	17812.3875
2047.93729	17800.5875
2050.96359	17790.0875
2053.98794	17756.1875
2057.01034	17753.1875
2060.03078	17735.3875
2063.04927	17703.9875
2066.06582	17690.0875
2069.08042	17703.1875
2072.09307	17678.1875
2075.10378	17633.8875
2078.11255	17628.5875
2081.11938	17595.2875
2084.12426	17557.6875
2087.12722	17571.0875
2090.12824	17546.4875
2093.12732	17542.8875
2096.12447	17551.3875
2099.11969	17571.4875
2102.11299	17586.6875
2105.10435	17570.4875
2108.09379	17565.4875
2111.08131	17592.0875
2114.0669	17601.2875
2117.05057	17598.5875
2120.03233	17609.0875
2123.01216	17636.7875
2125.99008	17625.5875
2128.96609	17648.3875
2131.94018	17668.4875
2134.91236	17682.8875
2137.88263	17685.9875
2140.851	17711.6875
2143.81746	17731.8875
2146.78201	17738.6875
2149.74466	17745.9875
2152.7054	17757.2875
2155.66425	17768.5875
2158.6212	17728.7875
2161.57625	17686.1875
2164.52941	17719.2875
2167.48067	17713.2875
2170.43004	17747.9875
2173.37752	17719.3875
2176.32311	17702.6875
2179.26681	17700.8875
2182.20863	17715.3875
2185.14856	17753.9875
2188.08661	17746.5875
2191.02278	17761.6875
2193.95707	17740.6875
2196.88948	17756.4875
2199.82001	17767.0875
2202.74867	17752.6875
2205.67545	17732.1875
2208.60037	17737.4875
2211.52341	17737.2875
2214.44458	17709.7875
2217.36388	17708.0875
2220.28132	17669.6875
2223.1969	17637.6875
2226.11061	17618.7875
2229.02246	17601.5875
2231.93245	17639.4875
2234.84058	17653.7875
2237.74686	17518.1875
2240.65128	17483.4875
2243.55385	17459.5875
2246.45456	17461.6875
2249.35343	17450.5875
2252.25044	17435.9875
2255.14561	17412.5875
2258.03893	17386.3875
2260.93041	17339.4875
2263.82004	17308.6875
2266.70783	17260.4875
2269.59378	17195.2875
2272.4779	17181.5875
2275.36017	17126.5875
2278.24061	17043.1875
2281.11922	17075.9875
2283.996	17041.0875
2286.87094	17029.1875
2289.74405	16983.0875
2292.61534	17013.2875
2295.4848	16984.6875
2298.35243	17031.3875
2301.21824	17014.4875
2304.08223	17000.8875
2306.94439	17036.2875
2309.80474	17063.4875
2312.66327	17060.8875
2315.51999	17084.0875
2318.37489	17076.4875
2321.22797	17082.0875
2324.07925	17064.1875
2326.92871	17048.7875
2329.77637	17039.0875
2332.62222	16999.2875
2335.46626	17047.1875
2338.3085	17042.8875
2341.14893	17044.7875
2343.98756	17060.6875
2346.8244	17079.7875
2349.65943	17102.4875
2352.49267	17076.9875
2355.32411	17117.8875
2358.15376	17085.7875
2360.98161	17052.4875
2363.80768	17039.0875
2366.63195	16979.6875
2369.45444	16967.0875
2372.27514	16965.4875
2375.09405	16913.7875
2377.91118	16869.8875
2380.72652	16837.5875
2383.54009	16800.7875
2386.35187	16779.3875
2389.16188	16705.3875
2391.97011	16690.6875
2394.77657	16695.5875
2397.58125	16652.7875
2400.38416	16639.3875
2403.18529	16593.1875
2405.98466	16582.7875
2408.78226	16519.7875
2411.57809	16485.7875
2414.37216	16452.3875
2417.16446	16421.0875
2419.955	16374.7875
2422.74378	16386.2875
2425.5308	16394.8875
2428.31606	16374.5875
2431.09956	16356.6875
2433.88131	16333.2875
2436.6613	16313.9875
2439.43954	16333.3875
2442.21603	16322.8875
2444.99077	16309.9875
2447.76377	16332.2875
2450.53501	16303.3875
2453.30451	16314.4875
2456.07226	16290.9875
2458.83827	16298.9875
2461.60254	16260.8875
2464.36507	16265.2875
2467.12586	16240.8875
2469.88492	16244.5875
2472.64224	16276.2875
2475.39782	16279.1875
2478.15167	16321.9875
2480.90379	16344.9875
2483.65417	16377.5875
2486.40283	16379.9875
2489.14976	16395.5875
2491.89497	16399.2875
2494.63845	16430.3875
2497.3802	16433.6875
2500.12024	16457.7875
2502.85855	16427.2875
2505.59514	16411.4875
2508.33002	16384.6875
2511.06318	16378.2875
2513.79462	16339.5875
2516.52435	16277.6875
2519.25237	16269.0875
2521.97867	16224.3875
2524.70327	16273.4875
2527.42616	16225.2875
2530.14734	16226.7875
2532.86681	16242.0875
2535.58458	16224.0875
2538.30065	16203.3875
2541.01501	16219.2875
2543.72768	16222.5875
2546.43864	16213.5875
2549.14791	16161.5875
2551.85548	16174.3875
2554.56136	16150.8875
2557.26554	16138.8875
2559.96803	16114.3875
2562.66883	16105.0875
2565.36794	16080.3875
2568.06536	16062.9875
2570.7611	16056.4875
2573.45514	16055.5875
2576.14751	16044.2875
2578.83819	16045.3875
2581.52719	16070.3875
2584.21451	16026.4875
2586.90015	16078.2875
2589.58411	16055.9875
2592.2664	16047.3875
2594.94701	16045.4875
2597.62594	16030.0875
2600.30321	16052.0875
2602.9788	16037.9875
2605.65273	16053.3875
2608.32498	16043.5875
2610.99557	16030.3875
2613.66449	16003.0875
2616.33175	16064.7875
2618.99734	16050.8875
2621.66128	16109.8875
2624.32355	16076.6875
2626.98416	16097.7875
2629.64311	16096.5875
2632.30041	16109.2875
2634.95605	16102.7875
2637.61004	16050.6875
2640.26238	16028.0875
2642.91306	16007.7875
2645.56209	15975.3875
2648.20948	15947.3875
2650.85521	15918.1875
2653.4993	15936.0875
2656.14175	15925.4875
2658.78255	15931.3875
2661.42171	15968.5875
2664.05923	15961.1875
2666.6951	16011.9875
2669.32934	15987.1875
2671.96194	16021.1875
2674.59291	16001.6875
2677.22224	16024.8875
2679.84993	16031.2875
2682.476	15976.9875
2685.10043	15968.8875
2687.72324	15983.5875
2690.34441	15989.4875
2692.96396	15958.4875
2695.58188	15964.6875
2698.19818	15919.4875
2700.81285	15947.4875
2703.4259	15943.7875
2706.03733	15969.3875
2708.64714	15957.7875
2711.25533	15955.6875
2713.86191	15956.4875
2716.46687	15984.7875
2719.07021	15971.7875
2721.67194	16010.2875
2724.27206	15942.9875
2726.87057	15995.1875
2729.46747	16022.4875
2732.06276	16024.1875
2734.65644	16040.2875
2737.24852	16029.2875
2739.83899	16010.3875
2742.42786	16044.5875
2745.01513	15985.1875
2747.60079	15977.3875
2750.18486	15928.3875
2752.76733	15952.6875
2755.3482	15956.6875
2757.92747	15963.3875
2760.50515	15908.1875
2763.08123	15934.8875
2765.65573	15912.0875
2768.22863	15926.0875
2770.79994	15907.7875
2773.36967	15923.5875
2775.9378	15925.5875
2778.50435	15935.0875
2781.06932	15948.1875
2783.6327	15920.0875
2786.1945	15910.4875
2788.75471	15897.6875
2791.31335	15845.0875
2793.87041	15873.1875
2796.42589	15829.3875
2798.97979	15832.5875
2801.53212	15807.1875
2804.08288	15766.0875
2806.63206	15718.7875
2809.17967	15702.2875
2811.72571	15661.8875
2814.27018	15701.8875
2816.81308	15667.5875
2819.35442	15652.2875
2821.89419	15604.3875
2824.43239	15607.3875
2826.96904	15578.2875
2829.50412	15578.9875
2832.03763	15598.1875
2834.56959	15585.4875
2837.1	15570.8875
2839.62884	15571.5875
2842.15613	15578.8875
2844.68186	15580.0875
2847.20604	15567.1875
2849.72867	15580.1875
2852.24974	15548.5875
2854.76927	15516.9875
2857.28724	15523.8875
2859.80367	15520.0875
2862.31855	15466.7875
2864.83189	15460.9875
2867.34368	15438.7875
2869.85393	15455.3875
2872.36264	15456.6875
2874.8698	15432.1875
2877.37543	15415.4875
2879.87952	15413.8875
2882.38207	15395.1875
2884.88308	15379.5875
2887.38256	15393.7875
2889.88051	15407.7875
2892.37692	15404.1875
2894.8718	15432.0875
2897.36515	15464.5875
2899.85698	15473.1875
2902.34727	15496.0875
2904.83604	15516.0875
2907.32328	15534.7875
2909.809	15501.0875
2912.29319	15550.1875
2914.77587	15538.4875
2917.25702	15551.8875
2919.73665	15541.1875
2922.21476	15513.8875
2924.69136	15479.4875
2927.16644	15464.6875
2929.64	15437.1875
2932.11205	15444.1875
2934.58258	15395.8875
2937.05161	15385.1875
2939.51912	15408.8875
2941.98513	15377.8875
2944.44962	15343.9875
2946.91261	15321.5875
2949.37409	15336.1875
2951.83407	15319.8875
2954.29254	15314.4875
2956.74951	15323.0875
2959.20498	15325.9875
2961.65895	15316.6875
2964.11142	15296.9875
2966.56239	15237.8875
2969.01186	15235.5875
2971.45984	15189.8875
2973.90632	15184.6875
2976.35131	15166.0875
2978.7948	15131.6875
2981.23681	15073.6875
2983.67732	15067.8875
2986.11635	15020.3875
2988.55388	14993.1875
2990.98993	14985.3875
2993.4245	14956.5875
2995.85758	14920.7875
2998.28917	14841.7875
3000.71928	14856.7875
3003.14791	14797.3875
3005.57506	14792.5875
3008.00073	14760.8875
3010.42493	14743.5875
3012.84764	14704.5875
3015.26888	14701.3875
3017.68865	14669.7875
3020.10694	14645.3875
3022.52376	14599.5875
3024.9391	14602.5875
3027.35298	14555.7875
3029.76539	14556.8875
3032.17632	14576.0875
3034.5858	14547.9875
3036.9938	14522.6875
3039.40034	14502.5875
3041.80542	14524.9875
3044.20903	14487.9875
3046.61118	14499.4875
3049.01187	14442.8875
3051.4111	14451.0875
3053.80888	14374.9875
3056.20519	14381.8875
3058.60005	14327.7875
3060.99345	14319.0875
3063.3854	14248.9875
3065.7759	14218.3875
3068.16494	14165.0875
3070.55254	14094.0875
3072.93868	14083.3875
3075.32338	14031.5875
3077.70662	13997.5875
3080.08842	13959.2875
3082.46878	13935.0875
3084.84769	13932.4875
3087.22515	13907.6875
3089.60118	13904.1875
3091.97576	13897.6875
3094.3489	13883.8875
3096.72061	13903.6875
3099.09087	13875.6875
3101.4597	13881.3875
3103.82709	13883.0875
3106.19305	13856.5875
3108.55757	13867.8875
3110.92066	13854.4875
3113.28232	13822.4875
3115.64255	13780.4875
3118.00134	13777.3875
3120.35871	13750.2875
3122.71466	13703.5875
3125.06917	13688.9875
3127.42226	13670.7875
3129.77393	13671.6875
3132.12417	13647.0875
3134.47299	13619.9875
3136.82039	13594.6875
3139.16636	13575.5875
3141.51092	13599.2875
3143.85406	13588.4875
3146.19579	13591.2875
3148.53609	13593.0875
3150.87499	13593.1875
3153.21246	13602.9875
3155.54853	13604.6875
3157.88318	13614.3875
3160.21642	13608.5875
3162.54826	13619.9875
3164.87868	13598.0875
3167.2077	13581.7875
3169.5353	13627.9875
3171.86151	13603.7875
3174.18631	13559.4875
3176.5097	13561.1875
3178.83169	13536.6875
3181.15228	13520.2875
3183.47147	13507.4875
3185.78926	13513.3875
3188.10565	13498.5875
3190.42065	13485.5875
3192.73424	13494.4875
3195.04645	13488.0875
3197.35725	13478.6875
3199.66667	13460.1875
3201.97469	13477.6875
3204.28132	13419.8875
3206.58656	13478.4875
3208.8904	13487.2875
3211.19287	13498.2875
3213.49394	13451.1875
3215.79363	13462.9875
3218.09193	13471.1875
3220.38884	13462.2875
3222.68438	13503.3875
3224.97853	13470.3875
3227.2713	13515.1875
3229.56269	13500.4875
3231.8527	13501.9875
3234.14133	13464.3875
3236.42858	13434.9875
3238.71446	13411.6875
3240.99896	13356.3875
3243.28209	13353.4875
3245.56384	13348.7875
3247.84423	13361.2875
3250.12324	13354.2875
3252.40088	13298.0875
3254.67715	13309.7875
3256.95205	13281.0875
3259.22558	13311.7875
3261.49775	13304.2875
3263.76855	13291.0875
3266.03799	13284.1875
3268.30606	13284.4875
3270.57277	13243.7875
3272.83812	13225.5875
3275.10211	13193.0875
3277.36474	13156.6875
3279.62601	13167.3875
3281.88593	13125.4875
3284.14448	13127.0875
3286.40168	13156.2875
3288.65753	13157.7875
3290.91202	13137.6875
3293.16516	13108.6875
3295.41695	13104.7875
3297.66738	13011.0875
3299.91647	12975.9875
3302.16421	12897.6875
3304.4106	12832.9875
3306.65564	12760.2875
3308.89933	12672.7875
3311.14169	12583.5875
3313.38269	12505.6875
3315.62236	12424.1875
3317.86068	12332.7875
3320.09766	12278.7875
3322.3333	12189.4875
3324.5676	12129.9875
3326.80056	11971.8875
3329.03219	11914.9875
3331.26248	3.3875
3333.49143	1.1875
3335.71905	1.2875
