Data from AgNPs_UA_1uM_CRN_0uM_R6G_10uM_Q_RamanShift__4__12-15-25-869.txt Node

Date: Wed Jul 13 12:15:25 BST 2022
User: TCL
Spectrometer: QEP01345
Trigger mode: 4
Integration Time (sec): 7.000000E0
Scans to average: 10
Electric dark correction enabled: true
Nonlinearity correction enabled: false
Boxcar width: 0
XAxis mode: Raman Shifts
Number of Pixels in Spectrum: 1044
>>>>>Begin Spectral Data<<<<<
46.04893	-1.225
50.45542	-1.925
54.85868	-2.825
59.25871	0.675
63.6555	92.775
68.04907	99.475
72.43941	104.075
76.82654	107.175
81.21044	111.975
85.59113	119.875
89.96862	119.875
94.34289	122.875
98.71396	126.575
103.08183	128.675
107.4465	137.875
111.80798	132.275
116.16626	139.675
120.52136	149.475
124.87327	150.775
129.222	160.375
133.56755	168.975
137.90993	182.975
142.24913	196.875
146.58517	218.075
150.91804	248.475
155.24774	297.375
159.57429	361.875
163.89768	466.275
168.21792	607.675
172.53501	828.975
176.84895	1153.175
181.15975	1612.375
185.46741	2280.175
189.77193	3129.375
194.07331	4185.375
198.37157	5386.375
202.6667	6643.075
206.9587	7892.175
211.24758	9133.875
215.53334	10388.375
219.81599	11745.275
224.09553	13255.375
228.37195	14900.975
232.64527	16702.275
236.91549	18485.275
241.18261	20167.775
245.44663	21672.575
249.70755	22943.675
253.96539	24097.975
258.22014	25081.175
262.4718	25912.775
266.72039	26393.375
270.96589	26647.975
275.20832	26588.375
279.44768	26282.675
283.68397	25962.075
287.91719	25716.275
292.14735	25665.475
296.37445	25819.375
300.59849	26286.275
304.81948	26853.975
309.03742	27369.275
313.25231	27539.475
317.46415	27141.075
321.67296	26372.975
325.87872	25683.375
330.08145	25344.875
334.28114	25383.275
338.47781	25695.675
342.67145	26215.475
346.86207	26841.875
351.04966	27726.975
355.23424	28496.075
359.4158	28987.875
363.59435	29326.475
367.76989	29410.375
371.94243	29358.875
376.11196	29319.975
380.27849	29315.375
384.44203	29375.175
388.60257	29489.675
392.76012	29665.075
396.91468	30047.375
401.06626	30552.075
405.21485	30807.075
409.36047	30439.875
413.50311	29692.075
417.64277	29240.475
421.77947	29016.675
425.9132	29011.275
430.04396	29138.975
434.17176	29263.975
438.2966	29602.375
442.41849	30156.375
446.53742	30895.075
450.6534	31672.875
454.76644	32050.675
458.87653	32129.375
462.98368	31903.575
467.08789	31485.775
471.18916	30931.675
475.2875	30360.075
479.38291	29890.875
483.4754	29606.175
487.56496	29360.575
491.6516	29279.675
495.73531	29296.575
499.81612	29392.075
503.89401	29686.875
507.96899	29824.875
512.04106	29886.075
516.11023	30018.875
520.1765	30079.875
524.23987	30081.075
528.30034	30079.375
532.35792	29932.175
536.41261	29602.475
540.46441	29195.475
544.51333	29092.375
548.55936	29269.175
552.60252	29806.775
556.64279	30428.875
560.6802	30872.875
564.71473	31174.875
568.7464	31540.975
572.7752	31930.275
576.80114	31947.875
580.82422	32181.375
584.84444	32794.775
588.86181	33789.975
592.87633	34797.075
596.888	35075.975
600.89682	34791.975
604.9028	36099.675
608.90594	40769.875
612.90624	45529.475
616.90371	42102.075
620.89834	34388.975
624.89015	31266.275
628.87913	30939.675
632.86528	31218.675
636.84862	31307.275
640.82913	30825.175
644.80683	30024.975
648.78172	29618.475
652.75379	29769.775
656.72306	30421.475
660.68952	31096.375
664.65319	30824.075
668.61405	30218.375
672.57211	30187.075
676.52738	30316.475
680.47986	30145.175
684.42955	29804.775
688.37646	29727.475
692.32058	29975.875
696.26192	30485.775
700.20048	30937.575
704.13626	31035.275
708.06928	30877.775
711.99952	30629.675
715.927	30617.775
719.85171	30821.175
723.77365	30753.775
727.69284	30422.475
731.60928	30195.375
735.52295	30161.775
739.43388	30283.575
743.34206	30412.975
747.24749	30533.775
751.15017	30722.975
755.05012	31187.775
758.94733	32113.875
762.8418	34132.575
766.73354	37280.775
770.62254	39853.375
774.50882	40130.175
778.39237	38473.975
782.27321	35998.075
786.15132	33562.175
790.02671	32061.575
793.89938	31323.975
797.76935	30964.375
801.6366	30713.175
805.50115	30653.775
809.36299	30443.575
813.22213	30372.175
817.07857	30273.475
820.93231	30236.875
824.78336	30272.975
828.63172	30278.375
832.47738	30290.775
836.32036	30259.475
840.16066	30283.875
843.99827	30270.975
847.8332	30262.775
851.66546	30269.575
855.49504	30343.575
859.32195	30336.275
863.1462	30316.275
866.96777	30275.575
870.78668	30289.875
874.60293	30383.475
878.41652	30537.275
882.22745	30722.775
886.03573	30813.175
889.84136	30811.275
893.64433	30749.475
897.44466	30576.575
901.24235	30512.175
905.0374	30422.575
908.8298	30320.675
912.61957	30275.175
916.40671	30386.475
920.19121	30614.375
923.97308	30900.975
927.75233	31182.675
931.52895	31238.675
935.30295	30934.375
939.07433	30375.675
942.84309	30061.975
946.60924	29956.375
950.37278	29882.075
954.13371	29843.375
957.89203	29765.975
961.64774	29712.075
965.40086	29650.375
969.15137	29702.975
972.89929	29671.475
976.64461	29726.675
980.38733	29739.175
984.12747	29876.775
987.86502	29969.175
991.59999	30141.275
995.33237	30475.875
999.06217	30977.275
1002.78939	31519.975
1006.51404	32050.275
1010.23611	32539.175
1013.95561	32781.175
1017.67255	32809.675
1021.38692	32547.175
1025.09872	32134.675
1028.80796	31885.875
1032.51465	32114.075
1036.21877	32382.375
1039.92035	32418.975
1043.61937	32312.175
1047.31584	32108.875
1051.00976	31864.075
1054.70114	31826.375
1058.38998	31875.975
1062.07627	32033.175
1065.76003	32181.675
1069.44126	32429.375
1073.11995	32998.675
1076.79611	33602.975
1080.46974	34061.775
1084.14085	34487.475
1087.80943	34941.175
1091.47549	34996.575
1095.13903	34663.175
1098.80005	34121.575
1102.45857	33750.775
1106.11456	33451.375
1109.76805	33250.875
1113.41903	33376.275
1117.06751	33750.975
1120.71348	34268.375
1124.35696	34900.075
1127.99793	35374.075
1131.63641	35163.575
1135.2724	34450.975
1138.90589	33880.975
1142.5369	33662.775
1146.16542	33462.375
1149.79145	33419.775
1153.415	33409.775
1157.03607	33514.375
1160.65467	33931.975
1164.27079	34769.775
1167.88443	36139.575
1171.49561	37985.475
1175.10432	40647.975
1178.71056	44038.975
1182.31434	46726.575
1185.91565	47470.775
1189.51451	46612.175
1193.11091	45002.275
1196.70485	43329.175
1200.29634	41850.175
1203.88538	40640.675
1207.47197	39460.875
1211.05612	38439.875
1214.63782	37610.575
1218.21708	37093.275
1221.79391	36966.875
1225.36829	37012.575
1228.94024	36964.475
1232.50976	36608.175
1236.07685	36155.375
1239.6415	35864.775
1243.20374	35864.075
1246.76355	36068.775
1250.32093	36444.675
1253.8759	36934.075
1257.42845	37801.975
1260.97859	38807.075
1264.52631	39916.375
1268.07163	40940.775
1271.61453	41756.875
1275.15503	42556.775
1278.69312	43041.675
1282.22882	43503.075
1285.76211	44091.375
1289.29301	45104.175
1292.82151	46265.475
1296.34761	47688.175
1299.87133	49799.475
1303.39266	52629.875
1306.9116	56545.675
1310.42815	60642.375
1313.94233	62691.775
1317.45412	61335.375
1320.96354	58266.075
1324.47058	55296.175
1327.97525	52853.975
1331.47754	51225.375
1334.97747	50431.175
1338.47502	50230.675
1341.97022	50609.575
1345.46305	51563.675
1348.95352	53127.875
1352.44163	55194.175
1355.92738	58009.775
1359.41078	62165.675
1362.89183	65913.175
1366.37053	64089.875
1369.84688	57038.975
1373.32088	49918.275
1376.79254	45697.275
1380.26186	43832.575
1383.72883	43077.775
1387.19347	42486.775
1390.65578	41685.975
1394.11575	41015.975
1397.57339	40768.775
1401.0287	40666.975
1404.48168	40654.975
1407.93234	40607.475
1411.38068	40531.075
1414.82669	40261.975
1418.27039	39942.975
1421.71177	39373.775
1425.15083	38878.775
1428.58758	38717.875
1432.02203	39289.475
1435.45416	40006.075
1438.88399	40556.175
1442.31151	40663.775
1445.73673	40648.475
1449.15965	40540.075
1452.58027	40284.775
1455.9986	40042.275
1459.41463	40131.175
1462.82837	40623.675
1466.23982	41256.175
1469.64898	41817.575
1473.05586	42353.075
1476.46045	42564.375
1479.86276	42706.575
1483.26279	42909.175
1486.66054	43342.675
1490.05602	44138.675
1493.44922	45267.275
1496.84016	46877.575
1500.22882	49402.475
1503.61521	52896.075
1506.99934	56814.675
1510.38121	59832.075
1513.76081	60079.375
1517.13816	56817.475
1520.51324	51924.675
1523.88607	47820.875
1527.25665	45479.875
1530.62498	44354.275
1533.99105	43765.375
1537.35488	43201.075
1540.71647	42539.275
1544.07581	41908.975
1547.4329	41348.575
1550.78776	40905.075
1554.14038	40679.375
1557.49077	40712.375
1560.83892	41019.375
1564.18484	41673.275
1567.52853	42394.475
1570.86999	42999.375
1574.20922	43459.475
1577.54624	43280.675
1580.88103	42136.275
1584.2136	40885.575
1587.54395	40708.875
1590.87208	41788.775
1594.19801	43890.975
1597.52172	46264.975
1600.84321	47123.375
1604.16251	45882.275
1607.47959	43713.175
1610.79447	41242.675
1614.10715	38731.575
1617.41763	36629.575
1620.7259	35184.975
1624.03199	34451.575
1627.33587	34520.075
1630.63757	35163.675
1633.93707	36721.475
1637.23439	39414.775
1640.52951	43531.775
1643.82246	48766.075
1647.11321	53378.775
1650.40179	54899.475
1653.68819	51720.475
1656.97241	45505.775
1660.25446	39618.375
1663.53433	35588.275
1666.81203	33241.875
1670.08756	31790.275
1673.36092	30959.775
1676.63211	30373.075
1679.90115	29986.975
1683.16801	29682.775
1686.43272	29437.775
1689.69527	29243.975
1692.95567	29118.275
1696.2139	29048.275
1699.46999	28979.475
1702.72392	28942.275
1705.97571	28952.975
1709.22535	28930.675
1712.47284	28937.375
1715.71819	28973.575
1718.96139	28940.475
1722.20246	28885.975
1725.44139	28756.275
1728.67818	28645.375
1731.91284	28513.075
1735.14537	28425.975
1738.37576	28305.675
1741.60403	28213.975
1744.83017	28172.175
1748.05418	28127.075
1751.27607	28030.675
1754.49584	28003.475
1757.71349	28007.075
1760.92903	27960.375
1764.14244	27938.775
1767.35375	27915.375
1770.56294	27841.675
1773.77002	27828.175
1776.97499	27783.475
1780.17785	27779.775
1783.37861	27741.575
1786.57727	27651.375
1789.77382	27569.875
1792.96828	27607.975
1796.16064	27553.575
1799.3509	27538.875
1802.53907	27505.875
1805.72514	27470.775
1808.90913	27374.075
1812.09102	27327.975
1815.27083	27262.475
1818.44856	27203.275
1821.6242	27187.375
1824.79776	27112.175
1827.96924	27121.275
1831.13864	27070.375
1834.30597	27079.875
1837.47122	27010.875
1840.6344	27034.575
1843.7955	27042.875
1846.95454	27002.775
1850.11151	26969.375
1853.26642	26954.075
1856.41926	26900.775
1859.57004	26916.975
1862.71876	26884.075
1865.86542	26970.475
1869.01003	26930.175
1872.15258	26844.875
1875.29308	26854.275
1878.43152	26811.075
1881.56792	26787.875
1884.70227	26796.275
1887.83457	26764.875
1890.96482	26708.875
1894.09304	26684.975
1897.21921	26662.475
1900.34335	26638.875
1903.46544	26607.175
1906.58551	26590.175
1909.70353	26538.175
1912.81953	26582.175
1915.93349	26534.175
1919.04543	26491.975
1922.15534	26423.475
1925.26322	26407.975
1928.36908	26345.375
1931.47292	26247.375
1934.57473	26203.475
1937.67453	26128.575
1940.77232	26098.475
1943.86808	26019.875
1946.96184	26002.275
1950.05358	25941.775
1953.14331	25851.875
1956.23103	25775.575
1959.31675	25725.175
1962.40046	25659.875
1965.48217	25615.175
1968.56188	25542.075
1971.63959	25507.775
1974.7153	25432.775
1977.78901	25348.475
1980.86073	25261.675
1983.93046	25193.475
1986.99819	25104.275
1990.06394	25000.875
1993.1277	24936.675
1996.18947	24896.775
1999.24925	24871.475
2002.30706	24784.375
2005.36288	24669.875
2008.41672	24646.875
2011.46859	24578.175
2014.51848	24502.275
2017.56639	24421.775
2020.61233	24389.175
2023.6563	24302.975
2026.6983	24244.875
2029.73833	24205.075
2032.7764	24158.675
2035.8125	24131.275
2038.84664	24066.875
2041.87881	24015.675
2044.90903	24015.175
2047.93729	23937.775
2050.96359	23943.175
2053.98794	23890.175
2057.01034	23884.075
2060.03078	23884.475
2063.04927	23839.375
2066.06582	23853.175
2069.08042	23826.675
2072.09307	23798.375
2075.10378	23776.875
2078.11255	23746.975
2081.11938	23758.475
2084.12426	23737.175
2087.12722	23755.175
2090.12824	23717.875
2093.12732	23743.775
2096.12447	23746.375
2099.11969	23777.175
2102.11299	23758.875
2105.10435	23813.075
2108.09379	23796.475
2111.08131	23832.875
2114.0669	23834.975
2117.05057	23863.875
2120.03233	23892.275
2123.01216	23918.175
2125.99008	23938.575
2128.96609	23958.175
2131.94018	23995.575
2134.91236	24043.575
2137.88263	24035.475
2140.851	24036.175
2143.81746	24088.675
2146.78201	24067.775
2149.74466	24051.975
2152.7054	24085.875
2155.66425	24087.675
2158.6212	24044.375
2161.57625	24006.075
2164.52941	24028.375
2167.48067	24035.275
2170.43004	24042.775
2173.37752	24025.375
2176.32311	24088.575
2179.26681	24076.875
2182.20863	24044.175
2185.14856	24108.475
2188.08661	24070.875
2191.02278	24064.975
2193.95707	24066.575
2196.88948	24033.975
2199.82001	24022.875
2202.74867	24000.275
2205.67545	23995.775
2208.60037	23947.975
2211.52341	23937.575
2214.44458	23885.575
2217.36388	23860.175
2220.28132	23831.175
2223.1969	23754.675
2226.11061	23722.375
2229.02246	23725.975
2231.93245	23641.575
2234.84058	23604.475
2237.74686	23583.075
2240.65128	23608.475
2243.55385	23569.475
2246.45456	23548.575
2249.35343	23520.175
2252.25044	23511.975
2255.14561	23468.075
2258.03893	23449.075
2260.93041	23392.475
2263.82004	23357.375
2266.70783	23316.675
2269.59378	23254.875
2272.4779	23237.375
2275.36017	23145.975
2278.24061	23089.975
2281.11922	23069.175
2283.996	23054.875
2286.87094	23020.075
2289.74405	23014.975
2292.61534	22983.375
2295.4848	22948.075
2298.35243	22948.775
2301.21824	22915.075
2304.08223	22906.175
2306.94439	22902.075
2309.80474	22906.375
2312.66327	22927.075
2315.51999	22911.275
2318.37489	22854.775
2321.22797	22827.375
2324.07925	22816.575
2326.92871	22780.475
2329.77637	22760.675
2332.62222	22736.175
2335.46626	22718.475
2338.3085	22680.675
2341.14893	22631.275
2343.98756	22643.375
2346.8244	22629.475
2349.65943	22629.275
2352.49267	22634.875
2355.32411	22660.575
2358.15376	22663.775
2360.98161	22652.275
2363.80768	22647.375
2366.63195	22629.575
2369.45444	22600.475
2372.27514	22593.775
2375.09405	22559.175
2377.91118	22545.275
2380.72652	22510.075
2383.54009	22428.675
2386.35187	22386.875
2389.16188	22313.675
2391.97011	22281.475
2394.77657	22266.875
2397.58125	22211.575
2400.38416	22187.675
2403.18529	22125.875
2405.98466	22123.575
2408.78226	22075.775
2411.57809	22047.175
2414.37216	22048.675
2417.16446	22056.575
2419.955	22013.375
2422.74378	22029.275
2425.5308	22007.575
2428.31606	21980.875
2431.09956	22004.175
2433.88131	21973.575
2436.6613	21995.675
2439.43954	21938.075
2442.21603	21956.675
2444.99077	21966.775
2447.76377	21932.375
2450.53501	21930.975
2453.30451	21892.775
2456.07226	21864.375
2458.83827	21822.275
2461.60254	21817.775
2464.36507	21819.875
2467.12586	21769.775
2469.88492	21852.875
2472.64224	21836.675
2475.39782	21805.375
2478.15167	21808.375
2480.90379	21774.275
2483.65417	21799.275
2486.40283	21817.975
2489.14976	21810.075
2491.89497	21781.275
2494.63845	21801.075
2497.3802	21798.275
2500.12024	21786.875
2502.85855	21777.675
2505.59514	21748.375
2508.33002	21717.375
2511.06318	21686.375
2513.79462	21638.875
2516.52435	21544.075
2519.25237	21574.675
2521.97867	21537.675
2524.70327	21577.875
2527.42616	21530.575
2530.14734	21535.675
2532.86681	21506.375
2535.58458	21517.875
2538.30065	21486.975
2541.01501	21459.575
2543.72768	21427.575
2546.43864	21397.275
2549.14791	21419.375
2551.85548	21353.075
2554.56136	21329.175
2557.26554	21313.375
2559.96803	21275.175
2562.66883	21281.675
2565.36794	21233.175
2568.06536	21176.675
2570.7611	21188.275
2573.45514	21167.875
2576.14751	21176.375
2578.83819	21127.875
2581.52719	21124.975
2584.21451	21075.875
2586.90015	21038.675
2589.58411	21001.575
2592.2664	20978.675
2594.94701	20927.875
2597.62594	20926.675
2600.30321	20901.475
2602.9788	20865.675
2605.65273	20845.875
2608.32498	20872.875
2610.99557	20829.375
2613.66449	20826.375
2616.33175	20809.075
2618.99734	20833.875
2621.66128	20785.175
2624.32355	20776.275
2626.98416	20804.775
2629.64311	20755.075
2632.30041	20732.575
2634.95605	20687.675
2637.61004	20662.175
2640.26238	20612.075
2642.91306	20543.175
2645.56209	20536.775
2648.20948	20524.675
2650.85521	20492.075
2653.4993	20545.575
2656.14175	20555.475
2658.78255	20594.375
2661.42171	20608.375
2664.05923	20594.875
2666.6951	20630.475
2669.32934	20646.675
2671.96194	20576.275
2674.59291	20597.675
2677.22224	20630.675
2679.84993	20647.075
2682.476	20633.275
2685.10043	20629.575
2687.72324	20560.975
2690.34441	20553.075
2692.96396	20583.475
2695.58188	20585.375
2698.19818	20600.075
2700.81285	20595.875
2703.4259	20542.575
2706.03733	20597.075
2708.64714	20614.175
2711.25533	20640.175
2713.86191	20628.075
2716.46687	20667.575
2719.07021	20654.075
2721.67194	20685.875
2724.27206	20665.775
2726.87057	20661.975
2729.46747	20657.875
2732.06276	20688.075
2734.65644	20662.575
2737.24852	20701.275
2739.83899	20610.375
2742.42786	20622.875
2745.01513	20585.175
2747.60079	20585.175
2750.18486	20555.175
2752.76733	20515.975
2755.3482	20527.375
2757.92747	20481.375
2760.50515	20443.375
2763.08123	20458.875
2765.65573	20449.375
2768.22863	20474.175
2770.79994	20369.675
2773.36967	20430.875
2775.9378	20381.275
2778.50435	20387.975
2781.06932	20364.475
2783.6327	20331.375
2786.1945	20309.175
2788.75471	20259.575
2791.31335	20248.775
2793.87041	20252.775
2796.42589	20219.975
2798.97979	20174.675
2801.53212	20132.875
2804.08288	20083.575
2806.63206	20023.175
2809.17967	20008.975
2811.72571	19937.275
2814.27018	19919.475
2816.81308	19925.975
2819.35442	19876.675
2821.89419	19859.575
2824.43239	19842.075
2826.96904	19838.675
2829.50412	19797.975
2832.03763	19771.575
2834.56959	19776.575
2837.1	19743.875
2839.62884	19739.775
2842.15613	19714.475
2844.68186	19739.775
2847.20604	19679.675
2849.72867	19686.775
2852.24974	19664.275
2854.76927	19697.775
2857.28724	19637.175
2859.80367	19643.975
2862.31855	19614.775
2864.83189	19620.875
2867.34368	19576.475
2869.85393	19576.775
2872.36264	19551.075
2874.8698	19571.675
2877.37543	19506.175
2879.87952	19467.175
2882.38207	19495.675
2884.88308	19466.275
2887.38256	19432.075
2889.88051	19392.675
2892.37692	19415.675
2894.8718	19473.475
2897.36515	19456.875
2899.85698	19449.775
2902.34727	19521.675
2904.83604	19478.575
2907.32328	19545.175
2909.809	19567.575
2912.29319	19594.175
2914.77587	19588.275
2917.25702	19560.775
2919.73665	19570.475
2922.21476	19541.575
2924.69136	19527.875
2927.16644	19497.575
2929.64	19460.275
2932.11205	19454.675
2934.58258	19383.575
2937.05161	19402.875
2939.51912	19406.475
2941.98513	19399.375
2944.44962	19338.075
2946.91261	19283.675
2949.37409	19372.975
2951.83407	19350.975
2954.29254	19401.875
2956.74951	19351.375
2959.20498	19363.775
2961.65895	19292.975
2964.11142	19363.675
2966.56239	19365.375
2969.01186	19381.375
2971.45984	19350.575
2973.90632	19295.875
2976.35131	19273.775
2978.7948	19229.775
2981.23681	19201.275
2983.67732	19185.875
2986.11635	19148.975
2988.55388	19103.675
2990.98993	19058.975
2993.4245	18987.175
2995.85758	18976.175
2998.28917	18946.275
3000.71928	18921.475
3003.14791	18880.175
3005.57506	18850.375
3008.00073	18832.475
3010.42493	18802.675
3012.84764	18743.575
3015.26888	18750.975
3017.68865	18698.175
3020.10694	18662.075
3022.52376	18658.675
3024.9391	18614.475
3027.35298	18597.175
3029.76539	18592.875
3032.17632	18582.775
3034.5858	18547.475
3036.9938	18532.375
3039.40034	18491.375
3041.80542	18476.575
3044.20903	18426.675
3046.61118	18430.675
3049.01187	18377.575
3051.4111	18396.275
3053.80888	18372.575
3056.20519	18315.175
3058.60005	18339.575
3060.99345	18276.175
3063.3854	18193.275
3065.7759	18152.975
3068.16494	18128.575
3070.55254	18066.875
3072.93868	18058.275
3075.32338	18002.175
3077.70662	17958.475
3080.08842	17949.875
3082.46878	17934.475
3084.84769	17906.875
3087.22515	17866.775
3089.60118	17886.975
3091.97576	17885.075
3094.3489	17870.875
3096.72061	17860.675
3099.09087	17869.975
3101.4597	17870.875
3103.82709	17896.475
3106.19305	17843.275
3108.55757	17817.975
3110.92066	17766.975
3113.28232	17789.675
3115.64255	17749.175
3118.00134	17741.875
3120.35871	17710.175
3122.71466	17712.375
3125.06917	17655.075
3127.42226	17626.875
3129.77393	17626.575
3132.12417	17606.775
3134.47299	17552.975
3136.82039	17557.675
3139.16636	17529.075
3141.51092	17542.775
3143.85406	17524.375
3146.19579	17515.475
3148.53609	17504.475
3150.87499	17522.575
3153.21246	17514.375
3155.54853	17507.175
3157.88318	17503.175
3160.21642	17556.275
3162.54826	17540.675
3164.87868	17550.075
3167.2077	17530.675
3169.5353	17521.675
3171.86151	17526.075
3174.18631	17476.675
3176.5097	17486.675
3178.83169	17459.075
3181.15228	17429.275
3183.47147	17420.875
3185.78926	17384.275
3188.10565	17376.775
3190.42065	17344.475
3192.73424	17320.275
3195.04645	17315.675
3197.35725	17321.575
3199.66667	17275.275
3201.97469	17279.475
3204.28132	17269.475
3206.58656	17277.175
3208.8904	17293.875
3211.19287	17282.275
3213.49394	17271.975
3215.79363	17270.575
3218.09193	17276.175
3220.38884	17340.075
3222.68438	17328.875
3224.97853	17286.675
3227.2713	17291.275
3229.56269	17267.875
3231.8527	17267.575
3234.14133	17240.075
3236.42858	17198.975
3238.71446	17184.575
3240.99896	17126.475
3243.28209	17113.975
3245.56384	17088.575
3247.84423	17071.875
3250.12324	17055.375
3252.40088	17004.775
3254.67715	17005.375
3256.95205	17021.075
3259.22558	17028.175
3261.49775	16990.675
3263.76855	17002.175
3266.03799	16985.975
3268.30606	16990.875
3270.57277	16937.975
3272.83812	16910.275
3275.10211	16854.575
3277.36474	16841.375
3279.62601	16819.575
3281.88593	16796.075
3284.14448	16823.875
3286.40168	16818.975
3288.65753	16794.375
3290.91202	16824.975
3293.16516	16769.375
3295.41695	16736.575
3297.66738	16674.475
3299.91647	16571.175
3302.16421	16456.275
3304.4106	16394.475
3306.65564	16291.375
3308.89933	16228.875
3311.14169	16112.575
3313.38269	16008.275
3315.62236	15957.875
3317.86068	15770.775
3320.09766	15678.975
3322.3333	15582.175
3324.5676	15493.175
3326.80056	15297.275
3329.03219	15216.775
3331.26248	5.975
3333.49143	0.475
3335.71905	-0.425
