Data from AgNPs_UA_0uM_CRN_0uM_R6G_10uM_Q_RamanShift__33__11-56-58-784.txt Node

Date: Wed Jul 13 11:56:58 BST 2022
User: TCL
Spectrometer: QEP01345
Trigger mode: 4
Integration Time (sec): 7.000000E0
Scans to average: 10
Electric dark correction enabled: true
Nonlinearity correction enabled: false
Boxcar width: 0
XAxis mode: Raman Shifts
Number of Pixels in Spectrum: 1044
>>>>>Begin Spectral Data<<<<<
46.04893	0
50.45542	0
54.85868	-0.7
59.25871	0.7
63.6555	39.1
68.04907	44.4
72.43941	46.4
76.82654	52.1
81.21044	51.6
85.59113	58.2
89.96862	60.2
94.34289	64.3
98.71396	63.6
103.08183	67
107.4465	67.8
111.80798	64.5
116.16626	64.8
120.52136	65.6
124.87327	65.5
129.222	68.9
133.56755	65.2
137.90993	70.3
142.24913	71.2
146.58517	71.2
150.91804	77.9
155.24774	76.7
159.57429	87.3
163.89768	101.2
168.21792	124.9
172.53501	154.9
176.84895	199
181.15975	261.3
185.46741	359.6
189.77193	468.5
194.07331	620.1
198.37157	785.2
202.6667	955.1
206.9587	1132
211.24758	1301.6
215.53334	1475.5
219.81599	1683.6
224.09553	1902.1
228.37195	2157.6
232.64527	2438.3
236.91549	2695.5
241.18261	2954
245.44663	3187.1
249.70755	3359.1
253.96539	3468
258.22014	3568.3
262.4718	3619.2
266.72039	3655.6
270.96589	3648.3
275.20832	3593.4
279.44768	3544.5
283.68397	3490.1
287.91719	3432.7
292.14735	3430.5
296.37445	3483.9
300.59849	3579.9
304.81948	3727.2
309.03742	3814.9
313.25231	3799.8
317.46415	3632.6
321.67296	3396.7
325.87872	3208.5
330.08145	3112
334.28114	3127.5
338.47781	3173.3
342.67145	3261.1
346.86207	3400.5
351.04966	3605.2
355.23424	3805
359.4158	3973.9
363.59435	4050.3
367.76989	4050.6
371.94243	4018.2
376.11196	3991.4
380.27849	3958.1
384.44203	3898.3
388.60257	3855.7
392.76012	3831.9
396.91468	3879.4
401.06626	3992.7
405.21485	4048.8
409.36047	3942.8
413.50311	3747.9
417.64277	3568.8
421.77947	3467.5
425.9132	3469.8
430.04396	3475.9
434.17176	3528.4
438.2966	3645.8
442.41849	3801.4
446.53742	4011.5
450.6534	4151.9
454.76644	4190.3
458.87653	4155.8
462.98368	4022.6
467.08789	3906.9
471.18916	3753.5
475.2875	3611.1
479.38291	3493.9
483.4754	3413.1
487.56496	3339.3
491.6516	3282
495.73531	3262.2
499.81612	3262
503.89401	3297.7
507.96899	3350.3
512.04106	3405.4
516.11023	3451.5
520.1765	3505.4
524.23987	3491
528.30034	3466
532.35792	3403.9
536.41261	3323.2
540.46441	3214.7
544.51333	3172.4
548.55936	3180.6
552.60252	3258.1
556.64279	3367.5
560.6802	3394.7
564.71473	3458.8
568.7464	3601.1
572.7752	3666.5
576.80114	3553.2
580.82422	3476.4
584.84444	3502.2
588.86181	3616.5
592.87633	3803.6
596.888	4006.1
600.89682	4195.7
604.9028	4614.2
608.90594	5695.4
612.90624	6784.4
616.90371	6036.8
620.89834	4222.8
624.89015	3490
628.87913	3354.9
632.86528	3364.3
636.84862	3360.9
640.82913	3250.5
644.80683	3098.8
648.78172	3034.8
652.75379	3093
656.72306	3255.2
660.68952	3403.1
664.65319	3297.2
668.61405	3112.9
672.57211	3059.4
676.52738	3050.9
680.47986	2999.6
684.42955	2966.2
688.37646	2957.1
692.32058	3013.5
696.26192	3078.7
700.20048	3150.4
704.13626	3194.7
708.06928	3158.2
711.99952	3089.4
715.927	3034.6
719.85171	3040.3
723.77365	3024.1
727.69284	2970.7
731.60928	2952.7
735.52295	2972.3
739.43388	2988.3
743.34206	2981.2
747.24749	2997.1
751.15017	3023.2
755.05012	3099.5
758.94733	3330
762.8418	3819.7
766.73354	4488.6
770.62254	5091.4
774.50882	5365.7
778.39237	5092.5
782.27321	4363.3
786.15132	3665.3
790.02671	3262.3
793.89938	3093.2
797.76935	3007.3
801.6366	2971.8
805.50115	2935.3
809.36299	2905.5
813.22213	2905.1
817.07857	2880.2
820.93231	2885.4
824.78336	2907
828.63172	2925.5
832.47738	2932.1
836.32036	2916.9
840.16066	2879.1
843.99827	2857.1
847.8332	2834.1
851.66546	2831.8
855.49504	2838.4
859.32195	2787.2
863.1462	2761.9
866.96777	2742.9
870.78668	2728.6
874.60293	2737.8
878.41652	2765.7
882.22745	2788.3
886.03573	2812.7
889.84136	2786.8
893.64433	2770.7
897.44466	2749.7
901.24235	2751
905.0374	2724.3
908.8298	2710.7
912.61957	2691
916.40671	2716.9
920.19121	2751
923.97308	2788.8
927.75233	2836.2
931.52895	2855
935.30295	2784
939.07433	2659.1
942.84309	2583.2
946.60924	2533.1
950.37278	2507.7
954.13371	2498.9
957.89203	2469.8
961.64774	2457.8
965.40086	2441.8
969.15137	2430.1
972.89929	2423.6
976.64461	2423.6
980.38733	2440.3
984.12747	2442.5
987.86502	2454.8
991.59999	2476.4
995.33237	2526.1
999.06217	2617.5
1002.78939	2735.8
1006.51404	2825.4
1010.23611	2897.4
1013.95561	2926.1
1017.67255	2915.3
1021.38692	2809
1025.09872	2723.7
1028.80796	2678.1
1032.51465	2692.3
1036.21877	2749.6
1039.92035	2826.6
1043.61937	2857.8
1047.31584	2822.6
1051.00976	2764.3
1054.70114	2739.2
1058.38998	2701.6
1062.07627	2696.4
1065.76003	2718
1069.44126	2731.2
1073.11995	2786.8
1076.79611	2861.8
1080.46974	2954.9
1084.14085	3056.3
1087.80943	3119.7
1091.47549	3133.8
1095.13903	3021.8
1098.80005	2876
1102.45857	2798.1
1106.11456	2775.6
1109.76805	2821.4
1113.41903	2917.6
1117.06751	3041.6
1120.71348	3224
1124.35696	3439
1127.99793	3544.2
1131.63641	3421.5
1135.2724	3193.6
1138.90589	3017.2
1142.5369	2930.8
1146.16542	2872.5
1149.79145	2850.4
1153.415	2875.8
1157.03607	2938.1
1160.65467	3030.8
1164.27079	3182.2
1167.88443	3434.4
1171.49561	3833.5
1175.10432	4458.3
1178.71056	5211.6
1182.31434	5776.6
1185.91565	5965.9
1189.51451	5858.3
1193.11091	5544.8
1196.70485	5131.7
1200.29634	4697.1
1203.88538	4254.2
1207.47197	3869.9
1211.05612	3614.3
1214.63782	3514.6
1218.21708	3536
1221.79391	3585.2
1225.36829	3623.1
1228.94024	3614
1232.50976	3596.2
1236.07685	3586.3
1239.6415	3573.4
1243.20374	3575.2
1246.76355	3566.1
1250.32093	3600.9
1253.8759	3705.2
1257.42845	3850.2
1260.97859	4046.3
1264.52631	4238.9
1268.07163	4418.2
1271.61453	4537.8
1275.15503	4611
1278.69312	4643
1282.22882	4745.7
1285.76211	4949.6
1289.29301	5213.5
1292.82151	5493.1
1296.34761	5823.7
1299.87133	6193.4
1303.39266	6741.6
1306.9116	7493.5
1310.42815	8255.2
1313.94233	8543.5
1317.45412	8236.2
1320.96354	7598.6
1324.47058	6938.1
1327.97525	6464.5
1331.47754	6256.2
1334.97747	6225.2
1338.47502	6252.4
1341.97022	6349.3
1345.46305	6556.5
1348.95352	6975.7
1352.44163	7593.4
1355.92738	8480.6
1359.41078	9516
1362.89183	10026.7
1366.37053	9382.6
1369.84688	8094.3
1373.32088	6890.5
1376.79254	6109.1
1380.26186	5637.3
1383.72883	5336.4
1387.19347	5075.5
1390.65578	4839.3
1394.11575	4720.4
1397.57339	4702
1401.0287	4753.7
1404.48168	4795.1
1407.93234	4852.6
1411.38068	4824.3
1414.82669	4729.1
1418.27039	4564
1421.71177	4406.6
1425.15083	4342.9
1428.58758	4361.3
1432.02203	4467.6
1435.45416	4518.9
1438.88399	4527.1
1442.31151	4507.8
1445.73673	4484.6
1449.15965	4453.1
1452.58027	4384.5
1455.9986	4323
1459.41463	4334.8
1462.82837	4432.5
1466.23982	4549.6
1469.64898	4678.6
1473.05586	4734.4
1476.46045	4788.5
1479.86276	4835.3
1483.26279	4907.2
1486.66054	4966.2
1490.05602	5086.7
1493.44922	5271.2
1496.84016	5549
1500.22882	6054.3
1503.61521	6688.7
1506.99934	7356.5
1510.38121	7849.9
1513.76081	7883.7
1517.13816	7284.7
1520.51324	6400.8
1523.88607	5669.4
1527.25665	5263.4
1530.62498	5106.5
1533.99105	5029.4
1537.35488	4967.3
1540.71647	4886
1544.07581	4789.4
1547.4329	4676.5
1550.78776	4552.7
1554.14038	4427.1
1557.49077	4352.1
1560.83892	4356.4
1564.18484	4426.2
1567.52853	4556.6
1570.86999	4721.9
1574.20922	4855.5
1577.54624	4793.6
1580.88103	4522.3
1584.2136	4233.4
1587.54395	4184.7
1590.87208	4409.1
1594.19801	4874.6
1597.52172	5407.8
1600.84321	5651.3
1604.16251	5417.4
1607.47959	4883.5
1610.79447	4265.1
1614.10715	3687.8
1617.41763	3302.4
1620.7259	3088.2
1624.03199	3001.3
1627.33587	3024.2
1630.63757	3167.9
1633.93707	3432.4
1637.23439	3897
1640.52951	4574.8
1643.82246	5347.7
1647.11321	5947.5
1650.40179	6088.6
1653.68819	5543.5
1656.97241	4579.5
1660.25446	3685.1
1663.53433	3071.6
1666.81203	2677.1
1670.08756	2466.5
1673.36092	2302.7
1676.63211	2204.8
1679.90115	2124.4
1683.16801	2094.8
1686.43272	2053.5
1689.69527	2020
1692.95567	2000.8
1696.2139	2000.5
1699.46999	1996
1702.72392	1970.7
1705.97571	1960.6
1709.22535	1935.5
1712.47284	1928.6
1715.71819	1910.9
1718.96139	1914.7
1722.20246	1910.9
1725.44139	1900
1728.67818	1866.3
1731.91284	1839.1
1735.14537	1812.2
1738.37576	1787
1741.60403	1770.7
1744.83017	1758.9
1748.05418	1743.2
1751.27607	1740.5
1754.49584	1744.8
1757.71349	1744.4
1760.92903	1738.6
1764.14244	1718.8
1767.35375	1716.5
1770.56294	1712.9
1773.77002	1688.7
1776.97499	1677.1
1780.17785	1661.7
1783.37861	1667.6
1786.57727	1644.3
1789.77382	1645.2
1792.96828	1641.4
1796.16064	1633.5
1799.3509	1631.6
1802.53907	1626.7
1805.72514	1618
1808.90913	1611.6
1812.09102	1596.8
1815.27083	1589.8
1818.44856	1587.8
1821.6242	1580.7
1824.79776	1567.4
1827.96924	1564.2
1831.13864	1558.6
1834.30597	1551.1
1837.47122	1550.9
1840.6344	1549
1843.7955	1549.9
1846.95454	1548.1
1850.11151	1542.4
1853.26642	1534.4
1856.41926	1534.9
1859.57004	1527.2
1862.71876	1533.7
1865.86542	1531.2
1869.01003	1536.9
1872.15258	1539.7
1875.29308	1531.7
1878.43152	1538.8
1881.56792	1539.4
1884.70227	1545
1887.83457	1547.9
1890.96482	1535.5
1894.09304	1530.9
1897.21921	1537.3
1900.34335	1532.7
1903.46544	1528.2
1906.58551	1535.6
1909.70353	1535.4
1912.81953	1532.3
1915.93349	1529.7
1919.04543	1522.9
1922.15534	1511.4
1925.26322	1511.3
1928.36908	1500
1931.47292	1491.9
1934.57473	1484.5
1937.67453	1469.1
1940.77232	1455.8
1943.86808	1449.3
1946.96184	1444.7
1950.05358	1439.4
1953.14331	1429.1
1956.23103	1416.5
1959.31675	1417.7
1962.40046	1399.3
1965.48217	1404.6
1968.56188	1402.9
1971.63959	1400.8
1974.7153	1391.4
1977.78901	1389.4
1980.86073	1378.2
1983.93046	1370.7
1986.99819	1364.9
1990.06394	1357
1993.1277	1351.4
1996.18947	1348.3
1999.24925	1334.2
2002.30706	1334.4
2005.36288	1326.1
2008.41672	1318.7
2011.46859	1317.9
2014.51848	1308.1
2017.56639	1311.2
2020.61233	1309.6
2023.6563	1283.5
2026.6983	1284.7
2029.73833	1278.4
2032.7764	1279.5
2035.8125	1277.6
2038.84664	1272.7
2041.87881	1282.1
2044.90903	1277.1
2047.93729	1263.7
2050.96359	1266.9
2053.98794	1263.8
2057.01034	1249.5
2060.03078	1263.2
2063.04927	1248
2066.06582	1253.4
2069.08042	1248.1
2072.09307	1246.4
2075.10378	1230.8
2078.11255	1236.5
2081.11938	1241
2084.12426	1228.8
2087.12722	1242.3
2090.12824	1235.1
2093.12732	1221.9
2096.12447	1230.7
2099.11969	1228.6
2102.11299	1231.2
2105.10435	1231.8
2108.09379	1222
2111.08131	1218.2
2114.0669	1216.5
2117.05057	1223.7
2120.03233	1232.6
2123.01216	1230.6
2125.99008	1223.5
2128.96609	1225.3
2131.94018	1228.7
2134.91236	1227
2137.88263	1225.5
2140.851	1225.8
2143.81746	1219.7
2146.78201	1214.5
2149.74466	1206.3
2152.7054	1201.5
2155.66425	1199.3
2158.6212	1199.9
2161.57625	1196.6
2164.52941	1200.4
2167.48067	1201.5
2170.43004	1185.3
2173.37752	1190.7
2176.32311	1190.2
2179.26681	1189.4
2182.20863	1192.3
2185.14856	1193.4
2188.08661	1183.2
2191.02278	1183
2193.95707	1178.4
2196.88948	1178.9
2199.82001	1177
2202.74867	1170.6
2205.67545	1162
2208.60037	1168.5
2211.52341	1159.4
2214.44458	1156.9
2217.36388	1147.8
2220.28132	1152.7
2223.1969	1135.4
2226.11061	1146.6
2229.02246	1130.6
2231.93245	1129.7
2234.84058	1127.5
2237.74686	1129.1
2240.65128	1134.4
2243.55385	1125.3
2246.45456	1127.9
2249.35343	1125.6
2252.25044	1120.9
2255.14561	1117.1
2258.03893	1122.3
2260.93041	1114.3
2263.82004	1112.1
2266.70783	1110.1
2269.59378	1097.4
2272.4779	1099.3
2275.36017	1088.4
2278.24061	1093
2281.11922	1091.3
2283.996	1079.9
2286.87094	1078.6
2289.74405	1076.7
2292.61534	1068.2
2295.4848	1071.2
2298.35243	1071.9
2301.21824	1063.8
2304.08223	1067.3
2306.94439	1067.4
2309.80474	1062.2
2312.66327	1067.4
2315.51999	1063.2
2318.37489	1059.1
2321.22797	1057
2324.07925	1051.3
2326.92871	1056
2329.77637	1055.3
2332.62222	1058.5
2335.46626	1045.2
2338.3085	1043
2341.14893	1042
2343.98756	1039.8
2346.8244	1048.5
2349.65943	1036.3
2352.49267	1043.7
2355.32411	1046.3
2358.15376	1049.7
2360.98161	1049.5
2363.80768	1047.4
2366.63195	1050.5
2369.45444	1055.9
2372.27514	1057.1
2375.09405	1050.6
2377.91118	1052.9
2380.72652	1042.3
2383.54009	1037
2386.35187	1021.1
2389.16188	1024.3
2391.97011	1019.8
2394.77657	1020.6
2397.58125	1006.1
2400.38416	1007
2403.18529	1007.1
2405.98466	1006
2408.78226	1001.3
2411.57809	1001.9
2414.37216	1000.4
2417.16446	1003
2419.955	993.4
2422.74378	989.6
2425.5308	989
2428.31606	992.5
2431.09956	983.9
2433.88131	986
2436.6613	987.9
2439.43954	988.1
2442.21603	990.4
2444.99077	1001.1
2447.76377	993.9
2450.53501	996.8
2453.30451	996.8
2456.07226	984.4
2458.83827	998
2461.60254	983.4
2464.36507	992.8
2467.12586	994.1
2469.88492	990.4
2472.64224	996.2
2475.39782	993.7
2478.15167	994.2
2480.90379	994.9
2483.65417	1002.8
2486.40283	1000.8
2489.14976	1013.2
2491.89497	1003.8
2494.63845	1016.7
2497.3802	1008.5
2500.12024	1006.9
2502.85855	1008.4
2505.59514	997.5
2508.33002	994.7
2511.06318	992
2513.79462	985
2516.52435	981.5
2519.25237	976.7
2521.97867	973.3
2524.70327	975.4
2527.42616	970.8
2530.14734	974.2
2532.86681	969.6
2535.58458	964.4
2538.30065	971
2541.01501	970.7
2543.72768	973.7
2546.43864	969.5
2549.14791	976.6
2551.85548	965.1
2554.56136	974.4
2557.26554	972.2
2559.96803	963.8
2562.66883	965.5
2565.36794	969.7
2568.06536	966.2
2570.7611	961.3
2573.45514	960.6
2576.14751	959.6
2578.83819	962
2581.52719	963.7
2584.21451	964
2586.90015	964.7
2589.58411	964.9
2592.2664	956.8
2594.94701	969.1
2597.62594	964.2
2600.30321	963.4
2602.9788	957.4
2605.65273	963.1
2608.32498	966
2610.99557	966.9
2613.66449	968
2616.33175	964.7
2618.99734	960
2621.66128	962.2
2624.32355	963.1
2626.98416	968.2
2629.64311	967.2
2632.30041	958
2634.95605	960.7
2637.61004	954.1
2640.26238	951.5
2642.91306	952.4
2645.56209	955.6
2648.20948	954
2650.85521	953.2
2653.4993	946.3
2656.14175	954.4
2658.78255	953.9
2661.42171	964.8
2664.05923	967.1
2666.6951	965.8
2669.32934	975.1
2671.96194	971.5
2674.59291	968.4
2677.22224	977.7
2679.84993	978.2
2682.476	975.2
2685.10043	975.7
2687.72324	967.2
2690.34441	973.4
2692.96396	977.9
2695.58188	984
2698.19818	984.6
2700.81285	990.7
2703.4259	997.7
2706.03733	999.6
2708.64714	995.9
2711.25533	1001.1
2713.86191	1002.9
2716.46687	1005.7
2719.07021	1015.8
2721.67194	1013.1
2724.27206	1011.3
2726.87057	1015.6
2729.46747	1012
2732.06276	1008.8
2734.65644	1008
2737.24852	1006.9
2739.83899	1003.4
2742.42786	1003.1
2745.01513	989.3
2747.60079	996.3
2750.18486	993.2
2752.76733	997.9
2755.3482	994.5
2757.92747	986.7
2760.50515	998.7
2763.08123	989.8
2765.65573	996.3
2768.22863	995.9
2770.79994	996
2773.36967	1003.8
2775.9378	1004.7
2778.50435	1012.9
2781.06932	1016.1
2783.6327	1024.3
2786.1945	1018.7
2788.75471	1027.7
2791.31335	1035.5
2793.87041	1043
2796.42589	1046.7
2798.97979	1057.5
2801.53212	1052.8
2804.08288	1066.7
2806.63206	1068.3
2809.17967	1080.9
2811.72571	1087
2814.27018	1092.1
2816.81308	1100.7
2819.35442	1108.4
2821.89419	1104.4
2824.43239	1112.1
2826.96904	1112.8
2829.50412	1116.5
2832.03763	1122.1
2834.56959	1121
2837.1	1134.7
2839.62884	1149.4
2842.15613	1174.5
2844.68186	1216.1
2847.20604	1241.5
2849.72867	1273.2
2852.24974	1287.8
2854.76927	1293.8
2857.28724	1291.7
2859.80367	1289.3
2862.31855	1276.2
2864.83189	1273.5
2867.34368	1273.1
2869.85393	1254.7
2872.36264	1243.9
2874.8698	1242.7
2877.37543	1238.4
2879.87952	1234.1
2882.38207	1231.5
2884.88308	1229.3
2887.38256	1236.9
2889.88051	1235.1
2892.37692	1235.5
2894.8718	1233.9
2897.36515	1241.5
2899.85698	1247.8
2902.34727	1254.5
2904.83604	1260.7
2907.32328	1254.8
2909.809	1257.6
2912.29319	1256.9
2914.77587	1243.2
2917.25702	1250.9
2919.73665	1231.2
2922.21476	1245.8
2924.69136	1228.4
2927.16644	1218.2
2929.64	1210
2932.11205	1214.1
2934.58258	1203.5
2937.05161	1185.2
2939.51912	1165.7
2941.98513	1142.2
2944.44962	1124.1
2946.91261	1094.9
2949.37409	1078
2951.83407	1065
2954.29254	1048.8
2956.74951	1043.5
2959.20498	1036.5
2961.65895	1034.4
2964.11142	1028.6
2966.56239	1019.1
2969.01186	1007.4
2971.45984	1004.6
2973.90632	1002.1
2976.35131	991.4
2978.7948	979.9
2981.23681	980.3
2983.67732	973.4
2986.11635	968.7
2988.55388	965.7
2990.98993	957.7
2993.4245	946
2995.85758	943.4
2998.28917	928.5
3000.71928	934.2
3003.14791	926.2
3005.57506	932.9
3008.00073	922.6
3010.42493	922.1
3012.84764	920.3
3015.26888	915.6
3017.68865	923.6
3020.10694	918.8
3022.52376	909.5
3024.9391	923.5
3027.35298	913.3
3029.76539	911.3
3032.17632	918.8
3034.5858	918.2
3036.9938	921.1
3039.40034	921.7
3041.80542	924.2
3044.20903	912.2
3046.61118	914
3049.01187	926.9
3051.4111	913.8
3053.80888	922.2
3056.20519	914.5
3058.60005	930.6
3060.99345	915.3
3063.3854	917.3
3065.7759	920.3
3068.16494	929.1
3070.55254	923.9
3072.93868	923
3075.32338	908.5
3077.70662	911.2
3080.08842	920.3
3082.46878	913.5
3084.84769	898.5
3087.22515	910
3089.60118	901.6
3091.97576	904.3
3094.3489	905.1
3096.72061	902.3
3099.09087	911.9
3101.4597	903.8
3103.82709	905
3106.19305	906.4
3108.55757	909.2
3110.92066	909.6
3113.28232	921.8
3115.64255	915.8
3118.00134	917.2
3120.35871	927
3122.71466	927.9
3125.06917	932
3127.42226	934.6
3129.77393	938.1
3132.12417	937.4
3134.47299	938.9
3136.82039	942.2
3139.16636	949.3
3141.51092	960.6
3143.85406	966.2
3146.19579	965.8
3148.53609	971.2
3150.87499	982
3153.21246	987.2
3155.54853	993.2
3157.88318	987.6
3160.21642	1001.2
3162.54826	1003.3
3164.87868	1011.7
3167.2077	1019.1
3169.5353	1026.5
3171.86151	1025.2
3174.18631	1031.6
3176.5097	1030.7
3178.83169	1038
3181.15228	1046.3
3183.47147	1047.4
3185.78926	1059.8
3188.10565	1054.1
3190.42065	1056.7
3192.73424	1060.1
3195.04645	1068
3197.35725	1068.4
3199.66667	1073.8
3201.97469	1077.7
3204.28132	1078.2
3206.58656	1088.1
3208.8904	1091
3211.19287	1090.3
3213.49394	1092.4
3215.79363	1093.1
3218.09193	1093
3220.38884	1105.7
3222.68438	1105.9
3224.97853	1105.7
3227.2713	1110
3229.56269	1114.2
3231.8527	1108.4
3234.14133	1113
3236.42858	1113.7
3238.71446	1114.7
3240.99896	1108.8
3243.28209	1118.1
3245.56384	1112.8
3247.84423	1115.8
3250.12324	1112.1
3252.40088	1108.2
3254.67715	1115.6
3256.95205	1117.7
3259.22558	1118.1
3261.49775	1116.7
3263.76855	1110.1
3266.03799	1115.7
3268.30606	1120.7
3270.57277	1101.4
3272.83812	1104.8
3275.10211	1106.2
3277.36474	1104.9
3279.62601	1103.9
3281.88593	1098.8
3284.14448	1097.7
3286.40168	1106.3
3288.65753	1108.3
3290.91202	1106.1
3293.16516	1102
3295.41695	1101.5
3297.66738	1100.6
3299.91647	1094.4
3302.16421	1088.9
3304.4106	1081.3
3306.65564	1089.2
3308.89933	1076.1
3311.14169	1068.3
3313.38269	1062.6
3315.62236	1058.4
3317.86068	1044.4
3320.09766	1045.2
3322.3333	1031.2
3324.5676	1029.1
3326.80056	1021.5
3329.03219	1013.8
3331.26248	-0.3
3333.49143	-0.5
3335.71905	1.7
