Data from AgNPs_UA_0uM_CRN_0uM_R6G_10uM_Q_RamanShift__10__11-30-08-757.txt Node

Date: Wed Jul 13 11:30:08 BST 2022
User: TCL
Spectrometer: QEP01345
Trigger mode: 4
Integration Time (sec): 7.000000E0
Scans to average: 10
Electric dark correction enabled: true
Nonlinearity correction enabled: false
Boxcar width: 0
XAxis mode: Raman Shifts
Number of Pixels in Spectrum: 1044
>>>>>Begin Spectral Data<<<<<
46.04893	0.9125
50.45542	0.4125
54.85868	-1.3875
59.25871	0.0125
63.6555	43.5125
68.04907	51.7125
72.43941	54.1125
76.82654	58.2125
81.21044	61.5125
85.59113	66.2125
89.96862	66.9125
94.34289	70.3125
98.71396	71.5125
103.08183	75.3125
107.4465	78.8125
111.80798	76.5125
116.16626	78.6125
120.52136	83.1125
124.87327	78.8125
129.222	85.2125
133.56755	84.2125
137.90993	92.9125
142.24913	95.2125
146.58517	106.7125
150.91804	118.0125
155.24774	135.4125
159.57429	163.2125
163.89768	205.4125
168.21792	267.7125
172.53501	363.6125
176.84895	503.3125
181.15975	691.4125
185.46741	979.7125
189.77193	1363.6125
194.07331	1801.4125
198.37157	2309.2125
202.6667	2864.6125
206.9587	3428.0125
211.24758	3999.1125
215.53334	4579.7125
219.81599	5228.3125
224.09553	5937.6125
228.37195	6682.9125
232.64527	7443.4125
236.91549	8176.6125
241.18261	8810.0125
245.44663	9293.1125
249.70755	9724.2125
253.96539	10105.6125
258.22014	10440.8125
262.4718	10743.4125
266.72039	10902.5125
270.96589	10963.8125
275.20832	10787.0125
279.44768	10585.8125
283.68397	10310.7125
287.91719	10163.8125
292.14735	10147.1125
296.37445	10411.7125
300.59849	10865.8125
304.81948	11497.1125
309.03742	12090.2125
313.25231	12306.9125
317.46415	11993.3125
321.67296	11135.1125
325.87872	10306.6125
330.08145	9837.5125
334.28114	9758.0125
338.47781	9928.5125
342.67145	10245.3125
346.86207	10746.7125
351.04966	11488.9125
355.23424	12173.9125
359.4158	12545.5125
363.59435	12496.2125
367.76989	12282.1125
371.94243	12016.3125
376.11196	11838.5125
380.27849	11658.4125
384.44203	11507.6125
388.60257	11421.5125
392.76012	11483.3125
396.91468	11683.6125
401.06626	11996.2125
405.21485	12096.5125
409.36047	11706.2125
413.50311	11054.0125
417.64277	10441.5125
421.77947	10136.4125
425.9132	9989.0125
430.04396	9909.8125
434.17176	9928.3125
438.2966	10019.4125
442.41849	10190.1125
446.53742	10410.7125
450.6534	10618.1125
454.76644	10705.9125
458.87653	10665.9125
462.98368	10603.1125
467.08789	10501.0125
471.18916	10287.0125
475.2875	9974.9125
479.38291	9736.8125
483.4754	9563.7125
487.56496	9501.6125
491.6516	9446.7125
495.73531	9465.3125
499.81612	9511.3125
503.89401	9656.9125
507.96899	9830.3125
512.04106	10013.6125
516.11023	10198.6125
520.1765	10300.1125
524.23987	10363.9125
528.30034	10277.2125
532.35792	10191.1125
536.41261	10034.9125
540.46441	9781.3125
544.51333	9680.0125
548.55936	9716.2125
552.60252	9932.4125
556.64279	10182.0125
560.6802	10376.8125
564.71473	10679.5125
568.7464	11171.2125
572.7752	11264.1125
576.80114	10746.7125
580.82422	10334.5125
584.84444	10285.3125
588.86181	10387.1125
592.87633	10532.6125
596.888	10711.6125
600.89682	11196.4125
604.9028	12889.2125
608.90594	17310.3125
612.90624	22345.5125
616.90371	20443.3125
620.89834	13664.0125
624.89015	10711.0125
628.87913	10257.5125
632.86528	10530.1125
636.84862	10749.6125
640.82913	10350.9125
644.80683	9718.0125
648.78172	9354.7125
652.75379	9477.7125
656.72306	9953.4125
660.68952	10459.2125
664.65319	10208.2125
668.61405	9598.5125
672.57211	9364.7125
676.52738	9374.4125
680.47986	9293.0125
684.42955	9176.9125
688.37646	9100.8125
692.32058	9143.2125
696.26192	9251.4125
700.20048	9416.5125
704.13626	9482.4125
708.06928	9435.1125
711.99952	9344.1125
715.927	9306.2125
719.85171	9406.2125
723.77365	9452.0125
727.69284	9371.4125
731.60928	9301.9125
735.52295	9295.6125
739.43388	9336.0125
743.34206	9391.7125
747.24749	9397.5125
751.15017	9391.2125
755.05012	9602.4125
758.94733	10278.2125
762.8418	12000.7125
766.73354	14586.9125
770.62254	16599.7125
774.50882	16791.3125
778.39237	15616.0125
782.27321	13650.5125
786.15132	11613.7125
790.02671	10288.3125
793.89938	9650.4125
797.76935	9385.6125
801.6366	9236.7125
805.50115	9161.2125
809.36299	9092.4125
813.22213	9041.6125
817.07857	8983.2125
820.93231	9007.0125
824.78336	9045.6125
828.63172	9107.5125
832.47738	9087.8125
836.32036	9027.0125
840.16066	8942.5125
843.99827	8901.2125
847.8332	8910.6125
851.66546	8927.6125
855.49504	8903.3125
859.32195	8899.6125
863.1462	8875.0125
866.96777	8871.4125
870.78668	8858.5125
874.60293	8908.4125
878.41652	8985.4125
882.22745	9052.6125
886.03573	9159.5125
889.84136	9190.1125
893.64433	9133.3125
897.44466	9147.3125
901.24235	9186.1125
905.0374	9137.9125
908.8298	9096.7125
912.61957	9063.6125
916.40671	9090.4125
920.19121	9131.8125
923.97308	9272.8125
927.75233	9487.8125
931.52895	9663.6125
935.30295	9461.0125
939.07433	9079.0125
942.84309	8770.4125
946.60924	8603.1125
950.37278	8526.1125
954.13371	8488.5125
957.89203	8434.0125
961.64774	8399.9125
965.40086	8333.0125
969.15137	8300.5125
972.89929	8266.9125
976.64461	8214.3125
980.38733	8207.4125
984.12747	8193.8125
987.86502	8226.6125
991.59999	8261.2125
995.33237	8307.1125
999.06217	8430.4125
1002.78939	8613.9125
1006.51404	8870.1125
1010.23611	9041.0125
1013.95561	9095.6125
1017.67255	9023.6125
1021.38692	8897.0125
1025.09872	8724.6125
1028.80796	8570.4125
1032.51465	8539.5125
1036.21877	8556.6125
1039.92035	8583.8125
1043.61937	8653.2125
1047.31584	8705.7125
1051.00976	8738.0125
1054.70114	8752.0125
1058.38998	8751.1125
1062.07627	8775.4125
1065.76003	8815.5125
1069.44126	8876.5125
1073.11995	9057.3125
1076.79611	9287.2125
1080.46974	9587.3125
1084.14085	9985.4125
1087.80943	10424.7125
1091.47549	10492.6125
1095.13903	10128.4125
1098.80005	9723.3125
1102.45857	9478.6125
1106.11456	9381.4125
1109.76805	9378.9125
1113.41903	9528.1125
1117.06751	9874.8125
1120.71348	10389.2125
1124.35696	11081.0125
1127.99793	11662.5125
1131.63641	11496.4125
1135.2724	10695.3125
1138.90589	10047.1125
1142.5369	9645.9125
1146.16542	9369.0125
1149.79145	9232.7125
1153.415	9164.6125
1157.03607	9218.6125
1160.65467	9399.4125
1164.27079	9814.3125
1167.88443	10455.4125
1171.49561	11440.3125
1175.10432	13015.6125
1178.71056	15133.9125
1182.31434	16784.6125
1185.91565	17074.0125
1189.51451	16343.8125
1193.11091	15271.9125
1196.70485	14163.3125
1200.29634	13264.9125
1203.88538	12416.3125
1207.47197	11477.7125
1211.05612	10686.2125
1214.63782	10149.8125
1218.21708	9826.1125
1221.79391	9702.2125
1225.36829	9697.4125
1228.94024	9706.1125
1232.50976	9706.1125
1236.07685	9698.8125
1239.6415	9741.3125
1243.20374	9758.7125
1246.76355	9815.2125
1250.32093	9935.3125
1253.8759	10139.3125
1257.42845	10504.4125
1260.97859	11020.7125
1264.52631	11577.6125
1268.07163	12040.5125
1271.61453	12303.4125
1275.15503	12435.8125
1278.69312	12363.3125
1282.22882	12422.1125
1285.76211	12758.1125
1289.29301	13406.5125
1292.82151	13982.2125
1296.34761	14557.1125
1299.87133	15447.8125
1303.39266	16962.3125
1306.9116	19438.7125
1310.42815	22242.3125
1313.94233	23571.1125
1317.45412	22305.4125
1320.96354	19847.0125
1324.47058	17462.4125
1327.97525	15620.6125
1331.47754	14397.8125
1334.97747	13890.1125
1338.47502	13857.6125
1341.97022	14458.1125
1345.46305	15826.1125
1348.95352	17699.3125
1352.44163	19711.2125
1355.92738	21970.0125
1359.41078	25488.3125
1362.89183	29363.5125
1366.37053	28808.4125
1369.84688	23395.0125
1373.32088	17847.0125
1376.79254	14676.6125
1380.26186	13238.8125
1383.72883	12376.2125
1387.19347	11614.2125
1390.65578	10962.0125
1394.11575	10532.0125
1397.57339	10297.5125
1401.0287	10202.7125
1404.48168	10116.8125
1407.93234	10044.6125
1411.38068	10030.2125
1414.82669	10113.7125
1418.27039	10164.2125
1421.71177	10188.2125
1425.15083	10027.7125
1428.58758	9960.2125
1432.02203	10090.6125
1435.45416	10321.5125
1438.88399	10373.5125
1442.31151	10293.7125
1445.73673	10250.2125
1449.15965	10234.6125
1452.58027	10178.7125
1455.9986	10079.7125
1459.41463	10062.5125
1462.82837	10166.1125
1466.23982	10363.8125
1469.64898	10597.3125
1473.05586	10798.8125
1476.46045	10906.5125
1479.86276	11107.3125
1483.26279	11389.8125
1486.66054	11859.5125
1490.05602	12564.0125
1493.44922	13604.0125
1496.84016	15188.3125
1500.22882	17608.9125
1503.61521	20880.8125
1506.99934	24684.5125
1510.38121	28015.6125
1513.76081	28973.0125
1517.13816	26533.3125
1520.51324	22129.9125
1523.88607	18034.4125
1527.25665	15304.9125
1530.62498	13705.9125
1533.99105	12766.2125
1537.35488	12070.9125
1540.71647	11596.8125
1544.07581	11224.3125
1547.4329	11040.0125
1550.78776	10959.0125
1554.14038	11014.3125
1557.49077	11285.2125
1560.83892	11704.1125
1564.18484	12382.4125
1567.52853	13206.3125
1570.86999	13872.8125
1574.20922	14239.8125
1577.54624	14085.9125
1580.88103	13093.2125
1584.2136	11707.0125
1587.54395	10811.2125
1590.87208	10661.2125
1594.19801	11082.8125
1597.52172	11764.8125
1600.84321	11910.9125
1604.16251	11408.7125
1607.47959	10742.2125
1610.79447	10180.8125
1614.10715	9580.5125
1617.41763	8981.3125
1620.7259	8584.3125
1624.03199	8388.9125
1627.33587	8423.2125
1630.63757	8676.7125
1633.93707	9257.8125
1637.23439	10235.4125
1640.52951	11856.7125
1643.82246	14240.2125
1647.11321	17056.3125
1650.40179	19110.8125
1653.68819	18674.9125
1656.97241	15772.5125
1660.25446	12435.9125
1663.53433	10065.0125
1666.81203	8639.6125
1670.08756	7849.5125
1673.36092	7409.0125
1676.63211	7103.6125
1679.90115	6900.3125
1683.16801	6785.1125
1686.43272	6700.0125
1689.69527	6604.0125
1692.95567	6554.8125
1696.2139	6495.9125
1699.46999	6462.8125
1702.72392	6430.5125
1705.97571	6413.9125
1709.22535	6407.1125
1712.47284	6422.1125
1715.71819	6434.2125
1718.96139	6442.0125
1722.20246	6418.4125
1725.44139	6367.7125
1728.67818	6314.8125
1731.91284	6232.3125
1735.14537	6191.5125
1738.37576	6171.6125
1741.60403	6142.4125
1744.83017	6114.9125
1748.05418	6098.8125
1751.27607	6051.0125
1754.49584	6035.4125
1757.71349	6007.3125
1760.92903	5985.3125
1764.14244	5967.4125
1767.35375	5957.9125
1770.56294	5948.8125
1773.77002	5933.0125
1776.97499	5928.2125
1780.17785	5891.0125
1783.37861	5880.3125
1786.57727	5815.4125
1789.77382	5823.8125
1792.96828	5797.1125
1796.16064	5783.1125
1799.3509	5782.8125
1802.53907	5770.2125
1805.72514	5742.8125
1808.90913	5687.2125
1812.09102	5672.4125
1815.27083	5635.7125
1818.44856	5627.2125
1821.6242	5608.8125
1824.79776	5579.1125
1827.96924	5576.6125
1831.13864	5580.4125
1834.30597	5556.7125
1837.47122	5532.9125
1840.6344	5538.9125
1843.7955	5516.6125
1846.95454	5496.1125
1850.11151	5486.0125
1853.26642	5487.4125
1856.41926	5458.9125
1859.57004	5441.7125
1862.71876	5442.2125
1865.86542	5441.6125
1869.01003	5420.0125
1872.15258	5384.6125
1875.29308	5386.6125
1878.43152	5364.6125
1881.56792	5349.2125
1884.70227	5339.2125
1887.83457	5347.1125
1890.96482	5316.2125
1894.09304	5284.6125
1897.21921	5281.9125
1900.34335	5280.8125
1903.46544	5262.0125
1906.58551	5264.3125
1909.70353	5244.6125
1912.81953	5241.9125
1915.93349	5238.6125
1919.04543	5222.7125
1922.15534	5179.8125
1925.26322	5170.3125
1928.36908	5157.0125
1931.47292	5140.3125
1934.57473	5111.1125
1937.67453	5067.9125
1940.77232	5047.2125
1943.86808	5036.9125
1946.96184	5016.2125
1950.05358	5017.2125
1953.14331	4969.1125
1956.23103	4971.1125
1959.31675	4949.7125
1962.40046	4934.0125
1965.48217	4942.1125
1968.56188	4935.7125
1971.63959	4899.3125
1974.7153	4890.1125
1977.78901	4876.5125
1980.86073	4847.7125
1983.93046	4825.7125
1986.99819	4789.9125
1990.06394	4767.6125
1993.1277	4731.1125
1996.18947	4725.5125
1999.24925	4708.4125
2002.30706	4686.6125
2005.36288	4642.6125
2008.41672	4654.2125
2011.46859	4619.7125
2014.51848	4611.9125
2017.56639	4583.6125
2020.61233	4585.9125
2023.6563	4555.6125
2026.6983	4540.7125
2029.73833	4514.2125
2032.7764	4516.3125
2035.8125	4493.2125
2038.84664	4482.9125
2041.87881	4480.3125
2044.90903	4474.7125
2047.93729	4456.8125
2050.96359	4453.5125
2053.98794	4435.1125
2057.01034	4440.9125
2060.03078	4417.5125
2063.04927	4413.3125
2066.06582	4395.7125
2069.08042	4389.3125
2072.09307	4383.1125
2075.10378	4373.0125
2078.11255	4382.2125
2081.11938	4369.0125
2084.12426	4371.4125
2087.12722	4364.8125
2090.12824	4362.7125
2093.12732	4376.7125
2096.12447	4366.8125
2099.11969	4370.1125
2102.11299	4366.1125
2105.10435	4360.6125
2108.09379	4369.5125
2111.08131	4370.8125
2114.0669	4384.3125
2117.05057	4372.2125
2120.03233	4383.4125
2123.01216	4391.6125
2125.99008	4399.7125
2128.96609	4392.0125
2131.94018	4387.6125
2134.91236	4389.2125
2137.88263	4382.5125
2140.851	4366.9125
2143.81746	4355.2125
2146.78201	4342.6125
2149.74466	4335.1125
2152.7054	4324.0125
2155.66425	4335.6125
2158.6212	4316.9125
2161.57625	4290.1125
2164.52941	4285.4125
2167.48067	4295.5125
2170.43004	4269.1125
2173.37752	4267.1125
2176.32311	4278.2125
2179.26681	4284.5125
2182.20863	4278.2125
2185.14856	4275.7125
2188.08661	4260.2125
2191.02278	4265.1125
2193.95707	4257.3125
2196.88948	4233.5125
2199.82001	4232.0125
2202.74867	4200.3125
2205.67545	4226.9125
2208.60037	4203.6125
2211.52341	4184.6125
2214.44458	4163.4125
2217.36388	4159.9125
2220.28132	4159.1125
2223.1969	4141.7125
2226.11061	4129.4125
2229.02246	4125.0125
2231.93245	4115.8125
2234.84058	4102.2125
2237.74686	4103.3125
2240.65128	4085.8125
2243.55385	4088.1125
2246.45456	4080.9125
2249.35343	4068.7125
2252.25044	4075.6125
2255.14561	4060.9125
2258.03893	4079.6125
2260.93041	4072.7125
2263.82004	4060.8125
2266.70783	4065.8125
2269.59378	4042.1125
2272.4779	4050.1125
2275.36017	4019.8125
2278.24061	4009.9125
2281.11922	4018.1125
2283.996	4005.2125
2286.87094	3974.2125
2289.74405	3957.3125
2292.61534	3939.1125
2295.4848	3925.8125
2298.35243	3926.3125
2301.21824	3927.3125
2304.08223	3916.5125
2306.94439	3911.4125
2309.80474	3910.9125
2312.66327	3896.9125
2315.51999	3899.0125
2318.37489	3888.0125
2321.22797	3873.4125
2324.07925	3859.9125
2326.92871	3855.4125
2329.77637	3848.2125
2332.62222	3840.4125
2335.46626	3837.0125
2338.3085	3819.9125
2341.14893	3829.2125
2343.98756	3807.6125
2346.8244	3823.3125
2349.65943	3827.3125
2352.49267	3819.6125
2355.32411	3833.7125
2358.15376	3850.3125
2360.98161	3842.2125
2363.80768	3838.5125
2366.63195	3850.4125
2369.45444	3861.0125
2372.27514	3854.2125
2375.09405	3865.0125
2377.91118	3819.4125
2380.72652	3819.1125
2383.54009	3798.5125
2386.35187	3772.2125
2389.16188	3765.6125
2391.97011	3728.5125
2394.77657	3716.2125
2397.58125	3695.7125
2400.38416	3679.4125
2403.18529	3679.6125
2405.98466	3674.3125
2408.78226	3659.9125
2411.57809	3661.8125
2414.37216	3645.9125
2417.16446	3643.4125
2419.955	3640.6125
2422.74378	3658.8125
2425.5308	3641.0125
2428.31606	3643.5125
2431.09956	3640.0125
2433.88131	3631.5125
2436.6613	3639.9125
2439.43954	3637.7125
2442.21603	3616.4125
2444.99077	3637.7125
2447.76377	3633.4125
2450.53501	3631.6125
2453.30451	3642.6125
2456.07226	3632.9125
2458.83827	3623.9125
2461.60254	3609.7125
2464.36507	3621.2125
2467.12586	3614.6125
2469.88492	3616.6125
2472.64224	3606.2125
2475.39782	3597.7125
2478.15167	3597.7125
2480.90379	3620.9125
2483.65417	3619.1125
2486.40283	3619.5125
2489.14976	3630.0125
2491.89497	3626.8125
2494.63845	3623.7125
2497.3802	3629.1125
2500.12024	3631.1125
2502.85855	3596.3125
2505.59514	3582.1125
2508.33002	3575.1125
2511.06318	3541.5125
2513.79462	3526.4125
2516.52435	3505.7125
2519.25237	3498.6125
2521.97867	3470.6125
2524.70327	3472.3125
2527.42616	3451.9125
2530.14734	3448.6125
2532.86681	3436.9125
2535.58458	3428.2125
2538.30065	3434.5125
2541.01501	3448.5125
2543.72768	3435.9125
2546.43864	3427.4125
2549.14791	3413.5125
2551.85548	3414.5125
2554.56136	3419.6125
2557.26554	3423.7125
2559.96803	3415.5125
2562.66883	3395.5125
2565.36794	3403.5125
2568.06536	3386.5125
2570.7611	3384.0125
2573.45514	3365.9125
2576.14751	3361.9125
2578.83819	3357.5125
2581.52719	3343.2125
2584.21451	3328.4125
2586.90015	3317.8125
2589.58411	3320.3125
2592.2664	3298.8125
2594.94701	3301.3125
2597.62594	3294.0125
2600.30321	3287.5125
2602.9788	3283.2125
2605.65273	3284.1125
2608.32498	3283.0125
2610.99557	3273.8125
2613.66449	3283.6125
2616.33175	3262.0125
2618.99734	3246.8125
2621.66128	3245.3125
2624.32355	3253.6125
2626.98416	3243.9125
2629.64311	3235.9125
2632.30041	3230.2125
2634.95605	3219.2125
2637.61004	3203.5125
2640.26238	3193.4125
2642.91306	3181.4125
2645.56209	3176.7125
2648.20948	3170.4125
2650.85521	3172.8125
2653.4993	3175.5125
2656.14175	3160.8125
2658.78255	3181.9125
2661.42171	3179.0125
2664.05923	3179.7125
2666.6951	3171.3125
2669.32934	3188.2125
2671.96194	3168.6125
2674.59291	3190.9125
2677.22224	3198.4125
2679.84993	3192.7125
2682.476	3181.2125
2685.10043	3176.4125
2687.72324	3163.9125
2690.34441	3173.5125
2692.96396	3157.2125
2695.58188	3160.2125
2698.19818	3157.7125
2700.81285	3160.9125
2703.4259	3146.5125
2706.03733	3127.2125
2708.64714	3143.2125
2711.25533	3153.2125
2713.86191	3141.5125
2716.46687	3159.7125
2719.07021	3171.4125
2721.67194	3156.2125
2724.27206	3151.5125
2726.87057	3148.1125
2729.46747	3140.3125
2732.06276	3150.3125
2734.65644	3128.0125
2737.24852	3137.4125
2739.83899	3126.9125
2742.42786	3112.7125
2745.01513	3109.9125
2747.60079	3105.3125
2750.18486	3089.8125
2752.76733	3106.8125
2755.3482	3105.7125
2757.92747	3097.2125
2760.50515	3074.9125
2763.08123	3063.6125
2765.65573	3041.9125
2768.22863	3032.4125
2770.79994	3033.1125
2773.36967	3030.7125
2775.9378	3037.5125
2778.50435	3021.8125
2781.06932	3018.4125
2783.6327	3016.7125
2786.1945	3021.3125
2788.75471	3002.4125
2791.31335	3000.4125
2793.87041	3013.7125
2796.42589	2992.5125
2798.97979	3007.8125
2801.53212	2994.7125
2804.08288	2990.5125
2806.63206	2981.6125
2809.17967	2981.0125
2811.72571	2967.7125
2814.27018	2983.6125
2816.81308	2974.0125
2819.35442	2965.3125
2821.89419	2980.0125
2824.43239	2971.4125
2826.96904	2975.8125
2829.50412	2970.5125
2832.03763	2968.4125
2834.56959	2955.3125
2837.1	2954.0125
2839.62884	2976.1125
2842.15613	2965.5125
2844.68186	2959.5125
2847.20604	2958.9125
2849.72867	2966.7125
2852.24974	2955.0125
2854.76927	2971.5125
2857.28724	2969.7125
2859.80367	2970.0125
2862.31855	2971.8125
2864.83189	2975.2125
2867.34368	2975.9125
2869.85393	2977.5125
2872.36264	2974.7125
2874.8698	2967.5125
2877.37543	2965.2125
2879.87952	2963.6125
2882.38207	2953.3125
2884.88308	2936.6125
2887.38256	2941.6125
2889.88051	2920.5125
2892.37692	2923.9125
2894.8718	2928.4125
2897.36515	2930.1125
2899.85698	2930.6125
2902.34727	2948.6125
2904.83604	2942.3125
2907.32328	2950.9125
2909.809	2955.2125
2912.29319	2968.1125
2914.77587	2970.7125
2917.25702	2982.3125
2919.73665	2979.9125
2922.21476	2956.0125
2924.69136	2955.0125
2927.16644	2949.0125
2929.64	2930.1125
2932.11205	2926.3125
2934.58258	2909.9125
2937.05161	2911.1125
2939.51912	2904.2125
2941.98513	2894.7125
2944.44962	2884.0125
2946.91261	2860.7125
2949.37409	2859.0125
2951.83407	2871.7125
2954.29254	2862.8125
2956.74951	2871.8125
2959.20498	2852.6125
2961.65895	2853.0125
2964.11142	2846.6125
2966.56239	2852.4125
2969.01186	2850.5125
2971.45984	2831.8125
2973.90632	2840.6125
2976.35131	2827.2125
2978.7948	2827.6125
2981.23681	2817.5125
2983.67732	2819.3125
2986.11635	2807.0125
2988.55388	2790.0125
2990.98993	2794.2125
2993.4245	2786.5125
2995.85758	2774.4125
2998.28917	2766.1125
3000.71928	2768.7125
3003.14791	2761.3125
3005.57506	2761.9125
3008.00073	2745.3125
3010.42493	2751.0125
3012.84764	2752.5125
3015.26888	2752.3125
3017.68865	2741.0125
3020.10694	2726.6125
3022.52376	2718.9125
3024.9391	2716.4125
3027.35298	2708.0125
3029.76539	2698.0125
3032.17632	2697.9125
3034.5858	2704.8125
3036.9938	2673.7125
3039.40034	2670.0125
3041.80542	2671.7125
3044.20903	2672.2125
3046.61118	2663.2125
3049.01187	2655.3125
3051.4111	2639.8125
3053.80888	2654.5125
3056.20519	2630.3125
3058.60005	2632.5125
3060.99345	2625.5125
3063.3854	2625.2125
3065.7759	2623.6125
3068.16494	2619.9125
3070.55254	2606.4125
3072.93868	2615.4125
3075.32338	2595.1125
3077.70662	2595.0125
3080.08842	2596.1125
3082.46878	2575.2125
3084.84769	2587.2125
3087.22515	2592.7125
3089.60118	2580.0125
3091.97576	2577.0125
3094.3489	2579.1125
3096.72061	2598.0125
3099.09087	2588.6125
3101.4597	2576.1125
3103.82709	2596.1125
3106.19305	2591.3125
3108.55757	2590.9125
3110.92066	2581.2125
3113.28232	2585.8125
3115.64255	2568.1125
3118.00134	2573.9125
3120.35871	2584.8125
3122.71466	2574.4125
3125.06917	2577.7125
3127.42226	2573.0125
3129.77393	2581.0125
3132.12417	2565.2125
3134.47299	2576.3125
3136.82039	2574.5125
3139.16636	2576.1125
3141.51092	2573.2125
3143.85406	2588.7125
3146.19579	2584.4125
3148.53609	2593.5125
3150.87499	2607.0125
3153.21246	2598.1125
3155.54853	2620.7125
3157.88318	2610.4125
3160.21642	2635.1125
3162.54826	2624.1125
3164.87868	2625.6125
3167.2077	2633.8125
3169.5353	2633.3125
3171.86151	2634.4125
3174.18631	2633.1125
3176.5097	2628.3125
3178.83169	2634.4125
3181.15228	2630.6125
3183.47147	2626.7125
3185.78926	2621.6125
3188.10565	2621.3125
3190.42065	2618.5125
3192.73424	2616.2125
3195.04645	2613.7125
3197.35725	2625.0125
3199.66667	2623.2125
3201.97469	2626.2125
3204.28132	2621.2125
3206.58656	2615.7125
3208.8904	2637.7125
3211.19287	2641.7125
3213.49394	2641.8125
3215.79363	2646.1125
3218.09193	2657.7125
3220.38884	2642.1125
3222.68438	2653.5125
3224.97853	2665.0125
3227.2713	2649.4125
3229.56269	2644.6125
3231.8527	2655.6125
3234.14133	2638.3125
3236.42858	2630.8125
3238.71446	2632.9125
3240.99896	2634.9125
3243.28209	2627.0125
3245.56384	2609.7125
3247.84423	2614.4125
3250.12324	2609.8125
3252.40088	2603.1125
3254.67715	2610.6125
3256.95205	2602.4125
3259.22558	2605.5125
3261.49775	2609.5125
3263.76855	2607.8125
3266.03799	2606.2125
3268.30606	2611.9125
3270.57277	2594.4125
3272.83812	2577.8125
3275.10211	2591.4125
3277.36474	2573.0125
3279.62601	2569.2125
3281.88593	2569.1125
3284.14448	2572.6125
3286.40168	2573.2125
3288.65753	2585.7125
3290.91202	2579.0125
3293.16516	2567.8125
3295.41695	2569.5125
3297.66738	2569.1125
3299.91647	2544.6125
3302.16421	2541.0125
3304.4106	2519.3125
3306.65564	2509.2125
3308.89933	2492.6125
3311.14169	2478.9125
3313.38269	2457.5125
3315.62236	2434.6125
3317.86068	2413.3125
3320.09766	2409.5125
3322.3333	2386.4125
3324.5676	2373.5125
3326.80056	2341.2125
3329.03219	2325.4125
3331.26248	-0.5875
3333.49143	1.0125
3335.71905	0.6125
