Data from AgNPs_FTO_APTES_UA_2uM_CRN_20uM_R6G_10uM_NaF_0.1M_Addition_RamanShift__5__14-03-35-189.txt Node

Date: Wed Feb 02 14:03:35 GMT 2022
User: TCL
Spectrometer: QEP01345
Trigger mode: 4
Integration Time (sec): 7.000000E0
Scans to average: 10
Electric dark correction enabled: true
Nonlinearity correction enabled: false
Boxcar width: 0
XAxis mode: Raman Shifts
Number of Pixels in Spectrum: 1044
>>>>>Begin Spectral Data<<<<<
46.04893	-0.975
50.45542	1.125
54.85868	-1.675
59.25871	0.325
63.6555	102.125
68.04907	107.525
72.43941	108.125
76.82654	119.325
81.21044	124.925
85.59113	129.025
89.96862	131.925
94.34289	138.325
98.71396	145.325
103.08183	151.025
107.4465	152.225
111.80798	154.925
116.16626	159.625
120.52136	164.125
124.87327	171.125
129.222	179.825
133.56755	195.525
137.90993	208.025
142.24913	230.625
146.58517	257.925
150.91804	301.525
155.24774	365.025
159.57429	450.125
163.89768	585.825
168.21792	769.025
172.53501	1047.625
176.84895	1464.725
181.15975	2048.025
185.46741	2887.925
189.77193	3953.425
194.07331	5286.025
198.37157	6796.025
202.6667	8394.425
206.9587	9974.025
211.24758	11522.125
215.53334	13104.625
219.81599	14787.125
224.09553	16635.625
228.37195	18637.225
232.64527	20824.425
236.91549	23133.425
241.18261	25398.825
245.44663	27523.225
249.70755	29382.525
253.96539	31073.625
258.22014	32483.125
262.4718	33638.325
266.72039	34500.525
270.96589	34891.025
275.20832	34911.325
279.44768	34755.325
283.68397	34455.825
287.91719	34157.825
292.14735	34055.225
296.37445	34138.525
300.59849	34202.425
304.81948	34367.725
309.03742	34424.225
313.25231	34168.025
317.46415	33641.625
321.67296	32901.925
325.87872	32221.725
330.08145	31891.125
334.28114	31820.825
338.47781	31905.425
342.67145	32218.125
346.86207	32681.325
351.04966	33209.925
355.23424	33813.625
359.4158	34321.525
363.59435	34765.725
367.76989	35009.925
371.94243	35192.625
376.11196	35268.325
380.27849	35347.925
384.44203	35486.125
388.60257	35807.325
392.76012	36266.625
396.91468	36860.025
401.06626	37456.425
405.21485	37766.125
409.36047	37703.325
413.50311	37404.325
417.64277	37375.125
421.77947	37674.125
425.9132	37920.425
430.04396	38081.125
434.17176	38291.225
438.2966	38479.325
442.41849	39006.625
446.53742	40094.825
450.6534	41352.325
454.76644	42132.125
458.87653	42354.225
462.98368	42021.625
467.08789	41383.825
471.18916	40593.925
475.2875	39922.425
479.38291	39577.925
483.4754	39314.725
487.56496	38922.225
491.6516	38296.825
495.73531	37592.725
499.81612	37202.925
503.89401	37346.125
507.96899	37495.625
512.04106	37429.825
516.11023	37009.725
520.1765	36460.225
524.23987	36008.225
528.30034	35664.325
532.35792	35354.125
536.41261	34851.925
540.46441	34434.225
544.51333	34431.425
548.55936	34901.325
552.60252	35642.825
556.64279	36715.625
560.6802	37541.825
564.71473	38109.425
568.7464	38861.125
572.7752	40255.325
576.80114	41909.225
580.82422	43685.925
584.84444	45914.425
588.86181	48719.025
592.87633	50864.525
596.888	50094.625
600.89682	46995.625
604.9028	45324.125
608.90594	46850.825
612.90624	48828.525
616.90371	45494.825
620.89834	38874.725
624.89015	35891.525
628.87913	35710.625
632.86528	35826.625
636.84862	35618.525
640.82913	34829.025
644.80683	33877.425
648.78172	33426.125
652.75379	33498.225
656.72306	33906.325
660.68952	34260.625
664.65319	33945.825
668.61405	33324.625
672.57211	33205.625
676.52738	33434.825
680.47986	33450.125
684.42955	33155.625
688.37646	32984.725
692.32058	33251.125
696.26192	33871.325
700.20048	34481.625
704.13626	34838.125
708.06928	34903.125
711.99952	34774.725
715.927	34796.825
719.85171	35020.425
723.77365	34844.825
727.69284	34171.825
731.60928	33500.825
735.52295	33208.725
739.43388	33218.425
743.34206	33352.925
747.24749	33624.425
751.15017	34055.625
755.05012	34792.425
758.94733	35930.525
762.8418	37666.725
766.73354	40026.625
770.62254	41933.325
774.50882	41821.025
778.39237	39721.025
782.27321	37191.625
786.15132	35142.925
790.02671	33926.425
793.89938	33333.125
797.76935	33116.225
801.6366	33108.625
805.50115	33103.325
809.36299	32846.525
813.22213	32526.625
817.07857	32334.825
820.93231	32172.025
824.78336	31909.725
828.63172	31741.825
832.47738	31637.025
836.32036	31633.325
840.16066	31742.825
843.99827	31816.125
847.8332	31785.925
851.66546	31650.225
855.49504	31622.925
859.32195	31644.025
863.1462	31534.925
866.96777	31410.825
870.78668	31279.225
874.60293	31321.025
878.41652	31309.625
882.22745	31485.025
886.03573	31560.325
889.84136	31534.625
893.64433	31362.925
897.44466	31270.225
901.24235	31171.125
905.0374	31063.825
908.8298	31016.925
912.61957	31162.025
916.40671	31576.425
920.19121	32069.825
923.97308	32639.725
927.75233	32677.225
931.52895	32274.625
935.30295	31575.825
939.07433	30866.025
942.84309	30447.325
946.60924	30232.425
950.37278	30205.625
954.13371	30221.425
957.89203	30271.925
961.64774	30172.425
965.40086	30267.925
969.15137	30197.025
972.89929	30005.225
976.64461	29867.925
980.38733	29821.425
984.12747	29886.625
987.86502	30057.625
991.59999	30355.725
995.33237	30740.325
999.06217	31443.825
1002.78939	32404.225
1006.51404	33197.825
1010.23611	33850.825
1013.95561	34228.425
1017.67255	34234.925
1021.38692	33773.825
1025.09872	33170.225
1028.80796	32998.125
1032.51465	33414.125
1036.21877	34016.425
1039.92035	34333.425
1043.61937	34170.425
1047.31584	33748.625
1051.00976	33216.025
1054.70114	32934.925
1058.38998	32963.425
1062.07627	33222.425
1065.76003	33597.725
1069.44126	34057.925
1073.11995	34681.725
1076.79611	35206.625
1080.46974	35461.925
1084.14085	35666.225
1087.80943	36077.425
1091.47549	36468.425
1095.13903	36617.125
1098.80005	36033.925
1102.45857	34996.225
1106.11456	34246.125
1109.76805	33835.125
1113.41903	33799.025
1117.06751	33988.025
1120.71348	34290.725
1124.35696	34663.725
1127.99793	35091.825
1131.63641	35384.425
1135.2724	35448.125
1138.90589	35446.125
1142.5369	35737.525
1146.16542	36196.525
1149.79145	36624.325
1153.415	37222.725
1157.03607	38090.725
1160.65467	39562.725
1164.27079	42046.625
1167.88443	44728.525
1171.49561	47153.525
1175.10432	50048.125
1178.71056	53798.425
1182.31434	57315.725
1185.91565	58901.525
1189.51451	58417.025
1193.11091	56871.825
1196.70485	55010.025
1200.29634	53163.425
1203.88538	51965.225
1207.47197	51654.225
1211.05612	51486.825
1214.63782	50658.225
1218.21708	49030.025
1221.79391	47312.825
1225.36829	45928.025
1228.94024	45002.025
1232.50976	44181.625
1236.07685	43413.125
1239.6415	42929.925
1243.20374	42910.825
1246.76355	43429.325
1250.32093	44234.825
1253.8759	45391.125
1257.42845	46745.225
1260.97859	48279.425
1264.52631	49841.025
1268.07163	51498.825
1271.61453	53184.425
1275.15503	54955.925
1278.69312	56978.525
1282.22882	59208.825
1285.76211	61787.425
1289.29301	64845.225
1292.82151	68406.325
1296.34761	72752.125
1299.87133	77804.425
1303.39266	82746.025
1306.9116	86717.625
1310.42815	89152.525
1313.94233	89941.025
1317.45412	89100.225
1320.96354	87454.325
1324.47058	86237.925
1327.97525	85683.625
1331.47754	85398.025
1334.97747	84782.425
1338.47502	83530.325
1341.97022	81454.025
1345.46305	78960.625
1348.95352	76963.525
1352.44163	76350.125
1355.92738	78098.925
1359.41078	81553.925
1362.89183	84102.725
1366.37053	83342.925
1369.84688	77489.325
1373.32088	68985.125
1376.79254	62716.625
1380.26186	60812.925
1383.72883	61521.625
1387.19347	62069.425
1390.65578	61603.025
1394.11575	61368.625
1397.57339	62319.925
1401.0287	63944.425
1404.48168	65319.725
1407.93234	65447.825
1411.38068	63877.625
1414.82669	61270.725
1418.27039	58271.925
1421.71177	55201.125
1425.15083	52734.425
1428.58758	51665.025
1432.02203	52249.025
1435.45416	54197.825
1438.88399	56455.625
1442.31151	58126.525
1445.73673	59083.425
1449.15965	59487.425
1452.58027	59441.325
1455.9986	58969.725
1459.41463	58987.825
1462.82837	59679.925
1466.23982	60899.825
1469.64898	62154.625
1473.05586	62961.025
1476.46045	63244.425
1479.86276	62786.025
1483.26279	61980.225
1486.66054	61418.025
1490.05602	61504.225
1493.44922	61839.325
1496.84016	62164.325
1500.22882	62323.425
1503.61521	62901.425
1506.99934	63650.425
1510.38121	64354.325
1513.76081	64478.225
1517.13816	63803.325
1520.51324	62920.225
1523.88607	62625.025
1527.25665	63139.225
1530.62498	63750.225
1533.99105	63617.525
1537.35488	62673.925
1540.71647	60916.125
1544.07581	58858.125
1547.4329	56743.525
1550.78776	55009.825
1554.14038	53648.325
1557.49077	52864.425
1560.83892	52319.025
1564.18484	51978.225
1567.52853	51872.425
1570.86999	52418.325
1574.20922	53676.125
1577.54624	55039.625
1580.88103	56213.525
1584.2136	57837.425
1587.54395	60863.025
1590.87208	65267.825
1594.19801	70108.825
1597.52172	73865.525
1600.84321	74137.125
1604.16251	69525.825
1607.47959	62486.625
1610.79447	55462.525
1614.10715	49632.625
1617.41763	45313.625
1620.7259	42619.125
1624.03199	41440.125
1627.33587	41755.725
1630.63757	43528.625
1633.93707	47169.825
1637.23439	53210.525
1640.52951	61914.325
1643.82246	72100.925
1647.11321	79665.125
1650.40179	80021.825
1653.68819	72351.125
1656.97241	60793.525
1660.25446	50171.325
1663.53433	42633.525
1666.81203	37934.725
1670.08756	34935.325
1673.36092	33185.525
1676.63211	31972.425
1679.90115	31165.725
1683.16801	30542.725
1686.43272	30122.125
1689.69527	29769.125
1692.95567	29501.425
1696.2139	29331.125
1699.46999	29210.025
1702.72392	29045.125
1705.97571	29004.925
1709.22535	28897.325
1712.47284	28773.025
1715.71819	28732.225
1718.96139	28631.225
1722.20246	28492.425
1725.44139	28348.525
1728.67818	28182.725
1731.91284	27987.525
1735.14537	27789.225
1738.37576	27640.425
1741.60403	27554.225
1744.83017	27499.725
1748.05418	27406.025
1751.27607	27348.425
1754.49584	27272.025
1757.71349	27294.825
1760.92903	27231.925
1764.14244	27186.925
1767.35375	27134.825
1770.56294	27130.725
1773.77002	27067.225
1776.97499	26952.125
1780.17785	26932.725
1783.37861	26876.525
1786.57727	26832.725
1789.77382	26769.225
1792.96828	26738.725
1796.16064	26684.425
1799.3509	26634.025
1802.53907	26569.525
1805.72514	26478.625
1808.90913	26405.225
1812.09102	26353.325
1815.27083	26329.725
1818.44856	26320.725
1821.6242	26259.525
1824.79776	26232.125
1827.96924	26168.125
1831.13864	26224.425
1834.30597	26251.325
1837.47122	26240.325
1840.6344	26214.425
1843.7955	26237.725
1846.95454	26223.525
1850.11151	26212.225
1853.26642	26196.225
1856.41926	26188.225
1859.57004	26162.025
1862.71876	26145.525
1865.86542	26158.125
1869.01003	26075.825
1872.15258	26060.725
1875.29308	25988.125
1878.43152	26002.825
1881.56792	26005.925
1884.70227	25968.625
1887.83457	25940.025
1890.96482	25902.525
1894.09304	25894.925
1897.21921	25854.225
1900.34335	25790.525
1903.46544	25760.925
1906.58551	25720.425
1909.70353	25723.625
1912.81953	25638.625
1915.93349	25568.325
1919.04543	25555.525
1922.15534	25475.225
1925.26322	25426.325
1928.36908	25384.825
1931.47292	25296.825
1934.57473	25220.725
1937.67453	25165.025
1940.77232	25095.725
1943.86808	25011.225
1946.96184	24974.625
1950.05358	24884.925
1953.14331	24852.325
1956.23103	24791.625
1959.31675	24699.425
1962.40046	24648.625
1965.48217	24600.425
1968.56188	24528.325
1971.63959	24440.525
1974.7153	24369.925
1977.78901	24313.725
1980.86073	24201.125
1983.93046	24127.925
1986.99819	24065.025
1990.06394	24005.825
1993.1277	23955.525
1996.18947	23875.625
1999.24925	23784.325
2002.30706	23699.925
2005.36288	23630.225
2008.41672	23609.025
2011.46859	23503.725
2014.51848	23449.725
2017.56639	23427.525
2020.61233	23380.825
2023.6563	23369.725
2026.6983	23323.625
2029.73833	23269.925
2032.7764	23215.225
2035.8125	23171.625
2038.84664	23134.125
2041.87881	23145.525
2044.90903	23072.725
2047.93729	23050.325
2050.96359	23018.625
2053.98794	23031.725
2057.01034	23037.125
2060.03078	22984.925
2063.04927	22949.825
2066.06582	22920.725
2069.08042	22900.325
2072.09307	22883.925
2075.10378	22843.825
2078.11255	22856.925
2081.11938	22821.625
2084.12426	22813.025
2087.12722	22755.125
2090.12824	22800.225
2093.12732	22819.925
2096.12447	22824.225
2099.11969	22847.425
2102.11299	22822.225
2105.10435	22825.725
2108.09379	22795.525
2111.08131	22853.625
2114.0669	22836.025
2117.05057	22881.725
2120.03233	22913.925
2123.01216	22939.925
2125.99008	22925.325
2128.96609	22911.425
2131.94018	22954.125
2134.91236	22950.425
2137.88263	22993.725
2140.851	22997.325
2143.81746	22978.125
2146.78201	22998.625
2149.74466	23014.425
2152.7054	22995.825
2155.66425	22957.225
2158.6212	23005.925
2161.57625	22956.325
2164.52941	22996.225
2167.48067	22946.425
2170.43004	22977.325
2173.37752	22876.825
2176.32311	22955.025
2179.26681	22929.225
2182.20863	22929.625
2185.14856	22950.625
2188.08661	22950.725
2191.02278	22995.625
2193.95707	22960.225
2196.88948	22955.925
2199.82001	22929.225
2202.74867	22949.925
2205.67545	22931.025
2208.60037	22852.425
2211.52341	22830.625
2214.44458	22831.825
2217.36388	22793.325
2220.28132	22753.425
2223.1969	22686.525
2226.11061	22690.025
2229.02246	22644.025
2231.93245	22677.025
2234.84058	22621.525
2237.74686	22586.625
2240.65128	22599.025
2243.55385	22543.125
2246.45456	22500.725
2249.35343	22456.925
2252.25044	22405.525
2255.14561	22392.725
2258.03893	22335.625
2260.93041	22304.425
2263.82004	22208.625
2266.70783	22134.725
2269.59378	22062.725
2272.4779	22000.925
2275.36017	21957.925
2278.24061	21936.825
2281.11922	21901.125
2283.996	21911.825
2286.87094	21858.325
2289.74405	21828.325
2292.61534	21837.125
2295.4848	21833.225
2298.35243	21823.025
2301.21824	21831.525
2304.08223	21841.825
2306.94439	21894.925
2309.80474	21846.425
2312.66327	21860.525
2315.51999	21836.025
2318.37489	21848.325
2321.22797	21797.325
2324.07925	21749.925
2326.92871	21759.625
2329.77637	21737.925
2332.62222	21751.025
2335.46626	21696.125
2338.3085	21665.825
2341.14893	21668.525
2343.98756	21701.725
2346.8244	21692.825
2349.65943	21686.925
2352.49267	21687.725
2355.32411	21709.425
2358.15376	21662.825
2360.98161	21654.425
2363.80768	21608.225
2366.63195	21592.925
2369.45444	21511.125
2372.27514	21526.925
2375.09405	21491.325
2377.91118	21497.725
2380.72652	21471.225
2383.54009	21383.925
2386.35187	21383.825
2389.16188	21333.525
2391.97011	21317.925
2394.77657	21276.525
2397.58125	21237.525
2400.38416	21262.425
2403.18529	21201.525
2405.98466	21228.125
2408.78226	21146.925
2411.57809	21147.425
2414.37216	21120.025
2417.16446	21103.525
2419.955	21101.325
2422.74378	21094.725
2425.5308	21084.425
2428.31606	21079.925
2431.09956	21008.325
2433.88131	20999.725
2436.6613	21035.925
2439.43954	20999.825
2442.21603	21012.325
2444.99077	20968.925
2447.76377	21009.525
2450.53501	20957.025
2453.30451	20961.125
2456.07226	20995.425
2458.83827	20970.925
2461.60254	21021.725
2464.36507	20979.425
2467.12586	20991.825
2469.88492	20972.325
2472.64224	20932.925
2475.39782	20958.725
2478.15167	21014.925
2480.90379	21031.625
2483.65417	20985.225
2486.40283	20981.825
2489.14976	21047.725
2491.89497	21034.625
2494.63845	21064.125
2497.3802	21053.225
2500.12024	21038.625
2502.85855	21030.525
2505.59514	21047.725
2508.33002	21028.125
2511.06318	21037.625
2513.79462	20970.325
2516.52435	20987.725
2519.25237	20978.825
2521.97867	20970.725
2524.70327	20977.925
2527.42616	20963.525
2530.14734	20972.325
2532.86681	20913.625
2535.58458	20926.625
2538.30065	20912.525
2541.01501	20891.825
2543.72768	20843.025
2546.43864	20867.825
2549.14791	20851.525
2551.85548	20853.825
2554.56136	20859.825
2557.26554	20883.725
2559.96803	20829.925
2562.66883	20829.025
2565.36794	20791.625
2568.06536	20818.225
2570.7611	20764.025
2573.45514	20788.425
2576.14751	20806.725
2578.83819	20774.325
2581.52719	20793.125
2584.21451	20739.325
2586.90015	20754.525
2589.58411	20720.425
2592.2664	20717.025
2594.94701	20726.825
2597.62594	20736.125
2600.30321	20706.325
2602.9788	20695.125
2605.65273	20662.225
2608.32498	20662.525
2610.99557	20696.325
2613.66449	20710.725
2616.33175	20698.725
2618.99734	20723.825
2621.66128	20713.125
2624.32355	20681.025
2626.98416	20705.225
2629.64311	20701.125
2632.30041	20694.325
2634.95605	20670.025
2637.61004	20628.825
2640.26238	20624.425
2642.91306	20603.325
2645.56209	20599.725
2648.20948	20613.125
2650.85521	20608.325
2653.4993	20645.725
2656.14175	20644.725
2658.78255	20682.525
2661.42171	20666.525
2664.05923	20746.425
2666.6951	20698.825
2669.32934	20735.525
2671.96194	20743.525
2674.59291	20740.725
2677.22224	20752.525
2679.84993	20770.025
2682.476	20733.625
2685.10043	20711.525
2687.72324	20729.525
2690.34441	20686.425
2692.96396	20718.925
2695.58188	20702.125
2698.19818	20689.625
2700.81285	20708.625
2703.4259	20718.925
2706.03733	20780.425
2708.64714	20780.125
2711.25533	20809.225
2713.86191	20756.325
2716.46687	20791.125
2719.07021	20779.925
2721.67194	20828.625
2724.27206	20817.025
2726.87057	20848.625
2729.46747	20843.525
2732.06276	20869.325
2734.65644	20866.825
2737.24852	20843.025
2739.83899	20861.125
2742.42786	20873.325
2745.01513	20824.725
2747.60079	20847.125
2750.18486	20848.425
2752.76733	20879.925
2755.3482	20855.525
2757.92747	20922.525
2760.50515	20881.625
2763.08123	20903.325
2765.65573	20867.525
2768.22863	20854.325
2770.79994	20826.625
2773.36967	20809.825
2775.9378	20870.025
2778.50435	20848.725
2781.06932	20836.725
2783.6327	20880.525
2786.1945	20855.725
2788.75471	20834.825
2791.31335	20792.125
2793.87041	20737.225
2796.42589	20719.225
2798.97979	20715.125
2801.53212	20699.125
2804.08288	20700.725
2806.63206	20667.425
2809.17967	20594.725
2811.72571	20591.325
2814.27018	20546.025
2816.81308	20520.125
2819.35442	20472.125
2821.89419	20407.825
2824.43239	20408.225
2826.96904	20426.125
2829.50412	20422.425
2832.03763	20392.525
2834.56959	20370.425
2837.1	20345.825
2839.62884	20373.125
2842.15613	20370.625
2844.68186	20420.325
2847.20604	20420.925
2849.72867	20423.425
2852.24974	20385.925
2854.76927	20382.825
2857.28724	20351.225
2859.80367	20348.325
2862.31855	20324.025
2864.83189	20292.325
2867.34368	20225.625
2869.85393	20236.925
2872.36264	20218.125
2874.8698	20225.825
2877.37543	20195.725
2879.87952	20208.925
2882.38207	20249.025
2884.88308	20232.025
2887.38256	20288.625
2889.88051	20286.825
2892.37692	20298.725
2894.8718	20308.025
2897.36515	20316.625
2899.85698	20316.925
2902.34727	20325.125
2904.83604	20349.225
2907.32328	20403.325
2909.809	20356.525
2912.29319	20327.225
2914.77587	20317.525
2917.25702	20292.625
2919.73665	20320.425
2922.21476	20331.625
2924.69136	20365.825
2927.16644	20391.625
2929.64	20379.925
2932.11205	20381.825
2934.58258	20281.525
2937.05161	20337.425
2939.51912	20319.725
2941.98513	20285.325
2944.44962	20244.725
2946.91261	20195.225
2949.37409	20226.725
2951.83407	20222.425
2954.29254	20190.125
2956.74951	20169.325
2959.20498	20154.925
2961.65895	20120.125
2964.11142	20105.925
2966.56239	20077.225
2969.01186	20069.625
2971.45984	20011.725
2973.90632	19976.125
2976.35131	19912.825
2978.7948	19858.425
2981.23681	19834.525
2983.67732	19820.225
2986.11635	19766.725
2988.55388	19705.425
2990.98993	19661.325
2993.4245	19605.325
2995.85758	19613.925
2998.28917	19510.325
3000.71928	19491.625
3003.14791	19467.125
3005.57506	19448.525
3008.00073	19385.025
3010.42493	19380.425
3012.84764	19335.025
3015.26888	19309.425
3017.68865	19267.625
3020.10694	19220.325
3022.52376	19181.925
3024.9391	19163.625
3027.35298	19138.525
3029.76539	19082.725
3032.17632	19113.425
3034.5858	19031.125
3036.9938	19059.525
3039.40034	19018.725
3041.80542	19066.625
3044.20903	19040.925
3046.61118	18989.325
3049.01187	18971.325
3051.4111	18941.925
3053.80888	18883.925
3056.20519	18883.925
3058.60005	18811.325
3060.99345	18791.625
3063.3854	18714.725
3065.7759	18689.725
3068.16494	18605.625
3070.55254	18530.925
3072.93868	18503.425
3075.32338	18496.925
3077.70662	18455.925
3080.08842	18405.325
3082.46878	18377.625
3084.84769	18368.925
3087.22515	18343.425
3089.60118	18356.825
3091.97576	18325.225
3094.3489	18297.925
3096.72061	18264.225
3099.09087	18263.325
3101.4597	18244.125
3103.82709	18217.125
3106.19305	18205.125
3108.55757	18204.725
3110.92066	18118.525
3113.28232	18081.825
3115.64255	18059.925
3118.00134	17963.225
3120.35871	18012.325
3122.71466	17934.025
3125.06917	17920.125
3127.42226	17874.725
3129.77393	17924.425
3132.12417	17857.525
3134.47299	17844.525
3136.82039	17828.025
3139.16636	17813.325
3141.51092	17838.625
3143.85406	17817.525
3146.19579	17822.225
3148.53609	17770.225
3150.87499	17786.725
3153.21246	17765.025
3155.54853	17777.525
3157.88318	17766.925
3160.21642	17743.525
3162.54826	17743.625
3164.87868	17747.225
3167.2077	17703.825
3169.5353	17695.025
3171.86151	17681.025
3174.18631	17669.625
3176.5097	17658.725
3178.83169	17626.025
3181.15228	17644.125
3183.47147	17576.125
3185.78926	17621.825
3188.10565	17603.025
3190.42065	17596.025
3192.73424	17546.425
3195.04645	17565.325
3197.35725	17525.525
3199.66667	17515.025
3201.97469	17541.125
3204.28132	17484.725
3206.58656	17506.825
3208.8904	17486.425
3211.19287	17506.625
3213.49394	17486.225
3215.79363	17479.525
3218.09193	17460.625
3220.38884	17467.725
3222.68438	17509.025
3224.97853	17471.025
3227.2713	17471.825
3229.56269	17427.425
3231.8527	17393.525
3234.14133	17369.825
3236.42858	17350.625
3238.71446	17327.825
3240.99896	17310.225
3243.28209	17324.825
3245.56384	17266.425
3247.84423	17285.925
3250.12324	17260.925
3252.40088	17248.425
3254.67715	17218.625
3256.95205	17188.225
3259.22558	17184.125
3261.49775	17100.425
3263.76855	17068.825
3266.03799	17025.425
3268.30606	17007.025
3270.57277	16989.825
3272.83812	17000.125
3275.10211	16980.325
3277.36474	16951.025
3279.62601	16959.525
3281.88593	16936.125
3284.14448	16933.725
3286.40168	16951.125
3288.65753	16884.525
3290.91202	16898.425
3293.16516	16842.725
3295.41695	16815.625
3297.66738	16720.725
3299.91647	16646.025
3302.16421	16518.125
3304.4106	16476.425
3306.65564	16393.825
3308.89933	16298.425
3311.14169	16181.625
3313.38269	16038.325
3315.62236	15957.525
3317.86068	15827.425
3320.09766	15643.225
3322.3333	15483.025
3324.5676	15476.325
3326.80056	15296.025
3329.03219	15166.125
3331.26248	3.525
3333.49143	-0.975
3335.71905	-1.875
