Data from AgNPs_FTO_APTES_UA_2uM_CRN_2uM_R6G_10uM_NaF_0.1M_Addition_RamanShift__8__12-08-05-054.txt Node

Date: Wed Feb 02 12:08:05 GMT 2022
User: TCL
Spectrometer: QEP01345
Trigger mode: 4
Integration Time (sec): 7.000000E0
Scans to average: 10
Electric dark correction enabled: true
Nonlinearity correction enabled: false
Boxcar width: 0
XAxis mode: Raman Shifts
Number of Pixels in Spectrum: 1044
>>>>>Begin Spectral Data<<<<<
46.04893	1.2125
50.45542	-0.5875
54.85868	-1.8875
59.25871	-1.1875
63.6555	107.2125
68.04907	111.6125
72.43941	119.0125
76.82654	125.7125
81.21044	129.8125
85.59113	131.3125
89.96862	133.9125
94.34289	144.4125
98.71396	147.3125
103.08183	152.0125
107.4465	157.4125
111.80798	161.4125
116.16626	164.1125
120.52136	174.2125
124.87327	185.9125
129.222	193.5125
133.56755	209.8125
137.90993	226.2125
142.24913	251.2125
146.58517	286.8125
150.91804	337.6125
155.24774	404.6125
159.57429	514.0125
163.89768	663.2125
168.21792	878.7125
172.53501	1204.4125
176.84895	1688.0125
181.15975	2371.7125
185.46741	3323.0125
189.77193	4573.0125
194.07331	6122.7125
198.37157	7890.0125
202.6667	9722.8125
206.9587	11554.4125
211.24758	13356.3125
215.53334	15151.9125
219.81599	17080.8125
224.09553	19239.8125
228.37195	21543.1125
232.64527	24143.6125
236.91549	26826.2125
241.18261	29463.1125
245.44663	31960.6125
249.70755	34121.6125
253.96539	36071.1125
258.22014	37689.2125
262.4718	39013.0125
266.72039	39902.0125
270.96589	40242.4125
275.20832	40251.1125
279.44768	39957.7125
283.68397	39483.8125
287.91719	39181.7125
292.14735	39000.9125
296.37445	38933.4125
300.59849	39001.6125
304.81948	39197.4125
309.03742	39315.6125
313.25231	39219.4125
317.46415	38640.3125
321.67296	37891.9125
325.87872	37242.8125
330.08145	36814.8125
334.28114	36677.0125
338.47781	36827.2125
342.67145	37138.3125
346.86207	37682.0125
351.04966	38297.8125
355.23424	39042.1125
359.4158	39661.6125
363.59435	40115.2125
367.76989	40465.5125
371.94243	40562.9125
376.11196	40580.1125
380.27849	40615.3125
384.44203	40700.9125
388.60257	41078.5125
392.76012	41551.2125
396.91468	42271.9125
401.06626	42925.3125
405.21485	43367.8125
409.36047	43222.5125
413.50311	42774.0125
417.64277	42802.1125
421.77947	43147.2125
425.9132	43442.4125
430.04396	43629.5125
434.17176	43733.4125
438.2966	43782.6125
442.41849	44260.5125
446.53742	45365.6125
450.6534	46546.7125
454.76644	47329.6125
458.87653	47473.4125
462.98368	47290.0125
467.08789	46726.6125
471.18916	45903.5125
475.2875	45161.5125
479.38291	44768.9125
483.4754	44587.0125
487.56496	44199.3125
491.6516	43584.5125
495.73531	42939.2125
499.81612	42633.2125
503.89401	42757.1125
507.96899	43018.8125
512.04106	42977.2125
516.11023	42593.9125
520.1765	41983.5125
524.23987	41414.4125
528.30034	40941.6125
532.35792	40434.5125
536.41261	39929.7125
540.46441	39552.1125
544.51333	39486.8125
548.55936	39870.1125
552.60252	40742.8125
556.64279	41742.9125
560.6802	42720.4125
564.71473	43298.2125
568.7464	44151.9125
572.7752	45745.3125
576.80114	47790.1125
580.82422	50057.1125
584.84444	52884.3125
588.86181	56510.3125
592.87633	59323.9125
596.888	58414.3125
600.89682	54165.8125
604.9028	51765.2125
608.90594	53382.8125
612.90624	55694.9125
616.90371	52131.6125
620.89834	44629.2125
624.89015	41264.0125
628.87913	41001.2125
632.86528	41356.3125
636.84862	41214.9125
640.82913	40283.6125
644.80683	39161.7125
648.78172	38597.1125
652.75379	38701.0125
656.72306	39188.3125
660.68952	39605.8125
664.65319	39244.7125
668.61405	38565.7125
672.57211	38458.9125
676.52738	38716.6125
680.47986	38657.4125
684.42955	38289.9125
688.37646	38210.9125
692.32058	38463.6125
696.26192	39166.0125
700.20048	39855.1125
704.13626	40263.1125
708.06928	40365.2125
711.99952	40301.6125
715.927	40285.7125
719.85171	40472.0125
723.77365	40176.8125
727.69284	39395.3125
731.60928	38601.3125
735.52295	38271.4125
739.43388	38310.4125
743.34206	38432.9125
747.24749	38777.4125
751.15017	39272.0125
755.05012	40060.0125
758.94733	41325.6125
762.8418	43260.5125
766.73354	45979.5125
770.62254	48267.1125
774.50882	48230.7125
778.39237	45921.8125
782.27321	43069.9125
786.15132	40855.0125
790.02671	39429.4125
793.89938	38644.4125
797.76935	38341.3125
801.6366	38287.8125
805.50115	38216.5125
809.36299	37999.7125
813.22213	37706.3125
817.07857	37495.3125
820.93231	37315.1125
824.78336	37006.5125
828.63172	36648.6125
832.47738	36553.1125
836.32036	36627.9125
840.16066	36598.0125
843.99827	36693.9125
847.8332	36636.0125
851.66546	36619.8125
855.49504	36737.0125
859.32195	36661.0125
863.1462	36512.9125
866.96777	36404.9125
870.78668	36373.2125
874.60293	36373.4125
878.41652	36482.6125
882.22745	36580.2125
886.03573	36763.0125
889.84136	36776.9125
893.64433	36689.0125
897.44466	36484.6125
901.24235	36409.7125
905.0374	36335.4125
908.8298	36317.2125
912.61957	36383.4125
916.40671	36743.3125
920.19121	37405.9125
923.97308	37973.0125
927.75233	38067.9125
931.52895	37584.5125
935.30295	36770.8125
939.07433	35908.9125
942.84309	35310.6125
946.60924	35053.6125
950.37278	34938.2125
954.13371	34933.1125
957.89203	35000.4125
961.64774	34960.4125
965.40086	35039.5125
969.15137	34917.1125
972.89929	34700.0125
976.64461	34488.7125
980.38733	34456.1125
984.12747	34429.0125
987.86502	34581.9125
991.59999	34813.0125
995.33237	35202.3125
999.06217	35729.3125
1002.78939	36604.5125
1006.51404	37491.9125
1010.23611	38343.3125
1013.95561	38836.2125
1017.67255	38898.9125
1021.38692	38388.0125
1025.09872	37609.3125
1028.80796	37078.8125
1032.51465	37118.3125
1036.21877	37398.6125
1039.92035	37693.8125
1043.61937	37723.3125
1047.31584	37608.9125
1051.00976	37410.2125
1054.70114	37386.4125
1058.38998	37618.4125
1062.07627	37949.8125
1065.76003	38452.9125
1069.44126	39097.1125
1073.11995	39915.4125
1076.79611	40555.7125
1080.46974	40906.1125
1084.14085	41224.8125
1087.80943	41732.8125
1091.47549	42193.3125
1095.13903	42354.1125
1098.80005	41666.5125
1102.45857	40529.2125
1106.11456	39473.3125
1109.76805	38910.0125
1113.41903	38740.5125
1117.06751	38780.3125
1120.71348	39069.0125
1124.35696	39497.6125
1127.99793	39966.7125
1131.63641	40355.4125
1135.2724	40348.2125
1138.90589	40346.1125
1142.5369	40603.4125
1146.16542	41108.6125
1149.79145	41638.3125
1153.415	42204.0125
1157.03607	42960.7125
1160.65467	44498.3125
1164.27079	46948.0125
1167.88443	49755.7125
1171.49561	52528.5125
1175.10432	55555.9125
1178.71056	59581.6125
1182.31434	63288.2125
1185.91565	65146.9125
1189.51451	64627.6125
1193.11091	63037.4125
1196.70485	61031.9125
1200.29634	58851.9125
1203.88538	57494.7125
1207.47197	57226.4125
1211.05612	57189.0125
1214.63782	56389.5125
1218.21708	54689.7125
1221.79391	52501.5125
1225.36829	50923.7125
1228.94024	50010.0125
1232.50976	49233.2125
1236.07685	48500.0125
1239.6415	47901.5125
1243.20374	47814.8125
1246.76355	48161.7125
1250.32093	49003.2125
1253.8759	50177.5125
1257.42845	51751.5125
1260.97859	53477.5125
1264.52631	55289.8125
1268.07163	57014.5125
1271.61453	58867.7125
1275.15503	60751.2125
1278.69312	62756.3125
1282.22882	65227.1125
1285.76211	68220.4125
1289.29301	71459.1125
1292.82151	75251.6125
1296.34761	79661.6125
1299.87133	84800.3125
1303.39266	89853.2125
1306.9116	93834.0125
1310.42815	96233.6125
1313.94233	96897.5125
1317.45412	95755.7125
1320.96354	93999.4125
1324.47058	92955.6125
1327.97525	92461.1125
1331.47754	92242.7125
1334.97747	91556.6125
1338.47502	90123.6125
1341.97022	88114.7125
1345.46305	85832.0125
1348.95352	84010.3125
1352.44163	83397.2125
1355.92738	84926.5125
1359.41078	88628.6125
1362.89183	91780.8125
1366.37053	91454.0125
1369.84688	85606.3125
1373.32088	76262.2125
1376.79254	69171.0125
1380.26186	66732.7125
1383.72883	67207.0125
1387.19347	67596.1125
1390.65578	66922.0125
1394.11575	66627.8125
1397.57339	67499.6125
1401.0287	69079.3125
1404.48168	70317.3125
1407.93234	70132.0125
1411.38068	68311.7125
1414.82669	65606.4125
1418.27039	62458.0125
1421.71177	59419.8125
1425.15083	57162.6125
1428.58758	56326.7125
1432.02203	57177.0125
1435.45416	59237.4125
1438.88399	61524.3125
1442.31151	63010.0125
1445.73673	63586.2125
1449.15965	63842.7125
1452.58027	63695.3125
1455.9986	63350.4125
1459.41463	63504.7125
1462.82837	64463.7125
1466.23982	65733.5125
1469.64898	66884.3125
1473.05586	67530.3125
1476.46045	67564.8125
1479.86276	67030.0125
1483.26279	66282.0125
1486.66054	65926.1125
1490.05602	66192.7125
1493.44922	66999.0125
1496.84016	67739.7125
1500.22882	68529.5125
1503.61521	69533.2125
1506.99934	70671.1125
1510.38121	71561.9125
1513.76081	71722.8125
1517.13816	70925.1125
1520.51324	69975.8125
1523.88607	69590.1125
1527.25665	70000.6125
1530.62498	70511.9125
1533.99105	70113.1125
1537.35488	68771.3125
1540.71647	66713.3125
1544.07581	64219.1125
1547.4329	61817.9125
1550.78776	59855.0125
1554.14038	58625.8125
1557.49077	57856.7125
1560.83892	57275.8125
1564.18484	57035.6125
1567.52853	56994.0125
1570.86999	57504.4125
1574.20922	58897.8125
1577.54624	60213.8125
1580.88103	61294.7125
1584.2136	62876.9125
1587.54395	65911.4125
1590.87208	70319.8125
1594.19801	75173.9125
1597.52172	78999.1125
1600.84321	79187.1125
1604.16251	74246.7125
1607.47959	66797.1125
1610.79447	59668.8125
1614.10715	53711.2125
1617.41763	49256.4125
1620.7259	46425.4125
1624.03199	45110.5125
1627.33587	45431.6125
1630.63757	47245.6125
1633.93707	51188.4125
1637.23439	57623.3125
1640.52951	67158.8125
1643.82246	78474.6125
1647.11321	87084.3125
1650.40179	87669.6125
1653.68819	79415.1125
1656.97241	66683.9125
1660.25446	55206.7125
1663.53433	46953.6125
1666.81203	41826.9125
1670.08756	38751.7125
1673.36092	36852.1125
1676.63211	35531.5125
1679.90115	34702.3125
1683.16801	33987.2125
1686.43272	33575.6125
1689.69527	33200.4125
1692.95567	32921.8125
1696.2139	32670.5125
1699.46999	32596.4125
1702.72392	32398.6125
1705.97571	32320.2125
1709.22535	32183.0125
1712.47284	32122.0125
1715.71819	32077.6125
1718.96139	31925.5125
1722.20246	31844.8125
1725.44139	31682.6125
1728.67818	31509.2125
1731.91284	31299.8125
1735.14537	31074.6125
1738.37576	30873.7125
1741.60403	30784.8125
1744.83017	30653.4125
1748.05418	30592.1125
1751.27607	30478.7125
1754.49584	30428.6125
1757.71349	30411.0125
1760.92903	30362.7125
1764.14244	30361.7125
1767.35375	30343.5125
1770.56294	30219.3125
1773.77002	30153.1125
1776.97499	30152.5125
1780.17785	30016.1125
1783.37861	29995.2125
1786.57727	29899.1125
1789.77382	29867.0125
1792.96828	29802.4125
1796.16064	29724.5125
1799.3509	29658.0125
1802.53907	29607.1125
1805.72514	29499.9125
1808.90913	29422.2125
1812.09102	29411.3125
1815.27083	29326.0125
1818.44856	29344.5125
1821.6242	29327.0125
1824.79776	29301.9125
1827.96924	29286.7125
1831.13864	29295.3125
1834.30597	29252.3125
1837.47122	29243.9125
1840.6344	29243.3125
1843.7955	29280.4125
1846.95454	29231.3125
1850.11151	29224.0125
1853.26642	29178.5125
1856.41926	29147.7125
1859.57004	29130.0125
1862.71876	29121.9125
1865.86542	29051.6125
1869.01003	28987.6125
1872.15258	28962.7125
1875.29308	28903.8125
1878.43152	28863.5125
1881.56792	28794.2125
1884.70227	28830.0125
1887.83457	28828.5125
1890.96482	28779.7125
1894.09304	28709.8125
1897.21921	28643.5125
1900.34335	28643.8125
1903.46544	28568.4125
1906.58551	28538.0125
1909.70353	28474.9125
1912.81953	28387.8125
1915.93349	28302.0125
1919.04543	28235.3125
1922.15534	28164.7125
1925.26322	28098.6125
1928.36908	27992.7125
1931.47292	27967.2125
1934.57473	27836.0125
1937.67453	27742.1125
1940.77232	27690.6125
1943.86808	27620.7125
1946.96184	27566.5125
1950.05358	27492.3125
1953.14331	27390.1125
1956.23103	27350.1125
1959.31675	27276.3125
1962.40046	27159.1125
1965.48217	27080.7125
1968.56188	26967.4125
1971.63959	26933.5125
1974.7153	26799.7125
1977.78901	26744.2125
1980.86073	26639.6125
1983.93046	26575.4125
1986.99819	26427.5125
1990.06394	26376.0125
1993.1277	26300.0125
1996.18947	26238.1125
1999.24925	26159.3125
2002.30706	26094.9125
2005.36288	26000.9125
2008.41672	25960.1125
2011.46859	25862.1125
2014.51848	25805.9125
2017.56639	25765.8125
2020.61233	25714.0125
2023.6563	25667.3125
2026.6983	25599.1125
2029.73833	25526.4125
2032.7764	25463.9125
2035.8125	25417.9125
2038.84664	25354.5125
2041.87881	25378.1125
2044.90903	25295.3125
2047.93729	25249.2125
2050.96359	25203.8125
2053.98794	25161.4125
2057.01034	25136.0125
2060.03078	25142.3125
2063.04927	25079.2125
2066.06582	25081.5125
2069.08042	25049.2125
2072.09307	24981.6125
2075.10378	25006.8125
2078.11255	25016.3125
2081.11938	24999.6125
2084.12426	24940.5125
2087.12722	24965.4125
2090.12824	24920.0125
2093.12732	24948.4125
2096.12447	24926.0125
2099.11969	24928.1125
2102.11299	24942.5125
2105.10435	24969.4125
2108.09379	24976.9125
2111.08131	24992.0125
2114.0669	24957.9125
2117.05057	25014.5125
2120.03233	24993.7125
2123.01216	25041.5125
2125.99008	25030.4125
2128.96609	25037.3125
2131.94018	25018.9125
2134.91236	25007.1125
2137.88263	24986.8125
2140.851	24986.3125
2143.81746	24980.1125
2146.78201	24970.0125
2149.74466	24998.2125
2152.7054	25004.8125
2155.66425	24976.7125
2158.6212	24987.0125
2161.57625	25005.0125
2164.52941	24991.3125
2167.48067	24950.4125
2170.43004	24922.0125
2173.37752	24913.2125
2176.32311	24928.8125
2179.26681	24961.6125
2182.20863	24985.2125
2185.14856	24974.6125
2188.08661	25000.0125
2191.02278	25011.8125
2193.95707	24947.9125
2196.88948	24900.7125
2199.82001	24879.3125
2202.74867	24853.6125
2205.67545	24844.5125
2208.60037	24772.5125
2211.52341	24758.2125
2214.44458	24712.2125
2217.36388	24652.5125
2220.28132	24609.6125
2223.1969	24556.3125
2226.11061	24559.3125
2229.02246	24494.1125
2231.93245	24530.1125
2234.84058	24523.2125
2237.74686	24433.8125
2240.65128	24455.4125
2243.55385	24350.6125
2246.45456	24327.8125
2249.35343	24271.5125
2252.25044	24195.9125
2255.14561	24126.8125
2258.03893	24100.2125
2260.93041	24032.1125
2263.82004	23960.7125
2266.70783	23891.9125
2269.59378	23847.8125
2272.4779	23800.3125
2275.36017	23684.5125
2278.24061	23689.1125
2281.11922	23624.1125
2283.996	23658.8125
2286.87094	23578.5125
2289.74405	23503.1125
2292.61534	23499.3125
2295.4848	23489.0125
2298.35243	23430.1125
2301.21824	23400.0125
2304.08223	23398.2125
2306.94439	23419.2125
2309.80474	23450.1125
2312.66327	23399.8125
2315.51999	23381.7125
2318.37489	23361.8125
2321.22797	23342.8125
2324.07925	23271.4125
2326.92871	23268.8125
2329.77637	23298.1125
2332.62222	23236.1125
2335.46626	23189.7125
2338.3085	23176.1125
2341.14893	23160.6125
2343.98756	23149.3125
2346.8244	23177.3125
2349.65943	23146.8125
2352.49267	23147.0125
2355.32411	23156.9125
2358.15376	23152.3125
2360.98161	23120.3125
2363.80768	23118.8125
2366.63195	23074.6125
2369.45444	23067.6125
2372.27514	23015.5125
2375.09405	22956.8125
2377.91118	22900.8125
2380.72652	22843.4125
2383.54009	22809.7125
2386.35187	22755.2125
2389.16188	22718.5125
2391.97011	22751.0125
2394.77657	22698.9125
2397.58125	22632.4125
2400.38416	22569.7125
2403.18529	22545.5125
2405.98466	22523.5125
2408.78226	22511.9125
2411.57809	22565.8125
2414.37216	22465.9125
2417.16446	22478.4125
2419.955	22462.3125
2422.74378	22390.4125
2425.5308	22389.3125
2428.31606	22367.7125
2431.09956	22395.0125
2433.88131	22362.2125
2436.6613	22369.9125
2439.43954	22355.0125
2442.21603	22356.0125
2444.99077	22309.6125
2447.76377	22310.5125
2450.53501	22286.7125
2453.30451	22293.0125
2456.07226	22293.8125
2458.83827	22261.1125
2461.60254	22272.9125
2464.36507	22271.1125
2467.12586	22215.4125
2469.88492	22217.2125
2472.64224	22250.4125
2475.39782	22228.9125
2478.15167	22250.2125
2480.90379	22215.2125
2483.65417	22224.1125
2486.40283	22201.1125
2489.14976	22202.6125
2491.89497	22187.9125
2494.63845	22176.1125
2497.3802	22160.2125
2500.12024	22165.7125
2502.85855	22178.9125
2505.59514	22143.6125
2508.33002	22168.2125
2511.06318	22122.5125
2513.79462	22142.1125
2516.52435	22097.0125
2519.25237	22097.7125
2521.97867	22026.2125
2524.70327	22036.3125
2527.42616	22011.4125
2530.14734	22061.4125
2532.86681	21977.4125
2535.58458	21965.7125
2538.30065	21905.4125
2541.01501	21933.2125
2543.72768	21892.6125
2546.43864	21940.8125
2549.14791	21899.1125
2551.85548	21864.5125
2554.56136	21869.3125
2557.26554	21847.4125
2559.96803	21806.4125
2562.66883	21790.3125
2565.36794	21751.7125
2568.06536	21740.0125
2570.7611	21749.5125
2573.45514	21736.8125
2576.14751	21708.9125
2578.83819	21627.4125
2581.52719	21638.9125
2584.21451	21650.5125
2586.90015	21618.0125
2589.58411	21600.0125
2592.2664	21588.5125
2594.94701	21559.1125
2597.62594	21542.3125
2600.30321	21485.4125
2602.9788	21518.7125
2605.65273	21516.4125
2608.32498	21483.9125
2610.99557	21490.1125
2613.66449	21465.0125
2616.33175	21463.2125
2618.99734	21459.6125
2621.66128	21454.9125
2624.32355	21381.5125
2626.98416	21410.9125
2629.64311	21415.3125
2632.30041	21375.8125
2634.95605	21373.6125
2637.61004	21344.8125
2640.26238	21331.0125
2642.91306	21361.4125
2645.56209	21314.6125
2648.20948	21310.9125
2650.85521	21327.3125
2653.4993	21350.1125
2656.14175	21323.4125
2658.78255	21326.2125
2661.42171	21294.1125
2664.05923	21367.5125
2666.6951	21367.4125
2669.32934	21389.8125
2671.96194	21388.8125
2674.59291	21380.9125
2677.22224	21351.2125
2679.84993	21374.1125
2682.476	21339.3125
2685.10043	21341.2125
2687.72324	21323.2125
2690.34441	21370.4125
2692.96396	21350.0125
2695.58188	21360.3125
2698.19818	21333.4125
2700.81285	21334.2125
2703.4259	21323.0125
2706.03733	21413.3125
2708.64714	21378.1125
2711.25533	21397.8125
2713.86191	21408.1125
2716.46687	21434.4125
2719.07021	21441.3125
2721.67194	21477.3125
2724.27206	21436.2125
2726.87057	21462.2125
2729.46747	21486.4125
2732.06276	21501.1125
2734.65644	21508.6125
2737.24852	21504.1125
2739.83899	21488.5125
2742.42786	21520.7125
2745.01513	21455.4125
2747.60079	21435.7125
2750.18486	21396.1125
2752.76733	21399.1125
2755.3482	21387.8125
2757.92747	21351.9125
2760.50515	21337.7125
2763.08123	21361.8125
2765.65573	21348.0125
2768.22863	21317.2125
2770.79994	21331.3125
2773.36967	21331.2125
2775.9378	21314.4125
2778.50435	21309.0125
2781.06932	21272.4125
2783.6327	21292.4125
2786.1945	21227.0125
2788.75471	21187.7125
2791.31335	21144.7125
2793.87041	21149.2125
2796.42589	21104.1125
2798.97979	21133.1125
2801.53212	21087.0125
2804.08288	21094.4125
2806.63206	21008.4125
2809.17967	20972.4125
2811.72571	20927.6125
2814.27018	20879.0125
2816.81308	20836.9125
2819.35442	20814.7125
2821.89419	20780.6125
2824.43239	20765.2125
2826.96904	20717.8125
2829.50412	20721.7125
2832.03763	20675.8125
2834.56959	20705.4125
2837.1	20646.0125
2839.62884	20686.9125
2842.15613	20633.2125
2844.68186	20665.5125
2847.20604	20708.6125
2849.72867	20727.6125
2852.24974	20695.8125
2854.76927	20694.8125
2857.28724	20693.2125
2859.80367	20672.4125
2862.31855	20617.4125
2864.83189	20572.8125
2867.34368	20575.6125
2869.85393	20554.1125
2872.36264	20524.2125
2874.8698	20524.8125
2877.37543	20564.7125
2879.87952	20566.3125
2882.38207	20559.7125
2884.88308	20526.7125
2887.38256	20539.6125
2889.88051	20513.2125
2892.37692	20593.7125
2894.8718	20598.9125
2897.36515	20591.5125
2899.85698	20573.7125
2902.34727	20648.8125
2904.83604	20619.9125
2907.32328	20642.9125
2909.809	20623.1125
2912.29319	20608.9125
2914.77587	20599.6125
2917.25702	20677.1125
2919.73665	20588.8125
2922.21476	20586.6125
2924.69136	20589.8125
2927.16644	20622.9125
2929.64	20558.8125
2932.11205	20539.1125
2934.58258	20438.0125
2937.05161	20469.4125
2939.51912	20455.4125
2941.98513	20452.1125
2944.44962	20377.2125
2946.91261	20289.2125
2949.37409	20338.1125
2951.83407	20329.2125
2954.29254	20305.6125
2956.74951	20243.4125
2959.20498	20205.9125
2961.65895	20188.8125
2964.11142	20193.4125
2966.56239	20141.8125
2969.01186	20107.7125
2971.45984	20039.5125
2973.90632	19988.5125
2976.35131	19963.9125
2978.7948	19940.7125
2981.23681	19814.9125
2983.67732	19788.3125
2986.11635	19679.5125
2988.55388	19617.3125
2990.98993	19618.9125
2993.4245	19549.3125
2995.85758	19500.2125
2998.28917	19431.8125
3000.71928	19455.2125
3003.14791	19392.2125
3005.57506	19355.6125
3008.00073	19282.8125
3010.42493	19281.0125
3012.84764	19268.2125
3015.26888	19218.0125
3017.68865	19135.0125
3020.10694	19168.9125
3022.52376	19083.1125
3024.9391	19057.4125
3027.35298	19069.3125
3029.76539	19021.6125
3032.17632	19011.4125
3034.5858	18957.2125
3036.9938	18941.2125
3039.40034	18925.1125
3041.80542	18935.4125
3044.20903	18879.0125
3046.61118	18861.5125
3049.01187	18792.1125
3051.4111	18803.5125
3053.80888	18762.8125
3056.20519	18705.2125
3058.60005	18631.7125
3060.99345	18590.2125
3063.3854	18555.9125
3065.7759	18476.9125
3068.16494	18437.2125
3070.55254	18337.2125
3072.93868	18328.1125
3075.32338	18282.5125
3077.70662	18247.5125
3080.08842	18183.9125
3082.46878	18155.2125
3084.84769	18115.3125
3087.22515	18087.2125
3089.60118	18086.0125
3091.97576	18063.0125
3094.3489	18055.1125
3096.72061	18028.9125
3099.09087	18011.1125
3101.4597	17978.0125
3103.82709	17943.4125
3106.19305	17883.6125
3108.55757	17853.3125
3110.92066	17807.1125
3113.28232	17806.9125
3115.64255	17733.4125
3118.00134	17700.6125
3120.35871	17652.2125
3122.71466	17629.3125
3125.06917	17583.9125
3127.42226	17554.3125
3129.77393	17530.6125
3132.12417	17511.0125
3134.47299	17516.5125
3136.82039	17462.3125
3139.16636	17496.1125
3141.51092	17475.3125
3143.85406	17511.5125
3146.19579	17494.3125
3148.53609	17466.8125
3150.87499	17447.7125
3153.21246	17420.4125
3155.54853	17469.4125
3157.88318	17390.1125
3160.21642	17422.9125
3162.54826	17388.3125
3164.87868	17359.4125
3167.2077	17328.6125
3169.5353	17323.1125
3171.86151	17344.2125
3174.18631	17283.9125
3176.5097	17268.7125
3178.83169	17262.9125
3181.15228	17246.5125
3183.47147	17152.3125
3185.78926	17161.2125
3188.10565	17126.4125
3190.42065	17126.3125
3192.73424	17146.9125
3195.04645	17110.8125
3197.35725	17120.1125
3199.66667	17076.4125
3201.97469	17076.5125
3204.28132	17020.8125
3206.58656	17041.6125
3208.8904	17013.3125
3211.19287	17042.3125
3213.49394	17044.0125
3215.79363	17018.6125
3218.09193	17018.2125
3220.38884	16965.1125
3222.68438	16990.4125
3224.97853	16960.0125
3227.2713	16937.6125
3229.56269	16908.0125
3231.8527	16892.4125
3234.14133	16884.9125
3236.42858	16856.0125
3238.71446	16841.2125
3240.99896	16802.7125
3243.28209	16814.0125
3245.56384	16784.8125
3247.84423	16757.1125
3250.12324	16729.6125
3252.40088	16687.2125
3254.67715	16649.5125
3256.95205	16584.5125
3259.22558	16589.8125
3261.49775	16540.5125
3263.76855	16520.3125
3266.03799	16477.3125
3268.30606	16451.6125
3270.57277	16448.5125
3272.83812	16399.8125
3275.10211	16376.6125
3277.36474	16343.2125
3279.62601	16359.2125
3281.88593	16360.5125
3284.14448	16394.4125
3286.40168	16365.4125
3288.65753	16335.8125
3290.91202	16322.7125
3293.16516	16264.4125
3295.41695	16194.7125
3297.66738	16110.3125
3299.91647	16061.0125
3302.16421	15960.6125
3304.4106	15867.5125
3306.65564	15745.8125
3308.89933	15616.0125
3311.14169	15530.5125
3313.38269	15374.1125
3315.62236	15310.2125
3317.86068	15186.4125
3320.09766	15034.4125
3322.3333	14902.0125
3324.5676	14931.7125
3326.80056	14680.8125
3329.03219	14564.3125
3331.26248	3.1125
3333.49143	0.6125
3335.71905	0.1125
