Data from AgNPs_FTO_APTES_UA_2uM_CRN_500uM_R6G_10uM_NaF_0.1M_Addition_RamanShift__14__17-14-55-413.txt Node

Date: Wed Feb 02 17:14:55 GMT 2022
User: TCL
Spectrometer: QEP01345
Trigger mode: 4
Integration Time (sec): 7.000000E0
Scans to average: 10
Electric dark correction enabled: true
Nonlinearity correction enabled: false
Boxcar width: 0
XAxis mode: Raman Shifts
Number of Pixels in Spectrum: 1044
>>>>>Begin Spectral Data<<<<<
46.04893	0.8875
50.45542	0.2875
54.85868	0.0875
59.25871	0.3875
63.6555	57.3875
68.04907	62.7875
72.43941	63.5875
76.82654	68.5875
81.21044	74.1875
85.59113	78.4875
89.96862	79.6875
94.34289	83.2875
98.71396	84.3875
103.08183	86.8875
107.4465	90.1875
111.80798	91.4875
116.16626	92.7875
120.52136	94.7875
124.87327	97.9875
129.222	100.1875
133.56755	111.1875
137.90993	118.3875
142.24913	128.1875
146.58517	148.6875
150.91804	166.0875
155.24774	203.3875
159.57429	247.6875
163.89768	312.5875
168.21792	409.7875
172.53501	554.1875
176.84895	776.3875
181.15975	1090.0875
185.46741	1529.2875
189.77193	2103.8875
194.07331	2825.6875
198.37157	3647.3875
202.6667	4502.7875
206.9587	5375.1875
211.24758	6222.5875
215.53334	7068.7875
219.81599	7937.8875
224.09553	8888.2875
228.37195	9915.9875
232.64527	11058.7875
236.91549	12258.6875
241.18261	13479.9875
245.44663	14628.3875
249.70755	15706.5875
253.96539	16668.2875
258.22014	17498.6875
262.4718	18049.0875
266.72039	18515.6875
270.96589	18741.3875
275.20832	18847.0875
279.44768	18838.7875
283.68397	18784.2875
287.91719	18723.2875
292.14735	18686.0875
296.37445	18702.8875
300.59849	18747.7875
304.81948	18798.7875
309.03742	18700.6875
313.25231	18503.6875
317.46415	18034.5875
321.67296	17536.7875
325.87872	17094.1875
330.08145	16865.2875
334.28114	16785.7875
338.47781	16824.3875
342.67145	16941.8875
346.86207	17088.1875
351.04966	17266.0875
355.23424	17436.9875
359.4158	17615.9875
363.59435	17732.6875
367.76989	17826.5875
371.94243	17843.7875
376.11196	17892.5875
380.27849	17896.2875
384.44203	17932.3875
388.60257	18045.3875
392.76012	18243.2875
396.91468	18508.6875
401.06626	18830.9875
405.21485	19045.1875
409.36047	19026.7875
413.50311	18866.2875
417.64277	18737.8875
421.77947	18711.6875
425.9132	18762.1875
430.04396	18901.3875
434.17176	18979.1875
438.2966	19122.2875
442.41849	19354.3875
446.53742	19684.0875
450.6534	20069.5875
454.76644	20353.3875
458.87653	20534.4875
462.98368	20605.3875
467.08789	20596.9875
471.18916	20472.3875
475.2875	20362.8875
479.38291	20364.4875
483.4754	20388.7875
487.56496	20226.2875
491.6516	19897.4875
495.73531	19549.5875
499.81612	19219.0875
503.89401	19191.3875
507.96899	19177.3875
512.04106	19219.2875
516.11023	19135.9875
520.1765	18953.4875
524.23987	18745.2875
528.30034	18525.6875
532.35792	18308.8875
536.41261	18169.3875
540.46441	18066.9875
544.51333	18120.1875
548.55936	18391.4875
552.60252	18869.8875
556.64279	19302.1875
560.6802	19664.7875
564.71473	19953.4875
568.7464	20459.7875
572.7752	21226.7875
576.80114	22082.5875
580.82422	22758.7875
584.84444	23146.0875
588.86181	23339.5875
592.87633	23398.0875
596.888	23119.1875
600.89682	22481.5875
604.9028	22221.3875
608.90594	22715.1875
612.90624	23308.5875
616.90371	22006.3875
620.89834	19548.2875
624.89015	18411.3875
628.87913	18348.4875
632.86528	18578.9875
636.84862	18681.6875
640.82913	18447.1875
644.80683	18060.1875
648.78172	17740.0875
652.75379	17643.1875
656.72306	17690.8875
660.68952	17851.6875
664.65319	17846.0875
668.61405	17754.2875
672.57211	17680.1875
676.52738	17721.4875
680.47986	17801.7875
684.42955	17746.0875
688.37646	17716.6875
692.32058	17701.4875
696.26192	17856.4875
700.20048	18030.4875
704.13626	18196.7875
708.06928	18315.8875
711.99952	18368.5875
715.927	18273.7875
719.85171	18146.1875
723.77365	17989.4875
727.69284	17786.8875
731.60928	17543.3875
735.52295	17428.1875
739.43388	17361.7875
743.34206	17368.0875
747.24749	17449.9875
751.15017	17677.2875
755.05012	17928.6875
758.94733	18446.6875
762.8418	19274.9875
766.73354	20420.4875
770.62254	21432.9875
774.50882	21464.8875
778.39237	20537.9875
782.27321	19347.5875
786.15132	18359.5875
790.02671	17720.5875
793.89938	17410.5875
797.76935	17213.9875
801.6366	17134.4875
805.50115	17049.6875
809.36299	16969.9875
813.22213	16924.4875
817.07857	16941.0875
820.93231	16974.5875
824.78336	16887.3875
828.63172	16764.2875
832.47738	16693.2875
836.32036	16633.3875
840.16066	16611.4875
843.99827	16599.5875
847.8332	16574.0875
851.66546	16565.2875
855.49504	16578.0875
859.32195	16559.3875
863.1462	16516.3875
866.96777	16519.5875
870.78668	16459.5875
874.60293	16473.1875
878.41652	16486.4875
882.22745	16462.0875
886.03573	16506.9875
889.84136	16527.6875
893.64433	16518.8875
897.44466	16479.5875
901.24235	16471.0875
905.0374	16438.8875
908.8298	16418.1875
912.61957	16515.0875
916.40671	16756.5875
920.19121	17011.7875
923.97308	17123.7875
927.75233	17041.3875
931.52895	16786.0875
935.30295	16506.8875
939.07433	16220.4875
942.84309	15920.2875
946.60924	15780.5875
950.37278	15695.6875
954.13371	15664.4875
957.89203	15628.4875
961.64774	15686.3875
965.40086	15674.7875
969.15137	15596.8875
972.89929	15501.7875
976.64461	15420.2875
980.38733	15321.9875
984.12747	15314.3875
987.86502	15325.8875
991.59999	15380.2875
995.33237	15428.1875
999.06217	15564.5875
1002.78939	15709.1875
1006.51404	15847.8875
1010.23611	16008.7875
1013.95561	16142.7875
1017.67255	16217.8875
1021.38692	16164.5875
1025.09872	16030.1875
1028.80796	15878.9875
1032.51465	15848.9875
1036.21877	15854.9875
1039.92035	15940.5875
1043.61937	16044.0875
1047.31584	16129.1875
1051.00976	16227.7875
1054.70114	16360.7875
1058.38998	16531.5875
1062.07627	16797.6875
1065.76003	17049.1875
1069.44126	17249.1875
1073.11995	17473.2875
1076.79611	17616.8875
1080.46974	17662.7875
1084.14085	17651.9875
1087.80943	17778.7875
1091.47549	17946.0875
1095.13903	18077.3875
1098.80005	17988.8875
1102.45857	17578.8875
1106.11456	17154.9875
1109.76805	16852.0875
1113.41903	16758.6875
1117.06751	16790.6875
1120.71348	16986.7875
1124.35696	17157.6875
1127.99793	17411.2875
1131.63641	17609.6875
1135.2724	17556.7875
1138.90589	17475.9875
1142.5369	17524.2875
1146.16542	17668.8875
1149.79145	17926.5875
1153.415	18209.4875
1157.03607	18563.9875
1160.65467	19040.0875
1164.27079	19707.2875
1167.88443	20569.4875
1171.49561	21454.9875
1175.10432	22537.1875
1178.71056	23859.4875
1182.31434	25141.0875
1185.91565	25995.4875
1189.51451	26393.5875
1193.11091	26274.2875
1196.70485	25783.4875
1200.29634	24965.1875
1203.88538	24231.1875
1207.47197	23901.6875
1211.05612	23749.2875
1214.63782	23394.6875
1218.21708	22801.0875
1221.79391	21953.3875
1225.36829	21236.6875
1228.94024	20714.1875
1232.50976	20452.3875
1236.07685	20289.8875
1239.6415	20225.7875
1243.20374	20256.4875
1246.76355	20380.8875
1250.32093	20626.3875
1253.8759	20998.6875
1257.42845	21506.6875
1260.97859	22040.9875
1264.52631	22608.4875
1268.07163	23120.7875
1271.61453	23689.8875
1275.15503	24293.0875
1278.69312	25005.6875
1282.22882	25663.1875
1285.76211	26463.7875
1289.29301	27418.3875
1292.82151	28668.7875
1296.34761	30080.9875
1299.87133	31572.4875
1303.39266	32957.3875
1306.9116	33982.1875
1310.42815	34739.6875
1313.94233	34936.1875
1317.45412	34880.7875
1320.96354	34743.0875
1324.47058	34793.9875
1327.97525	35019.6875
1331.47754	35308.1875
1334.97747	35521.4875
1338.47502	35720.5875
1341.97022	35859.4875
1345.46305	35869.5875
1348.95352	35577.6875
1352.44163	35030.2875
1355.92738	34461.9875
1359.41078	34206.1875
1362.89183	34047.1875
1366.37053	33204.9875
1369.84688	31357.0875
1373.32088	29013.7875
1376.79254	27348.3875
1380.26186	26737.8875
1383.72883	26809.7875
1387.19347	26957.1875
1390.65578	26994.5875
1394.11575	26989.5875
1397.57339	27073.8875
1401.0287	27165.8875
1404.48168	27191.4875
1407.93234	26858.1875
1411.38068	26172.3875
1414.82669	25086.4875
1418.27039	23911.5875
1421.71177	22817.6875
1425.15083	21972.9875
1428.58758	21485.2875
1432.02203	21478.0875
1435.45416	21847.7875
1438.88399	22372.4875
1442.31151	22827.0875
1445.73673	23234.8875
1449.15965	23599.0875
1452.58027	24031.7875
1455.9986	24407.6875
1459.41463	24690.5875
1462.82837	25013.7875
1466.23982	25297.1875
1469.64898	25581.3875
1473.05586	25740.3875
1476.46045	25745.6875
1479.86276	25637.4875
1483.26279	25461.1875
1486.66054	25391.8875
1490.05602	25507.1875
1493.44922	25870.8875
1496.84016	26398.2875
1500.22882	27167.9875
1503.61521	28149.2875
1506.99934	29111.7875
1510.38121	29806.4875
1513.76081	30003.2875
1517.13816	29789.6875
1520.51324	29409.7875
1523.88607	29095.1875
1527.25665	28998.1875
1530.62498	28953.1875
1533.99105	28736.8875
1537.35488	28216.3875
1540.71647	27360.5875
1544.07581	26470.6875
1547.4329	25511.6875
1550.78776	24810.9875
1554.14038	24330.6875
1557.49077	24096.4875
1560.83892	24006.3875
1564.18484	24012.4875
1567.52853	24096.3875
1570.86999	24318.0875
1574.20922	24781.1875
1577.54624	25218.5875
1580.88103	25454.5875
1584.2136	25639.8875
1587.54395	26043.3875
1590.87208	26665.2875
1594.19801	27561.3875
1597.52172	28456.1875
1600.84321	28556.0875
1604.16251	27481.6875
1607.47959	25780.3875
1610.79447	24010.1875
1614.10715	22276.9875
1617.41763	20771.9875
1620.7259	19657.7875
1624.03199	18962.7875
1627.33587	18746.3875
1630.63757	19051.0875
1633.93707	19921.9875
1637.23439	21487.4875
1640.52951	23811.9875
1643.82246	26697.4875
1647.11321	29422.8875
1650.40179	30754.6875
1653.68819	29883.4875
1656.97241	27157.2875
1660.25446	23809.6875
1663.53433	20818.6875
1666.81203	18520.1875
1670.08756	16960.0875
1673.36092	15908.8875
1676.63211	15259.1875
1679.90115	14786.7875
1683.16801	14483.5875
1686.43272	14239.0875
1689.69527	14073.5875
1692.95567	13928.7875
1696.2139	13806.9875
1699.46999	13747.8875
1702.72392	13692.3875
1705.97571	13614.6875
1709.22535	13542.2875
1712.47284	13494.3875
1715.71819	13442.9875
1718.96139	13380.5875
1722.20246	13284.5875
1725.44139	13201.8875
1728.67818	13129.0875
1731.91284	13078.2875
1735.14537	13010.3875
1738.37576	12947.8875
1741.60403	12897.3875
1744.83017	12848.2875
1748.05418	12815.7875
1751.27607	12800.4875
1754.49584	12785.0875
1757.71349	12801.7875
1760.92903	12787.3875
1764.14244	12760.4875
1767.35375	12752.0875
1770.56294	12704.1875
1773.77002	12660.5875
1776.97499	12604.9875
1780.17785	12546.0875
1783.37861	12516.9875
1786.57727	12453.5875
1789.77382	12420.8875
1792.96828	12394.9875
1796.16064	12363.6875
1799.3509	12293.9875
1802.53907	12271.4875
1805.72514	12236.5875
1808.90913	12187.8875
1812.09102	12167.9875
1815.27083	12145.1875
1818.44856	12070.2875
1821.6242	12086.4875
1824.79776	12055.3875
1827.96924	12024.3875
1831.13864	12031.1875
1834.30597	12021.7875
1837.47122	12018.6875
1840.6344	11973.0875
1843.7955	11983.4875
1846.95454	11957.9875
1850.11151	11966.1875
1853.26642	11943.4875
1856.41926	11936.5875
1859.57004	11957.6875
1862.71876	11895.9875
1865.86542	11858.7875
1869.01003	11829.7875
1872.15258	11819.7875
1875.29308	11801.7875
1878.43152	11763.8875
1881.56792	11746.4875
1884.70227	11740.6875
1887.83457	11694.2875
1890.96482	11669.4875
1894.09304	11651.2875
1897.21921	11654.5875
1900.34335	11584.9875
1903.46544	11605.4875
1906.58551	11583.0875
1909.70353	11574.0875
1912.81953	11533.7875
1915.93349	11508.4875
1919.04543	11453.0875
1922.15534	11444.8875
1925.26322	11413.1875
1928.36908	11417.8875
1931.47292	11390.8875
1934.57473	11339.3875
1937.67453	11315.1875
1940.77232	11228.8875
1943.86808	11219.4875
1946.96184	11198.3875
1950.05358	11150.2875
1953.14331	11141.3875
1956.23103	11099.5875
1959.31675	11071.0875
1962.40046	11028.4875
1965.48217	10969.7875
1968.56188	10926.7875
1971.63959	10867.3875
1974.7153	10865.6875
1977.78901	10845.9875
1980.86073	10802.3875
1983.93046	10765.3875
1986.99819	10720.0875
1990.06394	10700.4875
1993.1277	10664.1875
1996.18947	10608.4875
1999.24925	10568.4875
2002.30706	10513.1875
2005.36288	10487.4875
2008.41672	10446.1875
2011.46859	10413.4875
2014.51848	10373.7875
2017.56639	10328.0875
2020.61233	10317.8875
2023.6563	10285.2875
2026.6983	10289.5875
2029.73833	10232.7875
2032.7764	10230.8875
2035.8125	10183.1875
2038.84664	10151.3875
2041.87881	10135.1875
2044.90903	10096.3875
2047.93729	10074.2875
2050.96359	10057.5875
2053.98794	10069.4875
2057.01034	10042.5875
2060.03078	10024.4875
2063.04927	10000.6875
2066.06582	10012.4875
2069.08042	9980.2875
2072.09307	9970.6875
2075.10378	9954.1875
2078.11255	9958.1875
2081.11938	9934.8875
2084.12426	9926.3875
2087.12722	9935.7875
2090.12824	9924.7875
2093.12732	9920.4875
2096.12447	9936.3875
2099.11969	9917.2875
2102.11299	9926.5875
2105.10435	9922.2875
2108.09379	9914.3875
2111.08131	9928.5875
2114.0669	9917.3875
2117.05057	9930.3875
2120.03233	9910.7875
2123.01216	9916.3875
2125.99008	9906.9875
2128.96609	9907.6875
2131.94018	9932.8875
2134.91236	9902.7875
2137.88263	9889.7875
2140.851	9909.9875
2143.81746	9898.6875
2146.78201	9899.1875
2149.74466	9905.7875
2152.7054	9882.3875
2155.66425	9854.4875
2158.6212	9851.4875
2161.57625	9863.4875
2164.52941	9838.9875
2167.48067	9821.9875
2170.43004	9830.9875
2173.37752	9830.1875
2176.32311	9829.9875
2179.26681	9831.8875
2182.20863	9813.4875
2185.14856	9832.8875
2188.08661	9807.5875
2191.02278	9771.6875
2193.95707	9771.5875
2196.88948	9756.7875
2199.82001	9725.6875
2202.74867	9724.5875
2205.67545	9727.6875
2208.60037	9683.5875
2211.52341	9675.3875
2214.44458	9666.9875
2217.36388	9643.4875
2220.28132	9593.0875
2223.1969	9597.4875
2226.11061	9589.8875
2229.02246	9557.8875
2231.93245	9538.7875
2234.84058	9528.7875
2237.74686	9490.9875
2240.65128	9497.2875
2243.55385	9468.9875
2246.45456	9477.1875
2249.35343	9449.0875
2252.25044	9376.1875
2255.14561	9374.6875
2258.03893	9361.5875
2260.93041	9336.0875
2263.82004	9307.0875
2266.70783	9254.4875
2269.59378	9240.3875
2272.4779	9225.8875
2275.36017	9184.9875
2278.24061	9160.6875
2281.11922	9142.1875
2283.996	9125.0875
2286.87094	9102.3875
2289.74405	9090.3875
2292.61534	9082.4875
2295.4848	9043.8875
2298.35243	9056.0875
2301.21824	9031.8875
2304.08223	9010.4875
2306.94439	8995.2875
2309.80474	8988.9875
2312.66327	8994.8875
2315.51999	8982.3875
2318.37489	8959.7875
2321.22797	8950.7875
2324.07925	8932.8875
2326.92871	8903.0875
2329.77637	8906.3875
2332.62222	8897.4875
2335.46626	8830.8875
2338.3085	8846.6875
2341.14893	8838.2875
2343.98756	8838.1875
2346.8244	8808.1875
2349.65943	8795.9875
2352.49267	8817.0875
2355.32411	8797.2875
2358.15376	8810.8875
2360.98161	8793.5875
2363.80768	8760.4875
2366.63195	8774.3875
2369.45444	8767.3875
2372.27514	8757.8875
2375.09405	8729.8875
2377.91118	8714.4875
2380.72652	8714.0875
2383.54009	8689.4875
2386.35187	8659.8875
2389.16188	8640.7875
2391.97011	8602.8875
2394.77657	8586.3875
2397.58125	8581.1875
2400.38416	8579.3875
2403.18529	8542.3875
2405.98466	8522.9875
2408.78226	8526.8875
2411.57809	8517.9875
2414.37216	8492.9875
2417.16446	8477.7875
2419.955	8469.4875
2422.74378	8476.8875
2425.5308	8473.6875
2428.31606	8441.1875
2431.09956	8437.1875
2433.88131	8413.2875
2436.6613	8435.2875
2439.43954	8414.1875
2442.21603	8359.5875
2444.99077	8389.3875
2447.76377	8369.0875
2450.53501	8386.6875
2453.30451	8355.5875
2456.07226	8334.1875
2458.83827	8353.8875
2461.60254	8329.2875
2464.36507	8326.6875
2467.12586	8302.6875
2469.88492	8307.7875
2472.64224	8292.7875
2475.39782	8286.9875
2478.15167	8286.0875
2480.90379	8272.4875
2483.65417	8288.2875
2486.40283	8284.5875
2489.14976	8257.0875
2491.89497	8260.4875
2494.63845	8245.2875
2497.3802	8229.1875
2500.12024	8241.9875
2502.85855	8231.0875
2505.59514	8252.7875
2508.33002	8227.2875
2511.06318	8193.1875
2513.79462	8190.1875
2516.52435	8174.6875
2519.25237	8163.2875
2521.97867	8160.3875
2524.70327	8176.7875
2527.42616	8140.5875
2530.14734	8107.1875
2532.86681	8116.8875
2535.58458	8107.7875
2538.30065	8077.9875
2541.01501	8058.5875
2543.72768	8063.8875
2546.43864	8033.8875
2549.14791	8048.0875
2551.85548	8012.2875
2554.56136	8005.3875
2557.26554	8003.5875
2559.96803	7979.3875
2562.66883	7973.0875
2565.36794	7944.6875
2568.06536	7959.6875
2570.7611	7938.2875
2573.45514	7927.8875
2576.14751	7895.9875
2578.83819	7881.1875
2581.52719	7879.2875
2584.21451	7881.9875
2586.90015	7848.0875
2589.58411	7844.8875
2592.2664	7820.0875
2594.94701	7812.4875
2597.62594	7805.5875
2600.30321	7808.8875
2602.9788	7805.1875
2605.65273	7792.1875
2608.32498	7777.8875
2610.99557	7774.1875
2613.66449	7768.0875
2616.33175	7744.0875
2618.99734	7746.3875
2621.66128	7747.5875
2624.32355	7722.4875
2626.98416	7738.5875
2629.64311	7718.3875
2632.30041	7697.1875
2634.95605	7687.7875
2637.61004	7662.8875
2640.26238	7671.1875
2642.91306	7656.8875
2645.56209	7645.8875
2648.20948	7653.4875
2650.85521	7661.8875
2653.4993	7654.3875
2656.14175	7646.3875
2658.78255	7632.7875
2661.42171	7655.7875
2664.05923	7670.0875
2666.6951	7651.6875
2669.32934	7630.2875
2671.96194	7624.0875
2674.59291	7662.6875
2677.22224	7639.8875
2679.84993	7654.5875
2682.476	7632.4875
2685.10043	7648.6875
2687.72324	7641.4875
2690.34441	7643.1875
2692.96396	7631.0875
2695.58188	7645.4875
2698.19818	7626.7875
2700.81285	7622.5875
2703.4259	7627.7875
2706.03733	7657.4875
2708.64714	7641.3875
2711.25533	7643.5875
2713.86191	7630.3875
2716.46687	7622.8875
2719.07021	7615.3875
2721.67194	7626.4875
2724.27206	7606.4875
2726.87057	7608.5875
2729.46747	7613.2875
2732.06276	7634.4875
2734.65644	7612.5875
2737.24852	7615.5875
2739.83899	7585.7875
2742.42786	7586.2875
2745.01513	7586.0875
2747.60079	7563.3875
2750.18486	7533.5875
2752.76733	7556.8875
2755.3482	7559.8875
2757.92747	7561.7875
2760.50515	7540.5875
2763.08123	7555.5875
2765.65573	7544.7875
2768.22863	7524.7875
2770.79994	7504.3875
2773.36967	7504.7875
2775.9378	7509.1875
2778.50435	7488.6875
2781.06932	7499.4875
2783.6327	7476.4875
2786.1945	7477.1875
2788.75471	7467.2875
2791.31335	7436.8875
2793.87041	7443.2875
2796.42589	7398.2875
2798.97979	7399.1875
2801.53212	7405.1875
2804.08288	7402.3875
2806.63206	7371.9875
2809.17967	7364.0875
2811.72571	7345.0875
2814.27018	7335.8875
2816.81308	7326.1875
2819.35442	7308.0875
2821.89419	7270.7875
2824.43239	7283.6875
2826.96904	7262.8875
2829.50412	7267.9875
2832.03763	7254.4875
2834.56959	7275.3875
2837.1	7283.0875
2839.62884	7280.9875
2842.15613	7298.7875
2844.68186	7305.4875
2847.20604	7345.2875
2849.72867	7343.5875
2852.24974	7355.1875
2854.76927	7352.1875
2857.28724	7347.0875
2859.80367	7309.9875
2862.31855	7290.7875
2864.83189	7272.0875
2867.34368	7250.8875
2869.85393	7275.3875
2872.36264	7268.7875
2874.8698	7253.6875
2877.37543	7265.6875
2879.87952	7249.3875
2882.38207	7225.1875
2884.88308	7220.1875
2887.38256	7205.2875
2889.88051	7187.2875
2892.37692	7191.2875
2894.8718	7207.3875
2897.36515	7214.1875
2899.85698	7214.8875
2902.34727	7223.1875
2904.83604	7225.3875
2907.32328	7244.4875
2909.809	7242.6875
2912.29319	7237.7875
2914.77587	7226.8875
2917.25702	7210.5875
2919.73665	7197.7875
2922.21476	7223.0875
2924.69136	7206.2875
2927.16644	7212.4875
2929.64	7214.7875
2932.11205	7186.0875
2934.58258	7162.9875
2937.05161	7180.1875
2939.51912	7171.8875
2941.98513	7183.1875
2944.44962	7134.4875
2946.91261	7095.4875
2949.37409	7095.8875
2951.83407	7058.5875
2954.29254	7059.2875
2956.74951	7019.7875
2959.20498	7035.3875
2961.65895	7004.7875
2964.11142	7011.6875
2966.56239	6994.5875
2969.01186	6975.0875
2971.45984	6934.7875
2973.90632	6908.8875
2976.35131	6890.0875
2978.7948	6878.0875
2981.23681	6882.9875
2983.67732	6885.7875
2986.11635	6839.7875
2988.55388	6817.8875
2990.98993	6795.0875
2993.4245	6770.2875
2995.85758	6751.6875
2998.28917	6740.2875
3000.71928	6734.4875
3003.14791	6722.3875
3005.57506	6699.3875
3008.00073	6667.1875
3010.42493	6683.9875
3012.84764	6639.1875
3015.26888	6655.0875
3017.68865	6620.8875
3020.10694	6628.8875
3022.52376	6614.1875
3024.9391	6591.4875
3027.35298	6589.9875
3029.76539	6569.4875
3032.17632	6550.3875
3034.5858	6544.4875
3036.9938	6541.0875
3039.40034	6523.2875
3041.80542	6508.6875
3044.20903	6515.6875
3046.61118	6486.5875
3049.01187	6482.5875
3051.4111	6461.7875
3053.80888	6474.2875
3056.20519	6441.1875
3058.60005	6426.0875
3060.99345	6408.0875
3063.3854	6407.9875
3065.7759	6393.6875
3068.16494	6371.2875
3070.55254	6343.9875
3072.93868	6339.7875
3075.32338	6317.8875
3077.70662	6296.5875
3080.08842	6267.8875
3082.46878	6274.1875
3084.84769	6256.6875
3087.22515	6266.5875
3089.60118	6244.2875
3091.97576	6255.1875
3094.3489	6235.2875
3096.72061	6224.7875
3099.09087	6230.0875
3101.4597	6212.4875
3103.82709	6210.9875
3106.19305	6206.0875
3108.55757	6207.3875
3110.92066	6176.1875
3113.28232	6161.7875
3115.64255	6153.2875
3118.00134	6154.1875
3120.35871	6131.6875
3122.71466	6112.9875
3125.06917	6104.6875
3127.42226	6106.4875
3129.77393	6091.1875
3132.12417	6090.6875
3134.47299	6082.6875
3136.82039	6093.9875
3139.16636	6110.9875
3141.51092	6081.0875
3143.85406	6102.3875
3146.19579	6102.7875
3148.53609	6112.1875
3150.87499	6096.2875
3153.21246	6092.6875
3155.54853	6099.1875
3157.88318	6088.2875
3160.21642	6098.1875
3162.54826	6105.8875
3164.87868	6086.1875
3167.2077	6095.9875
3169.5353	6068.4875
3171.86151	6063.0875
3174.18631	6069.0875
3176.5097	6053.8875
3178.83169	6059.7875
3181.15228	6065.4875
3183.47147	6048.6875
3185.78926	6030.0875
3188.10565	6032.0875
3190.42065	6029.6875
3192.73424	6017.9875
3195.04645	6032.4875
3197.35725	6025.7875
3199.66667	6022.8875
3201.97469	6017.3875
3204.28132	6017.1875
3206.58656	6022.7875
3208.8904	6029.9875
3211.19287	6038.0875
3213.49394	6029.9875
3215.79363	6003.4875
3218.09193	6012.7875
3220.38884	6028.4875
3222.68438	6015.8875
3224.97853	6001.5875
3227.2713	5983.6875
3229.56269	5968.7875
3231.8527	5976.8875
3234.14133	5963.6875
3236.42858	5950.1875
3238.71446	5935.2875
3240.99896	5931.3875
3243.28209	5938.4875
3245.56384	5924.0875
3247.84423	5932.0875
3250.12324	5916.5875
3252.40088	5898.6875
3254.67715	5898.8875
3256.95205	5868.4875
3259.22558	5891.0875
3261.49775	5860.8875
3263.76855	5833.0875
3266.03799	5818.0875
3268.30606	5816.9875
3270.57277	5822.0875
3272.83812	5797.4875
3275.10211	5792.2875
3277.36474	5768.6875
3279.62601	5784.9875
3281.88593	5779.5875
3284.14448	5762.1875
3286.40168	5772.6875
3288.65753	5753.8875
3290.91202	5741.6875
3293.16516	5719.6875
3295.41695	5713.1875
3297.66738	5681.1875
3299.91647	5651.2875
3302.16421	5617.7875
3304.4106	5598.0875
3306.65564	5561.7875
3308.89933	5509.3875
3311.14169	5477.4875
3313.38269	5452.9875
3315.62236	5397.6875
3317.86068	5367.7875
3320.09766	5296.8875
3322.3333	5259.0875
3324.5676	5253.1875
3326.80056	5174.1875
3329.03219	5162.3875
3331.26248	-0.3125
3333.49143	-0.4125
3335.71905	-0.8125
