Data from AgNPs_FTO_APTES_UA_2uM_CRN_20uM_R6G_10uM_NaF_0.1M_Addition_RamanShift__14__14-14-05-201.txt Node

Date: Wed Feb 02 14:14:05 GMT 2022
User: TCL
Spectrometer: QEP01345
Trigger mode: 4
Integration Time (sec): 7.000000E0
Scans to average: 10
Electric dark correction enabled: true
Nonlinearity correction enabled: false
Boxcar width: 0
XAxis mode: Raman Shifts
Number of Pixels in Spectrum: 1044
>>>>>Begin Spectral Data<<<<<
46.04893	-0.4125
50.45542	-0.6125
54.85868	-0.9125
59.25871	-0.1125
63.6555	97.0875
68.04907	104.5875
72.43941	109.5875
76.82654	116.2875
81.21044	119.7875
85.59113	130.3875
89.96862	126.3875
94.34289	132.0875
98.71396	139.4875
103.08183	146.1875
107.4465	143.7875
111.80798	149.3875
116.16626	152.9875
120.52136	158.6875
124.87327	164.7875
129.222	174.1875
133.56755	186.5875
137.90993	202.3875
142.24913	269.3875
146.58517	259.3875
150.91804	293.7875
155.24774	352.5875
159.57429	427.7875
163.89768	557.2875
168.21792	742.1875
172.53501	1010.2875
176.84895	1412.2875
181.15975	1985.6875
185.46741	2792.0875
189.77193	3853.0875
194.07331	5133.8875
198.37157	6614.8875
202.6667	8212.0875
206.9587	9765.1875
211.24758	11282.3875
215.53334	12813.0875
219.81599	14439.3875
224.09553	16190.0875
228.37195	18115.5875
232.64527	20230.6875
236.91549	22466.6875
241.18261	24725.0875
245.44663	26839.4875
249.70755	28689.3875
253.96539	30348.4875
258.22014	31738.9875
262.4718	32973.7875
266.72039	33845.3875
270.96589	34303.3875
275.20832	34539.3875
279.44768	34412.7875
283.68397	34192.9875
287.91719	33969.5875
292.14735	33933.1875
296.37445	33973.0875
300.59849	34049.1875
304.81948	34236.9875
309.03742	34075.1875
313.25231	33694.8875
317.46415	32914.1875
321.67296	31889.7875
325.87872	31104.4875
330.08145	30654.4875
334.28114	30593.0875
338.47781	30770.9875
342.67145	31061.9875
346.86207	31503.0875
351.04966	32019.7875
355.23424	32530.5875
359.4158	33018.1875
363.59435	33382.7875
367.76989	33581.0875
371.94243	33771.1875
376.11196	33868.7875
380.27849	33989.9875
384.44203	34038.3875
388.60257	34286.4875
392.76012	34673.9875
396.91468	35188.9875
401.06626	35775.6875
405.21485	36121.0875
409.36047	35903.6875
413.50311	35426.1875
417.64277	35029.4875
421.77947	34984.7875
425.9132	35017.8875
430.04396	35181.4875
434.17176	35332.1875
438.2966	35481.9875
442.41849	35921.9875
446.53742	36668.5875
450.6534	37538.1875
454.76644	38156.5875
458.87653	38516.0875
462.98368	38531.9875
467.08789	38379.1875
471.18916	38096.7875
475.2875	37891.5875
479.38291	37813.6875
483.4754	37700.8875
487.56496	37331.4875
491.6516	36745.6875
495.73531	36071.8875
499.81612	35651.4875
503.89401	35754.0875
507.96899	35898.2875
512.04106	35918.5875
516.11023	35768.7875
520.1765	35391.6875
524.23987	35005.4875
528.30034	34549.9875
532.35792	34158.6875
536.41261	33776.9875
540.46441	33507.9875
544.51333	33639.4875
548.55936	34094.6875
552.60252	34854.8875
556.64279	35679.2875
560.6802	36359.7875
564.71473	36806.5875
568.7464	37482.7875
572.7752	38626.8875
576.80114	39787.1875
580.82422	40686.0875
584.84444	41448.0875
588.86181	41951.6875
592.87633	42083.0875
596.888	41469.1875
600.89682	40636.3875
604.9028	41084.9875
608.90594	43615.6875
612.90624	46133.3875
616.90371	43390.2875
620.89834	37202.2875
624.89015	34434.7875
628.87913	34141.1875
632.86528	34410.7875
636.84862	34528.9875
640.82913	34112.0875
644.80683	33346.1875
648.78172	32790.0875
652.75379	32655.0875
656.72306	32939.7875
660.68952	33329.9875
664.65319	33151.8875
668.61405	32755.2875
672.57211	32615.3875
676.52738	32768.5875
680.47986	32723.5875
684.42955	32597.4875
688.37646	32499.4875
692.32058	32605.8875
696.26192	32927.9875
700.20048	33296.4875
704.13626	33623.0875
708.06928	33715.6875
711.99952	33581.4875
715.927	33534.0875
719.85171	33504.0875
723.77365	33362.4875
727.69284	32936.8875
731.60928	32502.8875
735.52295	32244.9875
739.43388	32180.0875
743.34206	32254.2875
747.24749	32428.6875
751.15017	32769.3875
755.05012	33351.8875
758.94733	34314.0875
762.8418	35943.6875
766.73354	38380.5875
770.62254	40579.1875
774.50882	40843.3875
778.39237	39093.9875
782.27321	36609.2875
786.15132	34592.6875
790.02671	33262.7875
793.89938	32496.3875
797.76935	32139.2875
801.6366	32061.2875
805.50115	31956.2875
809.36299	31782.8875
813.22213	31523.1875
817.07857	31483.0875
820.93231	31447.9875
824.78336	31287.9875
828.63172	31136.0875
832.47738	30987.8875
836.32036	30922.9875
840.16066	30908.3875
843.99827	30912.0875
847.8332	30907.6875
851.66546	30853.5875
855.49504	30887.8875
859.32195	30875.6875
863.1462	30849.3875
866.96777	30725.2875
870.78668	30717.2875
874.60293	30716.8875
878.41652	30705.0875
882.22745	30748.5875
886.03573	30821.2875
889.84136	30860.8875
893.64433	30784.3875
897.44466	30664.0875
901.24235	30658.4875
905.0374	30517.0875
908.8298	30490.5875
912.61957	30570.1875
916.40671	30860.6875
920.19121	31314.1875
923.97308	31507.9875
927.75233	31432.9875
931.52895	31101.0875
935.30295	30671.8875
939.07433	30128.5875
942.84309	29695.8875
946.60924	29484.5875
950.37278	29434.9875
954.13371	29405.7875
957.89203	29365.1875
961.64774	29365.8875
965.40086	29384.8875
969.15137	29329.4875
972.89929	29193.7875
976.64461	29058.7875
980.38733	29000.7875
984.12747	28992.7875
987.86502	29173.0875
991.59999	29305.2875
995.33237	29534.0875
999.06217	29915.5875
1002.78939	30415.2875
1006.51404	30821.8875
1010.23611	31190.7875
1013.95561	31501.3875
1017.67255	31607.1875
1021.38692	31401.0875
1025.09872	31086.8875
1028.80796	30814.4875
1032.51465	30850.8875
1036.21877	31091.1875
1039.92035	31281.5875
1043.61937	31320.3875
1047.31584	31243.2875
1051.00976	31156.8875
1054.70114	31196.4875
1058.38998	31399.0875
1062.07627	31795.1875
1065.76003	32194.3875
1069.44126	32656.0875
1073.11995	33164.7875
1076.79611	33561.8875
1080.46974	33710.7875
1084.14085	33869.6875
1087.80943	34186.5875
1091.47549	34581.5875
1095.13903	34726.3875
1098.80005	34425.2875
1102.45857	33677.4875
1106.11456	32934.3875
1109.76805	32502.0875
1113.41903	32383.8875
1117.06751	32537.7875
1120.71348	32831.9875
1124.35696	33159.8875
1127.99793	33499.0875
1131.63641	33800.6875
1135.2724	33718.3875
1138.90589	33612.8875
1142.5369	33726.5875
1146.16542	33932.6875
1149.79145	34222.1875
1153.415	34685.9875
1157.03607	35306.2875
1160.65467	36233.7875
1164.27079	37719.3875
1167.88443	39652.8875
1171.49561	41799.1875
1175.10432	44369.8875
1178.71056	47573.8875
1182.31434	50578.6875
1185.91565	52541.8875
1189.51451	52971.9875
1193.11091	52348.9875
1196.70485	50830.2875
1200.29634	48835.3875
1203.88538	47237.3875
1207.47197	46388.1875
1211.05612	45752.2875
1214.63782	45012.7875
1218.21708	43783.5875
1221.79391	42386.0875
1225.36829	41284.3875
1228.94024	40541.9875
1232.50976	40022.7875
1236.07685	39650.8875
1239.6415	39481.1875
1243.20374	39512.0875
1246.76355	39827.6875
1250.32093	40407.5875
1253.8759	41188.9875
1257.42845	42257.6875
1260.97859	43437.8875
1264.52631	44597.8875
1268.07163	45771.6875
1271.61453	46911.0875
1275.15503	48171.9875
1278.69312	49496.1875
1282.22882	50741.5875
1285.76211	52333.0875
1289.29301	54164.2875
1292.82151	56484.9875
1296.34761	59405.1875
1299.87133	62583.0875
1303.39266	65792.0875
1306.9116	68584.3875
1310.42815	70627.3875
1313.94233	71658.9875
1317.45412	71457.3875
1320.96354	71065.0875
1324.47058	70994.4875
1327.97525	71170.3875
1331.47754	71463.4875
1334.97747	71568.9875
1338.47502	71572.6875
1341.97022	71420.6875
1345.46305	70995.1875
1348.95352	70038.0875
1352.44163	68764.5875
1355.92738	67945.6875
1359.41078	68388.9875
1362.89183	69150.1875
1366.37053	67784.6875
1369.84688	63445.1875
1373.32088	57934.9875
1376.79254	54060.4875
1380.26186	52536.7875
1383.72883	52602.6875
1387.19347	52882.0875
1390.65578	52775.6875
1394.11575	52728.0875
1397.57339	53050.7875
1401.0287	53599.5875
1404.48168	54148.1875
1407.93234	53813.1875
1411.38068	52620.8875
1414.82669	50666.8875
1418.27039	48390.5875
1421.71177	46235.7875
1425.15083	44558.2875
1428.58758	43753.7875
1432.02203	43929.2875
1435.45416	45015.0875
1438.88399	46306.2875
1442.31151	47456.3875
1445.73673	48289.9875
1449.15965	48978.8875
1452.58027	49561.2875
1455.9986	49958.2875
1459.41463	50289.9875
1462.82837	50851.8875
1466.23982	51441.1875
1469.64898	51941.7875
1473.05586	52108.7875
1476.46045	51977.6875
1479.86276	51466.6875
1483.26279	50966.5875
1486.66054	50820.2875
1490.05602	51053.4875
1493.44922	51693.4875
1496.84016	52710.1875
1500.22882	54144.2875
1503.61521	56027.8875
1506.99934	58075.3875
1510.38121	59617.3875
1513.76081	59959.1875
1517.13816	58939.1875
1520.51324	57305.5875
1523.88607	55975.2875
1527.25665	55453.4875
1530.62498	55244.0875
1533.99105	54953.0875
1537.35488	54329.3875
1540.71647	53084.1875
1544.07581	51562.0875
1547.4329	50099.7875
1550.78776	48827.2875
1554.14038	48040.6875
1557.49077	47667.4875
1560.83892	47577.5875
1564.18484	47597.0875
1567.52853	47707.3875
1570.86999	48174.2875
1574.20922	49084.1875
1577.54624	49985.3875
1580.88103	50492.1875
1584.2136	51003.4875
1587.54395	51988.1875
1590.87208	53817.7875
1594.19801	56148.7875
1597.52172	58162.9875
1600.84321	58373.4875
1604.16251	55818.8875
1607.47959	52121.8875
1610.79447	48179.8875
1614.10715	44529.5875
1617.41763	41209.7875
1620.7259	38834.4875
1624.03199	37513.8875
1627.33587	37316.4875
1630.63757	38117.7875
1633.93707	40278.5875
1637.23439	44092.8875
1640.52951	49434.9875
1643.82246	55646.8875
1647.11321	60507.3875
1650.40179	61715.7875
1653.68819	58355.8875
1656.97241	51730.0875
1660.25446	44594.2875
1663.53433	38960.7875
1666.81203	34988.9875
1670.08756	32336.4875
1673.36092	30744.6875
1676.63211	29618.5875
1679.90115	28871.8875
1683.16801	28274.7875
1686.43272	27868.0875
1689.69527	27575.6875
1692.95567	27337.7875
1696.2139	27163.9875
1699.46999	27051.5875
1702.72392	26922.7875
1705.97571	26836.9875
1709.22535	26745.8875
1712.47284	26599.2875
1715.71819	26587.6875
1718.96139	26539.5875
1722.20246	26386.8875
1725.44139	26254.4875
1728.67818	26135.6875
1731.91284	25909.2875
1735.14537	25794.0875
1738.37576	25645.4875
1741.60403	25585.2875
1744.83017	25435.1875
1748.05418	25441.4875
1751.27607	25345.9875
1754.49584	25324.4875
1757.71349	25318.1875
1760.92903	25245.1875
1764.14244	25194.4875
1767.35375	25190.8875
1770.56294	25115.6875
1773.77002	25075.4875
1776.97499	24982.0875
1780.17785	24888.7875
1783.37861	24846.1875
1786.57727	24779.9875
1789.77382	24716.3875
1792.96828	24705.6875
1796.16064	24644.1875
1799.3509	24620.1875
1802.53907	24546.2875
1805.72514	24437.1875
1808.90913	24364.2875
1812.09102	24307.4875
1815.27083	24293.6875
1818.44856	24275.5875
1821.6242	24251.8875
1824.79776	24226.4875
1827.96924	24154.8875
1831.13864	24173.0875
1834.30597	24151.8875
1837.47122	24193.7875
1840.6344	24172.9875
1843.7955	24166.1875
1846.95454	24161.9875
1850.11151	24136.2875
1853.26642	24128.4875
1856.41926	24066.2875
1859.57004	24040.8875
1862.71876	24027.2875
1865.86542	23983.9875
1869.01003	23947.4875
1872.15258	23899.8875
1875.29308	23858.2875
1878.43152	23827.5875
1881.56792	23801.6875
1884.70227	23767.0875
1887.83457	23750.7875
1890.96482	23709.2875
1894.09304	23616.2875
1897.21921	23631.3875
1900.34335	23560.7875
1903.46544	23541.1875
1906.58551	23505.5875
1909.70353	23467.6875
1912.81953	23387.6875
1915.93349	23327.8875
1919.04543	23286.6875
1922.15534	23275.7875
1925.26322	23145.7875
1928.36908	23148.8875
1931.47292	23057.1875
1934.57473	22990.2875
1937.67453	22929.2875
1940.77232	22901.0875
1943.86808	22813.8875
1946.96184	22719.3875
1950.05358	22704.9875
1953.14331	22589.5875
1956.23103	22527.1875
1959.31675	22450.3875
1962.40046	22414.9875
1965.48217	22351.3875
1968.56188	22321.0875
1971.63959	22246.4875
1974.7153	22161.9875
1977.78901	22098.1875
1980.86073	21983.3875
1983.93046	21915.5875
1986.99819	21846.4875
1990.06394	21780.6875
1993.1277	21724.8875
1996.18947	21656.6875
1999.24925	21585.9875
2002.30706	21532.2875
2005.36288	21439.7875
2008.41672	21393.0875
2011.46859	21307.8875
2014.51848	21230.1875
2017.56639	21210.9875
2020.61233	21147.0875
2023.6563	21101.2875
2026.6983	21054.0875
2029.73833	21007.2875
2032.7764	20914.2875
2035.8125	20878.8875
2038.84664	20849.8875
2041.87881	20820.8875
2044.90903	20792.7875
2047.93729	20738.1875
2050.96359	20717.5875
2053.98794	20672.6875
2057.01034	20678.6875
2060.03078	20630.0875
2063.04927	20649.5875
2066.06582	20638.9875
2069.08042	20566.7875
2072.09307	20531.1875
2075.10378	20496.1875
2078.11255	20523.0875
2081.11938	20482.5875
2084.12426	20472.3875
2087.12722	20468.2875
2090.12824	20419.4875
2093.12732	20501.2875
2096.12447	20514.4875
2099.11969	20532.6875
2102.11299	20527.7875
2105.10435	20510.1875
2108.09379	20439.6875
2111.08131	20513.9875
2114.0669	20485.1875
2117.05057	20507.4875
2120.03233	20530.5875
2123.01216	20519.8875
2125.99008	20566.9875
2128.96609	20549.8875
2131.94018	20568.2875
2134.91236	20572.8875
2137.88263	20564.2875
2140.851	20580.0875
2143.81746	20588.6875
2146.78201	20594.7875
2149.74466	20566.3875
2152.7054	20592.2875
2155.66425	20540.9875
2158.6212	20520.3875
2161.57625	20535.5875
2164.52941	20554.1875
2167.48067	20504.7875
2170.43004	20505.2875
2173.37752	20496.9875
2176.32311	20477.5875
2179.26681	20471.4875
2182.20863	20418.5875
2185.14856	20465.7875
2188.08661	20476.8875
2191.02278	20462.7875
2193.95707	20391.1875
2196.88948	20388.2875
2199.82001	20364.7875
2202.74867	20377.1875
2205.67545	20353.4875
2208.60037	20321.2875
2211.52341	20258.1875
2214.44458	20249.3875
2217.36388	20206.3875
2220.28132	20176.1875
2223.1969	20100.4875
2226.11061	20098.0875
2229.02246	20041.4875
2231.93245	20022.4875
2234.84058	20018.3875
2237.74686	19919.9875
2240.65128	19933.5875
2243.55385	19868.6875
2246.45456	19821.5875
2249.35343	19829.5875
2252.25044	19779.3875
2255.14561	19794.9875
2258.03893	19735.5875
2260.93041	19713.2875
2263.82004	19624.6875
2266.70783	19551.3875
2269.59378	19475.7875
2272.4779	19487.0875
2275.36017	19427.5875
2278.24061	19353.5875
2281.11922	19303.9875
2283.996	19307.4875
2286.87094	19243.4875
2289.74405	19233.2875
2292.61534	19207.7875
2295.4848	19158.1875
2298.35243	19174.1875
2301.21824	19150.4875
2304.08223	19160.0875
2306.94439	19121.0875
2309.80474	19124.6875
2312.66327	19094.0875
2315.51999	19115.2875
2318.37489	19029.7875
2321.22797	19039.7875
2324.07925	19003.5875
2326.92871	19003.7875
2329.77637	18971.7875
2332.62222	18937.2875
2335.46626	18916.0875
2338.3085	18855.7875
2341.14893	18851.6875
2343.98756	18875.4875
2346.8244	18843.4875
2349.65943	18853.0875
2352.49267	18854.9875
2355.32411	18846.9875
2358.15376	18833.7875
2360.98161	18839.7875
2363.80768	18783.6875
2366.63195	18782.6875
2369.45444	18768.3875
2372.27514	18726.9875
2375.09405	18721.2875
2377.91118	18695.3875
2380.72652	18657.6875
2383.54009	18606.2875
2386.35187	18588.0875
2389.16188	18530.0875
2391.97011	18483.7875
2394.77657	18404.9875
2397.58125	18397.4875
2400.38416	18407.3875
2403.18529	18341.8875
2405.98466	18354.0875
2408.78226	18319.3875
2411.57809	18293.5875
2414.37216	18260.2875
2417.16446	18252.4875
2419.955	18256.7875
2422.74378	18241.1875
2425.5308	18227.2875
2428.31606	18203.1875
2431.09956	18174.0875
2433.88131	18133.5875
2436.6613	18159.1875
2439.43954	18128.6875
2442.21603	18113.0875
2444.99077	18116.6875
2447.76377	18099.4875
2450.53501	18041.0875
2453.30451	18024.6875
2456.07226	18020.6875
2458.83827	18050.7875
2461.60254	18034.4875
2464.36507	18038.7875
2467.12586	18010.1875
2469.88492	17982.7875
2472.64224	17972.9875
2475.39782	17964.7875
2478.15167	17980.3875
2480.90379	17972.7875
2483.65417	17950.2875
2486.40283	17984.7875
2489.14976	17987.4875
2491.89497	17981.2875
2494.63845	17982.4875
2497.3802	17943.5875
2500.12024	17930.5875
2502.85855	17933.4875
2505.59514	17922.0875
2508.33002	17917.4875
2511.06318	17893.0875
2513.79462	17855.7875
2516.52435	17837.6875
2519.25237	17841.7875
2521.97867	17830.1875
2524.70327	17814.8875
2527.42616	17818.8875
2530.14734	17818.8875
2532.86681	17774.6875
2535.58458	17760.7875
2538.30065	17701.5875
2541.01501	17697.9875
2543.72768	17636.4875
2546.43864	17661.0875
2549.14791	17596.4875
2551.85548	17636.1875
2554.56136	17594.7875
2557.26554	17598.5875
2559.96803	17577.7875
2562.66883	17549.3875
2565.36794	17518.1875
2568.06536	17531.0875
2570.7611	17457.2875
2573.45514	17424.4875
2576.14751	17431.8875
2578.83819	17380.1875
2581.52719	17398.5875
2584.21451	17327.5875
2586.90015	17345.4875
2589.58411	17319.2875
2592.2664	17323.4875
2594.94701	17281.6875
2597.62594	17272.0875
2600.30321	17267.6875
2602.9788	17244.7875
2605.65273	17214.6875
2608.32498	17232.8875
2610.99557	17202.6875
2613.66449	17224.1875
2616.33175	17197.1875
2618.99734	17199.2875
2621.66128	17168.8875
2624.32355	17154.8875
2626.98416	17142.6875
2629.64311	17122.0875
2632.30041	17119.8875
2634.95605	17116.5875
2637.61004	17121.6875
2640.26238	17066.7875
2642.91306	17070.4875
2645.56209	17006.9875
2648.20948	17028.3875
2650.85521	17026.5875
2653.4993	17054.2875
2656.14175	17056.0875
2658.78255	17050.3875
2661.42171	17054.1875
2664.05923	17095.8875
2666.6951	17068.7875
2669.32934	17087.6875
2671.96194	17074.8875
2674.59291	17073.3875
2677.22224	17082.2875
2679.84993	17096.1875
2682.476	17072.4875
2685.10043	17086.2875
2687.72324	17073.4875
2690.34441	17083.6875
2692.96396	17070.1875
2695.58188	17055.9875
2698.19818	17034.4875
2700.81285	17052.1875
2703.4259	17042.4875
2706.03733	17069.1875
2708.64714	17081.1875
2711.25533	17098.5875
2713.86191	17035.6875
2716.46687	17070.6875
2719.07021	17057.0875
2721.67194	17063.5875
2724.27206	17055.2875
2726.87057	17087.9875
2729.46747	17046.6875
2732.06276	17066.4875
2734.65644	17019.4875
2737.24852	17009.3875
2739.83899	17015.2875
2742.42786	17020.2875
2745.01513	16977.8875
2747.60079	16981.9875
2750.18486	16993.3875
2752.76733	17001.3875
2755.3482	17001.4875
2757.92747	16988.7875
2760.50515	16972.2875
2763.08123	16971.6875
2765.65573	16940.5875
2768.22863	16928.2875
2770.79994	16912.4875
2773.36967	16871.1875
2775.9378	16876.3875
2778.50435	16874.9875
2781.06932	16867.1875
2783.6327	16872.4875
2786.1945	16873.8875
2788.75471	16819.0875
2791.31335	16758.4875
2793.87041	16751.8875
2796.42589	16707.1875
2798.97979	16706.8875
2801.53212	16664.9875
2804.08288	16684.9875
2806.63206	16630.0875
2809.17967	16598.4875
2811.72571	16548.9875
2814.27018	16519.2875
2816.81308	16518.2875
2819.35442	16468.5875
2821.89419	16433.0875
2824.43239	16437.7875
2826.96904	16412.5875
2829.50412	16409.5875
2832.03763	16388.8875
2834.56959	16387.7875
2837.1	16317.8875
2839.62884	16340.2875
2842.15613	16364.0875
2844.68186	16383.9875
2847.20604	16391.7875
2849.72867	16408.9875
2852.24974	16367.6875
2854.76927	16381.6875
2857.28724	16333.0875
2859.80367	16300.4875
2862.31855	16279.7875
2864.83189	16237.8875
2867.34368	16203.4875
2869.85393	16213.9875
2872.36264	16181.3875
2874.8698	16180.4875
2877.37543	16166.5875
2879.87952	16180.8875
2882.38207	16181.4875
2884.88308	16186.1875
2887.38256	16165.2875
2889.88051	16178.9875
2892.37692	16202.6875
2894.8718	16182.2875
2897.36515	16207.4875
2899.85698	16180.2875
2902.34727	16198.9875
2904.83604	16195.8875
2907.32328	16222.4875
2909.809	16212.7875
2912.29319	16203.7875
2914.77587	16164.1875
2917.25702	16133.7875
2919.73665	16161.1875
2922.21476	16162.5875
2924.69136	16166.7875
2927.16644	16201.8875
2929.64	16169.1875
2932.11205	16150.3875
2934.58258	16148.2875
2937.05161	16170.3875
2939.51912	16130.7875
2941.98513	16131.7875
2944.44962	16080.2875
2946.91261	15977.2875
2949.37409	16011.3875
2951.83407	16017.3875
2954.29254	15977.8875
2956.74951	15948.1875
2959.20498	15932.8875
2961.65895	15860.6875
2964.11142	15880.9875
2966.56239	15845.5875
2969.01186	15852.3875
2971.45984	15829.4875
2973.90632	15795.4875
2976.35131	15752.1875
2978.7948	15689.6875
2981.23681	15647.8875
2983.67732	15627.1875
2986.11635	15575.1875
2988.55388	15541.1875
2990.98993	15536.8875
2993.4245	15478.1875
2995.85758	15462.8875
2998.28917	15386.9875
3000.71928	15377.6875
3003.14791	15359.3875
3005.57506	15316.1875
3008.00073	15272.2875
3010.42493	15285.5875
3012.84764	15253.3875
3015.26888	15202.5875
3017.68865	15161.2875
3020.10694	15125.3875
3022.52376	15129.9875
3024.9391	15096.0875
3027.35298	15035.7875
3029.76539	15008.2875
3032.17632	14981.7875
3034.5858	14975.6875
3036.9938	15003.3875
3039.40034	14962.3875
3041.80542	14964.9875
3044.20903	14936.6875
3046.61118	14914.3875
3049.01187	14872.4875
3051.4111	14828.0875
3053.80888	14797.2875
3056.20519	14769.3875
3058.60005	14725.9875
3060.99345	14739.0875
3063.3854	14680.7875
3065.7759	14632.0875
3068.16494	14592.7875
3070.55254	14531.3875
3072.93868	14491.9875
3075.32338	14457.0875
3077.70662	14457.3875
3080.08842	14382.5875
3082.46878	14390.2875
3084.84769	14362.3875
3087.22515	14361.7875
3089.60118	14357.7875
3091.97576	14318.2875
3094.3489	14290.7875
3096.72061	14260.5875
3099.09087	14280.7875
3101.4597	14245.6875
3103.82709	14238.6875
3106.19305	14241.6875
3108.55757	14199.0875
3110.92066	14141.7875
3113.28232	14105.0875
3115.64255	14083.5875
3118.00134	14044.6875
3120.35871	14046.0875
3122.71466	14015.8875
3125.06917	13924.7875
3127.42226	13923.6875
3129.77393	13923.0875
3132.12417	13919.7875
3134.47299	13907.3875
3136.82039	13898.3875
3139.16636	13907.3875
3141.51092	13902.9875
3143.85406	13895.7875
3146.19579	13901.1875
3148.53609	13877.6875
3150.87499	13862.4875
3153.21246	13832.8875
3155.54853	13882.4875
3157.88318	13852.6875
3160.21642	13852.3875
3162.54826	13819.6875
3164.87868	13828.7875
3167.2077	13789.7875
3169.5353	13765.6875
3171.86151	13783.4875
3174.18631	13783.3875
3176.5097	13771.2875
3178.83169	13730.6875
3181.15228	13738.5875
3183.47147	13690.7875
3185.78926	13679.9875
3188.10565	13674.9875
3190.42065	13693.0875
3192.73424	13677.9875
3195.04645	13637.6875
3197.35725	13656.4875
3199.66667	13595.5875
3201.97469	13634.6875
3204.28132	13633.6875
3206.58656	13598.5875
3208.8904	13601.4875
3211.19287	13607.7875
3213.49394	13620.9875
3215.79363	13593.1875
3218.09193	13590.9875
3220.38884	13568.5875
3222.68438	13577.0875
3224.97853	13526.1875
3227.2713	13542.0875
3229.56269	13521.9875
3231.8527	13483.9875
3234.14133	13460.8875
3236.42858	13462.2875
3238.71446	13435.8875
3240.99896	13398.4875
3243.28209	13393.9875
3245.56384	13359.8875
3247.84423	13357.1875
3250.12324	13344.7875
3252.40088	13336.8875
3254.67715	13304.5875
3256.95205	13269.5875
3259.22558	13264.5875
3261.49775	13247.8875
3263.76855	13211.3875
3266.03799	13178.9875
3268.30606	13133.9875
3270.57277	13143.3875
3272.83812	13116.0875
3275.10211	13090.3875
3277.36474	13073.8875
3279.62601	13087.4875
3281.88593	13045.4875
3284.14448	13088.1875
3286.40168	13055.8875
3288.65753	13024.5875
3290.91202	13003.7875
3293.16516	12970.6875
3295.41695	12944.1875
3297.66738	12859.8875
3299.91647	12800.5875
3302.16421	12728.8875
3304.4106	12664.3875
3306.65564	12588.0875
3308.89933	12488.6875
3311.14169	12453.5875
3313.38269	12364.4875
3315.62236	12260.5875
3317.86068	12183.1875
3320.09766	12021.4875
3322.3333	11910.5875
3324.5676	11926.3875
3326.80056	11737.6875
3329.03219	11643.5875
3331.26248	2.3875
3333.49143	-0.1125
3335.71905	-1.1125
