Data from AgNPs_FTO_APTES_UA_2uM_CRN_500uM_R6G_10uM_NaF_0.1M_Addition_RamanShift__11__17-11-25-408.txt Node

Date: Wed Feb 02 17:11:25 GMT 2022
User: TCL
Spectrometer: QEP01345
Trigger mode: 4
Integration Time (sec): 7.000000E0
Scans to average: 10
Electric dark correction enabled: true
Nonlinearity correction enabled: false
Boxcar width: 0
XAxis mode: Raman Shifts
Number of Pixels in Spectrum: 1044
>>>>>Begin Spectral Data<<<<<
46.04893	0.6375
50.45542	1.0375
54.85868	-0.6625
59.25871	-0.0625
63.6555	60.2375
68.04907	64.5375
72.43941	66.3375
76.82654	73.3375
81.21044	72.9375
85.59113	78.1375
89.96862	81.3375
94.34289	81.9375
98.71396	86.6375
103.08183	93.6375
107.4465	93.1375
111.80798	96.9375
116.16626	96.1375
120.52136	97.6375
124.87327	102.9375
129.222	104.3375
133.56755	113.4375
137.90993	116.3375
142.24913	134.6375
146.58517	149.7375
150.91804	170.2375
155.24774	207.6375
159.57429	256.1375
163.89768	321.1375
168.21792	425.0375
172.53501	573.0375
176.84895	798.7375
181.15975	1114.7375
185.46741	1570.2375
189.77193	2139.1375
194.07331	2879.2375
198.37157	3700.0375
202.6667	4570.1375
206.9587	5440.8375
211.24758	6281.9375
215.53334	7155.4375
219.81599	8026.4375
224.09553	8989.0375
228.37195	10051.0375
232.64527	11212.0375
236.91549	12409.3375
241.18261	13650.9375
245.44663	14804.4375
249.70755	15858.7375
253.96539	16809.7375
258.22014	17582.6375
262.4718	18220.1375
266.72039	18631.5375
270.96589	18844.3375
275.20832	18937.9375
279.44768	18932.6375
283.68397	18862.3375
287.91719	18772.0375
292.14735	18755.9375
296.37445	18785.7375
300.59849	18885.7375
304.81948	18992.5375
309.03742	18973.6375
313.25231	18758.1375
317.46415	18379.8375
321.67296	17815.5375
325.87872	17357.4375
330.08145	17071.6375
334.28114	16951.1375
338.47781	16984.3375
342.67145	17075.5375
346.86207	17233.1375
351.04966	17379.3375
355.23424	17589.3375
359.4158	17805.3375
363.59435	17886.8375
367.76989	17978.9375
371.94243	18025.7375
376.11196	18000.2375
380.27849	18002.0375
384.44203	18065.1375
388.60257	18168.3375
392.76012	18408.7375
396.91468	18731.6375
401.06626	19075.3375
405.21485	19270.6375
409.36047	19254.3375
413.50311	19088.5375
417.64277	18992.6375
421.77947	19041.0375
425.9132	19211.3375
430.04396	19307.9375
434.17176	19451.4375
438.2966	19571.7375
442.41849	19791.8375
446.53742	20260.4375
450.6534	20825.6375
454.76644	21138.8375
458.87653	21365.0375
462.98368	21401.4375
467.08789	21275.6375
471.18916	21101.7375
475.2875	21025.5375
479.38291	21099.6375
483.4754	21103.1375
487.56496	20849.5375
491.6516	20357.7375
495.73531	19778.4375
499.81612	19388.6375
503.89401	19298.0375
507.96899	19349.3375
512.04106	19313.3375
516.11023	19135.2375
520.1765	18912.1375
524.23987	18547.1375
528.30034	18295.5375
532.35792	18059.3375
536.41261	17863.1375
540.46441	17753.6375
544.51333	17807.3375
548.55936	18122.6375
552.60252	18610.1375
556.64279	19209.9375
560.6802	19710.1375
564.71473	20118.2375
568.7464	20747.2375
572.7752	21740.4375
576.80114	22900.4375
580.82422	23823.1375
584.84444	24559.3375
588.86181	25411.9375
592.87633	26109.4375
596.888	25638.7375
600.89682	24182.9375
604.9028	23203.5375
608.90594	23282.0375
612.90624	23563.6375
616.90371	21972.9375
620.89834	19242.2375
624.89015	18079.4375
628.87913	18100.8375
632.86528	18349.8375
636.84862	18381.1375
640.82913	18001.7375
644.80683	17557.6375
648.78172	17215.0375
652.75379	17131.6375
656.72306	17262.3375
660.68952	17375.8375
664.65319	17293.8375
668.61405	17112.1375
672.57211	17066.5375
676.52738	17121.9375
680.47986	17185.1375
684.42955	17134.6375
688.37646	17068.6375
692.32058	17099.2375
696.26192	17316.3375
700.20048	17540.5375
704.13626	17730.5375
708.06928	17896.7375
711.99952	17929.7375
715.927	17899.8375
719.85171	17751.4375
723.77365	17585.6375
727.69284	17291.7375
731.60928	17027.2375
735.52295	16878.3375
739.43388	16813.2375
743.34206	16836.1375
747.24749	16968.6375
751.15017	17233.7375
755.05012	17629.1375
758.94733	18274.7375
762.8418	19185.4375
766.73354	20394.6375
770.62254	21344.1375
774.50882	21248.9375
778.39237	20138.0375
782.27321	18804.0375
786.15132	17813.0375
790.02671	17134.6375
793.89938	16835.9375
797.76935	16611.2375
801.6366	16575.0375
805.50115	16511.1375
809.36299	16435.5375
813.22213	16343.5375
817.07857	16363.2375
820.93231	16369.5375
824.78336	16221.8375
828.63172	16057.5375
832.47738	15916.6375
836.32036	15876.5375
840.16066	15866.8375
843.99827	15833.0375
847.8332	15820.6375
851.66546	15826.9375
855.49504	15825.8375
859.32195	15790.4375
863.1462	15765.9375
866.96777	15704.7375
870.78668	15666.4375
874.60293	15671.7375
878.41652	15665.3375
882.22745	15686.3375
886.03573	15712.4375
889.84136	15730.2375
893.64433	15699.2375
897.44466	15633.9375
901.24235	15638.8375
905.0374	15576.5375
908.8298	15589.7375
912.61957	15737.6375
916.40671	15973.5375
920.19121	16335.5375
923.97308	16571.0375
927.75233	16370.5375
931.52895	16076.2375
935.30295	15668.3375
939.07433	15311.1375
942.84309	15017.9375
946.60924	14805.0375
950.37278	14749.2375
954.13371	14756.7375
957.89203	14778.5375
961.64774	14826.8375
965.40086	14828.4375
969.15137	14743.2375
972.89929	14600.7375
976.64461	14446.5375
980.38733	14347.8375
984.12747	14310.1375
987.86502	14359.0375
991.59999	14401.1375
995.33237	14453.1375
999.06217	14627.6375
1002.78939	14835.0375
1006.51404	15047.6375
1010.23611	15267.0375
1013.95561	15470.9375
1017.67255	15577.3375
1021.38692	15484.8375
1025.09872	15260.5375
1028.80796	15055.8375
1032.51465	14939.7375
1036.21877	14942.3375
1039.92035	15054.0375
1043.61937	15158.5375
1047.31584	15264.7375
1051.00976	15364.2375
1054.70114	15517.5375
1058.38998	15701.8375
1062.07627	15981.6375
1065.76003	16280.0375
1069.44126	16574.9375
1073.11995	16832.6375
1076.79611	17015.8375
1080.46974	17046.9375
1084.14085	17085.8375
1087.80943	17188.3375
1091.47549	17423.6375
1095.13903	17596.9375
1098.80005	17496.0375
1102.45857	16977.9375
1106.11456	16454.5375
1109.76805	16113.6375
1113.41903	16026.0375
1117.06751	16121.0375
1120.71348	16295.5375
1124.35696	16516.8375
1127.99793	16815.4375
1131.63641	16988.9375
1135.2724	16984.4375
1138.90589	16985.9375
1142.5369	17127.0375
1146.16542	17434.9375
1149.79145	17792.3375
1153.415	18163.4375
1157.03607	18623.7375
1160.65467	19304.4375
1164.27079	20316.4375
1167.88443	21486.1375
1171.49561	22669.6375
1175.10432	23962.4375
1178.71056	25507.5375
1182.31434	27034.0375
1185.91565	27977.5375
1189.51451	28071.9375
1193.11091	27721.5375
1196.70485	27101.5375
1200.29634	26260.7375
1203.88538	25669.6375
1207.47197	25640.5375
1211.05612	25717.0375
1214.63782	25414.1375
1218.21708	24505.5375
1221.79391	23269.3375
1225.36829	22230.3375
1228.94024	21538.9375
1232.50976	21118.6375
1236.07685	20812.3375
1239.6415	20664.7375
1243.20374	20671.8375
1246.76355	20888.8375
1250.32093	21167.3375
1253.8759	21639.3375
1257.42845	22232.2375
1260.97859	22957.0375
1264.52631	23672.8375
1268.07163	24337.5375
1271.61453	25122.4375
1275.15503	25936.5375
1278.69312	27005.8375
1282.22882	28076.4375
1285.76211	29422.8375
1289.29301	31023.4375
1292.82151	32951.8375
1296.34761	35174.5375
1299.87133	37529.0375
1303.39266	39554.4375
1306.9116	40954.8375
1310.42815	41730.2375
1313.94233	41966.0375
1317.45412	41719.8375
1320.96354	41389.5375
1324.47058	41383.8375
1327.97525	41556.1375
1331.47754	41791.1375
1334.97747	41769.3375
1338.47502	41499.0375
1341.97022	40992.6375
1345.46305	40361.3375
1348.95352	39524.7375
1352.44163	38781.0375
1355.92738	38488.3375
1359.41078	38741.0375
1362.89183	38910.2375
1366.37053	38100.3375
1369.84688	35797.6375
1373.32088	32671.2375
1376.79254	30432.7375
1380.26186	29833.3375
1383.72883	30244.7375
1387.19347	30625.9375
1390.65578	30741.0375
1394.11575	30866.6375
1397.57339	31249.1375
1401.0287	31693.0375
1404.48168	31990.5375
1407.93234	31550.5375
1411.38068	30404.2375
1414.82669	28779.4375
1418.27039	27005.7375
1421.71177	25384.7375
1425.15083	24117.1375
1428.58758	23513.2375
1432.02203	23560.7375
1435.45416	24277.2375
1438.88399	25182.0375
1442.31151	25883.0375
1445.73673	26430.8375
1449.15965	26954.8375
1452.58027	27376.9375
1455.9986	27692.4375
1459.41463	27944.0375
1462.82837	28282.0375
1466.23982	28672.1375
1469.64898	28989.8375
1473.05586	29160.6375
1476.46045	29137.4375
1479.86276	28842.5375
1483.26279	28398.1375
1486.66054	28149.6375
1490.05602	28198.1375
1493.44922	28409.2375
1496.84016	28792.0375
1500.22882	29342.8375
1503.61521	30058.1375
1506.99934	30787.6375
1510.38121	31344.9375
1513.76081	31573.3375
1517.13816	31608.9375
1520.51324	31563.4375
1523.88607	31722.9375
1527.25665	32095.5375
1530.62498	32382.0375
1533.99105	32191.6375
1537.35488	31596.3375
1540.71647	30529.4375
1544.07581	29249.9375
1547.4329	28023.1375
1550.78776	26900.7375
1554.14038	26148.7375
1557.49077	25754.2375
1560.83892	25524.2375
1564.18484	25434.2375
1567.52853	25466.0375
1570.86999	25817.2375
1574.20922	26507.4375
1577.54624	27295.0375
1580.88103	27953.2375
1584.2136	28552.2375
1587.54395	29475.9375
1590.87208	30836.6375
1594.19801	32389.5375
1597.52172	33781.9375
1600.84321	33874.7375
1604.16251	32111.4375
1607.47959	29343.2375
1610.79447	26464.7375
1614.10715	23892.3375
1617.41763	21842.8375
1620.7259	20431.0375
1624.03199	19650.8375
1627.33587	19620.6375
1630.63757	20211.8375
1633.93707	21667.3375
1637.23439	24121.4375
1640.52951	27820.2375
1643.82246	32327.5375
1647.11321	36280.5375
1650.40179	37654.9375
1653.68819	35507.1375
1656.97241	30922.1375
1660.25446	25978.1375
1663.53433	21869.8375
1666.81203	18928.5375
1670.08756	16957.5375
1673.36092	15756.0375
1676.63211	14980.9375
1679.90115	14450.7375
1683.16801	14026.4375
1686.43272	13760.3375
1689.69527	13551.1375
1692.95567	13397.4375
1696.2139	13287.0375
1699.46999	13201.2375
1702.72392	13127.1375
1705.97571	13003.6375
1709.22535	12933.0375
1712.47284	12870.4375
1715.71819	12784.9375
1718.96139	12727.2375
1722.20246	12652.6375
1725.44139	12551.6375
1728.67818	12464.1375
1731.91284	12401.5375
1735.14537	12324.1375
1738.37576	12243.6375
1741.60403	12193.9375
1744.83017	12119.2375
1748.05418	12081.1375
1751.27607	12073.5375
1754.49584	12053.0375
1757.71349	12072.0375
1760.92903	12040.4375
1764.14244	12025.2375
1767.35375	12023.9375
1770.56294	11952.7375
1773.77002	11900.5375
1776.97499	11833.3375
1780.17785	11796.3375
1783.37861	11758.2375
1786.57727	11703.5375
1789.77382	11681.6375
1792.96828	11651.4375
1796.16064	11607.0375
1799.3509	11548.2375
1802.53907	11534.9375
1805.72514	11469.1375
1808.90913	11437.8375
1812.09102	11390.1375
1815.27083	11388.6375
1818.44856	11347.9375
1821.6242	11306.8375
1824.79776	11278.2375
1827.96924	11260.6375
1831.13864	11257.9375
1834.30597	11275.6375
1837.47122	11264.4375
1840.6344	11241.3375
1843.7955	11246.9375
1846.95454	11220.8375
1850.11151	11204.4375
1853.26642	11197.7375
1856.41926	11200.7375
1859.57004	11152.2375
1862.71876	11138.5375
1865.86542	11103.9375
1869.01003	11067.1375
1872.15258	11055.0375
1875.29308	11064.1375
1878.43152	11020.2375
1881.56792	11012.5375
1884.70227	10967.5375
1887.83457	10944.7375
1890.96482	10950.2375
1894.09304	10893.7375
1897.21921	10868.3375
1900.34335	10879.8375
1903.46544	10855.6375
1906.58551	10867.1375
1909.70353	10830.5375
1912.81953	10793.1375
1915.93349	10765.4375
1919.04543	10716.0375
1922.15534	10686.5375
1925.26322	10646.4375
1928.36908	10660.9375
1931.47292	10609.3375
1934.57473	10571.4375
1937.67453	10555.7375
1940.77232	10490.1375
1943.86808	10467.1375
1946.96184	10434.9375
1950.05358	10417.6375
1953.14331	10381.7375
1956.23103	10351.6375
1959.31675	10287.5375
1962.40046	10272.2375
1965.48217	10232.6375
1968.56188	10180.2375
1971.63959	10138.0375
1974.7153	10123.6375
1977.78901	10089.7375
1980.86073	10044.0375
1983.93046	10008.5375
1986.99819	9976.6375
1990.06394	9954.4375
1993.1277	9931.4375
1996.18947	9872.7375
1999.24925	9847.3375
2002.30706	9819.6375
2005.36288	9759.8375
2008.41672	9732.0375
2011.46859	9687.1375
2014.51848	9651.3375
2017.56639	9614.7375
2020.61233	9599.6375
2023.6563	9601.7375
2026.6983	9563.6375
2029.73833	9524.4375
2032.7764	9493.4375
2035.8125	9481.9375
2038.84664	9433.8375
2041.87881	9441.9375
2044.90903	9389.8375
2047.93729	9373.0375
2050.96359	9356.0375
2053.98794	9350.2375
2057.01034	9337.8375
2060.03078	9327.8375
2063.04927	9334.0375
2066.06582	9316.8375
2069.08042	9297.9375
2072.09307	9273.3375
2075.10378	9253.0375
2078.11255	9266.4375
2081.11938	9258.7375
2084.12426	9261.7375
2087.12722	9248.0375
2090.12824	9231.6375
2093.12732	9216.9375
2096.12447	9245.2375
2099.11969	9215.9375
2102.11299	9215.0375
2105.10435	9190.7375
2108.09379	9195.7375
2111.08131	9199.4375
2114.0669	9201.2375
2117.05057	9184.7375
2120.03233	9195.1375
2123.01216	9200.2375
2125.99008	9204.6375
2128.96609	9194.9375
2131.94018	9200.9375
2134.91236	9173.5375
2137.88263	9159.7375
2140.851	9191.8375
2143.81746	9171.5375
2146.78201	9164.2375
2149.74466	9154.2375
2152.7054	9166.7375
2155.66425	9106.3375
2158.6212	9116.8375
2161.57625	9115.6375
2164.52941	9110.7375
2167.48067	9077.7375
2170.43004	9067.6375
2173.37752	9087.7375
2176.32311	9074.8375
2179.26681	9092.3375
2182.20863	9053.0375
2185.14856	9075.9375
2188.08661	9041.3375
2191.02278	9045.7375
2193.95707	9036.5375
2196.88948	9001.2375
2199.82001	8989.2375
2202.74867	8954.4375
2205.67545	8958.3375
2208.60037	8946.4375
2211.52341	8922.0375
2214.44458	8913.6375
2217.36388	8897.6375
2220.28132	8860.7375
2223.1969	8856.3375
2226.11061	8843.6375
2229.02246	8824.9375
2231.93245	8824.3375
2234.84058	8788.9375
2237.74686	8781.0375
2240.65128	8767.6375
2243.55385	8749.8375
2246.45456	8736.7375
2249.35343	8704.1375
2252.25044	8669.9375
2255.14561	8627.5375
2258.03893	8619.0375
2260.93041	8587.8375
2263.82004	8538.8375
2266.70783	8523.7375
2269.59378	8502.2375
2272.4779	8471.3375
2275.36017	8453.4375
2278.24061	8440.6375
2281.11922	8431.6375
2283.996	8376.2375
2286.87094	8361.0375
2289.74405	8354.6375
2292.61534	8328.7375
2295.4848	8328.2375
2298.35243	8315.7375
2301.21824	8326.1375
2304.08223	8283.4375
2306.94439	8275.7375
2309.80474	8287.8375
2312.66327	8241.3375
2315.51999	8263.7375
2318.37489	8236.8375
2321.22797	8217.0375
2324.07925	8172.5375
2326.92871	8176.9375
2329.77637	8157.5375
2332.62222	8172.9375
2335.46626	8150.2375
2338.3085	8112.5375
2341.14893	8152.0375
2343.98756	8125.8375
2346.8244	8101.8375
2349.65943	8094.1375
2352.49267	8084.9375
2355.32411	8101.0375
2358.15376	8099.3375
2360.98161	8084.2375
2363.80768	8071.4375
2366.63195	8082.5375
2369.45444	8070.6375
2372.27514	8059.9375
2375.09405	8031.3375
2377.91118	8010.2375
2380.72652	8008.6375
2383.54009	7954.2375
2386.35187	7962.4375
2389.16188	7930.1375
2391.97011	7929.6375
2394.77657	7882.1375
2397.58125	7885.4375
2400.38416	7881.7375
2403.18529	7827.5375
2405.98466	7836.1375
2408.78226	7828.5375
2411.57809	7811.4375
2414.37216	7812.2375
2417.16446	7803.0375
2419.955	7794.2375
2422.74378	7804.0375
2425.5308	7783.8375
2428.31606	7768.2375
2431.09956	7762.6375
2433.88131	7752.4375
2436.6613	7729.2375
2439.43954	7706.0375
2442.21603	7715.7375
2444.99077	7717.4375
2447.76377	7716.8375
2450.53501	7696.4375
2453.30451	7702.1375
2456.07226	7697.2375
2458.83827	7688.2375
2461.60254	7670.6375
2464.36507	7680.4375
2467.12586	7671.0375
2469.88492	7657.1375
2472.64224	7645.1375
2475.39782	7648.5375
2478.15167	7672.9375
2480.90379	7666.5375
2483.65417	7630.9375
2486.40283	7648.3375
2489.14976	7645.2375
2491.89497	7616.5375
2494.63845	7636.4375
2497.3802	7630.3375
2500.12024	7628.1375
2502.85855	7622.5375
2505.59514	7615.5375
2508.33002	7590.7375
2511.06318	7585.1375
2513.79462	7584.5375
2516.52435	7582.5375
2519.25237	7596.3375
2521.97867	7569.3375
2524.70327	7555.8375
2527.42616	7537.2375
2530.14734	7521.7375
2532.86681	7516.6375
2535.58458	7505.7375
2538.30065	7508.0375
2541.01501	7491.5375
2543.72768	7464.2375
2546.43864	7460.8375
2549.14791	7452.6375
2551.85548	7459.3375
2554.56136	7437.8375
2557.26554	7418.6375
2559.96803	7414.1375
2562.66883	7406.0375
2565.36794	7386.2375
2568.06536	7414.9375
2570.7611	7399.3375
2573.45514	7382.2375
2576.14751	7374.6375
2578.83819	7359.9375
2581.52719	7359.8375
2584.21451	7348.6375
2586.90015	7344.2375
2589.58411	7334.2375
2592.2664	7328.3375
2594.94701	7307.3375
2597.62594	7314.7375
2600.30321	7310.0375
2602.9788	7328.8375
2605.65273	7298.3375
2608.32498	7302.6375
2610.99557	7280.2375
2613.66449	7291.5375
2616.33175	7289.6375
2618.99734	7281.0375
2621.66128	7256.8375
2624.32355	7271.8375
2626.98416	7288.5375
2629.64311	7262.4375
2632.30041	7253.3375
2634.95605	7253.8375
2637.61004	7260.0375
2640.26238	7237.1375
2642.91306	7237.6375
2645.56209	7231.1375
2648.20948	7237.9375
2650.85521	7217.5375
2653.4993	7236.1375
2656.14175	7237.2375
2658.78255	7227.2375
2661.42171	7240.2375
2664.05923	7234.6375
2666.6951	7253.2375
2669.32934	7227.6375
2671.96194	7234.8375
2674.59291	7250.8375
2677.22224	7253.0375
2679.84993	7246.6375
2682.476	7220.2375
2685.10043	7222.2375
2687.72324	7234.8375
2690.34441	7235.0375
2692.96396	7243.5375
2695.58188	7249.1375
2698.19818	7219.5375
2700.81285	7230.0375
2703.4259	7250.2375
2706.03733	7267.5375
2708.64714	7260.1375
2711.25533	7242.9375
2713.86191	7229.0375
2716.46687	7250.5375
2719.07021	7238.4375
2721.67194	7258.3375
2724.27206	7238.8375
2726.87057	7240.5375
2729.46747	7243.7375
2732.06276	7240.1375
2734.65644	7247.3375
2737.24852	7246.1375
2739.83899	7251.7375
2742.42786	7240.5375
2745.01513	7208.2375
2747.60079	7216.9375
2750.18486	7213.1375
2752.76733	7226.5375
2755.3482	7223.9375
2757.92747	7224.9375
2760.50515	7186.5375
2763.08123	7201.1375
2765.65573	7188.9375
2768.22863	7186.3375
2770.79994	7184.3375
2773.36967	7178.1375
2775.9378	7164.0375
2778.50435	7183.4375
2781.06932	7176.4375
2783.6327	7168.7375
2786.1945	7161.7375
2788.75471	7165.6375
2791.31335	7153.0375
2793.87041	7127.5375
2796.42589	7128.1375
2798.97979	7104.5375
2801.53212	7088.8375
2804.08288	7107.7375
2806.63206	7053.9375
2809.17967	7056.2375
2811.72571	7058.8375
2814.27018	7049.7375
2816.81308	7052.6375
2819.35442	7013.3375
2821.89419	7015.9375
2824.43239	7008.4375
2826.96904	6984.3375
2829.50412	6975.4375
2832.03763	6985.4375
2834.56959	7005.9375
2837.1	7005.6375
2839.62884	7024.4375
2842.15613	7032.8375
2844.68186	7059.6375
2847.20604	7077.2375
2849.72867	7104.5375
2852.24974	7096.5375
2854.76927	7088.2375
2857.28724	7080.5375
2859.80367	7065.2375
2862.31855	7043.4375
2864.83189	7032.2375
2867.34368	7007.1375
2869.85393	7009.9375
2872.36264	7008.5375
2874.8698	7024.1375
2877.37543	6981.3375
2879.87952	6976.3375
2882.38207	6980.4375
2884.88308	6945.2375
2887.38256	6958.4375
2889.88051	6945.5375
2892.37692	6960.8375
2894.8718	6969.2375
2897.36515	6989.9375
2899.85698	6977.9375
2902.34727	6975.7375
2904.83604	6995.1375
2907.32328	7014.6375
2909.809	7002.0375
2912.29319	6997.2375
2914.77587	6989.0375
2917.25702	6986.2375
2919.73665	6968.7375
2922.21476	6973.3375
2924.69136	6975.6375
2927.16644	6987.7375
2929.64	6967.4375
2932.11205	6962.8375
2934.58258	6966.8375
2937.05161	6954.0375
2939.51912	6943.5375
2941.98513	6926.2375
2944.44962	6917.1375
2946.91261	6871.8375
2949.37409	6869.1375
2951.83407	6855.4375
2954.29254	6837.7375
2956.74951	6799.4375
2959.20498	6788.1375
2961.65895	6777.0375
2964.11142	6769.4375
2966.56239	6738.8375
2969.01186	6735.9375
2971.45984	6701.0375
2973.90632	6672.0375
2976.35131	6644.1375
2978.7948	6625.3375
2981.23681	6612.6375
2983.67732	6618.1375
2986.11635	6582.2375
2988.55388	6565.5375
2990.98993	6527.9375
2993.4245	6516.9375
2995.85758	6492.2375
2998.28917	6464.0375
3000.71928	6457.8375
3003.14791	6434.7375
3005.57506	6429.7375
3008.00073	6392.8375
3010.42493	6404.4375
3012.84764	6378.3375
3015.26888	6369.9375
3017.68865	6334.1375
3020.10694	6337.8375
3022.52376	6321.7375
3024.9391	6307.4375
3027.35298	6293.1375
3029.76539	6273.8375
3032.17632	6252.9375
3034.5858	6259.8375
3036.9938	6254.3375
3039.40034	6248.8375
3041.80542	6244.1375
3044.20903	6201.6375
3046.61118	6230.4375
3049.01187	6195.0375
3051.4111	6209.6375
3053.80888	6189.2375
3056.20519	6158.5375
3058.60005	6163.0375
3060.99345	6141.7375
3063.3854	6120.1375
3065.7759	6100.0375
3068.16494	6068.7375
3070.55254	6032.3375
3072.93868	6037.8375
3075.32338	6006.8375
3077.70662	5994.4375
3080.08842	5987.1375
3082.46878	5987.9375
3084.84769	5966.5375
3087.22515	5952.9375
3089.60118	5952.5375
3091.97576	5939.4375
3094.3489	5918.8375
3096.72061	5929.5375
3099.09087	5910.7375
3101.4597	5897.4375
3103.82709	5910.6375
3106.19305	5896.0375
3108.55757	5877.1375
3110.92066	5858.8375
3113.28232	5836.1375
3115.64255	5844.6375
3118.00134	5815.0375
3120.35871	5817.0375
3122.71466	5810.1375
3125.06917	5785.2375
3127.42226	5783.9375
3129.77393	5773.9375
3132.12417	5773.8375
3134.47299	5762.0375
3136.82039	5765.2375
3139.16636	5768.5375
3141.51092	5758.2375
3143.85406	5756.9375
3146.19579	5772.7375
3148.53609	5756.2375
3150.87499	5763.1375
3153.21246	5741.3375
3155.54853	5763.0375
3157.88318	5747.6375
3160.21642	5785.1375
3162.54826	5757.4375
3164.87868	5736.0375
3167.2077	5735.0375
3169.5353	5725.1375
3171.86151	5742.9375
3174.18631	5727.1375
3176.5097	5708.4375
3178.83169	5722.0375
3181.15228	5709.8375
3183.47147	5712.0375
3185.78926	5703.1375
3188.10565	5702.2375
3190.42065	5689.5375
3192.73424	5692.6375
3195.04645	5686.4375
3197.35725	5691.4375
3199.66667	5684.7375
3201.97469	5680.6375
3204.28132	5666.2375
3206.58656	5669.2375
3208.8904	5683.9375
3211.19287	5680.9375
3213.49394	5659.1375
3215.79363	5646.9375
3218.09193	5664.3375
3220.38884	5640.4375
3222.68438	5655.7375
3224.97853	5642.4375
3227.2713	5636.9375
3229.56269	5626.3375
3231.8527	5640.2375
3234.14133	5607.4375
3236.42858	5624.4375
3238.71446	5590.6375
3240.99896	5580.1375
3243.28209	5589.6375
3245.56384	5579.7375
3247.84423	5564.0375
3250.12324	5569.7375
3252.40088	5553.8375
3254.67715	5531.3375
3256.95205	5515.9375
3259.22558	5511.7375
3261.49775	5495.2375
3263.76855	5487.8375
3266.03799	5469.0375
3268.30606	5444.3375
3270.57277	5436.4375
3272.83812	5425.6375
3275.10211	5395.8375
3277.36474	5427.5375
3279.62601	5401.3375
3281.88593	5393.4375
3284.14448	5401.7375
3286.40168	5401.8375
3288.65753	5410.8375
3290.91202	5381.5375
3293.16516	5373.4375
3295.41695	5347.7375
3297.66738	5306.3375
3299.91647	5304.6375
3302.16421	5266.6375
3304.4106	5246.2375
3306.65564	5220.3375
3308.89933	5176.6375
3311.14169	5120.2375
3313.38269	5090.4375
3315.62236	5050.5375
3317.86068	5011.8375
3320.09766	4944.3375
3322.3333	4910.4375
3324.5676	4890.6375
3326.80056	4810.5375
3329.03219	4772.6375
3331.26248	-0.0625
3333.49143	-0.0625
3335.71905	-1.6625
