Data from AgNPs_FTO_APTES_UA_2uM_CRN_0uM_R6G_10uM_NaF_0.1M_Addition_RamanShift__46__10-58-04-974.txt Node

Date: Wed Feb 02 10:58:04 GMT 2022
User: TCL
Spectrometer: QEP01345
Trigger mode: 4
Integration Time (sec): 7.000000E0
Scans to average: 10
Electric dark correction enabled: true
Nonlinearity correction enabled: false
Boxcar width: 0
XAxis mode: Raman Shifts
Number of Pixels in Spectrum: 1044
>>>>>Begin Spectral Data<<<<<
46.04893	-0.2625
50.45542	0.7375
54.85868	-0.8625
59.25871	-0.6625
63.6555	60.5375
68.04907	64.8375
72.43941	65.4375
76.82654	71.6375
81.21044	74.1375
85.59113	81.5375
89.96862	80.9375
94.34289	83.5375
98.71396	88.6375
103.08183	90.0375
107.4465	93.3375
111.80798	93.6375
116.16626	99.1375
120.52136	102.0375
124.87327	107.4375
129.222	112.6375
133.56755	121.2375
137.90993	131.6375
142.24913	152.6375
146.58517	174.1375
150.91804	199.6375
155.24774	247.1375
159.57429	308.5375
163.89768	400.4375
168.21792	528.3375
172.53501	734.7375
176.84895	1022.6375
181.15975	1442.8375
185.46741	2032.6375
189.77193	2794.0375
194.07331	3703.8375
198.37157	4775.0375
202.6667	5870.4375
206.9587	6979.2375
211.24758	8044.0375
215.53334	9163.6375
219.81599	10367.2375
224.09553	11711.7375
228.37195	13197.8375
232.64527	14782.1375
236.91549	16415.4375
241.18261	18012.0375
245.44663	19472.8375
249.70755	20707.8375
253.96539	21834.3375
258.22014	22817.3375
262.4718	23680.8375
266.72039	24279.5375
270.96589	24633.0375
275.20832	24698.3375
279.44768	24605.7375
283.68397	24469.1375
287.91719	24385.7375
292.14735	24380.2375
296.37445	24459.7375
300.59849	24614.6375
304.81948	24741.6375
309.03742	24670.6375
313.25231	24321.2375
317.46415	23551.7375
321.67296	22481.1375
325.87872	21548.7375
330.08145	21022.3375
334.28114	20831.4375
338.47781	20906.1375
342.67145	21115.2375
346.86207	21513.4375
351.04966	22004.4375
355.23424	22584.9375
359.4158	22995.8375
363.59435	23308.6375
367.76989	23464.9375
371.94243	23524.1375
376.11196	23589.2375
380.27849	23609.9375
384.44203	23680.3375
388.60257	23905.3375
392.76012	24269.3375
396.91468	24628.2375
401.06626	25075.6375
405.21485	25349.3375
409.36047	25143.4375
413.50311	24611.7375
417.64277	24247.0375
421.77947	24138.4375
425.9132	24224.6375
430.04396	24332.2375
434.17176	24418.3375
438.2966	24486.7375
442.41849	24838.1375
446.53742	25456.6375
450.6534	26213.8375
454.76644	26799.3375
458.87653	27046.0375
462.98368	27025.4375
467.08789	26853.6375
471.18916	26585.0375
475.2875	26513.5375
479.38291	26705.7375
483.4754	26921.3375
487.56496	26757.9375
491.6516	26182.2375
495.73531	25507.0375
499.81612	25010.7375
503.89401	24925.6375
507.96899	24841.6375
512.04106	24680.4375
516.11023	24336.8375
520.1765	23866.7375
524.23987	23422.8375
528.30034	23011.9375
532.35792	22668.0375
536.41261	22270.9375
540.46441	21915.1375
544.51333	21986.7375
548.55936	22451.2375
552.60252	23241.6375
556.64279	24164.1375
560.6802	24780.5375
564.71473	25241.1375
568.7464	26048.0375
572.7752	27105.2375
576.80114	27826.1375
580.82422	28249.7375
584.84444	28752.8375
588.86181	29021.9375
592.87633	29110.7375
596.888	28927.5375
600.89682	28602.0375
604.9028	29428.8375
608.90594	32491.9375
612.90624	35499.4375
616.90371	32910.7375
620.89834	26130.4375
624.89015	22970.9375
628.87913	22566.5375
632.86528	22839.0375
636.84862	22862.3375
640.82913	22564.4375
644.80683	21827.2375
648.78172	21113.7375
652.75379	20899.3375
656.72306	21093.8375
660.68952	21518.5375
664.65319	21386.9375
668.61405	20836.3375
672.57211	20640.1375
676.52738	20641.4375
680.47986	20566.6375
684.42955	20442.7375
688.37646	20291.1375
692.32058	20391.2375
696.26192	20691.1375
700.20048	21104.2375
704.13626	21436.1375
708.06928	21539.7375
711.99952	21442.0375
715.927	21364.8375
719.85171	21367.2375
723.77365	21295.4375
727.69284	20949.4375
731.60928	20616.8375
735.52295	20461.0375
739.43388	20538.5375
743.34206	20569.0375
747.24749	20679.1375
751.15017	21007.9375
755.05012	21548.1375
758.94733	22505.7375
762.8418	24187.1375
766.73354	26862.4375
770.62254	29296.3375
774.50882	29709.0375
778.39237	27732.7375
782.27321	25010.0375
786.15132	22877.0375
790.02671	21583.1375
793.89938	20866.3375
797.76935	20607.3375
801.6366	20527.1375
805.50115	20491.0375
809.36299	20386.1375
813.22213	20177.7375
817.07857	20109.6375
820.93231	20031.5375
824.78336	19824.5375
828.63172	19627.5375
832.47738	19530.8375
836.32036	19533.1375
840.16066	19561.3375
843.99827	19567.3375
847.8332	19475.2375
851.66546	19378.6375
855.49504	19358.0375
859.32195	19340.0375
863.1462	19305.9375
866.96777	19188.5375
870.78668	19123.0375
874.60293	19104.1375
878.41652	19149.4375
882.22745	19189.7375
886.03573	19283.8375
889.84136	19332.4375
893.64433	19311.9375
897.44466	19266.0375
901.24235	19249.3375
905.0374	19118.6375
908.8298	18979.6375
912.61957	19016.7375
916.40671	19232.9375
920.19121	19630.0375
923.97308	19982.5375
927.75233	20083.3375
931.52895	19901.4375
935.30295	19437.7375
939.07433	18804.8375
942.84309	18334.9375
946.60924	18045.9375
950.37278	17970.8375
954.13371	17931.8375
957.89203	17949.2375
961.64774	17935.0375
965.40086	17913.7375
969.15137	17885.2375
972.89929	17725.7375
976.64461	17578.4375
980.38733	17500.8375
984.12747	17515.8375
987.86502	17624.3375
991.59999	17811.9375
995.33237	18079.1375
999.06217	18620.3375
1002.78939	19283.5375
1006.51404	19820.6375
1010.23611	20225.3375
1013.95561	20460.9375
1017.67255	20514.9375
1021.38692	20219.8375
1025.09872	19821.1375
1028.80796	19711.8375
1032.51465	19969.0375
1036.21877	20351.5375
1039.92035	20468.9375
1043.61937	20260.7375
1047.31584	19968.0375
1051.00976	19665.8375
1054.70114	19542.4375
1058.38998	19637.9375
1062.07627	19870.2375
1065.76003	20111.4375
1069.44126	20483.8375
1073.11995	20938.0375
1076.79611	21319.7375
1080.46974	21480.5375
1084.14085	21683.4375
1087.80943	22044.6375
1091.47549	22461.0375
1095.13903	22618.1375
1098.80005	22264.3375
1102.45857	21412.6375
1106.11456	20664.3375
1109.76805	20231.5375
1113.41903	20222.1375
1117.06751	20317.2375
1120.71348	20624.8375
1124.35696	20976.8375
1127.99793	21431.5375
1131.63641	21763.9375
1135.2724	21668.5375
1138.90589	21528.1375
1142.5369	21524.1375
1146.16542	21663.0375
1149.79145	21925.8375
1153.415	22303.3375
1157.03607	22907.2375
1160.65467	23823.0375
1164.27079	25331.5375
1167.88443	27237.7375
1171.49561	29566.6375
1175.10432	32612.4375
1178.71056	36531.8375
1182.31434	40090.3375
1185.91565	42091.0375
1189.51451	42267.2375
1193.11091	41111.6375
1196.70485	39032.3375
1200.29634	36699.6375
1203.88538	34915.6375
1207.47197	33597.2375
1211.05612	32708.1375
1214.63782	31894.5375
1218.21708	30963.4375
1221.79391	30173.6375
1225.36829	29667.6375
1228.94024	29155.8375
1232.50976	28552.5375
1236.07685	28035.1375
1239.6415	27694.1375
1243.20374	27404.6375
1246.76355	27502.1375
1250.32093	27874.8375
1253.8759	28694.7375
1257.42845	29855.0375
1260.97859	31159.3375
1264.52631	32460.1375
1268.07163	33729.4375
1271.61453	35063.4375
1275.15503	36481.6375
1278.69312	37852.9375
1282.22882	39164.7375
1285.76211	40673.5375
1289.29301	42569.2375
1292.82151	44879.2375
1296.34761	47707.7375
1299.87133	51095.9375
1303.39266	54648.7375
1306.9116	58219.0375
1310.42815	61375.8375
1313.94233	63472.9375
1317.45412	63768.6375
1320.96354	63192.0375
1324.47058	62596.5375
1327.97525	62079.4375
1331.47754	61569.5375
1334.97747	60877.7375
1338.47502	59975.4375
1341.97022	58665.6375
1345.46305	56929.9375
1348.95352	55102.7375
1352.44163	53575.4375
1355.92738	53357.3375
1359.41078	55048.0375
1362.89183	57385.5375
1366.37053	57218.9375
1369.84688	53081.6375
1373.32088	47128.5375
1376.79254	42668.0375
1380.26186	40867.1375
1383.72883	40748.6375
1387.19347	40919.2375
1390.65578	40922.3375
1394.11575	41198.7375
1397.57339	41957.4375
1401.0287	43143.6375
1404.48168	44097.2375
1407.93234	43965.9375
1411.38068	42717.1375
1414.82669	40533.0375
1418.27039	37884.0375
1421.71177	35424.5375
1425.15083	33458.0375
1428.58758	32450.1375
1432.02203	32450.8375
1435.45416	33422.1375
1438.88399	34705.2375
1442.31151	35939.3375
1445.73673	37052.5375
1449.15965	38051.7375
1452.58027	38854.5375
1455.9986	39336.0375
1459.41463	39785.9375
1462.82837	40335.6375
1466.23982	40948.8375
1469.64898	41322.3375
1473.05586	41400.8375
1476.46045	41009.5375
1479.86276	40436.1375
1483.26279	39772.1375
1486.66054	39420.1375
1490.05602	39529.3375
1493.44922	40031.1375
1496.84016	40734.8375
1500.22882	41752.7375
1503.61521	43425.6375
1506.99934	45441.3375
1510.38121	47314.9375
1513.76081	48080.1375
1517.13816	47193.6375
1520.51324	45075.5375
1523.88607	43070.4375
1527.25665	41909.8375
1530.62498	41412.8375
1533.99105	41113.8375
1537.35488	40679.3375
1540.71647	39863.6375
1544.07581	38619.1375
1547.4329	37275.1375
1550.78776	36152.0375
1554.14038	35377.6375
1557.49077	35128.8375
1560.83892	35078.2375
1564.18484	35229.0375
1567.52853	35456.7375
1570.86999	35840.7375
1574.20922	36698.4375
1577.54624	37630.3375
1580.88103	38138.4375
1584.2136	38859.7375
1587.54395	40342.3375
1590.87208	42683.3375
1594.19801	45474.4375
1597.52172	47906.9375
1600.84321	48047.6375
1604.16251	44914.8375
1607.47959	40039.6375
1610.79447	35483.1375
1614.10715	31500.9375
1617.41763	28321.2375
1620.7259	26253.7375
1624.03199	25126.6375
1627.33587	25134.8375
1630.63757	26171.9375
1633.93707	28522.6375
1637.23439	32414.3375
1640.52951	37853.3375
1643.82246	44034.7375
1647.11321	48852.6375
1650.40179	49917.4375
1653.68819	46392.0375
1656.97241	39494.0375
1660.25446	32295.0375
1663.53433	26663.8375
1666.81203	22972.5375
1670.08756	20666.4375
1673.36092	19250.2375
1676.63211	18328.5375
1679.90115	17676.4375
1683.16801	17266.0375
1686.43272	16932.1375
1689.69527	16713.4375
1692.95567	16518.0375
1696.2139	16379.8375
1699.46999	16313.8375
1702.72392	16192.9375
1705.97571	16136.8375
1709.22535	16032.7375
1712.47284	15975.7375
1715.71819	15935.0375
1718.96139	15866.5375
1722.20246	15788.7375
1725.44139	15707.6375
1728.67818	15550.2375
1731.91284	15392.7375
1735.14537	15284.8375
1738.37576	15223.2375
1741.60403	15120.4375
1744.83017	15090.6375
1748.05418	15004.8375
1751.27607	14970.0375
1754.49584	14921.5375
1757.71349	14897.3375
1760.92903	14881.0375
1764.14244	14872.0375
1767.35375	14826.6375
1770.56294	14765.4375
1773.77002	14759.1375
1776.97499	14725.8375
1780.17785	14657.5375
1783.37861	14643.8375
1786.57727	14621.4375
1789.77382	14556.2375
1792.96828	14540.1375
1796.16064	14484.6375
1799.3509	14489.7375
1802.53907	14462.1375
1805.72514	14444.6375
1808.90913	14389.5375
1812.09102	14342.8375
1815.27083	14313.1375
1818.44856	14283.7375
1821.6242	14315.1375
1824.79776	14296.0375
1827.96924	14291.5375
1831.13864	14283.2375
1834.30597	14338.2375
1837.47122	14333.9375
1840.6344	14344.6375
1843.7955	14387.1375
1846.95454	14395.4375
1850.11151	14380.8375
1853.26642	14383.3375
1856.41926	14388.9375
1859.57004	14422.4375
1862.71876	14372.9375
1865.86542	14372.4375
1869.01003	14359.2375
1872.15258	14383.2375
1875.29308	14384.3375
1878.43152	14373.4375
1881.56792	14380.9375
1884.70227	14387.3375
1887.83457	14354.4375
1890.96482	14307.5375
1894.09304	14316.5375
1897.21921	14287.0375
1900.34335	14297.3375
1903.46544	14269.0375
1906.58551	14266.4375
1909.70353	14202.9375
1912.81953	14174.8375
1915.93349	14115.4375
1919.04543	14082.2375
1922.15534	14017.2375
1925.26322	13945.6375
1928.36908	13871.9375
1931.47292	13838.9375
1934.57473	13727.5375
1937.67453	13717.9375
1940.77232	13623.6375
1943.86808	13581.4375
1946.96184	13509.6375
1950.05358	13458.2375
1953.14331	13399.1375
1956.23103	13370.6375
1959.31675	13305.2375
1962.40046	13261.6375
1965.48217	13207.9375
1968.56188	13175.0375
1971.63959	13105.7375
1974.7153	13073.3375
1977.78901	13027.9375
1980.86073	12981.9375
1983.93046	12971.2375
1986.99819	12920.1375
1990.06394	12858.5375
1993.1277	12845.4375
1996.18947	12757.0375
1999.24925	12743.2375
2002.30706	12664.8375
2005.36288	12639.3375
2008.41672	12601.9375
2011.46859	12565.0375
2014.51848	12544.6375
2017.56639	12493.5375
2020.61233	12444.3375
2023.6563	12429.0375
2026.6983	12431.7375
2029.73833	12411.0375
2032.7764	12367.2375
2035.8125	12370.6375
2038.84664	12344.2375
2041.87881	12327.8375
2044.90903	12308.8375
2047.93729	12294.8375
2050.96359	12291.5375
2053.98794	12273.0375
2057.01034	12242.1375
2060.03078	12236.9375
2063.04927	12189.6375
2066.06582	12211.8375
2069.08042	12212.8375
2072.09307	12174.7375
2075.10378	12160.1375
2078.11255	12178.4375
2081.11938	12172.0375
2084.12426	12151.2375
2087.12722	12142.5375
2090.12824	12134.0375
2093.12732	12150.9375
2096.12447	12164.5375
2099.11969	12158.0375
2102.11299	12171.3375
2105.10435	12170.3375
2108.09379	12143.9375
2111.08131	12203.3375
2114.0669	12150.0375
2117.05057	12160.4375
2120.03233	12147.1375
2123.01216	12160.1375
2125.99008	12143.9375
2128.96609	12175.3375
2131.94018	12178.3375
2134.91236	12176.7375
2137.88263	12174.0375
2140.851	12181.2375
2143.81746	12222.7375
2146.78201	12191.8375
2149.74466	12181.2375
2152.7054	12177.5375
2155.66425	12170.9375
2158.6212	12162.3375
2161.57625	12191.9375
2164.52941	12153.5375
2167.48067	12182.7375
2170.43004	12162.7375
2173.37752	12169.5375
2176.32311	12162.4375
2179.26681	12186.3375
2182.20863	12172.4375
2185.14856	12175.4375
2188.08661	12162.4375
2191.02278	12155.4375
2193.95707	12146.3375
2196.88948	12151.2375
2199.82001	12126.0375
2202.74867	12119.7375
2205.67545	12119.9375
2208.60037	12117.4375
2211.52341	12095.9375
2214.44458	12082.4375
2217.36388	12069.8375
2220.28132	12033.7375
2223.1969	12019.2375
2226.11061	12002.4375
2229.02246	11983.7375
2231.93245	11974.8375
2234.84058	11933.0375
2237.74686	11912.1375
2240.65128	11877.9375
2243.55385	11906.6375
2246.45456	11893.4375
2249.35343	11846.6375
2252.25044	11811.6375
2255.14561	11763.7375
2258.03893	11792.1375
2260.93041	11736.1375
2263.82004	11746.9375
2266.70783	11727.4375
2269.59378	11685.6375
2272.4779	11672.6375
2275.36017	11614.6375
2278.24061	11582.4375
2281.11922	11580.0375
2283.996	11566.3375
2286.87094	11566.6375
2289.74405	11543.5375
2292.61534	11512.3375
2295.4848	11493.2375
2298.35243	11497.3375
2301.21824	11492.3375
2304.08223	11515.3375
2306.94439	11493.4375
2309.80474	11505.5375
2312.66327	11518.2375
2315.51999	11491.5375
2318.37489	11493.5375
2321.22797	11500.3375
2324.07925	11484.5375
2326.92871	11486.3375
2329.77637	11483.5375
2332.62222	11454.8375
2335.46626	11485.4375
2338.3085	11453.8375
2341.14893	11477.5375
2343.98756	11507.0375
2346.8244	11519.0375
2349.65943	11502.0375
2352.49267	11475.1375
2355.32411	11485.4375
2358.15376	11505.9375
2360.98161	11496.5375
2363.80768	11494.8375
2366.63195	11490.4375
2369.45444	11503.9375
2372.27514	11446.3375
2375.09405	11438.3375
2377.91118	11424.2375
2380.72652	11400.6375
2383.54009	11373.0375
2386.35187	11345.9375
2389.16188	11283.9375
2391.97011	11268.4375
2394.77657	11250.9375
2397.58125	11226.6375
2400.38416	11227.2375
2403.18529	11186.4375
2405.98466	11165.6375
2408.78226	11135.7375
2411.57809	11128.3375
2414.37216	11113.9375
2417.16446	11086.3375
2419.955	11093.8375
2422.74378	11097.3375
2425.5308	11089.0375
2428.31606	11120.0375
2431.09956	11107.3375
2433.88131	11073.1375
2436.6613	11086.6375
2439.43954	11087.1375
2442.21603	11090.4375
2444.99077	11096.4375
2447.76377	11086.1375
2450.53501	11105.9375
2453.30451	11105.1375
2456.07226	11109.2375
2458.83827	11106.4375
2461.60254	11103.1375
2464.36507	11129.9375
2467.12586	11093.5375
2469.88492	11126.5375
2472.64224	11136.5375
2475.39782	11139.0375
2478.15167	11135.3375
2480.90379	11155.8375
2483.65417	11165.7375
2486.40283	11160.4375
2489.14976	11163.2375
2491.89497	11186.2375
2494.63845	11199.8375
2497.3802	11185.0375
2500.12024	11218.4375
2502.85855	11211.7375
2505.59514	11195.3375
2508.33002	11175.7375
2511.06318	11158.5375
2513.79462	11146.8375
2516.52435	11126.3375
2519.25237	11121.8375
2521.97867	11089.4375
2524.70327	11108.0375
2527.42616	11090.5375
2530.14734	11093.2375
2532.86681	11074.8375
2535.58458	11072.7375
2538.30065	11042.6375
2541.01501	11043.0375
2543.72768	11032.7375
2546.43864	11038.4375
2549.14791	11005.6375
2551.85548	11018.3375
2554.56136	10990.3375
2557.26554	10998.9375
2559.96803	10984.8375
2562.66883	10975.9375
2565.36794	10980.0375
2568.06536	11007.0375
2570.7611	10976.1375
2573.45514	10978.8375
2576.14751	10972.8375
2578.83819	10954.1375
2581.52719	10980.1375
2584.21451	10977.1375
2586.90015	10955.3375
2589.58411	10934.1375
2592.2664	10933.9375
2594.94701	10945.1375
2597.62594	10935.2375
2600.30321	10895.5375
2602.9788	10915.6375
2605.65273	10923.7375
2608.32498	10951.9375
2610.99557	10951.7375
2613.66449	10937.5375
2616.33175	10938.5375
2618.99734	10981.1375
2621.66128	10964.6375
2624.32355	10974.4375
2626.98416	10952.5375
2629.64311	11007.7375
2632.30041	10958.6375
2634.95605	10961.1375
2637.61004	10961.2375
2640.26238	10933.0375
2642.91306	10934.6375
2645.56209	10935.2375
2648.20948	10926.8375
2650.85521	10903.4375
2653.4993	10930.1375
2656.14175	10936.6375
2658.78255	10978.1375
2661.42171	10952.5375
2664.05923	10966.3375
2666.6951	10954.0375
2669.32934	10982.5375
2671.96194	10996.0375
2674.59291	11016.7375
2677.22224	10992.7375
2679.84993	10974.4375
2682.476	10992.6375
2685.10043	10986.7375
2687.72324	10941.7375
2690.34441	10972.0375
2692.96396	10928.4375
2695.58188	10963.1375
2698.19818	10946.5375
2700.81285	10946.4375
2703.4259	10932.2375
2706.03733	10964.7375
2708.64714	10963.4375
2711.25533	10988.1375
2713.86191	10997.6375
2716.46687	10990.9375
2719.07021	10998.8375
2721.67194	10988.4375
2724.27206	10986.3375
2726.87057	11007.9375
2729.46747	11005.2375
2732.06276	11021.6375
2734.65644	11007.9375
2737.24852	11002.0375
2739.83899	11010.0375
2742.42786	11016.0375
2745.01513	11002.2375
2747.60079	11002.7375
2750.18486	11034.0375
2752.76733	11004.1375
2755.3482	11020.4375
2757.92747	11025.5375
2760.50515	11015.6375
2763.08123	11009.5375
2765.65573	11012.1375
2768.22863	11005.1375
2770.79994	10982.7375
2773.36967	11016.6375
2775.9378	11010.3375
2778.50435	11014.5375
2781.06932	11027.4375
2783.6327	11027.1375
2786.1945	11018.2375
2788.75471	11009.1375
2791.31335	10984.2375
2793.87041	10987.4375
2796.42589	10951.5375
2798.97979	10967.5375
2801.53212	10935.5375
2804.08288	10936.7375
2806.63206	10910.1375
2809.17967	10899.4375
2811.72571	10888.3375
2814.27018	10884.8375
2816.81308	10887.5375
2819.35442	10857.5375
2821.89419	10864.7375
2824.43239	10838.5375
2826.96904	10824.8375
2829.50412	10836.1375
2832.03763	10813.5375
2834.56959	10815.2375
2837.1	10804.3375
2839.62884	10809.3375
2842.15613	10836.9375
2844.68186	10870.8375
2847.20604	10913.0375
2849.72867	10917.8375
2852.24974	10954.5375
2854.76927	10939.5375
2857.28724	10923.4375
2859.80367	10912.8375
2862.31855	10924.2375
2864.83189	10903.7375
2867.34368	10886.5375
2869.85393	10916.3375
2872.36264	10892.3375
2874.8698	10988.7375
2877.37543	10923.1375
2879.87952	10940.1375
2882.38207	10944.0375
2884.88308	10936.5375
2887.38256	10974.1375
2889.88051	10955.1375
2892.37692	10979.5375
2894.8718	10981.6375
2897.36515	10991.7375
2899.85698	11010.8375
2902.34727	11031.7375
2904.83604	11039.2375
2907.32328	11059.2375
2909.809	11016.7375
2912.29319	11058.1375
2914.77587	11044.3375
2917.25702	11041.7375
2919.73665	11041.9375
2922.21476	11062.7375
2924.69136	11050.6375
2927.16644	11006.6375
2929.64	11015.4375
2932.11205	10989.4375
2934.58258	10994.0375
2937.05161	10968.3375
2939.51912	10948.5375
2941.98513	10950.5375
2944.44962	10897.0375
2946.91261	10812.3375
2949.37409	10832.5375
2951.83407	10816.7375
2954.29254	10794.6375
2956.74951	10767.7375
2959.20498	10719.9375
2961.65895	10675.2375
2964.11142	10685.5375
2966.56239	10646.1375
2969.01186	10667.4375
2971.45984	10604.5375
2973.90632	10569.5375
2976.35131	10541.0375
2978.7948	10530.0375
2981.23681	10490.8375
2983.67732	10446.4375
2986.11635	10422.8375
2988.55388	10406.7375
2990.98993	10370.8375
2993.4245	10315.0375
2995.85758	10321.5375
2998.28917	10272.3375
3000.71928	10264.9375
3003.14791	10259.8375
3005.57506	10248.8375
3008.00073	10213.8375
3010.42493	10204.4375
3012.84764	10183.9375
3015.26888	10176.9375
3017.68865	10139.6375
3020.10694	10130.3375
3022.52376	10101.5375
3024.9391	10087.0375
3027.35298	10098.5375
3029.76539	10093.0375
3032.17632	10062.4375
3034.5858	10028.7375
3036.9938	10047.8375
3039.40034	10023.2375
3041.80542	10012.5375
3044.20903	9985.2375
3046.61118	10021.3375
3049.01187	10006.0375
3051.4111	9977.4375
3053.80888	9971.9375
3056.20519	9929.0375
3058.60005	9915.3375
3060.99345	9890.0375
3063.3854	9849.9375
3065.7759	9862.5375
3068.16494	9829.5375
3070.55254	9790.3375
3072.93868	9786.3375
3075.32338	9744.3375
3077.70662	9707.5375
3080.08842	9693.4375
3082.46878	9689.4375
3084.84769	9679.1375
3087.22515	9671.5375
3089.60118	9669.3375
3091.97576	9656.2375
3094.3489	9657.4375
3096.72061	9649.4375
3099.09087	9640.6375
3101.4597	9628.6375
3103.82709	9605.9375
3106.19305	9551.4375
3108.55757	9606.4375
3110.92066	9558.2375
3113.28232	9533.5375
3115.64255	9492.7375
3118.00134	9488.6375
3120.35871	9485.0375
3122.71466	9460.1375
3125.06917	9471.0375
3127.42226	9435.3375
3129.77393	9445.6375
3132.12417	9433.2375
3134.47299	9406.7375
3136.82039	9440.3375
3139.16636	9403.0375
3141.51092	9427.3375
3143.85406	9444.2375
3146.19579	9427.7375
3148.53609	9441.1375
3150.87499	9451.3375
3153.21246	9426.6375
3155.54853	9454.5375
3157.88318	9451.5375
3160.21642	9431.9375
3162.54826	9433.1375
3164.87868	9439.9375
3167.2077	9426.4375
3169.5353	9402.9375
3171.86151	9438.1375
3174.18631	9391.7375
3176.5097	9415.7375
3178.83169	9400.6375
3181.15228	9404.1375
3183.47147	9397.7375
3185.78926	9397.1375
3188.10565	9398.0375
3190.42065	9398.2375
3192.73424	9413.4375
3195.04645	9408.2375
3197.35725	9418.7375
3199.66667	9394.5375
3201.97469	9405.2375
3204.28132	9378.6375
3206.58656	9401.1375
3208.8904	9389.7375
3211.19287	9392.0375
3213.49394	9403.5375
3215.79363	9402.2375
3218.09193	9414.7375
3220.38884	9395.2375
3222.68438	9392.8375
3224.97853	9390.4375
3227.2713	9388.8375
3229.56269	9373.7375
3231.8527	9377.1375
3234.14133	9365.2375
3236.42858	9329.0375
3238.71446	9358.4375
3240.99896	9339.8375
3243.28209	9361.0375
3245.56384	9356.5375
3247.84423	9341.6375
3250.12324	9321.3375
3252.40088	9326.4375
3254.67715	9308.9375
3256.95205	9261.6375
3259.22558	9256.4375
3261.49775	9242.1375
3263.76855	9210.1375
3266.03799	9203.2375
3268.30606	9215.3375
3270.57277	9174.8375
3272.83812	9170.6375
3275.10211	9172.4375
3277.36474	9150.9375
3279.62601	9145.5375
3281.88593	9136.6375
3284.14448	9162.4375
3286.40168	9150.5375
3288.65753	9154.5375
3290.91202	9133.4375
3293.16516	9098.4375
3295.41695	9077.9375
3297.66738	9014.7375
3299.91647	8969.0375
3302.16421	8945.3375
3304.4106	8913.2375
3306.65564	8850.8375
3308.89933	8778.6375
3311.14169	8743.5375
3313.38269	8670.1375
3315.62236	8626.8375
3317.86068	8549.3375
3320.09766	8474.4375
3322.3333	8388.1375
3324.5676	8399.0375
3326.80056	8274.4375
3329.03219	8216.1375
3331.26248	1.9375
3333.49143	-0.2625
3335.71905	-1.0625
