Data from AgNPs_FTO_APTES_UA_2uM_CRN_200uM_R6G_10uM_NaF_0.1M_Addition_RamanShift__21__16-43-25-376.txt Node

Date: Wed Feb 02 16:43:25 GMT 2022
User: TCL
Spectrometer: QEP01345
Trigger mode: 4
Integration Time (sec): 7.000000E0
Scans to average: 10
Electric dark correction enabled: true
Nonlinearity correction enabled: false
Boxcar width: 0
XAxis mode: Raman Shifts
Number of Pixels in Spectrum: 1044
>>>>>Begin Spectral Data<<<<<
46.04893	0.7375
50.45542	1.6375
54.85868	-2.3625
59.25871	-0.0625
63.6555	72.9375
68.04907	76.3375
72.43941	83.5375
76.82654	87.1375
81.21044	90.0375
85.59113	93.8375
89.96862	97.8375
94.34289	99.9375
98.71396	102.2375
103.08183	110.1375
107.4465	109.5375
111.80798	111.3375
116.16626	114.2375
120.52136	119.0375
124.87327	122.5375
129.222	128.9375
133.56755	133.2375
137.90993	144.1375
142.24913	159.9375
146.58517	180.8375
150.91804	201.7375
155.24774	245.1375
159.57429	303.1375
163.89768	384.1375
168.21792	507.4375
172.53501	691.2375
176.84895	959.0375
181.15975	1331.5375
185.46741	1876.0375
189.77193	2574.0375
194.07331	3431.7375
198.37157	4415.3375
202.6667	5474.3375
206.9587	6502.7375
211.24758	7515.6375
215.53334	8533.3375
219.81599	9632.0375
224.09553	10790.0375
228.37195	12075.6375
232.64527	13468.5375
236.91549	14957.6375
241.18261	16436.0375
245.44663	17894.6375
249.70755	19163.6375
253.96539	20332.4375
258.22014	21328.2375
262.4718	22167.1375
266.72039	22752.5375
270.96589	23123.1375
275.20832	23308.4375
279.44768	23331.7375
283.68397	23307.3375
287.91719	23234.6375
292.14735	23327.0375
296.37445	23453.1375
300.59849	23553.6375
304.81948	23552.5375
309.03742	23228.6375
313.25231	22769.7375
317.46415	22070.6375
321.67296	21325.9375
325.87872	20728.4375
330.08145	20340.6375
334.28114	20267.5375
338.47781	20352.9375
342.67145	20545.3375
346.86207	20835.6375
351.04966	21158.4375
355.23424	21461.0375
359.4158	21792.7375
363.59435	21986.4375
367.76989	22127.2375
371.94243	22263.1375
376.11196	22395.8375
380.27849	22490.7375
384.44203	22670.2375
388.60257	22908.7375
392.76012	23181.9375
396.91468	23515.1375
401.06626	23854.0375
405.21485	24062.9375
409.36047	24002.2375
413.50311	23710.3375
417.64277	23509.9375
421.77947	23477.9375
425.9132	23634.6375
430.04396	23862.3375
434.17176	24121.6375
438.2966	24449.3375
442.41849	24891.4375
446.53742	25664.6375
450.6534	26559.3375
454.76644	27258.0375
458.87653	27544.6375
462.98368	27438.0375
467.08789	27203.1375
471.18916	26978.0375
475.2875	27027.3375
479.38291	27198.6375
483.4754	27217.5375
487.56496	26813.1375
491.6516	26009.5375
495.73531	25209.2375
499.81612	24701.2375
503.89401	24560.5375
507.96899	24505.9375
512.04106	24335.3375
516.11023	23979.5375
520.1765	23656.9375
524.23987	23367.1375
528.30034	23141.6375
532.35792	22938.2375
536.41261	22709.1375
540.46441	22576.2375
544.51333	22715.1375
548.55936	23100.7375
552.60252	23768.0375
556.64279	24503.5375
560.6802	25139.7375
564.71473	25613.9375
568.7464	26220.1375
572.7752	27020.9375
576.80114	27483.0375
580.82422	27704.5375
584.84444	27945.5375
588.86181	28212.2375
592.87633	28699.0375
596.888	29023.3375
600.89682	28882.6375
604.9028	29117.2375
608.90594	30268.9375
612.90624	31455.4375
616.90371	29262.4375
620.89834	24981.5375
624.89015	23115.0375
628.87913	23024.8375
632.86528	23292.3375
636.84862	23460.1375
640.82913	23155.3375
644.80683	22482.8375
648.78172	21926.1375
652.75379	21639.4375
656.72306	21650.6375
660.68952	21912.5375
664.65319	21788.0375
668.61405	21535.9375
672.57211	21462.3375
676.52738	21537.0375
680.47986	21566.4375
684.42955	21473.7375
688.37646	21420.2375
692.32058	21467.9375
696.26192	21645.7375
700.20048	21888.0375
704.13626	22076.9375
708.06928	22119.5375
711.99952	22038.8375
715.927	21931.9375
719.85171	21961.4375
723.77365	21877.0375
727.69284	21723.9375
731.60928	21566.8375
735.52295	21463.8375
739.43388	21442.4375
743.34206	21503.2375
747.24749	21562.0375
751.15017	21801.2375
755.05012	22234.3375
758.94733	23012.3375
762.8418	24252.6375
766.73354	25979.7375
770.62254	27498.5375
774.50882	27560.9375
778.39237	26099.7375
782.27321	24151.7375
786.15132	22540.9375
790.02671	21623.9375
793.89938	21205.0375
797.76935	21026.6375
801.6366	21063.8375
805.50115	21032.1375
809.36299	20965.6375
813.22213	20890.6375
817.07857	20858.0375
820.93231	20822.9375
824.78336	20684.4375
828.63172	20556.0375
832.47738	20468.5375
836.32036	20424.1375
840.16066	20413.3375
843.99827	20390.9375
847.8332	20329.9375
851.66546	20277.7375
855.49504	20218.4375
859.32195	20204.0375
863.1462	20174.0375
866.96777	20068.1375
870.78668	20057.3375
874.60293	20016.9375
878.41652	20055.9375
882.22745	20073.8375
886.03573	20107.8375
889.84136	20152.8375
893.64433	20079.8375
897.44466	19986.2375
901.24235	19916.9375
905.0374	19812.1375
908.8298	19805.5375
912.61957	19842.8375
916.40671	20104.9375
920.19121	20421.6375
923.97308	20579.8375
927.75233	20486.2375
931.52895	20280.2375
935.30295	19967.5375
939.07433	19601.7375
942.84309	19291.3375
946.60924	19088.7375
950.37278	19053.9375
954.13371	19023.5375
957.89203	19054.4375
961.64774	19104.4375
965.40086	19072.4375
969.15137	18943.7375
972.89929	18786.7375
976.64461	18632.6375
980.38733	18545.4375
984.12747	18569.7375
987.86502	18702.2375
991.59999	18869.6375
995.33237	19119.7375
999.06217	19568.9375
1002.78939	20095.1375
1006.51404	20467.8375
1010.23611	20731.9375
1013.95561	20934.4375
1017.67255	20933.7375
1021.38692	20694.0375
1025.09872	20412.4375
1028.80796	20215.5375
1032.51465	20387.1375
1036.21877	20561.2375
1039.92035	20656.1375
1043.61937	20610.4375
1047.31584	20430.9375
1051.00976	20321.6375
1054.70114	20303.3375
1058.38998	20439.2375
1062.07627	20726.8375
1065.76003	20956.4375
1069.44126	21216.2375
1073.11995	21406.0375
1076.79611	21554.1375
1080.46974	21594.4375
1084.14085	21691.8375
1087.80943	21881.7375
1091.47549	22152.3375
1095.13903	22297.5375
1098.80005	22162.5375
1102.45857	21673.5375
1106.11456	21249.2375
1109.76805	21079.8375
1113.41903	21145.6375
1117.06751	21298.4375
1120.71348	21541.2375
1124.35696	21792.2375
1127.99793	22120.8375
1131.63641	22297.1375
1135.2724	22204.7375
1138.90589	22118.8375
1142.5369	22174.4375
1146.16542	22400.1375
1149.79145	22721.5375
1153.415	23164.7375
1157.03607	23711.7375
1160.65467	24525.1375
1164.27079	25730.9375
1167.88443	27209.2375
1171.49561	28978.0375
1175.10432	31226.7375
1178.71056	33895.5375
1182.31434	36439.2375
1185.91565	37731.4375
1189.51451	37844.9375
1193.11091	37309.6375
1196.70485	36408.8375
1200.29634	35142.0375
1203.88538	34030.7375
1207.47197	33308.3375
1211.05612	32816.7375
1214.63782	32124.8375
1218.21708	31273.6375
1221.79391	30411.3375
1225.36829	29742.8375
1228.94024	29030.9375
1232.50976	28361.7375
1236.07685	27937.6375
1239.6415	27700.8375
1243.20374	27713.9375
1246.76355	27883.1375
1250.32093	28270.5375
1253.8759	28806.2375
1257.42845	29677.5375
1260.97859	30511.0375
1264.52631	31261.5375
1268.07163	32077.2375
1271.61453	32951.9375
1275.15503	34001.5375
1278.69312	35171.8375
1282.22882	36229.2375
1285.76211	37507.4375
1289.29301	39122.5375
1292.82151	41291.0375
1296.34761	44014.1375
1299.87133	47092.2375
1303.39266	50060.7375
1306.9116	52880.0375
1310.42815	55233.2375
1313.94233	56898.0375
1317.45412	57451.7375
1320.96354	57463.5375
1324.47058	57283.9375
1327.97525	57105.1375
1331.47754	56956.0375
1334.97747	56963.7375
1338.47502	56984.4375
1341.97022	56529.2375
1345.46305	55265.7375
1348.95352	53332.9375
1352.44163	51382.2375
1355.92738	50292.9375
1359.41078	50429.9375
1362.89183	50823.3375
1366.37053	49886.9375
1369.84688	46637.8375
1373.32088	42484.8375
1376.79254	39726.1375
1380.26186	38897.3375
1383.72883	39468.6375
1387.19347	40283.8375
1390.65578	40850.4375
1394.11575	41669.2375
1397.57339	42902.7375
1401.0287	44490.0375
1404.48168	45798.8375
1407.93234	46093.5375
1411.38068	45229.0375
1414.82669	43199.4375
1418.27039	40475.4375
1421.71177	37641.5375
1425.15083	35332.7375
1428.58758	33905.9375
1432.02203	33644.1375
1435.45416	34334.3375
1438.88399	35557.0375
1442.31151	36929.3375
1445.73673	38071.6375
1449.15965	39286.8375
1452.58027	40329.7375
1455.9986	41055.9375
1459.41463	41543.8375
1462.82837	42231.2375
1466.23982	42794.3375
1469.64898	43303.7375
1473.05586	43378.0375
1476.46045	42994.7375
1479.86276	42203.7375
1483.26279	41224.9375
1486.66054	40305.1375
1490.05602	39722.2375
1493.44922	39341.1375
1496.84016	38981.5375
1500.22882	38823.4375
1503.61521	39137.0375
1506.99934	39821.8375
1510.38121	40732.8375
1513.76081	41171.4375
1517.13816	40872.0375
1520.51324	39998.1375
1523.88607	39334.2375
1527.25665	39085.2375
1530.62498	39291.3375
1533.99105	39503.4375
1537.35488	39576.7375
1540.71647	39273.7375
1544.07581	38483.9375
1547.4329	37548.3375
1550.78776	36564.7375
1554.14038	35868.6375
1557.49077	35474.5375
1560.83892	35309.0375
1564.18484	35234.5375
1567.52853	35139.9375
1570.86999	35343.6375
1574.20922	36008.0375
1577.54624	36830.2375
1580.88103	37594.9375
1584.2136	38629.3375
1587.54395	40258.5375
1590.87208	42561.0375
1594.19801	45174.9375
1597.52172	47434.0375
1600.84321	48011.5375
1604.16251	45836.8375
1607.47959	42076.6375
1610.79447	37741.5375
1614.10715	33830.7375
1617.41763	30647.3375
1620.7259	28491.1375
1624.03199	27238.7375
1627.33587	27102.3375
1630.63757	27910.3375
1633.93707	29912.9375
1637.23439	33277.9375
1640.52951	37868.4375
1643.82246	43194.5375
1647.11321	47276.3375
1650.40179	48130.4375
1653.68819	44968.3375
1656.97241	39113.5375
1660.25446	32936.1375
1663.53433	28027.1375
1666.81203	24648.1375
1670.08756	22503.7375
1673.36092	21129.5375
1676.63211	20261.2375
1679.90115	19682.9375
1683.16801	19174.7375
1686.43272	18875.8375
1689.69527	18625.2375
1692.95567	18434.0375
1696.2139	18314.4375
1699.46999	18208.7375
1702.72392	18101.1375
1705.97571	18033.3375
1709.22535	17899.4375
1712.47284	17844.2375
1715.71819	17778.6375
1718.96139	17706.2375
1722.20246	17640.0375
1725.44139	17567.4375
1728.67818	17463.3375
1731.91284	17374.9375
1735.14537	17244.8375
1738.37576	17169.1375
1741.60403	17124.8375
1744.83017	17057.3375
1748.05418	17024.1375
1751.27607	17004.2375
1754.49584	17013.9375
1757.71349	17006.0375
1760.92903	16960.4375
1764.14244	16900.6375
1767.35375	16850.0375
1770.56294	16837.0375
1773.77002	16796.8375
1776.97499	16728.5375
1780.17785	16685.5375
1783.37861	16666.2375
1786.57727	16635.1375
1789.77382	16575.0375
1792.96828	16562.7375
1796.16064	16518.6375
1799.3509	16474.6375
1802.53907	16428.1375
1805.72514	16391.0375
1808.90913	16347.0375
1812.09102	16329.8375
1815.27083	16303.3375
1818.44856	16270.9375
1821.6242	16241.7375
1824.79776	16195.6375
1827.96924	16194.0375
1831.13864	16158.4375
1834.30597	16161.3375
1837.47122	16176.4375
1840.6344	16163.2375
1843.7955	16187.7375
1846.95454	16162.6375
1850.11151	16170.8375
1853.26642	16160.0375
1856.41926	16143.6375
1859.57004	16131.8375
1862.71876	16127.5375
1865.86542	16128.7375
1869.01003	16112.1375
1872.15258	16093.2375
1875.29308	16113.7375
1878.43152	16095.8375
1881.56792	16084.0375
1884.70227	16046.5375
1887.83457	16079.2375
1890.96482	16068.2375
1894.09304	16039.9375
1897.21921	16053.6375
1900.34335	16050.3375
1903.46544	16023.6375
1906.58551	16022.0375
1909.70353	15996.1375
1912.81953	15997.2375
1915.93349	15943.9375
1919.04543	15902.0375
1922.15534	15885.0375
1925.26322	15810.5375
1928.36908	15797.3375
1931.47292	15753.3375
1934.57473	15703.5375
1937.67453	15627.2375
1940.77232	15600.3375
1943.86808	15558.5375
1946.96184	15514.7375
1950.05358	15451.1375
1953.14331	15387.2375
1956.23103	15368.3375
1959.31675	15289.4375
1962.40046	15262.8375
1965.48217	15200.2375
1968.56188	15153.7375
1971.63959	15084.2375
1974.7153	15052.8375
1977.78901	14992.9375
1980.86073	14940.6375
1983.93046	14875.1375
1986.99819	14842.3375
1990.06394	14813.0375
1993.1277	14781.4375
1996.18947	14734.5375
1999.24925	14670.8375
2002.30706	14637.9375
2005.36288	14596.1375
2008.41672	14576.5375
2011.46859	14505.2375
2014.51848	14452.6375
2017.56639	14423.4375
2020.61233	14387.9375
2023.6563	14351.5375
2026.6983	14360.7375
2029.73833	14308.6375
2032.7764	14255.8375
2035.8125	14257.5375
2038.84664	14248.2375
2041.87881	14244.5375
2044.90903	14212.5375
2047.93729	14187.0375
2050.96359	14163.3375
2053.98794	14156.8375
2057.01034	14148.5375
2060.03078	14115.3375
2063.04927	14108.5375
2066.06582	14106.6375
2069.08042	14103.0375
2072.09307	14074.6375
2075.10378	14043.0375
2078.11255	14043.9375
2081.11938	14047.6375
2084.12426	14001.0375
2087.12722	14004.1375
2090.12824	13995.6375
2093.12732	14015.8375
2096.12447	14009.1375
2099.11969	13995.6375
2102.11299	14043.7375
2105.10435	14034.3375
2108.09379	14023.8375
2111.08131	14023.3375
2114.0669	14002.9375
2117.05057	14009.7375
2120.03233	14043.4375
2123.01216	14075.2375
2125.99008	14036.4375
2128.96609	14028.5375
2131.94018	14059.9375
2134.91236	14067.6375
2137.88263	14033.0375
2140.851	14041.5375
2143.81746	14086.8375
2146.78201	14066.9375
2149.74466	14068.0375
2152.7054	14082.6375
2155.66425	14084.9375
2158.6212	14087.5375
2161.57625	14070.3375
2164.52941	14045.7375
2167.48067	14042.0375
2170.43004	14006.1375
2173.37752	14017.8375
2176.32311	14004.9375
2179.26681	13999.4375
2182.20863	13995.9375
2185.14856	14006.7375
2188.08661	14007.4375
2191.02278	13997.0375
2193.95707	13981.9375
2196.88948	13983.1375
2199.82001	13973.6375
2202.74867	13969.6375
2205.67545	13976.4375
2208.60037	13947.0375
2211.52341	13917.0375
2214.44458	13892.4375
2217.36388	13874.3375
2220.28132	13886.1375
2223.1969	13849.0375
2226.11061	13818.9375
2229.02246	13764.6375
2231.93245	13758.2375
2234.84058	13721.4375
2237.74686	13709.8375
2240.65128	13680.2375
2243.55385	13687.0375
2246.45456	13676.9375
2249.35343	13628.9375
2252.25044	13592.9375
2255.14561	13579.6375
2258.03893	13559.2375
2260.93041	13537.4375
2263.82004	13462.6375
2266.70783	13454.9375
2269.59378	13400.4375
2272.4779	13392.9375
2275.36017	13317.2375
2278.24061	13320.5375
2281.11922	13273.7375
2283.996	13271.8375
2286.87094	13222.8375
2289.74405	13227.4375
2292.61534	13215.6375
2295.4848	13197.1375
2298.35243	13192.1375
2301.21824	13204.9375
2304.08223	13182.9375
2306.94439	13206.1375
2309.80474	13169.9375
2312.66327	13171.8375
2315.51999	13177.3375
2318.37489	13168.6375
2321.22797	13162.4375
2324.07925	13135.2375
2326.92871	13109.7375
2329.77637	13094.2375
2332.62222	13100.5375
2335.46626	13060.8375
2338.3085	13082.8375
2341.14893	13066.6375
2343.98756	13058.1375
2346.8244	13068.2375
2349.65943	13072.8375
2352.49267	13076.1375
2355.32411	13055.0375
2358.15376	13059.9375
2360.98161	13037.3375
2363.80768	13023.8375
2366.63195	13011.0375
2369.45444	12989.3375
2372.27514	12988.5375
2375.09405	12981.8375
2377.91118	12957.9375
2380.72652	12942.5375
2383.54009	12877.7375
2386.35187	12886.4375
2389.16188	12874.6375
2391.97011	12861.4375
2394.77657	12788.6375
2397.58125	12815.9375
2400.38416	12759.2375
2403.18529	12733.0375
2405.98466	12741.4375
2408.78226	12724.1375
2411.57809	12698.2375
2414.37216	12707.2375
2417.16446	12709.3375
2419.955	12660.7375
2422.74378	12680.4375
2425.5308	12644.0375
2428.31606	12649.3375
2431.09956	12623.3375
2433.88131	12597.2375
2436.6613	12600.8375
2439.43954	12613.7375
2442.21603	12599.3375
2444.99077	12578.4375
2447.76377	12606.8375
2450.53501	12576.8375
2453.30451	12600.6375
2456.07226	12563.1375
2458.83827	12572.2375
2461.60254	12584.0375
2464.36507	12599.1375
2467.12586	12574.7375
2469.88492	12558.6375
2472.64224	12574.6375
2475.39782	12601.5375
2478.15167	12590.3375
2480.90379	12587.8375
2483.65417	12581.7375
2486.40283	12598.8375
2489.14976	12599.1375
2491.89497	12611.2375
2494.63845	12637.7375
2497.3802	12620.7375
2500.12024	12582.3375
2502.85855	12593.6375
2505.59514	12604.7375
2508.33002	12588.5375
2511.06318	12604.2375
2513.79462	12576.8375
2516.52435	12580.8375
2519.25237	12563.6375
2521.97867	12554.4375
2524.70327	12547.1375
2527.42616	12554.6375
2530.14734	12521.8375
2532.86681	12510.0375
2535.58458	12517.8375
2538.30065	12524.4375
2541.01501	12499.1375
2543.72768	12481.4375
2546.43864	12454.7375
2549.14791	12447.1375
2551.85548	12471.1375
2554.56136	12437.2375
2557.26554	12433.0375
2559.96803	12413.4375
2562.66883	12416.9375
2565.36794	12424.0375
2568.06536	12426.6375
2570.7611	12387.3375
2573.45514	12375.9375
2576.14751	12397.6375
2578.83819	12372.1375
2581.52719	12356.2375
2584.21451	12377.9375
2586.90015	12389.5375
2589.58411	12382.5375
2592.2664	12341.8375
2594.94701	12333.4375
2597.62594	12354.1375
2600.30321	12338.9375
2602.9788	12352.7375
2605.65273	12315.0375
2608.32498	12343.1375
2610.99557	12333.8375
2613.66449	12376.5375
2616.33175	12378.3375
2618.99734	12356.0375
2621.66128	12369.4375
2624.32355	12370.9375
2626.98416	12352.5375
2629.64311	12381.3375
2632.30041	12369.9375
2634.95605	12388.3375
2637.61004	12365.8375
2640.26238	12358.3375
2642.91306	12364.0375
2645.56209	12367.2375
2648.20948	12355.6375
2650.85521	12349.8375
2653.4993	12333.0375
2656.14175	12343.2375
2658.78255	12368.5375
2661.42171	12364.6375
2664.05923	12411.0375
2666.6951	12371.1375
2669.32934	12402.9375
2671.96194	12392.8375
2674.59291	12397.8375
2677.22224	12374.3375
2679.84993	12401.1375
2682.476	12373.3375
2685.10043	12372.1375
2687.72324	12369.9375
2690.34441	12385.7375
2692.96396	12383.2375
2695.58188	12399.4375
2698.19818	12363.2375
2700.81285	12373.8375
2703.4259	12399.7375
2706.03733	12462.2375
2708.64714	12436.4375
2711.25533	12416.5375
2713.86191	12401.6375
2716.46687	12434.7375
2719.07021	12450.9375
2721.67194	12441.8375
2724.27206	12470.3375
2726.87057	12486.0375
2729.46747	12481.1375
2732.06276	12482.4375
2734.65644	12474.3375
2737.24852	12472.7375
2739.83899	12462.7375
2742.42786	12526.1375
2745.01513	12526.0375
2747.60079	12486.9375
2750.18486	12465.0375
2752.76733	12448.7375
2755.3482	12469.1375
2757.92747	12499.3375
2760.50515	12478.7375
2763.08123	12514.4375
2765.65573	12514.4375
2768.22863	12517.2375
2770.79994	12469.9375
2773.36967	12514.9375
2775.9378	12523.7375
2778.50435	12494.3375
2781.06932	12467.0375
2783.6327	12490.4375
2786.1945	12487.7375
2788.75471	12487.4375
2791.31335	12461.3375
2793.87041	12472.7375
2796.42589	12439.7375
2798.97979	12454.4375
2801.53212	12430.6375
2804.08288	12414.6375
2806.63206	12375.8375
2809.17967	12354.3375
2811.72571	12304.0375
2814.27018	12306.8375
2816.81308	12308.1375
2819.35442	12270.9375
2821.89419	12235.3375
2824.43239	12238.1375
2826.96904	12240.5375
2829.50412	12224.8375
2832.03763	12208.6375
2834.56959	12195.5375
2837.1	12188.7375
2839.62884	12188.5375
2842.15613	12178.8375
2844.68186	12220.8375
2847.20604	12244.3375
2849.72867	12245.2375
2852.24974	12262.4375
2854.76927	12262.2375
2857.28724	12216.4375
2859.80367	12228.9375
2862.31855	12204.7375
2864.83189	12197.2375
2867.34368	12176.4375
2869.85393	12179.6375
2872.36264	12169.0375
2874.8698	12180.7375
2877.37543	12175.5375
2879.87952	12174.9375
2882.38207	12215.0375
2884.88308	12209.3375
2887.38256	12184.4375
2889.88051	12183.0375
2892.37692	12213.9375
2894.8718	12198.0375
2897.36515	12224.2375
2899.85698	12246.7375
2902.34727	12267.6375
2904.83604	12267.7375
2907.32328	12263.4375
2909.809	12274.7375
2912.29319	12289.3375
2914.77587	12291.9375
2917.25702	12281.6375
2919.73665	12278.3375
2922.21476	12271.9375
2924.69136	12295.7375
2927.16644	12277.2375
2929.64	12310.4375
2932.11205	12301.0375
2934.58258	12242.3375
2937.05161	12264.3375
2939.51912	12261.4375
2941.98513	12245.1375
2944.44962	12183.4375
2946.91261	12133.0375
2949.37409	12139.6375
2951.83407	12113.1375
2954.29254	12096.7375
2956.74951	12096.7375
2959.20498	12063.0375
2961.65895	12069.0375
2964.11142	12026.8375
2966.56239	11990.0375
2969.01186	11992.8375
2971.45984	11962.0375
2973.90632	11939.3375
2976.35131	11849.3375
2978.7948	11869.2375
2981.23681	11820.3375
2983.67732	11823.4375
2986.11635	11789.1375
2988.55388	11747.6375
2990.98993	11704.4375
2993.4245	11706.1375
2995.85758	11681.6375
2998.28917	11663.8375
3000.71928	11615.7375
3003.14791	11592.2375
3005.57506	11564.4375
3008.00073	11536.5375
3010.42493	11503.1375
3012.84764	11515.0375
3015.26888	11488.6375
3017.68865	11478.6375
3020.10694	11466.5375
3022.52376	11425.4375
3024.9391	11407.1375
3027.35298	11367.5375
3029.76539	11388.2375
3032.17632	11389.6375
3034.5858	11362.7375
3036.9938	11358.8375
3039.40034	11333.8375
3041.80542	11363.7375
3044.20903	11287.7375
3046.61118	11303.9375
3049.01187	11304.8375
3051.4111	11267.7375
3053.80888	11233.1375
3056.20519	11215.2375
3058.60005	11174.2375
3060.99345	11171.2375
3063.3854	11135.2375
3065.7759	11090.8375
3068.16494	11075.3375
3070.55254	11038.0375
3072.93868	11022.7375
3075.32338	10968.6375
3077.70662	10949.0375
3080.08842	10898.5375
3082.46878	10882.3375
3084.84769	10875.5375
3087.22515	10875.0375
3089.60118	10899.1375
3091.97576	10851.3375
3094.3489	10849.6375
3096.72061	10836.5375
3099.09087	10856.5375
3101.4597	10813.5375
3103.82709	10825.7375
3106.19305	10792.9375
3108.55757	10772.1375
3110.92066	10758.1375
3113.28232	10721.5375
3115.64255	10678.1375
3118.00134	10643.1375
3120.35871	10614.3375
3122.71466	10597.0375
3125.06917	10597.8375
3127.42226	10563.4375
3129.77393	10590.6375
3132.12417	10560.4375
3134.47299	10540.6375
3136.82039	10538.7375
3139.16636	10522.1375
3141.51092	10529.0375
3143.85406	10525.6375
3146.19579	10528.6375
3148.53609	10510.7375
3150.87499	10545.3375
3153.21246	10527.1375
3155.54853	10546.8375
3157.88318	10522.9375
3160.21642	10522.2375
3162.54826	10531.3375
3164.87868	10508.3375
3167.2077	10484.3375
3169.5353	10524.1375
3171.86151	10505.9375
3174.18631	10464.2375
3176.5097	10497.3375
3178.83169	10462.2375
3181.15228	10473.9375
3183.47147	10446.6375
3185.78926	10451.2375
3188.10565	10415.3375
3190.42065	10432.8375
3192.73424	10461.4375
3195.04645	10413.3375
3197.35725	10423.0375
3199.66667	10421.6375
3201.97469	10426.3375
3204.28132	10401.6375
3206.58656	10423.8375
3208.8904	10436.2375
3211.19287	10404.3375
3213.49394	10412.7375
3215.79363	10424.2375
3218.09193	10401.3375
3220.38884	10428.0375
3222.68438	10419.7375
3224.97853	10422.9375
3227.2713	10393.4375
3229.56269	10341.4375
3231.8527	10361.6375
3234.14133	10369.8375
3236.42858	10329.4375
3238.71446	10327.1375
3240.99896	10332.2375
3243.28209	10295.0375
3245.56384	10308.7375
3247.84423	10314.8375
3250.12324	10271.0375
3252.40088	10265.8375
3254.67715	10235.4375
3256.95205	10235.7375
3259.22558	10234.2375
3261.49775	10189.1375
3263.76855	10173.5375
3266.03799	10139.7375
3268.30606	10123.2375
3270.57277	10091.1375
3272.83812	10084.8375
3275.10211	10059.8375
3277.36474	10053.8375
3279.62601	10037.9375
3281.88593	10053.7375
3284.14448	10063.5375
3286.40168	10065.1375
3288.65753	10028.9375
3290.91202	10015.6375
3293.16516	9974.3375
3295.41695	9954.0375
3297.66738	9897.0375
3299.91647	9862.2375
3302.16421	9786.8375
3304.4106	9751.7375
3306.65564	9707.5375
3308.89933	9634.8375
3311.14169	9582.3375
3313.38269	9517.4375
3315.62236	9455.9375
3317.86068	9376.7375
3320.09766	9285.1375
3322.3333	9207.2375
3324.5676	9203.5375
3326.80056	9076.0375
3329.03219	9000.2375
3331.26248	2.0375
3333.49143	-0.8625
3335.71905	-1.5625
