Data from AgNPs_FTO_APTES_UA_2uM_CRN_100uM_R6G_10uM_NaF_0.1M_Addition_RamanShift__3__15-41-35-304.txt Node

Date: Wed Feb 02 15:41:35 GMT 2022
User: TCL
Spectrometer: QEP01345
Trigger mode: 4
Integration Time (sec): 7.000000E0
Scans to average: 10
Electric dark correction enabled: true
Nonlinearity correction enabled: false
Boxcar width: 0
XAxis mode: Raman Shifts
Number of Pixels in Spectrum: 1044
>>>>>Begin Spectral Data<<<<<
46.04893	-0.2625
50.45542	0.5375
54.85868	-0.1625
59.25871	-0.2625
63.6555	71.8375
68.04907	76.6375
72.43941	79.5375
76.82654	86.0375
81.21044	88.4375
85.59113	92.8375
89.96862	94.9375
94.34289	101.0375
98.71396	102.1375
103.08183	105.5375
107.4465	106.6375
111.80798	111.5375
116.16626	114.0375
120.52136	119.4375
124.87327	123.2375
129.222	127.0375
133.56755	137.0375
137.90993	140.5375
142.24913	158.7375
146.58517	179.1375
150.91804	206.7375
155.24774	241.9375
159.57429	300.7375
163.89768	381.3375
168.21792	506.5375
172.53501	683.1375
176.84895	948.1375
181.15975	1339.5375
185.46741	1867.6375
189.77193	2570.0375
194.07331	3455.6375
198.37157	4462.2375
202.6667	5512.9375
206.9587	6546.4375
211.24758	7557.7375
215.53334	8614.2375
219.81599	9693.8375
224.09553	10911.1375
228.37195	12240.3375
232.64527	13682.7375
236.91549	15150.6375
241.18261	16622.4375
245.44663	18022.0375
249.70755	19233.3375
253.96539	20286.8375
258.22014	21154.7375
262.4718	21900.7375
266.72039	22401.1375
270.96589	22704.0375
275.20832	22757.3375
279.44768	22731.6375
283.68397	22617.2375
287.91719	22548.9375
292.14735	22615.2375
296.37445	22764.7375
300.59849	23003.7375
304.81948	23162.0375
309.03742	23152.4375
313.25231	22897.5375
317.46415	22278.8375
321.67296	21448.7375
325.87872	20710.2375
330.08145	20324.5375
334.28114	20174.3375
338.47781	20244.3375
342.67145	20421.6375
346.86207	20728.9375
351.04966	21001.8375
355.23424	21355.7375
359.4158	21579.4375
363.59435	21746.6375
367.76989	21815.6375
371.94243	21873.9375
376.11196	21870.5375
380.27849	21835.4375
384.44203	21938.7375
388.60257	22090.7375
392.76012	22405.3375
396.91468	22788.6375
401.06626	23235.5375
405.21485	23488.3375
409.36047	23378.1375
413.50311	23005.1375
417.64277	22697.8375
421.77947	22588.6375
425.9132	22613.9375
430.04396	22712.6375
434.17176	22792.6375
438.2966	22860.9375
442.41849	23149.7375
446.53742	23721.1375
450.6534	24332.7375
454.76644	24869.1375
458.87653	25078.8375
462.98368	25094.4375
467.08789	24902.1375
471.18916	24715.4375
475.2875	24648.0375
479.38291	24700.7375
483.4754	24657.2375
487.56496	24304.9375
491.6516	23749.6375
495.73531	23153.9375
499.81612	22764.6375
503.89401	22747.0375
507.96899	22754.9375
512.04106	22738.2375
516.11023	22536.2375
520.1765	22249.1375
524.23987	21937.0375
528.30034	21606.1375
532.35792	21332.8375
536.41261	21035.3375
540.46441	20858.2375
544.51333	20906.0375
548.55936	21318.5375
552.60252	21932.3375
556.64279	22622.1375
560.6802	23112.3375
564.71473	23507.3375
568.7464	24213.2375
572.7752	25233.6375
576.80114	26225.5375
580.82422	27082.6375
584.84444	27793.6375
588.86181	28387.8375
592.87633	28606.6375
596.888	27959.4375
600.89682	26905.2375
604.9028	26856.6375
608.90594	28426.0375
612.90624	30213.9375
616.90371	28146.7375
620.89834	23408.4375
624.89015	21252.3375
628.87913	21031.0375
632.86528	21290.4375
636.84862	21361.0375
640.82913	21047.0375
644.80683	20431.9375
648.78172	19993.8375
652.75379	19872.0375
656.72306	20085.7375
660.68952	20351.5375
664.65319	20271.9375
668.61405	19901.6375
672.57211	19800.6375
676.52738	19855.2375
680.47986	19889.4375
684.42955	19757.3375
688.37646	19632.5375
692.32058	19689.9375
696.26192	19955.4375
700.20048	20259.8375
704.13626	20463.6375
708.06928	20581.5375
711.99952	20557.5375
715.927	20479.1375
719.85171	20473.1375
723.77365	20312.7375
727.69284	19995.4375
731.60928	19754.7375
735.52295	19539.7375
739.43388	19500.0375
743.34206	19548.2375
747.24749	19643.7375
751.15017	19957.2375
755.05012	20444.7375
758.94733	21228.8375
762.8418	22556.8375
766.73354	24555.7375
770.62254	26338.9375
774.50882	26352.9375
778.39237	24854.7375
782.27321	22841.8375
786.15132	21164.9375
790.02671	20108.4375
793.89938	19609.0375
797.76935	19372.8375
801.6366	19292.6375
805.50115	19271.3375
809.36299	19142.9375
813.22213	19054.3375
817.07857	18999.5375
820.93231	18970.0375
824.78336	18807.6375
828.63172	18698.8375
832.47738	18564.3375
836.32036	18559.2375
840.16066	18544.0375
843.99827	18570.0375
847.8332	18514.5375
851.66546	18454.4375
855.49504	18467.5375
859.32195	18417.0375
863.1462	18342.8375
866.96777	18260.5375
870.78668	18225.3375
874.60293	18186.7375
878.41652	18205.0375
882.22745	18273.2375
886.03573	18298.6375
889.84136	18313.8375
893.64433	18273.2375
897.44466	18192.2375
901.24235	18135.7375
905.0374	18071.5375
908.8298	18059.2375
912.61957	18173.8375
916.40671	18466.9375
920.19121	18815.4375
923.97308	19038.5375
927.75233	18977.5375
931.52895	18703.8375
935.30295	18316.6375
939.07433	17882.1375
942.84309	17517.6375
946.60924	17275.5375
950.37278	17194.9375
954.13371	17191.4375
957.89203	17201.9375
961.64774	17233.8375
965.40086	17252.0375
969.15137	17170.4375
972.89929	17025.3375
976.64461	16902.3375
980.38733	16835.6375
984.12747	16844.6375
987.86502	16956.4375
991.59999	17037.1375
995.33237	17230.4375
999.06217	17507.1375
1002.78939	17871.3375
1006.51404	18145.8375
1010.23611	18380.8375
1013.95561	18619.4375
1017.67255	18655.7375
1021.38692	18525.2375
1025.09872	18309.1375
1028.80796	18127.9375
1032.51465	18253.6375
1036.21877	18545.3375
1039.92035	18726.3375
1043.61937	18775.7375
1047.31584	18711.3375
1051.00976	18594.9375
1054.70114	18592.9375
1058.38998	18711.1375
1062.07627	19001.1375
1065.76003	19314.4375
1069.44126	19648.7375
1073.11995	19975.0375
1076.79611	20251.7375
1080.46974	20314.6375
1084.14085	20360.6375
1087.80943	20566.3375
1091.47549	20818.7375
1095.13903	20939.3375
1098.80005	20678.0375
1102.45857	20058.3375
1106.11456	19450.9375
1109.76805	19124.4375
1113.41903	19064.3375
1117.06751	19181.2375
1120.71348	19510.7375
1124.35696	19818.1375
1127.99793	20203.5375
1131.63641	20416.1375
1135.2724	20314.3375
1138.90589	20184.2375
1142.5369	20258.3375
1146.16542	20477.6375
1149.79145	20804.0375
1153.415	21158.2375
1157.03607	21643.4375
1160.65467	22404.7375
1164.27079	23572.9375
1167.88443	25080.2375
1171.49561	26778.1375
1175.10432	28825.0375
1178.71056	31343.9375
1182.31434	33606.2375
1185.91565	34639.8375
1189.51451	34664.2375
1193.11091	33878.3375
1196.70485	32579.7375
1200.29634	31159.4375
1203.88538	30171.4375
1207.47197	29699.4375
1211.05612	29364.2375
1214.63782	28723.6375
1218.21708	27702.2375
1221.79391	26572.5375
1225.36829	25707.5375
1228.94024	25112.5375
1232.50976	24687.6375
1236.07685	24388.8375
1239.6415	24255.5375
1243.20374	24262.9375
1246.76355	24482.4375
1250.32093	24868.9375
1253.8759	25412.7375
1257.42845	26220.0375
1260.97859	27071.4375
1264.52631	27914.9375
1268.07163	28723.7375
1271.61453	29636.9375
1275.15503	30626.5375
1278.69312	31679.4375
1282.22882	32867.8375
1285.76211	34356.6375
1289.29301	36044.9375
1292.82151	38212.3375
1296.34761	40702.8375
1299.87133	43509.9375
1303.39266	46194.7375
1306.9116	48456.3375
1310.42815	50004.8375
1313.94233	50666.3375
1317.45412	50224.0375
1320.96354	49648.3375
1324.47058	49295.2375
1327.97525	49185.5375
1331.47754	49031.7375
1334.97747	48718.0375
1338.47502	48226.1375
1341.97022	47607.0375
1345.46305	46903.7375
1348.95352	46148.3375
1352.44163	45499.2375
1355.92738	45602.6375
1359.41078	46650.3375
1362.89183	47766.9375
1366.37053	47028.4375
1369.84688	43484.4375
1373.32088	39038.1375
1376.79254	35901.9375
1380.26186	34821.1375
1383.72883	34935.1375
1387.19347	35232.8375
1390.65578	35247.5375
1394.11575	35272.2375
1397.57339	35684.1375
1401.0287	36140.7375
1404.48168	36422.6375
1407.93234	35923.3375
1411.38068	34650.3375
1414.82669	32948.4375
1418.27039	31061.0375
1421.71177	29375.8375
1425.15083	28102.4375
1428.58758	27377.2375
1432.02203	27570.5375
1435.45416	28409.1375
1438.88399	29423.5375
1442.31151	30256.8375
1445.73673	30917.8375
1449.15965	31539.7375
1452.58027	31993.4375
1455.9986	32267.7375
1459.41463	32551.5375
1462.82837	32899.6375
1466.23982	33434.1375
1469.64898	33768.0375
1473.05586	33969.5375
1476.46045	33857.9375
1479.86276	33520.1375
1483.26279	33137.9375
1486.66054	33011.5375
1490.05602	33239.5375
1493.44922	33820.5375
1496.84016	34665.0375
1500.22882	35962.9375
1503.61521	37637.2375
1506.99934	39417.2375
1510.38121	40828.3375
1513.76081	41133.4375
1517.13816	40173.8375
1520.51324	38656.4375
1523.88607	37574.6375
1527.25665	37058.9375
1530.62498	36913.7375
1533.99105	36650.4375
1537.35488	36050.6375
1540.71647	34954.8375
1544.07581	33635.0375
1547.4329	32326.4375
1550.78776	31225.2375
1554.14038	30590.1375
1557.49077	30255.3375
1560.83892	30160.6375
1564.18484	30255.7375
1567.52853	30489.1375
1570.86999	30941.3375
1574.20922	31740.5375
1577.54624	32530.3375
1580.88103	32955.7375
1584.2136	33370.1375
1587.54395	34254.8375
1590.87208	35680.3375
1594.19801	37326.2375
1597.52172	38797.4375
1600.84321	38834.9375
1604.16251	36773.3375
1607.47959	33663.7375
1610.79447	30561.4375
1614.10715	27739.8375
1617.41763	25452.1375
1620.7259	23793.9375
1624.03199	22941.1375
1627.33587	22943.5375
1630.63757	23672.3375
1633.93707	25429.4375
1637.23439	28323.9375
1640.52951	32525.5375
1643.82246	37571.5375
1647.11321	41825.7375
1650.40179	43185.1375
1653.68819	40591.2375
1656.97241	35134.7375
1660.25446	29313.2375
1663.53433	24741.6375
1666.81203	21588.9375
1670.08756	19568.0375
1673.36092	18319.3375
1676.63211	17508.0375
1679.90115	16992.8375
1683.16801	16603.4375
1686.43272	16291.4375
1689.69527	16068.9375
1692.95567	15892.0375
1696.2139	15805.3375
1699.46999	15702.9375
1702.72392	15575.6375
1705.97571	15547.9375
1709.22535	15407.5375
1712.47284	15342.2375
1715.71819	15315.4375
1718.96139	15226.4375
1722.20246	15160.1375
1725.44139	15097.3375
1728.67818	14989.0375
1731.91284	14879.2375
1735.14537	14783.3375
1738.37576	14695.4375
1741.60403	14626.6375
1744.83017	14565.7375
1748.05418	14548.7375
1751.27607	14523.9375
1754.49584	14508.2375
1757.71349	14501.2375
1760.92903	14476.8375
1764.14244	14444.1375
1767.35375	14422.3375
1770.56294	14331.3375
1773.77002	14282.8375
1776.97499	14248.8375
1780.17785	14208.4375
1783.37861	14141.7375
1786.57727	14111.1375
1789.77382	14061.3375
1792.96828	14056.7375
1796.16064	13990.5375
1799.3509	13945.7375
1802.53907	13933.8375
1805.72514	13835.2375
1808.90913	13849.7375
1812.09102	13793.4375
1815.27083	13776.5375
1818.44856	13747.3375
1821.6242	13689.3375
1824.79776	13714.8375
1827.96924	13687.1375
1831.13864	13661.1375
1834.30597	13680.6375
1837.47122	13682.1375
1840.6344	13688.3375
1843.7955	13664.0375
1846.95454	13635.7375
1850.11151	13651.7375
1853.26642	13608.3375
1856.41926	13597.9375
1859.57004	13595.4375
1862.71876	13555.2375
1865.86542	13549.0375
1869.01003	13539.0375
1872.15258	13512.2375
1875.29308	13491.7375
1878.43152	13480.0375
1881.56792	13455.6375
1884.70227	13423.1375
1887.83457	13387.0375
1890.96482	13380.1375
1894.09304	13360.6375
1897.21921	13338.8375
1900.34335	13329.2375
1903.46544	13289.5375
1906.58551	13258.8375
1909.70353	13256.7375
1912.81953	13198.1375
1915.93349	13181.6375
1919.04543	13140.4375
1922.15534	13109.7375
1925.26322	13082.3375
1928.36908	13061.4375
1931.47292	13025.4375
1934.57473	12993.4375
1937.67453	12938.6375
1940.77232	12911.4375
1943.86808	12908.2375
1946.96184	12832.1375
1950.05358	12798.2375
1953.14331	12747.9375
1956.23103	12728.8375
1959.31675	12675.6375
1962.40046	12627.3375
1965.48217	12606.4375
1968.56188	12563.3375
1971.63959	12524.1375
1974.7153	12491.3375
1977.78901	12432.5375
1980.86073	12390.4375
1983.93046	12354.9375
1986.99819	12296.3375
1990.06394	12277.2375
1993.1277	12241.1375
1996.18947	12170.1375
1999.24925	12149.6375
2002.30706	12121.1375
2005.36288	12079.8375
2008.41672	12032.5375
2011.46859	11987.2375
2014.51848	11937.5375
2017.56639	11930.7375
2020.61233	11886.9375
2023.6563	11898.2375
2026.6983	11835.8375
2029.73833	11807.6375
2032.7764	11799.3375
2035.8125	11770.8375
2038.84664	11743.2375
2041.87881	11726.2375
2044.90903	11688.7375
2047.93729	11691.8375
2050.96359	11640.7375
2053.98794	11633.5375
2057.01034	11641.5375
2060.03078	11617.6375
2063.04927	11611.7375
2066.06582	11572.8375
2069.08042	11568.6375
2072.09307	11578.2375
2075.10378	11552.9375
2078.11255	11528.1375
2081.11938	11534.9375
2084.12426	11503.0375
2087.12722	11511.7375
2090.12824	11527.5375
2093.12732	11516.4375
2096.12447	11518.6375
2099.11969	11522.8375
2102.11299	11530.4375
2105.10435	11535.4375
2108.09379	11529.3375
2111.08131	11531.9375
2114.0669	11528.7375
2117.05057	11519.1375
2120.03233	11559.7375
2123.01216	11550.0375
2125.99008	11546.0375
2128.96609	11532.4375
2131.94018	11529.0375
2134.91236	11543.7375
2137.88263	11535.6375
2140.851	11516.1375
2143.81746	11553.5375
2146.78201	11556.9375
2149.74466	11536.6375
2152.7054	11532.4375
2155.66425	11530.7375
2158.6212	11494.0375
2161.57625	11517.1375
2164.52941	11520.1375
2167.48067	11490.5375
2170.43004	11463.2375
2173.37752	11474.7375
2176.32311	11487.5375
2179.26681	11474.7375
2182.20863	11475.7375
2185.14856	11488.8375
2188.08661	11457.6375
2191.02278	11458.9375
2193.95707	11446.4375
2196.88948	11447.5375
2199.82001	11428.4375
2202.74867	11401.1375
2205.67545	11394.9375
2208.60037	11365.8375
2211.52341	11344.3375
2214.44458	11350.8375
2217.36388	11310.8375
2220.28132	11312.8375
2223.1969	11297.6375
2226.11061	11248.6375
2229.02246	11236.8375
2231.93245	11222.1375
2234.84058	11170.5375
2237.74686	11160.3375
2240.65128	11159.8375
2243.55385	11158.0375
2246.45456	11130.9375
2249.35343	11118.2375
2252.25044	11080.1375
2255.14561	11036.8375
2258.03893	11049.4375
2260.93041	11022.8375
2263.82004	10992.1375
2266.70783	10953.7375
2269.59378	10912.5375
2272.4779	10884.0375
2275.36017	10827.8375
2278.24061	10823.1375
2281.11922	10852.1375
2283.996	10811.9375
2286.87094	10792.9375
2289.74405	10728.6375
2292.61534	10737.3375
2295.4848	10756.9375
2298.35243	10744.5375
2301.21824	10726.7375
2304.08223	10725.7375
2306.94439	10727.3375
2309.80474	10719.0375
2312.66327	10707.1375
2315.51999	10691.3375
2318.37489	10680.1375
2321.22797	10677.2375
2324.07925	10648.0375
2326.92871	10665.2375
2329.77637	10647.7375
2332.62222	10639.9375
2335.46626	10610.4375
2338.3085	10619.8375
2341.14893	10619.2375
2343.98756	10614.3375
2346.8244	10593.1375
2349.65943	10633.8375
2352.49267	10619.3375
2355.32411	10619.8375
2358.15376	10601.8375
2360.98161	10604.9375
2363.80768	10568.0375
2366.63195	10551.7375
2369.45444	10533.2375
2372.27514	10551.1375
2375.09405	10536.2375
2377.91118	10506.7375
2380.72652	10483.0375
2383.54009	10483.1375
2386.35187	10432.1375
2389.16188	10396.7375
2391.97011	10414.9375
2394.77657	10385.1375
2397.58125	10365.5375
2400.38416	10328.5375
2403.18529	10316.1375
2405.98466	10301.1375
2408.78226	10289.6375
2411.57809	10292.7375
2414.37216	10265.7375
2417.16446	10245.7375
2419.955	10264.1375
2422.74378	10248.1375
2425.5308	10226.8375
2428.31606	10242.0375
2431.09956	10221.0375
2433.88131	10192.2375
2436.6613	10207.6375
2439.43954	10201.4375
2442.21603	10199.9375
2444.99077	10174.1375
2447.76377	10191.5375
2450.53501	10205.3375
2453.30451	10189.0375
2456.07226	10155.5375
2458.83827	10184.4375
2461.60254	10181.3375
2464.36507	10160.0375
2467.12586	10183.7375
2469.88492	10167.3375
2472.64224	10162.8375
2475.39782	10180.6375
2478.15167	10161.0375
2480.90379	10166.1375
2483.65417	10167.9375
2486.40283	10159.3375
2489.14976	10190.4375
2491.89497	10182.2375
2494.63845	10175.7375
2497.3802	10177.6375
2500.12024	10155.9375
2502.85855	10163.4375
2505.59514	10157.9375
2508.33002	10165.7375
2511.06318	10150.1375
2513.79462	10140.5375
2516.52435	10117.9375
2519.25237	10121.9375
2521.97867	10091.7375
2524.70327	10076.7375
2527.42616	10072.9375
2530.14734	10060.8375
2532.86681	10054.5375
2535.58458	10044.3375
2538.30065	10062.4375
2541.01501	10028.5375
2543.72768	9988.6375
2546.43864	9999.8375
2549.14791	9976.2375
2551.85548	9970.3375
2554.56136	9979.3375
2557.26554	9989.5375
2559.96803	9973.0375
2562.66883	9972.2375
2565.36794	9953.2375
2568.06536	9981.5375
2570.7611	9954.2375
2573.45514	9934.6375
2576.14751	9948.0375
2578.83819	9917.7375
2581.52719	9899.5375
2584.21451	9906.3375
2586.90015	9894.0375
2589.58411	9899.6375
2592.2664	9898.7375
2594.94701	9868.7375
2597.62594	9856.3375
2600.30321	9840.8375
2602.9788	9857.2375
2605.65273	9842.6375
2608.32498	9827.7375
2610.99557	9837.5375
2613.66449	9853.5375
2616.33175	9840.3375
2618.99734	9844.8375
2621.66128	9832.4375
2624.32355	9824.9375
2626.98416	9807.4375
2629.64311	9800.4375
2632.30041	9809.0375
2634.95605	9811.6375
2637.61004	9800.5375
2640.26238	9772.8375
2642.91306	9791.3375
2645.56209	9767.6375
2648.20948	9793.6375
2650.85521	9783.1375
2653.4993	9777.9375
2656.14175	9772.5375
2658.78255	9789.4375
2661.42171	9782.0375
2664.05923	9827.7375
2666.6951	9833.9375
2669.32934	9820.6375
2671.96194	9816.7375
2674.59291	9810.7375
2677.22224	9807.4375
2679.84993	9816.7375
2682.476	9787.5375
2685.10043	9800.2375
2687.72324	9778.2375
2690.34441	9773.1375
2692.96396	9775.9375
2695.58188	9783.1375
2698.19818	9781.2375
2700.81285	9774.1375
2703.4259	9788.5375
2706.03733	9809.6375
2708.64714	9820.2375
2711.25533	9811.5375
2713.86191	9785.0375
2716.46687	9822.4375
2719.07021	9808.4375
2721.67194	9827.3375
2724.27206	9838.4375
2726.87057	9859.8375
2729.46747	9846.6375
2732.06276	9862.9375
2734.65644	9834.5375
2737.24852	9848.1375
2739.83899	9830.8375
2742.42786	9829.3375
2745.01513	9799.3375
2747.60079	9810.3375
2750.18486	9769.6375
2752.76733	9800.7375
2755.3482	9796.8375
2757.92747	9818.4375
2760.50515	9795.9375
2763.08123	9808.2375
2765.65573	9782.7375
2768.22863	9788.6375
2770.79994	9774.0375
2773.36967	9792.4375
2775.9378	9777.8375
2778.50435	9775.3375
2781.06932	9748.9375
2783.6327	9760.1375
2786.1945	9724.5375
2788.75471	9754.3375
2791.31335	9742.5375
2793.87041	9751.4375
2796.42589	9699.2375
2798.97979	9710.7375
2801.53212	9709.1375
2804.08288	9717.2375
2806.63206	9676.1375
2809.17967	9662.3375
2811.72571	9629.3375
2814.27018	9621.8375
2816.81308	9605.7375
2819.35442	9614.9375
2821.89419	9568.1375
2824.43239	9573.8375
2826.96904	9558.5375
2829.50412	9577.0375
2832.03763	9567.4375
2834.56959	9570.1375
2837.1	9552.1375
2839.62884	9561.5375
2842.15613	9580.6375
2844.68186	9619.3375
2847.20604	9662.1375
2849.72867	9643.1375
2852.24974	9657.4375
2854.76927	9648.0375
2857.28724	9639.5375
2859.80367	9625.7375
2862.31855	9601.6375
2864.83189	9593.6375
2867.34368	9583.0375
2869.85393	9583.4375
2872.36264	9579.2375
2874.8698	9573.7375
2877.37543	9576.3375
2879.87952	9556.8375
2882.38207	9590.8375
2884.88308	9562.4375
2887.38256	9566.9375
2889.88051	9563.9375
2892.37692	9579.1375
2894.8718	9544.3375
2897.36515	9582.6375
2899.85698	9568.3375
2902.34727	9614.7375
2904.83604	9610.2375
2907.32328	9637.1375
2909.809	9626.8375
2912.29319	9611.4375
2914.77587	9618.0375
2917.25702	9632.4375
2919.73665	9593.4375
2922.21476	9614.3375
2924.69136	9631.2375
2927.16644	9633.5375
2929.64	9669.3375
2932.11205	9617.3375
2934.58258	9589.3375
2937.05161	9606.0375
2939.51912	9590.4375
2941.98513	9575.4375
2944.44962	9517.4375
2946.91261	9455.9375
2949.37409	9477.5375
2951.83407	9488.3375
2954.29254	9442.2375
2956.74951	9418.1375
2959.20498	9426.8375
2961.65895	9380.1375
2964.11142	9384.8375
2966.56239	9367.7375
2969.01186	9349.4375
2971.45984	9315.0375
2973.90632	9324.6375
2976.35131	9254.7375
2978.7948	9257.3375
2981.23681	9218.1375
2983.67732	9213.9375
2986.11635	9175.5375
2988.55388	9146.8375
2990.98993	9139.3375
2993.4245	9125.6375
2995.85758	9104.8375
2998.28917	9081.1375
3000.71928	9052.0375
3003.14791	9025.0375
3005.57506	9046.6375
3008.00073	9007.4375
3010.42493	8985.6375
3012.84764	8973.2375
3015.26888	8977.7375
3017.68865	8952.9375
3020.10694	8924.2375
3022.52376	8908.0375
3024.9391	8874.3375
3027.35298	8861.3375
3029.76539	8851.1375
3032.17632	8878.5375
3034.5858	8862.0375
3036.9938	8858.9375
3039.40034	8843.7375
3041.80542	8820.8375
3044.20903	8808.4375
3046.61118	8812.4375
3049.01187	8781.3375
3051.4111	8749.6375
3053.80888	8746.3375
3056.20519	8730.2375
3058.60005	8686.7375
3060.99345	8702.0375
3063.3854	8690.5375
3065.7759	8656.4375
3068.16494	8627.2375
3070.55254	8587.2375
3072.93868	8582.2375
3075.32338	8561.6375
3077.70662	8537.1375
3080.08842	8513.4375
3082.46878	8503.5375
3084.84769	8495.3375
3087.22515	8499.2375
3089.60118	8492.1375
3091.97576	8475.3375
3094.3489	8486.4375
3096.72061	8456.8375
3099.09087	8467.6375
3101.4597	8453.7375
3103.82709	8437.2375
3106.19305	8442.7375
3108.55757	8425.5375
3110.92066	8385.8375
3113.28232	8368.9375
3115.64255	8333.1375
3118.00134	8327.2375
3120.35871	8317.3375
3122.71466	8276.9375
3125.06917	8285.8375
3127.42226	8280.9375
3129.77393	8263.0375
3132.12417	8272.8375
3134.47299	8263.0375
3136.82039	8250.0375
3139.16636	8264.5375
3141.51092	8266.7375
3143.85406	8256.1375
3146.19579	8247.9375
3148.53609	8283.9375
3150.87499	8271.4375
3153.21246	8267.3375
3155.54853	8293.7375
3157.88318	8244.3375
3160.21642	8261.5375
3162.54826	8248.6375
3164.87868	8264.0375
3167.2077	8239.0375
3169.5353	8248.0375
3171.86151	8257.8375
3174.18631	8261.7375
3176.5097	8245.5375
3178.83169	8241.5375
3181.15228	8237.7375
3183.47147	8216.0375
3185.78926	8211.3375
3188.10565	8202.0375
3190.42065	8210.4375
3192.73424	8189.7375
3195.04645	8190.7375
3197.35725	8187.5375
3199.66667	8179.1375
3201.97469	8159.3375
3204.28132	8158.2375
3206.58656	8167.2375
3208.8904	8187.9375
3211.19287	8166.4375
3213.49394	8200.6375
3215.79363	8204.5375
3218.09193	8199.2375
3220.38884	8177.8375
3222.68438	8197.1375
3224.97853	8169.9375
3227.2713	8167.9375
3229.56269	8145.4375
3231.8527	8144.4375
3234.14133	8137.2375
3236.42858	8125.8375
3238.71446	8108.9375
3240.99896	8096.2375
3243.28209	8128.6375
3245.56384	8095.4375
3247.84423	8087.8375
3250.12324	8076.1375
3252.40088	8083.3375
3254.67715	8069.1375
3256.95205	8038.7375
3259.22558	8024.4375
3261.49775	8026.4375
3263.76855	8006.1375
3266.03799	7957.7375
3268.30606	7956.8375
3270.57277	7934.5375
3272.83812	7931.2375
3275.10211	7920.0375
3277.36474	7900.4375
3279.62601	7914.4375
3281.88593	7887.8375
3284.14448	7918.8375
3286.40168	7925.0375
3288.65753	7904.8375
3290.91202	7883.0375
3293.16516	7853.9375
3295.41695	7860.0375
3297.66738	7805.3375
3299.91647	7774.9375
3302.16421	7722.1375
3304.4106	7692.4375
3306.65564	7625.7375
3308.89933	7616.7375
3311.14169	7547.8375
3313.38269	7513.6375
3315.62236	7473.8375
3317.86068	7399.9375
3320.09766	7322.2375
3322.3333	7246.5375
3324.5676	7215.9375
3326.80056	7136.9375
3329.03219	7107.2375
3331.26248	1.7375
3333.49143	0.1375
3335.71905	-1.2625
