Data from AgNPs_FTO_APTES_UA_2uM_CRN_5uM_R6G_10uM_NaF_0.1M_Addition_RamanShift__16__12-57-05-112.txt Node

Date: Wed Feb 02 12:57:05 GMT 2022
User: TCL
Spectrometer: QEP01345
Trigger mode: 4
Integration Time (sec): 7.000000E0
Scans to average: 10
Electric dark correction enabled: true
Nonlinearity correction enabled: false
Boxcar width: 0
XAxis mode: Raman Shifts
Number of Pixels in Spectrum: 1044
>>>>>Begin Spectral Data<<<<<
46.04893	0.1875
50.45542	1.0875
54.85868	-1.6125
59.25871	0.5875
63.6555	82.2875
68.04907	88.4875
72.43941	89.4875
76.82654	95.6875
81.21044	98.9875
85.59113	102.1875
89.96862	107.7875
94.34289	107.1875
98.71396	112.4875
103.08183	119.5875
107.4465	121.8875
111.80798	126.7875
116.16626	129.3875
120.52136	138.8875
124.87327	142.3875
129.222	150.7875
133.56755	161.9875
137.90993	172.1875
142.24913	198.4875
146.58517	230.9875
150.91804	269.4875
155.24774	328.6875
159.57429	410.6875
163.89768	532.1875
168.21792	716.2875
172.53501	987.8875
176.84895	1374.3875
181.15975	1954.5875
185.46741	2717.8875
189.77193	3757.6875
194.07331	5034.0875
198.37157	6476.1875
202.6667	7981.8875
206.9587	9438.8875
211.24758	10914.0875
215.53334	12402.5875
219.81599	14000.9875
224.09553	15751.2875
228.37195	17751.1875
232.64527	19860.6875
236.91549	22104.3875
241.18261	24287.6875
245.44663	26315.9875
249.70755	28155.8875
253.96539	29737.4875
258.22014	31099.0875
262.4718	32238.2875
266.72039	33115.6875
270.96589	33599.8875
275.20832	33749.0875
279.44768	33638.9875
283.68397	33469.4875
287.91719	33275.0875
292.14735	33289.0875
296.37445	33406.5875
300.59849	33554.9875
304.81948	33661.0875
309.03742	33509.4875
313.25231	33037.0875
317.46415	32147.4875
321.67296	30986.4875
325.87872	29987.2875
330.08145	29487.8875
334.28114	29354.4875
338.47781	29508.2875
342.67145	29841.5875
346.86207	30384.9875
351.04966	31005.9875
355.23424	31671.6875
359.4158	32246.1875
363.59435	32591.3875
367.76989	32862.0875
371.94243	33095.0875
376.11196	33207.1875
380.27849	33348.5875
384.44203	33483.7875
388.60257	33747.7875
392.76012	34146.5875
396.91468	34588.2875
401.06626	35157.1875
405.21485	35534.7875
409.36047	35249.9875
413.50311	34561.4875
417.64277	34104.5875
421.77947	33987.9875
425.9132	34108.9875
430.04396	34273.0875
434.17176	34419.3875
438.2966	34692.1875
442.41849	35145.9875
446.53742	36024.7875
450.6534	37052.3875
454.76644	37848.2875
458.87653	38250.0875
462.98368	38128.3875
467.08789	37891.6875
471.18916	37416.1875
475.2875	37045.8875
479.38291	36964.3875
483.4754	36835.8875
487.56496	36385.1875
491.6516	35736.4875
495.73531	35125.7875
499.81612	34725.1875
503.89401	34898.0875
507.96899	35005.1875
512.04106	34938.1875
516.11023	34692.9875
520.1765	34234.3875
524.23987	33745.7875
528.30034	33271.0875
532.35792	32908.5875
536.41261	32472.8875
540.46441	32118.9875
544.51333	32183.6875
548.55936	32747.7875
552.60252	33685.7875
556.64279	34632.2875
560.6802	35259.6875
564.71473	35634.7875
568.7464	36256.7875
572.7752	37227.6875
576.80114	38059.7875
580.82422	38747.8875
584.84444	39319.0875
588.86181	39634.3875
592.87633	39798.7875
596.888	39776.1875
600.89682	39716.2875
604.9028	41101.6875
608.90594	44943.5875
612.90624	48642.9875
616.90371	45229.6875
620.89834	37332.4875
624.89015	33841.1875
628.87913	33533.0875
632.86528	33680.0875
636.84862	33496.2875
640.82913	32940.0875
644.80683	31957.7875
648.78172	31137.8875
652.75379	30921.5875
656.72306	31248.1875
660.68952	31806.0875
664.65319	31692.9875
668.61405	31054.1875
672.57211	30852.1875
676.52738	30875.4875
680.47986	30857.1875
684.42955	30696.6875
688.37646	30559.9875
692.32058	30760.2875
696.26192	31106.9875
700.20048	31565.5875
704.13626	31821.5875
708.06928	31834.0875
711.99952	31531.2875
715.927	31429.7875
719.85171	31456.4875
723.77365	31349.2875
727.69284	30892.6875
731.60928	30499.7875
735.52295	30366.1875
739.43388	30398.6875
743.34206	30505.4875
747.24749	30705.8875
751.15017	31064.6875
755.05012	31756.7875
758.94733	32903.1875
762.8418	34883.7875
766.73354	37952.0875
770.62254	40776.3875
774.50882	41246.3875
778.39237	38903.9875
782.27321	35700.0875
786.15132	33088.8875
790.02671	31581.3875
793.89938	30772.7875
797.76935	30549.1875
801.6366	30452.1875
805.50115	30372.2875
809.36299	30179.9875
813.22213	29796.8875
817.07857	29648.6875
820.93231	29564.2875
824.78336	29378.8875
828.63172	29182.7875
832.47738	29076.0875
836.32036	29161.9875
840.16066	29274.7875
843.99827	29366.2875
847.8332	29266.1875
851.66546	29072.5875
855.49504	29078.2875
859.32195	29025.8875
863.1462	28906.3875
866.96777	28770.0875
870.78668	28713.6875
874.60293	28713.3875
878.41652	28730.5875
882.22745	28819.1875
886.03573	28942.7875
889.84136	28954.9875
893.64433	28831.5875
897.44466	28711.3875
901.24235	28574.2875
905.0374	28411.6875
908.8298	28341.5875
912.61957	28396.7875
916.40671	28702.6875
920.19121	29246.8875
923.97308	29659.1875
927.75233	29722.1875
931.52895	29499.5875
935.30295	29077.5875
939.07433	28406.4875
942.84309	27888.2875
946.60924	27643.5875
950.37278	27483.7875
954.13371	27461.9875
957.89203	27409.8875
961.64774	27343.4875
965.40086	27342.5875
969.15137	27229.4875
972.89929	27084.2875
976.64461	26984.4875
980.38733	27016.4875
984.12747	27129.1875
987.86502	27289.1875
991.59999	27767.4875
995.33237	28322.3875
999.06217	29212.9875
1002.78939	30299.1875
1006.51404	30950.4875
1010.23611	31285.2875
1013.95561	31546.4875
1017.67255	31594.6875
1021.38692	31253.4875
1025.09872	30829.4875
1028.80796	30872.2875
1032.51465	31704.8875
1036.21877	32621.2875
1039.92035	32802.9875
1043.61937	32389.1875
1047.31584	31598.1875
1051.00976	30781.1875
1054.70114	30430.7875
1058.38998	30500.7875
1062.07627	30752.2875
1065.76003	31009.2875
1069.44126	31337.6875
1073.11995	31740.9875
1076.79611	32227.9875
1080.46974	32532.7875
1084.14085	32854.5875
1087.80943	33301.1875
1091.47549	33652.9875
1095.13903	33769.1875
1098.80005	33341.6875
1102.45857	32508.1875
1106.11456	31797.1875
1109.76805	31434.8875
1113.41903	31341.0875
1117.06751	31526.3875
1120.71348	31876.4875
1124.35696	32255.0875
1127.99793	32727.3875
1131.63641	33034.2875
1135.2724	32899.3875
1138.90589	32679.0875
1142.5369	32628.5875
1146.16542	32738.6875
1149.79145	32992.9875
1153.415	33394.4875
1157.03607	34074.1875
1160.65467	35088.3875
1164.27079	36866.7875
1167.88443	39195.5875
1171.49561	42092.1875
1175.10432	45746.0875
1178.71056	50276.7875
1182.31434	54536.4875
1185.91565	57061.2875
1189.51451	57382.3875
1193.11091	55783.3875
1196.70485	53202.5875
1200.29634	50450.6875
1203.88538	48326.1875
1207.47197	46789.0875
1211.05612	45696.3875
1214.63782	44805.1875
1218.21708	43879.4875
1221.79391	43108.9875
1225.36829	42549.2875
1228.94024	41942.4875
1232.50976	41203.6875
1236.07685	40590.3875
1239.6415	40242.5875
1243.20374	40140.7875
1246.76355	40344.1875
1250.32093	40984.9875
1253.8759	42060.0875
1257.42845	43423.5875
1260.97859	45015.9875
1264.52631	46552.2875
1268.07163	48099.4875
1271.61453	49741.7875
1275.15503	51480.4875
1278.69312	53278.2875
1282.22882	54819.2875
1285.76211	56322.4875
1289.29301	57996.0875
1292.82151	60179.1875
1296.34761	62993.6875
1299.87133	66657.9875
1303.39266	70949.0875
1306.9116	75655.2875
1310.42815	79982.2875
1313.94233	82540.3875
1317.45412	82928.4875
1320.96354	82033.4875
1324.47058	80971.0875
1327.97525	79900.7875
1331.47754	79233.3875
1334.97747	78951.7875
1338.47502	78640.9875
1341.97022	78100.6875
1345.46305	77027.0875
1348.95352	75116.8875
1352.44163	73271.7875
1355.92738	72997.3875
1359.41078	74849.6875
1362.89183	76892.6875
1366.37053	75404.0875
1369.84688	69528.9875
1373.32088	62466.2875
1376.79254	57552.3875
1380.26186	55611.9875
1383.72883	55563.2875
1387.19347	55699.0875
1390.65578	55354.6875
1394.11575	55316.7875
1397.57339	56024.8875
1401.0287	57196.1875
1404.48168	58275.9875
1407.93234	58331.0875
1411.38068	57258.9875
1414.82669	55265.9875
1418.27039	52681.4875
1421.71177	50039.1875
1425.15083	48044.2875
1428.58758	46977.8875
1432.02203	47059.7875
1435.45416	48135.5875
1438.88399	49720.7875
1442.31151	51119.4875
1445.73673	52245.0875
1449.15965	53206.9875
1452.58027	53845.1875
1455.9986	54221.9875
1459.41463	54825.5875
1462.82837	55783.0875
1466.23982	56803.4875
1469.64898	57655.3875
1473.05586	58008.9875
1476.46045	57854.4875
1479.86276	57157.9875
1483.26279	56294.0875
1486.66054	55633.7875
1490.05602	55568.2875
1493.44922	55915.9875
1496.84016	56424.8875
1500.22882	57512.9875
1503.61521	59315.3875
1506.99934	61558.3875
1510.38121	63560.0875
1513.76081	64251.7875
1517.13816	63057.0875
1520.51324	60700.0875
1523.88607	58475.4875
1527.25665	57282.3875
1530.62498	56711.4875
1533.99105	56413.0875
1537.35488	56068.1875
1540.71647	55404.9875
1544.07581	54233.9875
1547.4329	52963.4875
1550.78776	51813.7875
1554.14038	51088.0875
1557.49077	50672.7875
1560.83892	50526.4875
1564.18484	50492.0875
1567.52853	50505.1875
1570.86999	50713.2875
1574.20922	51469.4875
1577.54624	52252.9875
1580.88103	52666.0875
1584.2136	53213.5875
1587.54395	54749.0875
1590.87208	57556.8875
1594.19801	61056.4875
1597.52172	64462.9875
1600.84321	65325.9875
1604.16251	62145.8875
1607.47959	56968.7875
1610.79447	51668.6875
1614.10715	46831.4875
1617.41763	42722.8875
1620.7259	39826.8875
1624.03199	38344.2875
1627.33587	38204.5875
1630.63757	39480.2875
1633.93707	42363.2875
1637.23439	47054.7875
1640.52951	53464.9875
1643.82246	60364.1875
1647.11321	65074.0875
1650.40179	65537.4875
1653.68819	60826.6875
1656.97241	52642.1875
1660.25446	44392.5875
1663.53433	38162.7875
1666.81203	34015.4875
1670.08756	31317.5875
1673.36092	29655.5875
1676.63211	28573.3875
1679.90115	27769.1875
1683.16801	27194.7875
1686.43272	26790.1875
1689.69527	26448.4875
1692.95567	26228.8875
1696.2139	26058.0875
1699.46999	25968.2875
1702.72392	25795.9875
1705.97571	25689.8875
1709.22535	25552.5875
1712.47284	25533.2875
1715.71819	25479.4875
1718.96139	25388.5875
1722.20246	25252.2875
1725.44139	25106.5875
1728.67818	24957.0875
1731.91284	24777.3875
1735.14537	24613.0875
1738.37576	24508.8875
1741.60403	24421.4875
1744.83017	24313.4875
1748.05418	24244.4875
1751.27607	24214.8875
1754.49584	24185.0875
1757.71349	24124.9875
1760.92903	24096.4875
1764.14244	24056.9875
1767.35375	24055.8875
1770.56294	23972.8875
1773.77002	23886.6875
1776.97499	23817.1875
1780.17785	23756.9875
1783.37861	23765.1875
1786.57727	23703.6875
1789.77382	23665.9875
1792.96828	23585.4875
1796.16064	23540.8875
1799.3509	23481.2875
1802.53907	23435.3875
1805.72514	23305.6875
1808.90913	23293.8875
1812.09102	23285.7875
1815.27083	23251.3875
1818.44856	23213.1875
1821.6242	23224.3875
1824.79776	23187.9875
1827.96924	23209.8875
1831.13864	23217.4875
1834.30597	23233.9875
1837.47122	23204.1875
1840.6344	23208.9875
1843.7955	23255.1875
1846.95454	23299.3875
1850.11151	23294.8875
1853.26642	23279.7875
1856.41926	23295.9875
1859.57004	23247.2875
1862.71876	23256.8875
1865.86542	23270.3875
1869.01003	23256.2875
1872.15258	23218.8875
1875.29308	23214.4875
1878.43152	23191.5875
1881.56792	23148.4875
1884.70227	23165.9875
1887.83457	23208.9875
1890.96482	23203.0875
1894.09304	23148.7875
1897.21921	23151.6875
1900.34335	23149.0875
1903.46544	23089.6875
1906.58551	23073.3875
1909.70353	22994.6875
1912.81953	22940.3875
1915.93349	22876.1875
1919.04543	22814.1875
1922.15534	22757.4875
1925.26322	22642.6875
1928.36908	22576.4875
1931.47292	22527.6875
1934.57473	22432.0875
1937.67453	22282.0875
1940.77232	22191.5875
1943.86808	22153.3875
1946.96184	22049.1875
1950.05358	21987.4875
1953.14331	21929.5875
1956.23103	21858.1875
1959.31675	21768.4875
1962.40046	21700.6875
1965.48217	21615.7875
1968.56188	21584.1875
1971.63959	21507.1875
1974.7153	21458.9875
1977.78901	21403.2875
1980.86073	21359.0875
1983.93046	21240.2875
1986.99819	21158.2875
1990.06394	21043.0875
1993.1277	21039.8875
1996.18947	20933.7875
1999.24925	20906.1875
2002.30706	20844.3875
2005.36288	20781.1875
2008.41672	20717.8875
2011.46859	20637.4875
2014.51848	20591.7875
2017.56639	20559.5875
2020.61233	20523.3875
2023.6563	20517.1875
2026.6983	20461.6875
2029.73833	20437.3875
2032.7764	20382.9875
2035.8125	20341.8875
2038.84664	20330.2875
2041.87881	20299.2875
2044.90903	20252.9875
2047.93729	20250.6875
2050.96359	20185.4875
2053.98794	20144.6875
2057.01034	20160.1875
2060.03078	20148.5875
2063.04927	20156.8875
2066.06582	20135.5875
2069.08042	20108.9875
2072.09307	20080.7875
2075.10378	20049.4875
2078.11255	20071.3875
2081.11938	20076.1875
2084.12426	20002.1875
2087.12722	20040.6875
2090.12824	19988.2875
2093.12732	19984.2875
2096.12447	20005.2875
2099.11969	20016.2875
2102.11299	20027.1875
2105.10435	20040.3875
2108.09379	20017.9875
2111.08131	20018.1875
2114.0669	20009.9875
2117.05057	20022.1875
2120.03233	20083.7875
2123.01216	20046.5875
2125.99008	20039.6875
2128.96609	20037.5875
2131.94018	20094.8875
2134.91236	20096.3875
2137.88263	20044.4875
2140.851	20087.1875
2143.81746	20085.6875
2146.78201	20145.5875
2149.74466	20101.7875
2152.7054	20124.3875
2155.66425	20144.5875
2158.6212	20132.6875
2161.57625	20151.6875
2164.52941	20118.3875
2167.48067	20078.2875
2170.43004	20070.9875
2173.37752	20072.7875
2176.32311	20050.3875
2179.26681	20079.7875
2182.20863	20103.7875
2185.14856	20143.7875
2188.08661	20117.3875
2191.02278	20114.3875
2193.95707	20075.9875
2196.88948	20056.7875
2199.82001	20073.7875
2202.74867	20074.9875
2205.67545	20070.4875
2208.60037	20049.9875
2211.52341	20033.3875
2214.44458	19994.6875
2217.36388	19973.5875
2220.28132	19958.3875
2223.1969	19926.8875
2226.11061	19916.3875
2229.02246	19880.5875
2231.93245	19829.4875
2234.84058	19782.5875
2237.74686	19768.8875
2240.65128	19731.4875
2243.55385	19678.0875
2246.45456	19655.9875
2249.35343	19574.5875
2252.25044	19579.5875
2255.14561	19541.6875
2258.03893	19535.4875
2260.93041	19458.5875
2263.82004	19402.2875
2266.70783	19351.3875
2269.59378	19297.7875
2272.4779	19272.3875
2275.36017	19200.4875
2278.24061	19187.2875
2281.11922	19196.8875
2283.996	19122.9875
2286.87094	19129.0875
2289.74405	19113.9875
2292.61534	19109.0875
2295.4848	19038.8875
2298.35243	19092.2875
2301.21824	19055.6875
2304.08223	19067.9875
2306.94439	19061.1875
2309.80474	19098.6875
2312.66327	19099.5875
2315.51999	19095.7875
2318.37489	19125.0875
2321.22797	19114.5875
2324.07925	19081.0875
2326.92871	19067.8875
2329.77637	19048.7875
2332.62222	19063.2875
2335.46626	19035.4875
2338.3085	19007.7875
2341.14893	19023.2875
2343.98756	19034.1875
2346.8244	19066.1875
2349.65943	19088.7875
2352.49267	19059.3875
2355.32411	19095.9875
2358.15376	19079.6875
2360.98161	19102.1875
2363.80768	19070.2875
2366.63195	19027.3875
2369.45444	18992.0875
2372.27514	18955.2875
2375.09405	18858.2875
2377.91118	18830.6875
2380.72652	18796.3875
2383.54009	18778.4875
2386.35187	18751.9875
2389.16188	18684.2875
2391.97011	18689.4875
2394.77657	18677.1875
2397.58125	18633.3875
2400.38416	18621.8875
2403.18529	18543.8875
2405.98466	18534.2875
2408.78226	18523.5875
2411.57809	18468.6875
2414.37216	18471.5875
2417.16446	18419.6875
2419.955	18439.6875
2422.74378	18421.7875
2425.5308	18394.1875
2428.31606	18445.5875
2431.09956	18396.8875
2433.88131	18379.2875
2436.6613	18362.4875
2439.43954	18411.4875
2442.21603	18386.7875
2444.99077	18383.0875
2447.76377	18379.8875
2450.53501	18381.8875
2453.30451	18355.2875
2456.07226	18379.1875
2458.83827	18384.7875
2461.60254	18355.6875
2464.36507	18335.5875
2467.12586	18340.7875
2469.88492	18343.7875
2472.64224	18384.3875
2475.39782	18381.7875
2478.15167	18413.2875
2480.90379	18393.9875
2483.65417	18389.1875
2486.40283	18421.8875
2489.14976	18428.9875
2491.89497	18429.0875
2494.63845	18466.0875
2497.3802	18440.1875
2500.12024	18462.8875
2502.85855	18445.7875
2505.59514	18459.8875
2508.33002	18434.0875
2511.06318	18423.6875
2513.79462	18393.7875
2516.52435	18401.0875
2519.25237	18384.1875
2521.97867	18365.0875
2524.70327	18351.4875
2527.42616	18352.8875
2530.14734	18332.9875
2532.86681	18310.8875
2535.58458	18303.7875
2538.30065	18294.4875
2541.01501	18317.2875
2543.72768	18286.1875
2546.43864	18295.7875
2549.14791	18260.1875
2551.85548	18255.9875
2554.56136	18262.3875
2557.26554	18271.3875
2559.96803	18232.1875
2562.66883	18246.7875
2565.36794	18167.6875
2568.06536	18180.5875
2570.7611	18170.8875
2573.45514	18155.3875
2576.14751	18168.6875
2578.83819	18142.6875
2581.52719	18129.2875
2584.21451	18101.7875
2586.90015	18097.7875
2589.58411	18124.4875
2592.2664	18143.5875
2594.94701	18062.2875
2597.62594	18058.0875
2600.30321	18074.1875
2602.9788	18066.3875
2605.65273	18078.2875
2608.32498	18059.0875
2610.99557	18061.7875
2613.66449	18057.3875
2616.33175	18068.8875
2618.99734	18078.9875
2621.66128	18098.1875
2624.32355	18114.5875
2626.98416	18103.0875
2629.64311	18097.3875
2632.30041	18108.5875
2634.95605	18083.7875
2637.61004	18063.9875
2640.26238	18078.8875
2642.91306	18024.0875
2645.56209	18034.3875
2648.20948	18011.9875
2650.85521	18036.5875
2653.4993	18027.2875
2656.14175	18027.0875
2658.78255	18039.9875
2661.42171	18024.9875
2664.05923	18052.4875
2666.6951	18047.8875
2669.32934	18047.2875
2671.96194	18090.7875
2674.59291	18077.3875
2677.22224	18089.7875
2679.84993	18064.0875
2682.476	18018.8875
2685.10043	18029.3875
2687.72324	18020.5875
2690.34441	18012.4875
2692.96396	18048.0875
2695.58188	18038.3875
2698.19818	18028.3875
2700.81285	18034.4875
2703.4259	18010.3875
2706.03733	18036.9875
2708.64714	17994.1875
2711.25533	18022.3875
2713.86191	18034.4875
2716.46687	18089.2875
2719.07021	18076.2875
2721.67194	18105.0875
2724.27206	18062.7875
2726.87057	18099.0875
2729.46747	18069.9875
2732.06276	18138.0875
2734.65644	18121.1875
2737.24852	18124.9875
2739.83899	18140.0875
2742.42786	18134.7875
2745.01513	18110.3875
2747.60079	18079.0875
2750.18486	18097.6875
2752.76733	18117.1875
2755.3482	18064.7875
2757.92747	18067.1875
2760.50515	18052.9875
2763.08123	18066.8875
2765.65573	17995.4875
2768.22863	18031.2875
2770.79994	17999.1875
2773.36967	18039.0875
2775.9378	18049.4875
2778.50435	18055.0875
2781.06932	18051.0875
2783.6327	18024.7875
2786.1945	17994.0875
2788.75471	17983.5875
2791.31335	17939.0875
2793.87041	17940.1875
2796.42589	17928.6875
2798.97979	17940.2875
2801.53212	17901.8875
2804.08288	17939.0875
2806.63206	17813.2875
2809.17967	17812.0875
2811.72571	17740.0875
2814.27018	17733.4875
2816.81308	17712.3875
2819.35442	17679.4875
2821.89419	17652.5875
2824.43239	17643.1875
2826.96904	17628.8875
2829.50412	17609.9875
2832.03763	17570.8875
2834.56959	17611.1875
2837.1	17579.3875
2839.62884	17555.3875
2842.15613	17561.2875
2844.68186	17598.3875
2847.20604	17630.4875
2849.72867	17668.6875
2852.24974	17615.0875
2854.76927	17608.9875
2857.28724	17578.4875
2859.80367	17572.9875
2862.31855	17571.7875
2864.83189	17536.9875
2867.34368	17533.0875
2869.85393	17500.2875
2872.36264	17492.3875
2874.8698	17528.3875
2877.37543	17512.4875
2879.87952	17533.0875
2882.38207	17520.7875
2884.88308	17471.6875
2887.38256	17526.3875
2889.88051	17487.3875
2892.37692	17537.9875
2894.8718	17575.8875
2897.36515	17604.8875
2899.85698	17587.6875
2902.34727	17625.6875
2904.83604	17633.2875
2907.32328	17653.5875
2909.809	17618.3875
2912.29319	17644.9875
2914.77587	17660.5875
2917.25702	17679.4875
2919.73665	17651.0875
2922.21476	17678.9875
2924.69136	17640.5875
2927.16644	17663.3875
2929.64	17615.6875
2932.11205	17603.4875
2934.58258	17509.8875
2937.05161	17551.5875
2939.51912	17536.8875
2941.98513	17497.5875
2944.44962	17469.3875
2946.91261	17386.8875
2949.37409	17449.2875
2951.83407	17402.6875
2954.29254	17407.3875
2956.74951	17387.4875
2959.20498	17365.2875
2961.65895	17322.9875
2964.11142	17308.4875
2966.56239	17280.7875
2969.01186	17277.4875
2971.45984	17218.5875
2973.90632	17195.4875
2976.35131	17160.1875
2978.7948	17105.4875
2981.23681	17069.6875
2983.67732	17018.4875
2986.11635	16998.0875
2988.55388	16912.5875
2990.98993	16883.2875
2993.4245	16825.5875
2995.85758	16774.7875
2998.28917	16775.8875
3000.71928	16757.7875
3003.14791	16705.8875
3005.57506	16688.2875
3008.00073	16638.1875
3010.42493	16618.1875
3012.84764	16585.5875
3015.26888	16582.9875
3017.68865	16540.3875
3020.10694	16531.7875
3022.52376	16462.8875
3024.9391	16456.9875
3027.35298	16438.5875
3029.76539	16439.2875
3032.17632	16430.4875
3034.5858	16405.8875
3036.9938	16377.0875
3039.40034	16376.6875
3041.80542	16375.5875
3044.20903	16347.0875
3046.61118	16299.5875
3049.01187	16277.0875
3051.4111	16296.7875
3053.80888	16240.3875
3056.20519	16169.1875
3058.60005	16155.9875
3060.99345	16132.0875
3063.3854	16109.6875
3065.7759	16050.0875
3068.16494	15990.3875
3070.55254	15934.7875
3072.93868	15948.1875
3075.32338	15908.3875
3077.70662	15864.4875
3080.08842	15808.4875
3082.46878	15798.3875
3084.84769	15751.2875
3087.22515	15737.9875
3089.60118	15738.2875
3091.97576	15733.3875
3094.3489	15725.0875
3096.72061	15713.3875
3099.09087	15691.2875
3101.4597	15665.6875
3103.82709	15638.6875
3106.19305	15623.5875
3108.55757	15596.7875
3110.92066	15523.1875
3113.28232	15538.1875
3115.64255	15512.4875
3118.00134	15488.9875
3120.35871	15449.8875
3122.71466	15394.0875
3125.06917	15345.5875
3127.42226	15344.4875
3129.77393	15347.0875
3132.12417	15294.5875
3134.47299	15343.2875
3136.82039	15267.7875
3139.16636	15296.5875
3141.51092	15286.1875
3143.85406	15318.5875
3146.19579	15327.6875
3148.53609	15277.8875
3150.87499	15315.3875
3153.21246	15300.0875
3155.54853	15321.7875
3157.88318	15275.0875
3160.21642	15295.3875
3162.54826	15255.8875
3164.87868	15274.1875
3167.2077	15227.1875
3169.5353	15234.9875
3171.86151	15234.4875
3174.18631	15221.5875
3176.5097	15193.5875
3178.83169	15193.6875
3181.15228	15208.8875
3183.47147	15137.1875
3185.78926	15138.6875
3188.10565	15112.8875
3190.42065	15132.8875
3192.73424	15162.5875
3195.04645	15166.6875
3197.35725	15152.2875
3199.66667	15126.7875
3201.97469	15171.3875
3204.28132	15110.6875
3206.58656	15109.2875
3208.8904	15128.8875
3211.19287	15150.6875
3213.49394	15138.8875
3215.79363	15148.7875
3218.09193	15127.6875
3220.38884	15100.3875
3222.68438	15149.4875
3224.97853	15124.3875
3227.2713	15087.0875
3229.56269	15047.4875
3231.8527	15069.3875
3234.14133	15039.4875
3236.42858	15031.8875
3238.71446	14994.0875
3240.99896	14970.5875
3243.28209	14955.2875
3245.56384	14948.1875
3247.84423	14928.3875
3250.12324	14873.5875
3252.40088	14872.4875
3254.67715	14865.6875
3256.95205	14790.4875
3259.22558	14792.9875
3261.49775	14769.3875
3263.76855	14768.6875
3266.03799	14748.2875
3268.30606	14726.1875
3270.57277	14700.1875
3272.83812	14688.1875
3275.10211	14668.3875
3277.36474	14632.4875
3279.62601	14641.6875
3281.88593	14678.3875
3284.14448	14676.1875
3286.40168	14677.1875
3288.65753	14669.8875
3290.91202	14617.9875
3293.16516	14550.3875
3295.41695	14557.9875
3297.66738	14458.1875
3299.91647	14397.5875
3302.16421	14320.6875
3304.4106	14201.1875
3306.65564	14141.4875
3308.89933	14067.8875
3311.14169	13967.4875
3313.38269	13835.9875
3315.62236	13770.8875
3317.86068	13663.9875
3320.09766	13531.2875
3322.3333	13428.4875
3324.5676	13395.0875
3326.80056	13193.1875
3329.03219	13157.6875
3331.26248	0.9875
3333.49143	-0.7125
3335.71905	-0.9125
