Data from AgNPs_FTO_APTES_UA_2uM_CRN_0uM_R6G_10uM_NaF_0.1M_Addition_RamanShift__30__10-39-24-952.txt Node

Date: Wed Feb 02 10:39:24 GMT 2022
User: TCL
Spectrometer: QEP01345
Trigger mode: 4
Integration Time (sec): 7.000000E0
Scans to average: 10
Electric dark correction enabled: true
Nonlinearity correction enabled: false
Boxcar width: 0
XAxis mode: Raman Shifts
Number of Pixels in Spectrum: 1044
>>>>>Begin Spectral Data<<<<<
46.04893	0.4625
50.45542	0.6625
54.85868	-0.4375
59.25871	-0.5375
63.6555	36.1625
68.04907	42.2625
72.43941	42.5625
76.82654	50.5625
81.21044	49.7625
85.59113	48.5625
89.96862	51.8625
94.34289	55.5625
98.71396	55.9625
103.08183	56.9625
107.4465	59.6625
111.80798	60.7625
116.16626	58.4625
120.52136	63.0625
124.87327	61.1625
129.222	66.1625
133.56755	71.3625
137.90993	70.9625
142.24913	81.0625
146.58517	88.3625
150.91804	101.0625
155.24774	122.8625
159.57429	146.5625
163.89768	184.6625
168.21792	243.7625
172.53501	325.6625
176.84895	447.6625
181.15975	624.3625
185.46741	878.5625
189.77193	1226.2625
194.07331	1618.1625
198.37157	2076.2625
202.6667	2570.9625
206.9587	3061.3625
211.24758	3527.8625
215.53334	4009.5625
219.81599	4511.6625
224.09553	5047.7625
228.37195	5666.7625
232.64527	6333.8625
236.91549	7036.6625
241.18261	7705.0625
245.44663	8360.5625
249.70755	8923.3625
253.96539	9428.3625
258.22014	9859.4625
262.4718	10194.0625
266.72039	10437.3625
270.96589	10504.7625
275.20832	10481.4625
279.44768	10369.0625
283.68397	10156.5625
287.91719	9969.1625
292.14735	9852.3625
296.37445	9757.1625
300.59849	9821.1625
304.81948	9909.8625
309.03742	9982.8625
313.25231	10022.3625
317.46415	9955.6625
321.67296	9811.4625
325.87872	9679.1625
330.08145	9670.0625
334.28114	9704.3625
338.47781	9775.2625
342.67145	9809.1625
346.86207	9904.8625
351.04966	10060.8625
355.23424	10234.4625
359.4158	10398.4625
363.59435	10519.9625
367.76989	10642.1625
371.94243	10747.1625
376.11196	10800.3625
380.27849	10828.5625
384.44203	10851.9625
388.60257	10856.9625
392.76012	10875.0625
396.91468	10920.2625
401.06626	11055.8625
405.21485	11165.1625
409.36047	11189.5625
413.50311	11149.9625
417.64277	11152.0625
421.77947	11157.2625
425.9132	11019.5625
430.04396	11025.9625
434.17176	11152.1625
438.2966	11309.2625
442.41849	11664.8625
446.53742	12150.5625
450.6534	12692.0625
454.76644	12962.9625
458.87653	12991.4625
462.98368	12690.8625
467.08789	12320.9625
471.18916	11953.4625
475.2875	11635.0625
479.38291	11392.3625
483.4754	11260.1625
487.56496	11209.4625
491.6516	11201.7625
495.73531	11177.8625
499.81612	11226.6625
503.89401	11305.7625
507.96899	11298.3625
512.04106	11286.0625
516.11023	11319.4625
520.1765	11364.2625
524.23987	11440.8625
528.30034	11508.0625
532.35792	11458.4625
536.41261	11315.7625
540.46441	11080.8625
544.51333	10994.4625
548.55936	11054.5625
552.60252	11223.2625
556.64279	11409.2625
560.6802	11549.2625
564.71473	11475.3625
568.7464	11380.9625
572.7752	11341.2625
576.80114	11321.6625
580.82422	11370.4625
584.84444	11629.4625
588.86181	12207.5625
592.87633	13095.4625
596.888	13677.1625
600.89682	13447.5625
604.9028	13348.0625
608.90594	14220.4625
612.90624	15489.8625
616.90371	15089.5625
620.89834	13096.4625
624.89015	12168.8625
628.87913	12070.8625
632.86528	11945.0625
636.84862	11640.4625
640.82913	11391.4625
644.80683	11146.8625
648.78172	10990.6625
652.75379	11031.5625
656.72306	11236.1625
660.68952	11475.9625
664.65319	11460.2625
668.61405	11315.9625
672.57211	11310.8625
676.52738	11334.0625
680.47986	11269.3625
684.42955	11136.2625
688.37646	11148.4625
692.32058	11280.5625
696.26192	11425.2625
700.20048	11605.2625
704.13626	11660.7625
708.06928	11516.8625
711.99952	11398.0625
715.927	11373.1625
719.85171	11474.1625
723.77365	11471.7625
727.69284	11350.2625
731.60928	11266.4625
735.52295	11294.0625
739.43388	11350.3625
743.34206	11379.4625
747.24749	11387.6625
751.15017	11446.3625
755.05012	11535.2625
758.94733	11735.6625
762.8418	12102.8625
766.73354	12741.7625
770.62254	13539.5625
774.50882	14041.5625
778.39237	13821.4625
782.27321	13028.4625
786.15132	12246.0625
790.02671	11783.9625
793.89938	11598.6625
797.76935	11530.4625
801.6366	11526.7625
805.50115	11501.8625
809.36299	11442.0625
813.22213	11407.1625
817.07857	11384.9625
820.93231	11377.1625
824.78336	11366.9625
828.63172	11400.8625
832.47738	11468.1625
836.32036	11526.9625
840.16066	11647.5625
843.99827	11735.5625
847.8332	11703.2625
851.66546	11542.2625
855.49504	11504.9625
859.32195	11497.1625
863.1462	11445.9625
866.96777	11367.1625
870.78668	11334.1625
874.60293	11341.4625
878.41652	11339.5625
882.22745	11438.2625
886.03573	11527.9625
889.84136	11548.2625
893.64433	11471.0625
897.44466	11392.9625
901.24235	11323.4625
905.0374	11321.2625
908.8298	11323.0625
912.61957	11374.7625
916.40671	11471.9625
920.19121	11612.6625
923.97308	11805.7625
927.75233	11965.0625
931.52895	12004.1625
935.30295	11896.6625
939.07433	11682.2625
942.84309	11502.0625
946.60924	11409.1625
950.37278	11361.9625
954.13371	11289.1625
957.89203	11154.3625
961.64774	11081.0625
965.40086	11033.7625
969.15137	10965.5625
972.89929	10974.8625
976.64461	10996.3625
980.38733	11049.3625
984.12747	11121.0625
987.86502	11264.7625
991.59999	11423.6625
995.33237	11679.8625
999.06217	12134.6625
1002.78939	12611.3625
1006.51404	12766.7625
1010.23611	12693.4625
1013.95561	12761.4625
1017.67255	12796.5625
1021.38692	12729.6625
1025.09872	12681.1625
1028.80796	12983.8625
1032.51465	13651.3625
1036.21877	14252.5625
1039.92035	14316.6625
1043.61937	13982.8625
1047.31584	13449.8625
1051.00976	12919.7625
1054.70114	12614.1625
1058.38998	12436.8625
1062.07627	12336.3625
1065.76003	12205.2625
1069.44126	12124.3625
1073.11995	12107.0625
1076.79611	12214.6625
1080.46974	12343.2625
1084.14085	12511.5625
1087.80943	12603.6625
1091.47549	12608.6625
1095.13903	12454.5625
1098.80005	12229.3625
1102.45857	12066.8625
1106.11456	12047.1625
1109.76805	12115.1625
1113.41903	12202.4625
1117.06751	12281.1625
1120.71348	12388.6625
1124.35696	12492.6625
1127.99793	12605.7625
1131.63641	12629.7625
1135.2724	12455.5625
1138.90589	12273.6625
1142.5369	12148.5625
1146.16542	12076.9625
1149.79145	12050.9625
1153.415	12043.5625
1157.03607	12062.7625
1160.65467	12138.9625
1164.27079	12402.8625
1167.88443	12815.7625
1171.49561	13497.9625
1175.10432	14446.8625
1178.71056	15721.0625
1182.31434	17049.0625
1185.91565	17802.2625
1189.51451	17621.3625
1193.11091	16794.3625
1196.70485	15851.4625
1200.29634	15042.1625
1203.88538	14425.9625
1207.47197	13964.1625
1211.05612	13574.7625
1214.63782	13469.0625
1218.21708	13625.4625
1221.79391	13908.1625
1225.36829	14165.7625
1228.94024	14042.6625
1232.50976	13628.2625
1236.07685	13220.2625
1239.6415	13035.0625
1243.20374	12961.1625
1246.76355	13047.9625
1250.32093	13273.1625
1253.8759	13544.7625
1257.42845	13908.5625
1260.97859	14257.1625
1264.52631	14611.2625
1268.07163	14885.6625
1271.61453	15268.4625
1275.15503	15672.1625
1278.69312	16122.6625
1282.22882	16460.5625
1285.76211	16727.6625
1289.29301	16947.0625
1292.82151	17253.4625
1296.34761	17775.3625
1299.87133	18609.3625
1303.39266	19777.5625
1306.9116	21257.6625
1310.42815	22926.5625
1313.94233	23960.4625
1317.45412	23635.2625
1320.96354	22305.6625
1324.47058	20647.8625
1327.97525	19202.3625
1331.47754	18197.7625
1334.97747	17808.5625
1338.47502	17700.8625
1341.97022	17645.8625
1345.46305	17648.0625
1348.95352	17932.6625
1352.44163	18735.7625
1355.92738	20154.4625
1359.41078	22036.2625
1362.89183	23546.0625
1366.37053	23456.3625
1369.84688	21339.6625
1373.32088	18751.3625
1376.79254	16962.3625
1380.26186	16186.4625
1383.72883	15941.6625
1387.19347	15685.2625
1390.65578	15286.3625
1394.11575	14958.6625
1397.57339	14844.1625
1401.0287	14908.2625
1404.48168	14964.4625
1407.93234	15012.6625
1411.38068	14981.7625
1414.82669	14909.2625
1418.27039	14744.8625
1421.71177	14509.5625
1425.15083	14310.9625
1428.58758	14250.8625
1432.02203	14376.7625
1435.45416	14675.2625
1438.88399	14839.7625
1442.31151	14863.3625
1445.73673	14836.9625
1449.15965	14816.9625
1452.58027	14655.2625
1455.9986	14415.1625
1459.41463	14287.3625
1462.82837	14362.3625
1466.23982	14625.3625
1469.64898	14942.4625
1473.05586	15220.3625
1476.46045	15427.3625
1479.86276	15645.2625
1483.26279	15707.5625
1486.66054	15707.2625
1490.05602	15799.7625
1493.44922	15886.0625
1496.84016	15934.6625
1500.22882	16061.0625
1503.61521	16485.3625
1506.99934	17072.8625
1510.38121	17634.8625
1513.76081	17936.7625
1517.13816	17654.9625
1520.51324	16911.3625
1523.88607	16174.8625
1527.25665	15687.5625
1530.62498	15495.5625
1533.99105	15358.9625
1537.35488	15311.1625
1540.71647	15209.4625
1544.07581	15075.8625
1547.4329	14904.2625
1550.78776	14734.1625
1554.14038	14587.8625
1557.49077	14387.3625
1560.83892	14244.0625
1564.18484	14224.3625
1567.52853	14286.8625
1570.86999	14420.7625
1574.20922	14564.8625
1577.54624	14608.4625
1580.88103	14545.5625
1584.2136	14420.9625
1587.54395	14607.5625
1590.87208	15262.5625
1594.19801	16348.8625
1597.52172	17690.9625
1600.84321	18547.7625
1604.16251	18215.5625
1607.47959	16932.0625
1610.79447	15360.7625
1614.10715	14078.8625
1617.41763	13231.8625
1620.7259	12764.0625
1624.03199	12568.1625
1627.33587	12624.6625
1630.63757	12896.2625
1633.93707	13365.0625
1637.23439	14080.0625
1640.52951	15102.7625
1643.82246	16305.4625
1647.11321	17254.5625
1650.40179	17425.3625
1653.68819	16449.6625
1656.97241	14753.6625
1660.25446	13231.0625
1663.53433	12217.4625
1666.81203	11659.1625
1670.08756	11303.6625
1673.36092	11109.8625
1676.63211	10944.5625
1679.90115	10812.5625
1683.16801	10732.5625
1686.43272	10649.5625
1689.69527	10606.2625
1692.95567	10570.2625
1696.2139	10564.4625
1699.46999	10554.7625
1702.72392	10531.6625
1705.97571	10519.7625
1709.22535	10468.6625
1712.47284	10497.7625
1715.71819	10536.0625
1718.96139	10510.2625
1722.20246	10454.8625
1725.44139	10455.1625
1728.67818	10407.4625
1731.91284	10363.5625
1735.14537	10340.8625
1738.37576	10333.7625
1741.60403	10296.2625
1744.83017	10272.6625
1748.05418	10267.1625
1751.27607	10227.5625
1754.49584	10196.2625
1757.71349	10201.6625
1760.92903	10204.1625
1764.14244	10180.1625
1767.35375	10194.8625
1770.56294	10170.2625
1773.77002	10170.6625
1776.97499	10171.3625
1780.17785	10160.0625
1783.37861	10173.0625
1786.57727	10150.9625
1789.77382	10137.3625
1792.96828	10122.9625
1796.16064	10105.3625
1799.3509	10116.6625
1802.53907	10119.4625
1805.72514	10119.7625
1808.90913	10079.2625
1812.09102	10073.9625
1815.27083	10010.1625
1818.44856	10028.7625
1821.6242	10019.6625
1824.79776	10008.6625
1827.96924	9980.0625
1831.13864	9977.3625
1834.30597	9976.9625
1837.47122	9982.0625
1840.6344	9962.2625
1843.7955	9988.9625
1846.95454	9965.8625
1850.11151	9967.6625
1853.26642	9950.4625
1856.41926	9969.5625
1859.57004	9957.9625
1862.71876	9965.6625
1865.86542	9942.4625
1869.01003	9931.2625
1872.15258	9948.9625
1875.29308	9938.4625
1878.43152	9950.7625
1881.56792	9940.0625
1884.70227	9924.7625
1887.83457	9911.5625
1890.96482	9916.3625
1894.09304	9907.5625
1897.21921	9895.1625
1900.34335	9905.2625
1903.46544	9893.5625
1906.58551	9912.2625
1909.70353	9907.0625
1912.81953	9924.2625
1915.93349	9886.8625
1919.04543	9870.4625
1922.15534	9852.3625
1925.26322	9835.6625
1928.36908	9833.1625
1931.47292	9835.2625
1934.57473	9833.5625
1937.67453	9797.9625
1940.77232	9773.6625
1943.86808	9790.7625
1946.96184	9740.4625
1950.05358	9738.3625
1953.14331	9702.8625
1956.23103	9695.4625
1959.31675	9668.4625
1962.40046	9646.8625
1965.48217	9630.9625
1968.56188	9607.9625
1971.63959	9566.4625
1974.7153	9570.0625
1977.78901	9521.8625
1980.86073	9515.0625
1983.93046	9502.3625
1986.99819	9466.0625
1990.06394	9468.1625
1993.1277	9430.5625
1996.18947	9392.7625
1999.24925	9373.3625
2002.30706	9351.4625
2005.36288	9328.0625
2008.41672	9332.8625
2011.46859	9302.0625
2014.51848	9259.1625
2017.56639	9216.3625
2020.61233	9197.4625
2023.6563	9201.6625
2026.6983	9195.3625
2029.73833	9191.6625
2032.7764	9180.8625
2035.8125	9182.9625
2038.84664	9170.6625
2041.87881	9148.7625
2044.90903	9152.6625
2047.93729	9141.3625
2050.96359	9153.1625
2053.98794	9135.4625
2057.01034	9126.7625
2060.03078	9139.7625
2063.04927	9133.7625
2066.06582	9135.4625
2069.08042	9116.4625
2072.09307	9111.5625
2075.10378	9124.9625
2078.11255	9143.5625
2081.11938	9150.5625
2084.12426	9117.5625
2087.12722	9124.8625
2090.12824	9112.2625
2093.12732	9154.5625
2096.12447	9150.0625
2099.11969	9157.1625
2102.11299	9185.4625
2105.10435	9174.0625
2108.09379	9183.2625
2111.08131	9184.2625
2114.0669	9173.6625
2117.05057	9188.1625
2120.03233	9174.8625
2123.01216	9184.9625
2125.99008	9170.8625
2128.96609	9196.5625
2131.94018	9227.3625
2134.91236	9204.9625
2137.88263	9220.7625
2140.851	9232.6625
2143.81746	9257.0625
2146.78201	9245.1625
2149.74466	9241.0625
2152.7054	9261.5625
2155.66425	9267.0625
2158.6212	9281.3625
2161.57625	9295.9625
2164.52941	9277.0625
2167.48067	9269.4625
2170.43004	9273.1625
2173.37752	9264.4625
2176.32311	9276.3625
2179.26681	9283.2625
2182.20863	9274.6625
2185.14856	9288.2625
2188.08661	9290.6625
2191.02278	9302.9625
2193.95707	9321.7625
2196.88948	9323.7625
2199.82001	9340.5625
2202.74867	9319.9625
2205.67545	9335.6625
2208.60037	9328.1625
2211.52341	9329.5625
2214.44458	9325.2625
2217.36388	9340.8625
2220.28132	9314.8625
2223.1969	9271.0625
2226.11061	9275.9625
2229.02246	9245.7625
2231.93245	9279.5625
2234.84058	9231.9625
2237.74686	9253.3625
2240.65128	9238.9625
2243.55385	9234.8625
2246.45456	9234.0625
2249.35343	9179.8625
2252.25044	9155.3625
2255.14561	9164.1625
2258.03893	9147.5625
2260.93041	9145.3625
2263.82004	9130.4625
2266.70783	9154.0625
2269.59378	9122.5625
2272.4779	9111.7625
2275.36017	9100.5625
2278.24061	9051.1625
2281.11922	9046.3625
2283.996	9056.7625
2286.87094	9053.2625
2289.74405	9032.2625
2292.61534	9009.9625
2295.4848	9026.0625
2298.35243	9035.3625
2301.21824	9037.7625
2304.08223	9048.0625
2306.94439	9047.4625
2309.80474	9079.6625
2312.66327	9071.1625
2315.51999	9074.7625
2318.37489	9102.6625
2321.22797	9084.2625
2324.07925	9081.2625
2326.92871	9074.3625
2329.77637	9070.4625
2332.62222	9062.0625
2335.46626	9070.3625
2338.3085	9065.1625
2341.14893	9081.1625
2343.98756	9081.4625
2346.8244	9097.2625
2349.65943	9059.6625
2352.49267	9057.5625
2355.32411	9072.8625
2358.15376	9063.6625
2360.98161	9048.5625
2363.80768	9026.5625
2366.63195	9008.3625
2369.45444	9036.1625
2372.27514	9000.8625
2375.09405	8973.2625
2377.91118	8976.7625
2380.72652	8949.1625
2383.54009	8938.3625
2386.35187	8936.8625
2389.16188	8914.3625
2391.97011	8898.3625
2394.77657	8895.8625
2397.58125	8895.9625
2400.38416	8864.3625
2403.18529	8841.4625
2405.98466	8869.6625
2408.78226	8835.6625
2411.57809	8814.5625
2414.37216	8795.4625
2417.16446	8801.6625
2419.955	8778.6625
2422.74378	8758.6625
2425.5308	8765.5625
2428.31606	8773.3625
2431.09956	8773.8625
2433.88131	8759.4625
2436.6613	8752.6625
2439.43954	8777.4625
2442.21603	8778.0625
2444.99077	8737.6625
2447.76377	8774.9625
2450.53501	8767.2625
2453.30451	8768.7625
2456.07226	8727.1625
2458.83827	8746.2625
2461.60254	8742.6625
2464.36507	8755.1625
2467.12586	8755.5625
2469.88492	8762.6625
2472.64224	8743.3625
2475.39782	8762.3625
2478.15167	8773.3625
2480.90379	8761.6625
2483.65417	8760.7625
2486.40283	8772.2625
2489.14976	8786.7625
2491.89497	8799.9625
2494.63845	8784.5625
2497.3802	8803.7625
2500.12024	8791.0625
2502.85855	8775.3625
2505.59514	8771.7625
2508.33002	8755.4625
2511.06318	8747.7625
2513.79462	8737.7625
2516.52435	8749.3625
2519.25237	8727.3625
2521.97867	8738.5625
2524.70327	8709.0625
2527.42616	8723.0625
2530.14734	8711.2625
2532.86681	8717.5625
2535.58458	8708.5625
2538.30065	8685.7625
2541.01501	8696.8625
2543.72768	8665.1625
2546.43864	8674.8625
2549.14791	8661.7625
2551.85548	8661.8625
2554.56136	8634.6625
2557.26554	8639.0625
2559.96803	8651.4625
2562.66883	8630.5625
2565.36794	8667.5625
2568.06536	8642.6625
2570.7611	8639.1625
2573.45514	8638.5625
2576.14751	8635.3625
2578.83819	8620.2625
2581.52719	8646.2625
2584.21451	8618.4625
2586.90015	8630.2625
2589.58411	8615.9625
2592.2664	8617.0625
2594.94701	8598.3625
2597.62594	8570.6625
2600.30321	8542.7625
2602.9788	8537.7625
2605.65273	8573.3625
2608.32498	8589.0625
2610.99557	8556.3625
2613.66449	8566.0625
2616.33175	8533.0625
2618.99734	8569.7625
2621.66128	8570.6625
2624.32355	8574.4625
2626.98416	8593.6625
2629.64311	8584.7625
2632.30041	8596.9625
2634.95605	8572.4625
2637.61004	8556.5625
2640.26238	8545.4625
2642.91306	8551.6625
2645.56209	8522.5625
2648.20948	8506.1625
2650.85521	8501.3625
2653.4993	8521.6625
2656.14175	8505.5625
2658.78255	8493.5625
2661.42171	8520.8625
2664.05923	8514.2625
2666.6951	8515.8625
2669.32934	8519.9625
2671.96194	8552.9625
2674.59291	8535.3625
2677.22224	8537.1625
2679.84993	8548.6625
2682.476	8556.9625
2685.10043	8524.6625
2687.72324	8529.0625
2690.34441	8524.6625
2692.96396	8537.8625
2695.58188	8553.7625
2698.19818	8528.6625
2700.81285	8538.4625
2703.4259	8570.0625
2706.03733	8572.4625
2708.64714	8571.8625
2711.25533	8580.5625
2713.86191	8586.2625
2716.46687	8610.2625
2719.07021	8639.3625
2721.67194	8595.1625
2724.27206	8605.6625
2726.87057	8609.4625
2729.46747	8630.2625
2732.06276	8650.2625
2734.65644	8631.9625
2737.24852	8627.0625
2739.83899	8636.9625
2742.42786	8643.2625
2745.01513	8639.3625
2747.60079	8634.0625
2750.18486	8609.3625
2752.76733	8645.0625
2755.3482	8653.8625
2757.92747	8676.3625
2760.50515	8663.9625
2763.08123	8662.2625
2765.65573	8636.3625
2768.22863	8642.2625
2770.79994	8623.7625
2773.36967	8660.6625
2775.9378	8668.5625
2778.50435	8670.5625
2781.06932	8646.3625
2783.6327	8690.2625
2786.1945	8663.2625
2788.75471	8657.9625
2791.31335	8634.9625
2793.87041	8619.1625
2796.42589	8615.2625
2798.97979	8624.1625
2801.53212	8609.8625
2804.08288	8600.5625
2806.63206	8613.6625
2809.17967	8600.3625
2811.72571	8584.0625
2814.27018	8603.3625
2816.81308	8587.4625
2819.35442	8592.1625
2821.89419	8582.0625
2824.43239	8611.0625
2826.96904	8603.0625
2829.50412	8596.0625
2832.03763	8595.3625
2834.56959	8603.4625
2837.1	8624.8625
2839.62884	8663.2625
2842.15613	8695.6625
2844.68186	8783.4625
2847.20604	8842.5625
2849.72867	8900.4625
2852.24974	8947.3625
2854.76927	8947.5625
2857.28724	8951.1625
2859.80367	8951.0625
2862.31855	8923.2625
2864.83189	8903.1625
2867.34368	8887.7625
2869.85393	8916.8625
2872.36264	8927.9625
2874.8698	8943.8625
2877.37543	8938.8625
2879.87952	8964.3625
2882.38207	8986.1625
2884.88308	8993.9625
2887.38256	9014.6625
2889.88051	8999.5625
2892.37692	8998.1625
2894.8718	9017.2625
2897.36515	9028.4625
2899.85698	9037.5625
2902.34727	9075.7625
2904.83604	9061.0625
2907.32328	9067.8625
2909.809	9059.3625
2912.29319	9066.3625
2914.77587	9052.6625
2917.25702	9072.5625
2919.73665	9070.5625
2922.21476	9070.5625
2924.69136	9040.7625
2927.16644	9019.8625
2929.64	9030.4625
2932.11205	9039.0625
2934.58258	8989.3625
2937.05161	8984.9625
2939.51912	8946.5625
2941.98513	8913.3625
2944.44962	8843.4625
2946.91261	8767.7625
2949.37409	8760.9625
2951.83407	8734.6625
2954.29254	8691.5625
2956.74951	8644.5625
2959.20498	8641.1625
2961.65895	8573.5625
2964.11142	8546.2625
2966.56239	8534.4625
2969.01186	8525.6625
2971.45984	8506.0625
2973.90632	8470.8625
2976.35131	8444.6625
2978.7948	8406.8625
2981.23681	8370.7625
2983.67732	8369.0625
2986.11635	8349.2625
2988.55388	8323.3625
2990.98993	8295.5625
2993.4245	8282.7625
2995.85758	8278.6625
2998.28917	8252.7625
3000.71928	8270.7625
3003.14791	8271.6625
3005.57506	8267.4625
3008.00073	8226.8625
3010.42493	8227.7625
3012.84764	8218.8625
3015.26888	8207.7625
3017.68865	8190.2625
3020.10694	8190.1625
3022.52376	8194.1625
3024.9391	8187.5625
3027.35298	8178.2625
3029.76539	8193.7625
3032.17632	8157.2625
3034.5858	8158.7625
3036.9938	8157.9625
3039.40034	8135.6625
3041.80542	8170.4625
3044.20903	8152.9625
3046.61118	8154.0625
3049.01187	8146.2625
3051.4111	8142.0625
3053.80888	8140.0625
3056.20519	8155.5625
3058.60005	8126.5625
3060.99345	8114.3625
3063.3854	8130.6625
3065.7759	8104.8625
3068.16494	8100.5625
3070.55254	8082.2625
3072.93868	8082.0625
3075.32338	8080.2625
3077.70662	8060.7625
3080.08842	8036.7625
3082.46878	8044.3625
3084.84769	8027.6625
3087.22515	8045.6625
3089.60118	8056.9625
3091.97576	8033.4625
3094.3489	8044.8625
3096.72061	8067.2625
3099.09087	8061.4625
3101.4597	8037.8625
3103.82709	8026.2625
3106.19305	8039.8625
3108.55757	8035.2625
3110.92066	8020.3625
3113.28232	8007.4625
3115.64255	7986.8625
3118.00134	7991.2625
3120.35871	7990.4625
3122.71466	8015.9625
3125.06917	7995.3625
3127.42226	8001.0625
3129.77393	8014.7625
3132.12417	8006.1625
3134.47299	7995.4625
3136.82039	8014.4625
3139.16636	8033.3625
3141.51092	8040.2625
3143.85406	8051.3625
3146.19579	8036.9625
3148.53609	8043.8625
3150.87499	8083.3625
3153.21246	8072.3625
3155.54853	8105.4625
3157.88318	8100.2625
3160.21642	8104.9625
3162.54826	8087.0625
3164.87868	8107.7625
3167.2077	8073.0625
3169.5353	8105.6625
3171.86151	8084.5625
3174.18631	8063.5625
3176.5097	8097.6625
3178.83169	8111.4625
3181.15228	8108.0625
3183.47147	8090.5625
3185.78926	8101.4625
3188.10565	8099.9625
3190.42065	8123.0625
3192.73424	8138.5625
3195.04645	8155.9625
3197.35725	8153.8625
3199.66667	8152.2625
3201.97469	8164.9625
3204.28132	8148.0625
3206.58656	8183.5625
3208.8904	8196.4625
3211.19287	8189.7625
3213.49394	8197.6625
3215.79363	8195.8625
3218.09193	8206.5625
3220.38884	8218.2625
3222.68438	8226.2625
3224.97853	8209.8625
3227.2713	8214.0625
3229.56269	8199.5625
3231.8527	8208.3625
3234.14133	8193.1625
3236.42858	8173.2625
3238.71446	8217.4625
3240.99896	8205.6625
3243.28209	8213.2625
3245.56384	8202.7625
3247.84423	8235.9625
3250.12324	8225.4625
3252.40088	8222.0625
3254.67715	8226.8625
3256.95205	8206.0625
3259.22558	8232.0625
3261.49775	8204.0625
3263.76855	8212.5625
3266.03799	8195.2625
3268.30606	8196.0625
3270.57277	8180.9625
3272.83812	8183.1625
3275.10211	8148.1625
3277.36474	8179.6625
3279.62601	8158.5625
3281.88593	8170.7625
3284.14448	8184.2625
3286.40168	8180.9625
3288.65753	8147.2625
3290.91202	8162.8625
3293.16516	8131.7625
3295.41695	8128.3625
3297.66738	8073.3625
3299.91647	8048.7625
3302.16421	8019.7625
3304.4106	7998.8625
3306.65564	7952.3625
3308.89933	7927.8625
3311.14169	7909.3625
3313.38269	7854.5625
3315.62236	7809.1625
3317.86068	7770.8625
3320.09766	7689.7625
3322.3333	7643.9625
3324.5676	7658.4625
3326.80056	7540.3625
3329.03219	7531.1625
3331.26248	1.4625
3333.49143	-0.1375
3335.71905	-1.0375
