Data from AgNPs_FTO_APTES_UA_2uM_CRN_50uM_R6G_10uM_NaF_0.1M_Addition_RamanShift__15__14-53-45-248.txt Node

Date: Wed Feb 02 14:53:45 GMT 2022
User: TCL
Spectrometer: QEP01345
Trigger mode: 4
Integration Time (sec): 7.000000E0
Scans to average: 10
Electric dark correction enabled: true
Nonlinearity correction enabled: false
Boxcar width: 0
XAxis mode: Raman Shifts
Number of Pixels in Spectrum: 1044
>>>>>Begin Spectral Data<<<<<
46.04893	1.6
50.45542	0.8
54.85868	-1.4
59.25871	-1.4
63.6555	87.2
68.04907	95.6
72.43941	97.4
76.82654	103.9
81.21044	108.8
85.59113	114.1
89.96862	118.2
94.34289	119
98.71396	122.6
103.08183	128.5
107.4465	134.6
111.80798	137.6
116.16626	139.6
120.52136	144.5
124.87327	149.4
129.222	161.8
133.56755	166
137.90993	180.3
142.24913	197.7
146.58517	221.1
150.91804	258.2
155.24774	304.5
159.57429	382.5
163.89768	485.3
168.21792	648.2
172.53501	888.8
176.84895	1229.5
181.15975	1726
185.46741	2429.4
189.77193	3334.8
194.07331	4457
198.37157	5748.9
202.6667	7103.4
206.9587	8418.4
211.24758	9740.6
215.53334	11069.5
219.81599	12449.5
224.09553	13968.2
228.37195	15662.6
232.64527	17477.2
236.91549	19399.9
241.18261	21336.2
245.44663	23186.7
249.70755	24795.7
253.96539	26262.5
258.22014	27516.1
262.4718	28609.8
266.72039	29363.4
270.96589	29849.5
275.20832	30025.6
279.44768	30041.9
283.68397	29976.7
287.91719	29853.1
292.14735	29957.1
296.37445	30067.2
300.59849	30180.6
304.81948	30233.3
309.03742	29926.9
313.25231	29461.7
317.46415	28622
321.67296	27655
325.87872	26867.5
330.08145	26397.8
334.28114	26242.8
338.47781	26396.3
342.67145	26642.9
346.86207	26989.7
351.04966	27389.5
355.23424	27866.5
359.4158	28194.6
363.59435	28482.9
367.76989	28611.8
371.94243	28778.9
376.11196	28864.5
380.27849	28918.7
384.44203	29076.4
388.60257	29322.8
392.76012	29692.1
396.91468	30094.6
401.06626	30541.3
405.21485	30845
409.36047	30707.4
413.50311	30216.2
417.64277	29870.7
421.77947	29776.6
425.9132	29893
430.04396	30034.9
434.17176	30236.3
438.2966	30418.8
442.41849	30781.5
446.53742	31475.7
450.6534	32289.8
454.76644	33016.6
458.87653	33346.3
462.98368	33428.8
467.08789	33316.3
471.18916	33160.4
475.2875	33052.7
479.38291	33150.9
483.4754	33104.7
487.56496	32657.4
491.6516	31905.3
495.73531	31127.6
499.81612	30744.4
503.89401	30712.6
507.96899	30770.7
512.04106	30691.4
516.11023	30453
520.1765	30093
524.23987	29629.6
528.30034	29223.5
532.35792	28883.4
536.41261	28619.4
540.46441	28441.3
544.51333	28601.3
548.55936	29097.2
552.60252	29949.2
556.64279	30753.7
560.6802	31371.1
564.71473	31778.2
568.7464	32413.9
572.7752	33335.3
576.80114	34244
580.82422	34884.3
584.84444	35355.8
588.86181	35432.8
592.87633	35407.7
596.888	35146.5
600.89682	34896.3
604.9028	35567.7
608.90594	37804.9
612.90624	39762.2
616.90371	37083.3
620.89834	31529.7
624.89015	29095.9
628.87913	28881.2
632.86528	29135.1
636.84862	29237.8
640.82913	28896.4
644.80683	28200.6
648.78172	27573
652.75379	27354.3
656.72306	27503.9
660.68952	27855.9
664.65319	27777.2
668.61405	27360.8
672.57211	27254.3
676.52738	27317.7
680.47986	27332.5
684.42955	27162.1
688.37646	27087.3
692.32058	27126
696.26192	27415.7
700.20048	27682.4
704.13626	27974.4
708.06928	28103.4
711.99952	28006.4
715.927	27892.1
719.85171	27856.8
723.77365	27732.4
727.69284	27454.8
731.60928	27078.7
735.52295	26889.1
739.43388	26808.6
743.34206	26886.9
747.24749	27044.2
751.15017	27334.2
755.05012	27860.3
758.94733	28837.3
762.8418	30470.8
766.73354	32784.6
770.62254	34810.5
774.50882	34953
778.39237	33091.2
782.27321	30617
786.15132	28721.4
790.02671	27554.8
793.89938	26931.6
797.76935	26680.8
801.6366	26575.4
805.50115	26537.7
809.36299	26407.8
813.22213	26214.3
817.07857	26148.7
820.93231	26084
824.78336	25973.4
828.63172	25773.4
832.47738	25629.1
836.32036	25645.6
840.16066	25662
843.99827	25598.2
847.8332	25532.7
851.66546	25491.5
855.49504	25507.1
859.32195	25513.5
863.1462	25375.7
866.96777	25303.7
870.78668	25245
874.60293	25205.8
878.41652	25212.6
882.22745	25278
886.03573	25371.9
889.84136	25330
893.64433	25252.1
897.44466	25162.5
901.24235	25140.5
905.0374	25035.4
908.8298	24990.4
912.61957	25057.9
916.40671	25370.1
920.19121	25771.7
923.97308	26051.2
927.75233	25915.4
931.52895	25617.3
935.30295	25208
939.07433	24680.8
942.84309	24288.2
946.60924	24035.4
950.37278	23983.8
954.13371	23964.3
957.89203	23972.6
961.64774	24000.9
965.40086	24032.1
969.15137	23915.9
972.89929	23757.3
976.64461	23618.6
980.38733	23542.7
984.12747	23601
987.86502	23706.2
991.59999	23901.7
995.33237	24175.6
999.06217	24612
1002.78939	25149.9
1006.51404	25519.2
1010.23611	25804.9
1013.95561	26039.3
1017.67255	26123.5
1021.38692	25966.6
1025.09872	25619.8
1028.80796	25476.8
1032.51465	25698.2
1036.21877	26093
1039.92035	26235.2
1043.61937	26182.5
1047.31584	25972.3
1051.00976	25766.2
1054.70114	25753.2
1058.38998	25978.3
1062.07627	26360.6
1065.76003	26712.3
1069.44126	27062.8
1073.11995	27402.9
1076.79611	27637.3
1080.46974	27784.6
1084.14085	27953.6
1087.80943	28254.1
1091.47549	28569.4
1095.13903	28693.8
1098.80005	28453.9
1102.45857	27797.3
1106.11456	27150.1
1109.76805	26754.6
1113.41903	26685.5
1117.06751	26865.3
1120.71348	27127.7
1124.35696	27404.6
1127.99793	27809.6
1131.63641	28045.2
1135.2724	27958.4
1138.90589	27882.5
1142.5369	27910.8
1146.16542	28174.7
1149.79145	28511.6
1153.415	29026.7
1157.03607	29643.7
1160.65467	30585.8
1164.27079	32042
1167.88443	33810.1
1171.49561	35926.7
1175.10432	38598.4
1178.71056	41736.9
1182.31434	44786.9
1185.91565	46637
1189.51451	47054.4
1193.11091	46480.8
1196.70485	44977.7
1200.29634	43067.4
1203.88538	41443.4
1207.47197	40380.6
1211.05612	39670.1
1214.63782	38865.8
1218.21708	37822.4
1221.79391	36637.9
1225.36829	35777.1
1228.94024	35096.2
1232.50976	34535
1236.07685	34104.9
1239.6415	33939.3
1243.20374	33967.2
1246.76355	34227.4
1250.32093	34707.3
1253.8759	35441.1
1257.42845	36501
1260.97859	37558.9
1264.52631	38568.5
1268.07163	39602.8
1271.61453	40765.1
1275.15503	41992.2
1278.69312	43317.8
1282.22882	44570.1
1285.76211	46037.5
1289.29301	47837.3
1292.82151	50092.1
1296.34761	52863.3
1299.87133	56023.2
1303.39266	59161.7
1306.9116	61924.8
1310.42815	64289.3
1313.94233	65597.7
1317.45412	65829.4
1320.96354	65726
1324.47058	65622.5
1327.97525	65814
1331.47754	65955.4
1334.97747	66109.1
1338.47502	66127
1341.97022	66007.4
1345.46305	65287.9
1348.95352	63966.5
1352.44163	62261.1
1355.92738	61087.5
1359.41078	61061.2
1362.89183	61462
1366.37053	60060.9
1369.84688	56021.8
1373.32088	51235.8
1376.79254	47891.9
1380.26186	46740.9
1383.72883	46986.6
1387.19347	47534.8
1390.65578	47755.4
1394.11575	47937.9
1397.57339	48488.4
1401.0287	49223.3
1404.48168	49802.1
1407.93234	49469.4
1411.38068	48161.3
1414.82669	46061.4
1418.27039	43657.9
1421.71177	41367.5
1425.15083	39474.2
1428.58758	38558.1
1432.02203	38587.8
1435.45416	39425.4
1438.88399	40766.5
1442.31151	42033.8
1445.73673	43063.8
1449.15965	43982.5
1452.58027	44904.2
1455.9986	45444.6
1459.41463	45956.4
1462.82837	46562.1
1466.23982	47152.1
1469.64898	47567.6
1473.05586	47709.3
1476.46045	47410.6
1479.86276	46767.1
1483.26279	46053.6
1486.66054	45566.1
1490.05602	45562.5
1493.44922	45918.3
1496.84016	46512.9
1500.22882	47587.2
1503.61521	49131.2
1506.99934	50910.3
1510.38121	52394.9
1513.76081	52883
1517.13816	52125.1
1520.51324	50763.8
1523.88607	49632.7
1527.25665	49134.5
1530.62498	48917.7
1533.99105	48731.2
1537.35488	48342
1540.71647	47379.8
1544.07581	46115.6
1547.4329	44729
1550.78776	43655.5
1554.14038	42885.1
1557.49077	42585.6
1560.83892	42454.6
1564.18484	42481.8
1567.52853	42515.1
1570.86999	42831.6
1574.20922	43619.7
1577.54624	44514.2
1580.88103	45123.8
1584.2136	45666.7
1587.54395	46777.7
1590.87208	48545.5
1594.19801	50685.5
1597.52172	52746.2
1600.84321	53074.9
1604.16251	50692
1607.47959	46965.5
1610.79447	43228
1614.10715	39460.4
1617.41763	36255
1620.7259	33912.6
1624.03199	32572.7
1627.33587	32292.8
1630.63757	33111.4
1633.93707	35234.7
1637.23439	38812.5
1640.52951	43840
1643.82246	49472.6
1647.11321	53789
1650.40179	54866.9
1653.68819	51758.1
1656.97241	45533.3
1660.25446	38916.9
1663.53433	33512.3
1666.81203	29732.3
1670.08756	27283.2
1673.36092	25699.1
1676.63211	24647.1
1679.90115	23979.9
1683.16801	23424.8
1686.43272	23047.1
1689.69527	22749.2
1692.95567	22488.1
1696.2139	22394.9
1699.46999	22247.6
1702.72392	22115.1
1705.97571	21985
1709.22535	21877.7
1712.47284	21792.9
1715.71819	21769.1
1718.96139	21631.2
1722.20246	21562.1
1725.44139	21460.6
1728.67818	21323.7
1731.91284	21160.2
1735.14537	21054.4
1738.37576	20967.8
1741.60403	20869.2
1744.83017	20830.4
1748.05418	20733.6
1751.27607	20704
1754.49584	20686.5
1757.71349	20645
1760.92903	20616
1764.14244	20579.6
1767.35375	20545.7
1770.56294	20459.2
1773.77002	20388.9
1776.97499	20309.5
1780.17785	20264.1
1783.37861	20259.2
1786.57727	20196.8
1789.77382	20117.9
1792.96828	20105.5
1796.16064	20068.3
1799.3509	19996.7
1802.53907	19918.5
1805.72514	19894.6
1808.90913	19805.5
1812.09102	19797.5
1815.27083	19774.6
1818.44856	19746.3
1821.6242	19682.2
1824.79776	19681.1
1827.96924	19668.3
1831.13864	19623.4
1834.30597	19651.6
1837.47122	19674
1840.6344	19639.9
1843.7955	19660.8
1846.95454	19661.4
1850.11151	19675.2
1853.26642	19663.7
1856.41926	19613.3
1859.57004	19583.4
1862.71876	19584.8
1865.86542	19559.6
1869.01003	19530.9
1872.15258	19474
1875.29308	19475.4
1878.43152	19426.5
1881.56792	19426.8
1884.70227	19374.6
1887.83457	19385.4
1890.96482	19362.3
1894.09304	19320
1897.21921	19288.3
1900.34335	19263.4
1903.46544	19224
1906.58551	19211.7
1909.70353	19156.5
1912.81953	19101.1
1915.93349	19051.8
1919.04543	18990.1
1922.15534	18972
1925.26322	18908.8
1928.36908	18851.2
1931.47292	18805.1
1934.57473	18738.8
1937.67453	18723.3
1940.77232	18645.1
1943.86808	18575.8
1946.96184	18556.3
1950.05358	18447.1
1953.14331	18409.6
1956.23103	18374
1959.31675	18280.9
1962.40046	18253.1
1965.48217	18170.3
1968.56188	18118.2
1971.63959	18089.6
1974.7153	18018.3
1977.78901	17979.6
1980.86073	17906.6
1983.93046	17837.8
1986.99819	17781.3
1990.06394	17720.4
1993.1277	17675.4
1996.18947	17605.5
1999.24925	17580.6
2002.30706	17480.4
2005.36288	17442.7
2008.41672	17381.7
2011.46859	17327.6
2014.51848	17264
2017.56639	17219.2
2020.61233	17197.2
2023.6563	17147.8
2026.6983	17133.7
2029.73833	17046
2032.7764	17048.5
2035.8125	16997.4
2038.84664	16958.1
2041.87881	16957.2
2044.90903	16924.8
2047.93729	16875.8
2050.96359	16900.9
2053.98794	16824
2057.01034	16836.5
2060.03078	16841
2063.04927	16782.2
2066.06582	16776.1
2069.08042	16766.7
2072.09307	16759.1
2075.10378	16708.1
2078.11255	16679.6
2081.11938	16657.4
2084.12426	16671.7
2087.12722	16653.1
2090.12824	16682.8
2093.12732	16627.7
2096.12447	16656
2099.11969	16683.4
2102.11299	16693.8
2105.10435	16686.6
2108.09379	16697.9
2111.08131	16661.9
2114.0669	16708.8
2117.05057	16709.6
2120.03233	16726.1
2123.01216	16717.2
2125.99008	16729.1
2128.96609	16734.6
2131.94018	16726.7
2134.91236	16690.5
2137.88263	16715.9
2140.851	16729.3
2143.81746	16762.4
2146.78201	16755.5
2149.74466	16747.6
2152.7054	16718.2
2155.66425	16734.4
2158.6212	16740.8
2161.57625	16727.3
2164.52941	16682
2167.48067	16672.1
2170.43004	16645.2
2173.37752	16644.7
2176.32311	16631.3
2179.26681	16665.9
2182.20863	16661.7
2185.14856	16642.2
2188.08661	16631
2191.02278	16644.5
2193.95707	16629.3
2196.88948	16597.4
2199.82001	16588.1
2202.74867	16571.8
2205.67545	16574.8
2208.60037	16541.1
2211.52341	16493.2
2214.44458	16508.5
2217.36388	16467.5
2220.28132	16433.7
2223.1969	16427.8
2226.11061	16343.1
2229.02246	16323.4
2231.93245	16301.4
2234.84058	16237.2
2237.74686	16217.7
2240.65128	16201.6
2243.55385	16171.2
2246.45456	16161.5
2249.35343	16138.5
2252.25044	16101.4
2255.14561	16072.1
2258.03893	16060.9
2260.93041	16039.1
2263.82004	15970
2266.70783	15932.5
2269.59378	15884.4
2272.4779	15849.7
2275.36017	15786.1
2278.24061	15761.1
2281.11922	15749.4
2283.996	15703.6
2286.87094	15702.5
2289.74405	15664.8
2292.61534	15618.4
2295.4848	15628.9
2298.35243	15637.4
2301.21824	15599.4
2304.08223	15597.6
2306.94439	15601.6
2309.80474	15589.1
2312.66327	15565.7
2315.51999	15568.7
2318.37489	15583.5
2321.22797	15529.1
2324.07925	15547.5
2326.92871	15512.9
2329.77637	15490.4
2332.62222	15445.9
2335.46626	15453.1
2338.3085	15468.3
2341.14893	15438.3
2343.98756	15407.4
2346.8244	15430.3
2349.65943	15435.3
2352.49267	15423.9
2355.32411	15425.2
2358.15376	15385.7
2360.98161	15406.2
2363.80768	15366.3
2366.63195	15369
2369.45444	15341.2
2372.27514	15320.1
2375.09405	15307.8
2377.91118	15263.2
2380.72652	15243.5
2383.54009	15221
2386.35187	15223.9
2389.16188	15148.3
2391.97011	15132.5
2394.77657	15092.8
2397.58125	15097.5
2400.38416	15043.6
2403.18529	15021.3
2405.98466	15027.4
2408.78226	14987.9
2411.57809	14999.1
2414.37216	14944.3
2417.16446	14949.4
2419.955	14909.4
2422.74378	14919.7
2425.5308	14891.3
2428.31606	14912.4
2431.09956	14900.9
2433.88131	14841.7
2436.6613	14845.9
2439.43954	14857.7
2442.21603	14848.9
2444.99077	14805
2447.76377	14816
2450.53501	14797.1
2453.30451	14822.6
2456.07226	14779.6
2458.83827	14806.8
2461.60254	14789.1
2464.36507	14777.1
2467.12586	14774.6
2469.88492	14761.2
2472.64224	14776.2
2475.39782	14778.6
2478.15167	14782.4
2480.90379	14771.5
2483.65417	14803
2486.40283	14785.1
2489.14976	14799.3
2491.89497	14775.6
2494.63845	14797.6
2497.3802	14764.7
2500.12024	14777.4
2502.85855	14794.1
2505.59514	14793.1
2508.33002	14797.4
2511.06318	14765.5
2513.79462	14770.5
2516.52435	14762.2
2519.25237	14751.5
2521.97867	14672.4
2524.70327	14676.8
2527.42616	14687.9
2530.14734	14671.7
2532.86681	14628.4
2535.58458	14639.2
2538.30065	14636.2
2541.01501	14630
2543.72768	14599.3
2546.43864	14576.9
2549.14791	14550.4
2551.85548	14543.7
2554.56136	14532.3
2557.26554	14536.1
2559.96803	14481.3
2562.66883	14503.3
2565.36794	14493.1
2568.06536	14496.8
2570.7611	14471.2
2573.45514	14447.9
2576.14751	14448.9
2578.83819	14419.6
2581.52719	14415.1
2584.21451	14424.6
2586.90015	14386.9
2589.58411	14378
2592.2664	14380.8
2594.94701	14367.9
2597.62594	14366.9
2600.30321	14322.2
2602.9788	14337.8
2605.65273	14305.4
2608.32498	14342.2
2610.99557	14313.4
2613.66449	14336.3
2616.33175	14328
2618.99734	14332.6
2621.66128	14322.7
2624.32355	14306.1
2626.98416	14283.3
2629.64311	14297.8
2632.30041	14296
2634.95605	14332.3
2637.61004	14282.1
2640.26238	14237.8
2642.91306	14282.1
2645.56209	14280.8
2648.20948	14281.5
2650.85521	14238.3
2653.4993	14256.6
2656.14175	14238.6
2658.78255	14271.4
2661.42171	14261.2
2664.05923	14297.7
2666.6951	14273.6
2669.32934	14288.3
2671.96194	14306.9
2674.59291	14278.3
2677.22224	14289.7
2679.84993	14299.1
2682.476	14282.7
2685.10043	14293.2
2687.72324	14250.6
2690.34441	14263.3
2692.96396	14239.4
2695.58188	14247.3
2698.19818	14241
2700.81285	14249.2
2703.4259	14252.4
2706.03733	14304.3
2708.64714	14283.4
2711.25533	14293.3
2713.86191	14251.3
2716.46687	14281.3
2719.07021	14303.8
2721.67194	14322
2724.27206	14324
2726.87057	14344.5
2729.46747	14361.2
2732.06276	14322.4
2734.65644	14310
2737.24852	14324.3
2739.83899	14299.6
2742.42786	14280.2
2745.01513	14275
2747.60079	14263.4
2750.18486	14277.9
2752.76733	14286.8
2755.3482	14294.7
2757.92747	14303.2
2760.50515	14285.4
2763.08123	14289.7
2765.65573	14287.9
2768.22863	14253.2
2770.79994	14273.4
2773.36967	14246.4
2775.9378	14236.6
2778.50435	14264.2
2781.06932	14215.9
2783.6327	14206.6
2786.1945	14238.4
2788.75471	14197.5
2791.31335	14179.2
2793.87041	14180.4
2796.42589	14140.8
2798.97979	14148
2801.53212	14110.4
2804.08288	14100.2
2806.63206	14094.1
2809.17967	14050.8
2811.72571	13998.8
2814.27018	14001.3
2816.81308	13970.4
2819.35442	13950
2821.89419	13918
2824.43239	13937.1
2826.96904	13913.7
2829.50412	13869.5
2832.03763	13870.5
2834.56959	13858.8
2837.1	13834.5
2839.62884	13843.2
2842.15613	13835.5
2844.68186	13861.2
2847.20604	13891.7
2849.72867	13872.2
2852.24974	13897.6
2854.76927	13886.7
2857.28724	13857.3
2859.80367	13823
2862.31855	13807.5
2864.83189	13793.8
2867.34368	13778.1
2869.85393	13779.5
2872.36264	13776.4
2874.8698	13766.4
2877.37543	13776.6
2879.87952	13768.1
2882.38207	13746.3
2884.88308	13716.1
2887.38256	13747.2
2889.88051	13743.2
2892.37692	13756.5
2894.8718	13736.4
2897.36515	13770.9
2899.85698	13771.9
2902.34727	13810.4
2904.83604	13805.1
2907.32328	13828.5
2909.809	13834.7
2912.29319	13817.2
2914.77587	13813.6
2917.25702	13809.2
2919.73665	13800
2922.21476	13818.2
2924.69136	13804.7
2927.16644	13801.4
2929.64	13804.3
2932.11205	13807.6
2934.58258	13750.3
2937.05161	13757.4
2939.51912	13784.8
2941.98513	13746.1
2944.44962	13699.7
2946.91261	13627.5
2949.37409	13652.7
2951.83407	13623.3
2954.29254	13611.7
2956.74951	13610.1
2959.20498	13547.1
2961.65895	13536.6
2964.11142	13532.4
2966.56239	13481.7
2969.01186	13498.2
2971.45984	13463.2
2973.90632	13429.6
2976.35131	13432.8
2978.7948	13356.3
2981.23681	13344.8
2983.67732	13322.5
2986.11635	13305.4
2988.55388	13242.2
2990.98993	13230.6
2993.4245	13219.6
2995.85758	13155.8
2998.28917	13134.7
3000.71928	13110.4
3003.14791	13075.6
3005.57506	13050.3
3008.00073	13007.4
3010.42493	12957.4
3012.84764	12941.2
3015.26888	12948.4
3017.68865	12938.8
3020.10694	12900.7
3022.52376	12910.5
3024.9391	12844
3027.35298	12844.2
3029.76539	12822.5
3032.17632	12817.3
3034.5858	12823.6
3036.9938	12841.1
3039.40034	12797.7
3041.80542	12767.1
3044.20903	12746
3046.61118	12730.6
3049.01187	12704.2
3051.4111	12656.2
3053.80888	12643.7
3056.20519	12624.6
3058.60005	12581.2
3060.99345	12572.6
3063.3854	12528.8
3065.7759	12504.8
3068.16494	12489.1
3070.55254	12423.9
3072.93868	12412
3075.32338	12348.5
3077.70662	12337.7
3080.08842	12306.9
3082.46878	12272.6
3084.84769	12252.4
3087.22515	12259.2
3089.60118	12261.9
3091.97576	12248.6
3094.3489	12235.2
3096.72061	12233.6
3099.09087	12205.7
3101.4597	12172.2
3103.82709	12177
3106.19305	12179.3
3108.55757	12149
3110.92066	12103.2
3113.28232	12074.4
3115.64255	12013.3
3118.00134	11995.4
3120.35871	11981
3122.71466	11983.6
3125.06917	11924.1
3127.42226	11917.7
3129.77393	11917.3
3132.12417	11895.7
3134.47299	11897.4
3136.82039	11885
3139.16636	11888.3
3141.51092	11854.5
3143.85406	11873.6
3146.19579	11877.5
3148.53609	11890.3
3150.87499	11895.8
3153.21246	11900.2
3155.54853	11888.2
3157.88318	11871
3160.21642	11863.6
3162.54826	11854.6
3164.87868	11832.9
3167.2077	11843.2
3169.5353	11854.8
3171.86151	11847
3174.18631	11829.5
3176.5097	11813.3
3178.83169	11784.8
3181.15228	11800.2
3183.47147	11740.8
3185.78926	11754.3
3188.10565	11744.4
3190.42065	11748.1
3192.73424	11729.5
3195.04645	11728.2
3197.35725	11704.3
3199.66667	11710.8
3201.97469	11731.4
3204.28132	11667.8
3206.58656	11695.6
3208.8904	11708.4
3211.19287	11705.6
3213.49394	11713.3
3215.79363	11725.8
3218.09193	11717.3
3220.38884	11682.3
3222.68438	11713.2
3224.97853	11669.6
3227.2713	11681.4
3229.56269	11638.8
3231.8527	11634.4
3234.14133	11626.3
3236.42858	11594.6
3238.71446	11601.8
3240.99896	11569.7
3243.28209	11572.7
3245.56384	11566.1
3247.84423	11547.3
3250.12324	11524.1
3252.40088	11536.8
3254.67715	11500.3
3256.95205	11481.2
3259.22558	11463.7
3261.49775	11439.3
3263.76855	11437.6
3266.03799	11406.6
3268.30606	11366.6
3270.57277	11367.8
3272.83812	11346.6
3275.10211	11306.7
3277.36474	11302.2
3279.62601	11292.6
3281.88593	11289.1
3284.14448	11285
3286.40168	11311.3
3288.65753	11249.3
3290.91202	11260.4
3293.16516	11229.4
3295.41695	11182.4
3297.66738	11111.6
3299.91647	11079.7
3302.16421	10997.4
3304.4106	10959.9
3306.65564	10877.4
3308.89933	10824.6
3311.14169	10780.1
3313.38269	10682.9
3315.62236	10620.5
3317.86068	10542.1
3320.09766	10426.1
3322.3333	10332.4
3324.5676	10336.7
3326.80056	10158.7
3329.03219	10106.3
3331.26248	3.7
3333.49143	-1
3335.71905	-2.5
