Data from AgNPs_FTO_APTES_UA_2uM_CRN_50uM_R6G_10uM_NaF_0.1M_Addition_RamanShift__1__14-37-25-229.txt Node

Date: Wed Feb 02 14:37:25 GMT 2022
User: TCL
Spectrometer: QEP01345
Trigger mode: 4
Integration Time (sec): 7.000000E0
Scans to average: 10
Electric dark correction enabled: true
Nonlinearity correction enabled: false
Boxcar width: 0
XAxis mode: Raman Shifts
Number of Pixels in Spectrum: 1044
>>>>>Begin Spectral Data<<<<<
46.04893	0.625
50.45542	-0.375
54.85868	-2.275
59.25871	-0.075
63.6555	98.825
68.04907	104.325
72.43941	110.125
76.82654	114.525
81.21044	119.625
85.59113	126.825
89.96862	127.525
94.34289	126.525
98.71396	137.625
103.08183	143.625
107.4465	145.425
111.80798	148.925
116.16626	150.125
120.52136	157.925
124.87327	164.925
129.222	166.925
133.56755	182.825
137.90993	190.725
142.24913	216.825
146.58517	241.425
150.91804	278.625
155.24774	332.525
159.57429	409.625
163.89768	520.425
168.21792	699.225
172.53501	950.525
176.84895	1325.125
181.15975	1855.225
185.46741	2593.425
189.77193	3569.525
194.07331	4779.825
198.37157	6169.225
202.6667	7617.625
206.9587	9040.425
211.24758	10439.125
215.53334	11872.525
219.81599	13424.425
224.09553	15122.525
228.37195	16964.425
232.64527	18968.125
236.91549	21008.725
241.18261	23060.025
245.44663	24981.025
249.70755	26669.925
253.96539	28115.025
258.22014	29383.525
262.4718	30502.925
266.72039	31212.325
270.96589	31653.425
275.20832	31644.825
279.44768	31483.025
283.68397	31235.425
287.91719	30982.325
292.14735	30890.025
296.37445	30912.825
300.59849	31129.225
304.81948	31338.325
309.03742	31385.125
313.25231	31137.425
317.46415	30603.125
321.67296	29769.725
325.87872	29117.325
330.08145	28703.125
334.28114	28630.425
338.47781	28734.725
342.67145	29066.625
346.86207	29525.325
351.04966	30079.225
355.23424	30653.925
359.4158	31222.225
363.59435	31606.425
367.76989	31916.925
371.94243	32086.825
376.11196	32198.925
380.27849	32262.325
384.44203	32405.625
388.60257	32673.625
392.76012	33008.925
396.91468	33446.625
401.06626	34035.225
405.21485	34380.925
409.36047	34242.025
413.50311	33861.125
417.64277	33658.625
421.77947	33667.325
425.9132	33735.725
430.04396	33923.525
434.17176	34082.525
438.2966	34289.625
442.41849	34920.225
446.53742	36076.125
450.6534	37394.525
454.76644	38268.725
458.87653	38428.225
462.98368	38023.225
467.08789	37431.625
471.18916	36793.625
475.2875	36237.725
479.38291	36001.825
483.4754	35818.325
487.56496	35447.525
491.6516	34787.025
495.73531	34127.725
499.81612	33673.225
503.89401	33747.625
507.96899	33752.925
512.04106	33639.225
516.11023	33327.925
520.1765	32969.325
524.23987	32639.425
528.30034	32380.125
532.35792	32101.625
536.41261	31701.225
540.46441	31309.525
544.51333	31255.725
548.55936	31596.625
552.60252	32404.125
556.64279	33389.525
560.6802	34223.625
564.71473	34666.925
568.7464	35389.725
572.7752	36573.125
576.80114	37594.825
580.82422	38615.325
584.84444	40017.425
588.86181	41808.725
592.87633	43315.725
596.888	42973.525
600.89682	40979.725
604.9028	40420.925
608.90594	42918.025
612.90624	45890.725
616.90371	43025.725
620.89834	36109.225
624.89015	32959.525
628.87913	32504.925
632.86528	32575.825
636.84862	32382.825
640.82913	31674.825
644.80683	30946.425
648.78172	30418.225
652.75379	30458.825
656.72306	30821.725
660.68952	31328.825
664.65319	31097.425
668.61405	30434.025
672.57211	30323.725
676.52738	30489.125
680.47986	30504.725
684.42955	30252.725
688.37646	30086.125
692.32058	30286.225
696.26192	30835.425
700.20048	31372.925
704.13626	31695.125
708.06928	31697.925
711.99952	31507.925
715.927	31554.625
719.85171	31744.625
723.77365	31693.325
727.69284	31144.125
731.60928	30660.825
735.52295	30456.725
739.43388	30430.825
743.34206	30544.825
747.24749	30757.025
751.15017	31127.525
755.05012	31730.125
758.94733	32797.925
762.8418	34481.325
766.73354	36873.025
770.62254	39055.825
774.50882	39273.525
778.39237	37420.925
782.27321	34808.525
786.15132	32680.725
790.02671	31369.125
793.89938	30782.025
797.76935	30537.225
801.6366	30444.525
805.50115	30428.025
809.36299	30297.625
813.22213	30033.025
817.07857	29895.025
820.93231	29695.725
824.78336	29544.525
828.63172	29463.325
832.47738	29448.525
836.32036	29514.125
840.16066	29676.925
843.99827	29712.725
847.8332	29612.225
851.66546	29429.625
855.49504	29457.425
859.32195	29435.825
863.1462	29316.925
866.96777	29197.425
870.78668	29080.725
874.60293	29054.725
878.41652	29108.625
882.22745	29233.425
886.03573	29309.025
889.84136	29292.325
893.64433	29154.425
897.44466	28978.225
901.24235	28977.925
905.0374	28867.325
908.8298	28857.225
912.61957	28932.425
916.40671	29182.825
920.19121	29700.625
923.97308	30171.625
927.75233	30301.425
931.52895	30059.525
935.30295	29504.825
939.07433	28941.725
942.84309	28508.025
946.60924	28288.425
950.37278	28246.225
954.13371	28203.625
957.89203	28136.225
961.64774	28121.425
965.40086	28206.125
969.15137	28091.925
972.89929	27965.025
976.64461	27901.725
980.38733	27903.025
984.12747	28019.125
987.86502	28269.025
991.59999	28542.825
995.33237	29077.925
999.06217	29881.925
1002.78939	30823.725
1006.51404	31483.125
1010.23611	31930.225
1013.95561	32214.525
1017.67255	32250.725
1021.38692	31859.725
1025.09872	31396.925
1028.80796	31407.525
1032.51465	32180.025
1036.21877	33078.925
1039.92035	33347.925
1043.61937	33063.425
1047.31584	32348.125
1051.00976	31590.625
1054.70114	31164.725
1058.38998	31082.625
1062.07627	31167.825
1065.76003	31397.225
1069.44126	31689.425
1073.11995	32201.625
1076.79611	32653.925
1080.46974	32807.225
1084.14085	33183.425
1087.80943	33585.325
1091.47549	33886.825
1095.13903	33910.025
1098.80005	33416.725
1102.45857	32616.725
1106.11456	32003.025
1109.76805	31765.625
1113.41903	31778.125
1117.06751	31977.925
1120.71348	32286.325
1124.35696	32689.125
1127.99793	33098.225
1131.63641	33388.425
1135.2724	33217.025
1138.90589	33142.925
1142.5369	33235.725
1146.16542	33556.225
1149.79145	33931.625
1153.415	34454.125
1157.03607	35072.525
1160.65467	36381.825
1164.27079	38354.425
1167.88443	40687.025
1171.49561	43113.225
1175.10432	46057.625
1178.71056	49985.925
1182.31434	53550.425
1185.91565	55040.125
1189.51451	54401.025
1193.11091	52646.225
1196.70485	50648.425
1200.29634	48833.025
1203.88538	47586.225
1207.47197	46942.925
1211.05612	46364.025
1214.63782	45426.825
1218.21708	44300.925
1221.79391	43191.125
1225.36829	42381.425
1228.94024	41725.025
1232.50976	40833.225
1236.07685	40006.725
1239.6415	39654.125
1243.20374	39730.625
1246.76355	40151.525
1250.32093	40899.225
1253.8759	41836.325
1257.42845	43105.125
1260.97859	44407.825
1264.52631	45765.525
1268.07163	47164.725
1271.61453	48692.425
1275.15503	50280.025
1278.69312	52002.225
1282.22882	53690.725
1285.76211	55770.625
1289.29301	58303.525
1292.82151	61334.225
1296.34761	65044.325
1299.87133	69509.425
1303.39266	74195.825
1306.9116	78271.325
1310.42815	81340.725
1313.94233	82812.025
1317.45412	81982.025
1320.96354	80106.425
1324.47058	78293.725
1327.97525	76913.525
1331.47754	76005.325
1334.97747	75168.725
1338.47502	74102.825
1341.97022	72346.625
1345.46305	70364.925
1348.95352	69006.425
1352.44163	69152.925
1355.92738	71228.725
1359.41078	74793.625
1362.89183	77690.025
1366.37053	76572.525
1369.84688	70515.825
1373.32088	62461.825
1376.79254	56962.025
1380.26186	55261.425
1383.72883	55648.225
1387.19347	55985.125
1390.65578	55600.425
1394.11575	55459.225
1397.57339	56261.625
1401.0287	57630.825
1404.48168	58641.325
1407.93234	58641.125
1411.38068	57349.925
1414.82669	55228.925
1418.27039	52715.625
1421.71177	50144.725
1425.15083	48030.125
1428.58758	46908.125
1432.02203	47388.325
1435.45416	48886.125
1438.88399	50750.525
1442.31151	52081.925
1445.73673	52920.025
1449.15965	53474.925
1452.58027	53645.225
1455.9986	53254.325
1459.41463	53132.025
1462.82837	53659.825
1466.23982	54646.525
1469.64898	55629.825
1473.05586	56390.325
1476.46045	56665.825
1479.86276	56362.025
1483.26279	55702.025
1486.66054	55288.025
1490.05602	55361.525
1493.44922	55768.925
1496.84016	56135.025
1500.22882	56717.125
1503.61521	57779.625
1506.99934	59274.825
1510.38121	60570.325
1513.76081	61091.925
1517.13816	60095.125
1520.51324	58318.825
1523.88607	56959.725
1527.25665	56574.425
1530.62498	56643.625
1533.99105	56460.425
1537.35488	55827.525
1540.71647	54563.825
1544.07581	52965.525
1547.4329	51353.025
1550.78776	49935.125
1554.14038	48930.525
1557.49077	48383.925
1560.83892	48023.425
1564.18484	47946.325
1567.52853	48066.125
1570.86999	48575.025
1574.20922	49639.425
1577.54624	50799.525
1580.88103	51486.525
1584.2136	52624.825
1587.54395	54935.025
1590.87208	58447.425
1594.19801	62520.125
1597.52172	65907.625
1600.84321	66351.525
1604.16251	62750.725
1607.47959	56699.425
1610.79447	50548.425
1614.10715	45436.525
1617.41763	41669.825
1620.7259	39386.525
1624.03199	38448.925
1627.33587	38802.825
1630.63757	40304.625
1633.93707	43376.025
1637.23439	48201.825
1640.52951	55153.825
1643.82246	63411.425
1647.11321	69822.325
1650.40179	70689.725
1653.68819	64690.625
1656.97241	54999.625
1660.25446	45897.725
1663.53433	39414.825
1666.81203	35300.025
1670.08756	32894.425
1673.36092	31352.125
1676.63211	30378.125
1679.90115	29667.725
1683.16801	29124.925
1686.43272	28746.625
1689.69527	28503.725
1692.95567	28279.025
1696.2139	28109.225
1699.46999	28051.725
1702.72392	27918.425
1705.97571	27845.025
1709.22535	27760.925
1712.47284	27724.825
1715.71819	27636.225
1718.96139	27560.925
1722.20246	27472.525
1725.44139	27369.625
1728.67818	27197.525
1731.91284	27062.925
1735.14537	26882.225
1738.37576	26828.925
1741.60403	26710.125
1744.83017	26624.825
1748.05418	26569.525
1751.27607	26544.325
1754.49584	26489.625
1757.71349	26461.825
1760.92903	26420.325
1764.14244	26409.625
1767.35375	26432.025
1770.56294	26358.925
1773.77002	26275.325
1776.97499	26211.525
1780.17785	26193.025
1783.37861	26193.425
1786.57727	26124.425
1789.77382	26061.725
1792.96828	26048.225
1796.16064	26021.725
1799.3509	25937.525
1802.53907	25935.725
1805.72514	25853.825
1808.90913	25823.925
1812.09102	25770.425
1815.27083	25708.525
1818.44856	25705.025
1821.6242	25681.625
1824.79776	25676.725
1827.96924	25662.525
1831.13864	25621.525
1834.30597	25655.325
1837.47122	25638.325
1840.6344	25684.025
1843.7955	25703.225
1846.95454	25667.925
1850.11151	25640.125
1853.26642	25685.325
1856.41926	25623.425
1859.57004	25580.025
1862.71876	25578.525
1865.86542	25550.925
1869.01003	25558.925
1872.15258	25552.425
1875.29308	25586.425
1878.43152	25538.425
1881.56792	25497.525
1884.70227	25470.425
1887.83457	25464.325
1890.96482	25446.725
1894.09304	25413.825
1897.21921	25399.325
1900.34335	25391.825
1903.46544	25364.625
1906.58551	25341.325
1909.70353	25300.025
1912.81953	25245.925
1915.93349	25183.025
1919.04543	25151.125
1922.15534	25106.925
1925.26322	25076.325
1928.36908	25066.425
1931.47292	24940.525
1934.57473	24913.725
1937.67453	24831.125
1940.77232	24755.925
1943.86808	24709.825
1946.96184	24686.425
1950.05358	24589.025
1953.14331	24551.825
1956.23103	24497.325
1959.31675	24421.725
1962.40046	24387.525
1965.48217	24301.125
1968.56188	24218.025
1971.63959	24155.825
1974.7153	24103.025
1977.78901	24040.125
1980.86073	23949.325
1983.93046	23897.225
1986.99819	23812.425
1990.06394	23822.625
1993.1277	23705.925
1996.18947	23621.925
1999.24925	23591.225
2002.30706	23502.825
2005.36288	23470.425
2008.41672	23440.025
2011.46859	23348.225
2014.51848	23265.525
2017.56639	23224.925
2020.61233	23181.625
2023.6563	23148.225
2026.6983	23124.125
2029.73833	23110.225
2032.7764	23031.225
2035.8125	23028.225
2038.84664	22948.125
2041.87881	22995.525
2044.90903	22971.925
2047.93729	22882.025
2050.96359	22895.525
2053.98794	22880.925
2057.01034	22871.325
2060.03078	22869.525
2063.04927	22841.125
2066.06582	22820.625
2069.08042	22825.825
2072.09307	22812.825
2075.10378	22803.525
2078.11255	22752.125
2081.11938	22746.325
2084.12426	22702.125
2087.12722	22710.925
2090.12824	22759.525
2093.12732	22761.125
2096.12447	22759.525
2099.11969	22791.725
2102.11299	22808.725
2105.10435	22834.925
2108.09379	22833.225
2111.08131	22857.925
2114.0669	22859.625
2117.05057	22901.325
2120.03233	22937.825
2123.01216	22926.525
2125.99008	22971.625
2128.96609	22974.125
2131.94018	22991.625
2134.91236	22996.125
2137.88263	22988.325
2140.851	23009.125
2143.81746	23088.025
2146.78201	23029.225
2149.74466	23085.925
2152.7054	23108.625
2155.66425	23116.525
2158.6212	23132.725
2161.57625	23099.225
2164.52941	23092.425
2167.48067	23071.925
2170.43004	23000.825
2173.37752	23024.825
2176.32311	23034.625
2179.26681	23102.625
2182.20863	23059.625
2185.14856	23128.625
2188.08661	23116.025
2191.02278	23119.125
2193.95707	23140.525
2196.88948	23130.125
2199.82001	23099.625
2202.74867	23088.225
2205.67545	23106.825
2208.60037	23094.225
2211.52341	23004.625
2214.44458	23018.125
2217.36388	23021.325
2220.28132	22995.325
2223.1969	22930.925
2226.11061	22936.325
2229.02246	22888.225
2231.93245	22834.225
2234.84058	22841.625
2237.74686	22797.925
2240.65128	22791.725
2243.55385	22799.425
2246.45456	22769.925
2249.35343	22701.825
2252.25044	22670.125
2255.14561	22659.225
2258.03893	22627.525
2260.93041	22607.325
2263.82004	22512.425
2266.70783	22490.625
2269.59378	22413.725
2272.4779	22370.425
2275.36017	22327.425
2278.24061	22291.825
2281.11922	22267.425
2283.996	22212.725
2286.87094	22237.125
2289.74405	22189.425
2292.61534	22196.325
2295.4848	22192.625
2298.35243	22213.825
2301.21824	22238.625
2304.08223	22218.025
2306.94439	22275.925
2309.80474	22265.325
2312.66327	22299.625
2315.51999	22265.525
2318.37489	22256.625
2321.22797	22205.225
2324.07925	22204.325
2326.92871	22194.225
2329.77637	22178.725
2332.62222	22192.025
2335.46626	22196.825
2338.3085	22192.025
2341.14893	22184.125
2343.98756	22150.425
2346.8244	22212.525
2349.65943	22166.425
2352.49267	22149.025
2355.32411	22177.925
2358.15376	22138.125
2360.98161	22125.425
2363.80768	22101.825
2366.63195	22082.325
2369.45444	22065.925
2372.27514	22007.625
2375.09405	21991.925
2377.91118	21969.025
2380.72652	21895.825
2383.54009	21948.625
2386.35187	21931.025
2389.16188	21864.825
2391.97011	21824.325
2394.77657	21825.925
2397.58125	21830.725
2400.38416	21789.625
2403.18529	21745.525
2405.98466	21720.725
2408.78226	21721.825
2411.57809	21679.425
2414.37216	21698.425
2417.16446	21693.225
2419.955	21618.625
2422.74378	21643.425
2425.5308	21605.225
2428.31606	21591.025
2431.09956	21577.225
2433.88131	21563.925
2436.6613	21573.025
2439.43954	21563.125
2442.21603	21594.825
2444.99077	21531.725
2447.76377	21562.525
2450.53501	21594.425
2453.30451	21572.225
2456.07226	21584.225
2458.83827	21587.125
2461.60254	21572.525
2464.36507	21646.325
2467.12586	21597.125
2469.88492	21584.325
2472.64224	21581.425
2475.39782	21635.825
2478.15167	21643.825
2480.90379	21652.125
2483.65417	21647.225
2486.40283	21655.825
2489.14976	21712.825
2491.89497	21646.425
2494.63845	21700.425
2497.3802	21656.425
2500.12024	21681.925
2502.85855	21671.025
2505.59514	21692.625
2508.33002	21689.925
2511.06318	21680.525
2513.79462	21675.225
2516.52435	21640.825
2519.25237	21629.325
2521.97867	21634.625
2524.70327	21664.325
2527.42616	21587.125
2530.14734	21619.825
2532.86681	21629.025
2535.58458	21601.325
2538.30065	21533.125
2541.01501	21574.925
2543.72768	21518.125
2546.43864	21539.225
2549.14791	21523.325
2551.85548	21501.925
2554.56136	21510.025
2557.26554	21511.025
2559.96803	21480.625
2562.66883	21508.525
2565.36794	21540.225
2568.06536	21538.225
2570.7611	21517.025
2573.45514	21485.425
2576.14751	21483.825
2578.83819	21490.325
2581.52719	21450.925
2584.21451	21492.825
2586.90015	21475.325
2589.58411	21452.425
2592.2664	21464.125
2594.94701	21404.625
2597.62594	21442.625
2600.30321	21381.925
2602.9788	21396.325
2605.65273	21361.625
2608.32498	21404.425
2610.99557	21436.725
2613.66449	21455.025
2616.33175	21413.025
2618.99734	21442.925
2621.66128	21396.925
2624.32355	21437.225
2626.98416	21404.225
2629.64311	21406.525
2632.30041	21404.925
2634.95605	21414.125
2637.61004	21381.725
2640.26238	21341.125
2642.91306	21351.925
2645.56209	21349.225
2648.20948	21336.325
2650.85521	21326.525
2653.4993	21329.125
2656.14175	21336.025
2658.78255	21374.125
2661.42171	21369.825
2664.05923	21415.425
2666.6951	21455.025
2669.32934	21473.525
2671.96194	21475.825
2674.59291	21465.925
2677.22224	21406.725
2679.84993	21484.125
2682.476	21421.325
2685.10043	21459.125
2687.72324	21402.925
2690.34441	21438.525
2692.96396	21429.325
2695.58188	21437.825
2698.19818	21427.225
2700.81285	21462.425
2703.4259	21437.825
2706.03733	21529.325
2708.64714	21529.825
2711.25533	21566.325
2713.86191	21532.525
2716.46687	21607.225
2719.07021	21587.725
2721.67194	21626.625
2724.27206	21603.325
2726.87057	21671.525
2729.46747	21688.025
2732.06276	21693.425
2734.65644	21664.025
2737.24852	21650.725
2739.83899	21659.725
2742.42786	21637.425
2745.01513	21563.225
2747.60079	21614.725
2750.18486	21590.325
2752.76733	21615.925
2755.3482	21660.625
2757.92747	21664.225
2760.50515	21675.325
2763.08123	21709.225
2765.65573	21680.925
2768.22863	21658.625
2770.79994	21619.725
2773.36967	21639.325
2775.9378	21628.525
2778.50435	21617.425
2781.06932	21589.625
2783.6327	21619.425
2786.1945	21621.625
2788.75471	21588.125
2791.31335	21589.525
2793.87041	21578.325
2796.42589	21564.925
2798.97979	21553.925
2801.53212	21465.625
2804.08288	21484.725
2806.63206	21451.125
2809.17967	21392.925
2811.72571	21367.025
2814.27018	21375.925
2816.81308	21310.725
2819.35442	21298.325
2821.89419	21264.125
2824.43239	21271.325
2826.96904	21265.825
2829.50412	21237.025
2832.03763	21214.925
2834.56959	21239.625
2837.1	21226.325
2839.62884	21195.125
2842.15613	21199.425
2844.68186	21196.225
2847.20604	21265.025
2849.72867	21241.525
2852.24974	21217.325
2854.76927	21239.425
2857.28724	21248.125
2859.80367	21172.125
2862.31855	21141.325
2864.83189	21145.825
2867.34368	21131.025
2869.85393	21140.925
2872.36264	21137.125
2874.8698	21142.925
2877.37543	21183.825
2879.87952	21141.425
2882.38207	21166.025
2884.88308	21136.125
2887.38256	21187.325
2889.88051	21185.125
2892.37692	21199.825
2894.8718	21230.825
2897.36515	21255.225
2899.85698	21218.325
2902.34727	21304.925
2904.83604	21279.925
2907.32328	21334.425
2909.809	21323.025
2912.29319	21313.325
2914.77587	21298.325
2917.25702	21296.425
2919.73665	21309.525
2922.21476	21283.925
2924.69136	21297.825
2927.16644	21334.825
2929.64	21330.725
2932.11205	21333.925
2934.58258	21288.725
2937.05161	21274.425
2939.51912	21301.825
2941.98513	21279.225
2944.44962	21187.525
2946.91261	21127.725
2949.37409	21200.925
2951.83407	21164.225
2954.29254	21172.225
2956.74951	21126.525
2959.20498	21165.525
2961.65895	21141.025
2964.11142	21093.425
2966.56239	21082.825
2969.01186	21079.625
2971.45984	21026.925
2973.90632	20989.425
2976.35131	20948.225
2978.7948	20913.225
2981.23681	20894.225
2983.67732	20837.125
2986.11635	20815.625
2988.55388	20769.125
2990.98993	20751.525
2993.4245	20696.625
2995.85758	20668.825
2998.28917	20623.825
3000.71928	20578.925
3003.14791	20592.325
3005.57506	20537.925
3008.00073	20500.125
3010.42493	20480.025
3012.84764	20452.025
3015.26888	20417.825
3017.68865	20413.625
3020.10694	20374.425
3022.52376	20341.525
3024.9391	20317.125
3027.35298	20262.025
3029.76539	20254.225
3032.17632	20297.725
3034.5858	20245.825
3036.9938	20268.225
3039.40034	20253.625
3041.80542	20218.425
3044.20903	20184.325
3046.61118	20186.925
3049.01187	20112.725
3051.4111	20097.225
3053.80888	20074.925
3056.20519	20018.525
3058.60005	19969.425
3060.99345	19938.525
3063.3854	19910.425
3065.7759	19879.625
3068.16494	19829.825
3070.55254	19769.825
3072.93868	19739.725
3075.32338	19673.725
3077.70662	19666.525
3080.08842	19634.425
3082.46878	19612.225
3084.84769	19559.925
3087.22515	19591.625
3089.60118	19611.225
3091.97576	19595.525
3094.3489	19581.825
3096.72061	19572.625
3099.09087	19572.425
3101.4597	19531.125
3103.82709	19510.225
3106.19305	19495.025
3108.55757	19458.325
3110.92066	19419.225
3113.28232	19358.125
3115.64255	19326.325
3118.00134	19281.925
3120.35871	19247.925
3122.71466	19266.625
3125.06917	19282.725
3127.42226	19218.225
3129.77393	19188.625
3132.12417	19197.125
3134.47299	19178.025
3136.82039	19150.725
3139.16636	19181.725
3141.51092	19152.225
3143.85406	19175.625
3146.19579	19185.625
3148.53609	19145.725
3150.87499	19212.225
3153.21246	19157.925
3155.54853	19197.225
3157.88318	19153.725
3160.21642	19179.525
3162.54826	19138.525
3164.87868	19128.925
3167.2077	19167.825
3169.5353	19159.325
3171.86151	19139.725
3174.18631	19075.725
3176.5097	19087.425
3178.83169	19099.225
3181.15228	19057.625
3183.47147	19025.925
3185.78926	18997.225
3188.10565	19000.925
3190.42065	18990.125
3192.73424	19040.525
3195.04645	18997.725
3197.35725	18988.525
3199.66667	18977.425
3201.97469	18964.525
3204.28132	18935.125
3206.58656	18980.225
3208.8904	18995.525
3211.19287	18999.225
3213.49394	18988.225
3215.79363	18992.325
3218.09193	18993.025
3220.38884	18971.025
3222.68438	18986.725
3224.97853	18968.825
3227.2713	18946.425
3229.56269	18912.925
3231.8527	18919.925
3234.14133	18904.925
3236.42858	18891.525
3238.71446	18857.225
3240.99896	18839.125
3243.28209	18834.225
3245.56384	18824.525
3247.84423	18832.225
3250.12324	18816.325
3252.40088	18793.425
3254.67715	18782.025
3256.95205	18751.825
3259.22558	18717.425
3261.49775	18719.825
3263.76855	18678.725
3266.03799	18664.925
3268.30606	18617.825
3270.57277	18603.525
3272.83812	18589.225
3275.10211	18536.025
3277.36474	18524.725
3279.62601	18535.225
3281.88593	18485.625
3284.14448	18551.625
3286.40168	18549.325
3288.65753	18487.825
3290.91202	18499.325
3293.16516	18437.525
3295.41695	18373.125
3297.66738	18298.325
3299.91647	18216.825
3302.16421	18102.025
3304.4106	18026.725
3306.65564	17926.225
3308.89933	17873.025
3311.14169	17743.225
3313.38269	17647.525
3315.62236	17558.525
3317.86068	17399.925
3320.09766	17221.425
3322.3333	17085.925
3324.5676	17085.325
3326.80056	16797.525
3329.03219	16760.025
3331.26248	2.825
3333.49143	-0.175
3335.71905	-0.575
