Data from AgNPs_FTO_APTES_UA_2uM_CRN_100uM_R6G_10uM_NaF_0.1M_Addition_RamanShift__0__15-38-05-300.txt Node

Date: Wed Feb 02 15:38:05 GMT 2022
User: TCL
Spectrometer: QEP01345
Trigger mode: 4
Integration Time (sec): 7.000000E0
Scans to average: 10
Electric dark correction enabled: true
Nonlinearity correction enabled: false
Boxcar width: 0
XAxis mode: Raman Shifts
Number of Pixels in Spectrum: 1044
>>>>>Begin Spectral Data<<<<<
46.04893	-0.5125
50.45542	1.0875
54.85868	0.2875
59.25871	-0.3125
63.6555	21.4875
68.04907	22.1875
72.43941	20.5875
76.82654	25.0875
81.21044	28.5875
85.59113	30.8875
89.96862	30.0875
94.34289	28.5875
98.71396	29.3875
103.08183	35.7875
107.4465	33.6875
111.80798	38.3875
116.16626	33.8875
120.52136	37.2875
124.87327	35.9875
129.222	35.3875
133.56755	42.0875
137.90993	44.1875
142.24913	51.1875
146.58517	57.7875
150.91804	66.3875
155.24774	82.0875
159.57429	98.0875
163.89768	126.2875
168.21792	168.8875
172.53501	231.1875
176.84895	326.5875
181.15975	456.7875
185.46741	642.6875
189.77193	877.7875
194.07331	1189.6875
198.37157	1518.8875
202.6667	1895.2875
206.9587	2260.3875
211.24758	2609.0875
215.53334	2973.6875
219.81599	3352.3875
224.09553	3769.8875
228.37195	4235.4875
232.64527	4732.1875
236.91549	5247.6875
241.18261	5745.5875
245.44663	6232.8875
249.70755	6649.0875
253.96539	6974.4875
258.22014	7247.9875
262.4718	7500.5875
266.72039	7653.0875
270.96589	7769.6875
275.20832	7753.4875
279.44768	7731.3875
283.68397	7697.8875
287.91719	7666.4875
292.14735	7679.2875
296.37445	7686.8875
300.59849	7807.0875
304.81948	7879.0875
309.03742	7914.0875
313.25231	7844.6875
317.46415	7650.9875
321.67296	7341.3875
325.87872	7086.5875
330.08145	6944.7875
334.28114	6887.3875
338.47781	6938.5875
342.67145	7016.0875
346.86207	7118.2875
351.04966	7265.9875
355.23424	7387.7875
359.4158	7488.5875
363.59435	7548.2875
367.76989	7574.2875
371.94243	7563.1875
376.11196	7562.4875
380.27849	7548.9875
384.44203	7537.9875
388.60257	7581.2875
392.76012	7687.6875
396.91468	7837.8875
401.06626	8007.8875
405.21485	8100.1875
409.36047	8069.2875
413.50311	7892.2875
417.64277	7781.3875
421.77947	7706.8875
425.9132	7687.5875
430.04396	7726.4875
434.17176	7721.7875
438.2966	7770.4875
442.41849	7815.5875
446.53742	8000.0875
450.6534	8195.8875
454.76644	8321.2875
458.87653	8370.0875
462.98368	8391.0875
467.08789	8365.9875
471.18916	8297.9875
475.2875	8281.3875
479.38291	8250.4875
483.4754	8249.1875
487.56496	8163.2875
491.6516	8010.7875
495.73531	7834.2875
499.81612	7727.9875
503.89401	7711.1875
507.96899	7732.8875
512.04106	7752.5875
516.11023	7721.5875
520.1765	7640.8875
524.23987	7538.5875
528.30034	7437.5875
532.35792	7327.6875
536.41261	7234.4875
540.46441	7149.5875
544.51333	7163.6875
548.55936	7290.2875
552.60252	7482.7875
556.64279	7692.8875
560.6802	7835.0875
564.71473	7975.3875
568.7464	8189.2875
572.7752	8521.0875
576.80114	8833.1875
580.82422	9116.9875
584.84444	9330.3875
588.86181	9494.3875
592.87633	9562.0875
596.888	9415.2875
600.89682	9102.9875
604.9028	9094.2875
608.90594	9709.4875
612.90624	10533.7875
616.90371	9905.6875
620.89834	8163.8875
624.89015	7355.4875
628.87913	7265.1875
632.86528	7355.2875
636.84862	7406.1875
640.82913	7308.5875
644.80683	7101.8875
648.78172	6930.0875
652.75379	6913.1875
656.72306	7003.6875
660.68952	7116.2875
664.65319	7088.8875
668.61405	6962.7875
672.57211	6910.7875
676.52738	6920.1875
680.47986	6947.7875
684.42955	6875.5875
688.37646	6837.4875
692.32058	6861.1875
696.26192	6928.5875
700.20048	7024.3875
704.13626	7117.6875
708.06928	7175.6875
711.99952	7165.4875
715.927	7154.1875
719.85171	7125.6875
723.77365	7066.8875
727.69284	6939.7875
731.60928	6840.3875
735.52295	6791.0875
739.43388	6762.2875
743.34206	6771.9875
747.24749	6822.8875
751.15017	6909.9875
755.05012	7064.5875
758.94733	7315.0875
762.8418	7756.2875
766.73354	8488.1875
770.62254	9148.8875
774.50882	9232.5875
778.39237	8736.8875
782.27321	8016.1875
786.15132	7408.7875
790.02671	7017.0875
793.89938	6819.9875
797.76935	6742.8875
801.6366	6707.6875
805.50115	6678.9875
809.36299	6630.4875
813.22213	6629.7875
817.07857	6605.2875
820.93231	6603.4875
824.78336	6565.3875
828.63172	6525.0875
832.47738	6499.1875
836.32036	6475.4875
840.16066	6482.9875
843.99827	6467.1875
847.8332	6467.3875
851.66546	6439.6875
855.49504	6440.0875
859.32195	6421.5875
863.1462	6411.1875
866.96777	6396.8875
870.78668	6391.9875
874.60293	6385.1875
878.41652	6392.0875
882.22745	6403.0875
886.03573	6417.0875
889.84136	6415.7875
893.64433	6404.0875
897.44466	6377.6875
901.24235	6394.0875
905.0374	6352.5875
908.8298	6346.9875
912.61957	6371.3875
916.40671	6470.3875
920.19121	6563.8875
923.97308	6663.5875
927.75233	6621.1875
931.52895	6567.8875
935.30295	6433.7875
939.07433	6291.5875
942.84309	6154.5875
946.60924	6072.7875
950.37278	6042.1875
954.13371	6034.2875
957.89203	6042.1875
961.64774	6045.4875
965.40086	6046.5875
969.15137	6033.7875
972.89929	5986.8875
976.64461	5964.6875
980.38733	5939.5875
984.12747	5934.7875
987.86502	5949.4875
991.59999	5985.3875
995.33237	6023.8875
999.06217	6083.1875
1002.78939	6150.6875
1006.51404	6246.4875
1010.23611	6326.0875
1013.95561	6402.6875
1017.67255	6423.9875
1021.38692	6387.4875
1025.09872	6296.9875
1028.80796	6243.0875
1032.51465	6215.9875
1036.21877	6275.0875
1039.92035	6311.2875
1043.61937	6377.2875
1047.31584	6401.1875
1051.00976	6400.7875
1054.70114	6437.2875
1058.38998	6518.3875
1062.07627	6621.6875
1065.76003	6728.8875
1069.44126	6857.7875
1073.11995	6983.7875
1076.79611	7053.5875
1080.46974	7081.4875
1084.14085	7089.2875
1087.80943	7151.8875
1091.47549	7264.2875
1095.13903	7296.2875
1098.80005	7200.8875
1102.45857	6966.3875
1106.11456	6773.0875
1109.76805	6655.7875
1113.41903	6619.7875
1117.06751	6685.2875
1120.71348	6789.9875
1124.35696	6889.7875
1127.99793	7048.8875
1131.63641	7119.2875
1135.2724	7033.2875
1138.90589	7019.8875
1142.5369	6993.4875
1146.16542	7039.8875
1149.79145	7131.9875
1153.415	7231.6875
1157.03607	7370.4875
1160.65467	7588.0875
1164.27079	7904.1875
1167.88443	8345.7875
1171.49561	8876.8875
1175.10432	9532.2875
1178.71056	10332.7875
1182.31434	10928.5875
1185.91565	11249.9875
1189.51451	11180.9875
1193.11091	10949.8875
1196.70485	10554.5875
1200.29634	10121.8875
1203.88538	9820.7875
1207.47197	9669.0875
1211.05612	9546.1875
1214.63782	9355.6875
1218.21708	9045.0875
1221.79391	8665.0875
1225.36829	8408.9875
1228.94024	8260.4875
1232.50976	8182.9875
1236.07685	8135.1875
1239.6415	8090.2875
1243.20374	8120.6875
1246.76355	8189.5875
1250.32093	8329.6875
1253.8759	8477.2875
1257.42845	8709.8875
1260.97859	8974.1875
1264.52631	9240.7875
1268.07163	9491.3875
1271.61453	9730.6875
1275.15503	10003.7875
1278.69312	10322.3875
1282.22882	10662.1875
1285.76211	11100.5875
1289.29301	11641.8875
1292.82151	12244.8875
1296.34761	12966.7875
1299.87133	13718.7875
1303.39266	14456.0875
1306.9116	15056.3875
1310.42815	15541.0875
1313.94233	15708.5875
1317.45412	15597.6875
1320.96354	15371.4875
1324.47058	15211.4875
1327.97525	15152.2875
1331.47754	15099.2875
1334.97747	15026.0875
1338.47502	14927.8875
1341.97022	14841.9875
1345.46305	14706.3875
1348.95352	14612.4875
1352.44163	14539.1875
1355.92738	14693.2875
1359.41078	15105.6875
1362.89183	15598.2875
1366.37053	15387.9875
1369.84688	14154.9875
1373.32088	12686.6875
1376.79254	11648.9875
1380.26186	11271.6875
1383.72883	11231.5875
1387.19347	11224.5875
1390.65578	11157.9875
1394.11575	11073.0875
1397.57339	11042.5875
1401.0287	11125.1875
1404.48168	11093.1875
1407.93234	10961.3875
1411.38068	10588.1875
1414.82669	10155.1875
1418.27039	9667.5875
1421.71177	9242.5875
1425.15083	8944.0875
1428.58758	8782.8875
1432.02203	8837.0875
1435.45416	9046.6875
1438.88399	9330.8875
1442.31151	9509.4875
1445.73673	9700.1875
1449.15965	9882.9875
1452.58027	10037.7875
1455.9986	10086.9875
1459.41463	10167.1875
1462.82837	10304.9875
1466.23982	10449.0875
1469.64898	10577.7875
1473.05586	10643.6875
1476.46045	10650.5875
1479.86276	10588.6875
1483.26279	10530.7875
1486.66054	10585.9875
1490.05602	10719.8875
1493.44922	10974.2875
1496.84016	11348.7875
1500.22882	11932.5875
1503.61521	12643.9875
1506.99934	13384.7875
1510.38121	13934.0875
1513.76081	14048.5875
1517.13816	13639.4875
1520.51324	12984.1875
1523.88607	12474.2875
1527.25665	12198.1875
1530.62498	12053.7875
1533.99105	11842.9875
1537.35488	11578.5875
1540.71647	11208.3875
1544.07581	10781.7875
1547.4329	10381.9875
1550.78776	10088.2875
1554.14038	9891.9875
1557.49077	9806.2875
1560.83892	9838.1875
1564.18484	9914.3875
1567.52853	10028.9875
1570.86999	10221.9875
1574.20922	10461.8875
1577.54624	10686.2875
1580.88103	10713.5875
1584.2136	10696.8875
1587.54395	10788.3875
1590.87208	11089.4875
1594.19801	11489.9875
1597.52172	11902.9875
1600.84321	11893.7875
1604.16251	11337.9875
1607.47959	10499.3875
1610.79447	9673.7875
1614.10715	8898.4875
1617.41763	8268.4875
1620.7259	7816.6875
1624.03199	7572.9875
1627.33587	7547.5875
1630.63757	7770.8875
1633.93707	8259.3875
1637.23439	9048.6875
1640.52951	10272.0875
1643.82246	11799.1875
1647.11321	13122.5875
1650.40179	13695.5875
1653.68819	13053.1875
1656.97241	11463.6875
1660.25446	9689.2875
1663.53433	8278.2875
1666.81203	7293.8875
1670.08756	6665.9875
1673.36092	6255.6875
1676.63211	5993.7875
1679.90115	5836.8875
1683.16801	5695.4875
1686.43272	5616.2875
1689.69527	5557.6875
1692.95567	5505.8875
1696.2139	5480.1875
1699.46999	5463.9875
1702.72392	5424.1875
1705.97571	5395.1875
1709.22535	5361.3875
1712.47284	5328.1875
1715.71819	5314.7875
1718.96139	5275.7875
1722.20246	5254.6875
1725.44139	5229.8875
1728.67818	5199.6875
1731.91284	5158.7875
1735.14537	5131.3875
1738.37576	5119.7875
1741.60403	5090.7875
1744.83017	5078.7875
1748.05418	5065.9875
1751.27607	5057.7875
1754.49584	5041.5875
1757.71349	5066.7875
1760.92903	5053.3875
1764.14244	5053.1875
1767.35375	5047.2875
1770.56294	5016.1875
1773.77002	4994.9875
1776.97499	4984.9875
1780.17785	4954.1875
1783.37861	4930.6875
1786.57727	4900.3875
1789.77382	4902.7875
1792.96828	4887.9875
1796.16064	4861.0875
1799.3509	4853.9875
1802.53907	4846.8875
1805.72514	4811.4875
1808.90913	4814.4875
1812.09102	4791.2875
1815.27083	4786.4875
1818.44856	4779.8875
1821.6242	4774.2875
1824.79776	4776.1875
1827.96924	4750.3875
1831.13864	4750.0875
1834.30597	4744.7875
1837.47122	4750.3875
1840.6344	4755.7875
1843.7955	4743.2875
1846.95454	4738.0875
1850.11151	4726.4875
1853.26642	4736.2875
1856.41926	4725.4875
1859.57004	4719.7875
1862.71876	4697.8875
1865.86542	4702.6875
1869.01003	4702.2875
1872.15258	4677.4875
1875.29308	4669.8875
1878.43152	4674.8875
1881.56792	4655.6875
1884.70227	4653.8875
1887.83457	4648.2875
1890.96482	4641.7875
1894.09304	4629.9875
1897.21921	4627.4875
1900.34335	4613.7875
1903.46544	4615.3875
1906.58551	4606.2875
1909.70353	4590.1875
1912.81953	4580.6875
1915.93349	4578.9875
1919.04543	4563.5875
1922.15534	4550.1875
1925.26322	4552.7875
1928.36908	4523.7875
1931.47292	4522.7875
1934.57473	4508.4875
1937.67453	4489.3875
1940.77232	4459.4875
1943.86808	4475.6875
1946.96184	4456.1875
1950.05358	4448.0875
1953.14331	4430.7875
1956.23103	4425.0875
1959.31675	4389.8875
1962.40046	4407.4875
1965.48217	4365.6875
1968.56188	4355.6875
1971.63959	4350.4875
1974.7153	4337.2875
1977.78901	4318.4875
1980.86073	4295.6875
1983.93046	4286.9875
1986.99819	4261.0875
1990.06394	4267.7875
1993.1277	4248.1875
1996.18947	4214.2875
1999.24925	4222.0875
2002.30706	4196.5875
2005.36288	4191.7875
2008.41672	4168.5875
2011.46859	4154.3875
2014.51848	4141.4875
2017.56639	4134.5875
2020.61233	4117.5875
2023.6563	4115.0875
2026.6983	4092.1875
2029.73833	4081.8875
2032.7764	4076.5875
2035.8125	4079.6875
2038.84664	4040.5875
2041.87881	4067.4875
2044.90903	4047.4875
2047.93729	4039.2875
2050.96359	4045.2875
2053.98794	4037.0875
2057.01034	4013.7875
2060.03078	4014.0875
2063.04927	4011.7875
2066.06582	4016.1875
2069.08042	4003.0875
2072.09307	3998.7875
2075.10378	4001.2875
2078.11255	3993.2875
2081.11938	3980.9875
2084.12426	3979.7875
2087.12722	3997.0875
2090.12824	3978.1875
2093.12732	3986.5875
2096.12447	3986.7875
2099.11969	3986.9875
2102.11299	3989.6875
2105.10435	3994.7875
2108.09379	3993.7875
2111.08131	3980.5875
2114.0669	3990.3875
2117.05057	3979.1875
2120.03233	3987.3875
2123.01216	3999.0875
2125.99008	4002.2875
2128.96609	3997.7875
2131.94018	3986.8875
2134.91236	3994.6875
2137.88263	3984.3875
2140.851	3991.6875
2143.81746	3993.0875
2146.78201	3990.9875
2149.74466	3992.8875
2152.7054	4001.9875
2155.66425	3980.6875
2158.6212	3988.3875
2161.57625	3982.6875
2164.52941	3981.6875
2167.48067	3975.3875
2170.43004	3969.2875
2173.37752	3969.0875
2176.32311	3966.1875
2179.26681	3968.2875
2182.20863	3948.2875
2185.14856	3970.5875
2188.08661	3972.7875
2191.02278	3960.9875
2193.95707	3944.8875
2196.88948	3955.3875
2199.82001	3943.7875
2202.74867	3935.5875
2205.67545	3944.1875
2208.60037	3914.0875
2211.52341	3919.2875
2214.44458	3908.4875
2217.36388	3894.5875
2220.28132	3899.4875
2223.1969	3873.2875
2226.11061	3881.5875
2229.02246	3867.9875
2231.93245	3860.4875
2234.84058	3853.8875
2237.74686	3838.0875
2240.65128	3847.3875
2243.55385	3833.8875
2246.45456	3842.0875
2249.35343	3834.0875
2252.25044	3809.7875
2255.14561	3811.9875
2258.03893	3816.0875
2260.93041	3803.8875
2263.82004	3802.6875
2266.70783	3785.3875
2269.59378	3778.3875
2272.4779	3762.8875
2275.36017	3743.7875
2278.24061	3741.3875
2281.11922	3735.2875
2283.996	3725.4875
2286.87094	3720.6875
2289.74405	3698.5875
2292.61534	3712.4875
2295.4848	3697.4875
2298.35243	3704.8875
2301.21824	3692.1875
2304.08223	3704.6875
2306.94439	3691.9875
2309.80474	3679.0875
2312.66327	3687.4875
2315.51999	3670.4875
2318.37489	3679.6875
2321.22797	3673.2875
2324.07925	3675.3875
2326.92871	3667.8875
2329.77637	3640.7875
2332.62222	3644.4875
2335.46626	3655.8875
2338.3085	3635.2875
2341.14893	3635.9875
2343.98756	3631.4875
2346.8244	3645.6875
2349.65943	3645.0875
2352.49267	3636.5875
2355.32411	3630.2875
2358.15376	3618.9875
2360.98161	3632.2875
2363.80768	3619.7875
2366.63195	3622.2875
2369.45444	3625.4875
2372.27514	3619.3875
2375.09405	3620.3875
2377.91118	3604.4875
2380.72652	3603.8875
2383.54009	3566.8875
2386.35187	3588.7875
2389.16188	3581.2875
2391.97011	3564.2875
2394.77657	3556.4875
2397.58125	3539.1875
2400.38416	3534.5875
2403.18529	3529.3875
2405.98466	3542.7875
2408.78226	3522.5875
2411.57809	3527.6875
2414.37216	3528.3875
2417.16446	3518.3875
2419.955	3499.0875
2422.74378	3517.7875
2425.5308	3503.8875
2428.31606	3510.2875
2431.09956	3500.9875
2433.88131	3492.0875
2436.6613	3501.8875
2439.43954	3499.8875
2442.21603	3503.6875
2444.99077	3506.0875
2447.76377	3485.3875
2450.53501	3500.1875
2453.30451	3489.4875
2456.07226	3474.0875
2458.83827	3491.2875
2461.60254	3470.2875
2464.36507	3474.6875
2467.12586	3467.0875
2469.88492	3461.4875
2472.64224	3481.6875
2475.39782	3481.6875
2478.15167	3479.9875
2480.90379	3453.8875
2483.65417	3475.0875
2486.40283	3466.5875
2489.14976	3464.7875
2491.89497	3464.3875
2494.63845	3475.0875
2497.3802	3465.9875
2500.12024	3459.0875
2502.85855	3469.4875
2505.59514	3450.1875
2508.33002	3456.4875
2511.06318	3447.8875
2513.79462	3440.6875
2516.52435	3446.9875
2519.25237	3432.8875
2521.97867	3417.1875
2524.70327	3426.3875
2527.42616	3416.0875
2530.14734	3425.8875
2532.86681	3411.6875
2535.58458	3409.0875
2538.30065	3413.7875
2541.01501	3408.1875
2543.72768	3392.4875
2546.43864	3395.1875
2549.14791	3383.0875
2551.85548	3384.2875
2554.56136	3381.6875
2557.26554	3379.8875
2559.96803	3378.6875
2562.66883	3374.1875
2565.36794	3374.2875
2568.06536	3358.8875
2570.7611	3355.2875
2573.45514	3344.6875
2576.14751	3353.8875
2578.83819	3339.7875
2581.52719	3332.4875
2584.21451	3330.7875
2586.90015	3331.7875
2589.58411	3325.2875
2592.2664	3323.0875
2594.94701	3312.4875
2597.62594	3325.4875
2600.30321	3303.2875
2602.9788	3306.3875
2605.65273	3300.8875
2608.32498	3315.7875
2610.99557	3302.1875
2613.66449	3310.4875
2616.33175	3309.8875
2618.99734	3303.6875
2621.66128	3299.6875
2624.32355	3289.5875
2626.98416	3287.1875
2629.64311	3297.1875
2632.30041	3287.5875
2634.95605	3285.4875
2637.61004	3281.0875
2640.26238	3266.4875
2642.91306	3283.9875
2645.56209	3271.4875
2648.20948	3268.1875
2650.85521	3269.5875
2653.4993	3265.8875
2656.14175	3262.5875
2658.78255	3265.5875
2661.42171	3268.1875
2664.05923	3291.2875
2666.6951	3279.7875
2669.32934	3286.1875
2671.96194	3271.4875
2674.59291	3275.5875
2677.22224	3278.6875
2679.84993	3277.9875
2682.476	3268.9875
2685.10043	3271.8875
2687.72324	3262.9875
2690.34441	3257.6875
2692.96396	3265.4875
2695.58188	3263.1875
2698.19818	3268.2875
2700.81285	3262.9875
2703.4259	3282.4875
2706.03733	3300.3875
2708.64714	3286.8875
2711.25533	3282.4875
2713.86191	3262.4875
2716.46687	3283.9875
2719.07021	3287.8875
2721.67194	3281.6875
2724.27206	3264.0875
2726.87057	3297.3875
2729.46747	3287.8875
2732.06276	3276.8875
2734.65644	3256.6875
2737.24852	3266.0875
2739.83899	3265.5875
2742.42786	3268.5875
2745.01513	3255.3875
2747.60079	3254.8875
2750.18486	3252.0875
2752.76733	3239.6875
2755.3482	3257.1875
2757.92747	3244.6875
2760.50515	3249.3875
2763.08123	3257.7875
2765.65573	3238.7875
2768.22863	3247.7875
2770.79994	3232.3875
2773.36967	3235.1875
2775.9378	3221.0875
2778.50435	3237.5875
2781.06932	3224.7875
2783.6327	3230.3875
2786.1945	3216.9875
2788.75471	3221.9875
2791.31335	3201.6875
2793.87041	3225.7875
2796.42589	3216.9875
2798.97979	3207.6875
2801.53212	3200.8875
2804.08288	3196.3875
2806.63206	3194.0875
2809.17967	3193.2875
2811.72571	3184.1875
2814.27018	3171.3875
2816.81308	3182.1875
2819.35442	3158.7875
2821.89419	3155.7875
2824.43239	3154.4875
2826.96904	3160.5875
2829.50412	3157.7875
2832.03763	3150.5875
2834.56959	3151.6875
2837.1	3144.6875
2839.62884	3164.4875
2842.15613	3159.0875
2844.68186	3165.3875
2847.20604	3164.1875
2849.72867	3184.9875
2852.24974	3189.9875
2854.76927	3185.0875
2857.28724	3181.5875
2859.80367	3172.5875
2862.31855	3171.7875
2864.83189	3157.2875
2867.34368	3158.0875
2869.85393	3160.0875
2872.36264	3150.1875
2874.8698	3165.4875
2877.37543	3153.4875
2879.87952	3157.4875
2882.38207	3153.4875
2884.88308	3140.1875
2887.38256	3143.1875
2889.88051	3132.8875
2892.37692	3142.7875
2894.8718	3140.3875
2897.36515	3138.0875
2899.85698	3135.1875
2902.34727	3152.1875
2904.83604	3147.5875
2907.32328	3147.2875
2909.809	3165.0875
2912.29319	3150.7875
2914.77587	3128.0875
2917.25702	3153.7875
2919.73665	3148.6875
2922.21476	3162.0875
2924.69136	3145.4875
2927.16644	3154.4875
2929.64	3159.0875
2932.11205	3154.7875
2934.58258	3136.6875
2937.05161	3133.4875
2939.51912	3136.3875
2941.98513	3130.3875
2944.44962	3113.1875
2946.91261	3091.1875
2949.37409	3096.6875
2951.83407	3089.9875
2954.29254	3097.5875
2956.74951	3080.4875
2959.20498	3077.6875
2961.65895	3059.0875
2964.11142	3058.0875
2966.56239	3051.6875
2969.01186	3056.5875
2971.45984	3047.6875
2973.90632	3038.2875
2976.35131	3022.7875
2978.7948	3020.4875
2981.23681	3016.3875
2983.67732	3004.6875
2986.11635	2996.3875
2988.55388	2998.9875
2990.98993	2980.4875
2993.4245	2963.0875
2995.85758	2966.2875
2998.28917	2954.7875
3000.71928	2956.9875
3003.14791	2947.0875
3005.57506	2944.9875
3008.00073	2931.8875
3010.42493	2934.2875
3012.84764	2926.4875
3015.26888	2923.8875
3017.68865	2915.8875
3020.10694	2926.9875
3022.52376	2914.7875
3024.9391	2888.7875
3027.35298	2888.2875
3029.76539	2890.2875
3032.17632	2889.6875
3034.5858	2877.1875
3036.9938	2879.2875
3039.40034	2874.9875
3041.80542	2877.5875
3044.20903	2870.2875
3046.61118	2859.9875
3049.01187	2848.5875
3051.4111	2850.2875
3053.80888	2852.1875
3056.20519	2825.5875
3058.60005	2827.7875
3060.99345	2821.4875
3063.3854	2830.3875
3065.7759	2818.4875
3068.16494	2812.6875
3070.55254	2798.7875
3072.93868	2800.3875
3075.32338	2791.2875
3077.70662	2773.5875
3080.08842	2774.5875
3082.46878	2763.1875
3084.84769	2759.9875
3087.22515	2765.2875
3089.60118	2762.8875
3091.97576	2766.3875
3094.3489	2757.0875
3096.72061	2763.5875
3099.09087	2747.8875
3101.4597	2736.1875
3103.82709	2742.5875
3106.19305	2752.2875
3108.55757	2737.8875
3110.92066	2713.7875
3113.28232	2729.0875
3115.64255	2715.7875
3118.00134	2707.5875
3120.35871	2696.9875
3122.71466	2684.5875
3125.06917	2704.3875
3127.42226	2679.4875
3129.77393	2683.2875
3132.12417	2686.5875
3134.47299	2690.6875
3136.82039	2687.1875
3139.16636	2681.7875
3141.51092	2688.6875
3143.85406	2690.5875
3146.19579	2684.9875
3148.53609	2686.5875
3150.87499	2690.9875
3153.21246	2686.9875
3155.54853	2686.6875
3157.88318	2682.4875
3160.21642	2691.0875
3162.54826	2680.6875
3164.87868	2683.8875
3167.2077	2677.5875
3169.5353	2684.2875
3171.86151	2686.1875
3174.18631	2677.9875
3176.5097	2672.1875
3178.83169	2666.9875
3181.15228	2662.9875
3183.47147	2661.9875
3185.78926	2671.7875
3188.10565	2659.6875
3190.42065	2669.6875
3192.73424	2652.0875
3195.04645	2657.5875
3197.35725	2651.3875
3199.66667	2642.7875
3201.97469	2644.0875
3204.28132	2641.6875
3206.58656	2652.8875
3208.8904	2647.9875
3211.19287	2654.3875
3213.49394	2645.5875
3215.79363	2650.7875
3218.09193	2644.6875
3220.38884	2657.9875
3222.68438	2675.6875
3224.97853	2642.1875
3227.2713	2642.7875
3229.56269	2628.4875
3231.8527	2648.1875
3234.14133	2634.1875
3236.42858	2628.7875
3238.71446	2634.0875
3240.99896	2626.1875
3243.28209	2624.2875
3245.56384	2633.2875
3247.84423	2619.2875
3250.12324	2606.9875
3252.40088	2606.9875
3254.67715	2613.8875
3256.95205	2608.2875
3259.22558	2606.3875
3261.49775	2591.5875
3263.76855	2606.9875
3266.03799	2583.5875
3268.30606	2576.3875
3270.57277	2574.2875
3272.83812	2561.0875
3275.10211	2542.1875
3277.36474	2560.7875
3279.62601	2553.9875
3281.88593	2556.8875
3284.14448	2551.1875
3286.40168	2551.0875
3288.65753	2552.9875
3290.91202	2545.9875
3293.16516	2540.9875
3295.41695	2533.6875
3297.66738	2513.0875
3299.91647	2494.1875
3302.16421	2490.8875
3304.4106	2478.5875
3306.65564	2479.5875
3308.89933	2462.2875
3311.14169	2443.3875
3313.38269	2429.4875
3315.62236	2404.0875
3317.86068	2388.2875
3320.09766	2361.0875
3322.3333	2341.3875
3324.5676	2344.8875
3326.80056	2316.6875
3329.03219	2301.6875
3331.26248	0.8875
3333.49143	-1.7125
3335.71905	-0.4125
