Data from AgNPs_FTO_APTES_UA_2uM_CRN_50uM_R6G_10uM_NaF_0.1M_Addition_RamanShift__40__15-22-55-282.txt Node

Date: Wed Feb 02 15:22:55 GMT 2022
User: TCL
Spectrometer: QEP01345
Trigger mode: 4
Integration Time (sec): 7.000000E0
Scans to average: 10
Electric dark correction enabled: true
Nonlinearity correction enabled: false
Boxcar width: 0
XAxis mode: Raman Shifts
Number of Pixels in Spectrum: 1044
>>>>>Begin Spectral Data<<<<<
46.04893	-1.0875
50.45542	1.9125
54.85868	-2.0875
59.25871	-0.5875
63.6555	79.7125
68.04907	86.8125
72.43941	84.6125
76.82654	97.0125
81.21044	100.5125
85.59113	103.7125
89.96862	108.1125
94.34289	109.6125
98.71396	113.5125
103.08183	120.1125
107.4465	120.9125
111.80798	120.3125
116.16626	125.5125
120.52136	131.0125
124.87327	135.2125
129.222	139.4125
133.56755	152.5125
137.90993	159.7125
142.24913	181.7125
146.58517	205.3125
150.91804	235.8125
155.24774	279.9125
159.57429	350.6125
163.89768	446.2125
168.21792	586.8125
172.53501	800.4125
176.84895	1114.4125
181.15975	1574.3125
185.46741	2183.8125
189.77193	3014.8125
194.07331	4024.0125
198.37157	5168.2125
202.6667	6391.1125
206.9587	7584.1125
211.24758	8771.6125
215.53334	9963.2125
219.81599	11217.9125
224.09553	12592.8125
228.37195	14078.1125
232.64527	15681.6125
236.91549	17357.2125
241.18261	19046.8125
245.44663	20677.2125
249.70755	22108.1125
253.96539	23406.6125
258.22014	24473.1125
262.4718	25407.6125
266.72039	26069.0125
270.96589	26397.5125
275.20832	26499.3125
279.44768	26421.7125
283.68397	26294.7125
287.91719	26145.8125
292.14735	26144.9125
296.37445	26204.3125
300.59849	26308.0125
304.81948	26420.0125
309.03742	26376.5125
313.25231	26073.4125
317.46415	25556.1125
321.67296	24824.6125
325.87872	24269.3125
330.08145	23947.8125
334.28114	23783.6125
338.47781	23887.8125
342.67145	24084.3125
346.86207	24343.3125
351.04966	24666.9125
355.23424	25013.8125
359.4158	25336.6125
363.59435	25585.4125
367.76989	25771.3125
371.94243	25874.8125
376.11196	25931.5125
380.27849	25910.3125
384.44203	26007.3125
388.60257	26197.0125
392.76012	26556.0125
396.91468	27021.2125
401.06626	27442.1125
405.21485	27743.3125
409.36047	27568.9125
413.50311	27315.8125
417.64277	27181.8125
421.77947	27331.5125
425.9132	27529.6125
430.04396	27674.5125
434.17176	27802.6125
438.2966	27963.2125
442.41849	28362.1125
446.53742	29094.1125
450.6534	29946.6125
454.76644	30551.3125
458.87653	30804.6125
462.98368	30749.8125
467.08789	30440.0125
471.18916	30141.9125
475.2875	29981.4125
479.38291	30040.2125
483.4754	30042.6125
487.56496	29660.4125
491.6516	28936.8125
495.73531	28064.6125
499.81612	27572.6125
503.89401	27495.0125
507.96899	27592.0125
512.04106	27567.7125
516.11023	27287.0125
520.1765	26849.4125
524.23987	26329.1125
528.30034	25889.8125
532.35792	25587.0125
536.41261	25305.6125
540.46441	25115.9125
544.51333	25166.1125
548.55936	25573.8125
552.60252	26235.9125
556.64279	27059.7125
560.6802	27718.5125
564.71473	28306.1125
568.7464	29122.5125
572.7752	30494.8125
576.80114	31958.8125
580.82422	33133.3125
584.84444	34378.6125
588.86181	35885.1125
592.87633	36944.9125
596.888	36176.3125
600.89682	34143.2125
604.9028	32993.0125
608.90594	33627.4125
612.90624	34441.7125
616.90371	31917.8125
620.89834	27499.1125
624.89015	25615.3125
628.87913	25565.6125
632.86528	25756.1125
636.84862	25679.9125
640.82913	25137.3125
644.80683	24596.6125
648.78172	24164.3125
652.75379	24119.4125
656.72306	24316.8125
660.68952	24508.7125
664.65319	24291.2125
668.61405	23931.9125
672.57211	23850.7125
676.52738	23936.1125
680.47986	24029.5125
684.42955	23859.1125
688.37646	23751.7125
692.32058	23905.1125
696.26192	24238.7125
700.20048	24608.9125
704.13626	24859.6125
708.06928	25033.2125
711.99952	25051.2125
715.927	25049.6125
719.85171	25058.4125
723.77365	24793.0125
727.69284	24383.1125
731.60928	23958.8125
735.52295	23752.7125
739.43388	23683.2125
743.34206	23747.4125
747.24749	23950.4125
751.15017	24310.7125
755.05012	24912.1125
758.94733	25782.2125
762.8418	27122.8125
766.73354	28859.0125
770.62254	30274.1125
774.50882	30019.2125
778.39237	28425.3125
782.27321	26491.0125
786.15132	25066.5125
790.02671	24115.1125
793.89938	23648.8125
797.76935	23432.4125
801.6366	23400.0125
805.50115	23384.8125
809.36299	23257.0125
813.22213	23103.7125
817.07857	23056.2125
820.93231	22929.2125
824.78336	22790.5125
828.63172	22510.6125
832.47738	22394.2125
836.32036	22299.6125
840.16066	22344.2125
843.99827	22302.9125
847.8332	22257.8125
851.66546	22283.3125
855.49504	22304.6125
859.32195	22247.7125
863.1462	22175.1125
866.96777	22071.8125
870.78668	22058.8125
874.60293	21997.2125
878.41652	21993.9125
882.22745	22029.2125
886.03573	22086.6125
889.84136	22084.0125
893.64433	21992.8125
897.44466	21934.8125
901.24235	21862.3125
905.0374	21823.6125
908.8298	21806.5125
912.61957	21972.7125
916.40671	22308.6125
920.19121	22823.9125
923.97308	23132.2125
927.75233	23001.6125
931.52895	22561.2125
935.30295	21984.2125
939.07433	21462.7125
942.84309	21086.6125
946.60924	20865.5125
950.37278	20831.0125
954.13371	20884.4125
957.89203	20938.6125
961.64774	20966.2125
965.40086	20986.1125
969.15137	20908.6125
972.89929	20641.8125
976.64461	20511.3125
980.38733	20409.1125
984.12747	20413.1125
987.86502	20493.9125
991.59999	20567.2125
995.33237	20752.0125
999.06217	21000.8125
1002.78939	21419.9125
1006.51404	21784.6125
1010.23611	22256.4125
1013.95561	22478.8125
1017.67255	22584.7125
1021.38692	22382.8125
1025.09872	22028.6125
1028.80796	21714.7125
1032.51465	21683.7125
1036.21877	21801.8125
1039.92035	21979.2125
1043.61937	22047.3125
1047.31584	22090.7125
1051.00976	22088.7125
1054.70114	22204.6125
1058.38998	22451.3125
1062.07627	22772.9125
1065.76003	23187.2125
1069.44126	23524.6125
1073.11995	24019.0125
1076.79611	24287.1125
1080.46974	24366.2125
1084.14085	24476.6125
1087.80943	24760.0125
1091.47549	25070.8125
1095.13903	25252.9125
1098.80005	24928.1125
1102.45857	24158.9125
1106.11456	23477.9125
1109.76805	23118.4125
1113.41903	23046.4125
1117.06751	23146.5125
1120.71348	23449.6125
1124.35696	23735.3125
1127.99793	24095.5125
1131.63641	24363.4125
1135.2724	24418.8125
1138.90589	24442.0125
1142.5369	24673.9125
1146.16542	25144.6125
1149.79145	25662.7125
1153.415	26187.6125
1157.03607	26921.7125
1160.65467	28048.2125
1164.27079	29787.9125
1167.88443	31798.7125
1171.49561	33603.5125
1175.10432	35590.3125
1178.71056	38096.3125
1182.31434	40392.0125
1185.91565	41388.4125
1189.51451	41108.6125
1193.11091	40386.3125
1196.70485	39237.2125
1200.29634	38042.2125
1203.88538	37328.7125
1207.47197	37427.0125
1211.05612	37497.2125
1214.63782	36882.5125
1218.21708	35440.1125
1221.79391	33573.8125
1225.36829	32227.9125
1228.94024	31360.9125
1232.50976	30728.4125
1236.07685	30287.6125
1239.6415	30126.9125
1243.20374	30206.5125
1246.76355	30566.2125
1250.32093	31038.7125
1253.8759	31762.2125
1257.42845	32748.1125
1260.97859	33784.9125
1264.52631	34815.6125
1268.07163	35870.6125
1271.61453	36956.4125
1275.15503	38225.0125
1278.69312	39732.6125
1282.22882	41464.7125
1285.76211	43514.3125
1289.29301	46141.6125
1292.82151	49114.5125
1296.34761	52717.5125
1299.87133	56563.6125
1303.39266	59952.9125
1306.9116	62247.0125
1310.42815	63435.1125
1313.94233	63712.5125
1317.45412	63243.3125
1320.96354	62703.6125
1324.47058	62579.8125
1327.97525	62882.1125
1331.47754	63020.5125
1334.97747	62892.5125
1338.47502	62141.2125
1341.97022	60894.1125
1345.46305	59303.6125
1348.95352	57748.7125
1352.44163	56582.9125
1355.92738	56550.0125
1359.41078	57542.5125
1362.89183	58308.0125
1366.37053	57306.8125
1369.84688	53535.1125
1373.32088	48275.2125
1376.79254	44635.3125
1380.26186	43881.4125
1383.72883	44720.3125
1387.19347	45580.9125
1390.65578	45704.3125
1394.11575	45862.2125
1397.57339	46517.4125
1401.0287	47598.5125
1404.48168	48223.1125
1407.93234	47730.6125
1411.38068	46006.8125
1414.82669	43484.4125
1418.27039	40734.5125
1421.71177	38239.0125
1425.15083	36350.3125
1428.58758	35444.3125
1432.02203	35828.8125
1435.45416	37103.3125
1438.88399	38746.9125
1442.31151	40066.3125
1445.73673	40986.9125
1449.15965	41726.1125
1452.58027	42102.8125
1455.9986	42267.3125
1459.41463	42428.6125
1462.82837	42924.0125
1466.23982	43505.7125
1469.64898	44031.9125
1473.05586	44283.9125
1476.46045	44155.1125
1479.86276	43615.9125
1483.26279	42834.3125
1486.66054	42330.0125
1490.05602	42301.2125
1493.44922	42565.1125
1496.84016	42968.8125
1500.22882	43529.5125
1503.61521	44215.5125
1506.99934	45067.5125
1510.38121	45762.2125
1513.76081	46080.6125
1517.13816	45863.3125
1520.51324	45648.4125
1523.88607	45815.8125
1527.25665	46507.6125
1530.62498	46914.6125
1533.99105	46944.8125
1537.35488	46085.7125
1540.71647	44573.8125
1544.07581	42735.3125
1547.4329	40894.3125
1550.78776	39336.7125
1554.14038	38312.5125
1557.49077	37722.6125
1560.83892	37295.7125
1564.18484	37193.8125
1567.52853	37323.8125
1570.86999	37819.4125
1574.20922	38994.8125
1577.54624	40354.6125
1580.88103	41453.1125
1584.2136	42773.5125
1587.54395	44724.0125
1590.87208	47284.0125
1594.19801	49938.8125
1597.52172	51961.1125
1600.84321	51653.2125
1604.16251	48296.6125
1607.47959	43499.6125
1610.79447	38865.6125
1614.10715	34944.3125
1617.41763	31946.3125
1620.7259	29998.6125
1624.03199	29041.4125
1627.33587	29207.7125
1630.63757	30487.6125
1633.93707	33122.9125
1637.23439	37402.1125
1640.52951	43545.7125
1643.82246	50704.7125
1647.11321	56298.9125
1650.40179	56957.8125
1653.68819	52116.0125
1656.97241	44062.2125
1660.25446	36344.4125
1663.53433	30512.8125
1666.81203	26618.1125
1670.08756	24148.3125
1673.36092	22643.7125
1676.63211	21666.9125
1679.90115	20971.0125
1683.16801	20504.2125
1686.43272	20110.7125
1689.69527	19840.4125
1692.95567	19631.9125
1696.2139	19490.9125
1699.46999	19357.9125
1702.72392	19234.7125
1705.97571	19166.1125
1709.22535	19038.1125
1712.47284	18904.5125
1715.71819	18874.3125
1718.96139	18781.6125
1722.20246	18690.9125
1725.44139	18614.3125
1728.67818	18458.4125
1731.91284	18326.4125
1735.14537	18212.3125
1738.37576	18098.8125
1741.60403	18029.2125
1744.83017	17908.0125
1748.05418	17864.9125
1751.27607	17836.8125
1754.49584	17796.6125
1757.71349	17798.5125
1760.92903	17784.5125
1764.14244	17715.9125
1767.35375	17683.0125
1770.56294	17632.0125
1773.77002	17602.0125
1776.97499	17508.0125
1780.17785	17479.3125
1783.37861	17432.7125
1786.57727	17407.8125
1789.77382	17352.0125
1792.96828	17279.1125
1796.16064	17239.0125
1799.3509	17157.0125
1802.53907	17136.8125
1805.72514	17081.8125
1808.90913	17031.3125
1812.09102	16990.2125
1815.27083	16957.9125
1818.44856	16946.6125
1821.6242	16890.3125
1824.79776	16876.4125
1827.96924	16836.6125
1831.13864	16796.9125
1834.30597	16845.8125
1837.47122	16842.5125
1840.6344	16842.5125
1843.7955	16841.7125
1846.95454	16836.3125
1850.11151	16783.7125
1853.26642	16776.1125
1856.41926	16766.3125
1859.57004	16750.1125
1862.71876	16717.2125
1865.86542	16680.1125
1869.01003	16673.6125
1872.15258	16641.5125
1875.29308	16607.2125
1878.43152	16604.0125
1881.56792	16580.2125
1884.70227	16535.1125
1887.83457	16505.6125
1890.96482	16502.4125
1894.09304	16468.8125
1897.21921	16432.3125
1900.34335	16411.7125
1903.46544	16365.2125
1906.58551	16340.7125
1909.70353	16347.1125
1912.81953	16270.9125
1915.93349	16257.3125
1919.04543	16185.8125
1922.15534	16159.8125
1925.26322	16134.3125
1928.36908	16088.2125
1931.47292	16051.6125
1934.57473	15976.9125
1937.67453	15956.1125
1940.77232	15859.6125
1943.86808	15844.5125
1946.96184	15816.0125
1950.05358	15778.7125
1953.14331	15718.4125
1956.23103	15695.4125
1959.31675	15603.0125
1962.40046	15559.9125
1965.48217	15496.8125
1968.56188	15451.4125
1971.63959	15362.3125
1974.7153	15343.1125
1977.78901	15280.9125
1980.86073	15256.9125
1983.93046	15188.8125
1986.99819	15131.1125
1990.06394	15099.3125
1993.1277	15059.4125
1996.18947	15000.6125
1999.24925	14969.8125
2002.30706	14905.0125
2005.36288	14857.0125
2008.41672	14838.1125
2011.46859	14762.1125
2014.51848	14712.6125
2017.56639	14650.9125
2020.61233	14637.3125
2023.6563	14575.5125
2026.6983	14562.8125
2029.73833	14517.1125
2032.7764	14498.7125
2035.8125	14469.6125
2038.84664	14440.9125
2041.87881	14419.6125
2044.90903	14378.7125
2047.93729	14333.6125
2050.96359	14334.3125
2053.98794	14328.7125
2057.01034	14300.5125
2060.03078	14309.2125
2063.04927	14279.0125
2066.06582	14263.9125
2069.08042	14263.1125
2072.09307	14252.1125
2075.10378	14249.6125
2078.11255	14185.9125
2081.11938	14166.4125
2084.12426	14159.6125
2087.12722	14160.4125
2090.12824	14179.2125
2093.12732	14148.5125
2096.12447	14155.9125
2099.11969	14170.9125
2102.11299	14158.6125
2105.10435	14154.8125
2108.09379	14157.3125
2111.08131	14176.5125
2114.0669	14162.9125
2117.05057	14187.1125
2120.03233	14179.6125
2123.01216	14176.5125
2125.99008	14181.3125
2128.96609	14200.3125
2131.94018	14160.5125
2134.91236	14128.2125
2137.88263	14159.8125
2140.851	14143.5125
2143.81746	14135.2125
2146.78201	14169.8125
2149.74466	14153.3125
2152.7054	14160.3125
2155.66425	14121.9125
2158.6212	14133.0125
2161.57625	14130.1125
2164.52941	14106.5125
2167.48067	14123.7125
2170.43004	14086.7125
2173.37752	14036.1125
2176.32311	14037.8125
2179.26681	14063.1125
2182.20863	14040.5125
2185.14856	14055.3125
2188.08661	14043.8125
2191.02278	14048.6125
2193.95707	14047.5125
2196.88948	14022.6125
2199.82001	13983.6125
2202.74867	13965.5125
2205.67545	13955.9125
2208.60037	13922.5125
2211.52341	13876.9125
2214.44458	13881.6125
2217.36388	13869.3125
2220.28132	13830.4125
2223.1969	13820.1125
2226.11061	13783.6125
2229.02246	13782.2125
2231.93245	13716.7125
2234.84058	13700.2125
2237.74686	13691.5125
2240.65128	13683.0125
2243.55385	13654.4125
2246.45456	13628.0125
2249.35343	13585.8125
2252.25044	13546.6125
2255.14561	13529.4125
2258.03893	13505.9125
2260.93041	13470.7125
2263.82004	13402.8125
2266.70783	13345.6125
2269.59378	13311.2125
2272.4779	13288.9125
2275.36017	13224.4125
2278.24061	13252.1125
2281.11922	13187.1125
2283.996	13167.9125
2286.87094	13117.9125
2289.74405	13112.9125
2292.61534	13055.5125
2295.4848	13107.7125
2298.35243	13090.8125
2301.21824	13050.8125
2304.08223	13082.7125
2306.94439	13077.0125
2309.80474	13031.8125
2312.66327	13050.6125
2315.51999	13022.0125
2318.37489	13007.2125
2321.22797	13026.4125
2324.07925	12965.4125
2326.92871	12936.7125
2329.77637	12951.0125
2332.62222	12924.1125
2335.46626	12919.0125
2338.3085	12915.0125
2341.14893	12877.8125
2343.98756	12882.6125
2346.8244	12848.8125
2349.65943	12879.1125
2352.49267	12868.8125
2355.32411	12878.2125
2358.15376	12851.5125
2360.98161	12857.9125
2363.80768	12834.9125
2366.63195	12834.8125
2369.45444	12811.9125
2372.27514	12795.1125
2375.09405	12789.5125
2377.91118	12740.4125
2380.72652	12747.9125
2383.54009	12709.1125
2386.35187	12718.1125
2389.16188	12630.4125
2391.97011	12626.0125
2394.77657	12575.7125
2397.58125	12590.7125
2400.38416	12571.3125
2403.18529	12536.3125
2405.98466	12521.5125
2408.78226	12517.5125
2411.57809	12491.9125
2414.37216	12497.9125
2417.16446	12472.9125
2419.955	12454.5125
2422.74378	12463.8125
2425.5308	12448.0125
2428.31606	12452.2125
2431.09956	12455.1125
2433.88131	12383.8125
2436.6613	12402.7125
2439.43954	12406.4125
2442.21603	12389.8125
2444.99077	12365.8125
2447.76377	12371.0125
2450.53501	12347.6125
2453.30451	12354.8125
2456.07226	12352.6125
2458.83827	12345.9125
2461.60254	12368.2125
2464.36507	12350.2125
2467.12586	12347.1125
2469.88492	12333.6125
2472.64224	12325.7125
2475.39782	12322.8125
2478.15167	12335.2125
2480.90379	12342.5125
2483.65417	12301.9125
2486.40283	12342.3125
2489.14976	12339.2125
2491.89497	12293.6125
2494.63845	12328.4125
2497.3802	12334.4125
2500.12024	12315.1125
2502.85855	12295.6125
2505.59514	12309.4125
2508.33002	12303.4125
2511.06318	12328.4125
2513.79462	12292.4125
2516.52435	12267.4125
2519.25237	12268.7125
2521.97867	12257.4125
2524.70327	12264.6125
2527.42616	12257.0125
2530.14734	12268.0125
2532.86681	12206.2125
2535.58458	12244.9125
2538.30065	12224.9125
2541.01501	12201.2125
2543.72768	12149.1125
2546.43864	12180.3125
2549.14791	12172.6125
2551.85548	12133.0125
2554.56136	12110.1125
2557.26554	12122.3125
2559.96803	12107.9125
2562.66883	12132.9125
2565.36794	12110.9125
2568.06536	12109.8125
2570.7611	12102.3125
2573.45514	12120.6125
2576.14751	12101.7125
2578.83819	12074.8125
2581.52719	12074.9125
2584.21451	12064.5125
2586.90015	12054.1125
2589.58411	12041.6125
2592.2664	12026.5125
2594.94701	11985.4125
2597.62594	12011.4125
2600.30321	12002.7125
2602.9788	11989.0125
2605.65273	11986.4125
2608.32498	12016.5125
2610.99557	12037.2125
2613.66449	12019.4125
2616.33175	12018.5125
2618.99734	12020.9125
2621.66128	11990.6125
2624.32355	11970.5125
2626.98416	11987.5125
2629.64311	11964.8125
2632.30041	11972.7125
2634.95605	11944.9125
2637.61004	11949.3125
2640.26238	11924.2125
2642.91306	11953.3125
2645.56209	11956.0125
2648.20948	11936.4125
2650.85521	11961.7125
2653.4993	11969.2125
2656.14175	11955.4125
2658.78255	11974.3125
2661.42171	12004.7125
2664.05923	12010.5125
2666.6951	12002.1125
2669.32934	12019.6125
2671.96194	11976.0125
2674.59291	11992.8125
2677.22224	11991.2125
2679.84993	12003.5125
2682.476	11984.4125
2685.10043	11998.1125
2687.72324	11977.2125
2690.34441	11996.9125
2692.96396	11968.1125
2695.58188	11987.9125
2698.19818	11979.3125
2700.81285	11988.1125
2703.4259	11972.1125
2706.03733	12044.1125
2708.64714	12009.4125
2711.25533	12029.0125
2713.86191	12017.9125
2716.46687	12039.5125
2719.07021	12029.3125
2721.67194	12089.2125
2724.27206	12047.4125
2726.87057	12079.7125
2729.46747	12102.5125
2732.06276	12071.1125
2734.65644	12078.8125
2737.24852	12064.3125
2739.83899	12068.5125
2742.42786	12048.2125
2745.01513	12005.1125
2747.60079	12044.3125
2750.18486	12018.5125
2752.76733	12041.0125
2755.3482	12004.0125
2757.92747	12051.4125
2760.50515	12060.6125
2763.08123	12074.5125
2765.65573	12074.9125
2768.22863	12017.3125
2770.79994	12023.6125
2773.36967	12022.6125
2775.9378	12010.2125
2778.50435	12013.2125
2781.06932	12025.5125
2783.6327	12019.3125
2786.1945	12025.6125
2788.75471	12010.2125
2791.31335	11970.3125
2793.87041	11973.1125
2796.42589	11961.0125
2798.97979	11990.9125
2801.53212	11950.3125
2804.08288	11925.2125
2806.63206	11908.2125
2809.17967	11871.2125
2811.72571	11840.4125
2814.27018	11809.4125
2816.81308	11824.1125
2819.35442	11792.3125
2821.89419	11777.2125
2824.43239	11736.9125
2826.96904	11760.5125
2829.50412	11743.3125
2832.03763	11714.5125
2834.56959	11731.8125
2837.1	11736.8125
2839.62884	11719.5125
2842.15613	11688.1125
2844.68186	11721.2125
2847.20604	11771.9125
2849.72867	11797.7125
2852.24974	11778.9125
2854.76927	11781.6125
2857.28724	11741.6125
2859.80367	11739.9125
2862.31855	11703.8125
2864.83189	11684.3125
2867.34368	11673.0125
2869.85393	11665.8125
2872.36264	11659.6125
2874.8698	11674.3125
2877.37543	11633.4125
2879.87952	11653.5125
2882.38207	11641.9125
2884.88308	11625.6125
2887.38256	11649.1125
2889.88051	11631.8125
2892.37692	11627.0125
2894.8718	11642.6125
2897.36515	11634.5125
2899.85698	11655.2125
2902.34727	11669.1125
2904.83604	11666.0125
2907.32328	11669.2125
2909.809	11681.0125
2912.29319	11668.2125
2914.77587	11668.4125
2917.25702	11669.0125
2919.73665	11651.8125
2922.21476	11643.7125
2924.69136	11653.8125
2927.16644	11710.1125
2929.64	11683.6125
2932.11205	11679.0125
2934.58258	11628.0125
2937.05161	11662.1125
2939.51912	11671.9125
2941.98513	11633.4125
2944.44962	11575.6125
2946.91261	11507.6125
2949.37409	11514.3125
2951.83407	11540.0125
2954.29254	11478.4125
2956.74951	11461.1125
2959.20498	11470.9125
2961.65895	11447.8125
2964.11142	11426.1125
2966.56239	11388.3125
2969.01186	11378.1125
2971.45984	11349.0125
2973.90632	11324.2125
2976.35131	11287.3125
2978.7948	11266.1125
2981.23681	11228.2125
2983.67732	11205.2125
2986.11635	11173.6125
2988.55388	11148.2125
2990.98993	11140.6125
2993.4245	11108.0125
2995.85758	11064.1125
2998.28917	11042.3125
3000.71928	10993.9125
3003.14791	10994.4125
3005.57506	10962.6125
3008.00073	10915.8125
3010.42493	10893.0125
3012.84764	10877.5125
3015.26888	10864.4125
3017.68865	10822.6125
3020.10694	10808.3125
3022.52376	10798.2125
3024.9391	10776.9125
3027.35298	10736.3125
3029.76539	10730.4125
3032.17632	10736.5125
3034.5858	10726.1125
3036.9938	10732.8125
3039.40034	10717.5125
3041.80542	10669.2125
3044.20903	10664.6125
3046.61118	10654.7125
3049.01187	10638.7125
3051.4111	10634.1125
3053.80888	10588.7125
3056.20519	10539.2125
3058.60005	10533.4125
3060.99345	10505.0125
3063.3854	10480.3125
3065.7759	10437.3125
3068.16494	10410.5125
3070.55254	10358.3125
3072.93868	10356.3125
3075.32338	10310.7125
3077.70662	10289.4125
3080.08842	10204.6125
3082.46878	10225.1125
3084.84769	10206.2125
3087.22515	10204.3125
3089.60118	10213.2125
3091.97576	10181.3125
3094.3489	10168.7125
3096.72061	10143.8125
3099.09087	10156.7125
3101.4597	10131.3125
3103.82709	10122.7125
3106.19305	10108.9125
3108.55757	10096.5125
3110.92066	10055.9125
3113.28232	10018.4125
3115.64255	9990.7125
3118.00134	9947.1125
3120.35871	9927.0125
3122.71466	9906.3125
3125.06917	9908.9125
3127.42226	9897.4125
3129.77393	9925.1125
3132.12417	9880.9125
3134.47299	9869.4125
3136.82039	9851.5125
3139.16636	9840.3125
3141.51092	9837.9125
3143.85406	9848.4125
3146.19579	9819.9125
3148.53609	9826.0125
3150.87499	9848.0125
3153.21246	9836.8125
3155.54853	9845.1125
3157.88318	9792.8125
3160.21642	9800.3125
3162.54826	9784.3125
3164.87868	9794.3125
3167.2077	9787.9125
3169.5353	9796.6125
3171.86151	9778.2125
3174.18631	9761.3125
3176.5097	9754.8125
3178.83169	9736.9125
3181.15228	9753.1125
3183.47147	9719.4125
3185.78926	9707.2125
3188.10565	9718.3125
3190.42065	9689.6125
3192.73424	9668.9125
3195.04645	9649.6125
3197.35725	9654.4125
3199.66667	9631.1125
3201.97469	9648.5125
3204.28132	9594.9125
3206.58656	9645.4125
3208.8904	9607.6125
3211.19287	9608.1125
3213.49394	9624.3125
3215.79363	9624.1125
3218.09193	9602.6125
3220.38884	9596.4125
3222.68438	9605.9125
3224.97853	9588.9125
3227.2713	9566.9125
3229.56269	9560.9125
3231.8527	9550.1125
3234.14133	9541.4125
3236.42858	9542.4125
3238.71446	9528.4125
3240.99896	9531.2125
3243.28209	9529.2125
3245.56384	9496.4125
3247.84423	9506.4125
3250.12324	9463.7125
3252.40088	9453.1125
3254.67715	9439.8125
3256.95205	9424.9125
3259.22558	9383.9125
3261.49775	9356.6125
3263.76855	9348.5125
3266.03799	9308.6125
3268.30606	9292.4125
3270.57277	9272.9125
3272.83812	9278.5125
3275.10211	9260.0125
3277.36474	9234.5125
3279.62601	9254.9125
3281.88593	9218.0125
3284.14448	9248.9125
3286.40168	9247.8125
3288.65753	9216.7125
3290.91202	9240.6125
3293.16516	9171.1125
3295.41695	9166.2125
3297.66738	9096.2125
3299.91647	9060.1125
3302.16421	9009.1125
3304.4106	8936.3125
3306.65564	8894.5125
3308.89933	8840.2125
3311.14169	8770.8125
3313.38269	8710.9125
3315.62236	8621.6125
3317.86068	8594.6125
3320.09766	8459.8125
3322.3333	8389.0125
3324.5676	8384.5125
3326.80056	8241.1125
3329.03219	8206.9125
3331.26248	2.8125
3333.49143	-0.3875
3335.71905	-0.7875
