Data from AgNPs_FTO_APTES_UA_2uM_CRN_500uM_R6G_10uM_NaF_0.1M_Addition_RamanShift__32__17-35-55-437.txt Node

Date: Wed Feb 02 17:35:55 GMT 2022
User: TCL
Spectrometer: QEP01345
Trigger mode: 4
Integration Time (sec): 7.000000E0
Scans to average: 10
Electric dark correction enabled: true
Nonlinearity correction enabled: false
Boxcar width: 0
XAxis mode: Raman Shifts
Number of Pixels in Spectrum: 1044
>>>>>Begin Spectral Data<<<<<
46.04893	1.4875
50.45542	0.4875
54.85868	-1.3125
59.25871	0.5875
63.6555	38.2875
68.04907	42.8875
72.43941	44.5875
76.82654	50.0875
81.21044	52.0875
85.59113	56.6875
89.96862	57.7875
94.34289	60.7875
98.71396	62.1875
103.08183	64.1875
107.4465	65.3875
111.80798	64.7875
116.16626	66.0875
120.52136	64.1875
124.87327	66.8875
129.222	68.1875
133.56755	73.2875
137.90993	74.4875
142.24913	83.8875
146.58517	91.6875
150.91804	97.1875
155.24774	114.8875
159.57429	135.1875
163.89768	170.7875
168.21792	221.9875
172.53501	292.6875
176.84895	401.2875
181.15975	563.5875
185.46741	778.5875
189.77193	1068.6875
194.07331	1422.1875
198.37157	1818.2875
202.6667	2252.5875
206.9587	2674.2875
211.24758	3100.1875
215.53334	3540.5875
219.81599	4060.2875
224.09553	4635.2875
228.37195	5266.2875
232.64527	5926.4875
236.91549	6591.7875
241.18261	7173.2875
245.44663	7645.3875
249.70755	7995.0875
253.96539	8276.9875
258.22014	8581.2875
262.4718	8834.4875
266.72039	9038.9875
270.96589	9171.3875
275.20832	9227.1875
279.44768	9155.9875
283.68397	9108.5875
287.91719	9100.3875
292.14735	9161.1875
296.37445	9406.5875
300.59849	9757.6875
304.81948	10190.1875
309.03742	10505.0875
313.25231	10485.5875
317.46415	9927.0875
321.67296	9016.0875
325.87872	8261.7875
330.08145	7872.4875
334.28114	7812.7875
338.47781	7946.3875
342.67145	8199.3875
346.86207	8586.0875
351.04966	9184.9875
355.23424	9864.3875
359.4158	10352.3875
363.59435	10531.4875
367.76989	10523.8875
371.94243	10430.8875
376.11196	10278.9875
380.27849	10185.0875
384.44203	10023.5875
388.60257	9867.8875
392.76012	9764.6875
396.91468	9868.0875
401.06626	10170.5875
405.21485	10410.7875
409.36047	10238.1875
413.50311	9617.7875
417.64277	9002.6875
421.77947	8662.9875
425.9132	8521.9875
430.04396	8476.5875
434.17176	8503.8875
438.2966	8562.8875
442.41849	8745.0875
446.53742	8996.4875
450.6534	9214.7875
454.76644	9380.4875
458.87653	9398.1875
462.98368	9340.1875
467.08789	9251.8875
471.18916	9076.0875
475.2875	8866.6875
479.38291	8706.3875
483.4754	8524.5875
487.56496	8386.5875
491.6516	8263.4875
495.73531	8235.8875
499.81612	8292.0875
503.89401	8406.6875
507.96899	8517.1875
512.04106	8647.6875
516.11023	8794.6875
520.1765	8862.9875
524.23987	8817.8875
528.30034	8597.5875
532.35792	8357.6875
536.41261	8108.1875
540.46441	7894.1875
544.51333	7799.2875
548.55936	7901.4875
552.60252	8138.7875
556.64279	8452.1875
560.6802	8652.9875
564.71473	8872.1875
568.7464	9365.2875
572.7752	9682.7875
576.80114	9350.9875
580.82422	8857.5875
584.84444	8614.4875
588.86181	8478.1875
592.87633	8424.8875
596.888	8507.9875
600.89682	8855.7875
604.9028	10028.1875
608.90594	13273.0875
612.90624	17719.6875
616.90371	17274.5875
620.89834	11482.8875
624.89015	8592.1875
628.87913	8038.9875
632.86528	8109.4875
636.84862	8299.9875
640.82913	8193.2875
644.80683	7783.7875
648.78172	7498.8875
652.75379	7523.8875
656.72306	7920.5875
660.68952	8460.3875
664.65319	8372.5875
668.61405	7904.3875
672.57211	7602.5875
676.52738	7591.7875
680.47986	7628.3875
684.42955	7542.3875
688.37646	7494.7875
692.32058	7515.7875
696.26192	7613.2875
700.20048	7746.0875
704.13626	7862.6875
708.06928	7863.0875
711.99952	7751.8875
715.927	7704.4875
719.85171	7653.2875
723.77365	7640.4875
727.69284	7538.3875
731.60928	7429.6875
735.52295	7375.7875
739.43388	7378.8875
743.34206	7405.0875
747.24749	7448.4875
751.15017	7537.9875
755.05012	7739.3875
758.94733	8204.5875
762.8418	9338.3875
766.73354	11293.8875
770.62254	13345.8875
774.50882	14363.6875
778.39237	13675.2875
782.27321	11567.0875
786.15132	9460.5875
790.02671	8263.4875
793.89938	7728.1875
797.76935	7475.4875
801.6366	7383.4875
805.50115	7300.5875
809.36299	7277.2875
813.22213	7223.6875
817.07857	7214.6875
820.93231	7199.5875
824.78336	7247.0875
828.63172	7296.7875
832.47738	7292.1875
836.32036	7268.5875
840.16066	7191.6875
843.99827	7122.1875
847.8332	7078.2875
851.66546	7056.9875
855.49504	7045.6875
859.32195	7020.0875
863.1462	6975.7875
866.96777	6953.4875
870.78668	6933.2875
874.60293	6928.9875
878.41652	6939.9875
882.22745	6955.7875
886.03573	7030.9875
889.84136	6995.7875
893.64433	6936.7875
897.44466	6914.8875
901.24235	6927.5875
905.0374	6905.7875
908.8298	6866.4875
912.61957	6875.0875
916.40671	6933.1875
920.19121	7011.8875
923.97308	7089.2875
927.75233	7151.4875
931.52895	7241.4875
935.30295	7129.4875
939.07433	6844.5875
942.84309	6603.4875
946.60924	6448.8875
950.37278	6370.6875
954.13371	6322.1875
957.89203	6286.6875
961.64774	6273.2875
965.40086	6254.0875
969.15137	6212.3875
972.89929	6191.2875
976.64461	6180.1875
980.38733	6161.1875
984.12747	6165.4875
987.86502	6186.6875
991.59999	6209.9875
995.33237	6263.6875
999.06217	6384.5875
1002.78939	6551.2875
1006.51404	6703.0875
1010.23611	6881.6875
1013.95561	6989.7875
1017.67255	6940.6875
1021.38692	6808.0875
1025.09872	6698.8875
1028.80796	6611.0875
1032.51465	6617.4875
1036.21877	6698.0875
1039.92035	6834.4875
1043.61937	6906.8875
1047.31584	6948.1875
1051.00976	6948.3875
1054.70114	6960.6875
1058.38998	6971.5875
1062.07627	7021.8875
1065.76003	7109.2875
1069.44126	7145.4875
1073.11995	7204.8875
1076.79611	7321.2875
1080.46974	7455.7875
1084.14085	7668.8875
1087.80943	7941.1875
1091.47549	8106.8875
1095.13903	7960.5875
1098.80005	7640.9875
1102.45857	7325.5875
1106.11456	7131.5875
1109.76805	7128.3875
1113.41903	7293.7875
1117.06751	7555.1875
1120.71348	8004.8875
1124.35696	8444.4875
1127.99793	8893.2875
1131.63641	8869.0875
1135.2724	8316.0875
1138.90589	7816.7875
1142.5369	7528.3875
1146.16542	7356.1875
1149.79145	7301.4875
1153.415	7297.4875
1157.03607	7393.2875
1160.65467	7610.0875
1164.27079	7933.7875
1167.88443	8442.5875
1171.49561	9308.8875
1175.10432	10784.2875
1178.71056	12645.9875
1182.31434	13822.5875
1185.91565	13894.5875
1189.51451	13331.0875
1193.11091	12428.3875
1196.70485	11452.1875
1200.29634	10720.6875
1203.88538	10126.2875
1207.47197	9400.0875
1211.05612	8775.4875
1214.63782	8411.7875
1218.21708	8296.6875
1221.79391	8276.2875
1225.36829	8340.1875
1228.94024	8376.7875
1232.50976	8405.6875
1236.07685	8409.5875
1239.6415	8404.6875
1243.20374	8424.8875
1246.76355	8476.4875
1250.32093	8603.8875
1253.8759	8808.2875
1257.42845	9100.7875
1260.97859	9428.9875
1264.52631	9772.1875
1268.07163	10100.1875
1271.61453	10418.1875
1275.15503	10625.0875
1278.69312	10682.5875
1282.22882	10662.8875
1285.76211	10874.7875
1289.29301	11294.2875
1292.82151	11744.3875
1296.34761	12206.2875
1299.87133	12869.0875
1303.39266	14021.8875
1306.9116	15816.6875
1310.42815	17991.3875
1313.94233	19411.4875
1317.45412	19221.9875
1320.96354	17881.9875
1324.47058	16318.0875
1327.97525	14962.0875
1331.47754	14103.3875
1334.97747	13695.3875
1338.47502	13667.9875
1341.97022	13898.7875
1345.46305	14374.2875
1348.95352	15207.2875
1352.44163	16445.9875
1355.92738	18137.0875
1359.41078	20996.2875
1362.89183	23956.2875
1366.37053	23461.1875
1369.84688	19660.8875
1373.32088	15817.7875
1376.79254	13397.8875
1380.26186	12214.2875
1383.72883	11617.8875
1387.19347	11180.4875
1390.65578	10764.3875
1394.11575	10416.7875
1397.57339	10244.7875
1401.0287	10223.2875
1404.48168	10315.2875
1407.93234	10390.5875
1411.38068	10402.0875
1414.82669	10277.0875
1418.27039	10008.3875
1421.71177	9729.9875
1425.15083	9411.8875
1428.58758	9189.1875
1432.02203	9136.1875
1435.45416	9208.3875
1438.88399	9290.8875
1442.31151	9318.7875
1445.73673	9380.2875
1449.15965	9487.8875
1452.58027	9524.2875
1455.9986	9516.5875
1459.41463	9577.2875
1462.82837	9699.6875
1466.23982	9907.9875
1469.64898	10180.7875
1473.05586	10338.9875
1476.46045	10437.8875
1479.86276	10572.3875
1483.26279	10827.6875
1486.66054	11116.1875
1490.05602	11481.8875
1493.44922	12086.0875
1496.84016	13025.2875
1500.22882	14569.4875
1503.61521	16634.2875
1506.99934	18967.3875
1510.38121	21319.6875
1513.76081	22776.7875
1517.13816	22026.3875
1520.51324	19279.3875
1523.88607	16261.0875
1527.25665	14117.7875
1530.62498	12869.6875
1533.99105	12138.1875
1537.35488	11671.4875
1540.71647	11341.9875
1544.07581	11141.6875
1547.4329	10980.5875
1550.78776	10911.4875
1554.14038	10877.5875
1557.49077	11027.4875
1560.83892	11334.0875
1564.18484	11749.9875
1567.52853	12222.7875
1570.86999	12613.6875
1574.20922	12849.2875
1577.54624	12736.4875
1580.88103	12037.8875
1584.2136	11067.3875
1587.54395	10480.9875
1590.87208	10515.7875
1594.19801	11021.4875
1597.52172	11813.9875
1600.84321	12138.2875
1604.16251	11586.7875
1607.47959	10753.5875
1610.79447	9921.9875
1614.10715	9105.8875
1617.41763	8417.4875
1620.7259	7960.5875
1624.03199	7732.9875
1627.33587	7702.5875
1630.63757	7830.9875
1633.93707	8177.1875
1637.23439	8810.0875
1640.52951	9775.5875
1643.82246	11177.3875
1647.11321	13002.8875
1650.40179	14520.9875
1653.68819	14496.7875
1656.97241	12618.7875
1660.25446	10239.3875
1663.53433	8448.0875
1666.81203	7369.9875
1670.08756	6741.9875
1673.36092	6344.5875
1676.63211	6137.2875
1679.90115	5935.3875
1683.16801	5832.4875
1686.43272	5742.1875
1689.69527	5668.6875
1692.95567	5609.9875
1696.2139	5582.4875
1699.46999	5570.0875
1702.72392	5546.8875
1705.97571	5510.4875
1709.22535	5460.7875
1712.47284	5462.6875
1715.71819	5465.8875
1718.96139	5461.6875
1722.20246	5435.4875
1725.44139	5438.3875
1728.67818	5381.8875
1731.91284	5305.4875
1735.14537	5257.9875
1738.37576	5231.2875
1741.60403	5190.9875
1744.83017	5165.8875
1748.05418	5142.3875
1751.27607	5134.5875
1754.49584	5141.7875
1757.71349	5130.6875
1760.92903	5111.2875
1764.14244	5086.5875
1767.35375	5060.0875
1770.56294	5064.7875
1773.77002	5022.1875
1776.97499	5017.1875
1780.17785	4956.3875
1783.37861	4924.7875
1786.57727	4905.4875
1789.77382	4886.6875
1792.96828	4890.7875
1796.16064	4888.4875
1799.3509	4860.3875
1802.53907	4843.6875
1805.72514	4813.8875
1808.90913	4810.1875
1812.09102	4796.5875
1815.27083	4747.0875
1818.44856	4746.5875
1821.6242	4743.4875
1824.79776	4719.0875
1827.96924	4727.5875
1831.13864	4716.4875
1834.30597	4724.5875
1837.47122	4703.6875
1840.6344	4692.8875
1843.7955	4710.9875
1846.95454	4684.1875
1850.11151	4698.3875
1853.26642	4685.6875
1856.41926	4675.9875
1859.57004	4669.4875
1862.71876	4679.3875
1865.86542	4653.3875
1869.01003	4673.7875
1872.15258	4670.9875
1875.29308	4656.9875
1878.43152	4649.0875
1881.56792	4667.9875
1884.70227	4645.0875
1887.83457	4658.2875
1890.96482	4658.4875
1894.09304	4656.9875
1897.21921	4664.5875
1900.34335	4642.4875
1903.46544	4662.8875
1906.58551	4670.9875
1909.70353	4667.2875
1912.81953	4667.2875
1915.93349	4668.0875
1919.04543	4662.6875
1922.15534	4628.5875
1925.26322	4642.2875
1928.36908	4628.3875
1931.47292	4592.5875
1934.57473	4568.0875
1937.67453	4547.5875
1940.77232	4503.2875
1943.86808	4493.2875
1946.96184	4461.5875
1950.05358	4428.5875
1953.14331	4425.7875
1956.23103	4414.3875
1959.31675	4379.3875
1962.40046	4377.1875
1965.48217	4382.0875
1968.56188	4351.6875
1971.63959	4345.7875
1974.7153	4330.0875
1977.78901	4319.6875
1980.86073	4298.3875
1983.93046	4277.3875
1986.99819	4258.0875
1990.06394	4247.1875
1993.1277	4205.7875
1996.18947	4213.9875
1999.24925	4204.6875
2002.30706	4177.3875
2005.36288	4156.6875
2008.41672	4147.6875
2011.46859	4127.8875
2014.51848	4107.7875
2017.56639	4104.8875
2020.61233	4106.0875
2023.6563	4082.4875
2026.6983	4103.7875
2029.73833	4055.7875
2032.7764	4063.6875
2035.8125	4049.8875
2038.84664	4024.9875
2041.87881	4019.5875
2044.90903	4006.5875
2047.93729	4011.4875
2050.96359	3998.5875
2053.98794	3985.2875
2057.01034	3976.5875
2060.03078	3985.4875
2063.04927	3959.7875
2066.06582	3974.2875
2069.08042	3958.2875
2072.09307	3947.2875
2075.10378	3954.0875
2078.11255	3949.2875
2081.11938	3949.5875
2084.12426	3942.2875
2087.12722	3933.0875
2090.12824	3926.4875
2093.12732	3936.7875
2096.12447	3926.5875
2099.11969	3925.4875
2102.11299	3941.5875
2105.10435	3937.5875
2108.09379	3919.5875
2111.08131	3944.5875
2114.0669	3948.0875
2117.05057	3935.0875
2120.03233	3939.4875
2123.01216	3938.8875
2125.99008	3947.9875
2128.96609	3941.1875
2131.94018	3945.2875
2134.91236	3946.2875
2137.88263	3929.4875
2140.851	3939.5875
2143.81746	3947.0875
2146.78201	3921.5875
2149.74466	3935.6875
2152.7054	3930.2875
2155.66425	3908.9875
2158.6212	3907.3875
2161.57625	3907.9875
2164.52941	3889.5875
2167.48067	3897.9875
2170.43004	3898.8875
2173.37752	3896.7875
2176.32311	3889.8875
2179.26681	3898.2875
2182.20863	3907.9875
2185.14856	3889.9875
2188.08661	3893.0875
2191.02278	3881.5875
2193.95707	3867.5875
2196.88948	3863.8875
2199.82001	3857.4875
2202.74867	3849.9875
2205.67545	3848.7875
2208.60037	3845.4875
2211.52341	3840.7875
2214.44458	3822.3875
2217.36388	3817.5875
2220.28132	3823.3875
2223.1969	3809.9875
2226.11061	3794.8875
2229.02246	3783.7875
2231.93245	3776.8875
2234.84058	3754.1875
2237.74686	3757.9875
2240.65128	3747.6875
2243.55385	3737.4875
2246.45456	3739.3875
2249.35343	3735.5875
2252.25044	3717.8875
2255.14561	3720.3875
2258.03893	3732.8875
2260.93041	3737.5875
2263.82004	3732.4875
2266.70783	3720.8875
2269.59378	3707.2875
2272.4779	3691.7875
2275.36017	3678.0875
2278.24061	3667.9875
2281.11922	3654.0875
2283.996	3648.3875
2286.87094	3639.6875
2289.74405	3621.7875
2292.61534	3610.7875
2295.4848	3613.5875
2298.35243	3618.0875
2301.21824	3585.2875
2304.08223	3590.1875
2306.94439	3592.4875
2309.80474	3590.6875
2312.66327	3591.6875
2315.51999	3583.5875
2318.37489	3570.9875
2321.22797	3569.9875
2324.07925	3587.4875
2326.92871	3561.5875
2329.77637	3570.1875
2332.62222	3563.3875
2335.46626	3545.9875
2338.3085	3546.3875
2341.14893	3543.6875
2343.98756	3545.2875
2346.8244	3558.2875
2349.65943	3544.2875
2352.49267	3541.1875
2355.32411	3560.1875
2358.15376	3551.6875
2360.98161	3574.9875
2363.80768	3592.9875
2366.63195	3583.3875
2369.45444	3581.3875
2372.27514	3574.7875
2375.09405	3589.3875
2377.91118	3560.0875
2380.72652	3553.2875
2383.54009	3530.7875
2386.35187	3523.9875
2389.16188	3484.4875
2391.97011	3495.7875
2394.77657	3464.6875
2397.58125	3455.8875
2400.38416	3434.2875
2403.18529	3426.9875
2405.98466	3430.3875
2408.78226	3423.1875
2411.57809	3430.9875
2414.37216	3407.1875
2417.16446	3404.0875
2419.955	3410.7875
2422.74378	3405.8875
2425.5308	3391.1875
2428.31606	3406.6875
2431.09956	3400.1875
2433.88131	3388.2875
2436.6613	3393.9875
2439.43954	3386.5875
2442.21603	3385.8875
2444.99077	3382.0875
2447.76377	3390.9875
2450.53501	3395.3875
2453.30451	3406.0875
2456.07226	3402.0875
2458.83827	3393.8875
2461.60254	3393.2875
2464.36507	3383.9875
2467.12586	3381.0875
2469.88492	3383.1875
2472.64224	3387.9875
2475.39782	3384.6875
2478.15167	3391.0875
2480.90379	3395.1875
2483.65417	3405.7875
2486.40283	3403.8875
2489.14976	3422.9875
2491.89497	3435.0875
2494.63845	3426.5875
2497.3802	3429.3875
2500.12024	3422.3875
2502.85855	3420.0875
2505.59514	3408.2875
2508.33002	3393.9875
2511.06318	3373.6875
2513.79462	3344.3875
2516.52435	3337.6875
2519.25237	3318.5875
2521.97867	3302.5875
2524.70327	3292.6875
2527.42616	3286.8875
2530.14734	3283.3875
2532.86681	3273.5875
2535.58458	3285.5875
2538.30065	3272.3875
2541.01501	3269.5875
2543.72768	3266.4875
2546.43864	3267.6875
2549.14791	3270.2875
2551.85548	3254.2875
2554.56136	3265.4875
2557.26554	3261.9875
2559.96803	3252.7875
2562.66883	3236.0875
2565.36794	3239.6875
2568.06536	3245.6875
2570.7611	3225.6875
2573.45514	3230.6875
2576.14751	3225.4875
2578.83819	3206.2875
2581.52719	3203.4875
2584.21451	3209.2875
2586.90015	3187.4875
2589.58411	3194.7875
2592.2664	3182.2875
2594.94701	3185.1875
2597.62594	3187.5875
2600.30321	3173.6875
2602.9788	3169.7875
2605.65273	3176.8875
2608.32498	3160.8875
2610.99557	3165.2875
2613.66449	3171.7875
2616.33175	3161.2875
2618.99734	3160.7875
2621.66128	3150.3875
2624.32355	3156.6875
2626.98416	3152.6875
2629.64311	3160.3875
2632.30041	3148.3875
2634.95605	3146.9875
2637.61004	3134.1875
2640.26238	3115.4875
2642.91306	3111.0875
2645.56209	3112.0875
2648.20948	3127.6875
2650.85521	3104.7875
2653.4993	3107.4875
2656.14175	3099.7875
2658.78255	3111.7875
2661.42171	3107.8875
2664.05923	3115.7875
2666.6951	3113.8875
2669.32934	3126.1875
2671.96194	3132.1875
2674.59291	3143.9875
2677.22224	3141.8875
2679.84993	3136.6875
2682.476	3125.9875
2685.10043	3144.5875
2687.72324	3125.5875
2690.34441	3146.2875
2692.96396	3143.9875
2695.58188	3132.9875
2698.19818	3129.7875
2700.81285	3133.0875
2703.4259	3159.4875
2706.03733	3176.8875
2708.64714	3156.9875
2711.25533	3163.0875
2713.86191	3151.0875
2716.46687	3168.9875
2719.07021	3162.1875
2721.67194	3173.7875
2724.27206	3164.5875
2726.87057	3165.9875
2729.46747	3159.7875
2732.06276	3152.1875
2734.65644	3157.4875
2737.24852	3146.0875
2739.83899	3140.6875
2742.42786	3134.7875
2745.01513	3117.5875
2747.60079	3115.0875
2750.18486	3101.3875
2752.76733	3113.0875
2755.3482	3098.5875
2757.92747	3102.4875
2760.50515	3088.0875
2763.08123	3100.3875
2765.65573	3075.4875
2768.22863	3071.8875
2770.79994	3086.9875
2773.36967	3057.8875
2775.9378	3087.9875
2778.50435	3069.4875
2781.06932	3053.6875
2783.6327	3071.7875
2786.1945	3066.5875
2788.75471	3064.7875
2791.31335	3063.7875
2793.87041	3079.9875
2796.42589	3079.0875
2798.97979	3057.7875
2801.53212	3073.9875
2804.08288	3078.8875
2806.63206	3063.9875
2809.17967	3073.3875
2811.72571	3084.7875
2814.27018	3083.5875
2816.81308	3099.0875
2819.35442	3096.2875
2821.89419	3107.5875
2824.43239	3100.4875
2826.96904	3107.9875
2829.50412	3113.9875
2832.03763	3128.9875
2834.56959	3143.6875
2837.1	3148.4875
2839.62884	3199.9875
2842.15613	3240.5875
2844.68186	3313.1875
2847.20604	3398.6875
2849.72867	3468.3875
2852.24974	3500.8875
2854.76927	3503.8875
2857.28724	3494.4875
2859.80367	3466.5875
2862.31855	3453.5875
2864.83189	3428.4875
2867.34368	3411.7875
2869.85393	3417.7875
2872.36264	3416.5875
2874.8698	3412.6875
2877.37543	3403.4875
2879.87952	3405.3875
2882.38207	3409.3875
2884.88308	3389.3875
2887.38256	3400.8875
2889.88051	3381.9875
2892.37692	3398.7875
2894.8718	3407.4875
2897.36515	3404.4875
2899.85698	3407.0875
2902.34727	3419.6875
2904.83604	3415.1875
2907.32328	3426.5875
2909.809	3424.0875
2912.29319	3419.7875
2914.77587	3412.4875
2917.25702	3408.5875
2919.73665	3398.5875
2922.21476	3401.1875
2924.69136	3395.6875
2927.16644	3391.4875
2929.64	3375.4875
2932.11205	3359.1875
2934.58258	3341.0875
2937.05161	3325.6875
2939.51912	3311.4875
2941.98513	3263.7875
2944.44962	3225.7875
2946.91261	3176.1875
2949.37409	3142.5875
2951.83407	3107.7875
2954.29254	3084.0875
2956.74951	3066.5875
2959.20498	3063.3875
2961.65895	3031.3875
2964.11142	3037.9875
2966.56239	3008.5875
2969.01186	3007.7875
2971.45984	2977.9875
2973.90632	2961.8875
2976.35131	2945.8875
2978.7948	2932.4875
2981.23681	2921.5875
2983.67732	2913.0875
2986.11635	2908.5875
2988.55388	2894.9875
2990.98993	2895.5875
2993.4245	2867.8875
2995.85758	2868.5875
2998.28917	2850.0875
3000.71928	2868.9875
3003.14791	2855.9875
3005.57506	2848.8875
3008.00073	2828.7875
3010.42493	2831.2875
3012.84764	2831.5875
3015.26888	2834.6875
3017.68865	2824.5875
3020.10694	2810.7875
3022.52376	2820.1875
3024.9391	2799.0875
3027.35298	2818.5875
3029.76539	2807.3875
3032.17632	2807.8875
3034.5858	2789.3875
3036.9938	2794.8875
3039.40034	2791.5875
3041.80542	2775.9875
3044.20903	2763.8875
3046.61118	2776.4875
3049.01187	2771.3875
3051.4111	2762.5875
3053.80888	2770.4875
3056.20519	2767.6875
3058.60005	2761.4875
3060.99345	2763.1875
3063.3854	2766.7875
3065.7759	2769.2875
3068.16494	2767.0875
3070.55254	2739.6875
3072.93868	2753.2875
3075.32338	2732.7875
3077.70662	2724.5875
3080.08842	2715.9875
3082.46878	2701.8875
3084.84769	2705.7875
3087.22515	2706.0875
3089.60118	2686.0875
3091.97576	2690.1875
3094.3489	2694.3875
3096.72061	2692.0875
3099.09087	2678.0875
3101.4597	2676.0875
3103.82709	2682.2875
3106.19305	2670.2875
3108.55757	2668.7875
3110.92066	2668.1875
3113.28232	2666.9875
3115.64255	2665.4875
3118.00134	2666.1875
3120.35871	2662.5875
3122.71466	2649.8875
3125.06917	2661.2875
3127.42226	2656.0875
3129.77393	2662.5875
3132.12417	2669.3875
3134.47299	2677.4875
3136.82039	2676.6875
3139.16636	2672.9875
3141.51092	2683.7875
3143.85406	2698.0875
3146.19579	2705.6875
3148.53609	2714.5875
3150.87499	2708.6875
3153.21246	2708.1875
3155.54853	2722.3875
3157.88318	2723.1875
3160.21642	2728.6875
3162.54826	2727.4875
3164.87868	2727.4875
3167.2077	2734.6875
3169.5353	2727.6875
3171.86151	2735.8875
3174.18631	2738.6875
3176.5097	2744.9875
3178.83169	2737.0875
3181.15228	2740.9875
3183.47147	2739.4875
3185.78926	2738.0875
3188.10565	2743.1875
3190.42065	2755.7875
3192.73424	2746.5875
3195.04645	2750.3875
3197.35725	2769.1875
3199.66667	2766.3875
3201.97469	2772.0875
3204.28132	2763.1875
3206.58656	2791.7875
3208.8904	2795.2875
3211.19287	2796.5875
3213.49394	2796.2875
3215.79363	2792.9875
3218.09193	2802.0875
3220.38884	2818.3875
3222.68438	2815.8875
3224.97853	2812.6875
3227.2713	2794.4875
3229.56269	2793.0875
3231.8527	2810.6875
3234.14133	2797.0875
3236.42858	2779.5875
3238.71446	2788.0875
3240.99896	2783.6875
3243.28209	2789.1875
3245.56384	2771.4875
3247.84423	2790.5875
3250.12324	2779.8875
3252.40088	2772.9875
3254.67715	2767.9875
3256.95205	2779.2875
3259.22558	2774.6875
3261.49775	2763.9875
3263.76855	2759.6875
3266.03799	2761.0875
3268.30606	2747.5875
3270.57277	2744.7875
3272.83812	2747.0875
3275.10211	2732.2875
3277.36474	2737.9875
3279.62601	2734.5875
3281.88593	2715.9875
3284.14448	2741.4875
3286.40168	2731.9875
3288.65753	2733.2875
3290.91202	2736.7875
3293.16516	2725.9875
3295.41695	2714.7875
3297.66738	2700.0875
3299.91647	2682.7875
3302.16421	2683.7875
3304.4106	2667.6875
3306.65564	2649.7875
3308.89933	2640.7875
3311.14169	2622.8875
3313.38269	2601.1875
3315.62236	2582.9875
3317.86068	2559.4875
3320.09766	2531.5875
3322.3333	2516.9875
3324.5676	2518.8875
3326.80056	2471.0875
3329.03219	2462.3875
3331.26248	0.0875
3333.49143	-0.6125
3335.71905	-0.4125
