Data from AgNPs_FTO_APTES_UA_2uM_CRN_500uM_R6G_10uM_NaF_0.1M_Addition_RamanShift__26__17-28-55-429.txt Node

Date: Wed Feb 02 17:28:55 GMT 2022
User: TCL
Spectrometer: QEP01345
Trigger mode: 4
Integration Time (sec): 7.000000E0
Scans to average: 10
Electric dark correction enabled: true
Nonlinearity correction enabled: false
Boxcar width: 0
XAxis mode: Raman Shifts
Number of Pixels in Spectrum: 1044
>>>>>Begin Spectral Data<<<<<
46.04893	0.3375
50.45542	0.2375
54.85868	-0.8625
59.25871	-0.8625
63.6555	69.6375
68.04907	76.0375
72.43941	80.1375
76.82654	83.1375
81.21044	89.8375
85.59113	90.1375
89.96862	92.5375
94.34289	96.5375
98.71396	99.8375
103.08183	107.3375
107.4465	107.4375
111.80798	109.7375
116.16626	111.4375
120.52136	115.6375
124.87327	119.9375
129.222	129.2375
133.56755	136.2375
137.90993	143.1375
142.24913	162.4375
146.58517	186.2375
150.91804	211.1375
155.24774	258.5375
159.57429	316.8375
163.89768	406.0375
168.21792	540.7375
172.53501	746.0375
176.84895	1041.6375
181.15975	1451.1375
185.46741	2041.3375
189.77193	2802.8375
194.07331	3743.0375
198.37157	4843.3375
202.6667	5972.1375
206.9587	7114.6375
211.24758	8261.5375
215.53334	9408.1375
219.81599	10694.1375
224.09553	12071.0375
228.37195	13609.0375
232.64527	15283.7375
236.91549	16957.7375
241.18261	18582.0375
245.44663	19984.3375
249.70755	21268.0375
253.96539	22352.8375
258.22014	23373.0375
262.4718	24182.4375
266.72039	24815.5375
270.96589	25253.1375
275.20832	25428.2375
279.44768	25416.6375
283.68397	25280.3375
287.91719	25222.3375
292.14735	25331.7375
296.37445	25697.2375
300.59849	26171.5375
304.81948	26617.6375
309.03742	26733.3375
313.25231	26333.8375
317.46415	25174.2375
321.67296	23672.7375
325.87872	22413.9375
330.08145	21780.8375
334.28114	21679.6375
338.47781	21880.0375
342.67145	22285.9375
346.86207	22949.1375
351.04966	23827.0375
355.23424	24860.2375
359.4158	25734.6375
363.59435	26062.7375
367.76989	26249.6375
371.94243	26240.2375
376.11196	26160.8375
380.27849	26166.9375
384.44203	26153.0375
388.60257	26084.7375
392.76012	26070.3375
396.91468	26341.8375
401.06626	26859.6375
405.21485	27211.5375
409.36047	26948.3375
413.50311	26000.7375
417.64277	25124.0375
421.77947	24710.5375
425.9132	24621.2375
430.04396	24767.9375
434.17176	24986.6375
438.2966	25327.6375
442.41849	25944.4375
446.53742	26741.6375
450.6534	27653.1375
454.76644	28275.7375
458.87653	28434.7375
462.98368	28294.5375
467.08789	28048.3375
471.18916	27724.8375
475.2875	27592.1375
479.38291	27495.4375
483.4754	27342.7375
487.56496	26848.3375
491.6516	26105.0375
495.73531	25523.4375
499.81612	25146.2375
503.89401	25173.6375
507.96899	25249.7375
512.04106	25227.4375
516.11023	25233.2375
520.1765	25156.0375
524.23987	24939.0375
528.30034	24551.1375
532.35792	24196.6375
536.41261	23850.3375
540.46441	23515.8375
544.51333	23456.5375
548.55936	23835.4375
552.60252	24491.7375
556.64279	25389.0375
560.6802	25998.9375
564.71473	26566.3375
568.7464	27617.3375
572.7752	28484.8375
576.80114	28257.9375
580.82422	27507.3375
584.84444	27082.3375
588.86181	27068.7375
592.87633	27322.8375
596.888	27607.6375
600.89682	27891.5375
604.9028	29446.8375
608.90594	34219.3375
612.90624	40477.2375
616.90371	38721.9375
620.89834	29260.4375
624.89015	24682.0375
628.87913	23864.9375
632.86528	24067.4375
636.84862	24273.7375
640.82913	23844.8375
644.80683	22913.8375
648.78172	22222.8375
652.75379	22088.1375
656.72306	22576.5375
660.68952	23334.0375
664.65319	23315.9375
668.61405	22530.8375
672.57211	22194.6375
676.52738	22214.3375
680.47986	22245.3375
684.42955	22156.7375
688.37646	22032.2375
692.32058	22136.0375
696.26192	22317.6375
700.20048	22616.6375
704.13626	22823.5375
708.06928	22810.3375
711.99952	22634.0375
715.927	22521.3375
719.85171	22532.0375
723.77365	22459.9375
727.69284	22312.4375
731.60928	22064.7375
735.52295	22015.6375
739.43388	22026.7375
743.34206	22078.3375
747.24749	22191.4375
751.15017	22397.5375
755.05012	22832.4375
758.94733	23804.7375
762.8418	25815.7375
766.73354	29100.3375
770.62254	32393.8375
774.50882	33701.9375
778.39237	31930.9375
782.27321	28272.8375
786.15132	24963.4375
790.02671	23036.7375
793.89938	22150.3375
797.76935	21823.1375
801.6366	21655.0375
805.50115	21595.9375
809.36299	21497.3375
813.22213	21411.5375
817.07857	21434.1375
820.93231	21458.1375
824.78336	21371.5375
828.63172	21381.9375
832.47738	21306.2375
836.32036	21287.4375
840.16066	21175.4375
843.99827	21059.5375
847.8332	21026.4375
851.66546	20936.0375
855.49504	20870.1375
859.32195	20820.3375
863.1462	20776.4375
866.96777	20692.3375
870.78668	20661.8375
874.60293	20659.3375
878.41652	20684.2375
882.22745	20766.4375
886.03573	20838.8375
889.84136	20783.2375
893.64433	20673.6375
897.44466	20584.5375
901.24235	20523.6375
905.0374	20459.9375
908.8298	20401.2375
912.61957	20421.7375
916.40671	20623.3375
920.19121	20877.9375
923.97308	21043.4375
927.75233	21097.5375
931.52895	21076.6375
935.30295	20826.8375
939.07433	20355.9375
942.84309	19877.8375
946.60924	19567.2375
950.37278	19464.0375
954.13371	19368.9375
957.89203	19352.8375
961.64774	19344.8375
965.40086	19298.8375
969.15137	19235.3375
972.89929	19101.0375
976.64461	18974.3375
980.38733	18943.9375
984.12747	18967.0375
987.86502	19060.2375
991.59999	19230.9375
995.33237	19491.6375
999.06217	19954.1375
1002.78939	20602.2375
1006.51404	21090.1375
1010.23611	21468.0375
1013.95561	21663.2375
1017.67255	21576.2375
1021.38692	21265.7375
1025.09872	20878.6375
1028.80796	20724.1375
1032.51465	20843.7375
1036.21877	21054.6375
1039.92035	21177.4375
1043.61937	21121.9375
1047.31584	20992.3375
1051.00976	20828.4375
1054.70114	20819.0375
1058.38998	20888.1375
1062.07627	21097.8375
1065.76003	21317.5375
1069.44126	21459.6375
1073.11995	21630.8375
1076.79611	21801.9375
1080.46974	21999.0375
1084.14085	22318.9375
1087.80943	22752.5375
1091.47549	23054.8375
1095.13903	23011.3375
1098.80005	22555.4375
1102.45857	22001.2375
1106.11456	21621.1375
1109.76805	21564.6375
1113.41903	21827.3375
1117.06751	22271.2375
1120.71348	22855.4375
1124.35696	23482.0375
1127.99793	24104.9375
1131.63641	24155.4375
1135.2724	23537.8375
1138.90589	22902.4375
1142.5369	22575.6375
1146.16542	22503.0375
1149.79145	22544.1375
1153.415	22784.2375
1157.03607	23132.8375
1160.65467	23779.3375
1164.27079	24762.4375
1167.88443	26209.9375
1171.49561	28211.9375
1175.10432	31207.8375
1178.71056	35035.0375
1182.31434	38163.1375
1185.91565	39436.0375
1189.51451	39091.1375
1193.11091	37773.6375
1196.70485	35918.1375
1200.29634	34264.5375
1203.88538	32826.0375
1207.47197	31408.3375
1211.05612	30181.1375
1214.63782	29287.6375
1218.21708	28757.0375
1221.79391	28382.0375
1225.36829	28057.2375
1228.94024	27592.8375
1232.50976	27156.0375
1236.07685	26886.6375
1239.6415	26787.3375
1243.20374	26803.4375
1246.76355	27007.7375
1250.32093	27419.5375
1253.8759	28118.8375
1257.42845	28879.2375
1260.97859	29776.5375
1264.52631	30603.0375
1268.07163	31363.8375
1271.61453	32255.3375
1275.15503	33028.1375
1278.69312	33694.1375
1282.22882	34160.9375
1285.76211	34985.7375
1289.29301	36328.6375
1292.82151	38006.1375
1296.34761	40069.7375
1299.87133	42618.9375
1303.39266	45704.7375
1306.9116	49622.1375
1310.42815	53832.8375
1313.94233	56902.1375
1317.45412	57433.0375
1320.96354	56125.7375
1324.47058	54243.1375
1327.97525	52383.9375
1331.47754	51107.2375
1334.97747	50527.8375
1338.47502	50555.0375
1341.97022	50720.6375
1345.46305	50490.4375
1348.95352	49825.7375
1352.44163	49779.7375
1355.92738	50941.8375
1359.41078	54361.2375
1362.89183	58376.1375
1366.37053	57451.6375
1369.84688	50894.2375
1373.32088	43815.5375
1376.79254	39394.3375
1380.26186	37708.5375
1383.72883	37411.4375
1387.19347	37486.8375
1390.65578	37511.3375
1394.11575	37806.9375
1397.57339	38622.3375
1401.0287	39791.1375
1404.48168	40942.8375
1407.93234	41488.4375
1411.38068	41272.0375
1414.82669	39933.2375
1418.27039	37872.1375
1421.71177	35630.9375
1425.15083	33605.1375
1428.58758	32348.6375
1432.02203	32000.9375
1435.45416	32350.8375
1438.88399	33056.4375
1442.31151	33795.8375
1445.73673	34520.1375
1449.15965	35461.1375
1452.58027	36192.6375
1455.9986	36748.4375
1459.41463	37226.2375
1462.82837	37819.3375
1466.23982	38580.8375
1469.64898	39140.9375
1473.05586	39327.1375
1476.46045	39026.3375
1479.86276	38659.0375
1483.26279	38322.8375
1486.66054	38120.7375
1490.05602	38156.6375
1493.44922	38452.6375
1496.84016	38938.7375
1500.22882	40214.1375
1503.61521	42509.5375
1506.99934	45511.3375
1510.38121	48888.4375
1513.76081	51020.8375
1517.13816	50082.7375
1520.51324	46418.4375
1523.88607	42426.2375
1527.25665	39629.9375
1530.62498	38164.9375
1533.99105	37585.7375
1537.35488	37210.6375
1540.71647	36799.7375
1544.07581	36311.4375
1547.4329	35676.0375
1550.78776	35107.3375
1554.14038	34803.1375
1557.49077	34814.2375
1560.83892	35035.7375
1564.18484	35513.1375
1567.52853	35964.0375
1570.86999	36343.2375
1574.20922	36783.2375
1577.54624	37113.1375
1580.88103	36826.7375
1584.2136	36383.7375
1587.54395	36757.4375
1590.87208	38301.6375
1594.19801	40621.3375
1597.52172	43086.2375
1600.84321	44050.7375
1604.16251	42334.9375
1607.47959	39006.5375
1610.79447	35209.6375
1614.10715	31698.0375
1617.41763	28848.6375
1620.7259	26883.4375
1624.03199	25837.7375
1627.33587	25681.3375
1630.63757	26318.1375
1633.93707	27912.4375
1637.23439	30543.1375
1640.52951	34260.7375
1643.82246	38821.2375
1647.11321	43328.6375
1650.40179	45614.5375
1653.68819	43788.3375
1656.97241	38173.1375
1660.25446	31818.9375
1663.53433	26953.5375
1666.81203	23763.4375
1670.08756	21782.7375
1673.36092	20555.2375
1676.63211	19793.4375
1679.90115	19283.9375
1683.16801	18852.6375
1686.43272	18617.4375
1689.69527	18383.8375
1692.95567	18214.6375
1696.2139	18107.5375
1699.46999	18060.6375
1702.72392	17971.3375
1705.97571	17925.6375
1709.22535	17841.5375
1712.47284	17803.3375
1715.71819	17767.4375
1718.96139	17746.5375
1722.20246	17629.5375
1725.44139	17544.8375
1728.67818	17419.3375
1731.91284	17360.8375
1735.14537	17274.0375
1738.37576	17157.4375
1741.60403	17097.5375
1744.83017	17038.1375
1748.05418	17020.3375
1751.27607	16981.1375
1754.49584	16939.9375
1757.71349	16933.0375
1760.92903	16894.2375
1764.14244	16875.0375
1767.35375	16858.1375
1770.56294	16834.7375
1773.77002	16785.6375
1776.97499	16713.4375
1780.17785	16658.5375
1783.37861	16649.1375
1786.57727	16603.7375
1789.77382	16551.7375
1792.96828	16533.4375
1796.16064	16484.5375
1799.3509	16488.1375
1802.53907	16447.9375
1805.72514	16416.6375
1808.90913	16339.1375
1812.09102	16286.8375
1815.27083	16252.4375
1818.44856	16238.6375
1821.6242	16191.4375
1824.79776	16178.4375
1827.96924	16134.4375
1831.13864	16157.0375
1834.30597	16157.1375
1837.47122	16144.7375
1840.6344	16125.5375
1843.7955	16113.1375
1846.95454	16080.0375
1850.11151	16090.7375
1853.26642	16094.9375
1856.41926	16104.3375
1859.57004	16062.1375
1862.71876	16051.6375
1865.86542	16088.2375
1869.01003	16060.0375
1872.15258	16060.2375
1875.29308	16075.8375
1878.43152	16063.0375
1881.56792	16094.4375
1884.70227	16072.0375
1887.83457	16069.7375
1890.96482	16059.6375
1894.09304	16071.5375
1897.21921	16071.2375
1900.34335	16096.4375
1903.46544	16108.4375
1906.58551	16073.2375
1909.70353	16077.0375
1912.81953	16074.6375
1915.93349	16054.9375
1919.04543	15997.7375
1922.15534	15958.3375
1925.26322	15930.3375
1928.36908	15869.2375
1931.47292	15831.4375
1934.57473	15773.5375
1937.67453	15729.7375
1940.77232	15613.6375
1943.86808	15557.2375
1946.96184	15518.4375
1950.05358	15422.9375
1953.14331	15392.8375
1956.23103	15332.4375
1959.31675	15291.7375
1962.40046	15247.4375
1965.48217	15199.3375
1968.56188	15139.7375
1971.63959	15082.4375
1974.7153	15063.6375
1977.78901	15006.1375
1980.86073	14946.5375
1983.93046	14909.8375
1986.99819	14846.9375
1990.06394	14797.6375
1993.1277	14778.0375
1996.18947	14704.0375
1999.24925	14664.1375
2002.30706	14633.1375
2005.36288	14580.7375
2008.41672	14541.6375
2011.46859	14487.8375
2014.51848	14448.9375
2017.56639	14408.2375
2020.61233	14393.9375
2023.6563	14361.8375
2026.6983	14343.2375
2029.73833	14288.0375
2032.7764	14283.1375
2035.8125	14265.0375
2038.84664	14205.3375
2041.87881	14197.5375
2044.90903	14182.3375
2047.93729	14142.1375
2050.96359	14107.2375
2053.98794	14110.7375
2057.01034	14080.2375
2060.03078	14057.7375
2063.04927	14057.0375
2066.06582	14027.1375
2069.08042	14014.3375
2072.09307	14031.9375
2075.10378	13992.2375
2078.11255	13971.2375
2081.11938	13993.8375
2084.12426	13966.4375
2087.12722	13945.9375
2090.12824	13933.5375
2093.12732	13941.7375
2096.12447	13966.0375
2099.11969	13953.0375
2102.11299	13948.7375
2105.10435	13929.5375
2108.09379	13933.9375
2111.08131	13955.6375
2114.0669	13933.2375
2117.05057	13946.7375
2120.03233	13969.9375
2123.01216	13968.3375
2125.99008	13985.2375
2128.96609	13974.2375
2131.94018	13986.5375
2134.91236	13976.4375
2137.88263	13982.9375
2140.851	13973.0375
2143.81746	14010.6375
2146.78201	13983.4375
2149.74466	14002.8375
2152.7054	13971.8375
2155.66425	13940.1375
2158.6212	13957.9375
2161.57625	13961.6375
2164.52941	13944.5375
2167.48067	13938.7375
2170.43004	13927.6375
2173.37752	13925.9375
2176.32311	13950.6375
2179.26681	13940.9375
2182.20863	13917.5375
2185.14856	13944.1375
2188.08661	13910.2375
2191.02278	13907.7375
2193.95707	13887.9375
2196.88948	13865.5375
2199.82001	13857.4375
2202.74867	13853.7375
2205.67545	13857.6375
2208.60037	13834.3375
2211.52341	13811.0375
2214.44458	13807.5375
2217.36388	13778.6375
2220.28132	13745.6375
2223.1969	13740.6375
2226.11061	13706.1375
2229.02246	13671.7375
2231.93245	13658.4375
2234.84058	13606.1375
2237.74686	13596.0375
2240.65128	13590.2375
2243.55385	13554.1375
2246.45456	13542.9375
2249.35343	13495.3375
2252.25044	13479.1375
2255.14561	13473.6375
2258.03893	13467.7375
2260.93041	13445.4375
2263.82004	13398.3375
2266.70783	13375.5375
2269.59378	13328.7375
2272.4779	13334.9375
2275.36017	13279.5375
2278.24061	13253.0375
2281.11922	13227.5375
2283.996	13205.7375
2286.87094	13186.1375
2289.74405	13133.6375
2292.61534	13123.6375
2295.4848	13138.1375
2298.35243	13145.1375
2301.21824	13067.7375
2304.08223	13073.4375
2306.94439	13070.2375
2309.80474	13078.2375
2312.66327	13084.0375
2315.51999	13050.8375
2318.37489	13045.7375
2321.22797	13038.2375
2324.07925	13049.4375
2326.92871	13021.3375
2329.77637	13014.5375
2332.62222	12973.7375
2335.46626	12985.9375
2338.3085	12968.0375
2341.14893	12981.0375
2343.98756	12951.5375
2346.8244	12948.8375
2349.65943	12997.6375
2352.49267	12990.9375
2355.32411	12992.1375
2358.15376	12983.8375
2360.98161	12965.5375
2363.80768	12974.8375
2366.63195	12948.6375
2369.45444	12956.7375
2372.27514	12938.0375
2375.09405	12937.7375
2377.91118	12900.9375
2380.72652	12866.1375
2383.54009	12789.1375
2386.35187	12794.5375
2389.16188	12732.1375
2391.97011	12726.6375
2394.77657	12696.6375
2397.58125	12667.1375
2400.38416	12663.6375
2403.18529	12612.5375
2405.98466	12614.8375
2408.78226	12590.9375
2411.57809	12558.0375
2414.37216	12528.5375
2417.16446	12535.8375
2419.955	12505.9375
2422.74378	12505.5375
2425.5308	12515.2375
2428.31606	12491.7375
2431.09956	12493.9375
2433.88131	12457.8375
2436.6613	12459.3375
2439.43954	12453.6375
2442.21603	12423.8375
2444.99077	12438.6375
2447.76377	12448.6375
2450.53501	12438.3375
2453.30451	12456.3375
2456.07226	12418.8375
2458.83827	12470.8375
2461.60254	12430.3375
2464.36507	12436.5375
2467.12586	12439.5375
2469.88492	12438.5375
2472.64224	12430.4375
2475.39782	12436.9375
2478.15167	12431.7375
2480.90379	12469.1375
2483.65417	12448.1375
2486.40283	12462.0375
2489.14976	12483.7375
2491.89497	12492.9375
2494.63845	12506.4375
2497.3802	12507.1375
2500.12024	12495.1375
2502.85855	12484.8375
2505.59514	12495.2375
2508.33002	12437.9375
2511.06318	12442.3375
2513.79462	12371.7375
2516.52435	12379.4375
2519.25237	12353.8375
2521.97867	12359.5375
2524.70327	12302.2375
2527.42616	12313.9375
2530.14734	12304.1375
2532.86681	12263.5375
2535.58458	12264.7375
2538.30065	12272.9375
2541.01501	12235.5375
2543.72768	12245.8375
2546.43864	12212.4375
2549.14791	12204.2375
2551.85548	12200.7375
2554.56136	12204.1375
2557.26554	12173.2375
2559.96803	12147.2375
2562.66883	12155.7375
2565.36794	12180.1375
2568.06536	12143.4375
2570.7611	12122.7375
2573.45514	12105.4375
2576.14751	12114.1375
2578.83819	12110.9375
2581.52719	12104.4375
2584.21451	12062.3375
2586.90015	12095.0375
2589.58411	12066.1375
2592.2664	12065.7375
2594.94701	12060.7375
2597.62594	12054.1375
2600.30321	12061.3375
2602.9788	12041.1375
2605.65273	12035.2375
2608.32498	12027.8375
2610.99557	12057.1375
2613.66449	12029.3375
2616.33175	12032.7375
2618.99734	12006.1375
2621.66128	12042.4375
2624.32355	12050.2375
2626.98416	12062.7375
2629.64311	12033.9375
2632.30041	12016.4375
2634.95605	12009.8375
2637.61004	12001.4375
2640.26238	11986.6375
2642.91306	11956.6375
2645.56209	11975.6375
2648.20948	11970.0375
2650.85521	11977.3375
2653.4993	11975.4375
2656.14175	11946.2375
2658.78255	11967.2375
2661.42171	11976.0375
2664.05923	12003.8375
2666.6951	12004.5375
2669.32934	12022.9375
2671.96194	12001.9375
2674.59291	12015.3375
2677.22224	12013.6375
2679.84993	11988.4375
2682.476	12022.0375
2685.10043	12026.7375
2687.72324	12019.8375
2690.34441	12026.0375
2692.96396	12009.8375
2695.58188	12020.7375
2698.19818	12009.3375
2700.81285	12006.8375
2703.4259	12028.7375
2706.03733	12038.1375
2708.64714	12017.2375
2711.25533	12027.2375
2713.86191	12026.4375
2716.46687	12039.4375
2719.07021	12039.0375
2721.67194	12058.0375
2724.27206	12064.8375
2726.87057	12056.5375
2729.46747	12057.3375
2732.06276	12071.7375
2734.65644	12045.1375
2737.24852	12072.8375
2739.83899	12018.8375
2742.42786	12047.7375
2745.01513	12023.0375
2747.60079	12017.4375
2750.18486	12016.3375
2752.76733	12041.6375
2755.3482	12020.8375
2757.92747	12027.0375
2760.50515	12044.6375
2763.08123	12017.9375
2765.65573	12031.8375
2768.22863	12029.2375
2770.79994	11959.3375
2773.36967	11996.0375
2775.9378	11986.9375
2778.50435	12008.7375
2781.06932	11991.9375
2783.6327	11969.2375
2786.1945	11982.8375
2788.75471	11951.3375
2791.31335	11960.8375
2793.87041	11950.9375
2796.42589	11886.8375
2798.97979	11879.2375
2801.53212	11879.2375
2804.08288	11893.2375
2806.63206	11847.5375
2809.17967	11822.8375
2811.72571	11845.2375
2814.27018	11784.6375
2816.81308	11781.9375
2819.35442	11790.4375
2821.89419	11759.1375
2824.43239	11759.5375
2826.96904	11769.2375
2829.50412	11755.1375
2832.03763	11745.9375
2834.56959	11758.3375
2837.1	11739.8375
2839.62884	11741.3375
2842.15613	11761.1375
2844.68186	11816.1375
2847.20604	11849.0375
2849.72867	11881.0375
2852.24974	11866.4375
2854.76927	11863.6375
2857.28724	11841.6375
2859.80367	11832.0375
2862.31855	11802.6375
2864.83189	11783.8375
2867.34368	11760.8375
2869.85393	11792.0375
2872.36264	11773.9375
2874.8698	11795.6375
2877.37543	11785.0375
2879.87952	11792.1375
2882.38207	11799.3375
2884.88308	11761.7375
2887.38256	11757.1375
2889.88051	11752.5375
2892.37692	11751.4375
2894.8718	11775.2375
2897.36515	11778.4375
2899.85698	11784.2375
2902.34727	11810.7375
2904.83604	11800.3375
2907.32328	11816.5375
2909.809	11838.1375
2912.29319	11866.7375
2914.77587	11814.1375
2917.25702	11819.9375
2919.73665	11820.2375
2922.21476	11826.6375
2924.69136	11815.9375
2927.16644	11804.8375
2929.64	11779.7375
2932.11205	11793.7375
2934.58258	11742.4375
2937.05161	11705.6375
2939.51912	11724.3375
2941.98513	11679.1375
2944.44962	11652.9375
2946.91261	11591.0375
2949.37409	11577.6375
2951.83407	11570.4375
2954.29254	11520.3375
2956.74951	11506.3375
2959.20498	11503.9375
2961.65895	11449.1375
2964.11142	11445.1375
2966.56239	11409.1375
2969.01186	11387.8375
2971.45984	11324.5375
2973.90632	11322.5375
2976.35131	11277.1375
2978.7948	11291.6375
2981.23681	11234.3375
2983.67732	11218.5375
2986.11635	11184.8375
2988.55388	11170.5375
2990.98993	11144.6375
2993.4245	11095.6375
2995.85758	11097.6375
2998.28917	11063.8375
3000.71928	11037.8375
3003.14791	11020.6375
3005.57506	10989.8375
3008.00073	10979.0375
3010.42493	10981.0375
3012.84764	10932.0375
3015.26888	10929.3375
3017.68865	10908.7375
3020.10694	10886.3375
3022.52376	10842.5375
3024.9391	10860.6375
3027.35298	10836.6375
3029.76539	10790.5375
3032.17632	10789.4375
3034.5858	10767.3375
3036.9938	10743.6375
3039.40034	10745.3375
3041.80542	10713.6375
3044.20903	10706.9375
3046.61118	10696.5375
3049.01187	10661.2375
3051.4111	10667.8375
3053.80888	10649.5375
3056.20519	10647.9375
3058.60005	10591.2375
3060.99345	10582.5375
3063.3854	10529.4375
3065.7759	10487.6375
3068.16494	10465.8375
3070.55254	10408.6375
3072.93868	10416.0375
3075.32338	10365.2375
3077.70662	10347.8375
3080.08842	10306.1375
3082.46878	10290.2375
3084.84769	10282.1375
3087.22515	10263.1375
3089.60118	10272.1375
3091.97576	10262.5375
3094.3489	10234.7375
3096.72061	10207.2375
3099.09087	10217.0375
3101.4597	10180.8375
3103.82709	10186.4375
3106.19305	10181.3375
3108.55757	10159.1375
3110.92066	10114.5375
3113.28232	10110.2375
3115.64255	10076.5375
3118.00134	10042.8375
3120.35871	10023.2375
3122.71466	9991.1375
3125.06917	9963.5375
3127.42226	9951.9375
3129.77393	9969.1375
3132.12417	9957.9375
3134.47299	9955.7375
3136.82039	9929.7375
3139.16636	9958.3375
3141.51092	9932.8375
3143.85406	9938.9375
3146.19579	9935.7375
3148.53609	9920.9375
3150.87499	9932.9375
3153.21246	9925.6375
3155.54853	9925.3375
3157.88318	9899.2375
3160.21642	9925.1375
3162.54826	9912.6375
3164.87868	9904.4375
3167.2077	9902.2375
3169.5353	9876.4375
3171.86151	9898.5375
3174.18631	9896.6375
3176.5097	9849.7375
3178.83169	9844.1375
3181.15228	9849.2375
3183.47147	9815.5375
3185.78926	9820.7375
3188.10565	9827.2375
3190.42065	9817.9375
3192.73424	9807.3375
3195.04645	9805.8375
3197.35725	9841.5375
3199.66667	9838.9375
3201.97469	9838.3375
3204.28132	9815.4375
3206.58656	9829.1375
3208.8904	9816.4375
3211.19287	9852.5375
3213.49394	9819.7375
3215.79363	9814.8375
3218.09193	9803.8375
3220.38884	9832.2375
3222.68438	9814.1375
3224.97853	9806.8375
3227.2713	9805.4375
3229.56269	9771.4375
3231.8527	9768.6375
3234.14133	9743.4375
3236.42858	9728.1375
3238.71446	9720.0375
3240.99896	9697.7375
3243.28209	9699.0375
3245.56384	9667.4375
3247.84423	9709.1375
3250.12324	9694.0375
3252.40088	9647.4375
3254.67715	9653.0375
3256.95205	9610.7375
3259.22558	9630.4375
3261.49775	9583.6375
3263.76855	9565.8375
3266.03799	9545.1375
3268.30606	9533.4375
3270.57277	9509.2375
3272.83812	9510.2375
3275.10211	9490.1375
3277.36474	9479.4375
3279.62601	9459.6375
3281.88593	9453.3375
3284.14448	9465.1375
3286.40168	9462.0375
3288.65753	9438.3375
3290.91202	9416.0375
3293.16516	9387.6375
3295.41695	9362.6375
3297.66738	9303.1375
3299.91647	9255.8375
3302.16421	9230.6375
3304.4106	9188.6375
3306.65564	9139.7375
3308.89933	9082.5375
3311.14169	9022.3375
3313.38269	8952.1375
3315.62236	8878.3375
3317.86068	8806.0375
3320.09766	8710.3375
3322.3333	8640.3375
3324.5676	8640.7375
3326.80056	8483.8375
3329.03219	8454.8375
3331.26248	1.2375
3333.49143	0.4375
3335.71905	-0.9625
