Data from AgNPs_FTO_APTES_UA_2uM_CRN_200uM_R6G_10uM_NaF_0.1M_Addition_RamanShift__24__16-46-55-380.txt Node

Date: Wed Feb 02 16:46:55 GMT 2022
User: TCL
Spectrometer: QEP01345
Trigger mode: 4
Integration Time (sec): 7.000000E0
Scans to average: 10
Electric dark correction enabled: true
Nonlinearity correction enabled: false
Boxcar width: 0
XAxis mode: Raman Shifts
Number of Pixels in Spectrum: 1044
>>>>>Begin Spectral Data<<<<<
46.04893	-0.6
50.45542	0.8
54.85868	-0.6
59.25871	-0.9
63.6555	76.3
68.04907	81
72.43941	86.4
76.82654	92.7
81.21044	91.7
85.59113	98.3
89.96862	102
94.34289	108
98.71396	111
103.08183	113.3
107.4465	117.3
111.80798	118.9
116.16626	121
120.52136	127.2
124.87327	130.6
129.222	134.3
133.56755	146.1
137.90993	153.5
142.24913	169.1
146.58517	193.1
150.91804	221.6
155.24774	266.5
159.57429	329.1
163.89768	423.9
168.21792	553.5
172.53501	756.8
176.84895	1053.6
181.15975	1468.6
185.46741	2049.8
189.77193	2833.4
194.07331	3791.8
198.37157	4905.5
202.6667	6038
206.9587	7189.1
211.24758	8291.5
215.53334	9468.2
219.81599	10671
224.09553	12032.3
228.37195	13540
232.64527	15154.6
236.91549	16814.4
241.18261	18489.2
245.44663	20000.2
249.70755	21348.5
253.96539	22515.7
258.22014	23560.5
262.4718	24463.4
266.72039	25112.5
270.96589	25593
275.20832	25778.5
279.44768	25782.1
283.68397	25731
287.91719	25656.6
292.14735	25765.3
296.37445	25982.1
300.59849	26311.9
304.81948	26492.5
309.03742	26348.4
313.25231	25834.3
317.46415	24894.2
321.67296	23693.9
325.87872	22749.5
330.08145	22312.1
334.28114	22188.3
338.47781	22369.2
342.67145	22704.4
346.86207	23201.3
351.04966	23872.5
355.23424	24558.4
359.4158	25126.3
363.59435	25428.2
367.76989	25584
371.94243	25661.6
376.11196	25698.5
380.27849	25854.3
384.44203	25919.6
388.60257	25952.5
392.76012	26133.8
396.91468	26442
401.06626	26871.1
405.21485	27204.2
409.36047	26998.8
413.50311	26339.3
417.64277	25760
421.77947	25528.4
425.9132	25579.2
430.04396	25730.9
434.17176	26033.3
438.2966	26356.5
442.41849	26894.8
446.53742	27657.5
450.6534	28575.5
454.76644	29254.5
458.87653	29520.2
462.98368	29427.4
467.08789	29189.7
471.18916	28942
475.2875	28826.6
479.38291	28892.8
483.4754	28752.2
487.56496	28244.4
491.6516	27501.4
495.73531	26840.3
499.81612	26439.6
503.89401	26406.3
507.96899	26414.5
512.04106	26335.2
516.11023	26200.6
520.1765	25975.7
524.23987	25714.1
528.30034	25444.3
532.35792	25144.8
536.41261	24862.6
540.46441	24582.6
544.51333	24632
548.55936	25016.8
552.60252	25693.9
556.64279	26504
560.6802	27125.1
564.71473	27604.9
568.7464	28395.4
572.7752	29167.1
576.80114	29256
580.82422	29029.6
584.84444	28890.5
588.86181	29036.6
592.87633	29467.9
596.888	29863.6
600.89682	30016.5
604.9028	31023.9
608.90594	34267
612.90624	38208.2
616.90371	36205.3
620.89834	28952.2
624.89015	25635.2
628.87913	25191.4
632.86528	25419.8
636.84862	25526.2
640.82913	25151.2
644.80683	24343.6
648.78172	23639.8
652.75379	23460.7
656.72306	23741.2
660.68952	24298.1
664.65319	24231.6
668.61405	23695.3
672.57211	23418.1
676.52738	23482.6
680.47986	23525.1
684.42955	23459.4
688.37646	23411.5
692.32058	23445
696.26192	23643.7
700.20048	23914.4
704.13626	24115.4
708.06928	24117.6
711.99952	23981.3
715.927	23866.2
719.85171	23865.5
723.77365	23808.8
727.69284	23601.2
731.60928	23404.8
735.52295	23353.8
739.43388	23321.7
743.34206	23387.4
747.24749	23504.5
751.15017	23722.9
755.05012	24194
758.94733	25142.2
762.8418	26844.5
766.73354	29441
770.62254	32029.8
774.50882	32767.4
778.39237	31075.6
782.27321	28110.5
786.15132	25519.5
790.02671	24057.4
793.89938	23303.2
797.76935	23044.5
801.6366	22963.2
805.50115	22901.8
809.36299	22863.8
813.22213	22774.9
817.07857	22755.3
820.93231	22768.1
824.78336	22660.8
828.63172	22616.1
832.47738	22528.5
836.32036	22492.7
840.16066	22491.4
843.99827	22432.2
847.8332	22355.9
851.66546	22252.7
855.49504	22230.4
859.32195	22170.7
863.1462	22094.9
866.96777	22030.7
870.78668	21974.4
874.60293	21980.2
878.41652	22026.5
882.22745	22083.5
886.03573	22116.8
889.84136	22096.4
893.64433	21972.5
897.44466	21950.9
901.24235	21830.8
905.0374	21776
908.8298	21759
912.61957	21797.5
916.40671	22044.2
920.19121	22287.1
923.97308	22496.9
927.75233	22509.4
931.52895	22401.6
935.30295	22075.1
939.07433	21666.5
942.84309	21269.3
946.60924	20993.9
950.37278	20877.3
954.13371	20801.5
957.89203	20843.3
961.64774	20850.2
965.40086	20819.9
969.15137	20701.5
972.89929	20547.4
976.64461	20418.3
980.38733	20380.9
984.12747	20384.1
987.86502	20552
991.59999	20725.9
995.33237	20966.9
999.06217	21436.6
1002.78939	22097.1
1006.51404	22549
1010.23611	22878.6
1013.95561	23107
1017.67255	23108.7
1021.38692	22820.7
1025.09872	22494
1028.80796	22357.7
1032.51465	22515.8
1036.21877	22797.2
1039.92035	22876.5
1043.61937	22815.4
1047.31584	22645.9
1051.00976	22399.3
1054.70114	22392.3
1058.38998	22450.1
1062.07627	22720.9
1065.76003	23008.7
1069.44126	23182.9
1073.11995	23363.8
1076.79611	23524.6
1080.46974	23613.8
1084.14085	23828.1
1087.80943	24172.8
1091.47549	24434.9
1095.13903	24471
1098.80005	24126.4
1102.45857	23574
1106.11456	23201.1
1109.76805	23068.8
1113.41903	23258.1
1117.06751	23638.3
1120.71348	24060.1
1124.35696	24498.8
1127.99793	24948.4
1131.63641	25114.1
1135.2724	24680.1
1138.90589	24280.7
1142.5369	24080.6
1146.16542	24174.3
1149.79145	24358.3
1153.415	24698.7
1157.03607	25163.3
1160.65467	25863.4
1164.27079	26945.7
1167.88443	28352.9
1171.49561	30292.5
1175.10432	33055.3
1178.71056	36456.6
1182.31434	39429.9
1185.91565	40795.3
1189.51451	40722
1193.11091	39717.3
1196.70485	38238.2
1200.29634	36718.7
1203.88538	35358.9
1207.47197	34179.4
1211.05612	33214.2
1214.63782	32392.9
1218.21708	31731.1
1221.79391	31111.5
1225.36829	30651.2
1228.94024	30138.2
1232.50976	29625.2
1236.07685	29260.8
1239.6415	29153.6
1243.20374	29157.2
1246.76355	29369
1250.32093	29725.2
1253.8759	30363.4
1257.42845	31266.3
1260.97859	32118.5
1264.52631	32909
1268.07163	33676.6
1271.61453	34635.5
1275.15503	35580.3
1278.69312	36480.4
1282.22882	37277.3
1285.76211	38285.8
1289.29301	39678.8
1292.82151	41622
1296.34761	44008
1299.87133	46752.8
1303.39266	49938.2
1306.9116	53389.6
1310.42815	56911.8
1313.94233	59387.5
1317.45412	59928.6
1320.96354	59147
1324.47058	58043.6
1327.97525	56952.2
1331.47754	56107.5
1334.97747	55768.4
1338.47502	55820.7
1341.97022	55829.8
1345.46305	55198.3
1348.95352	53978.9
1352.44163	53026.7
1355.92738	53038.5
1359.41078	55041.7
1362.89183	57432.8
1366.37053	56478.4
1369.84688	51298.7
1373.32088	45516.3
1376.79254	41723.2
1380.26186	40289.8
1383.72883	40393.9
1387.19347	40833.5
1390.65578	41132
1394.11575	41611.8
1397.57339	42674.2
1401.0287	44086.5
1404.48168	45341.7
1407.93234	45881
1411.38068	45318.5
1414.82669	43714.7
1418.27039	41318.6
1421.71177	38759.4
1425.15083	36598.2
1428.58758	35228.7
1432.02203	34855.7
1435.45416	35354.4
1438.88399	36229.4
1442.31151	37243.9
1445.73673	38098.2
1449.15965	39164.5
1452.58027	40049.7
1455.9986	40692.9
1459.41463	41237.6
1462.82837	41907.7
1466.23982	42570.5
1469.64898	43075.9
1473.05586	43279.4
1476.46045	42999.3
1479.86276	42451.7
1483.26279	41802.1
1486.66054	41290.8
1490.05602	41074.2
1493.44922	41109.8
1496.84016	41298.5
1500.22882	41933.9
1503.61521	43316.4
1506.99934	45354.2
1510.38121	47631.3
1513.76081	48954.8
1517.13816	48303.5
1520.51324	45842.4
1523.88607	43349.1
1527.25665	41751.6
1530.62498	41014.3
1533.99105	40728
1537.35488	40538.9
1540.71647	40174.8
1544.07581	39619.6
1547.4329	38850.1
1550.78776	38117.8
1554.14038	37602.9
1557.49077	37429.9
1560.83892	37513.2
1564.18484	37777.4
1567.52853	37959
1570.86999	38154.7
1574.20922	38668.3
1577.54624	39187.6
1580.88103	39324.5
1584.2136	39547.8
1587.54395	40602.1
1590.87208	42471.6
1594.19801	44954.9
1597.52172	47449.5
1600.84321	48199.9
1604.16251	46296.2
1607.47959	42632.2
1610.79447	38580.8
1614.10715	34863.1
1617.41763	31771.1
1620.7259	29698.3
1624.03199	28556
1627.33587	28376.8
1630.63757	29098.9
1633.93707	30898.4
1637.23439	33875.2
1640.52951	37933.3
1643.82246	42755.1
1647.11321	46919.4
1650.40179	48507.7
1653.68819	46195.5
1656.97241	40459.6
1660.25446	34273.5
1663.53433	29341.1
1666.81203	26040.4
1670.08756	23968.4
1673.36092	22661.9
1676.63211	21813.4
1679.90115	21228.1
1683.16801	20804.2
1686.43272	20500.6
1689.69527	20256.1
1692.95567	20043.5
1696.2139	19995.4
1699.46999	19861.4
1702.72392	19771.9
1705.97571	19735.2
1709.22535	19599.1
1712.47284	19534.8
1715.71819	19512.2
1718.96139	19453.7
1722.20246	19409.6
1725.44139	19329.9
1728.67818	19224.3
1731.91284	19137.9
1735.14537	18995.1
1738.37576	18918.6
1741.60403	18841
1744.83017	18796.8
1748.05418	18767.9
1751.27607	18738.2
1754.49584	18705.8
1757.71349	18700.9
1760.92903	18646.4
1764.14244	18639.4
1767.35375	18621.5
1770.56294	18533.9
1773.77002	18502.9
1776.97499	18455
1780.17785	18422.9
1783.37861	18382.4
1786.57727	18310.9
1789.77382	18301.4
1792.96828	18258.1
1796.16064	18237
1799.3509	18190.5
1802.53907	18154.3
1805.72514	18109.4
1808.90913	18060.8
1812.09102	18039.9
1815.27083	17980.1
1818.44856	17980.5
1821.6242	17948.9
1824.79776	17920.2
1827.96924	17892.5
1831.13864	17892.6
1834.30597	17859
1837.47122	17855.5
1840.6344	17859.7
1843.7955	17864.4
1846.95454	17849.5
1850.11151	17880.1
1853.26642	17856.2
1856.41926	17861
1859.57004	17865.9
1862.71876	17836.4
1865.86542	17839.9
1869.01003	17841.5
1872.15258	17805
1875.29308	17810.3
1878.43152	17817.3
1881.56792	17818.6
1884.70227	17815.8
1887.83457	17786.1
1890.96482	17822.5
1894.09304	17801.2
1897.21921	17802.9
1900.34335	17796.9
1903.46544	17803.7
1906.58551	17803.3
1909.70353	17766.7
1912.81953	17737.5
1915.93349	17720.8
1919.04543	17693.4
1922.15534	17606.1
1925.26322	17597.2
1928.36908	17556.8
1931.47292	17537.5
1934.57473	17431
1937.67453	17404
1940.77232	17333.8
1943.86808	17304.1
1946.96184	17217.4
1950.05358	17143.5
1953.14331	17082.2
1956.23103	17031.7
1959.31675	16977.1
1962.40046	16917.5
1965.48217	16886.9
1968.56188	16827.5
1971.63959	16754.3
1974.7153	16717.2
1977.78901	16678.6
1980.86073	16625.7
1983.93046	16521.8
1986.99819	16464.5
1990.06394	16415
1993.1277	16395.3
1996.18947	16326.3
1999.24925	16307.8
2002.30706	16234.5
2005.36288	16165.8
2008.41672	16155.7
2011.46859	16122.5
2014.51848	16053.3
2017.56639	15942.1
2020.61233	15949.7
2023.6563	15920.7
2026.6983	15873.6
2029.73833	15859.4
2032.7764	15848.9
2035.8125	15832.6
2038.84664	15807.4
2041.87881	15785.1
2044.90903	15770.6
2047.93729	15731.1
2050.96359	15731.4
2053.98794	15680.2
2057.01034	15680.2
2060.03078	15652.3
2063.04927	15619.6
2066.06582	15590.6
2069.08042	15629
2072.09307	15606.6
2075.10378	15610.7
2078.11255	15548.7
2081.11938	15533.6
2084.12426	15532.2
2087.12722	15524
2090.12824	15541.3
2093.12732	15543.4
2096.12447	15526.6
2099.11969	15544.3
2102.11299	15525.9
2105.10435	15547.9
2108.09379	15514.6
2111.08131	15531.5
2114.0669	15529.3
2117.05057	15536
2120.03233	15560.9
2123.01216	15588.6
2125.99008	15575.1
2128.96609	15587
2131.94018	15561.9
2134.91236	15555.9
2137.88263	15583.1
2140.851	15609.9
2143.81746	15637.5
2146.78201	15622.3
2149.74466	15633
2152.7054	15622.6
2155.66425	15582.8
2158.6212	15600.4
2161.57625	15621.1
2164.52941	15606.7
2167.48067	15557.9
2170.43004	15590.7
2173.37752	15559.8
2176.32311	15535.7
2179.26681	15575.2
2182.20863	15524
2185.14856	15560
2188.08661	15561.1
2191.02278	15547.4
2193.95707	15547.6
2196.88948	15513.8
2199.82001	15510
2202.74867	15504.4
2205.67545	15494.7
2208.60037	15462.4
2211.52341	15416.6
2214.44458	15457.3
2217.36388	15396.4
2220.28132	15390.1
2223.1969	15376.9
2226.11061	15337.5
2229.02246	15292
2231.93245	15249.3
2234.84058	15231.8
2237.74686	15208.5
2240.65128	15205.4
2243.55385	15191.1
2246.45456	15149.6
2249.35343	15132.5
2252.25044	15118.5
2255.14561	15077.7
2258.03893	15095.6
2260.93041	15069.8
2263.82004	15022.5
2266.70783	14971
2269.59378	14906.8
2272.4779	14892.7
2275.36017	14819.8
2278.24061	14795.7
2281.11922	14796.7
2283.996	14786.7
2286.87094	14732.8
2289.74405	14674.8
2292.61534	14671.4
2295.4848	14663.2
2298.35243	14701.1
2301.21824	14648.6
2304.08223	14668
2306.94439	14665.8
2309.80474	14651.1
2312.66327	14640.5
2315.51999	14659.8
2318.37489	14630.7
2321.22797	14607.5
2324.07925	14631.3
2326.92871	14586.6
2329.77637	14598.3
2332.62222	14567.3
2335.46626	14561.6
2338.3085	14527.1
2341.14893	14530
2343.98756	14523.2
2346.8244	14547.8
2349.65943	14571.9
2352.49267	14559.6
2355.32411	14533.8
2358.15376	14540.8
2360.98161	14527.5
2363.80768	14486.9
2366.63195	14506.3
2369.45444	14495.6
2372.27514	14487.6
2375.09405	14471.5
2377.91118	14423.6
2380.72652	14409.8
2383.54009	14393.8
2386.35187	14340.9
2389.16188	14305.6
2391.97011	14266.2
2394.77657	14280.2
2397.58125	14227.9
2400.38416	14193.2
2403.18529	14168.1
2405.98466	14145
2408.78226	14087.1
2411.57809	14123.8
2414.37216	14090.6
2417.16446	14068.5
2419.955	14055.2
2422.74378	14067.7
2425.5308	14033.9
2428.31606	14058.3
2431.09956	14032.3
2433.88131	14002.7
2436.6613	14007.8
2439.43954	14005.5
2442.21603	14000.6
2444.99077	13977.7
2447.76377	13988
2450.53501	13985.5
2453.30451	13992.9
2456.07226	13975.3
2458.83827	13966.7
2461.60254	13950.5
2464.36507	13977.2
2467.12586	13958.2
2469.88492	13982.9
2472.64224	13955.8
2475.39782	13984.5
2478.15167	13972.6
2480.90379	13978.4
2483.65417	13988.2
2486.40283	13946
2489.14976	14002.9
2491.89497	13982
2494.63845	14009.8
2497.3802	14004.9
2500.12024	13999.3
2502.85855	14009.1
2505.59514	13990.5
2508.33002	14006.7
2511.06318	13971.9
2513.79462	13959.2
2516.52435	13939.8
2519.25237	13907.3
2521.97867	13888.1
2524.70327	13877.8
2527.42616	13862.1
2530.14734	13877
2532.86681	13848.9
2535.58458	13831.4
2538.30065	13812.9
2541.01501	13825.2
2543.72768	13795.8
2546.43864	13787.5
2549.14791	13774
2551.85548	13766.8
2554.56136	13777.8
2557.26554	13734.3
2559.96803	13754.6
2562.66883	13723.2
2565.36794	13738.3
2568.06536	13711.4
2570.7611	13695.2
2573.45514	13697.5
2576.14751	13689
2578.83819	13646.9
2581.52719	13634.5
2584.21451	13646
2586.90015	13651.7
2589.58411	13643.4
2592.2664	13633.3
2594.94701	13626.9
2597.62594	13634.8
2600.30321	13638.1
2602.9788	13603.7
2605.65273	13610.5
2608.32498	13579.9
2610.99557	13596.5
2613.66449	13630.9
2616.33175	13613.8
2618.99734	13630.5
2621.66128	13611.3
2624.32355	13609.6
2626.98416	13626.4
2629.64311	13618.9
2632.30041	13608.3
2634.95605	13612.9
2637.61004	13601.3
2640.26238	13598.7
2642.91306	13594.2
2645.56209	13556.8
2648.20948	13583.6
2650.85521	13592.9
2653.4993	13546
2656.14175	13553.9
2658.78255	13585.8
2661.42171	13587.3
2664.05923	13617.6
2666.6951	13612.4
2669.32934	13631.6
2671.96194	13625.6
2674.59291	13625.6
2677.22224	13619.8
2679.84993	13638.8
2682.476	13585.8
2685.10043	13609.5
2687.72324	13571.5
2690.34441	13597.3
2692.96396	13582.6
2695.58188	13605.7
2698.19818	13563.2
2700.81285	13569.3
2703.4259	13596.8
2706.03733	13668
2708.64714	13644.3
2711.25533	13635
2713.86191	13592.8
2716.46687	13638.8
2719.07021	13634.7
2721.67194	13632.6
2724.27206	13619.8
2726.87057	13682.7
2729.46747	13672.3
2732.06276	13684.6
2734.65644	13669.5
2737.24852	13665.5
2739.83899	13627.6
2742.42786	13651
2745.01513	13637.9
2747.60079	13662.6
2750.18486	13625.3
2752.76733	13622.1
2755.3482	13639.1
2757.92747	13671
2760.50515	13660.3
2763.08123	13682.1
2765.65573	13673.9
2768.22863	13656.6
2770.79994	13600.3
2773.36967	13620.1
2775.9378	13631.4
2778.50435	13615.2
2781.06932	13622.4
2783.6327	13655.4
2786.1945	13600.3
2788.75471	13593.2
2791.31335	13565.3
2793.87041	13569.5
2796.42589	13564.2
2798.97979	13529.3
2801.53212	13527.2
2804.08288	13535.3
2806.63206	13480.4
2809.17967	13480.5
2811.72571	13432.3
2814.27018	13427.1
2816.81308	13400.8
2819.35442	13400.9
2821.89419	13338.1
2824.43239	13330.2
2826.96904	13348.3
2829.50412	13343.2
2832.03763	13333.1
2834.56959	13336.8
2837.1	13307.3
2839.62884	13301.9
2842.15613	13316.3
2844.68186	13357.3
2847.20604	13366.5
2849.72867	13381.2
2852.24974	13382
2854.76927	13399.9
2857.28724	13391.9
2859.80367	13325.7
2862.31855	13323.3
2864.83189	13305.5
2867.34368	13282.9
2869.85393	13311.6
2872.36264	13331.4
2874.8698	13320.9
2877.37543	13326.5
2879.87952	13310.9
2882.38207	13300.5
2884.88308	13302.8
2887.38256	13314.1
2889.88051	13309
2892.37692	13326.9
2894.8718	13339.4
2897.36515	13363.8
2899.85698	13336.3
2902.34727	13368.4
2904.83604	13363
2907.32328	13399.4
2909.809	13388
2912.29319	13401.2
2914.77587	13370.9
2917.25702	13398.9
2919.73665	13384.4
2922.21476	13375.7
2924.69136	13386.1
2927.16644	13368.8
2929.64	13361.2
2932.11205	13345.4
2934.58258	13324.2
2937.05161	13335.3
2939.51912	13343.8
2941.98513	13296.1
2944.44962	13255.1
2946.91261	13158.1
2949.37409	13170.4
2951.83407	13143.9
2954.29254	13144.7
2956.74951	13123.5
2959.20498	13091.2
2961.65895	13063.4
2964.11142	13051.5
2966.56239	13005.6
2969.01186	13032.2
2971.45984	12968.2
2973.90632	12941.4
2976.35131	12871.2
2978.7948	12882.6
2981.23681	12842.6
2983.67732	12828.6
2986.11635	12781.2
2988.55388	12760.7
2990.98993	12759.4
2993.4245	12714.2
2995.85758	12679.8
2998.28917	12650.4
3000.71928	12658.3
3003.14791	12624.5
3005.57506	12594.8
3008.00073	12554.9
3010.42493	12538.2
3012.84764	12515.3
3015.26888	12530.8
3017.68865	12477.3
3020.10694	12461.2
3022.52376	12446
3024.9391	12406
3027.35298	12361.1
3029.76539	12366.2
3032.17632	12362.9
3034.5858	12344.3
3036.9938	12328.9
3039.40034	12327.4
3041.80542	12311.6
3044.20903	12310.8
3046.61118	12262.2
3049.01187	12238.4
3051.4111	12189
3053.80888	12200.5
3056.20519	12146.7
3058.60005	12130.2
3060.99345	12102.7
3063.3854	12112.2
3065.7759	12035.2
3068.16494	12005.7
3070.55254	11937.5
3072.93868	11966.1
3075.32338	11895.6
3077.70662	11848.6
3080.08842	11822.2
3082.46878	11812.2
3084.84769	11783
3087.22515	11811.4
3089.60118	11769.4
3091.97576	11777.5
3094.3489	11763.5
3096.72061	11776.1
3099.09087	11754.8
3101.4597	11726.5
3103.82709	11707.5
3106.19305	11682.1
3108.55757	11697.6
3110.92066	11640.9
3113.28232	11635.1
3115.64255	11562.5
3118.00134	11540.2
3120.35871	11524.3
3122.71466	11497.3
3125.06917	11494.4
3127.42226	11463.5
3129.77393	11479
3132.12417	11434.5
3134.47299	11425.5
3136.82039	11411.4
3139.16636	11434.2
3141.51092	11416
3143.85406	11404.7
3146.19579	11413.2
3148.53609	11451.5
3150.87499	11430.4
3153.21246	11425
3155.54853	11420.4
3157.88318	11397.9
3160.21642	11408.4
3162.54826	11411.1
3164.87868	11377.4
3167.2077	11374.8
3169.5353	11390.7
3171.86151	11369.5
3174.18631	11366.3
3176.5097	11341.3
3178.83169	11347.8
3181.15228	11343
3183.47147	11297.9
3185.78926	11323.3
3188.10565	11330.9
3190.42065	11300.8
3192.73424	11287.5
3195.04645	11307.2
3197.35725	11271.3
3199.66667	11283.1
3201.97469	11292.3
3204.28132	11257
3206.58656	11281.4
3208.8904	11283.8
3211.19287	11280.9
3213.49394	11280.3
3215.79363	11277.5
3218.09193	11270.7
3220.38884	11285.8
3222.68438	11284.3
3224.97853	11254.8
3227.2713	11271.8
3229.56269	11212.5
3231.8527	11217.6
3234.14133	11223.4
3236.42858	11183
3238.71446	11188.7
3240.99896	11150
3243.28209	11160.4
3245.56384	11174
3247.84423	11150.5
3250.12324	11134.3
3252.40088	11098.3
3254.67715	11105
3256.95205	11086
3259.22558	11080.3
3261.49775	11018.5
3263.76855	11036.7
3266.03799	10998.3
3268.30606	10959.8
3270.57277	10925.2
3272.83812	10903.4
3275.10211	10899.7
3277.36474	10892.5
3279.62601	10881.4
3281.88593	10872.8
3284.14448	10886.3
3286.40168	10878
3288.65753	10879
3290.91202	10851
3293.16516	10819
3295.41695	10775
3297.66738	10729.4
3299.91647	10657.5
3302.16421	10577
3304.4106	10547.7
3306.65564	10497.3
3308.89933	10446.3
3311.14169	10392.2
3313.38269	10314.4
3315.62236	10257.1
3317.86068	10152.3
3320.09766	10039.2
3322.3333	9951.6
3324.5676	9975.9
3326.80056	9805.8
3329.03219	9756.4
3331.26248	2.4
3333.49143	0.6
3335.71905	-1.5
