Data from AgNPs_FTO_APTES_UA_2uM_CRN_200uM_R6G_10uM_NaF_0.1M_Addition_RamanShift__7__16-27-05-357.txt Node

Date: Wed Feb 02 16:27:05 GMT 2022
User: TCL
Spectrometer: QEP01345
Trigger mode: 4
Integration Time (sec): 7.000000E0
Scans to average: 10
Electric dark correction enabled: true
Nonlinearity correction enabled: false
Boxcar width: 0
XAxis mode: Raman Shifts
Number of Pixels in Spectrum: 1044
>>>>>Begin Spectral Data<<<<<
46.04893	1.0375
50.45542	0.9375
54.85868	-0.4625
59.25871	-0.4625
63.6555	66.5375
68.04907	68.8375
72.43941	72.5375
76.82654	79.6375
81.21044	84.1375
85.59113	89.2375
89.96862	90.9375
94.34289	93.0375
98.71396	95.5375
103.08183	103.7375
107.4465	103.0375
111.80798	101.1375
116.16626	109.1375
120.52136	110.3375
124.87327	116.1375
129.222	120.8375
133.56755	129.5375
137.90993	137.5375
142.24913	147.9375
146.58517	164.9375
150.91804	192.0375
155.24774	226.4375
159.57429	278.9375
163.89768	357.8375
168.21792	470.5375
172.53501	646.7375
176.84895	894.4375
181.15975	1252.3375
185.46741	1752.7375
189.77193	2411.5375
194.07331	3214.7375
198.37157	4135.3375
202.6667	5119.4375
206.9587	6086.0375
211.24758	7001.7375
215.53334	7981.0375
219.81599	8989.2375
224.09553	10088.3375
228.37195	11270.7375
232.64527	12578.6375
236.91549	13921.0375
241.18261	15259.9375
245.44663	16588.5375
249.70755	17769.4375
253.96539	18775.4375
258.22014	19658.5375
262.4718	20398.7375
266.72039	20895.1375
270.96589	21183.4375
275.20832	21234.7375
279.44768	21230.5375
283.68397	21121.0375
287.91719	21014.0375
292.14735	21024.7375
296.37445	21108.3375
300.59849	21253.3375
304.81948	21295.5375
309.03742	21217.7375
313.25231	20981.4375
317.46415	20496.1375
321.67296	19906.5375
325.87872	19437.6375
330.08145	19136.5375
334.28114	18991.1375
338.47781	19012.6375
342.67145	19147.2375
346.86207	19352.4375
351.04966	19599.2375
355.23424	19823.8375
359.4158	20042.0375
363.59435	20201.4375
367.76989	20303.5375
371.94243	20399.9375
376.11196	20437.2375
380.27849	20503.2375
384.44203	20587.2375
388.60257	20809.9375
392.76012	21092.5375
396.91468	21405.4375
401.06626	21775.3375
405.21485	21987.3375
409.36047	21920.5375
413.50311	21715.5375
417.64277	21643.8375
421.77947	21717.2375
425.9132	21886.3375
430.04396	22050.3375
434.17176	22218.3375
438.2966	22297.7375
442.41849	22622.3375
446.53742	23283.4375
450.6534	23975.3375
454.76644	24437.8375
458.87653	24674.8375
462.98368	24623.0375
467.08789	24423.4375
471.18916	24191.8375
475.2875	24103.6375
479.38291	24207.7375
483.4754	24204.6375
487.56496	23792.3375
491.6516	23143.2375
495.73531	22382.2375
499.81612	21884.3375
503.89401	21862.7375
507.96899	21915.7375
512.04106	21913.8375
516.11023	21654.1375
520.1765	21257.7375
524.23987	20928.6375
528.30034	20608.8375
532.35792	20357.5375
536.41261	20153.6375
540.46441	19986.1375
544.51333	20063.6375
548.55936	20452.7375
552.60252	20998.3375
556.64279	21679.9375
560.6802	22282.6375
564.71473	22727.9375
568.7464	23377.1375
572.7752	24464.0375
576.80114	25666.2375
580.82422	26628.9375
584.84444	27664.1375
588.86181	28913.4375
592.87633	29840.1375
596.888	29190.0375
600.89682	27347.7375
604.9028	26138.7375
608.90594	26525.8375
612.90624	27043.2375
616.90371	25162.0375
620.89834	21687.6375
624.89015	20132.3375
628.87913	20086.3375
632.86528	20304.7375
636.84862	20275.6375
640.82913	19880.5375
644.80683	19419.9375
648.78172	19126.9375
652.75379	19073.4375
656.72306	19212.6375
660.68952	19318.5375
664.65319	19191.4375
668.61405	18881.4375
672.57211	18859.6375
676.52738	18967.2375
680.47986	18992.3375
684.42955	18930.1375
688.37646	18831.3375
692.32058	18913.1375
696.26192	19169.1375
700.20048	19442.3375
704.13626	19695.9375
708.06928	19793.7375
711.99952	19838.4375
715.927	19818.1375
719.85171	19827.5375
723.77365	19653.3375
727.69284	19353.1375
731.60928	19028.0375
735.52295	18878.9375
739.43388	18819.0375
743.34206	18886.7375
747.24749	19012.4375
751.15017	19299.9375
755.05012	19770.6375
758.94733	20460.9375
762.8418	21582.0375
766.73354	22912.8375
770.62254	24012.9375
774.50882	23869.4375
778.39237	22620.4375
782.27321	21068.0375
786.15132	19843.6375
790.02671	19103.7375
793.89938	18705.6375
797.76935	18564.6375
801.6366	18510.1375
805.50115	18513.5375
809.36299	18420.5375
813.22213	18320.6375
817.07857	18296.3375
820.93231	18254.1375
824.78336	18053.7375
828.63172	17844.3375
832.47738	17750.5375
836.32036	17710.2375
840.16066	17680.9375
843.99827	17660.3375
847.8332	17631.5375
851.66546	17600.5375
855.49504	17640.1375
859.32195	17626.8375
863.1462	17507.7375
866.96777	17486.8375
870.78668	17435.1375
874.60293	17409.8375
878.41652	17441.2375
882.22745	17467.4375
886.03573	17478.7375
889.84136	17452.4375
893.64433	17430.1375
897.44466	17377.8375
901.24235	17338.9375
905.0374	17258.3375
908.8298	17277.2375
912.61957	17386.9375
916.40671	17659.1375
920.19121	18050.9375
923.97308	18287.1375
927.75233	18135.6375
931.52895	17797.4375
935.30295	17336.4375
939.07433	16942.6375
942.84309	16651.9375
946.60924	16464.7375
950.37278	16387.2375
954.13371	16418.4375
957.89203	16493.2375
961.64774	16527.1375
965.40086	16546.2375
969.15137	16429.1375
972.89929	16272.3375
976.64461	16073.8375
980.38733	15973.1375
984.12747	15984.5375
987.86502	16034.7375
991.59999	16085.4375
995.33237	16172.5375
999.06217	16420.5375
1002.78939	16710.6375
1006.51404	17006.8375
1010.23611	17317.1375
1013.95561	17587.1375
1017.67255	17677.9375
1021.38692	17547.7375
1025.09872	17254.2375
1028.80796	16956.9375
1032.51465	16827.7375
1036.21877	16864.3375
1039.92035	16941.4375
1043.61937	17053.4375
1047.31584	17177.8375
1051.00976	17251.8375
1054.70114	17365.2375
1058.38998	17576.8375
1062.07627	17864.0375
1065.76003	18202.4375
1069.44126	18505.3375
1073.11995	18805.6375
1076.79611	19015.2375
1080.46974	19013.9375
1084.14085	19065.5375
1087.80943	19206.7375
1091.47549	19464.7375
1095.13903	19701.9375
1098.80005	19506.2375
1102.45857	18900.8375
1106.11456	18355.5375
1109.76805	18053.9375
1113.41903	18056.0375
1117.06751	18173.1375
1120.71348	18371.4375
1124.35696	18655.5375
1127.99793	18971.7375
1131.63641	19196.6375
1135.2724	19187.1375
1138.90589	19213.2375
1142.5369	19412.1375
1146.16542	19845.2375
1149.79145	20322.7375
1153.415	20729.0375
1157.03607	21298.4375
1160.65467	22224.7375
1164.27079	23621.3375
1167.88443	25185.1375
1171.49561	26730.0375
1175.10432	28443.7375
1178.71056	30455.6375
1182.31434	32345.4375
1185.91565	33112.7375
1189.51451	32776.3375
1193.11091	31996.5375
1196.70485	31151.1375
1200.29634	30167.4375
1203.88538	29629.8375
1207.47197	29699.7375
1211.05612	29816.0375
1214.63782	29298.2375
1218.21708	28067.9375
1221.79391	26590.6375
1225.36829	25480.8375
1228.94024	24805.1375
1232.50976	24340.6375
1236.07685	23960.6375
1239.6415	23763.5375
1243.20374	23817.4375
1246.76355	24035.3375
1250.32093	24396.6375
1253.8759	24917.7375
1257.42845	25705.8375
1260.97859	26512.3375
1264.52631	27293.4375
1268.07163	28057.8375
1271.61453	28915.3375
1275.15503	29966.3375
1278.69312	31182.1375
1282.22882	32638.1375
1285.76211	34458.8375
1289.29301	36613.5375
1292.82151	39123.4375
1296.34761	42138.9375
1299.87133	45283.8375
1303.39266	48013.6375
1306.9116	49895.5375
1310.42815	50913.7375
1313.94233	51336.1375
1317.45412	51109.8375
1320.96354	50582.7375
1324.47058	50441.6375
1327.97525	50481.4375
1331.47754	50480.8375
1334.97747	50180.8375
1338.47502	49457.6375
1341.97022	48239.0375
1345.46305	46874.3375
1348.95352	45654.9375
1352.44163	44909.9375
1355.92738	44977.2375
1359.41078	45930.3375
1362.89183	46590.1375
1366.37053	45759.8375
1369.84688	42728.1375
1373.32088	38488.4375
1376.79254	35543.9375
1380.26186	34937.9375
1383.72883	35723.6375
1387.19347	36396.8375
1390.65578	36544.9375
1394.11575	36752.3375
1397.57339	37447.0375
1401.0287	38318.2375
1404.48168	38868.1375
1407.93234	38355.9375
1411.38068	36854.1375
1414.82669	34691.5375
1418.27039	32416.2375
1421.71177	30294.8375
1425.15083	28692.7375
1428.58758	27902.8375
1432.02203	28169.9375
1435.45416	29211.8375
1438.88399	30520.4375
1442.31151	31627.4375
1445.73673	32348.2375
1449.15965	32929.0375
1452.58027	33374.2375
1455.9986	33504.3375
1459.41463	33682.2375
1462.82837	34071.8375
1466.23982	34487.2375
1469.64898	34900.6375
1473.05586	35146.7375
1476.46045	34950.7375
1479.86276	34484.9375
1483.26279	33780.0375
1486.66054	33337.8375
1490.05602	33239.4375
1493.44922	33449.6375
1496.84016	33698.1375
1500.22882	34088.6375
1503.61521	34663.4375
1506.99934	35356.3375
1510.38121	35974.5375
1513.76081	36218.7375
1517.13816	36067.1375
1520.51324	35892.9375
1523.88607	36116.4375
1527.25665	36551.7375
1530.62498	37045.8375
1533.99105	37009.1375
1537.35488	36361.2375
1540.71647	35193.0375
1544.07581	33752.4375
1547.4329	32301.9375
1550.78776	30980.9375
1554.14038	30075.1375
1557.49077	29547.5375
1560.83892	29246.6375
1564.18484	29158.7375
1567.52853	29275.4375
1570.86999	29693.6375
1574.20922	30702.2375
1577.54624	31855.4375
1580.88103	32835.5375
1584.2136	33866.8375
1587.54395	35356.1375
1590.87208	37287.7375
1594.19801	39365.3375
1597.52172	41022.7375
1600.84321	40988.6375
1604.16251	38505.4375
1607.47959	34688.7375
1610.79447	30815.4375
1614.10715	27509.8375
1617.41763	25068.6375
1620.7259	23478.3375
1624.03199	22691.3375
1627.33587	22841.6375
1630.63757	23840.9375
1633.93707	26004.4375
1637.23439	29459.1375
1640.52951	34500.4375
1643.82246	40310.8375
1647.11321	44960.2375
1650.40179	45681.9375
1653.68819	41711.1375
1656.97241	35149.9375
1660.25446	28779.7375
1663.53433	24048.1375
1666.81203	20904.7375
1670.08756	18902.2375
1673.36092	17707.6375
1676.63211	16898.7375
1679.90115	16368.1375
1683.16801	15966.2375
1686.43272	15657.4375
1689.69527	15456.5375
1692.95567	15270.8375
1696.2139	15176.7375
1699.46999	15057.3375
1702.72392	14962.4375
1705.97571	14857.0375
1709.22535	14745.3375
1712.47284	14697.3375
1715.71819	14640.6375
1718.96139	14561.4375
1722.20246	14505.4375
1725.44139	14402.8375
1728.67818	14316.1375
1731.91284	14214.3375
1735.14537	14112.4375
1738.37576	14037.7375
1741.60403	13982.8375
1744.83017	13910.2375
1748.05418	13890.1375
1751.27607	13852.1375
1754.49584	13839.2375
1757.71349	13819.2375
1760.92903	13814.4375
1764.14244	13760.6375
1767.35375	13725.8375
1770.56294	13681.8375
1773.77002	13648.1375
1776.97499	13586.8375
1780.17785	13534.3375
1783.37861	13501.6375
1786.57727	13462.8375
1789.77382	13425.4375
1792.96828	13382.8375
1796.16064	13309.1375
1799.3509	13277.5375
1802.53907	13240.9375
1805.72514	13204.9375
1808.90913	13185.1375
1812.09102	13142.7375
1815.27083	13109.9375
1818.44856	13084.0375
1821.6242	13071.4375
1824.79776	13081.2375
1827.96924	13020.3375
1831.13864	13022.5375
1834.30597	13043.2375
1837.47122	13001.9375
1840.6344	13015.2375
1843.7955	13002.6375
1846.95454	13000.8375
1850.11151	12993.4375
1853.26642	12981.4375
1856.41926	12946.3375
1859.57004	12944.1375
1862.71876	12885.5375
1865.86542	12877.1375
1869.01003	12855.4375
1872.15258	12824.7375
1875.29308	12803.4375
1878.43152	12789.1375
1881.56792	12757.4375
1884.70227	12758.4375
1887.83457	12764.2375
1890.96482	12745.6375
1894.09304	12705.0375
1897.21921	12677.3375
1900.34335	12657.5375
1903.46544	12599.0375
1906.58551	12617.6375
1909.70353	12592.9375
1912.81953	12548.2375
1915.93349	12521.8375
1919.04543	12509.5375
1922.15534	12464.6375
1925.26322	12410.9375
1928.36908	12397.7375
1931.47292	12379.2375
1934.57473	12309.3375
1937.67453	12285.3375
1940.77232	12221.3375
1943.86808	12177.8375
1946.96184	12164.8375
1950.05358	12137.3375
1953.14331	12116.5375
1956.23103	12064.0375
1959.31675	12039.8375
1962.40046	11993.9375
1965.48217	11961.6375
1968.56188	11893.1375
1971.63959	11838.8375
1974.7153	11804.2375
1977.78901	11789.8375
1980.86073	11737.7375
1983.93046	11695.6375
1986.99819	11626.2375
1990.06394	11625.3375
1993.1277	11574.0375
1996.18947	11522.2375
1999.24925	11512.7375
2002.30706	11462.2375
2005.36288	11429.2375
2008.41672	11406.5375
2011.46859	11340.3375
2014.51848	11325.7375
2017.56639	11277.1375
2020.61233	11229.2375
2023.6563	11207.1375
2026.6983	11201.1375
2029.73833	11163.3375
2032.7764	11124.2375
2035.8125	11120.8375
2038.84664	11083.3375
2041.87881	11081.9375
2044.90903	11047.5375
2047.93729	11017.4375
2050.96359	10989.4375
2053.98794	11012.1375
2057.01034	11023.3375
2060.03078	11004.9375
2063.04927	10966.3375
2066.06582	10957.4375
2069.08042	10955.1375
2072.09307	10918.8375
2075.10378	10920.3375
2078.11255	10878.8375
2081.11938	10887.0375
2084.12426	10903.0375
2087.12722	10885.9375
2090.12824	10872.7375
2093.12732	10863.7375
2096.12447	10863.8375
2099.11969	10872.4375
2102.11299	10870.7375
2105.10435	10872.8375
2108.09379	10857.0375
2111.08131	10828.2375
2114.0669	10872.4375
2117.05057	10846.3375
2120.03233	10877.8375
2123.01216	10902.8375
2125.99008	10861.0375
2128.96609	10856.4375
2131.94018	10856.8375
2134.91236	10856.8375
2137.88263	10825.3375
2140.851	10838.9375
2143.81746	10831.5375
2146.78201	10823.1375
2149.74466	10848.6375
2152.7054	10812.0375
2155.66425	10788.2375
2158.6212	10810.8375
2161.57625	10795.4375
2164.52941	10778.1375
2167.48067	10779.8375
2170.43004	10785.0375
2173.37752	10759.8375
2176.32311	10756.4375
2179.26681	10746.0375
2182.20863	10734.1375
2185.14856	10761.5375
2188.08661	10742.5375
2191.02278	10726.0375
2193.95707	10750.0375
2196.88948	10707.6375
2199.82001	10695.8375
2202.74867	10666.7375
2205.67545	10651.9375
2208.60037	10629.6375
2211.52341	10610.9375
2214.44458	10608.8375
2217.36388	10579.5375
2220.28132	10569.0375
2223.1969	10531.8375
2226.11061	10514.6375
2229.02246	10455.7375
2231.93245	10469.5375
2234.84058	10452.4375
2237.74686	10447.3375
2240.65128	10429.6375
2243.55385	10407.4375
2246.45456	10412.5375
2249.35343	10374.6375
2252.25044	10344.5375
2255.14561	10290.9375
2258.03893	10291.7375
2260.93041	10276.2375
2263.82004	10199.1375
2266.70783	10188.8375
2269.59378	10147.7375
2272.4779	10112.9375
2275.36017	10085.6375
2278.24061	10067.3375
2281.11922	10044.7375
2283.996	10017.6375
2286.87094	10016.2375
2289.74405	9984.9375
2292.61534	9959.7375
2295.4848	9955.5375
2298.35243	9971.7375
2301.21824	9929.9375
2304.08223	9906.4375
2306.94439	9921.2375
2309.80474	9937.2375
2312.66327	9879.4375
2315.51999	9891.2375
2318.37489	9873.8375
2321.22797	9841.9375
2324.07925	9844.9375
2326.92871	9839.5375
2329.77637	9823.5375
2332.62222	9818.0375
2335.46626	9812.2375
2338.3085	9772.3375
2341.14893	9773.2375
2343.98756	9770.4375
2346.8244	9762.7375
2349.65943	9765.4375
2352.49267	9781.4375
2355.32411	9761.7375
2358.15376	9763.2375
2360.98161	9754.7375
2363.80768	9743.7375
2366.63195	9740.1375
2369.45444	9697.6375
2372.27514	9723.2375
2375.09405	9686.4375
2377.91118	9683.9375
2380.72652	9654.5375
2383.54009	9640.7375
2386.35187	9629.3375
2389.16188	9563.6375
2391.97011	9566.0375
2394.77657	9533.6375
2397.58125	9525.3375
2400.38416	9507.1375
2403.18529	9498.5375
2405.98466	9484.1375
2408.78226	9483.3375
2411.57809	9480.4375
2414.37216	9435.2375
2417.16446	9466.1375
2419.955	9434.7375
2422.74378	9421.4375
2425.5308	9389.3375
2428.31606	9405.0375
2431.09956	9410.5375
2433.88131	9388.7375
2436.6613	9395.9375
2439.43954	9376.5375
2442.21603	9375.2375
2444.99077	9372.6375
2447.76377	9365.5375
2450.53501	9360.0375
2453.30451	9357.2375
2456.07226	9316.9375
2458.83827	9353.4375
2461.60254	9340.8375
2464.36507	9356.0375
2467.12586	9327.7375
2469.88492	9335.0375
2472.64224	9340.4375
2475.39782	9339.1375
2478.15167	9322.5375
2480.90379	9313.6375
2483.65417	9322.4375
2486.40283	9322.1375
2489.14976	9314.8375
2491.89497	9313.0375
2494.63845	9311.0375
2497.3802	9303.5375
2500.12024	9294.5375
2502.85855	9296.7375
2505.59514	9289.9375
2508.33002	9319.9375
2511.06318	9282.6375
2513.79462	9294.0375
2516.52435	9275.6375
2519.25237	9254.1375
2521.97867	9251.1375
2524.70327	9242.2375
2527.42616	9220.1375
2530.14734	9214.6375
2532.86681	9192.8375
2535.58458	9214.6375
2538.30065	9201.5375
2541.01501	9177.0375
2543.72768	9177.7375
2546.43864	9153.2375
2549.14791	9146.4375
2551.85548	9153.9375
2554.56136	9143.3375
2557.26554	9128.9375
2559.96803	9121.8375
2562.66883	9127.8375
2565.36794	9137.7375
2568.06536	9107.7375
2570.7611	9114.6375
2573.45514	9100.6375
2576.14751	9085.3375
2578.83819	9082.2375
2581.52719	9071.3375
2584.21451	9057.0375
2586.90015	9042.7375
2589.58411	9043.1375
2592.2664	9049.5375
2594.94701	9030.0375
2597.62594	9040.9375
2600.30321	9011.0375
2602.9788	9018.1375
2605.65273	9011.6375
2608.32498	9023.2375
2610.99557	9025.3375
2613.66449	9027.5375
2616.33175	9025.4375
2618.99734	9038.3375
2621.66128	9020.0375
2624.32355	9007.5375
2626.98416	9011.2375
2629.64311	9004.4375
2632.30041	8998.2375
2634.95605	9012.9375
2637.61004	8977.5375
2640.26238	8963.0375
2642.91306	8996.3375
2645.56209	8979.8375
2648.20948	8970.7375
2650.85521	8976.9375
2653.4993	8965.7375
2656.14175	8959.4375
2658.78255	8989.3375
2661.42171	8991.7375
2664.05923	9037.7375
2666.6951	9016.5375
2669.32934	9010.7375
2671.96194	9021.3375
2674.59291	8996.8375
2677.22224	9002.0375
2679.84993	9025.4375
2682.476	9012.5375
2685.10043	8996.5375
2687.72324	8994.8375
2690.34441	8995.6375
2692.96396	8990.6375
2695.58188	8992.9375
2698.19818	8982.3375
2700.81285	8990.5375
2703.4259	8998.6375
2706.03733	9049.2375
2708.64714	9026.9375
2711.25533	9042.8375
2713.86191	9006.8375
2716.46687	9033.7375
2719.07021	9016.4375
2721.67194	9025.8375
2724.27206	9032.2375
2726.87057	9050.2375
2729.46747	9077.7375
2732.06276	9063.3375
2734.65644	9040.6375
2737.24852	9045.0375
2739.83899	9036.1375
2742.42786	9036.2375
2745.01513	9016.4375
2747.60079	9017.0375
2750.18486	9043.6375
2752.76733	9007.2375
2755.3482	9025.3375
2757.92747	9044.3375
2760.50515	9022.4375
2763.08123	9057.8375
2765.65573	9025.8375
2768.22863	9033.1375
2770.79994	9009.4375
2773.36967	9018.4375
2775.9378	9009.0375
2778.50435	9005.9375
2781.06932	8996.3375
2783.6327	9025.2375
2786.1945	8990.1375
2788.75471	8995.2375
2791.31335	8988.8375
2793.87041	8997.7375
2796.42589	8949.2375
2798.97979	8962.9375
2801.53212	8947.3375
2804.08288	8937.5375
2806.63206	8911.2375
2809.17967	8916.2375
2811.72571	8860.7375
2814.27018	8878.8375
2816.81308	8834.6375
2819.35442	8835.4375
2821.89419	8807.5375
2824.43239	8808.6375
2826.96904	8796.1375
2829.50412	8789.1375
2832.03763	8776.9375
2834.56959	8773.8375
2837.1	8793.9375
2839.62884	8805.1375
2842.15613	8784.3375
2844.68186	8813.1375
2847.20604	8871.2375
2849.72867	8888.5375
2852.24974	8881.5375
2854.76927	8856.0375
2857.28724	8874.0375
2859.80367	8852.5375
2862.31855	8832.0375
2864.83189	8816.8375
2867.34368	8791.2375
2869.85393	8789.9375
2872.36264	8782.9375
2874.8698	8775.3375
2877.37543	8760.1375
2879.87952	8770.2375
2882.38207	8761.7375
2884.88308	8774.7375
2887.38256	8774.8375
2889.88051	8746.3375
2892.37692	8765.6375
2894.8718	8755.4375
2897.36515	8767.9375
2899.85698	8777.9375
2902.34727	8810.5375
2904.83604	8791.4375
2907.32328	8789.0375
2909.809	8793.1375
2912.29319	8796.6375
2914.77587	8793.9375
2917.25702	8785.8375
2919.73665	8798.3375
2922.21476	8781.8375
2924.69136	8791.7375
2927.16644	8800.9375
2929.64	8815.7375
2932.11205	8790.1375
2934.58258	8765.6375
2937.05161	8756.0375
2939.51912	8779.2375
2941.98513	8768.8375
2944.44962	8720.2375
2946.91261	8660.9375
2949.37409	8682.0375
2951.83407	8630.9375
2954.29254	8637.3375
2956.74951	8603.1375
2959.20498	8612.0375
2961.65895	8585.8375
2964.11142	8567.6375
2966.56239	8535.5375
2969.01186	8535.4375
2971.45984	8496.2375
2973.90632	8503.5375
2976.35131	8424.3375
2978.7948	8415.2375
2981.23681	8399.1375
2983.67732	8354.8375
2986.11635	8322.6375
2988.55388	8331.2375
2990.98993	8292.5375
2993.4245	8274.6375
2995.85758	8277.7375
2998.28917	8217.6375
3000.71928	8205.0375
3003.14791	8200.5375
3005.57506	8184.9375
3008.00073	8169.7375
3010.42493	8137.3375
3012.84764	8126.1375
3015.26888	8118.3375
3017.68865	8073.9375
3020.10694	8060.8375
3022.52376	8054.9375
3024.9391	8015.4375
3027.35298	8010.2375
3029.76539	7997.7375
3032.17632	8010.9375
3034.5858	7985.8375
3036.9938	7991.7375
3039.40034	7985.9375
3041.80542	7959.7375
3044.20903	7966.0375
3046.61118	7942.2375
3049.01187	7921.2375
3051.4111	7882.5375
3053.80888	7884.2375
3056.20519	7854.0375
3058.60005	7836.3375
3060.99345	7815.3375
3063.3854	7780.3375
3065.7759	7764.5375
3068.16494	7741.4375
3070.55254	7707.1375
3072.93868	7687.8375
3075.32338	7661.0375
3077.70662	7636.8375
3080.08842	7591.1375
3082.46878	7603.1375
3084.84769	7590.0375
3087.22515	7598.9375
3089.60118	7598.7375
3091.97576	7568.6375
3094.3489	7579.0375
3096.72061	7570.3375
3099.09087	7549.2375
3101.4597	7537.3375
3103.82709	7537.5375
3106.19305	7507.3375
3108.55757	7492.9375
3110.92066	7465.8375
3113.28232	7468.6375
3115.64255	7426.3375
3118.00134	7402.5375
3120.35871	7394.6375
3122.71466	7369.0375
3125.06917	7391.1375
3127.42226	7360.5375
3129.77393	7373.6375
3132.12417	7347.2375
3134.47299	7354.0375
3136.82039	7323.4375
3139.16636	7324.1375
3141.51092	7312.0375
3143.85406	7316.9375
3146.19579	7321.0375
3148.53609	7324.3375
3150.87499	7335.2375
3153.21246	7344.2375
3155.54853	7319.4375
3157.88318	7308.0375
3160.21642	7330.2375
3162.54826	7312.8375
3164.87868	7313.6375
3167.2077	7287.4375
3169.5353	7300.5375
3171.86151	7292.1375
3174.18631	7276.3375
3176.5097	7276.7375
3178.83169	7264.1375
3181.15228	7268.6375
3183.47147	7258.5375
3185.78926	7261.6375
3188.10565	7249.0375
3190.42065	7227.6375
3192.73424	7223.1375
3195.04645	7215.5375
3197.35725	7226.9375
3199.66667	7200.4375
3201.97469	7203.6375
3204.28132	7175.0375
3206.58656	7198.5375
3208.8904	7174.8375
3211.19287	7198.7375
3213.49394	7168.1375
3215.79363	7168.6375
3218.09193	7164.5375
3220.38884	7185.3375
3222.68438	7184.1375
3224.97853	7171.6375
3227.2713	7154.4375
3229.56269	7143.0375
3231.8527	7148.1375
3234.14133	7111.8375
3236.42858	7093.7375
3238.71446	7124.7375
3240.99896	7104.7375
3243.28209	7083.1375
3245.56384	7093.3375
3247.84423	7100.9375
3250.12324	7073.6375
3252.40088	7056.9375
3254.67715	7056.0375
3256.95205	7034.2375
3259.22558	7028.5375
3261.49775	6988.8375
3263.76855	6981.1375
3266.03799	6932.8375
3268.30606	6919.5375
3270.57277	6912.5375
3272.83812	6897.7375
3275.10211	6887.2375
3277.36474	6883.9375
3279.62601	6878.2375
3281.88593	6869.3375
3284.14448	6882.1375
3286.40168	6898.9375
3288.65753	6872.6375
3290.91202	6863.2375
3293.16516	6842.3375
3295.41695	6831.9375
3297.66738	6783.2375
3299.91647	6736.2375
3302.16421	6695.2375
3304.4106	6650.9375
3306.65564	6635.6375
3308.89933	6576.1375
3311.14169	6519.1375
3313.38269	6489.2375
3315.62236	6434.1375
3317.86068	6382.7375
3320.09766	6298.9375
3322.3333	6252.3375
3324.5676	6227.6375
3326.80056	6150.1375
3329.03219	6120.6375
3331.26248	1.5375
3333.49143	-1.7625
3335.71905	-1.6625
