Data from AgNPs_FTO_APTES_UA_2uM_CRN_100uM_R6G_10uM_NaF_0.1M_Addition_RamanShift__5__15-43-55-306.txt Node

Date: Wed Feb 02 15:43:55 GMT 2022
User: TCL
Spectrometer: QEP01345
Trigger mode: 4
Integration Time (sec): 7.000000E0
Scans to average: 10
Electric dark correction enabled: true
Nonlinearity correction enabled: false
Boxcar width: 0
XAxis mode: Raman Shifts
Number of Pixels in Spectrum: 1044
>>>>>Begin Spectral Data<<<<<
46.04893	0.4
50.45542	0.8
54.85868	-1.6
59.25871	0.1
63.6555	74
68.04907	78.1
72.43941	80.9
76.82654	86.5
81.21044	91.5
85.59113	96.3
89.96862	94.9
94.34289	102.8
98.71396	105.4
103.08183	111.1
107.4465	112.2
111.80798	115.3
116.16626	114.8
120.52136	119.9
124.87327	122.1
129.222	130.6
133.56755	137.2
137.90993	143.9
142.24913	160.1
146.58517	184.8
150.91804	209.2
155.24774	242.7
159.57429	305.2
163.89768	379.8
168.21792	511.8
172.53501	688.9
176.84895	963.1
181.15975	1344.4
185.46741	1889.2
189.77193	2573.7
194.07331	3465.8
198.37157	4454.8
202.6667	5508.8
206.9587	6547.2
211.24758	7574.3
215.53334	8601.1
219.81599	9698.3
224.09553	10915.9
228.37195	12212
232.64527	13659.9
236.91549	15118.1
241.18261	16554.8
245.44663	17954.8
249.70755	19210.8
253.96539	20273.6
258.22014	21202
262.4718	21907.5
266.72039	22435.5
270.96589	22717.7
275.20832	22799.7
279.44768	22763.7
283.68397	22689.3
287.91719	22654.3
292.14735	22688.7
296.37445	22833.7
300.59849	23035.2
304.81948	23185.7
309.03742	23185.5
313.25231	22838
317.46415	22250.4
321.67296	21437.7
325.87872	20765.8
330.08145	20353.4
334.28114	20242.4
338.47781	20275.8
342.67145	20443.3
346.86207	20711.8
351.04966	20941.6
355.23424	21232.4
359.4158	21467.6
363.59435	21622.6
367.76989	21688
371.94243	21743.6
376.11196	21748.3
380.27849	21797
384.44203	21895
388.60257	22074.9
392.76012	22389.3
396.91468	22758.2
401.06626	23192.3
405.21485	23394.3
409.36047	23322.3
413.50311	23029.9
417.64277	22744
421.77947	22774.9
425.9132	22833.6
430.04396	22905.7
434.17176	23005.5
438.2966	23081.5
442.41849	23381.2
446.53742	23994.6
450.6534	24730.3
454.76644	25284.4
458.87653	25482.7
462.98368	25437.4
467.08789	25335.8
471.18916	25079.5
475.2875	25003.2
479.38291	25091.2
483.4754	25065.5
487.56496	24702
491.6516	24079.6
495.73531	23362.6
499.81612	22948.8
503.89401	22897.4
507.96899	22975.3
512.04106	22903.3
516.11023	22680.5
520.1765	22334.9
524.23987	21979.3
528.30034	21630.7
532.35792	21341.1
536.41261	21089.5
540.46441	20920.4
544.51333	20976.2
548.55936	21421
552.60252	22011
556.64279	22751.2
560.6802	23309.3
564.71473	23745.6
568.7464	24465.3
572.7752	25606.1
576.80114	26706.4
580.82422	27587.3
584.84444	28398.7
588.86181	29113.8
592.87633	29409.4
596.888	28684.1
600.89682	27461.8
604.9028	27170.5
608.90594	28463.7
612.90624	29782
616.90371	27651.7
620.89834	23190.6
624.89015	21219.6
628.87913	21081.6
632.86528	21283.6
636.84862	21319.7
640.82913	21000
644.80683	20428.3
648.78172	19978.1
652.75379	19841.8
656.72306	20046.9
660.68952	20286.9
664.65319	20160.6
668.61405	19783
672.57211	19706.5
676.52738	19799.3
680.47986	19794.3
684.42955	19694
688.37646	19592.8
692.32058	19663
696.26192	19926.6
700.20048	20226.2
704.13626	20451
708.06928	20558.6
711.99952	20526.5
715.927	20508
719.85171	20449.9
723.77365	20344.8
727.69284	19977.3
731.60928	19688
735.52295	19541.9
739.43388	19484.5
743.34206	19546.8
747.24749	19628
751.15017	19943.4
755.05012	20472.5
758.94733	21261.5
762.8418	22582.4
766.73354	24507.7
770.62254	26105.9
774.50882	26068.6
778.39237	24494.7
782.27321	22538.1
786.15132	20977.9
790.02671	19996.8
793.89938	19531.6
797.76935	19295.9
801.6366	19265.1
805.50115	19214.3
809.36299	19081.3
813.22213	18988.3
817.07857	18927.7
820.93231	18901.8
824.78336	18739.2
828.63172	18553.1
832.47738	18465.8
836.32036	18423
840.16066	18440.7
843.99827	18458.6
847.8332	18389.9
851.66546	18343
855.49504	18352.9
859.32195	18309.6
863.1462	18252.3
866.96777	18175.1
870.78668	18124.7
874.60293	18101.4
878.41652	18080.1
882.22745	18152
886.03573	18181.1
889.84136	18194.1
893.64433	18103.1
897.44466	18056.2
901.24235	18013.5
905.0374	17961.9
908.8298	17937.5
912.61957	18037.7
916.40671	18343.1
920.19121	18753.3
923.97308	18977.9
927.75233	18857.8
931.52895	18571.9
935.30295	18181.3
939.07433	17684.7
942.84309	17342.6
946.60924	17131.9
950.37278	17068
954.13371	17028.2
957.89203	17099.1
961.64774	17089.1
965.40086	17119.1
969.15137	17050
972.89929	16871.8
976.64461	16723.7
980.38733	16655.3
984.12747	16675.2
987.86502	16746
991.59999	16859.6
995.33237	17082.2
999.06217	17372.5
1002.78939	17758.7
1006.51404	18037.3
1010.23611	18303.4
1013.95561	18544.4
1017.67255	18624.2
1021.38692	18486.2
1025.09872	18175.9
1028.80796	18012.8
1032.51465	18129
1036.21877	18439
1039.92035	18635.5
1043.61937	18622.3
1047.31584	18567.2
1051.00976	18388.4
1054.70114	18422.4
1058.38998	18584.1
1062.07627	18865
1065.76003	19189.6
1069.44126	19535.2
1073.11995	19905.6
1076.79611	20170.2
1080.46974	20218.7
1084.14085	20270.2
1087.80943	20466.8
1091.47549	20713.2
1095.13903	20865.1
1098.80005	20564.7
1102.45857	19956.3
1106.11456	19371.9
1109.76805	19019.3
1113.41903	18964.7
1117.06751	19061.7
1120.71348	19342.7
1124.35696	19636.8
1127.99793	19999.6
1131.63641	20214.3
1135.2724	20155.3
1138.90589	20071.4
1142.5369	20208.9
1146.16542	20487.2
1149.79145	20882.2
1153.415	21256.1
1157.03607	21857.7
1160.65467	22688.3
1164.27079	24014.7
1167.88443	25611.4
1171.49561	27362
1175.10432	29437.4
1178.71056	31980.4
1182.31434	34265
1185.91565	35376.2
1189.51451	35314.7
1193.11091	34530.4
1196.70485	33298.9
1200.29634	31872.4
1203.88538	30905.4
1207.47197	30506.5
1211.05612	30304.7
1214.63782	29710.6
1218.21708	28576.9
1221.79391	27339.1
1225.36829	26355.3
1228.94024	25659.7
1232.50976	25181.2
1236.07685	24769.2
1239.6415	24591.3
1243.20374	24606.1
1246.76355	24850.4
1250.32093	25241.9
1253.8759	25818.7
1257.42845	26696.3
1260.97859	27581.9
1264.52631	28440.1
1268.07163	29318.5
1271.61453	30244.8
1275.15503	31302.7
1278.69312	32556
1282.22882	33830.5
1285.76211	35423.6
1289.29301	37304
1292.82151	39640.4
1296.34761	42503.3
1299.87133	45606.3
1303.39266	48484.7
1306.9116	50788.2
1310.42815	52189.9
1313.94233	52759.8
1317.45412	52370.7
1320.96354	51914.7
1324.47058	51707.7
1327.97525	51747.7
1331.47754	51729.9
1334.97747	51436.2
1338.47502	50858.2
1341.97022	50000.5
1345.46305	49017.9
1348.95352	47975
1352.44163	47148.1
1355.92738	47006.6
1359.41078	47804.4
1362.89183	48691.1
1366.37053	47882.2
1369.84688	44508.6
1373.32088	40042.7
1376.79254	36908.1
1380.26186	35946.1
1383.72883	36249.6
1387.19347	36703.2
1390.65578	36815.9
1394.11575	36956.1
1397.57339	37478.8
1401.0287	38207.4
1404.48168	38563.1
1407.93234	38087.2
1411.38068	36663
1414.82669	34736.4
1418.27039	32636.5
1421.71177	30601.3
1425.15083	29081.9
1428.58758	28342.6
1432.02203	28543.6
1435.45416	29468.2
1438.88399	30649.9
1442.31151	31623.3
1445.73673	32313.7
1449.15965	33042.3
1452.58027	33506
1455.9986	33789.3
1459.41463	34030.7
1462.82837	34476.8
1466.23982	34946.3
1469.64898	35314.6
1473.05586	35521.8
1476.46045	35429.3
1479.86276	34941.8
1483.26279	34449.8
1486.66054	34191.7
1490.05602	34287.6
1493.44922	34773
1496.84016	35466.8
1500.22882	36485.5
1503.61521	37829.5
1506.99934	39293.1
1510.38121	40476.9
1513.76081	40731.4
1517.13816	39985.8
1520.51324	38859.2
1523.88607	38174
1527.25665	38007.6
1530.62498	38043.9
1533.99105	37965.1
1537.35488	37384.3
1540.71647	36283.9
1544.07581	34857.6
1547.4329	33378.1
1550.78776	32196.8
1554.14038	31447.6
1557.49077	31051.7
1560.83892	30880.3
1564.18484	30886
1567.52853	31019.4
1570.86999	31468.2
1574.20922	32338.5
1577.54624	33267.3
1580.88103	33923.5
1584.2136	34592.3
1587.54395	35825.6
1590.87208	37530.4
1594.19801	39440.1
1597.52172	41032.8
1600.84321	41021.6
1604.16251	38667.1
1607.47959	35162.2
1610.79447	31653.5
1614.10715	28546.2
1617.41763	26011.1
1620.7259	24261.5
1624.03199	23356.6
1627.33587	23366.5
1630.63757	24229.8
1633.93707	26229.5
1637.23439	29489.7
1640.52951	34095.9
1643.82246	39587.8
1647.11321	44043
1650.40179	45176.9
1653.68819	42150.8
1656.97241	36179.1
1660.25446	29978.6
1663.53433	25099.8
1666.81203	21811.4
1670.08756	19753.9
1673.36092	18371.7
1676.63211	17516
1679.90115	16937.8
1683.16801	16523.8
1686.43272	16217.3
1689.69527	15984
1692.95567	15791.4
1696.2139	15707
1699.46999	15597.1
1702.72392	15476.2
1705.97571	15387.9
1709.22535	15289.9
1712.47284	15207.6
1715.71819	15193.8
1718.96139	15071.3
1722.20246	15001
1725.44139	14946.7
1728.67818	14858
1731.91284	14739.4
1735.14537	14631.9
1738.37576	14554.3
1741.60403	14481.3
1744.83017	14417.6
1748.05418	14378.3
1751.27607	14375.3
1754.49584	14361.4
1757.71349	14343.7
1760.92903	14319.5
1764.14244	14289.1
1767.35375	14219
1770.56294	14198.6
1773.77002	14140.6
1776.97499	14077.3
1780.17785	14052
1783.37861	14002.7
1786.57727	13969.4
1789.77382	13909.4
1792.96828	13866
1796.16064	13829.4
1799.3509	13787.1
1802.53907	13769.9
1805.72514	13684
1808.90913	13667
1812.09102	13630.5
1815.27083	13607.1
1818.44856	13592.8
1821.6242	13553.4
1824.79776	13527.4
1827.96924	13536.3
1831.13864	13527.1
1834.30597	13523.7
1837.47122	13518.4
1840.6344	13508.5
1843.7955	13533.4
1846.95454	13494.3
1850.11151	13479.4
1853.26642	13483.1
1856.41926	13427.9
1859.57004	13436.1
1862.71876	13406
1865.86542	13383.8
1869.01003	13394.5
1872.15258	13332.8
1875.29308	13309.5
1878.43152	13296
1881.56792	13288.4
1884.70227	13247.4
1887.83457	13249.4
1890.96482	13230.7
1894.09304	13211.4
1897.21921	13187
1900.34335	13150.3
1903.46544	13121.8
1906.58551	13121.8
1909.70353	13084.9
1912.81953	13034.2
1915.93349	13030.3
1919.04543	12967.1
1922.15534	12948.4
1925.26322	12929.1
1928.36908	12889.1
1931.47292	12844.4
1934.57473	12819
1937.67453	12767.7
1940.77232	12725.5
1943.86808	12722.2
1946.96184	12680.7
1950.05358	12621.3
1953.14331	12612.5
1956.23103	12541
1959.31675	12506.6
1962.40046	12443.9
1965.48217	12416.8
1968.56188	12397
1971.63959	12349.2
1974.7153	12334.8
1977.78901	12280.3
1980.86073	12228.1
1983.93046	12178.7
1986.99819	12147
1990.06394	12098.1
1993.1277	12081.6
1996.18947	12003.3
1999.24925	12001.9
2002.30706	11930.6
2005.36288	11884.3
2008.41672	11868.3
2011.46859	11839.1
2014.51848	11776.9
2017.56639	11730.4
2020.61233	11724.3
2023.6563	11689
2026.6983	11700.3
2029.73833	11652
2032.7764	11628
2035.8125	11610.9
2038.84664	11591.6
2041.87881	11568.8
2044.90903	11546.7
2047.93729	11519.2
2050.96359	11510.2
2053.98794	11485.9
2057.01034	11489.5
2060.03078	11471.5
2063.04927	11434.7
2066.06582	11432.5
2069.08042	11409
2072.09307	11446.7
2075.10378	11396
2078.11255	11387.3
2081.11938	11378.4
2084.12426	11353.8
2087.12722	11364.5
2090.12824	11351.2
2093.12732	11376.7
2096.12447	11381.3
2099.11969	11357.5
2102.11299	11374.5
2105.10435	11388.5
2108.09379	11385.3
2111.08131	11352.7
2114.0669	11359.2
2117.05057	11371.8
2120.03233	11380.8
2123.01216	11383.3
2125.99008	11407.1
2128.96609	11376.2
2131.94018	11370.3
2134.91236	11362.1
2137.88263	11378
2140.851	11366.7
2143.81746	11376
2146.78201	11388.6
2149.74466	11391.5
2152.7054	11351.2
2155.66425	11343.1
2158.6212	11336.2
2161.57625	11343.5
2164.52941	11338
2167.48067	11311.6
2170.43004	11342.7
2173.37752	11293.9
2176.32311	11290.4
2179.26681	11285.5
2182.20863	11272.2
2185.14856	11298.7
2188.08661	11295.1
2191.02278	11280.3
2193.95707	11261.8
2196.88948	11274.2
2199.82001	11276.3
2202.74867	11242.2
2205.67545	11218.2
2208.60037	11189
2211.52341	11186.1
2214.44458	11170
2217.36388	11161.7
2220.28132	11146.9
2223.1969	11141.5
2226.11061	11105.7
2229.02246	11080.8
2231.93245	11058
2234.84058	11032.1
2237.74686	11050.5
2240.65128	10993.3
2243.55385	10977.7
2246.45456	10979.6
2249.35343	10930.8
2252.25044	10929.4
2255.14561	10885
2258.03893	10890.7
2260.93041	10855.3
2263.82004	10811.5
2266.70783	10774.9
2269.59378	10758.1
2272.4779	10721.7
2275.36017	10710.2
2278.24061	10678.4
2281.11922	10643
2283.996	10623.2
2286.87094	10608.4
2289.74405	10589.1
2292.61534	10584.8
2295.4848	10585.3
2298.35243	10558.6
2301.21824	10570.3
2304.08223	10569.1
2306.94439	10545.1
2309.80474	10555.6
2312.66327	10525.8
2315.51999	10529.6
2318.37489	10508.8
2321.22797	10483.1
2324.07925	10494.2
2326.92871	10474.2
2329.77637	10462.2
2332.62222	10466.1
2335.46626	10454.5
2338.3085	10460.8
2341.14893	10433.6
2343.98756	10435
2346.8244	10460.4
2349.65943	10441.9
2352.49267	10448.5
2355.32411	10458.1
2358.15376	10435.5
2360.98161	10434.8
2363.80768	10394.8
2366.63195	10409.9
2369.45444	10387.8
2372.27514	10384.7
2375.09405	10364.6
2377.91118	10324.4
2380.72652	10339.2
2383.54009	10318.6
2386.35187	10283.7
2389.16188	10241.2
2391.97011	10234
2394.77657	10231.2
2397.58125	10210.2
2400.38416	10186.6
2403.18529	10168.6
2405.98466	10163.8
2408.78226	10130.5
2411.57809	10108.4
2414.37216	10093.6
2417.16446	10114.2
2419.955	10086.3
2422.74378	10098.3
2425.5308	10085.7
2428.31606	10073.7
2431.09956	10103.1
2433.88131	10040.6
2436.6613	10050.2
2439.43954	10062.2
2442.21603	10050.6
2444.99077	10025.5
2447.76377	10050.3
2450.53501	10041.2
2453.30451	10028.3
2456.07226	10037.1
2458.83827	10015.3
2461.60254	10039.2
2464.36507	10022.7
2467.12586	10018.1
2469.88492	10019.5
2472.64224	10065.2
2475.39782	10031.6
2478.15167	10026.6
2480.90379	10020.2
2483.65417	10031.3
2486.40283	10023.6
2489.14976	10041.7
2491.89497	10007.5
2494.63845	10025.1
2497.3802	10028.1
2500.12024	10025.4
2502.85855	10024.5
2505.59514	10004
2508.33002	10016.2
2511.06318	9993.8
2513.79462	9980
2516.52435	9990.4
2519.25237	9989.1
2521.97867	9954.3
2524.70327	9961.8
2527.42616	9911.5
2530.14734	9959.4
2532.86681	9921.9
2535.58458	9933.8
2538.30065	9901.9
2541.01501	9913.3
2543.72768	9882
2546.43864	9871.8
2549.14791	9856.6
2551.85548	9874.4
2554.56136	9846.3
2557.26554	9840.3
2559.96803	9830.3
2562.66883	9867.4
2565.36794	9844.3
2568.06536	9834.8
2570.7611	9815.9
2573.45514	9852.9
2576.14751	9811.6
2578.83819	9793.2
2581.52719	9797.9
2584.21451	9792.1
2586.90015	9778.8
2589.58411	9806.9
2592.2664	9782.3
2594.94701	9781.4
2597.62594	9768.6
2600.30321	9736
2602.9788	9720.3
2605.65273	9742.6
2608.32498	9742
2610.99557	9751.7
2613.66449	9744.6
2616.33175	9765.4
2618.99734	9776.6
2621.66128	9727.6
2624.32355	9720.5
2626.98416	9739.7
2629.64311	9716.3
2632.30041	9730.4
2634.95605	9707.5
2637.61004	9727.4
2640.26238	9701.5
2642.91306	9722.1
2645.56209	9710.8
2648.20948	9708.5
2650.85521	9664.4
2653.4993	9707.9
2656.14175	9697.2
2658.78255	9704.5
2661.42171	9723.2
2664.05923	9746.4
2666.6951	9720.6
2669.32934	9751.8
2671.96194	9745.5
2674.59291	9715.2
2677.22224	9740.3
2679.84993	9733.2
2682.476	9727.5
2685.10043	9717
2687.72324	9685
2690.34441	9688.1
2692.96396	9725.6
2695.58188	9724
2698.19818	9679.1
2700.81285	9719
2703.4259	9733.8
2706.03733	9757
2708.64714	9755.8
2711.25533	9765
2713.86191	9725.8
2716.46687	9750
2719.07021	9756.7
2721.67194	9750.1
2724.27206	9753.9
2726.87057	9789.1
2729.46747	9798.2
2732.06276	9813.1
2734.65644	9785.7
2737.24852	9793.1
2739.83899	9768.3
2742.42786	9777.8
2745.01513	9738.3
2747.60079	9765.4
2750.18486	9741
2752.76733	9738.2
2755.3482	9727.7
2757.92747	9753.3
2760.50515	9772.5
2763.08123	9785
2765.65573	9753.3
2768.22863	9742.8
2770.79994	9733.3
2773.36967	9729.1
2775.9378	9713
2778.50435	9722.2
2781.06932	9738.1
2783.6327	9729.3
2786.1945	9748.5
2788.75471	9749.6
2791.31335	9719.8
2793.87041	9702.4
2796.42589	9677
2798.97979	9700.5
2801.53212	9670.4
2804.08288	9665.8
2806.63206	9667.3
2809.17967	9633.6
2811.72571	9619.5
2814.27018	9588.7
2816.81308	9596.4
2819.35442	9590.1
2821.89419	9540.5
2824.43239	9549.8
2826.96904	9555.6
2829.50412	9546.2
2832.03763	9520.8
2834.56959	9551.8
2837.1	9544.5
2839.62884	9534.4
2842.15613	9538
2844.68186	9601.5
2847.20604	9626.5
2849.72867	9613.2
2852.24974	9629.5
2854.76927	9611.1
2857.28724	9618.3
2859.80367	9592.5
2862.31855	9576.6
2864.83189	9586.8
2867.34368	9547.6
2869.85393	9563
2872.36264	9530.4
2874.8698	9559.1
2877.37543	9549.7
2879.87952	9554
2882.38207	9542
2884.88308	9555
2887.38256	9536.2
2889.88051	9556.3
2892.37692	9564.6
2894.8718	9550.1
2897.36515	9565.8
2899.85698	9584.1
2902.34727	9600.4
2904.83604	9604.4
2907.32328	9624.6
2909.809	9599.4
2912.29319	9598.6
2914.77587	9598.3
2917.25702	9618.5
2919.73665	9584.1
2922.21476	9615.6
2924.69136	9598.2
2927.16644	9607.4
2929.64	9628.6
2932.11205	9622.6
2934.58258	9585.1
2937.05161	9576.5
2939.51912	9607.1
2941.98513	9565.1
2944.44962	9545.2
2946.91261	9459.7
2949.37409	9470.8
2951.83407	9474.6
2954.29254	9426.8
2956.74951	9420.4
2959.20498	9403.4
2961.65895	9385.4
2964.11142	9381.7
2966.56239	9356.3
2969.01186	9335.8
2971.45984	9302.1
2973.90632	9309
2976.35131	9257.3
2978.7948	9227.4
2981.23681	9209.2
2983.67732	9192.4
2986.11635	9180
2988.55388	9163.4
2990.98993	9135.5
2993.4245	9114.9
2995.85758	9086.9
2998.28917	9065.7
3000.71928	9057.6
3003.14791	9013.8
3005.57506	9019.9
3008.00073	8978.7
3010.42493	8921.6
3012.84764	8953.4
3015.26888	8951.6
3017.68865	8921.8
3020.10694	8913.1
3022.52376	8873.5
3024.9391	8884.8
3027.35298	8843.4
3029.76539	8854
3032.17632	8851.1
3034.5858	8850.5
3036.9938	8813.5
3039.40034	8809.3
3041.80542	8807.8
3044.20903	8794.2
3046.61118	8792
3049.01187	8751.2
3051.4111	8735.5
3053.80888	8715.4
3056.20519	8691
3058.60005	8682.2
3060.99345	8669.9
3063.3854	8654.8
3065.7759	8611.5
3068.16494	8601.6
3070.55254	8565.1
3072.93868	8555
3075.32338	8526.7
3077.70662	8501
3080.08842	8491.5
3082.46878	8484.6
3084.84769	8466.4
3087.22515	8455.3
3089.60118	8438.7
3091.97576	8449.7
3094.3489	8453.2
3096.72061	8451.1
3099.09087	8423.4
3101.4597	8396.2
3103.82709	8413.8
3106.19305	8384.7
3108.55757	8386
3110.92066	8372.7
3113.28232	8342.5
3115.64255	8312.1
3118.00134	8282.6
3120.35871	8265.5
3122.71466	8258
3125.06917	8255.1
3127.42226	8249.6
3129.77393	8224.8
3132.12417	8206.5
3134.47299	8224.9
3136.82039	8193.1
3139.16636	8183.8
3141.51092	8209
3143.85406	8206.1
3146.19579	8215.9
3148.53609	8247.7
3150.87499	8235.1
3153.21246	8219.6
3155.54853	8247.2
3157.88318	8214.2
3160.21642	8213.1
3162.54826	8211.3
3164.87868	8222.9
3167.2077	8226.6
3169.5353	8197
3171.86151	8210.5
3174.18631	8198.3
3176.5097	8204.1
3178.83169	8198.7
3181.15228	8179
3183.47147	8177.4
3185.78926	8155.6
3188.10565	8146.8
3190.42065	8157.5
3192.73424	8144
3195.04645	8151.1
3197.35725	8139.1
3199.66667	8137.4
3201.97469	8144.2
3204.28132	8106.9
3206.58656	8133
3208.8904	8134.2
3211.19287	8121.9
3213.49394	8122.7
3215.79363	8146.2
3218.09193	8148.3
3220.38884	8133.6
3222.68438	8147.9
3224.97853	8115.3
3227.2713	8109.2
3229.56269	8103.4
3231.8527	8113.4
3234.14133	8102.5
3236.42858	8068.8
3238.71446	8087.3
3240.99896	8067
3243.28209	8059.8
3245.56384	8042.1
3247.84423	8084
3250.12324	8030.9
3252.40088	8035.6
3254.67715	7998.8
3256.95205	7980.6
3259.22558	7985.4
3261.49775	7970
3263.76855	7944.5
3266.03799	7907.5
3268.30606	7900.9
3270.57277	7898.7
3272.83812	7848.6
3275.10211	7855.5
3277.36474	7850.8
3279.62601	7861.1
3281.88593	7844.2
3284.14448	7863.4
3286.40168	7864.3
3288.65753	7839.7
3290.91202	7844.9
3293.16516	7827.9
3295.41695	7786.7
3297.66738	7752.9
3299.91647	7703.4
3302.16421	7656.1
3304.4106	7620.2
3306.65564	7580.6
3308.89933	7555.5
3311.14169	7501.9
3313.38269	7445.9
3315.62236	7410.3
3317.86068	7323.4
3320.09766	7250.4
3322.3333	7185
3324.5676	7190.1
3326.80056	7072.2
3329.03219	7040.4
3331.26248	1.9
3333.49143	-0.4
3335.71905	-1.8
