Data from AgNPs_FTO_APTES_UA_2uM_CRN_500uM_R6G_10uM_NaF_0.1M_Addition_RamanShift__20__17-21-55-421.txt Node

Date: Wed Feb 02 17:21:55 GMT 2022
User: TCL
Spectrometer: QEP01345
Trigger mode: 4
Integration Time (sec): 7.000000E0
Scans to average: 10
Electric dark correction enabled: true
Nonlinearity correction enabled: false
Boxcar width: 0
XAxis mode: Raman Shifts
Number of Pixels in Spectrum: 1044
>>>>>Begin Spectral Data<<<<<
46.04893	0.7625
50.45542	1.1625
54.85868	-1.2375
59.25871	-0.6375
63.6555	64.3625
68.04907	70.9625
72.43941	74.7625
76.82654	79.0625
81.21044	77.5625
85.59113	87.0625
89.96862	86.1625
94.34289	90.7625
98.71396	88.6625
103.08183	98.1625
107.4465	99.3625
111.80798	103.1625
116.16626	102.9625
120.52136	108.0625
124.87327	105.6625
129.222	118.1625
133.56755	124.7625
137.90993	135.2625
142.24913	152.7625
146.58517	170.9625
150.91804	193.3625
155.24774	237.6625
159.57429	286.3625
163.89768	362.9625
168.21792	482.7625
172.53501	660.1625
176.84895	921.9625
181.15975	1289.6625
185.46741	1807.3625
189.77193	2491.7625
194.07331	3326.6625
198.37157	4286.7625
202.6667	5281.5625
206.9587	6273.0625
211.24758	7261.3625
215.53334	8248.4625
219.81599	9284.0625
224.09553	10416.1625
228.37195	11633.3625
232.64527	12980.3625
236.91549	14391.7625
241.18261	15799.6625
245.44663	17143.7625
249.70755	18424.6625
253.96539	19558.6625
258.22014	20561.5625
262.4718	21334.2625
266.72039	21877.0625
270.96589	22194.9625
275.20832	22449.0625
279.44768	22473.1625
283.68397	22429.0625
287.91719	22430.1625
292.14735	22506.9625
296.37445	22616.8625
300.59849	22715.8625
304.81948	22701.5625
309.03742	22396.4625
313.25231	21948.7625
317.46415	21246.9625
321.67296	20523.0625
325.87872	19915.1625
330.08145	19642.9625
334.28114	19499.0625
338.47781	19574.7625
342.67145	19750.4625
346.86207	19983.7625
351.04966	20270.3625
355.23424	20664.3625
359.4158	20937.2625
363.59435	21119.3625
367.76989	21244.2625
371.94243	21326.9625
376.11196	21400.0625
380.27849	21582.6625
384.44203	21741.9625
388.60257	21929.0625
392.76012	22222.6625
396.91468	22519.0625
401.06626	22837.7625
405.21485	23072.1625
409.36047	23029.8625
413.50311	22758.6625
417.64277	22593.4625
421.77947	22641.8625
425.9132	22780.6625
430.04396	22969.7625
434.17176	23146.8625
438.2966	23356.9625
442.41849	23850.9625
446.53742	24528.6625
450.6534	25322.6625
454.76644	25946.3625
458.87653	26214.4625
462.98368	26176.4625
467.08789	25996.7625
471.18916	25841.8625
475.2875	25831.8625
479.38291	26003.6625
483.4754	26152.9625
487.56496	25729.9625
491.6516	25050.1625
495.73531	24241.1625
499.81612	23721.9625
503.89401	23606.0625
507.96899	23529.2625
512.04106	23377.7625
516.11023	23063.3625
520.1765	22696.2625
524.23987	22392.4625
528.30034	22127.6625
532.35792	21962.4625
536.41261	21764.3625
540.46441	21650.9625
544.51333	21782.4625
548.55936	22192.3625
552.60252	22821.9625
556.64279	23592.1625
560.6802	24165.3625
564.71473	24690.9625
568.7464	25341.8625
572.7752	26123.5625
576.80114	26674.9625
580.82422	26960.7625
584.84444	27111.4625
588.86181	27343.9625
592.87633	27634.1625
596.888	27670.5625
600.89682	27434.1625
604.9028	27613.6625
608.90594	28724.1625
612.90624	29625.4625
616.90371	27558.7625
620.89834	23707.1625
624.89015	21908.5625
628.87913	21837.4625
632.86528	22113.7625
636.84862	22221.9625
640.82913	22007.4625
644.80683	21437.8625
648.78172	20933.2625
652.75379	20662.6625
656.72306	20709.2625
660.68952	20888.4625
664.65319	20852.4625
668.61405	20582.7625
672.57211	20525.5625
676.52738	20570.2625
680.47986	20613.9625
684.42955	20573.3625
688.37646	20484.5625
692.32058	20522.6625
696.26192	20687.9625
700.20048	20938.7625
704.13626	21091.7625
708.06928	21186.4625
711.99952	21091.0625
715.927	21037.0625
719.85171	21003.6625
723.77365	20962.2625
727.69284	20824.6625
731.60928	20602.4625
735.52295	20552.9625
739.43388	20538.8625
743.34206	20487.7625
747.24749	20615.3625
751.15017	20832.1625
755.05012	21263.8625
758.94733	22006.2625
762.8418	23162.0625
766.73354	24778.1625
770.62254	26124.1625
774.50882	26103.4625
778.39237	24701.4625
782.27321	22886.2625
786.15132	21525.2625
790.02671	20676.0625
793.89938	20261.2625
797.76935	20134.0625
801.6366	20164.0625
805.50115	20150.6625
809.36299	20078.9625
813.22213	19931.8625
817.07857	19940.0625
820.93231	19918.1625
824.78336	19751.3625
828.63172	19564.7625
832.47738	19431.4625
836.32036	19425.3625
840.16066	19387.4625
843.99827	19451.9625
847.8332	19340.3625
851.66546	19303.4625
855.49504	19237.1625
859.32195	19226.6625
863.1462	19169.5625
866.96777	19147.6625
870.78668	19105.7625
874.60293	19149.9625
878.41652	19126.2625
882.22745	19118.2625
886.03573	19230.8625
889.84136	19232.8625
893.64433	19159.7625
897.44466	19099.6625
901.24235	19011.0625
905.0374	18885.1625
908.8298	18855.6625
912.61957	18914.3625
916.40671	19134.0625
920.19121	19447.8625
923.97308	19572.0625
927.75233	19470.2625
931.52895	19215.5625
935.30295	18920.1625
939.07433	18561.2625
942.84309	18262.9625
946.60924	18138.9625
950.37278	18068.0625
954.13371	18065.9625
957.89203	18065.0625
961.64774	18127.5625
965.40086	18082.4625
969.15137	18000.6625
972.89929	17839.7625
976.64461	17700.4625
980.38733	17610.5625
984.12747	17591.9625
987.86502	17662.5625
991.59999	17840.3625
995.33237	18031.0625
999.06217	18430.9625
1002.78939	18856.1625
1006.51404	19191.5625
1010.23611	19422.4625
1013.95561	19607.6625
1017.67255	19651.6625
1021.38692	19455.0625
1025.09872	19167.2625
1028.80796	18991.6625
1032.51465	19054.1625
1036.21877	19197.5625
1039.92035	19244.3625
1043.61937	19241.5625
1047.31584	19170.3625
1051.00976	19104.8625
1054.70114	19147.0625
1058.38998	19269.3625
1062.07627	19556.6625
1065.76003	19843.9625
1069.44126	20065.2625
1073.11995	20259.9625
1076.79611	20398.5625
1080.46974	20480.1625
1084.14085	20537.7625
1087.80943	20731.8625
1091.47549	20970.7625
1095.13903	21168.4625
1098.80005	21065.3625
1102.45857	20623.5625
1106.11456	20175.0625
1109.76805	19953.0625
1113.41903	19919.2625
1117.06751	20094.9625
1120.71348	20342.4625
1124.35696	20539.2625
1127.99793	20874.8625
1131.63641	21075.9625
1135.2724	20944.7625
1138.90589	20913.5625
1142.5369	21030.5625
1146.16542	21222.0625
1149.79145	21582.5625
1153.415	22042.0625
1157.03607	22575.8625
1160.65467	23412.9625
1164.27079	24589.1625
1167.88443	26019.3625
1171.49561	27643.0625
1175.10432	29738.9625
1178.71056	32216.3625
1182.31434	34582.4625
1185.91565	35853.2625
1189.51451	36071.4625
1193.11091	35632.5625
1196.70485	34776.3625
1200.29634	33586.1625
1203.88538	32600.8625
1207.47197	31984.7625
1211.05612	31552.7625
1214.63782	30862.3625
1218.21708	29978.6625
1221.79391	29055.2625
1225.36829	28258.0625
1228.94024	27603.3625
1232.50976	26906.1625
1236.07685	26459.3625
1239.6415	26246.5625
1243.20374	26186.7625
1246.76355	26403.6625
1250.32093	26754.6625
1253.8759	27362.9625
1257.42845	28149.0625
1260.97859	28963.7625
1264.52631	29704.2625
1268.07163	30500.5625
1271.61453	31387.5625
1275.15503	32322.0625
1278.69312	33468.5625
1282.22882	34507.0625
1285.76211	35746.3625
1289.29301	37360.2625
1292.82151	39552.9625
1296.34761	42304.3625
1299.87133	45247.6625
1303.39266	48117.5625
1306.9116	50548.0625
1310.42815	52591.4625
1313.94233	53861.6625
1317.45412	54328.5625
1320.96354	54257.8625
1324.47058	54328.6625
1327.97525	54336.2625
1331.47754	54327.8625
1334.97747	54420.3625
1338.47502	54346.4625
1341.97022	53973.7625
1345.46305	52773.4625
1348.95352	51013.9625
1352.44163	49198.0625
1355.92738	48043.7625
1359.41078	47958.9625
1362.89183	48157.5625
1366.37053	47107.5625
1369.84688	44098.5625
1373.32088	40328.7625
1376.79254	37790.3625
1380.26186	37112.2625
1383.72883	37685.2625
1387.19347	38440.6625
1390.65578	38978.1625
1394.11575	39672.2625
1397.57339	40760.4625
1401.0287	42043.4625
1404.48168	43156.8625
1407.93234	43379.5625
1411.38068	42377.7625
1414.82669	40428.2625
1418.27039	37875.5625
1421.71177	35234.6625
1425.15083	33090.5625
1428.58758	31782.3625
1432.02203	31588.3625
1435.45416	32324.2625
1438.88399	33591.9625
1442.31151	34902.2625
1445.73673	36009.4625
1449.15965	37044.6625
1452.58027	38003.1625
1455.9986	38624.5625
1459.41463	39091.1625
1462.82837	39542.2625
1466.23982	40091.7625
1469.64898	40524.2625
1473.05586	40519.8625
1476.46045	40205.9625
1479.86276	39485.6625
1483.26279	38555.8625
1486.66054	37716.0625
1490.05602	37225.2625
1493.44922	36956.9625
1496.84016	36732.0625
1500.22882	36700.1625
1503.61521	37090.8625
1506.99934	37799.8625
1510.38121	38525.8625
1513.76081	38987.0625
1517.13816	38740.4625
1520.51324	38101.7625
1523.88607	37510.6625
1527.25665	37468.6625
1530.62498	37738.5625
1533.99105	37956.3625
1537.35488	37997.2625
1540.71647	37558.7625
1544.07581	36747.6625
1547.4329	35715.6625
1550.78776	34676.4625
1554.14038	33954.5625
1557.49077	33567.1625
1560.83892	33383.8625
1564.18484	33304.5625
1567.52853	33262.8625
1570.86999	33514.0625
1574.20922	34195.5625
1577.54624	35026.8625
1580.88103	35819.9625
1584.2136	36862.6625
1587.54395	38436.0625
1590.87208	40573.4625
1594.19801	42860.3625
1597.52172	44928.7625
1600.84321	45385.9625
1604.16251	43348.7625
1607.47959	39738.3625
1610.79447	35666.3625
1614.10715	32010.6625
1617.41763	29001.3625
1620.7259	26851.6625
1624.03199	25689.2625
1627.33587	25490.2625
1630.63757	26216.9625
1633.93707	28080.5625
1637.23439	31219.7625
1640.52951	35700.1625
1643.82246	40700.2625
1647.11321	44782.8625
1650.40179	45542.7625
1653.68819	42500.8625
1656.97241	36876.5625
1660.25446	31092.4625
1663.53433	26449.0625
1666.81203	23224.5625
1670.08756	21160.9625
1673.36092	19829.1625
1676.63211	19019.8625
1679.90115	18391.3625
1683.16801	17972.4625
1686.43272	17647.8625
1689.69527	17425.4625
1692.95567	17212.1625
1696.2139	17088.6625
1699.46999	16996.8625
1702.72392	16907.1625
1705.97571	16818.2625
1709.22535	16740.9625
1712.47284	16637.6625
1715.71819	16591.1625
1718.96139	16516.4625
1722.20246	16437.5625
1725.44139	16329.9625
1728.67818	16225.8625
1731.91284	16168.8625
1735.14537	16069.4625
1738.37576	15999.6625
1741.60403	15937.8625
1744.83017	15873.3625
1748.05418	15858.1625
1751.27607	15843.0625
1754.49584	15820.5625
1757.71349	15825.7625
1760.92903	15772.9625
1764.14244	15726.5625
1767.35375	15726.4625
1770.56294	15679.3625
1773.77002	15619.3625
1776.97499	15580.2625
1780.17785	15551.1625
1783.37861	15470.4625
1786.57727	15470.3625
1789.77382	15379.9625
1792.96828	15401.5625
1796.16064	15314.9625
1799.3509	15302.9625
1802.53907	15258.6625
1805.72514	15207.7625
1808.90913	15176.1625
1812.09102	15134.7625
1815.27083	15108.5625
1818.44856	15060.6625
1821.6242	15013.0625
1824.79776	15039.3625
1827.96924	15012.6625
1831.13864	14979.6625
1834.30597	15004.0625
1837.47122	15009.2625
1840.6344	14993.6625
1843.7955	14978.7625
1846.95454	14974.9625
1850.11151	14958.8625
1853.26642	14990.9625
1856.41926	14969.9625
1859.57004	14947.3625
1862.71876	14952.2625
1865.86542	14921.3625
1869.01003	14907.1625
1872.15258	14881.7625
1875.29308	14920.9625
1878.43152	14903.4625
1881.56792	14902.6625
1884.70227	14857.7625
1887.83457	14831.2625
1890.96482	14833.9625
1894.09304	14831.0625
1897.21921	14824.2625
1900.34335	14797.8625
1903.46544	14807.4625
1906.58551	14802.1625
1909.70353	14789.9625
1912.81953	14748.2625
1915.93349	14703.7625
1919.04543	14667.1625
1922.15534	14643.4625
1925.26322	14609.0625
1928.36908	14570.0625
1931.47292	14542.8625
1934.57473	14482.9625
1937.67453	14436.2625
1940.77232	14394.6625
1943.86808	14321.5625
1946.96184	14269.8625
1950.05358	14255.3625
1953.14331	14200.0625
1956.23103	14179.6625
1959.31675	14113.2625
1962.40046	14070.6625
1965.48217	14017.1625
1968.56188	13937.3625
1971.63959	13907.2625
1974.7153	13891.9625
1977.78901	13837.5625
1980.86073	13790.3625
1983.93046	13769.1625
1986.99819	13750.8625
1990.06394	13681.2625
1993.1277	13625.1625
1996.18947	13557.5625
1999.24925	13581.5625
2002.30706	13508.7625
2005.36288	13475.8625
2008.41672	13422.9625
2011.46859	13370.3625
2014.51848	13328.9625
2017.56639	13304.9625
2020.61233	13302.5625
2023.6563	13276.8625
2026.6983	13259.2625
2029.73833	13248.4625
2032.7764	13206.3625
2035.8125	13190.5625
2038.84664	13131.5625
2041.87881	13117.8625
2044.90903	13099.9625
2047.93729	13046.0625
2050.96359	13058.2625
2053.98794	13039.0625
2057.01034	13023.2625
2060.03078	13045.6625
2063.04927	13010.5625
2066.06582	12981.3625
2069.08042	12978.6625
2072.09307	13010.2625
2075.10378	12964.0625
2078.11255	12947.8625
2081.11938	12950.0625
2084.12426	12956.7625
2087.12722	12934.7625
2090.12824	12922.1625
2093.12732	12901.2625
2096.12447	12911.6625
2099.11969	12916.6625
2102.11299	12934.6625
2105.10435	12938.5625
2108.09379	12924.0625
2111.08131	12932.6625
2114.0669	12930.1625
2117.05057	12936.4625
2120.03233	12934.3625
2123.01216	12944.6625
2125.99008	12949.7625
2128.96609	12950.9625
2131.94018	12938.9625
2134.91236	12945.5625
2137.88263	12951.2625
2140.851	12943.5625
2143.81746	12978.1625
2146.78201	12961.2625
2149.74466	12953.5625
2152.7054	12972.2625
2155.66425	12923.8625
2158.6212	12929.1625
2161.57625	12946.4625
2164.52941	12915.0625
2167.48067	12916.3625
2170.43004	12928.2625
2173.37752	12925.0625
2176.32311	12891.2625
2179.26681	12923.2625
2182.20863	12895.0625
2185.14856	12910.9625
2188.08661	12886.2625
2191.02278	12885.5625
2193.95707	12880.9625
2196.88948	12874.1625
2199.82001	12868.9625
2202.74867	12850.5625
2205.67545	12834.9625
2208.60037	12840.2625
2211.52341	12816.2625
2214.44458	12776.9625
2217.36388	12785.5625
2220.28132	12770.0625
2223.1969	12717.1625
2226.11061	12685.9625
2229.02246	12655.5625
2231.93245	12679.7625
2234.84058	12644.8625
2237.74686	12595.4625
2240.65128	12589.3625
2243.55385	12583.1625
2246.45456	12549.2625
2249.35343	12539.6625
2252.25044	12489.2625
2255.14561	12440.9625
2258.03893	12433.2625
2260.93041	12423.1625
2263.82004	12375.4625
2266.70783	12330.6625
2269.59378	12338.2625
2272.4779	12308.7625
2275.36017	12252.7625
2278.24061	12271.0625
2281.11922	12215.2625
2283.996	12205.1625
2286.87094	12191.3625
2289.74405	12159.4625
2292.61534	12156.7625
2295.4848	12132.1625
2298.35243	12137.2625
2301.21824	12135.2625
2304.08223	12120.9625
2306.94439	12118.5625
2309.80474	12119.3625
2312.66327	12100.3625
2315.51999	12102.0625
2318.37489	12082.4625
2321.22797	12071.1625
2324.07925	12042.7625
2326.92871	12062.6625
2329.77637	12055.7625
2332.62222	12015.3625
2335.46626	11992.7625
2338.3085	12006.8625
2341.14893	11997.1625
2343.98756	12000.3625
2346.8244	11983.1625
2349.65943	11969.3625
2352.49267	11963.4625
2355.32411	11976.9625
2358.15376	11980.5625
2360.98161	11956.7625
2363.80768	11943.8625
2366.63195	11949.6625
2369.45444	11941.7625
2372.27514	11913.0625
2375.09405	11905.9625
2377.91118	11896.0625
2380.72652	11868.5625
2383.54009	11847.1625
2386.35187	11828.8625
2389.16188	11779.9625
2391.97011	11788.5625
2394.77657	11766.7625
2397.58125	11746.4625
2400.38416	11722.6625
2403.18529	11698.5625
2405.98466	11679.7625
2408.78226	11649.3625
2411.57809	11671.0625
2414.37216	11630.4625
2417.16446	11648.8625
2419.955	11603.9625
2422.74378	11621.1625
2425.5308	11600.6625
2428.31606	11594.3625
2431.09956	11598.6625
2433.88131	11543.1625
2436.6613	11578.8625
2439.43954	11544.8625
2442.21603	11567.3625
2444.99077	11550.3625
2447.76377	11563.4625
2450.53501	11533.0625
2453.30451	11560.5625
2456.07226	11531.2625
2458.83827	11523.9625
2461.60254	11515.9625
2464.36507	11539.5625
2467.12586	11517.0625
2469.88492	11536.1625
2472.64224	11526.2625
2475.39782	11522.3625
2478.15167	11550.5625
2480.90379	11529.0625
2483.65417	11541.3625
2486.40283	11557.5625
2489.14976	11534.4625
2491.89497	11541.2625
2494.63845	11559.1625
2497.3802	11551.1625
2500.12024	11550.4625
2502.85855	11558.9625
2505.59514	11578.3625
2508.33002	11552.5625
2511.06318	11528.8625
2513.79462	11540.2625
2516.52435	11506.4625
2519.25237	11520.0625
2521.97867	11507.9625
2524.70327	11516.4625
2527.42616	11480.0625
2530.14734	11469.3625
2532.86681	11466.8625
2535.58458	11447.8625
2538.30065	11473.3625
2541.01501	11442.7625
2543.72768	11405.1625
2546.43864	11398.1625
2549.14791	11395.2625
2551.85548	11378.1625
2554.56136	11373.1625
2557.26554	11383.0625
2559.96803	11362.6625
2562.66883	11351.8625
2565.36794	11363.2625
2568.06536	11357.6625
2570.7611	11319.0625
2573.45514	11289.6625
2576.14751	11312.8625
2578.83819	11300.6625
2581.52719	11313.3625
2584.21451	11297.4625
2586.90015	11302.0625
2589.58411	11295.4625
2592.2664	11295.8625
2594.94701	11288.2625
2597.62594	11289.2625
2600.30321	11278.2625
2602.9788	11299.5625
2605.65273	11302.1625
2608.32498	11272.3625
2610.99557	11286.1625
2613.66449	11287.7625
2616.33175	11272.4625
2618.99734	11287.3625
2621.66128	11282.0625
2624.32355	11314.7625
2626.98416	11307.2625
2629.64311	11297.4625
2632.30041	11295.1625
2634.95605	11294.3625
2637.61004	11255.7625
2640.26238	11286.1625
2642.91306	11280.0625
2645.56209	11282.8625
2648.20948	11244.9625
2650.85521	11276.7625
2653.4993	11276.7625
2656.14175	11263.1625
2658.78255	11310.0625
2661.42171	11296.7625
2664.05923	11319.2625
2666.6951	11299.2625
2669.32934	11292.8625
2671.96194	11299.2625
2674.59291	11332.9625
2677.22224	11288.2625
2679.84993	11299.8625
2682.476	11311.5625
2685.10043	11333.8625
2687.72324	11319.4625
2690.34441	11317.4625
2692.96396	11323.2625
2695.58188	11316.6625
2698.19818	11309.9625
2700.81285	11320.9625
2703.4259	11311.6625
2706.03733	11370.4625
2708.64714	11344.5625
2711.25533	11325.8625
2713.86191	11320.0625
2716.46687	11352.7625
2719.07021	11361.8625
2721.67194	11373.7625
2724.27206	11363.6625
2726.87057	11383.2625
2729.46747	11372.8625
2732.06276	11400.0625
2734.65644	11362.8625
2737.24852	11397.0625
2739.83899	11381.0625
2742.42786	11368.9625
2745.01513	11370.8625
2747.60079	11387.9625
2750.18486	11364.5625
2752.76733	11393.9625
2755.3482	11384.2625
2757.92747	11396.5625
2760.50515	11356.7625
2763.08123	11429.7625
2765.65573	11413.7625
2768.22863	11402.7625
2770.79994	11388.0625
2773.36967	11386.1625
2775.9378	11402.6625
2778.50435	11385.5625
2781.06932	11395.4625
2783.6327	11426.4625
2786.1945	11411.7625
2788.75471	11380.6625
2791.31335	11373.9625
2793.87041	11368.3625
2796.42589	11339.2625
2798.97979	11329.2625
2801.53212	11313.6625
2804.08288	11333.9625
2806.63206	11295.0625
2809.17967	11251.0625
2811.72571	11237.6625
2814.27018	11241.1625
2816.81308	11232.1625
2819.35442	11191.4625
2821.89419	11168.7625
2824.43239	11154.4625
2826.96904	11179.1625
2829.50412	11143.0625
2832.03763	11143.6625
2834.56959	11148.0625
2837.1	11135.4625
2839.62884	11165.6625
2842.15613	11145.2625
2844.68186	11192.5625
2847.20604	11179.7625
2849.72867	11231.5625
2852.24974	11209.8625
2854.76927	11212.2625
2857.28724	11180.5625
2859.80367	11160.3625
2862.31855	11150.4625
2864.83189	11128.6625
2867.34368	11110.4625
2869.85393	11100.3625
2872.36264	11128.7625
2874.8698	11152.6625
2877.37543	11128.0625
2879.87952	11113.3625
2882.38207	11134.7625
2884.88308	11103.3625
2887.38256	11124.5625
2889.88051	11105.3625
2892.37692	11117.1625
2894.8718	11138.5625
2897.36515	11160.0625
2899.85698	11165.7625
2902.34727	11218.7625
2904.83604	11216.3625
2907.32328	11209.1625
2909.809	11203.0625
2912.29319	11242.8625
2914.77587	11260.2625
2917.25702	11215.7625
2919.73665	11226.2625
2922.21476	11237.6625
2924.69136	11208.3625
2927.16644	11202.0625
2929.64	11207.7625
2932.11205	11182.8625
2934.58258	11149.9625
2937.05161	11155.1625
2939.51912	11208.5625
2941.98513	11167.8625
2944.44962	11121.6625
2946.91261	11085.5625
2949.37409	11081.9625
2951.83407	11048.2625
2954.29254	11049.1625
2956.74951	11035.1625
2959.20498	10984.4625
2961.65895	10972.0625
2964.11142	10975.5625
2966.56239	10927.5625
2969.01186	10904.4625
2971.45984	10877.2625
2973.90632	10845.5625
2976.35131	10810.3625
2978.7948	10793.6625
2981.23681	10762.8625
2983.67732	10759.1625
2986.11635	10731.5625
2988.55388	10711.2625
2990.98993	10680.1625
2993.4245	10646.3625
2995.85758	10615.0625
2998.28917	10591.4625
3000.71928	10588.0625
3003.14791	10544.7625
3005.57506	10557.0625
3008.00073	10497.9625
3010.42493	10494.0625
3012.84764	10465.0625
3015.26888	10472.9625
3017.68865	10431.7625
3020.10694	10428.1625
3022.52376	10398.4625
3024.9391	10374.6625
3027.35298	10381.1625
3029.76539	10343.3625
3032.17632	10343.3625
3034.5858	10336.0625
3036.9938	10300.3625
3039.40034	10306.0625
3041.80542	10318.5625
3044.20903	10283.9625
3046.61118	10313.6625
3049.01187	10274.0625
3051.4111	10254.5625
3053.80888	10252.7625
3056.20519	10227.6625
3058.60005	10176.7625
3060.99345	10189.2625
3063.3854	10130.7625
3065.7759	10107.7625
3068.16494	10052.7625
3070.55254	10013.9625
3072.93868	10030.7625
3075.32338	9957.7625
3077.70662	9960.7625
3080.08842	9908.3625
3082.46878	9928.9625
3084.84769	9896.1625
3087.22515	9913.1625
3089.60118	9891.9625
3091.97576	9865.7625
3094.3489	9888.9625
3096.72061	9843.8625
3099.09087	9857.9625
3101.4597	9840.4625
3103.82709	9810.9625
3106.19305	9822.0625
3108.55757	9819.5625
3110.92066	9763.8625
3113.28232	9747.1625
3115.64255	9729.2625
3118.00134	9705.9625
3120.35871	9687.8625
3122.71466	9664.9625
3125.06917	9650.1625
3127.42226	9627.8625
3129.77393	9633.6625
3132.12417	9624.8625
3134.47299	9594.2625
3136.82039	9608.7625
3139.16636	9613.6625
3141.51092	9581.9625
3143.85406	9609.7625
3146.19579	9606.2625
3148.53609	9596.6625
3150.87499	9592.7625
3153.21246	9599.0625
3155.54853	9588.7625
3157.88318	9565.7625
3160.21642	9567.6625
3162.54826	9587.5625
3164.87868	9580.4625
3167.2077	9558.7625
3169.5353	9562.6625
3171.86151	9544.5625
3174.18631	9550.5625
3176.5097	9527.7625
3178.83169	9537.5625
3181.15228	9540.9625
3183.47147	9515.4625
3185.78926	9502.1625
3188.10565	9523.5625
3190.42065	9515.7625
3192.73424	9523.5625
3195.04645	9520.7625
3197.35725	9515.0625
3199.66667	9510.3625
3201.97469	9528.3625
3204.28132	9484.2625
3206.58656	9518.2625
3208.8904	9506.4625
3211.19287	9523.6625
3213.49394	9516.7625
3215.79363	9484.9625
3218.09193	9483.4625
3220.38884	9498.5625
3222.68438	9506.8625
3224.97853	9510.4625
3227.2713	9467.7625
3229.56269	9446.9625
3231.8527	9464.2625
3234.14133	9458.3625
3236.42858	9434.9625
3238.71446	9421.0625
3240.99896	9428.5625
3243.28209	9388.0625
3245.56384	9371.2625
3247.84423	9385.8625
3250.12324	9381.5625
3252.40088	9368.0625
3254.67715	9333.7625
3256.95205	9313.1625
3259.22558	9314.7625
3261.49775	9293.2625
3263.76855	9279.8625
3266.03799	9236.5625
3268.30606	9227.8625
3270.57277	9190.1625
3272.83812	9200.9625
3275.10211	9171.8625
3277.36474	9173.1625
3279.62601	9148.0625
3281.88593	9126.1625
3284.14448	9149.0625
3286.40168	9145.1625
3288.65753	9150.4625
3290.91202	9133.7625
3293.16516	9084.1625
3295.41695	9080.4625
3297.66738	9022.6625
3299.91647	8963.9625
3302.16421	8925.2625
3304.4106	8896.3625
3306.65564	8851.9625
3308.89933	8787.5625
3311.14169	8713.2625
3313.38269	8640.5625
3315.62236	8585.6625
3317.86068	8515.7625
3320.09766	8416.5625
3322.3333	8385.6625
3324.5676	8358.0625
3326.80056	8227.0625
3329.03219	8175.1625
3331.26248	2.6625
3333.49143	-0.9375
3335.71905	-1.4375
