Data from AgNPs_FTO_APTES_UA_2uM_CRN_10uM_R6G_10uM_NaF_0.1M_Addition_RamanShift__31__13-54-15-181.txt Node

Date: Wed Feb 02 13:54:15 GMT 2022
User: TCL
Spectrometer: QEP01345
Trigger mode: 4
Integration Time (sec): 7.000000E0
Scans to average: 10
Electric dark correction enabled: true
Nonlinearity correction enabled: false
Boxcar width: 0
XAxis mode: Raman Shifts
Number of Pixels in Spectrum: 1044
>>>>>Begin Spectral Data<<<<<
46.04893	1.2375
50.45542	1.1375
54.85868	-1.2625
59.25871	-0.0625
63.6555	54.8375
68.04907	58.9375
72.43941	60.1375
76.82654	67.6375
81.21044	69.9375
85.59113	75.5375
89.96862	75.8375
94.34289	78.8375
98.71396	80.5375
103.08183	89.2375
107.4465	85.1375
111.80798	85.0375
116.16626	88.3375
120.52136	93.4375
124.87327	96.2375
129.222	101.0375
133.56755	99.8375
137.90993	104.3375
142.24913	113.6375
146.58517	124.4375
150.91804	139.4375
155.24774	161.7375
159.57429	200.2375
163.89768	251.1375
168.21792	322.9375
172.53501	436.2375
176.84895	591.9375
181.15975	817.4375
185.46741	1134.6375
189.77193	1553.1375
194.07331	2086.9375
198.37157	2668.5375
202.6667	3292.0375
206.9587	3914.3375
211.24758	4538.0375
215.53334	5212.9375
219.81599	5976.8375
224.09553	6864.3375
228.37195	7825.5375
232.64527	8860.0375
236.91549	9876.2375
241.18261	10735.7375
245.44663	11376.3375
249.70755	11837.3375
253.96539	12232.3375
258.22014	12590.5375
262.4718	12983.9375
266.72039	13272.1375
270.96589	13459.6375
275.20832	13489.3375
279.44768	13378.1375
283.68397	13211.6375
287.91719	13165.1375
292.14735	13297.7375
296.37445	13694.1375
300.59849	14375.0375
304.81948	15204.5375
309.03742	15864.5375
313.25231	15859.4375
317.46415	15002.1375
321.67296	13482.8375
325.87872	12188.9375
330.08145	11555.7375
334.28114	11432.0375
338.47781	11645.0375
342.67145	12066.2375
346.86207	12742.0375
351.04966	13731.9375
355.23424	14880.2375
359.4158	15753.8375
363.59435	16043.0375
367.76989	16044.2375
371.94243	15856.8375
376.11196	15588.1375
380.27849	15406.8375
384.44203	15116.7375
388.60257	14799.4375
392.76012	14620.4375
396.91468	14776.1375
401.06626	15299.0375
405.21485	15647.0375
409.36047	15275.6375
413.50311	14217.8375
417.64277	13193.0375
421.77947	12592.7375
425.9132	12337.8375
430.04396	12233.8375
434.17176	12289.8375
438.2966	12415.1375
442.41849	12697.9375
446.53742	13093.1375
450.6534	13491.3375
454.76644	13753.3375
458.87653	13713.9375
462.98368	13587.0375
467.08789	13300.1375
471.18916	12965.5375
475.2875	12559.5375
479.38291	12220.4375
483.4754	11954.2375
487.56496	11781.2375
491.6516	11671.2375
495.73531	11645.1375
499.81612	11714.3375
503.89401	11915.2375
507.96899	12108.4375
512.04106	12362.5375
516.11023	12619.3375
520.1765	12776.8375
524.23987	12694.0375
528.30034	12384.5375
532.35792	11947.6375
536.41261	11554.3375
540.46441	11148.5375
544.51333	10980.6375
548.55936	11091.4375
552.60252	11470.3375
556.64279	11889.2375
560.6802	12137.8375
564.71473	12460.5375
568.7464	13223.0375
572.7752	13713.1375
576.80114	13253.1375
580.82422	12580.9375
584.84444	12272.7375
588.86181	12048.3375
592.87633	11965.1375
596.888	12140.2375
600.89682	12748.3375
604.9028	14893.2375
608.90594	20552.0375
612.90624	28073.4375
616.90371	27006.2375
620.89834	17213.8375
624.89015	12439.9375
628.87913	11536.1375
632.86528	11647.4375
636.84862	11972.4375
640.82913	11749.7375
644.80683	11076.1375
648.78172	10552.2375
652.75379	10647.0375
656.72306	11373.7375
660.68952	12222.4375
664.65319	12051.1375
668.61405	11133.5375
672.57211	10683.3375
676.52738	10625.5375
680.47986	10606.8375
684.42955	10426.8375
688.37646	10365.0375
692.32058	10402.4375
696.26192	10555.3375
700.20048	10772.9375
704.13626	10957.2375
708.06928	11011.9375
711.99952	10871.4375
715.927	10763.6375
719.85171	10763.2375
723.77365	10709.4375
727.69284	10529.6375
731.60928	10401.7375
735.52295	10371.4375
739.43388	10370.5375
743.34206	10476.1375
747.24749	10514.2375
751.15017	10670.6375
755.05012	10998.3375
758.94733	11837.9375
762.8418	13665.3375
766.73354	16899.3375
770.62254	20341.7375
774.50882	21956.3375
778.39237	20794.9375
782.27321	17366.0375
786.15132	13911.3375
790.02671	11935.9375
793.89938	11012.0375
797.76935	10641.7375
801.6366	10466.7375
805.50115	10338.5375
809.36299	10256.9375
813.22213	10164.1375
817.07857	10117.0375
820.93231	10135.3375
824.78336	10159.5375
828.63172	10252.1375
832.47738	10285.0375
836.32036	10209.3375
840.16066	10101.4375
843.99827	10043.2375
847.8332	9961.5375
851.66546	9920.4375
855.49504	9955.6375
859.32195	9907.2375
863.1462	9807.3375
866.96777	9759.8375
870.78668	9729.1375
874.60293	9741.8375
878.41652	9794.0375
882.22745	9860.3375
886.03573	9936.6375
889.84136	9893.1375
893.64433	9817.5375
897.44466	9783.8375
901.24235	9762.7375
905.0374	9767.0375
908.8298	9707.0375
912.61957	9707.4375
916.40671	9778.3375
920.19121	9937.1375
923.97308	10065.3375
927.75233	10218.9375
931.52895	10330.0375
935.30295	10149.9375
939.07433	9725.4375
942.84309	9327.3375
946.60924	9111.4375
950.37278	8980.4375
954.13371	8936.1375
957.89203	8867.9375
961.64774	8837.3375
965.40086	8809.7375
969.15137	8769.7375
972.89929	8741.7375
976.64461	8714.8375
980.38733	8710.9375
984.12747	8740.4375
987.86502	8770.2375
991.59999	8843.3375
995.33237	8945.0375
999.06217	9168.3375
1002.78939	9451.9375
1006.51404	9766.7375
1010.23611	10079.5375
1013.95561	10305.1375
1017.67255	10223.8375
1021.38692	10022.1375
1025.09872	9812.1375
1028.80796	9656.4375
1032.51465	9662.4375
1036.21877	9828.2375
1039.92035	10017.4375
1043.61937	10104.0375
1047.31584	10092.5375
1051.00976	10027.1375
1054.70114	9951.9375
1058.38998	9952.1375
1062.07627	10005.7375
1065.76003	10113.3375
1069.44126	10224.2375
1073.11995	10412.5375
1076.79611	10602.9375
1080.46974	10810.2375
1084.14085	11234.4375
1087.80943	11723.0375
1091.47549	11937.8375
1095.13903	11670.9375
1098.80005	11093.8375
1102.45857	10565.5375
1106.11456	10278.4375
1109.76805	10285.6375
1113.41903	10589.7375
1117.06751	11083.3375
1120.71348	11717.6375
1124.35696	12485.9375
1127.99793	13242.6375
1131.63641	13190.1375
1135.2724	12327.9375
1138.90589	11450.9375
1142.5369	10997.1375
1146.16542	10726.3375
1149.79145	10546.7375
1153.415	10511.4375
1157.03607	10695.2375
1160.65467	11019.5375
1164.27079	11589.7375
1167.88443	12439.2375
1171.49561	13806.9375
1175.10432	16207.5375
1178.71056	19334.6375
1182.31434	21395.8375
1185.91565	21700.6375
1189.51451	20811.6375
1193.11091	19189.3375
1196.70485	17315.1375
1200.29634	15889.8375
1203.88538	14897.9375
1207.47197	13672.5375
1211.05612	12644.1375
1214.63782	12061.8375
1218.21708	11867.0375
1221.79391	11912.1375
1225.36829	12026.7375
1228.94024	12199.2375
1232.50976	12382.2375
1236.07685	12446.8375
1239.6415	12465.1375
1243.20374	12410.3375
1246.76355	12436.1375
1250.32093	12598.2375
1253.8759	12909.8375
1257.42845	13386.6375
1260.97859	13955.7375
1264.52631	14557.8375
1268.07163	15157.8375
1271.61453	15756.5375
1275.15503	16139.0375
1278.69312	16255.8375
1282.22882	16311.7375
1285.76211	16693.1375
1289.29301	17364.2375
1292.82151	17990.6375
1296.34761	18666.6375
1299.87133	19590.8375
1303.39266	21473.1375
1306.9116	24442.5375
1310.42815	28078.0375
1313.94233	30570.8375
1317.45412	30253.6375
1320.96354	28010.0375
1324.47058	25228.3375
1327.97525	22860.6375
1331.47754	21417.1375
1334.97747	20710.5375
1338.47502	20566.8375
1341.97022	20897.6375
1345.46305	21714.7375
1348.95352	23177.1375
1352.44163	25309.4375
1355.92738	28382.6375
1359.41078	33252.2375
1362.89183	38408.2375
1366.37053	37910.9375
1369.84688	31516.1375
1373.32088	24883.4375
1376.79254	20655.6375
1380.26186	18638.3375
1383.72883	17579.7375
1387.19347	16758.1375
1390.65578	15860.0375
1394.11575	15116.5375
1397.57339	14726.8375
1401.0287	14718.7375
1404.48168	14894.4375
1407.93234	15133.7375
1411.38068	15250.1375
1414.82669	15184.5375
1418.27039	14975.0375
1421.71177	14657.2375
1425.15083	14281.8375
1428.58758	13978.5375
1432.02203	13947.8375
1435.45416	14053.3375
1438.88399	14145.4375
1442.31151	14141.1375
1445.73673	14223.7375
1449.15965	14349.9375
1452.58027	14320.6375
1455.9986	14206.0375
1459.41463	14168.8375
1462.82837	14313.9375
1466.23982	14695.0375
1469.64898	15096.0375
1473.05586	15397.5375
1476.46045	15640.8375
1479.86276	15979.8375
1483.26279	16451.8375
1486.66054	16994.6375
1490.05602	17724.5375
1493.44922	18777.5375
1496.84016	20421.3375
1500.22882	22991.0375
1503.61521	26473.4375
1506.99934	30372.6375
1510.38121	34377.1375
1513.76081	36697.8375
1517.13816	35286.5375
1520.51324	30669.6375
1523.88607	25525.9375
1527.25665	21875.8375
1530.62498	19723.7375
1533.99105	18377.1375
1537.35488	17499.0375
1540.71647	16934.3375
1544.07581	16545.1375
1547.4329	16370.9375
1550.78776	16230.6375
1554.14038	16252.8375
1557.49077	16484.4375
1560.83892	16981.5375
1564.18484	17693.5375
1567.52853	18471.3375
1570.86999	19039.5375
1574.20922	19424.0375
1577.54624	19284.1375
1580.88103	18138.4375
1584.2136	16530.9375
1587.54395	15615.9375
1590.87208	15756.8375
1594.19801	16673.9375
1597.52172	17999.3375
1600.84321	18498.8375
1604.16251	17634.4375
1607.47959	16235.6375
1610.79447	14871.7375
1614.10715	13573.7375
1617.41763	12476.9375
1620.7259	11802.3375
1624.03199	11472.0375
1627.33587	11490.0375
1630.63757	11829.0375
1633.93707	12510.6375
1637.23439	13652.0375
1640.52951	15310.2375
1643.82246	17612.5375
1647.11321	20478.7375
1650.40179	22834.2375
1653.68819	22739.0375
1656.97241	19593.5375
1660.25446	15628.1375
1663.53433	12697.6375
1666.81203	10929.3375
1670.08756	9914.4375
1673.36092	9314.1375
1676.63211	8955.8375
1679.90115	8685.2375
1683.16801	8496.7375
1686.43272	8362.9375
1689.69527	8263.4375
1692.95567	8170.7375
1696.2139	8164.6375
1699.46999	8153.4375
1702.72392	8108.8375
1705.97571	8079.6375
1709.22535	8030.1375
1712.47284	8039.7375
1715.71819	8044.2375
1718.96139	8048.9375
1722.20246	8050.6375
1725.44139	7998.0375
1728.67818	7900.7375
1731.91284	7823.5375
1735.14537	7714.9375
1738.37576	7676.5375
1741.60403	7607.9375
1744.83017	7546.9375
1748.05418	7546.4375
1751.27607	7531.1375
1754.49584	7507.0375
1757.71349	7488.0375
1760.92903	7473.1375
1764.14244	7448.2375
1767.35375	7445.6375
1770.56294	7398.3375
1773.77002	7357.7375
1776.97499	7310.7375
1780.17785	7278.2375
1783.37861	7250.4375
1786.57727	7237.7375
1789.77382	7204.6375
1792.96828	7181.9375
1796.16064	7185.3375
1799.3509	7154.3375
1802.53907	7145.6375
1805.72514	7100.9375
1808.90913	7066.5375
1812.09102	7057.4375
1815.27083	7035.5375
1818.44856	7008.2375
1821.6242	7002.2375
1824.79776	6995.2375
1827.96924	6974.9375
1831.13864	6972.5375
1834.30597	6954.8375
1837.47122	6952.9375
1840.6344	6925.7375
1843.7955	6943.6375
1846.95454	6923.9375
1850.11151	6942.6375
1853.26642	6934.0375
1856.41926	6943.2375
1859.57004	6936.4375
1862.71876	6944.6375
1865.86542	6934.9375
1869.01003	6940.7375
1872.15258	6927.8375
1875.29308	6964.9375
1878.43152	6973.1375
1881.56792	6966.5375
1884.70227	7001.1375
1887.83457	7008.8375
1890.96482	7024.4375
1894.09304	7037.5375
1897.21921	7032.7375
1900.34335	7021.3375
1903.46544	7026.9375
1906.58551	7045.6375
1909.70353	7043.8375
1912.81953	7034.7375
1915.93349	7057.2375
1919.04543	7049.0375
1922.15534	7026.9375
1925.26322	7007.7375
1928.36908	6975.1375
1931.47292	6928.7375
1934.57473	6865.0375
1937.67453	6797.2375
1940.77232	6752.5375
1943.86808	6702.9375
1946.96184	6660.1375
1950.05358	6617.2375
1953.14331	6603.3375
1956.23103	6555.8375
1959.31675	6523.6375
1962.40046	6496.0375
1965.48217	6475.1375
1968.56188	6473.4375
1971.63959	6439.7375
1974.7153	6429.3375
1977.78901	6402.9375
1980.86073	6373.5375
1983.93046	6348.3375
1986.99819	6311.6375
1990.06394	6303.1375
1993.1277	6262.9375
1996.18947	6226.5375
1999.24925	6206.7375
2002.30706	6191.5375
2005.36288	6179.6375
2008.41672	6147.4375
2011.46859	6112.0375
2014.51848	6104.9375
2017.56639	6092.5375
2020.61233	6076.5375
2023.6563	6055.8375
2026.6983	6037.6375
2029.73833	6007.0375
2032.7764	5989.6375
2035.8125	5991.3375
2038.84664	5950.6375
2041.87881	5973.3375
2044.90903	5934.1375
2047.93729	5917.7375
2050.96359	5918.7375
2053.98794	5916.7375
2057.01034	5926.1375
2060.03078	5895.2375
2063.04927	5881.4375
2066.06582	5875.0375
2069.08042	5851.3375
2072.09307	5868.1375
2075.10378	5824.2375
2078.11255	5835.6375
2081.11938	5838.6375
2084.12426	5825.8375
2087.12722	5823.8375
2090.12824	5815.4375
2093.12732	5822.3375
2096.12447	5825.8375
2099.11969	5830.3375
2102.11299	5831.6375
2105.10435	5820.0375
2108.09379	5817.3375
2111.08131	5814.2375
2114.0669	5841.3375
2117.05057	5822.7375
2120.03233	5836.5375
2123.01216	5844.6375
2125.99008	5831.8375
2128.96609	5830.0375
2131.94018	5848.6375
2134.91236	5851.2375
2137.88263	5830.0375
2140.851	5840.4375
2143.81746	5849.6375
2146.78201	5843.8375
2149.74466	5824.4375
2152.7054	5817.4375
2155.66425	5809.0375
2158.6212	5792.9375
2161.57625	5800.1375
2164.52941	5786.7375
2167.48067	5803.1375
2170.43004	5776.0375
2173.37752	5783.0375
2176.32311	5774.9375
2179.26681	5783.4375
2182.20863	5763.6375
2185.14856	5764.5375
2188.08661	5769.2375
2191.02278	5783.4375
2193.95707	5747.4375
2196.88948	5741.2375
2199.82001	5732.9375
2202.74867	5731.3375
2205.67545	5734.0375
2208.60037	5728.0375
2211.52341	5726.1375
2214.44458	5690.1375
2217.36388	5680.1375
2220.28132	5681.5375
2223.1969	5650.7375
2226.11061	5641.5375
2229.02246	5646.9375
2231.93245	5607.5375
2234.84058	5595.1375
2237.74686	5587.5375
2240.65128	5583.7375
2243.55385	5566.5375
2246.45456	5560.9375
2249.35343	5571.3375
2252.25044	5561.7375
2255.14561	5557.3375
2258.03893	5578.5375
2260.93041	5561.7375
2263.82004	5553.4375
2266.70783	5544.5375
2269.59378	5517.1375
2272.4779	5509.8375
2275.36017	5494.4375
2278.24061	5499.2375
2281.11922	5466.9375
2283.996	5450.5375
2286.87094	5437.0375
2289.74405	5414.4375
2292.61534	5402.9375
2295.4848	5395.4375
2298.35243	5382.9375
2301.21824	5368.0375
2304.08223	5371.5375
2306.94439	5371.0375
2309.80474	5360.6375
2312.66327	5375.5375
2315.51999	5356.9375
2318.37489	5359.0375
2321.22797	5341.5375
2324.07925	5339.5375
2326.92871	5335.3375
2329.77637	5345.5375
2332.62222	5332.5375
2335.46626	5316.3375
2338.3085	5318.1375
2341.14893	5304.7375
2343.98756	5317.2375
2346.8244	5324.1375
2349.65943	5312.4375
2352.49267	5334.9375
2355.32411	5338.8375
2358.15376	5355.9375
2360.98161	5371.3375
2363.80768	5402.2375
2366.63195	5383.3375
2369.45444	5398.5375
2372.27514	5399.3375
2375.09405	5388.3375
2377.91118	5356.1375
2380.72652	5349.0375
2383.54009	5303.5375
2386.35187	5279.9375
2389.16188	5246.9375
2391.97011	5215.0375
2394.77657	5192.9375
2397.58125	5181.0375
2400.38416	5178.1375
2403.18529	5156.3375
2405.98466	5134.4375
2408.78226	5125.5375
2411.57809	5109.7375
2414.37216	5112.5375
2417.16446	5100.0375
2419.955	5109.1375
2422.74378	5105.0375
2425.5308	5095.0375
2428.31606	5105.2375
2431.09956	5094.1375
2433.88131	5098.5375
2436.6613	5089.9375
2439.43954	5061.5375
2442.21603	5094.4375
2444.99077	5083.8375
2447.76377	5098.2375
2450.53501	5087.0375
2453.30451	5108.8375
2456.07226	5107.3375
2458.83827	5101.6375
2461.60254	5094.6375
2464.36507	5103.6375
2467.12586	5086.4375
2469.88492	5099.7375
2472.64224	5079.2375
2475.39782	5106.6375
2478.15167	5112.1375
2480.90379	5116.0375
2483.65417	5132.2375
2486.40283	5142.9375
2489.14976	5159.5375
2491.89497	5165.2375
2494.63845	5191.2375
2497.3802	5171.2375
2500.12024	5160.8375
2502.85855	5154.5375
2505.59514	5138.7375
2508.33002	5114.5375
2511.06318	5087.2375
2513.79462	5052.7375
2516.52435	5017.5375
2519.25237	5002.7375
2521.97867	4990.5375
2524.70327	4980.9375
2527.42616	4960.7375
2530.14734	4945.3375
2532.86681	4943.3375
2535.58458	4941.1375
2538.30065	4927.4375
2541.01501	4938.1375
2543.72768	4934.8375
2546.43864	4925.7375
2549.14791	4929.5375
2551.85548	4918.4375
2554.56136	4930.2375
2557.26554	4932.1375
2559.96803	4914.5375
2562.66883	4911.1375
2565.36794	4903.3375
2568.06536	4894.2375
2570.7611	4889.5375
2573.45514	4860.2375
2576.14751	4863.1375
2578.83819	4857.1375
2581.52719	4847.9375
2584.21451	4848.0375
2586.90015	4839.8375
2589.58411	4836.6375
2592.2664	4838.1375
2594.94701	4828.3375
2597.62594	4831.5375
2600.30321	4812.1375
2602.9788	4815.1375
2605.65273	4805.2375
2608.32498	4790.6375
2610.99557	4797.7375
2613.66449	4816.1375
2616.33175	4804.5375
2618.99734	4795.2375
2621.66128	4799.1375
2624.32355	4804.0375
2626.98416	4796.0375
2629.64311	4795.0375
2632.30041	4772.7375
2634.95605	4775.8375
2637.61004	4748.7375
2640.26238	4754.0375
2642.91306	4746.6375
2645.56209	4729.5375
2648.20948	4724.1375
2650.85521	4714.9375
2653.4993	4730.7375
2656.14175	4739.0375
2658.78255	4725.6375
2661.42171	4734.4375
2664.05923	4746.0375
2666.6951	4750.4375
2669.32934	4764.4375
2671.96194	4765.0375
2674.59291	4786.2375
2677.22224	4769.0375
2679.84993	4791.8375
2682.476	4778.5375
2685.10043	4766.8375
2687.72324	4780.8375
2690.34441	4764.9375
2692.96396	4764.0375
2695.58188	4768.3375
2698.19818	4755.8375
2700.81285	4782.3375
2703.4259	4787.2375
2706.03733	4792.3375
2708.64714	4806.7375
2711.25533	4785.2375
2713.86191	4773.9375
2716.46687	4794.7375
2719.07021	4788.6375
2721.67194	4791.2375
2724.27206	4790.7375
2726.87057	4784.8375
2729.46747	4791.5375
2732.06276	4798.9375
2734.65644	4770.6375
2737.24852	4770.6375
2739.83899	4746.5375
2742.42786	4769.9375
2745.01513	4744.2375
2747.60079	4735.1375
2750.18486	4737.8375
2752.76733	4735.7375
2755.3482	4717.7375
2757.92747	4720.8375
2760.50515	4705.3375
2763.08123	4714.0375
2765.65573	4689.3375
2768.22863	4692.7375
2770.79994	4668.0375
2773.36967	4670.4375
2775.9378	4670.6375
2778.50435	4673.4375
2781.06932	4690.7375
2783.6327	4664.8375
2786.1945	4676.8375
2788.75471	4683.2375
2791.31335	4678.4375
2793.87041	4655.1375
2796.42589	4665.1375
2798.97979	4667.7375
2801.53212	4659.4375
2804.08288	4665.8375
2806.63206	4662.7375
2809.17967	4661.0375
2811.72571	4669.5375
2814.27018	4686.0375
2816.81308	4687.1375
2819.35442	4702.8375
2821.89419	4700.0375
2824.43239	4727.0375
2826.96904	4738.0375
2829.50412	4740.0375
2832.03763	4732.1375
2834.56959	4741.4375
2837.1	4755.8375
2839.62884	4785.5375
2842.15613	4827.9375
2844.68186	4890.4375
2847.20604	4966.2375
2849.72867	5022.4375
2852.24974	5073.0375
2854.76927	5069.5375
2857.28724	5069.1375
2859.80367	5039.9375
2862.31855	5035.0375
2864.83189	5004.4375
2867.34368	4991.3375
2869.85393	4998.2375
2872.36264	4990.5375
2874.8698	4993.7375
2877.37543	4978.1375
2879.87952	4979.8375
2882.38207	4970.7375
2884.88308	4964.7375
2887.38256	4954.0375
2889.88051	4962.4375
2892.37692	4959.0375
2894.8718	4959.7375
2897.36515	4954.2375
2899.85698	4955.6375
2902.34727	4972.9375
2904.83604	4975.8375
2907.32328	5001.9375
2909.809	4984.3375
2912.29319	4963.0375
2914.77587	4969.8375
2917.25702	4946.5375
2919.73665	4957.3375
2922.21476	4941.9375
2924.69136	4937.2375
2927.16644	4947.4375
2929.64	4926.3375
2932.11205	4918.2375
2934.58258	4872.8375
2937.05161	4865.4375
2939.51912	4844.2375
2941.98513	4804.5375
2944.44962	4750.9375
2946.91261	4700.3375
2949.37409	4676.6375
2951.83407	4630.0375
2954.29254	4617.9375
2956.74951	4594.8375
2959.20498	4592.9375
2961.65895	4565.6375
2964.11142	4545.7375
2966.56239	4531.3375
2969.01186	4511.7375
2971.45984	4512.2375
2973.90632	4473.1375
2976.35131	4449.3375
2978.7948	4445.2375
2981.23681	4416.7375
2983.67732	4414.4375
2986.11635	4382.6375
2988.55388	4376.1375
2990.98993	4366.3375
2993.4245	4347.6375
2995.85758	4329.4375
2998.28917	4322.9375
3000.71928	4333.8375
3003.14791	4303.1375
3005.57506	4302.3375
3008.00073	4287.4375
3010.42493	4286.8375
3012.84764	4284.2375
3015.26888	4272.5375
3017.68865	4282.0375
3020.10694	4252.1375
3022.52376	4254.9375
3024.9391	4242.7375
3027.35298	4238.8375
3029.76539	4216.9375
3032.17632	4226.7375
3034.5858	4197.9375
3036.9938	4209.1375
3039.40034	4192.2375
3041.80542	4197.5375
3044.20903	4156.8375
3046.61118	4178.2375
3049.01187	4160.8375
3051.4111	4147.4375
3053.80888	4154.3375
3056.20519	4138.2375
3058.60005	4131.2375
3060.99345	4126.9375
3063.3854	4129.8375
3065.7759	4125.9375
3068.16494	4105.9375
3070.55254	4080.4375
3072.93868	4079.6375
3075.32338	4066.6375
3077.70662	4052.8375
3080.08842	4029.9375
3082.46878	4032.7375
3084.84769	4013.9375
3087.22515	4006.9375
3089.60118	3993.3375
3091.97576	3988.8375
3094.3489	3964.5375
3096.72061	3969.0375
3099.09087	3979.8375
3101.4597	3961.9375
3103.82709	3968.2375
3106.19305	3950.9375
3108.55757	3950.5375
3110.92066	3936.2375
3113.28232	3932.5375
3115.64255	3913.9375
3118.00134	3908.8375
3120.35871	3913.4375
3122.71466	3903.8375
3125.06917	3905.9375
3127.42226	3901.6375
3129.77393	3892.4375
3132.12417	3910.0375
3134.47299	3895.1375
3136.82039	3910.8375
3139.16636	3910.0375
3141.51092	3904.5375
3143.85406	3901.6375
3146.19579	3919.3375
3148.53609	3912.9375
3150.87499	3922.8375
3153.21246	3926.3375
3155.54853	3935.7375
3157.88318	3937.5375
3160.21642	3935.5375
3162.54826	3925.4375
3164.87868	3934.9375
3167.2077	3939.4375
3169.5353	3927.3375
3171.86151	3925.1375
3174.18631	3914.1375
3176.5097	3928.8375
3178.83169	3927.8375
3181.15228	3926.8375
3183.47147	3914.1375
3185.78926	3927.8375
3188.10565	3940.6375
3190.42065	3932.6375
3192.73424	3939.9375
3195.04645	3939.9375
3197.35725	3933.4375
3199.66667	3937.5375
3201.97469	3941.7375
3204.28132	3945.8375
3206.58656	3949.7375
3208.8904	3954.9375
3211.19287	3955.1375
3213.49394	3969.7375
3215.79363	3959.9375
3218.09193	3971.5375
3220.38884	3990.9375
3222.68438	3976.5375
3224.97853	3972.3375
3227.2713	3969.7375
3229.56269	3964.0375
3231.8527	3969.3375
3234.14133	3942.3375
3236.42858	3935.7375
3238.71446	3946.0375
3240.99896	3943.9375
3243.28209	3932.2375
3245.56384	3924.7375
3247.84423	3921.6375
3250.12324	3916.2375
3252.40088	3920.6375
3254.67715	3912.7375
3256.95205	3884.2375
3259.22558	3900.0375
3261.49775	3902.3375
3263.76855	3887.0375
3266.03799	3878.2375
3268.30606	3876.7375
3270.57277	3867.9375
3272.83812	3855.9375
3275.10211	3842.3375
3277.36474	3859.3375
3279.62601	3851.6375
3281.88593	3839.3375
3284.14448	3856.3375
3286.40168	3833.4375
3288.65753	3840.1375
3290.91202	3821.8375
3293.16516	3825.6375
3295.41695	3824.1375
3297.66738	3802.4375
3299.91647	3779.6375
3302.16421	3756.6375
3304.4106	3756.0375
3306.65564	3711.6375
3308.89933	3702.2375
3311.14169	3668.8375
3313.38269	3649.5375
3315.62236	3629.3375
3317.86068	3581.1375
3320.09766	3536.7375
3322.3333	3515.6375
3324.5676	3496.7375
3326.80056	3449.8375
3329.03219	3430.4375
3331.26248	0.0375
3333.49143	-0.1625
3335.71905	-1.5625
