Data from AgNPs_FTO_APTES_UA_2uM_CRN_50uM_R6G_10uM_NaF_0.1M_Addition_RamanShift__6__14-43-15-235.txt Node

Date: Wed Feb 02 14:43:15 GMT 2022
User: TCL
Spectrometer: QEP01345
Trigger mode: 4
Integration Time (sec): 7.000000E0
Scans to average: 10
Electric dark correction enabled: true
Nonlinearity correction enabled: false
Boxcar width: 0
XAxis mode: Raman Shifts
Number of Pixels in Spectrum: 1044
>>>>>Begin Spectral Data<<<<<
46.04893	0.2875
50.45542	-0.1125
54.85868	-2.1125
59.25871	0.4875
63.6555	91.2875
68.04907	98.2875
72.43941	103.4875
76.82654	107.2875
81.21044	115.9875
85.59113	118.1875
89.96862	122.3875
94.34289	122.3875
98.71396	130.0875
103.08183	135.5875
107.4465	137.6875
111.80798	140.1875
116.16626	143.6875
120.52136	151.4875
124.87327	154.1875
129.222	163.4875
133.56755	179.2875
137.90993	190.6875
142.24913	210.7875
146.58517	237.5875
150.91804	278.1875
155.24774	327.2875
159.57429	408.9875
163.89768	525.7875
168.21792	694.9875
172.53501	952.8875
176.84895	1328.0875
181.15975	1862.5875
185.46741	2606.1875
189.77193	3589.3875
194.07331	4800.7875
198.37157	6161.8875
202.6667	7599.8875
206.9587	9052.6875
211.24758	10426.7875
215.53334	11819.7875
219.81599	13323.5875
224.09553	15029.6875
228.37195	16801.8875
232.64527	18732.6875
236.91549	20754.6875
241.18261	22799.9875
245.44663	24668.7875
249.70755	26359.7875
253.96539	27882.3875
258.22014	29156.6875
262.4718	30216.3875
266.72039	30992.2875
270.96589	31366.4875
275.20832	31388.5875
279.44768	31249.0875
283.68397	31082.2875
287.91719	30911.8875
292.14735	30863.8875
296.37445	30865.0875
300.59849	31026.1875
304.81948	31149.1875
309.03742	31128.0875
313.25231	30847.3875
317.46415	30315.3875
321.67296	29561.8875
325.87872	28901.2875
330.08145	28488.9875
334.28114	28338.5875
338.47781	28443.2875
342.67145	28698.6875
346.86207	29034.1875
351.04966	29499.9875
355.23424	29951.4875
359.4158	30408.1875
363.59435	30823.5875
367.76989	31045.3875
371.94243	31178.0875
376.11196	31199.7875
380.27849	31196.6875
384.44203	31251.6875
388.60257	31498.7875
392.76012	31993.5875
396.91468	32503.7875
401.06626	33085.4875
405.21485	33356.4875
409.36047	33240.2875
413.50311	32928.5875
417.64277	32849.7875
421.77947	33142.8875
425.9132	33373.5875
430.04396	33578.0875
434.17176	33665.0875
438.2966	33788.6875
442.41849	34267.3875
446.53742	35254.8875
450.6534	36330.2875
454.76644	37068.8875
458.87653	37376.7875
462.98368	37101.7875
467.08789	36642.6875
471.18916	36131.5875
475.2875	35680.6875
479.38291	35609.5875
483.4754	35562.8875
487.56496	35086.7875
491.6516	34347.3875
495.73531	33474.7875
499.81612	32916.0875
503.89401	32928.4875
507.96899	33040.0875
512.04106	32993.9875
516.11023	32611.6875
520.1765	32067.1875
524.23987	31490.6875
528.30034	31011.4875
532.35792	30652.6875
536.41261	30273.9875
540.46441	29999.2875
544.51333	30045.7875
548.55936	30508.8875
552.60252	31306.0875
556.64279	32222.9875
560.6802	33082.8875
564.71473	33749.6875
568.7464	34653.9875
572.7752	36208.1875
576.80114	37938.3875
580.82422	39622.5875
584.84444	41559.2875
588.86181	44018.5875
592.87633	45863.3875
596.888	44970.5875
600.89682	41790.2875
604.9028	40081.7875
608.90594	40942.7875
612.90624	42131.1875
616.90371	38988.9875
620.89834	33265.2875
624.89015	30793.5875
628.87913	30700.1875
632.86528	30938.5875
636.84862	30783.5875
640.82913	30081.9875
644.80683	29313.2875
648.78172	28868.9875
652.75379	28944.1875
656.72306	29202.9875
660.68952	29457.2875
664.65319	29166.1875
668.61405	28627.8875
672.57211	28505.8875
676.52738	28671.1875
680.47986	28719.4875
684.42955	28468.5875
688.37646	28294.3875
692.32058	28491.7875
696.26192	29008.8875
700.20048	29511.8875
704.13626	29908.6875
708.06928	30103.9875
711.99952	30067.5875
715.927	30106.4875
719.85171	30157.7875
723.77365	29896.2875
727.69284	29339.1875
731.60928	28813.7875
735.52295	28537.4875
739.43388	28412.7875
743.34206	28527.8875
747.24749	28809.4875
751.15017	29276.4875
755.05012	29925.6875
758.94733	31073.6875
762.8418	32713.4875
766.73354	34877.3875
770.62254	36543.7875
774.50882	36232.7875
778.39237	34232.4875
782.27321	31840.3875
786.15132	30073.4875
790.02671	28986.9875
793.89938	28389.1875
797.76935	28174.1875
801.6366	28137.9875
805.50115	28148.4875
809.36299	27999.0875
813.22213	27774.8875
817.07857	27620.2875
820.93231	27433.0875
824.78336	27189.1875
828.63172	26953.1875
832.47738	26788.9875
836.32036	26738.0875
840.16066	26752.9875
843.99827	26790.7875
847.8332	26697.9875
851.66546	26698.8875
855.49504	26739.5875
859.32195	26727.9875
863.1462	26586.8875
866.96777	26514.5875
870.78668	26426.2875
874.60293	26392.6875
878.41652	26392.6875
882.22745	26504.5875
886.03573	26522.1875
889.84136	26505.1875
893.64433	26407.9875
897.44466	26334.0875
901.24235	26254.8875
905.0374	26189.2875
908.8298	26184.1875
912.61957	26325.3875
916.40671	26709.9875
920.19121	27272.9875
923.97308	27740.4875
927.75233	27679.1875
931.52895	27149.4875
935.30295	26437.5875
939.07433	25756.3875
942.84309	25321.1875
946.60924	25094.8875
950.37278	25030.4875
954.13371	25134.3875
957.89203	25178.8875
961.64774	25236.6875
965.40086	25255.8875
969.15137	25147.3875
972.89929	24903.6875
976.64461	24709.7875
980.38733	24592.8875
984.12747	24624.7875
987.86502	24696.2875
991.59999	24863.5875
995.33237	25055.2875
999.06217	25539.9875
1002.78939	26162.4875
1006.51404	26735.2875
1010.23611	27295.0875
1013.95561	27716.9875
1017.67255	27787.6875
1021.38692	27451.9875
1025.09872	26886.0875
1028.80796	26525.0875
1032.51465	26557.4875
1036.21877	26771.7875
1039.92035	26966.1875
1043.61937	27009.0875
1047.31584	26971.2875
1051.00976	26878.5875
1054.70114	26891.8875
1058.38998	27103.0875
1062.07627	27472.6875
1065.76003	27904.5875
1069.44126	28404.6875
1073.11995	28998.8875
1076.79611	29408.5875
1080.46974	29577.7875
1084.14085	29752.5875
1087.80943	30174.1875
1091.47549	30565.0875
1095.13903	30724.1875
1098.80005	30245.2875
1102.45857	29235.1875
1106.11456	28453.3875
1109.76805	28036.8875
1113.41903	27974.3875
1117.06751	28127.3875
1120.71348	28484.5875
1124.35696	28774.9875
1127.99793	29231.1875
1131.63641	29568.8875
1135.2724	29609.3875
1138.90589	29708.4875
1142.5369	30034.3875
1146.16542	30558.2875
1149.79145	31216.3875
1153.415	31847.2875
1157.03607	32737.1875
1160.65467	34292.0875
1164.27079	36577.0875
1167.88443	39092.5875
1171.49561	41343.3875
1175.10432	43958.0875
1178.71056	47178.4875
1182.31434	50127.5875
1185.91565	51371.5875
1189.51451	50840.9875
1193.11091	49573.0875
1196.70485	48067.0875
1200.29634	46461.3875
1203.88538	45568.5875
1207.47197	45548.2875
1211.05612	45691.2875
1214.63782	45003.8875
1218.21708	43242.8875
1221.79391	41181.3875
1225.36829	39629.4875
1228.94024	38588.7875
1232.50976	37859.1875
1236.07685	37221.4875
1239.6415	36847.1875
1243.20374	36954.6875
1246.76355	37344.4875
1250.32093	38021.9875
1253.8759	38977.4875
1257.42845	40198.3875
1260.97859	41615.1875
1264.52631	42989.0875
1268.07163	44335.9875
1271.61453	45713.0875
1275.15503	47372.8875
1278.69312	49347.6875
1282.22882	51506.9875
1285.76211	54323.4875
1289.29301	57511.5875
1292.82151	61354.6875
1296.34761	65720.0875
1299.87133	70508.9875
1303.39266	74825.6875
1306.9116	77946.0875
1310.42815	79650.1875
1313.94233	80087.2875
1317.45412	79421.1875
1320.96354	78406.7875
1324.47058	77976.9875
1327.97525	77959.2875
1331.47754	78035.5875
1334.97747	77537.6875
1338.47502	76389.1875
1341.97022	74449.8875
1345.46305	72150.4875
1348.95352	70180.8875
1352.44163	69131.4875
1355.92738	69930.9875
1359.41078	72121.2875
1362.89183	73863.6875
1366.37053	73013.3875
1369.84688	68059.9875
1373.32088	60710.2875
1376.79254	55505.0875
1380.26186	54254.3875
1383.72883	55117.5875
1387.19347	56095.4875
1390.65578	55892.1875
1394.11575	55915.6875
1397.57339	56937.1875
1401.0287	58432.4875
1404.48168	59589.8875
1407.93234	59182.8875
1411.38068	57218.6875
1414.82669	54185.6875
1418.27039	50992.6875
1421.71177	47896.1875
1425.15083	45521.8875
1428.58758	44473.5875
1432.02203	45011.7875
1435.45416	46771.1875
1438.88399	48914.6875
1442.31151	50651.7875
1445.73673	51628.8875
1449.15965	52319.5875
1452.58027	52544.4875
1455.9986	52382.5875
1459.41463	52357.0875
1462.82837	52931.0875
1466.23982	53800.3875
1469.64898	54717.5875
1473.05586	55304.5875
1476.46045	55267.1875
1479.86276	54690.9875
1483.26279	53786.2875
1486.66054	53251.8875
1490.05602	53299.6875
1493.44922	53683.6875
1496.84016	54042.0875
1500.22882	54513.4875
1503.61521	55047.7875
1506.99934	55762.9875
1510.38121	56454.2875
1513.76081	56718.8875
1517.13816	56455.0875
1520.51324	56124.1875
1523.88607	56373.0875
1527.25665	57276.9875
1530.62498	57861.7875
1533.99105	57729.4875
1537.35488	56701.1875
1540.71647	54783.6875
1544.07581	52411.2875
1547.4329	50172.2875
1550.78776	48262.6875
1554.14038	46921.7875
1557.49077	46205.9875
1560.83892	45695.9875
1564.18484	45540.3875
1567.52853	45560.7875
1570.86999	46085.3875
1574.20922	47530.1875
1577.54624	49127.9875
1580.88103	50491.5875
1584.2136	52189.7875
1587.54395	54961.7875
1590.87208	58683.1875
1594.19801	62627.2875
1597.52172	65504.6875
1600.84321	65247.5875
1604.16251	60789.7875
1607.47959	54333.5875
1610.79447	48149.0875
1614.10715	42956.4875
1617.41763	39090.8875
1620.7259	36619.2875
1624.03199	35535.5875
1627.33587	35810.2875
1630.63757	37569.5875
1633.93707	41089.5875
1637.23439	46831.7875
1640.52951	55112.0875
1643.82246	64837.7875
1647.11321	72177.5875
1650.40179	72702.8875
1653.68819	65667.1875
1656.97241	54710.7875
1660.25446	44642.2875
1663.53433	37255.4875
1666.81203	32525.0875
1670.08756	29583.9875
1673.36092	27771.9875
1676.63211	26594.5875
1679.90115	25758.2875
1683.16801	25197.6875
1686.43272	24746.0875
1689.69527	24401.7875
1692.95567	24128.1875
1696.2139	23995.1875
1699.46999	23846.3875
1702.72392	23696.2875
1705.97571	23579.7875
1709.22535	23473.7875
1712.47284	23391.0875
1715.71819	23300.1875
1718.96139	23183.2875
1722.20246	23050.4875
1725.44139	22927.3875
1728.67818	22807.8875
1731.91284	22609.8875
1735.14537	22452.0875
1738.37576	22331.3875
1741.60403	22187.8875
1744.83017	22145.0875
1748.05418	22061.5875
1751.27607	21981.3875
1754.49584	21971.9875
1757.71349	21916.5875
1760.92903	21886.0875
1764.14244	21869.4875
1767.35375	21829.4875
1770.56294	21711.5875
1773.77002	21655.2875
1776.97499	21661.5875
1780.17785	21529.7875
1783.37861	21539.2875
1786.57727	21499.3875
1789.77382	21405.0875
1792.96828	21345.5875
1796.16064	21305.4875
1799.3509	21263.9875
1802.53907	21202.9875
1805.72514	21125.5875
1808.90913	21080.9875
1812.09102	21038.6875
1815.27083	20996.6875
1818.44856	20978.8875
1821.6242	20935.1875
1824.79776	20931.3875
1827.96924	20913.9875
1831.13864	20871.4875
1834.30597	20935.9875
1837.47122	20939.7875
1840.6344	20910.0875
1843.7955	20922.6875
1846.95454	20911.0875
1850.11151	20893.3875
1853.26642	20876.1875
1856.41926	20851.8875
1859.57004	20835.9875
1862.71876	20769.7875
1865.86542	20740.3875
1869.01003	20716.1875
1872.15258	20674.7875
1875.29308	20668.1875
1878.43152	20629.7875
1881.56792	20618.5875
1884.70227	20572.6875
1887.83457	20561.4875
1890.96482	20518.4875
1894.09304	20503.8875
1897.21921	20486.1875
1900.34335	20449.0875
1903.46544	20407.4875
1906.58551	20370.0875
1909.70353	20290.3875
1912.81953	20264.5875
1915.93349	20197.9875
1919.04543	20146.2875
1922.15534	20115.0875
1925.26322	20031.1875
1928.36908	19991.7875
1931.47292	19946.7875
1934.57473	19855.2875
1937.67453	19819.5875
1940.77232	19747.0875
1943.86808	19694.2875
1946.96184	19694.5875
1950.05358	19623.5875
1953.14331	19552.7875
1956.23103	19496.7875
1959.31675	19452.1875
1962.40046	19355.3875
1965.48217	19300.7875
1968.56188	19229.7875
1971.63959	19153.5875
1974.7153	19108.3875
1977.78901	19048.6875
1980.86073	18989.1875
1983.93046	18931.3875
1986.99819	18841.3875
1990.06394	18807.3875
1993.1277	18769.2875
1996.18947	18639.9875
1999.24925	18634.7875
2002.30706	18570.9875
2005.36288	18503.0875
2008.41672	18500.0875
2011.46859	18401.1875
2014.51848	18351.9875
2017.56639	18286.5875
2020.61233	18246.9875
2023.6563	18231.6875
2026.6983	18190.9875
2029.73833	18161.1875
2032.7764	18108.7875
2035.8125	18083.9875
2038.84664	18031.8875
2041.87881	17995.0875
2044.90903	17987.9875
2047.93729	17933.1875
2050.96359	17921.6875
2053.98794	17864.0875
2057.01034	17895.6875
2060.03078	17855.3875
2063.04927	17853.8875
2066.06582	17839.3875
2069.08042	17812.6875
2072.09307	17827.6875
2075.10378	17793.0875
2078.11255	17748.1875
2081.11938	17749.0875
2084.12426	17740.6875
2087.12722	17717.2875
2090.12824	17718.9875
2093.12732	17723.3875
2096.12447	17716.9875
2099.11969	17722.5875
2102.11299	17754.0875
2105.10435	17757.6875
2108.09379	17731.9875
2111.08131	17753.3875
2114.0669	17756.5875
2117.05057	17730.2875
2120.03233	17815.3875
2123.01216	17814.6875
2125.99008	17760.8875
2128.96609	17760.0875
2131.94018	17752.7875
2134.91236	17749.3875
2137.88263	17706.7875
2140.851	17724.6875
2143.81746	17769.1875
2146.78201	17741.1875
2149.74466	17738.9875
2152.7054	17741.6875
2155.66425	17713.5875
2158.6212	17735.1875
2161.57625	17685.3875
2164.52941	17709.6875
2167.48067	17664.9875
2170.43004	17658.9875
2173.37752	17621.5875
2176.32311	17638.5875
2179.26681	17649.3875
2182.20863	17657.8875
2185.14856	17676.6875
2188.08661	17635.4875
2191.02278	17631.8875
2193.95707	17610.6875
2196.88948	17613.4875
2199.82001	17585.0875
2202.74867	17588.2875
2205.67545	17543.0875
2208.60037	17513.8875
2211.52341	17454.0875
2214.44458	17444.8875
2217.36388	17438.5875
2220.28132	17421.8875
2223.1969	17382.4875
2226.11061	17348.3875
2229.02246	17315.9875
2231.93245	17296.9875
2234.84058	17278.8875
2237.74686	17247.0875
2240.65128	17231.0875
2243.55385	17244.3875
2246.45456	17201.9875
2249.35343	17143.5875
2252.25044	17109.3875
2255.14561	17077.7875
2258.03893	17019.5875
2260.93041	16975.2875
2263.82004	16891.9875
2266.70783	16859.2875
2269.59378	16810.0875
2272.4779	16753.5875
2275.36017	16678.3875
2278.24061	16688.4875
2281.11922	16640.3875
2283.996	16621.4875
2286.87094	16602.3875
2289.74405	16582.2875
2292.61534	16582.5875
2295.4848	16529.4875
2298.35243	16547.3875
2301.21824	16538.0875
2304.08223	16520.5875
2306.94439	16510.8875
2309.80474	16498.0875
2312.66327	16497.3875
2315.51999	16505.5875
2318.37489	16476.3875
2321.22797	16441.7875
2324.07925	16418.3875
2326.92871	16415.6875
2329.77637	16423.5875
2332.62222	16385.5875
2335.46626	16346.5875
2338.3085	16345.2875
2341.14893	16351.6875
2343.98756	16333.6875
2346.8244	16327.0875
2349.65943	16338.8875
2352.49267	16317.6875
2355.32411	16335.8875
2358.15376	16308.3875
2360.98161	16293.1875
2363.80768	16278.1875
2366.63195	16260.0875
2369.45444	16251.5875
2372.27514	16250.9875
2375.09405	16191.4875
2377.91118	16154.8875
2380.72652	16146.2875
2383.54009	16131.2875
2386.35187	16107.9875
2389.16188	16064.3875
2391.97011	16046.5875
2394.77657	16006.8875
2397.58125	15986.5875
2400.38416	15969.8875
2403.18529	15936.8875
2405.98466	15955.0875
2408.78226	15921.0875
2411.57809	15920.7875
2414.37216	15882.9875
2417.16446	15869.7875
2419.955	15849.2875
2422.74378	15852.3875
2425.5308	15835.5875
2428.31606	15830.8875
2431.09956	15808.2875
2433.88131	15734.4875
2436.6613	15774.6875
2439.43954	15796.3875
2442.21603	15781.5875
2444.99077	15729.5875
2447.76377	15740.9875
2450.53501	15776.3875
2453.30451	15807.2875
2456.07226	15735.1875
2458.83827	15753.5875
2461.60254	15750.7875
2464.36507	15741.8875
2467.12586	15733.2875
2469.88492	15734.9875
2472.64224	15734.8875
2475.39782	15743.0875
2478.15167	15748.5875
2480.90379	15710.4875
2483.65417	15691.2875
2486.40283	15763.9875
2489.14976	15752.5875
2491.89497	15727.5875
2494.63845	15759.5875
2497.3802	15747.0875
2500.12024	15713.2875
2502.85855	15729.7875
2505.59514	15768.0875
2508.33002	15742.4875
2511.06318	15761.5875
2513.79462	15724.9875
2516.52435	15693.2875
2519.25237	15668.1875
2521.97867	15651.7875
2524.70327	15675.8875
2527.42616	15643.4875
2530.14734	15670.3875
2532.86681	15632.7875
2535.58458	15639.6875
2538.30065	15611.0875
2541.01501	15603.4875
2543.72768	15581.6875
2546.43864	15581.4875
2549.14791	15552.7875
2551.85548	15597.8875
2554.56136	15561.2875
2557.26554	15571.0875
2559.96803	15543.4875
2562.66883	15584.8875
2565.36794	15539.5875
2568.06536	15531.6875
2570.7611	15535.9875
2573.45514	15522.3875
2576.14751	15538.2875
2578.83819	15482.3875
2581.52719	15482.6875
2584.21451	15493.9875
2586.90015	15472.2875
2589.58411	15490.0875
2592.2664	15462.1875
2594.94701	15422.2875
2597.62594	15465.1875
2600.30321	15439.0875
2602.9788	15463.8875
2605.65273	15430.5875
2608.32498	15462.8875
2610.99557	15451.0875
2613.66449	15468.5875
2616.33175	15458.6875
2618.99734	15436.2875
2621.66128	15424.2875
2624.32355	15432.6875
2626.98416	15415.7875
2629.64311	15423.2875
2632.30041	15411.3875
2634.95605	15430.8875
2637.61004	15413.4875
2640.26238	15373.7875
2642.91306	15393.2875
2645.56209	15373.8875
2648.20948	15408.2875
2650.85521	15401.4875
2653.4993	15402.0875
2656.14175	15423.9875
2658.78255	15455.2875
2661.42171	15426.5875
2664.05923	15457.7875
2666.6951	15471.2875
2669.32934	15501.3875
2671.96194	15492.3875
2674.59291	15478.5875
2677.22224	15468.6875
2679.84993	15467.1875
2682.476	15468.3875
2685.10043	15473.8875
2687.72324	15437.6875
2690.34441	15461.5875
2692.96396	15447.3875
2695.58188	15459.7875
2698.19818	15434.5875
2700.81285	15471.0875
2703.4259	15499.9875
2706.03733	15512.2875
2708.64714	15506.2875
2711.25533	15512.7875
2713.86191	15488.1875
2716.46687	15536.8875
2719.07021	15547.4875
2721.67194	15580.8875
2724.27206	15566.5875
2726.87057	15624.0875
2729.46747	15647.3875
2732.06276	15605.1875
2734.65644	15608.5875
2737.24852	15590.4875
2739.83899	15565.0875
2742.42786	15572.3875
2745.01513	15559.2875
2747.60079	15557.9875
2750.18486	15533.1875
2752.76733	15554.6875
2755.3482	15560.2875
2757.92747	15596.0875
2760.50515	15614.6875
2763.08123	15624.2875
2765.65573	15565.4875
2768.22863	15574.1875
2770.79994	15562.2875
2773.36967	15583.5875
2775.9378	15557.5875
2778.50435	15578.8875
2781.06932	15553.5875
2783.6327	15573.1875
2786.1945	15556.0875
2788.75471	15566.0875
2791.31335	15513.6875
2793.87041	15502.4875
2796.42589	15510.7875
2798.97979	15507.7875
2801.53212	15439.5875
2804.08288	15435.5875
2806.63206	15442.0875
2809.17967	15383.3875
2811.72571	15360.8875
2814.27018	15340.5875
2816.81308	15304.9875
2819.35442	15289.4875
2821.89419	15246.2875
2824.43239	15230.6875
2826.96904	15237.1875
2829.50412	15230.2875
2832.03763	15193.0875
2834.56959	15199.9875
2837.1	15182.5875
2839.62884	15185.0875
2842.15613	15161.0875
2844.68186	15208.4875
2847.20604	15222.9875
2849.72867	15211.2875
2852.24974	15227.3875
2854.76927	15243.4875
2857.28724	15206.0875
2859.80367	15160.0875
2862.31855	15147.8875
2864.83189	15095.6875
2867.34368	15110.9875
2869.85393	15100.4875
2872.36264	15064.8875
2874.8698	15066.7875
2877.37543	15095.0875
2879.87952	15091.5875
2882.38207	15053.0875
2884.88308	15063.7875
2887.38256	15064.8875
2889.88051	15077.5875
2892.37692	15067.9875
2894.8718	15087.5875
2897.36515	15101.9875
2899.85698	15097.0875
2902.34727	15125.8875
2904.83604	15130.0875
2907.32328	15189.9875
2909.809	15146.4875
2912.29319	15116.4875
2914.77587	15108.7875
2917.25702	15150.1875
2919.73665	15135.9875
2922.21476	15124.3875
2924.69136	15139.7875
2927.16644	15147.0875
2929.64	15142.9875
2932.11205	15124.1875
2934.58258	15101.1875
2937.05161	15103.7875
2939.51912	15137.8875
2941.98513	15087.6875
2944.44962	15034.5875
2946.91261	14939.9875
2949.37409	14989.3875
2951.83407	14944.7875
2954.29254	14953.7875
2956.74951	14946.5875
2959.20498	14918.1875
2961.65895	14888.2875
2964.11142	14910.3875
2966.56239	14822.8875
2969.01186	14829.0875
2971.45984	14796.5875
2973.90632	14796.5875
2976.35131	14703.3875
2978.7948	14676.5875
2981.23681	14625.3875
2983.67732	14631.1875
2986.11635	14562.8875
2988.55388	14530.9875
2990.98993	14495.4875
2993.4245	14456.5875
2995.85758	14437.5875
2998.28917	14397.9875
3000.71928	14373.6875
3003.14791	14314.7875
3005.57506	14276.9875
3008.00073	14231.2875
3010.42493	14214.7875
3012.84764	14198.5875
3015.26888	14215.0875
3017.68865	14139.7875
3020.10694	14106.5875
3022.52376	14085.0875
3024.9391	14048.7875
3027.35298	14038.6875
3029.76539	14014.3875
3032.17632	14031.0875
3034.5858	14023.6875
3036.9938	14007.9875
3039.40034	13989.4875
3041.80542	13942.6875
3044.20903	13954.8875
3046.61118	13944.1875
3049.01187	13884.5875
3051.4111	13866.7875
3053.80888	13842.3875
3056.20519	13776.4875
3058.60005	13755.2875
3060.99345	13718.2875
3063.3854	13670.3875
3065.7759	13624.4875
3068.16494	13594.8875
3070.55254	13524.3875
3072.93868	13518.0875
3075.32338	13473.7875
3077.70662	13424.6875
3080.08842	13391.0875
3082.46878	13398.7875
3084.84769	13358.5875
3087.22515	13348.9875
3089.60118	13335.2875
3091.97576	13347.1875
3094.3489	13325.3875
3096.72061	13271.9875
3099.09087	13275.8875
3101.4597	13241.1875
3103.82709	13235.3875
3106.19305	13227.7875
3108.55757	13195.0875
3110.92066	13163.1875
3113.28232	13114.4875
3115.64255	13084.3875
3118.00134	13039.5875
3120.35871	13029.6875
3122.71466	12961.5875
3125.06917	12990.9875
3127.42226	12932.9875
3129.77393	12953.2875
3132.12417	12931.2875
3134.47299	12912.0875
3136.82039	12886.1875
3139.16636	12879.2875
3141.51092	12857.4875
3143.85406	12862.9875
3146.19579	12846.6875
3148.53609	12866.8875
3150.87499	12862.8875
3153.21246	12827.2875
3155.54853	12867.1875
3157.88318	12820.1875
3160.21642	12848.8875
3162.54826	12813.0875
3164.87868	12786.8875
3167.2077	12783.4875
3169.5353	12783.4875
3171.86151	12780.0875
3174.18631	12763.9875
3176.5097	12755.1875
3178.83169	12729.1875
3181.15228	12695.3875
3183.47147	12703.1875
3185.78926	12691.9875
3188.10565	12681.3875
3190.42065	12673.0875
3192.73424	12652.6875
3195.04645	12614.0875
3197.35725	12612.7875
3199.66667	12583.0875
3201.97469	12581.9875
3204.28132	12556.2875
3206.58656	12564.6875
3208.8904	12569.0875
3211.19287	12573.9875
3213.49394	12576.8875
3215.79363	12561.7875
3218.09193	12541.7875
3220.38884	12521.2875
3222.68438	12525.3875
3224.97853	12531.4875
3227.2713	12522.4875
3229.56269	12469.8875
3231.8527	12494.3875
3234.14133	12470.0875
3236.42858	12446.1875
3238.71446	12432.9875
3240.99896	12419.9875
3243.28209	12431.3875
3245.56384	12420.5875
3247.84423	12379.7875
3250.12324	12377.3875
3252.40088	12364.7875
3254.67715	12358.7875
3256.95205	12299.5875
3259.22558	12292.9875
3261.49775	12231.8875
3263.76855	12215.2875
3266.03799	12174.8875
3268.30606	12176.4875
3270.57277	12144.3875
3272.83812	12137.7875
3275.10211	12085.8875
3277.36474	12077.9875
3279.62601	12090.4875
3281.88593	12079.4875
3284.14448	12102.1875
3286.40168	12098.2875
3288.65753	12089.5875
3290.91202	12063.7875
3293.16516	12016.9875
3295.41695	11998.4875
3297.66738	11910.4875
3299.91647	11848.9875
3302.16421	11761.6875
3304.4106	11744.3875
3306.65564	11661.5875
3308.89933	11595.6875
3311.14169	11500.5875
3313.38269	11430.8875
3315.62236	11354.2875
3317.86068	11225.6875
3320.09766	11093.2875
3322.3333	10988.4875
3324.5676	10999.7875
3326.80056	10801.3875
3329.03219	10759.8875
3331.26248	2.5875
3333.49143	-0.2125
3335.71905	-1.0125
