Data from AgNPs_FTO_APTES_UA_2uM_CRN_0uM_R6G_10uM_NaF_0.1M_Addition_RamanShift__59__11-13-14-991.txt Node

Date: Wed Feb 02 11:13:14 GMT 2022
User: TCL
Spectrometer: QEP01345
Trigger mode: 4
Integration Time (sec): 7.000000E0
Scans to average: 10
Electric dark correction enabled: true
Nonlinearity correction enabled: false
Boxcar width: 0
XAxis mode: Raman Shifts
Number of Pixels in Spectrum: 1044
>>>>>Begin Spectral Data<<<<<
46.04893	1.6375
50.45542	0.7375
54.85868	-0.2625
59.25871	0.5375
63.6555	36.2375
68.04907	38.2375
72.43941	37.0375
76.82654	43.7375
81.21044	46.1375
85.59113	48.7375
89.96862	46.6375
94.34289	48.8375
98.71396	53.8375
103.08183	56.4375
107.4465	57.4375
111.80798	61.3375
116.16626	57.7375
120.52136	59.6375
124.87327	60.5375
129.222	66.8375
133.56755	69.3375
137.90993	71.0375
142.24913	77.8375
146.58517	87.6375
150.91804	100.4375
155.24774	120.2375
159.57429	151.0375
163.89768	187.5375
168.21792	248.0375
172.53501	335.0375
176.84895	461.3375
181.15975	639.8375
185.46741	889.7375
189.77193	1235.8375
194.07331	1646.1375
198.37157	2110.8375
202.6667	2584.4375
206.9587	3077.2375
211.24758	3542.7375
215.53334	4057.7375
219.81599	4629.3375
224.09553	5274.7375
228.37195	6017.9375
232.64527	6783.8375
236.91549	7511.0375
241.18261	8169.0375
245.44663	8699.2375
249.70755	9098.9375
253.96539	9445.0375
258.22014	9758.3375
262.4718	10040.8375
266.72039	10284.4375
270.96589	10411.7375
275.20832	10429.2375
279.44768	10356.0375
283.68397	10277.2375
287.91719	10269.0375
292.14735	10321.9375
296.37445	10513.1375
300.59849	10870.9375
304.81948	11363.8375
309.03742	11723.6375
313.25231	11740.2375
317.46415	11109.6375
321.67296	10117.1375
325.87872	9284.9375
330.08145	8873.5375
334.28114	8791.4375
338.47781	8949.0375
342.67145	9218.5375
346.86207	9649.1375
351.04966	10319.9375
355.23424	11075.5375
359.4158	11653.5375
363.59435	11867.7375
367.76989	11822.0375
371.94243	11692.5375
376.11196	11506.2375
380.27849	11371.4375
384.44203	11155.2375
388.60257	10964.8375
392.76012	10860.1375
396.91468	11062.9375
401.06626	11444.8375
405.21485	11733.6375
409.36047	11539.6375
413.50311	10879.4375
417.64277	10260.3375
421.77947	9867.9375
425.9132	9740.7375
430.04396	9746.4375
434.17176	9727.0375
438.2966	9833.0375
442.41849	10078.1375
446.53742	10391.5375
450.6534	10705.7375
454.76644	10909.1375
458.87653	10914.7375
462.98368	10822.5375
467.08789	10619.1375
471.18916	10392.9375
475.2875	10108.1375
479.38291	9893.2375
483.4754	9720.2375
487.56496	9571.4375
491.6516	9489.0375
495.73531	9489.2375
499.81612	9551.1375
503.89401	9685.4375
507.96899	9810.0375
512.04106	9874.3375
516.11023	9951.6375
520.1765	10000.6375
524.23987	9911.2375
528.30034	9710.6375
532.35792	9440.2375
536.41261	9135.7375
540.46441	8853.3375
544.51333	8710.4375
548.55936	8791.6375
552.60252	9093.6375
556.64279	9373.6375
560.6802	9594.8375
564.71473	9852.9375
568.7464	10456.8375
572.7752	10906.7375
576.80114	10656.5375
580.82422	10270.1375
584.84444	10109.8375
588.86181	10003.2375
592.87633	9925.4375
596.888	9964.8375
600.89682	10393.7375
604.9028	11722.7375
608.90594	15199.0375
612.90624	19860.4375
616.90371	19143.8375
620.89834	12895.9375
624.89015	9768.4375
628.87913	9179.7375
632.86528	9240.3375
636.84862	9377.4375
640.82913	9215.4375
644.80683	8710.2375
648.78172	8362.7375
652.75379	8421.4375
656.72306	8909.1375
660.68952	9515.4375
664.65319	9422.9375
668.61405	8854.6375
672.57211	8542.2375
676.52738	8490.5375
680.47986	8385.7375
684.42955	8312.3375
688.37646	8236.9375
692.32058	8297.8375
696.26192	8418.0375
700.20048	8637.5375
704.13626	8871.6375
708.06928	8891.6375
711.99952	8776.5375
715.927	8643.3375
719.85171	8555.3375
723.77365	8506.4375
727.69284	8352.9375
731.60928	8216.3375
735.52295	8193.0375
739.43388	8223.2375
743.34206	8293.9375
747.24749	8389.9375
751.15017	8523.7375
755.05012	8764.2375
758.94733	9293.5375
762.8418	10534.4375
766.73354	12728.7375
770.62254	14967.8375
774.50882	15916.2375
778.39237	15144.1375
782.27321	12941.6375
786.15132	10692.0375
790.02671	9327.1375
793.89938	8719.2375
797.76935	8430.4375
801.6366	8324.1375
805.50115	8236.2375
809.36299	8178.2375
813.22213	8090.3375
817.07857	8056.5375
820.93231	8062.5375
824.78336	8090.5375
828.63172	8163.3375
832.47738	8194.1375
836.32036	8151.2375
840.16066	8107.5375
843.99827	8004.2375
847.8332	7947.1375
851.66546	7932.5375
855.49504	7919.7375
859.32195	7888.2375
863.1462	7787.7375
866.96777	7748.5375
870.78668	7725.5375
874.60293	7720.4375
878.41652	7780.1375
882.22745	7834.1375
886.03573	7878.6375
889.84136	7860.9375
893.64433	7794.7375
897.44466	7772.4375
901.24235	7781.0375
905.0374	7760.8375
908.8298	7711.5375
912.61957	7741.3375
916.40671	7827.5375
920.19121	7952.9375
923.97308	8081.3375
927.75233	8190.3375
931.52895	8253.8375
935.30295	8068.2375
939.07433	7749.6375
942.84309	7475.3375
946.60924	7287.8375
950.37278	7213.7375
954.13371	7162.8375
957.89203	7118.0375
961.64774	7086.0375
965.40086	7075.2375
969.15137	7017.4375
972.89929	7012.0375
976.64461	6987.0375
980.38733	6986.1375
984.12747	6991.2375
987.86502	7021.2375
991.59999	7068.3375
995.33237	7143.1375
999.06217	7320.1375
1002.78939	7595.1375
1006.51404	7877.1375
1010.23611	8140.0375
1013.95561	8215.0375
1017.67255	8149.0375
1021.38692	7926.7375
1025.09872	7724.9375
1028.80796	7610.6375
1032.51465	7635.2375
1036.21877	7781.8375
1039.92035	7995.6375
1043.61937	8085.2375
1047.31584	8045.7375
1051.00976	7980.6375
1054.70114	7914.6375
1058.38998	7877.0375
1062.07627	7918.2375
1065.76003	8010.9375
1069.44126	8142.3375
1073.11995	8318.0375
1076.79611	8455.0375
1080.46974	8585.3375
1084.14085	8829.6375
1087.80943	9130.4375
1091.47549	9262.6375
1095.13903	9073.3375
1098.80005	8656.1375
1102.45857	8236.3375
1106.11456	7997.6375
1109.76805	7950.2375
1113.41903	8116.9375
1117.06751	8393.9375
1120.71348	8833.1375
1124.35696	9320.7375
1127.99793	9799.2375
1131.63641	9822.0375
1135.2724	9295.8375
1138.90589	8771.1375
1142.5369	8477.1375
1146.16542	8292.3375
1149.79145	8229.6375
1153.415	8237.6375
1157.03607	8369.4375
1160.65467	8640.7375
1164.27079	9058.8375
1167.88443	9687.2375
1171.49561	10749.7375
1175.10432	12479.7375
1178.71056	14709.6375
1182.31434	16201.7375
1185.91565	16545.0375
1189.51451	16126.8375
1193.11091	15203.8375
1196.70485	13911.3375
1200.29634	12796.3375
1203.88538	11898.9375
1207.47197	10916.3375
1211.05612	10119.3375
1214.63782	9696.3375
1218.21708	9621.3375
1221.79391	9677.4375
1225.36829	9835.0375
1228.94024	9994.3375
1232.50976	10118.4375
1236.07685	10153.2375
1239.6415	10024.6375
1243.20374	9906.2375
1246.76355	9850.8375
1250.32093	9916.3375
1253.8759	10162.1375
1257.42845	10496.8375
1260.97859	10951.9375
1264.52631	11459.8375
1268.07163	11912.7375
1271.61453	12366.4375
1275.15503	12721.7375
1278.69312	12904.6375
1282.22882	13010.3375
1285.76211	13371.1375
1289.29301	13934.6375
1292.82151	14487.4375
1296.34761	15042.7375
1299.87133	15852.9375
1303.39266	17167.4375
1306.9116	19172.1375
1310.42815	21705.0375
1313.94233	23573.0375
1317.45412	23669.4375
1320.96354	22449.6375
1324.47058	20766.0375
1327.97525	19266.8375
1331.47754	18185.9375
1334.97747	17473.7375
1338.47502	17148.9375
1341.97022	17086.5375
1345.46305	17367.2375
1348.95352	18099.0375
1352.44163	19304.3375
1355.92738	21195.0375
1359.41078	24253.0375
1362.89183	27317.6375
1366.37053	27079.7375
1369.84688	23362.9375
1373.32088	19274.4375
1376.79254	16547.1375
1380.26186	15101.5375
1383.72883	14350.8375
1387.19347	13731.9375
1390.65578	13115.2375
1394.11575	12653.9375
1397.57339	12453.8375
1401.0287	12542.1375
1404.48168	12735.1375
1407.93234	12830.1375
1411.38068	12769.1375
1414.82669	12494.2375
1418.27039	12061.3375
1421.71177	11641.7375
1425.15083	11268.8375
1428.58758	11049.8375
1432.02203	10986.9375
1435.45416	11086.4375
1438.88399	11184.8375
1442.31151	11261.7375
1445.73673	11327.7375
1449.15965	11426.8375
1452.58027	11418.3375
1455.9986	11377.9375
1459.41463	11395.4375
1462.82837	11515.5375
1466.23982	11766.7375
1469.64898	11994.5375
1473.05586	12162.4375
1476.46045	12267.1375
1479.86276	12401.4375
1483.26279	12668.2375
1486.66054	12973.1375
1490.05602	13425.8375
1493.44922	14067.1375
1496.84016	15092.7375
1500.22882	16659.1375
1503.61521	18777.6375
1506.99934	21106.8375
1510.38121	23494.3375
1513.76081	24996.5375
1517.13816	24370.1375
1520.51324	21616.3375
1523.88607	18527.6375
1527.25665	16338.0375
1530.62498	15058.2375
1533.99105	14271.4375
1537.35488	13744.8375
1540.71647	13395.3375
1544.07581	13102.6375
1547.4329	12843.2375
1550.78776	12647.0375
1554.14038	12492.6375
1557.49077	12594.6375
1560.83892	12833.4375
1564.18484	13292.5375
1567.52853	13754.6375
1570.86999	14165.6375
1574.20922	14439.0375
1577.54624	14429.4375
1580.88103	13719.9375
1584.2136	12741.5375
1587.54395	12298.3375
1590.87208	12590.0375
1594.19801	13452.4375
1597.52172	14506.8375
1600.84321	14886.9375
1604.16251	14161.0375
1607.47959	12928.0375
1610.79447	11656.6375
1614.10715	10470.8375
1617.41763	9600.5375
1620.7259	9050.2375
1624.03199	8763.5375
1627.33587	8800.7375
1630.63757	9065.1375
1633.93707	9654.2375
1637.23439	10611.8375
1640.52951	11961.6375
1643.82246	13647.6375
1647.11321	15560.9375
1650.40179	16906.8375
1653.68819	16586.0375
1656.97241	14358.2375
1660.25446	11571.5375
1663.53433	9505.6375
1666.81203	8230.4375
1670.08756	7511.3375
1673.36092	7062.9375
1676.63211	6791.8375
1679.90115	6611.9375
1683.16801	6462.1375
1686.43272	6377.8375
1689.69527	6296.7375
1692.95567	6267.8375
1696.2139	6212.3375
1699.46999	6203.3375
1702.72392	6167.0375
1705.97571	6147.3375
1709.22535	6124.8375
1712.47284	6125.0375
1715.71819	6119.0375
1718.96139	6135.6375
1722.20246	6116.5375
1725.44139	6101.1375
1728.67818	6029.5375
1731.91284	5969.3375
1735.14537	5890.3375
1738.37576	5833.7375
1741.60403	5804.7375
1744.83017	5746.2375
1748.05418	5736.1375
1751.27607	5704.4375
1754.49584	5673.7375
1757.71349	5656.6375
1760.92903	5669.2375
1764.14244	5643.3375
1767.35375	5643.3375
1770.56294	5616.4375
1773.77002	5591.3375
1776.97499	5554.2375
1780.17785	5528.7375
1783.37861	5518.7375
1786.57727	5495.3375
1789.77382	5480.5375
1792.96828	5462.2375
1796.16064	5439.7375
1799.3509	5438.3375
1802.53907	5421.8375
1805.72514	5420.3375
1808.90913	5393.1375
1812.09102	5374.1375
1815.27083	5355.1375
1818.44856	5358.9375
1821.6242	5335.3375
1824.79776	5319.5375
1827.96924	5310.4375
1831.13864	5297.7375
1834.30597	5311.5375
1837.47122	5302.7375
1840.6344	5309.7375
1843.7955	5310.0375
1846.95454	5309.4375
1850.11151	5292.5375
1853.26642	5284.9375
1856.41926	5297.4375
1859.57004	5282.3375
1862.71876	5310.8375
1865.86542	5302.3375
1869.01003	5301.2375
1872.15258	5329.0375
1875.29308	5312.7375
1878.43152	5343.4375
1881.56792	5354.5375
1884.70227	5370.1375
1887.83457	5375.3375
1890.96482	5385.8375
1894.09304	5402.6375
1897.21921	5413.3375
1900.34335	5425.2375
1903.46544	5441.2375
1906.58551	5459.5375
1909.70353	5457.6375
1912.81953	5473.1375
1915.93349	5481.9375
1919.04543	5471.6375
1922.15534	5447.9375
1925.26322	5415.7375
1928.36908	5417.7375
1931.47292	5366.3375
1934.57473	5291.0375
1937.67453	5233.2375
1940.77232	5201.5375
1943.86808	5165.5375
1946.96184	5104.9375
1950.05358	5075.5375
1953.14331	5014.4375
1956.23103	5000.4375
1959.31675	4966.0375
1962.40046	4944.9375
1965.48217	4928.5375
1968.56188	4900.4375
1971.63959	4883.0375
1974.7153	4882.8375
1977.78901	4866.1375
1980.86073	4819.1375
1983.93046	4792.8375
1986.99819	4795.0375
1990.06394	4787.4375
1993.1277	4778.4375
1996.18947	4733.7375
1999.24925	4712.8375
2002.30706	4702.2375
2005.36288	4675.9375
2008.41672	4655.3375
2011.46859	4657.2375
2014.51848	4626.1375
2017.56639	4616.4375
2020.61233	4606.7375
2023.6563	4569.9375
2026.6983	4565.5375
2029.73833	4538.2375
2032.7764	4546.3375
2035.8125	4527.5375
2038.84664	4528.3375
2041.87881	4515.3375
2044.90903	4503.6375
2047.93729	4511.1375
2050.96359	4490.6375
2053.98794	4484.2375
2057.01034	4469.3375
2060.03078	4472.9375
2063.04927	4454.9375
2066.06582	4462.8375
2069.08042	4444.8375
2072.09307	4460.9375
2075.10378	4440.1375
2078.11255	4447.5375
2081.11938	4434.1375
2084.12426	4443.6375
2087.12722	4439.7375
2090.12824	4439.3375
2093.12732	4428.7375
2096.12447	4434.9375
2099.11969	4443.4375
2102.11299	4446.2375
2105.10435	4437.2375
2108.09379	4429.2375
2111.08131	4417.5375
2114.0669	4436.4375
2117.05057	4417.5375
2120.03233	4438.5375
2123.01216	4431.1375
2125.99008	4422.0375
2128.96609	4426.1375
2131.94018	4433.8375
2134.91236	4443.0375
2137.88263	4424.7375
2140.851	4433.0375
2143.81746	4419.4375
2146.78201	4433.3375
2149.74466	4401.5375
2152.7054	4407.1375
2155.66425	4400.4375
2158.6212	4391.8375
2161.57625	4400.4375
2164.52941	4381.2375
2167.48067	4393.2375
2170.43004	4379.0375
2173.37752	4392.0375
2176.32311	4384.5375
2179.26681	4386.2375
2182.20863	4387.8375
2185.14856	4391.4375
2188.08661	4375.0375
2191.02278	4381.4375
2193.95707	4348.6375
2196.88948	4349.2375
2199.82001	4354.0375
2202.74867	4342.5375
2205.67545	4334.8375
2208.60037	4349.3375
2211.52341	4324.0375
2214.44458	4325.5375
2217.36388	4312.7375
2220.28132	4293.9375
2223.1969	4289.1375
2226.11061	4271.2375
2229.02246	4267.7375
2231.93245	4257.1375
2234.84058	4243.0375
2237.74686	4234.2375
2240.65128	4224.7375
2243.55385	4211.6375
2246.45456	4225.7375
2249.35343	4205.2375
2252.25044	4199.1375
2255.14561	4204.1375
2258.03893	4205.9375
2260.93041	4196.8375
2263.82004	4203.3375
2266.70783	4192.4375
2269.59378	4168.7375
2272.4779	4179.9375
2275.36017	4172.1375
2278.24061	4147.7375
2281.11922	4139.2375
2283.996	4133.3375
2286.87094	4103.3375
2289.74405	4101.9375
2292.61534	4081.5375
2295.4848	4079.9375
2298.35243	4067.0375
2301.21824	4071.8375
2304.08223	4059.5375
2306.94439	4059.7375
2309.80474	4062.0375
2312.66327	4053.9375
2315.51999	4054.2375
2318.37489	4049.7375
2321.22797	4035.6375
2324.07925	4032.7375
2326.92871	4042.1375
2329.77637	4028.6375
2332.62222	4023.9375
2335.46626	4022.2375
2338.3085	4030.5375
2341.14893	4022.2375
2343.98756	4019.7375
2346.8244	4013.5375
2349.65943	4015.4375
2352.49267	4019.7375
2355.32411	4031.0375
2358.15376	4045.7375
2360.98161	4032.4375
2363.80768	4053.5375
2366.63195	4054.8375
2369.45444	4069.8375
2372.27514	4059.5375
2375.09405	4058.2375
2377.91118	4043.1375
2380.72652	4025.9375
2383.54009	4019.6375
2386.35187	3984.8375
2389.16188	3952.2375
2391.97011	3946.9375
2394.77657	3923.4375
2397.58125	3923.5375
2400.38416	3902.0375
2403.18529	3900.9375
2405.98466	3880.2375
2408.78226	3890.1375
2411.57809	3876.0375
2414.37216	3870.6375
2417.16446	3849.6375
2419.955	3852.9375
2422.74378	3851.5375
2425.5308	3842.4375
2428.31606	3853.4375
2431.09956	3856.5375
2433.88131	3839.0375
2436.6613	3846.8375
2439.43954	3844.3375
2442.21603	3840.3375
2444.99077	3857.3375
2447.76377	3851.1375
2450.53501	3850.2375
2453.30451	3859.7375
2456.07226	3860.3375
2458.83827	3870.8375
2461.60254	3865.2375
2464.36507	3859.9375
2467.12586	3846.7375
2469.88492	3847.5375
2472.64224	3843.9375
2475.39782	3863.5375
2478.15167	3847.5375
2480.90379	3858.6375
2483.65417	3877.9375
2486.40283	3878.6375
2489.14976	3890.3375
2491.89497	3894.3375
2494.63845	3907.9375
2497.3802	3904.2375
2500.12024	3889.7375
2502.85855	3896.2375
2505.59514	3877.2375
2508.33002	3869.6375
2511.06318	3858.3375
2513.79462	3828.9375
2516.52435	3818.3375
2519.25237	3785.5375
2521.97867	3785.6375
2524.70327	3786.2375
2527.42616	3770.2375
2530.14734	3763.0375
2532.86681	3744.9375
2535.58458	3761.1375
2538.30065	3757.1375
2541.01501	3735.4375
2543.72768	3745.7375
2546.43864	3736.4375
2549.14791	3743.1375
2551.85548	3741.0375
2554.56136	3736.1375
2557.26554	3739.5375
2559.96803	3730.0375
2562.66883	3732.9375
2565.36794	3728.4375
2568.06536	3728.1375
2570.7611	3715.3375
2573.45514	3709.0375
2576.14751	3714.1375
2578.83819	3689.7375
2581.52719	3696.0375
2584.21451	3713.4375
2586.90015	3700.9375
2589.58411	3683.2375
2592.2664	3677.1375
2594.94701	3675.1375
2597.62594	3684.7375
2600.30321	3664.5375
2602.9788	3648.1375
2605.65273	3675.4375
2608.32498	3662.4375
2610.99557	3671.9375
2613.66449	3661.9375
2616.33175	3676.7375
2618.99734	3661.3375
2621.66128	3663.9375
2624.32355	3656.7375
2626.98416	3658.9375
2629.64311	3654.2375
2632.30041	3655.7375
2634.95605	3630.0375
2637.61004	3637.7375
2640.26238	3621.8375
2642.91306	3632.5375
2645.56209	3629.3375
2648.20948	3624.2375
2650.85521	3620.5375
2653.4993	3617.7375
2656.14175	3625.2375
2658.78255	3619.0375
2661.42171	3624.6375
2664.05923	3620.8375
2666.6951	3628.7375
2669.32934	3643.6375
2671.96194	3645.1375
2674.59291	3666.0375
2677.22224	3647.0375
2679.84993	3667.4375
2682.476	3655.9375
2685.10043	3665.1375
2687.72324	3657.1375
2690.34441	3663.2375
2692.96396	3648.5375
2695.58188	3656.2375
2698.19818	3669.9375
2700.81285	3672.6375
2703.4259	3669.7375
2706.03733	3682.8375
2708.64714	3668.4375
2711.25533	3700.3375
2713.86191	3696.5375
2716.46687	3711.6375
2719.07021	3711.5375
2721.67194	3716.8375
2724.27206	3706.6375
2726.87057	3703.1375
2729.46747	3703.2375
2732.06276	3705.7375
2734.65644	3703.7375
2737.24852	3697.5375
2739.83899	3689.1375
2742.42786	3686.1375
2745.01513	3670.7375
2747.60079	3669.3375
2750.18486	3683.3375
2752.76733	3674.8375
2755.3482	3672.9375
2757.92747	3690.6375
2760.50515	3671.2375
2763.08123	3683.1375
2765.65573	3676.8375
2768.22863	3667.6375
2770.79994	3674.7375
2773.36967	3680.6375
2775.9378	3687.3375
2778.50435	3680.4375
2781.06932	3694.4375
2783.6327	3701.0375
2786.1945	3703.2375
2788.75471	3711.9375
2791.31335	3716.1375
2793.87041	3711.4375
2796.42589	3720.3375
2798.97979	3739.2375
2801.53212	3759.5375
2804.08288	3753.3375
2806.63206	3777.6375
2809.17967	3777.2375
2811.72571	3785.8375
2814.27018	3815.3375
2816.81308	3837.9375
2819.35442	3846.6375
2821.89419	3860.5375
2824.43239	3873.3375
2826.96904	3862.5375
2829.50412	3880.3375
2832.03763	3892.2375
2834.56959	3895.9375
2837.1	3908.4375
2839.62884	3947.9375
2842.15613	4012.0375
2844.68186	4080.2375
2847.20604	4164.7375
2849.72867	4244.6375
2852.24974	4278.0375
2854.76927	4275.1375
2857.28724	4266.1375
2859.80367	4245.3375
2862.31855	4212.5375
2864.83189	4193.4375
2867.34368	4187.2375
2869.85393	4172.8375
2872.36264	4173.6375
2874.8698	4162.9375
2877.37543	4157.5375
2879.87952	4144.6375
2882.38207	4129.4375
2884.88308	4137.7375
2887.38256	4132.1375
2889.88051	4123.7375
2892.37692	4123.2375
2894.8718	4125.6375
2897.36515	4135.3375
2899.85698	4126.4375
2902.34727	4132.8375
2904.83604	4125.0375
2907.32328	4118.3375
2909.809	4113.2375
2912.29319	4107.2375
2914.77587	4090.9375
2917.25702	4080.8375
2919.73665	4075.0375
2922.21476	4087.9375
2924.69136	4062.8375
2927.16644	4075.0375
2929.64	4033.0375
2932.11205	4009.4375
2934.58258	4003.4375
2937.05161	3969.1375
2939.51912	3939.8375
2941.98513	3879.9375
2944.44962	3827.6375
2946.91261	3773.2375
2949.37409	3734.9375
2951.83407	3695.5375
2954.29254	3671.5375
2956.74951	3633.3375
2959.20498	3617.7375
2961.65895	3574.3375
2964.11142	3565.4375
2966.56239	3551.0375
2969.01186	3542.6375
2971.45984	3510.3375
2973.90632	3493.4375
2976.35131	3476.2375
2978.7948	3449.1375
2981.23681	3446.2375
2983.67732	3416.2375
2986.11635	3401.7375
2988.55388	3393.3375
2990.98993	3375.2375
2993.4245	3347.4375
2995.85758	3341.3375
2998.28917	3327.3375
3000.71928	3318.9375
3003.14791	3311.7375
3005.57506	3305.5375
3008.00073	3296.2375
3010.42493	3306.9375
3012.84764	3290.3375
3015.26888	3281.7375
3017.68865	3270.9375
3020.10694	3264.3375
3022.52376	3270.8375
3024.9391	3260.0375
3027.35298	3262.3375
3029.76539	3244.3375
3032.17632	3241.4375
3034.5858	3224.7375
3036.9938	3222.6375
3039.40034	3208.5375
3041.80542	3221.1375
3044.20903	3208.2375
3046.61118	3199.5375
3049.01187	3187.9375
3051.4111	3209.7375
3053.80888	3204.7375
3056.20519	3192.7375
3058.60005	3180.8375
3060.99345	3182.5375
3063.3854	3187.2375
3065.7759	3175.1375
3068.16494	3180.3375
3070.55254	3164.9375
3072.93868	3152.5375
3075.32338	3136.7375
3077.70662	3129.2375
3080.08842	3112.3375
3082.46878	3106.2375
3084.84769	3096.8375
3087.22515	3103.1375
3089.60118	3103.1375
3091.97576	3088.7375
3094.3489	3092.0375
3096.72061	3077.3375
3099.09087	3087.7375
3101.4597	3066.2375
3103.82709	3071.0375
3106.19305	3059.7375
3108.55757	3070.2375
3110.92066	3064.0375
3113.28232	3055.8375
3115.64255	3046.4375
3118.00134	3052.2375
3120.35871	3055.4375
3122.71466	3056.8375
3125.06917	3038.0375
3127.42226	3047.9375
3129.77393	3044.7375
3132.12417	3044.8375
3134.47299	3054.6375
3136.82039	3058.7375
3139.16636	3067.5375
3141.51092	3063.0375
3143.85406	3076.1375
3146.19579	3085.5375
3148.53609	3082.3375
3150.87499	3095.7375
3153.21246	3096.2375
3155.54853	3090.2375
3157.88318	3098.2375
3160.21642	3102.9375
3162.54826	3107.6375
3164.87868	3122.7375
3167.2077	3097.5375
3169.5353	3112.0375
3171.86151	3122.8375
3174.18631	3110.8375
3176.5097	3114.8375
3178.83169	3114.3375
3181.15228	3135.9375
3183.47147	3114.1375
3185.78926	3124.2375
3188.10565	3127.9375
3190.42065	3130.1375
3192.73424	3146.2375
3195.04645	3138.1375
3197.35725	3145.3375
3199.66667	3135.8375
3201.97469	3145.8375
3204.28132	3157.8375
3206.58656	3145.8375
3208.8904	3162.3375
3211.19287	3153.2375
3213.49394	3165.0375
3215.79363	3172.9375
3218.09193	3182.6375
3220.38884	3181.8375
3222.68438	3180.9375
3224.97853	3179.4375
3227.2713	3176.9375
3229.56269	3182.2375
3231.8527	3174.7375
3234.14133	3178.4375
3236.42858	3161.2375
3238.71446	3166.3375
3240.99896	3167.3375
3243.28209	3168.8375
3245.56384	3160.3375
3247.84423	3158.1375
3250.12324	3158.7375
3252.40088	3163.4375
3254.67715	3156.6375
3256.95205	3142.6375
3259.22558	3154.2375
3261.49775	3149.2375
3263.76855	3145.3375
3266.03799	3124.9375
3268.30606	3122.7375
3270.57277	3133.6375
3272.83812	3123.7375
3275.10211	3106.8375
3277.36474	3109.6375
3279.62601	3116.8375
3281.88593	3103.4375
3284.14448	3123.9375
3286.40168	3116.9375
3288.65753	3120.2375
3290.91202	3109.9375
3293.16516	3094.8375
3295.41695	3083.7375
3297.66738	3067.2375
3299.91647	3049.9375
3302.16421	3031.0375
3304.4106	3016.3375
3306.65564	2999.6375
3308.89933	2973.5375
3311.14169	2960.8375
3313.38269	2944.0375
3315.62236	2907.9375
3317.86068	2891.8375
3320.09766	2869.7375
3322.3333	2842.1375
3324.5676	2831.7375
3326.80056	2794.6375
3329.03219	2781.6375
3331.26248	0.6375
3333.49143	-1.6625
3335.71905	-1.8625
