Data from AgNPs_FTO_APTES_UA_2uM_CRN_50uM_R6G_10uM_NaF_0.1M_Addition_RamanShift__44__15-27-35-287.txt Node

Date: Wed Feb 02 15:27:35 GMT 2022
User: TCL
Spectrometer: QEP01345
Trigger mode: 4
Integration Time (sec): 7.000000E0
Scans to average: 10
Electric dark correction enabled: true
Nonlinearity correction enabled: false
Boxcar width: 0
XAxis mode: Raman Shifts
Number of Pixels in Spectrum: 1044
>>>>>Begin Spectral Data<<<<<
46.04893	-0.1625
50.45542	0.1375
54.85868	-1.1625
59.25871	-1.1625
63.6555	79.8375
68.04907	86.5375
72.43941	91.3375
76.82654	99.2375
81.21044	97.5375
85.59113	106.9375
89.96862	107.0375
94.34289	112.5375
98.71396	116.3375
103.08183	122.0375
107.4465	121.6375
111.80798	125.5375
116.16626	128.8375
120.52136	130.9375
124.87327	138.9375
129.222	140.9375
133.56755	153.6375
137.90993	158.8375
142.24913	179.4375
146.58517	197.7375
150.91804	229.8375
155.24774	273.6375
159.57429	333.8375
163.89768	429.3375
168.21792	562.0375
172.53501	769.7375
176.84895	1062.3375
181.15975	1499.6375
185.46741	2077.5375
189.77193	2864.9375
194.07331	3837.7375
198.37157	4925.4375
202.6667	6087.0375
206.9587	7235.9375
211.24758	8353.5375
215.53334	9481.1375
219.81599	10673.7375
224.09553	11983.9375
228.37195	13418.4375
232.64527	14930.7375
236.91549	16537.1375
241.18261	18171.3375
245.44663	19686.0375
249.70755	21049.2375
253.96539	22302.1375
258.22014	23282.1375
262.4718	24171.0375
266.72039	24820.2375
270.96589	25162.6375
275.20832	25251.4375
279.44768	25291.5375
283.68397	25200.7375
287.91719	25156.2375
292.14735	25179.7375
296.37445	25268.5375
300.59849	25401.2375
304.81948	25515.9375
309.03742	25459.9375
313.25231	25079.3375
317.46415	24444.5375
321.67296	23717.7375
325.87872	23079.1375
330.08145	22753.5375
334.28114	22651.9375
338.47781	22698.8375
342.67145	22863.6375
346.86207	23118.5375
351.04966	23412.9375
355.23424	23676.5375
359.4158	23930.2375
363.59435	24155.4375
367.76989	24270.4375
371.94243	24392.7375
376.11196	24418.2375
380.27849	24379.8375
384.44203	24456.1375
388.60257	24667.1375
392.76012	24963.2375
396.91468	25395.6375
401.06626	25851.7375
405.21485	26114.2375
409.36047	25936.3375
413.50311	25678.4375
417.64277	25512.6375
421.77947	25604.4375
425.9132	25707.7375
430.04396	25882.9375
434.17176	25991.2375
438.2966	26117.4375
442.41849	26423.1375
446.53742	27081.3375
450.6534	27779.5375
454.76644	28368.3375
458.87653	28634.9375
462.98368	28685.0375
467.08789	28528.6375
471.18916	28317.1375
475.2875	28247.6375
479.38291	28372.3375
483.4754	28340.8375
487.56496	27983.2375
491.6516	27279.9375
495.73531	26510.9375
499.81612	26021.0375
503.89401	25898.8375
507.96899	25988.2375
512.04106	25979.4375
516.11023	25772.1375
520.1765	25369.6375
524.23987	24922.5375
528.30034	24498.8375
532.35792	24169.9375
536.41261	23940.1375
540.46441	23733.0375
544.51333	23894.4375
548.55936	24309.2375
552.60252	24964.5375
556.64279	25701.7375
560.6802	26290.0375
564.71473	26828.3375
568.7464	27638.5375
572.7752	28923.4375
576.80114	30363.7375
580.82422	31405.6375
584.84444	32263.9375
588.86181	33131.9375
592.87633	33705.5375
596.888	33055.4375
600.89682	31473.8375
604.9028	30794.9375
608.90594	31562.7375
612.90624	32357.7375
616.90371	29972.7375
620.89834	25832.0375
624.89015	24075.7375
628.87913	24029.3375
632.86528	24322.3375
636.84862	24340.9375
640.82913	23909.0375
644.80683	23296.6375
648.78172	22915.0375
652.75379	22782.3375
656.72306	22941.6375
660.68952	23177.1375
664.65319	23021.6375
668.61405	22694.2375
672.57211	22644.2375
676.52738	22763.5375
680.47986	22777.0375
684.42955	22630.9375
688.37646	22550.2375
692.32058	22655.3375
696.26192	22926.4375
700.20048	23224.5375
704.13626	23497.9375
708.06928	23687.1375
711.99952	23690.9375
715.927	23642.0375
719.85171	23538.3375
723.77365	23357.7375
727.69284	22943.5375
731.60928	22581.3375
735.52295	22388.5375
739.43388	22307.2375
743.34206	22344.0375
747.24749	22504.4375
751.15017	22840.5375
755.05012	23394.9375
758.94733	24219.7375
762.8418	25556.3375
766.73354	27304.4375
770.62254	28708.6375
774.50882	28519.2375
778.39237	26948.9375
782.27321	25073.1375
786.15132	23663.3375
790.02671	22803.5375
793.89938	22338.5375
797.76935	22096.2375
801.6366	22032.1375
805.50115	22013.4375
809.36299	21896.0375
813.22213	21779.7375
817.07857	21745.6375
820.93231	21678.5375
824.78336	21516.4375
828.63172	21314.5375
832.47738	21120.9375
836.32036	21061.9375
840.16066	21029.6375
843.99827	21051.8375
847.8332	21009.9375
851.66546	21000.3375
855.49504	21021.8375
859.32195	21001.2375
863.1462	20975.7375
866.96777	20879.7375
870.78668	20814.6375
874.60293	20795.8375
878.41652	20777.8375
882.22745	20784.7375
886.03573	20832.4375
889.84136	20825.0375
893.64433	20771.0375
897.44466	20716.8375
901.24235	20690.5375
905.0374	20631.8375
908.8298	20645.7375
912.61957	20767.9375
916.40671	21101.7375
920.19121	21552.3375
923.97308	21816.1375
927.75233	21694.2375
931.52895	21222.8375
935.30295	20733.7375
939.07433	20265.7375
942.84309	19899.3375
946.60924	19701.5375
950.37278	19626.5375
954.13371	19609.3375
957.89203	19693.9375
961.64774	19715.1375
965.40086	19766.0375
969.15137	19619.6375
972.89929	19477.8375
976.64461	19294.4375
980.38733	19249.9375
984.12747	19227.8375
987.86502	19308.6375
991.59999	19356.4375
995.33237	19480.3375
999.06217	19737.8375
1002.78939	20050.4375
1006.51404	20346.8375
1010.23611	20703.0375
1013.95561	20965.8375
1017.67255	20998.3375
1021.38692	20923.9375
1025.09872	20586.1375
1028.80796	20318.9375
1032.51465	20287.1375
1036.21877	20376.2375
1039.92035	20516.6375
1043.61937	20616.6375
1047.31584	20709.0375
1051.00976	20774.9375
1054.70114	20905.1375
1058.38998	21173.2375
1062.07627	21563.9375
1065.76003	21991.8375
1069.44126	22364.2375
1073.11995	22698.7375
1076.79611	22981.3375
1080.46974	23044.7375
1084.14085	23137.0375
1087.80943	23310.4375
1091.47549	23625.7375
1095.13903	23805.8375
1098.80005	23559.0375
1102.45857	22829.6375
1106.11456	22119.3375
1109.76805	21730.2375
1113.41903	21652.7375
1117.06751	21799.5375
1120.71348	22014.6375
1124.35696	22317.4375
1127.99793	22656.3375
1131.63641	22921.7375
1135.2724	22917.6375
1138.90589	22949.9375
1142.5369	23161.1375
1146.16542	23533.2375
1149.79145	24065.7375
1153.415	24546.9375
1157.03607	25111.8375
1160.65467	26119.3375
1164.27079	27650.1375
1167.88443	29389.4375
1171.49561	31166.0375
1175.10432	33032.9375
1178.71056	35395.2375
1182.31434	37542.2375
1185.91565	38689.1375
1189.51451	38750.6375
1193.11091	38218.0375
1196.70485	37219.0375
1200.29634	35873.9375
1203.88538	35049.8375
1207.47197	34872.3375
1211.05612	34963.5375
1214.63782	34341.5375
1218.21708	32985.5375
1221.79391	31290.1375
1225.36829	29946.1375
1228.94024	29148.0375
1232.50976	28638.8375
1236.07685	28336.8375
1239.6415	28212.5375
1243.20374	28281.1375
1246.76355	28611.1375
1250.32093	29072.7375
1253.8759	29736.8375
1257.42845	30673.0375
1260.97859	31646.8375
1264.52631	32619.6375
1268.07163	33558.2375
1271.61453	34527.8375
1275.15503	35568.4375
1278.69312	36963.1375
1282.22882	38457.2375
1285.76211	40294.8375
1289.29301	42477.6375
1292.82151	45142.7375
1296.34761	48337.6375
1299.87133	51598.9375
1303.39266	54521.3375
1306.9116	56436.8375
1310.42815	57489.3375
1313.94233	57651.9375
1317.45412	57393.1375
1320.96354	57193.2375
1324.47058	57368.8375
1327.97525	57888.2375
1331.47754	58197.5375
1334.97747	58217.1375
1338.47502	57829.7375
1341.97022	57036.5375
1345.46305	55900.9375
1348.95352	54564.6375
1352.44163	53308.0375
1355.92738	52709.8375
1359.41078	52999.5375
1362.89183	53314.7375
1366.37053	52230.8375
1369.84688	48972.4375
1373.32088	44609.2375
1376.79254	41540.5375
1380.26186	40778.1375
1383.72883	41418.9375
1387.19347	42178.2375
1390.65578	42319.5375
1394.11575	42443.2375
1397.57339	42840.7375
1401.0287	43465.4375
1404.48168	43837.2375
1407.93234	43179.0375
1411.38068	41562.5375
1414.82669	39338.2375
1418.27039	36914.9375
1421.71177	34750.2375
1425.15083	33119.7375
1428.58758	32410.0375
1432.02203	32717.2375
1435.45416	33786.8375
1438.88399	35173.9375
1442.31151	36350.5375
1445.73673	37149.9375
1449.15965	37894.3375
1452.58027	38501.0375
1455.9986	38773.3375
1459.41463	39061.5375
1462.82837	39394.4375
1466.23982	39947.5375
1469.64898	40310.4375
1473.05586	40389.6375
1476.46045	40182.7375
1479.86276	39686.2375
1483.26279	38975.9375
1486.66054	38639.7375
1490.05602	38742.2375
1493.44922	39087.6375
1496.84016	39653.1375
1500.22882	40465.4375
1503.61521	41440.8375
1506.99934	42568.5375
1510.38121	43480.4375
1513.76081	43817.3375
1517.13816	43606.9375
1520.51324	43174.4375
1523.88607	43309.0375
1527.25665	43798.9375
1530.62498	44124.7375
1533.99105	43966.8375
1537.35488	43173.6375
1540.71647	41735.4375
1544.07581	40046.8375
1547.4329	38295.0375
1550.78776	36943.7375
1554.14038	35984.0375
1557.49077	35521.0375
1560.83892	35232.2375
1564.18484	35143.4375
1567.52853	35233.6375
1570.86999	35757.4375
1574.20922	36849.7375
1577.54624	38059.6375
1580.88103	38969.7375
1584.2136	39922.2375
1587.54395	41344.5375
1590.87208	43228.6375
1594.19801	45214.6375
1597.52172	46766.0375
1600.84321	46389.0375
1604.16251	43627.8375
1607.47959	39735.8375
1610.79447	35915.7375
1614.10715	32564.1375
1617.41763	29946.2375
1620.7259	28012.6375
1624.03199	27075.8375
1627.33587	27077.6375
1630.63757	28107.3375
1633.93707	30369.1375
1637.23439	34087.6375
1640.52951	39355.4375
1643.82246	45483.6375
1647.11321	50198.2375
1650.40179	51041.6375
1653.68819	47207.9375
1656.97241	40556.9375
1660.25446	33788.9375
1663.53433	28475.3375
1666.81203	24905.5375
1670.08756	22580.2375
1673.36092	21114.8375
1676.63211	20171.3375
1679.90115	19519.8375
1683.16801	19026.9375
1686.43272	18718.8375
1689.69527	18460.6375
1692.95567	18184.0375
1696.2139	18122.1375
1699.46999	18007.8375
1702.72392	17865.8375
1705.97571	17751.4375
1709.22535	17651.2375
1712.47284	17572.6375
1715.71819	17525.4375
1718.96139	17429.1375
1722.20246	17331.9375
1725.44139	17220.8375
1728.67818	17079.5375
1731.91284	17011.0375
1735.14537	16874.5375
1738.37576	16801.1375
1741.60403	16703.8375
1744.83017	16620.2375
1748.05418	16591.4375
1751.27607	16537.8375
1754.49584	16492.5375
1757.71349	16476.9375
1760.92903	16486.2375
1764.14244	16423.0375
1767.35375	16373.7375
1770.56294	16324.7375
1773.77002	16301.0375
1776.97499	16218.1375
1780.17785	16170.8375
1783.37861	16122.3375
1786.57727	16100.1375
1789.77382	16042.5375
1792.96828	15986.9375
1796.16064	15951.6375
1799.3509	15898.2375
1802.53907	15867.6375
1805.72514	15760.5375
1808.90913	15753.7375
1812.09102	15721.2375
1815.27083	15683.8375
1818.44856	15646.9375
1821.6242	15622.5375
1824.79776	15610.2375
1827.96924	15589.2375
1831.13864	15555.9375
1834.30597	15589.4375
1837.47122	15577.6375
1840.6344	15572.2375
1843.7955	15591.6375
1846.95454	15551.3375
1850.11151	15520.4375
1853.26642	15520.7375
1856.41926	15490.7375
1859.57004	15485.0375
1862.71876	15436.5375
1865.86542	15391.5375
1869.01003	15404.3375
1872.15258	15360.8375
1875.29308	15334.5375
1878.43152	15280.3375
1881.56792	15323.7375
1884.70227	15256.0375
1887.83457	15225.7375
1890.96482	15214.8375
1894.09304	15169.2375
1897.21921	15154.3375
1900.34335	15113.6375
1903.46544	15105.1375
1906.58551	15082.7375
1909.70353	15049.5375
1912.81953	15006.8375
1915.93349	14964.0375
1919.04543	14935.6375
1922.15534	14898.1375
1925.26322	14853.1375
1928.36908	14830.5375
1931.47292	14765.7375
1934.57473	14709.0375
1937.67453	14696.0375
1940.77232	14639.0375
1943.86808	14606.6375
1946.96184	14581.1375
1950.05358	14527.4375
1953.14331	14475.4375
1956.23103	14438.8375
1959.31675	14401.4375
1962.40046	14338.8375
1965.48217	14287.3375
1968.56188	14226.4375
1971.63959	14159.0375
1974.7153	14164.9375
1977.78901	14084.6375
1980.86073	14057.0375
1983.93046	13979.1375
1986.99819	13922.0375
1990.06394	13911.8375
1993.1277	13852.7375
1996.18947	13791.9375
1999.24925	13742.0375
2002.30706	13700.6375
2005.36288	13650.6375
2008.41672	13624.1375
2011.46859	13574.9375
2014.51848	13515.2375
2017.56639	13486.8375
2020.61233	13421.3375
2023.6563	13411.1375
2026.6983	13386.6375
2029.73833	13356.7375
2032.7764	13335.7375
2035.8125	13313.5375
2038.84664	13249.3375
2041.87881	13255.4375
2044.90903	13226.5375
2047.93729	13163.1375
2050.96359	13203.8375
2053.98794	13132.6375
2057.01034	13128.9375
2060.03078	13141.8375
2063.04927	13083.9375
2066.06582	13085.0375
2069.08042	13071.8375
2072.09307	13079.8375
2075.10378	13053.0375
2078.11255	13023.6375
2081.11938	13033.9375
2084.12426	12998.3375
2087.12722	12995.5375
2090.12824	12969.9375
2093.12732	12971.8375
2096.12447	13003.1375
2099.11969	13011.7375
2102.11299	12988.6375
2105.10435	13003.0375
2108.09379	13023.4375
2111.08131	12992.1375
2114.0669	12983.1375
2117.05057	12991.3375
2120.03233	13030.8375
2123.01216	13024.2375
2125.99008	13010.4375
2128.96609	13026.0375
2131.94018	13039.3375
2134.91236	12990.7375
2137.88263	12985.2375
2140.851	12993.1375
2143.81746	12975.8375
2146.78201	13004.2375
2149.74466	12980.7375
2152.7054	12973.7375
2155.66425	12950.1375
2158.6212	12950.0375
2161.57625	12952.8375
2164.52941	12941.3375
2167.48067	12931.2375
2170.43004	12904.4375
2173.37752	12885.9375
2176.32311	12889.3375
2179.26681	12877.3375
2182.20863	12872.5375
2185.14856	12869.0375
2188.08661	12880.2375
2191.02278	12870.4375
2193.95707	12838.1375
2196.88948	12836.5375
2199.82001	12806.5375
2202.74867	12778.0375
2205.67545	12769.9375
2208.60037	12738.3375
2211.52341	12709.4375
2214.44458	12680.4375
2217.36388	12681.3375
2220.28132	12656.0375
2223.1969	12637.9375
2226.11061	12631.0375
2229.02246	12575.3375
2231.93245	12579.2375
2234.84058	12527.7375
2237.74686	12498.9375
2240.65128	12490.7375
2243.55385	12470.3375
2246.45456	12468.1375
2249.35343	12429.0375
2252.25044	12407.2375
2255.14561	12360.3375
2258.03893	12357.1375
2260.93041	12304.3375
2263.82004	12248.3375
2266.70783	12200.7375
2269.59378	12176.5375
2272.4779	12153.1375
2275.36017	12113.5375
2278.24061	12086.0375
2281.11922	12040.1375
2283.996	12006.3375
2286.87094	12011.2375
2289.74405	11978.8375
2292.61534	11948.5375
2295.4848	11961.7375
2298.35243	11947.5375
2301.21824	11946.0375
2304.08223	11921.4375
2306.94439	11898.7375
2309.80474	11878.2375
2312.66327	11899.7375
2315.51999	11878.6375
2318.37489	11870.8375
2321.22797	11836.8375
2324.07925	11814.2375
2326.92871	11816.4375
2329.77637	11787.5375
2332.62222	11793.7375
2335.46626	11758.8375
2338.3085	11779.3375
2341.14893	11748.0375
2343.98756	11747.9375
2346.8244	11730.3375
2349.65943	11737.0375
2352.49267	11719.7375
2355.32411	11702.1375
2358.15376	11728.4375
2360.98161	11745.6375
2363.80768	11719.4375
2366.63195	11705.2375
2369.45444	11693.6375
2372.27514	11667.1375
2375.09405	11662.3375
2377.91118	11629.0375
2380.72652	11588.8375
2383.54009	11595.1375
2386.35187	11588.6375
2389.16188	11537.2375
2391.97011	11483.5375
2394.77657	11451.9375
2397.58125	11465.5375
2400.38416	11450.0375
2403.18529	11412.2375
2405.98466	11392.1375
2408.78226	11376.6375
2411.57809	11367.1375
2414.37216	11370.9375
2417.16446	11371.3375
2419.955	11316.7375
2422.74378	11358.9375
2425.5308	11335.0375
2428.31606	11332.4375
2431.09956	11312.9375
2433.88131	11298.4375
2436.6613	11300.1375
2439.43954	11266.9375
2442.21603	11295.4375
2444.99077	11254.6375
2447.76377	11233.3375
2450.53501	11266.9375
2453.30451	11264.3375
2456.07226	11223.0375
2458.83827	11228.7375
2461.60254	11230.0375
2464.36507	11249.6375
2467.12586	11208.1375
2469.88492	11219.5375
2472.64224	11193.9375
2475.39782	11240.1375
2478.15167	11227.4375
2480.90379	11200.8375
2483.65417	11218.6375
2486.40283	11192.8375
2489.14976	11195.5375
2491.89497	11198.3375
2494.63845	11210.4375
2497.3802	11189.3375
2500.12024	11195.2375
2502.85855	11201.6375
2505.59514	11200.4375
2508.33002	11176.1375
2511.06318	11214.2375
2513.79462	11190.1375
2516.52435	11163.1375
2519.25237	11164.3375
2521.97867	11131.5375
2524.70327	11143.4375
2527.42616	11118.4375
2530.14734	11130.3375
2532.86681	11113.8375
2535.58458	11098.7375
2538.30065	11062.7375
2541.01501	11065.6375
2543.72768	11051.8375
2546.43864	11035.0375
2549.14791	11025.4375
2551.85548	11021.4375
2554.56136	11024.7375
2557.26554	11019.6375
2559.96803	10995.5375
2562.66883	10971.9375
2565.36794	10983.5375
2568.06536	10964.2375
2570.7611	10945.3375
2573.45514	10957.0375
2576.14751	10949.5375
2578.83819	10919.1375
2581.52719	10926.2375
2584.21451	10912.2375
2586.90015	10917.3375
2589.58411	10883.2375
2592.2664	10869.5375
2594.94701	10878.1375
2597.62594	10902.8375
2600.30321	10846.8375
2602.9788	10845.1375
2605.65273	10826.7375
2608.32498	10869.6375
2610.99557	10843.4375
2613.66449	10870.1375
2616.33175	10853.5375
2618.99734	10878.6375
2621.66128	10849.9375
2624.32355	10830.5375
2626.98416	10824.9375
2629.64311	10815.4375
2632.30041	10837.7375
2634.95605	10830.2375
2637.61004	10805.0375
2640.26238	10788.6375
2642.91306	10787.3375
2645.56209	10809.3375
2648.20948	10788.6375
2650.85521	10814.7375
2653.4993	10799.0375
2656.14175	10797.3375
2658.78255	10820.6375
2661.42171	10819.5375
2664.05923	10850.9375
2666.6951	10848.2375
2669.32934	10867.3375
2671.96194	10835.9375
2674.59291	10867.4375
2677.22224	10818.0375
2679.84993	10841.4375
2682.476	10812.8375
2685.10043	10818.7375
2687.72324	10841.0375
2690.34441	10805.7375
2692.96396	10849.0375
2695.58188	10834.5375
2698.19818	10825.8375
2700.81285	10830.2375
2703.4259	10829.9375
2706.03733	10883.9375
2708.64714	10860.7375
2711.25533	10852.0375
2713.86191	10840.6375
2716.46687	10843.3375
2719.07021	10860.8375
2721.67194	10892.9375
2724.27206	10863.0375
2726.87057	10892.0375
2729.46747	10901.1375
2732.06276	10890.6375
2734.65644	10890.5375
2737.24852	10879.7375
2739.83899	10866.1375
2742.42786	10865.3375
2745.01513	10838.0375
2747.60079	10827.4375
2750.18486	10840.7375
2752.76733	10854.8375
2755.3482	10839.1375
2757.92747	10878.5375
2760.50515	10860.2375
2763.08123	10866.3375
2765.65573	10837.2375
2768.22863	10855.3375
2770.79994	10825.7375
2773.36967	10826.7375
2775.9378	10804.1375
2778.50435	10812.3375
2781.06932	10808.3375
2783.6327	10794.6375
2786.1945	10801.2375
2788.75471	10795.5375
2791.31335	10773.3375
2793.87041	10782.2375
2796.42589	10745.1375
2798.97979	10743.8375
2801.53212	10733.8375
2804.08288	10730.4375
2806.63206	10679.7375
2809.17967	10677.8375
2811.72571	10649.3375
2814.27018	10654.8375
2816.81308	10590.2375
2819.35442	10605.4375
2821.89419	10576.5375
2824.43239	10554.2375
2826.96904	10549.3375
2829.50412	10564.2375
2832.03763	10529.5375
2834.56959	10533.6375
2837.1	10534.2375
2839.62884	10514.8375
2842.15613	10541.6375
2844.68186	10573.3375
2847.20604	10617.7375
2849.72867	10611.9375
2852.24974	10611.7375
2854.76927	10592.9375
2857.28724	10575.0375
2859.80367	10552.2375
2862.31855	10549.3375
2864.83189	10529.5375
2867.34368	10512.0375
2869.85393	10511.8375
2872.36264	10486.2375
2874.8698	10483.4375
2877.37543	10470.0375
2879.87952	10449.8375
2882.38207	10464.1375
2884.88308	10452.1375
2887.38256	10446.5375
2889.88051	10449.8375
2892.37692	10468.4375
2894.8718	10451.9375
2897.36515	10470.1375
2899.85698	10452.5375
2902.34727	10490.9375
2904.83604	10486.5375
2907.32328	10497.6375
2909.809	10516.1375
2912.29319	10477.5375
2914.77587	10498.4375
2917.25702	10483.7375
2919.73665	10466.7375
2922.21476	10496.4375
2924.69136	10485.2375
2927.16644	10482.1375
2929.64	10505.6375
2932.11205	10491.8375
2934.58258	10476.7375
2937.05161	10465.6375
2939.51912	10471.1375
2941.98513	10428.3375
2944.44962	10412.8375
2946.91261	10332.1375
2949.37409	10346.1375
2951.83407	10331.0375
2954.29254	10310.6375
2956.74951	10274.7375
2959.20498	10285.2375
2961.65895	10263.3375
2964.11142	10232.2375
2966.56239	10209.6375
2969.01186	10207.2375
2971.45984	10146.1375
2973.90632	10137.8375
2976.35131	10108.7375
2978.7948	10082.8375
2981.23681	10058.1375
2983.67732	10040.9375
2986.11635	10021.5375
2988.55388	9980.0375
2990.98993	9963.9375
2993.4245	9931.1375
2995.85758	9906.1375
2998.28917	9901.2375
3000.71928	9852.8375
3003.14791	9823.1375
3005.57506	9801.8375
3008.00073	9763.1375
3010.42493	9761.7375
3012.84764	9743.8375
3015.26888	9728.5375
3017.68865	9696.8375
3020.10694	9680.9375
3022.52376	9657.4375
3024.9391	9639.3375
3027.35298	9633.6375
3029.76539	9601.7375
3032.17632	9638.3375
3034.5858	9587.7375
3036.9938	9624.7375
3039.40034	9577.3375
3041.80542	9556.0375
3044.20903	9549.5375
3046.61118	9537.7375
3049.01187	9512.7375
3051.4111	9515.8375
3053.80888	9453.6375
3056.20519	9437.6375
3058.60005	9413.1375
3060.99345	9378.8375
3063.3854	9374.2375
3065.7759	9343.1375
3068.16494	9316.3375
3070.55254	9267.4375
3072.93868	9239.1375
3075.32338	9216.2375
3077.70662	9196.2375
3080.08842	9154.7375
3082.46878	9143.5375
3084.84769	9136.9375
3087.22515	9137.1375
3089.60118	9122.8375
3091.97576	9108.6375
3094.3489	9092.4375
3096.72061	9090.1375
3099.09087	9078.8375
3101.4597	9052.0375
3103.82709	9064.6375
3106.19305	9028.8375
3108.55757	9046.9375
3110.92066	8981.3375
3113.28232	8960.7375
3115.64255	8942.6375
3118.00134	8913.2375
3120.35871	8889.3375
3122.71466	8855.5375
3125.06917	8871.0375
3127.42226	8844.3375
3129.77393	8835.9375
3132.12417	8817.3375
3134.47299	8818.1375
3136.82039	8815.2375
3139.16636	8811.2375
3141.51092	8807.1375
3143.85406	8807.3375
3146.19579	8791.5375
3148.53609	8805.8375
3150.87499	8807.1375
3153.21246	8793.1375
3155.54853	8818.4375
3157.88318	8772.9375
3160.21642	8796.4375
3162.54826	8778.8375
3164.87868	8773.2375
3167.2077	8757.8375
3169.5353	8774.4375
3171.86151	8762.4375
3174.18631	8776.5375
3176.5097	8734.5375
3178.83169	8748.4375
3181.15228	8729.8375
3183.47147	8715.8375
3185.78926	8690.9375
3188.10565	8724.3375
3190.42065	8674.0375
3192.73424	8690.1375
3195.04645	8667.4375
3197.35725	8658.7375
3199.66667	8639.9375
3201.97469	8645.3375
3204.28132	8594.2375
3206.58656	8600.8375
3208.8904	8609.5375
3211.19287	8601.6375
3213.49394	8610.3375
3215.79363	8613.7375
3218.09193	8607.6375
3220.38884	8593.4375
3222.68438	8617.2375
3224.97853	8606.9375
3227.2713	8586.0375
3229.56269	8581.2375
3231.8527	8580.7375
3234.14133	8564.6375
3236.42858	8536.7375
3238.71446	8544.9375
3240.99896	8508.7375
3243.28209	8524.2375
3245.56384	8520.6375
3247.84423	8484.3375
3250.12324	8459.7375
3252.40088	8458.6375
3254.67715	8426.6375
3256.95205	8432.2375
3259.22558	8423.4375
3261.49775	8377.1375
3263.76855	8390.8375
3266.03799	8330.8375
3268.30606	8340.1375
3270.57277	8302.9375
3272.83812	8288.3375
3275.10211	8290.3375
3277.36474	8265.4375
3279.62601	8291.9375
3281.88593	8265.0375
3284.14448	8276.2375
3286.40168	8264.1375
3288.65753	8265.1375
3290.91202	8232.0375
3293.16516	8217.7375
3295.41695	8179.0375
3297.66738	8131.2375
3299.91647	8111.2375
3302.16421	8035.4375
3304.4106	8000.8375
3306.65564	7952.3375
3308.89933	7898.5375
3311.14169	7860.3375
3313.38269	7798.8375
3315.62236	7750.5375
3317.86068	7679.3375
3320.09766	7578.1375
3322.3333	7502.5375
3324.5676	7504.6375
3326.80056	7373.6375
3329.03219	7345.4375
3331.26248	2.5375
3333.49143	0.4375
3335.71905	-1.1625
