Data from AgNPs_FTO_APTES_UA_2uM_CRN_0uM_R6G_10uM_NaF_0.1M_Addition_RamanShift__27__10-35-54-948.txt Node

Date: Wed Feb 02 10:35:54 GMT 2022
User: TCL
Spectrometer: QEP01345
Trigger mode: 4
Integration Time (sec): 7.000000E0
Scans to average: 10
Electric dark correction enabled: true
Nonlinearity correction enabled: false
Boxcar width: 0
XAxis mode: Raman Shifts
Number of Pixels in Spectrum: 1044
>>>>>Begin Spectral Data<<<<<
46.04893	0.0875
50.45542	-0.6125
54.85868	-0.1125
59.25871	2.1875
63.6555	29.7875
68.04907	29.5875
72.43941	29.5875
76.82654	39.4875
81.21044	38.8875
85.59113	41.9875
89.96862	44.7875
94.34289	48.8875
98.71396	46.8875
103.08183	49.7875
107.4465	51.9875
111.80798	52.2875
116.16626	51.3875
120.52136	50.7875
124.87327	48.0875
129.222	50.0875
133.56755	50.6875
137.90993	49.5875
142.24913	52.3875
146.58517	57.0875
150.91804	59.0875
155.24774	69.0875
159.57429	75.0875
163.89768	87.6875
168.21792	109.9875
172.53501	140.4875
176.84895	187.4875
181.15975	247.3875
185.46741	333.2875
189.77193	444.1875
194.07331	585.6875
198.37157	740.1875
202.6667	905.8875
206.9587	1072.7875
211.24758	1210.5875
215.53334	1366.5875
219.81599	1533.6875
224.09553	1709.8875
228.37195	1917.6875
232.64527	2135.1875
236.91549	2381.1875
241.18261	2582.3875
245.44663	2781.6875
249.70755	2927.4875
253.96539	3051.1875
258.22014	3146.6875
262.4718	3208.4875
266.72039	3260.5875
270.96589	3263.9875
275.20832	3233.2875
279.44768	3179.0875
283.68397	3111.4875
287.91719	3039.4875
292.14735	3014.3875
296.37445	3013.9875
300.59849	3083.7875
304.81948	3184.4875
309.03742	3258.5875
313.25231	3244.0875
317.46415	3100.3875
321.67296	2876.4875
325.87872	2701.7875
330.08145	2601.5875
334.28114	2596.6875
338.47781	2627.7875
342.67145	2693.2875
346.86207	2811.6875
351.04966	2976.6875
355.23424	3160.4875
359.4158	3322.6875
363.59435	3415.0875
367.76989	3435.2875
371.94243	3432.1875
376.11196	3439.9875
380.27849	3419.5875
384.44203	3365.2875
388.60257	3306.1875
392.76012	3274.4875
396.91468	3285.1875
401.06626	3354.3875
405.21485	3418.7875
409.36047	3379.8875
413.50311	3227.4875
417.64277	3083.3875
421.77947	3006.6875
425.9132	2967.8875
430.04396	2962.5875
434.17176	2985.8875
438.2966	3016.2875
442.41849	3102.9875
446.53742	3191.0875
450.6534	3295.4875
454.76644	3356.6875
458.87653	3378.3875
462.98368	3336.5875
467.08789	3275.4875
471.18916	3215.0875
475.2875	3129.7875
479.38291	3081.9875
483.4754	3043.6875
487.56496	3005.1875
491.6516	3001.2875
495.73531	2981.4875
499.81612	2969.3875
503.89401	2994.3875
507.96899	3028.0875
512.04106	3112.1875
516.11023	3176.3875
520.1765	3238.1875
524.23987	3228.5875
528.30034	3163.8875
532.35792	3070.1875
536.41261	2979.9875
540.46441	2884.9875
544.51333	2859.3875
548.55936	2845.4875
552.60252	2891.9875
556.64279	2958.7875
560.6802	2988.0875
564.71473	3004.4875
568.7464	3091.9875
572.7752	3133.5875
576.80114	3040.7875
580.82422	2920.5875
584.84444	2869.5875
588.86181	2890.4875
592.87633	2908.1875
596.888	2940.7875
600.89682	3017.8875
604.9028	3302.5875
608.90594	4079.8875
612.90624	5218.6875
616.90371	5244.2875
620.89834	3886.0875
624.89015	3128.1875
628.87913	2954.0875
632.86528	2912.2875
636.84862	2898.4875
640.82913	2886.9875
644.80683	2814.5875
648.78172	2766.8875
652.75379	2822.0875
656.72306	2998.2875
660.68952	3175.5875
664.65319	3101.2875
668.61405	2855.7875
672.57211	2740.6875
676.52738	2731.7875
680.47986	2735.5875
684.42955	2736.0875
688.37646	2754.2875
692.32058	2799.8875
696.26192	2853.2875
700.20048	2939.7875
704.13626	3024.1875
708.06928	3019.9875
711.99952	2939.4875
715.927	2864.4875
719.85171	2834.1875
723.77365	2840.9875
727.69284	2801.3875
731.60928	2785.1875
735.52295	2790.4875
739.43388	2780.2875
743.34206	2806.3875
747.24749	2796.8875
751.15017	2800.2875
755.05012	2858.6875
758.94733	2968.0875
762.8418	3190.3875
766.73354	3608.0875
770.62254	4118.9875
774.50882	4492.0875
778.39237	4458.4875
782.27321	3960.2875
786.15132	3408.8875
790.02671	3093.4875
793.89938	2986.7875
797.76935	2943.7875
801.6366	2928.6875
805.50115	2928.9875
809.36299	2939.6875
813.22213	2930.6875
817.07857	2933.3875
820.93231	2922.0875
824.78336	2892.1875
828.63172	2897.8875
832.47738	2910.9875
836.32036	2912.0875
840.16066	2894.0875
843.99827	2868.7875
847.8332	2866.6875
851.66546	2880.2875
855.49504	2885.6875
859.32195	2860.0875
863.1462	2815.9875
866.96777	2788.5875
870.78668	2778.4875
874.60293	2782.3875
878.41652	2791.8875
882.22745	2825.5875
886.03573	2832.8875
889.84136	2849.7875
893.64433	2829.6875
897.44466	2824.4875
901.24235	2826.5875
905.0374	2803.5875
908.8298	2794.6875
912.61957	2800.8875
916.40671	2826.9875
920.19121	2858.3875
923.97308	2894.0875
927.75233	2927.6875
931.52895	2962.5875
935.30295	2947.3875
939.07433	2868.2875
942.84309	2789.7875
946.60924	2731.9875
950.37278	2705.2875
954.13371	2664.1875
957.89203	2628.1875
961.64774	2610.9875
965.40086	2591.5875
969.15137	2568.6875
972.89929	2559.8875
976.64461	2547.6875
980.38733	2540.5875
984.12747	2522.9875
987.86502	2523.0875
991.59999	2528.7875
995.33237	2548.3875
999.06217	2568.3875
1002.78939	2590.8875
1006.51404	2613.3875
1010.23611	2655.3875
1013.95561	2703.9875
1017.67255	2697.5875
1021.38692	2683.7875
1025.09872	2655.2875
1028.80796	2655.2875
1032.51465	2701.1875
1036.21877	2827.5875
1039.92035	2983.3875
1043.61937	3061.5875
1047.31584	2996.5875
1051.00976	2884.8875
1054.70114	2795.2875
1058.38998	2714.7875
1062.07627	2682.1875
1065.76003	2640.7875
1069.44126	2626.0875
1073.11995	2658.2875
1076.79611	2704.4875
1080.46974	2772.3875
1084.14085	2823.7875
1087.80943	2867.0875
1091.47549	2854.7875
1095.13903	2769.3875
1098.80005	2662.6875
1102.45857	2562.4875
1106.11456	2557.3875
1109.76805	2585.6875
1113.41903	2652.7875
1117.06751	2759.8875
1120.71348	2876.0875
1124.35696	3016.0875
1127.99793	3144.0875
1131.63641	3134.3875
1135.2724	2953.4875
1138.90589	2783.1875
1142.5369	2670.2875
1146.16542	2599.1875
1149.79145	2555.9875
1153.415	2550.8875
1157.03607	2598.3875
1160.65467	2661.6875
1164.27079	2748.2875
1167.88443	2876.0875
1171.49561	3092.1875
1175.10432	3463.1875
1178.71056	3928.1875
1182.31434	4276.2875
1185.91565	4360.5875
1189.51451	4291.3875
1193.11091	4118.9875
1196.70485	3870.2875
1200.29634	3632.9875
1203.88538	3425.4875
1207.47197	3172.4875
1211.05612	2957.1875
1214.63782	2837.4875
1218.21708	2763.9875
1221.79391	2745.2875
1225.36829	2741.8875
1228.94024	2726.0875
1232.50976	2731.9875
1236.07685	2741.5875
1239.6415	2777.4875
1243.20374	2821.7875
1246.76355	2843.5875
1250.32093	2903.0875
1253.8759	2994.1875
1257.42845	3102.9875
1260.97859	3220.1875
1264.52631	3330.1875
1268.07163	3431.0875
1271.61453	3523.5875
1275.15503	3559.4875
1278.69312	3542.3875
1282.22882	3537.4875
1285.76211	3610.3875
1289.29301	3701.9875
1292.82151	3822.9875
1296.34761	3938.3875
1299.87133	4083.1875
1303.39266	4346.7875
1306.9116	4726.0875
1310.42815	5173.3875
1313.94233	5416.2875
1317.45412	5286.4875
1320.96354	4884.2875
1324.47058	4428.7875
1327.97525	4049.6875
1331.47754	3830.0875
1334.97747	3753.0875
1338.47502	3777.2875
1341.97022	3872.6875
1345.46305	4040.2875
1348.95352	4377.5875
1352.44163	4880.5875
1355.92738	5553.6875
1359.41078	6404.8875
1362.89183	7119.4875
1366.37053	6993.1875
1369.84688	6096.7875
1373.32088	5119.1875
1376.79254	4436.5875
1380.26186	4014.5875
1383.72883	3730.3875
1387.19347	3530.3875
1390.65578	3326.4875
1394.11575	3164.9875
1397.57339	3039.1875
1401.0287	2979.6875
1404.48168	2967.7875
1407.93234	2962.0875
1411.38068	2949.1875
1414.82669	2933.6875
1418.27039	2936.8875
1421.71177	2956.7875
1425.15083	2987.2875
1428.58758	3007.1875
1432.02203	3055.0875
1435.45416	3107.7875
1438.88399	3146.8875
1442.31151	3121.1875
1445.73673	3102.1875
1449.15965	3065.1875
1452.58027	2977.6875
1455.9986	2920.0875
1459.41463	2871.4875
1462.82837	2855.7875
1466.23982	2888.6875
1469.64898	2923.3875
1473.05586	2947.0875
1476.46045	2968.2875
1479.86276	2994.8875
1483.26279	3038.4875
1486.66054	3081.4875
1490.05602	3131.2875
1493.44922	3229.0875
1496.84016	3450.4875
1500.22882	3838.8875
1503.61521	4355.3875
1506.99934	4960.5875
1510.38121	5522.6875
1513.76081	5844.4875
1517.13816	5571.5875
1520.51324	4849.9875
1523.88607	4091.0875
1527.25665	3598.5875
1530.62498	3336.9875
1533.99105	3204.3875
1537.35488	3119.0875
1540.71647	3067.5875
1544.07581	3046.0875
1547.4329	3054.6875
1550.78776	3051.1875
1554.14038	3067.3875
1557.49077	3109.0875
1560.83892	3163.3875
1564.18484	3288.1875
1567.52853	3422.3875
1570.86999	3614.6875
1574.20922	3758.5875
1577.54624	3774.4875
1580.88103	3580.9875
1584.2136	3274.6875
1587.54395	3065.7875
1590.87208	3065.0875
1594.19801	3191.1875
1597.52172	3387.4875
1600.84321	3462.5875
1604.16251	3319.5875
1607.47959	3100.7875
1610.79447	2908.9875
1614.10715	2710.3875
1617.41763	2569.4875
1620.7259	2475.0875
1624.03199	2439.9875
1627.33587	2425.4875
1630.63757	2451.0875
1633.93707	2491.1875
1637.23439	2588.4875
1640.52951	2733.4875
1643.82246	3008.8875
1647.11321	3383.5875
1650.40179	3702.3875
1653.68819	3684.4875
1656.97241	3284.5875
1660.25446	2770.6875
1663.53433	2434.2875
1666.81203	2224.4875
1670.08756	2100.9875
1673.36092	2022.8875
1676.63211	1971.8875
1679.90115	1932.4875
1683.16801	1904.3875
1686.43272	1882.6875
1689.69527	1875.9875
1692.95567	1842.7875
1696.2139	1833.2875
1699.46999	1826.3875
1702.72392	1800.9875
1705.97571	1785.5875
1709.22535	1771.6875
1712.47284	1762.6875
1715.71819	1760.6875
1718.96139	1770.9875
1722.20246	1769.4875
1725.44139	1753.8875
1728.67818	1730.5875
1731.91284	1699.3875
1735.14537	1655.3875
1738.37576	1631.1875
1741.60403	1609.3875
1744.83017	1590.2875
1748.05418	1570.8875
1751.27607	1564.5875
1754.49584	1553.9875
1757.71349	1550.4875
1760.92903	1540.8875
1764.14244	1537.6875
1767.35375	1524.4875
1770.56294	1525.6875
1773.77002	1506.9875
1776.97499	1490.8875
1780.17785	1484.0875
1783.37861	1476.1875
1786.57727	1465.3875
1789.77382	1461.7875
1792.96828	1469.7875
1796.16064	1458.4875
1799.3509	1447.6875
1802.53907	1448.0875
1805.72514	1439.0875
1808.90913	1428.6875
1812.09102	1414.7875
1815.27083	1410.8875
1818.44856	1407.9875
1821.6242	1416.8875
1824.79776	1404.4875
1827.96924	1398.3875
1831.13864	1386.4875
1834.30597	1393.3875
1837.47122	1373.9875
1840.6344	1389.8875
1843.7955	1382.8875
1846.95454	1382.5875
1850.11151	1370.8875
1853.26642	1371.1875
1856.41926	1360.8875
1859.57004	1358.5875
1862.71876	1362.9875
1865.86542	1356.5875
1869.01003	1352.5875
1872.15258	1342.8875
1875.29308	1349.2875
1878.43152	1357.8875
1881.56792	1338.4875
1884.70227	1341.4875
1887.83457	1339.9875
1890.96482	1338.9875
1894.09304	1332.7875
1897.21921	1342.0875
1900.34335	1330.0875
1903.46544	1329.8875
1906.58551	1327.1875
1909.70353	1333.2875
1912.81953	1326.6875
1915.93349	1314.2875
1919.04543	1314.5875
1922.15534	1317.6875
1925.26322	1310.4875
1928.36908	1313.2875
1931.47292	1303.5875
1934.57473	1289.4875
1937.67453	1287.9875
1940.77232	1287.4875
1943.86808	1284.4875
1946.96184	1282.1875
1950.05358	1278.4875
1953.14331	1267.4875
1956.23103	1259.7875
1959.31675	1261.4875
1962.40046	1251.1875
1965.48217	1244.3875
1968.56188	1250.1875
1971.63959	1244.5875
1974.7153	1242.3875
1977.78901	1234.0875
1980.86073	1235.9875
1983.93046	1220.9875
1986.99819	1224.9875
1990.06394	1221.4875
1993.1277	1219.3875
1996.18947	1204.7875
1999.24925	1194.7875
2002.30706	1197.7875
2005.36288	1186.2875
2008.41672	1181.0875
2011.46859	1189.0875
2014.51848	1170.5875
2017.56639	1168.0875
2020.61233	1156.8875
2023.6563	1162.1875
2026.6983	1160.4875
2029.73833	1157.9875
2032.7764	1152.8875
2035.8125	1158.0875
2038.84664	1143.2875
2041.87881	1150.6875
2044.90903	1139.5875
2047.93729	1130.9875
2050.96359	1140.5875
2053.98794	1141.2875
2057.01034	1135.6875
2060.03078	1137.6875
2063.04927	1131.0875
2066.06582	1129.9875
2069.08042	1130.5875
2072.09307	1128.8875
2075.10378	1132.0875
2078.11255	1133.1875
2081.11938	1136.8875
2084.12426	1131.7875
2087.12722	1134.3875
2090.12824	1135.4875
2093.12732	1137.9875
2096.12447	1143.2875
2099.11969	1138.4875
2102.11299	1146.8875
2105.10435	1149.3875
2108.09379	1143.8875
2111.08131	1135.2875
2114.0669	1131.9875
2117.05057	1125.5875
2120.03233	1124.5875
2123.01216	1127.1875
2125.99008	1114.1875
2128.96609	1115.9875
2131.94018	1125.3875
2134.91236	1118.8875
2137.88263	1118.7875
2140.851	1128.2875
2143.81746	1123.9875
2146.78201	1119.6875
2149.74466	1111.3875
2152.7054	1110.5875
2155.66425	1102.7875
2158.6212	1113.5875
2161.57625	1109.7875
2164.52941	1106.8875
2167.48067	1109.7875
2170.43004	1104.5875
2173.37752	1108.4875
2176.32311	1098.8875
2179.26681	1107.2875
2182.20863	1105.3875
2185.14856	1101.8875
2188.08661	1101.0875
2191.02278	1100.2875
2193.95707	1103.9875
2196.88948	1093.3875
2199.82001	1090.3875
2202.74867	1092.9875
2205.67545	1088.3875
2208.60037	1079.9875
2211.52341	1077.9875
2214.44458	1075.6875
2217.36388	1067.8875
2220.28132	1074.2875
2223.1969	1065.8875
2226.11061	1062.9875
2229.02246	1062.8875
2231.93245	1059.7875
2234.84058	1060.8875
2237.74686	1052.3875
2240.65128	1050.8875
2243.55385	1048.1875
2246.45456	1051.8875
2249.35343	1050.1875
2252.25044	1044.6875
2255.14561	1035.9875
2258.03893	1042.2875
2260.93041	1043.0875
2263.82004	1040.1875
2266.70783	1035.9875
2269.59378	1032.0875
2272.4779	1035.8875
2275.36017	1020.6875
2278.24061	1024.2875
2281.11922	1021.1875
2283.996	1014.3875
2286.87094	1014.1875
2289.74405	1015.6875
2292.61534	999.9875
2295.4848	1004.0875
2298.35243	999.1875
2301.21824	995.6875
2304.08223	1001.4875
2306.94439	993.7875
2309.80474	999.1875
2312.66327	993.0875
2315.51999	989.1875
2318.37489	985.7875
2321.22797	984.9875
2324.07925	993.3875
2326.92871	988.6875
2329.77637	990.6875
2332.62222	986.4875
2335.46626	986.2875
2338.3085	978.8875
2341.14893	976.7875
2343.98756	968.1875
2346.8244	971.4875
2349.65943	978.7875
2352.49267	980.8875
2355.32411	981.8875
2358.15376	980.1875
2360.98161	975.1875
2363.80768	979.2875
2366.63195	981.5875
2369.45444	981.6875
2372.27514	990.3875
2375.09405	982.1875
2377.91118	982.7875
2380.72652	975.3875
2383.54009	979.8875
2386.35187	968.9875
2389.16188	960.2875
2391.97011	961.9875
2394.77657	948.4875
2397.58125	953.3875
2400.38416	950.0875
2403.18529	936.3875
2405.98466	938.4875
2408.78226	937.5875
2411.57809	938.1875
2414.37216	939.4875
2417.16446	936.4875
2419.955	939.6875
2422.74378	933.7875
2425.5308	921.9875
2428.31606	932.2875
2431.09956	938.3875
2433.88131	929.5875
2436.6613	936.1875
2439.43954	924.4875
2442.21603	928.1875
2444.99077	935.6875
2447.76377	937.7875
2450.53501	932.1875
2453.30451	926.1875
2456.07226	923.4875
2458.83827	930.3875
2461.60254	926.9875
2464.36507	924.1875
2467.12586	923.2875
2469.88492	918.0875
2472.64224	928.5875
2475.39782	927.2875
2478.15167	926.7875
2480.90379	928.5875
2483.65417	930.6875
2486.40283	926.9875
2489.14976	932.6875
2491.89497	935.6875
2494.63845	938.2875
2497.3802	934.0875
2500.12024	933.5875
2502.85855	939.2875
2505.59514	932.2875
2508.33002	921.5875
2511.06318	912.6875
2513.79462	912.8875
2516.52435	910.8875
2519.25237	907.8875
2521.97867	906.7875
2524.70327	901.2875
2527.42616	895.9875
2530.14734	899.8875
2532.86681	891.8875
2535.58458	905.0875
2538.30065	906.9875
2541.01501	900.3875
2543.72768	906.7875
2546.43864	903.4875
2549.14791	900.7875
2551.85548	902.0875
2554.56136	900.8875
2557.26554	899.9875
2559.96803	903.7875
2562.66883	896.1875
2565.36794	907.6875
2568.06536	909.7875
2570.7611	901.6875
2573.45514	906.4875
2576.14751	901.0875
2578.83819	906.5875
2581.52719	911.5875
2584.21451	906.9875
2586.90015	909.9875
2589.58411	903.1875
2592.2664	895.1875
2594.94701	897.2875
2597.62594	891.9875
2600.30321	897.7875
2602.9788	901.5875
2605.65273	893.1875
2608.32498	901.4875
2610.99557	903.1875
2613.66449	902.0875
2616.33175	898.0875
2618.99734	897.1875
2621.66128	902.7875
2624.32355	903.9875
2626.98416	897.7875
2629.64311	895.8875
2632.30041	901.9875
2634.95605	901.0875
2637.61004	903.6875
2640.26238	896.3875
2642.91306	905.6875
2645.56209	905.2875
2648.20948	901.7875
2650.85521	911.3875
2653.4993	907.7875
2656.14175	907.1875
2658.78255	919.9875
2661.42171	929.0875
2664.05923	925.1875
2666.6951	938.7875
2669.32934	940.4875
2671.96194	951.1875
2674.59291	961.3875
2677.22224	958.2875
2679.84993	969.6875
2682.476	979.0875
2685.10043	977.9875
2687.72324	986.0875
2690.34441	989.9875
2692.96396	999.5875
2695.58188	1007.9875
2698.19818	1020.7875
2700.81285	1036.5875
2703.4259	1047.6875
2706.03733	1054.7875
2708.64714	1072.8875
2711.25533	1087.3875
2713.86191	1089.8875
2716.46687	1097.1875
2719.07021	1108.8875
2721.67194	1109.7875
2724.27206	1108.8875
2726.87057	1117.0875
2729.46747	1106.9875
2732.06276	1118.1875
2734.65644	1122.4875
2737.24852	1117.6875
2739.83899	1122.2875
2742.42786	1124.6875
2745.01513	1137.3875
2747.60079	1140.5875
2750.18486	1149.9875
2752.76733	1158.3875
2755.3482	1170.9875
2757.92747	1178.7875
2760.50515	1193.5875
2763.08123	1213.6875
2765.65573	1225.8875
2768.22863	1243.4875
2770.79994	1266.0875
2773.36967	1285.1875
2775.9378	1310.2875
2778.50435	1344.7875
2781.06932	1365.3875
2783.6327	1395.4875
2786.1945	1422.9875
2788.75471	1463.9875
2791.31335	1499.7875
2793.87041	1533.0875
2796.42589	1575.3875
2798.97979	1619.6875
2801.53212	1657.0875
2804.08288	1705.2875
2806.63206	1748.3875
2809.17967	1795.5875
2811.72571	1843.7875
2814.27018	1882.7875
2816.81308	1908.3875
2819.35442	1920.3875
2821.89419	1948.9875
2824.43239	1926.8875
2826.96904	1927.2875
2829.50412	1925.1875
2832.03763	1916.6875
2834.56959	1914.3875
2837.1	1917.1875
2839.62884	1961.2875
2842.15613	2010.0875
2844.68186	2093.3875
2847.20604	2178.9875
2849.72867	2251.9875
2852.24974	2284.8875
2854.76927	2280.5875
2857.28724	2256.5875
2859.80367	2227.3875
2862.31855	2192.2875
2864.83189	2154.1875
2867.34368	2128.0875
2869.85393	2097.0875
2872.36264	2067.9875
2874.8698	2055.5875
2877.37543	2031.0875
2879.87952	2016.0875
2882.38207	2003.4875
2884.88308	1986.2875
2887.38256	1970.8875
2889.88051	1962.3875
2892.37692	1957.0875
2894.8718	1951.5875
2897.36515	1938.7875
2899.85698	1933.6875
2902.34727	1937.7875
2904.83604	1919.5875
2907.32328	1923.2875
2909.809	1916.8875
2912.29319	1900.0875
2914.77587	1895.1875
2917.25702	1878.5875
2919.73665	1871.0875
2922.21476	1872.3875
2924.69136	1852.2875
2927.16644	1829.3875
2929.64	1805.5875
2932.11205	1783.4875
2934.58258	1750.0875
2937.05161	1716.2875
2939.51912	1660.1875
2941.98513	1597.9875
2944.44962	1522.0875
2946.91261	1453.0875
2949.37409	1386.0875
2951.83407	1335.9875
2954.29254	1296.4875
2956.74951	1261.1875
2959.20498	1226.1875
2961.65895	1202.9875
2964.11142	1176.1875
2966.56239	1149.0875
2969.01186	1136.5875
2971.45984	1109.4875
2973.90632	1084.6875
2976.35131	1070.4875
2978.7948	1064.7875
2981.23681	1048.4875
2983.67732	1034.9875
2986.11635	1016.6875
2988.55388	1004.0875
2990.98993	984.3875
2993.4245	968.9875
2995.85758	958.0875
2998.28917	940.4875
3000.71928	941.7875
3003.14791	935.0875
3005.57506	920.6875
3008.00073	919.8875
3010.42493	912.1875
3012.84764	911.4875
3015.26888	911.5875
3017.68865	905.5875
3020.10694	905.5875
3022.52376	901.3875
3024.9391	901.6875
3027.35298	902.8875
3029.76539	901.7875
3032.17632	909.3875
3034.5858	909.7875
3036.9938	906.4875
3039.40034	907.8875
3041.80542	906.1875
3044.20903	901.0875
3046.61118	904.3875
3049.01187	905.5875
3051.4111	911.3875
3053.80888	909.9875
3056.20519	918.3875
3058.60005	909.3875
3060.99345	916.1875
3063.3854	929.2875
3065.7759	921.9875
3068.16494	928.1875
3070.55254	928.2875
3072.93868	926.5875
3075.32338	928.4875
3077.70662	921.7875
3080.08842	922.8875
3082.46878	920.3875
3084.84769	914.8875
3087.22515	912.4875
3089.60118	916.2875
3091.97576	905.6875
3094.3489	912.0875
3096.72061	908.4875
3099.09087	920.0875
3101.4597	915.7875
3103.82709	919.8875
3106.19305	920.3875
3108.55757	923.3875
3110.92066	924.6875
3113.28232	931.2875
3115.64255	928.4875
3118.00134	930.7875
3120.35871	942.2875
3122.71466	946.4875
3125.06917	947.1875
3127.42226	949.0875
3129.77393	963.0875
3132.12417	974.3875
3134.47299	984.4875
3136.82039	987.4875
3139.16636	997.9875
3141.51092	1002.3875
3143.85406	1009.5875
3146.19579	1016.4875
3148.53609	1023.7875
3150.87499	1025.3875
3153.21246	1040.3875
3155.54853	1040.7875
3157.88318	1052.3875
3160.21642	1056.4875
3162.54826	1061.3875
3164.87868	1064.0875
3167.2077	1066.0875
3169.5353	1075.7875
3171.86151	1093.7875
3174.18631	1090.3875
3176.5097	1105.1875
3178.83169	1108.6875
3181.15228	1115.0875
3183.47147	1117.7875
3185.78926	1125.6875
3188.10565	1133.3875
3190.42065	1134.7875
3192.73424	1138.7875
3195.04645	1153.1875
3197.35725	1155.9875
3199.66667	1159.6875
3201.97469	1169.6875
3204.28132	1170.8875
3206.58656	1176.7875
3208.8904	1173.7875
3211.19287	1185.8875
3213.49394	1194.4875
3215.79363	1195.5875
3218.09193	1195.6875
3220.38884	1199.5875
3222.68438	1208.3875
3224.97853	1203.2875
3227.2713	1218.7875
3229.56269	1202.4875
3231.8527	1216.7875
3234.14133	1212.8875
3236.42858	1216.0875
3238.71446	1214.2875
3240.99896	1220.8875
3243.28209	1220.6875
3245.56384	1232.0875
3247.84423	1226.5875
3250.12324	1236.5875
3252.40088	1238.7875
3254.67715	1239.7875
3256.95205	1231.9875
3259.22558	1249.0875
3261.49775	1243.7875
3263.76855	1246.7875
3266.03799	1255.0875
3268.30606	1249.5875
3270.57277	1253.9875
3272.83812	1262.7875
3275.10211	1252.8875
3277.36474	1255.3875
3279.62601	1255.7875
3281.88593	1257.4875
3284.14448	1256.4875
3286.40168	1258.5875
3288.65753	1258.4875
3290.91202	1250.7875
3293.16516	1244.6875
3295.41695	1237.3875
3297.66738	1233.0875
3299.91647	1220.7875
3302.16421	1227.1875
3304.4106	1213.3875
3306.65564	1205.2875
3308.89933	1191.6875
3311.14169	1191.5875
3313.38269	1188.8875
3315.62236	1171.9875
3317.86068	1167.9875
3320.09766	1154.9875
3322.3333	1155.6875
3324.5676	1157.0875
3326.80056	1125.9875
3329.03219	1127.5875
3331.26248	0.6875
3333.49143	-0.4125
3335.71905	-1.9125
