Data from AgNPs_FTO_APTES_UA_2uM_CRN_20uM_R6G_10uM_NaF_0.1M_Addition_RamanShift__12__14-11-45-199.txt Node

Date: Wed Feb 02 14:11:45 GMT 2022
User: TCL
Spectrometer: QEP01345
Trigger mode: 4
Integration Time (sec): 7.000000E0
Scans to average: 10
Electric dark correction enabled: true
Nonlinearity correction enabled: false
Boxcar width: 0
XAxis mode: Raman Shifts
Number of Pixels in Spectrum: 1044
>>>>>Begin Spectral Data<<<<<
46.04893	-1.075
50.45542	0.225
54.85868	-1.175
59.25871	0.225
63.6555	96.025
68.04907	102.425
72.43941	101.225
76.82654	109.625
81.21044	116.525
85.59113	116.425
89.96862	121.825
94.34289	129.925
98.71396	130.325
103.08183	137.525
107.4465	143.125
111.80798	143.525
116.16626	145.725
120.52136	151.525
124.87327	160.525
129.222	171.625
133.56755	181.025
137.90993	196.725
142.24913	215.125
146.58517	246.225
150.91804	280.825
155.24774	339.725
159.57429	417.225
163.89768	542.225
168.21792	725.325
172.53501	982.225
176.84895	1376.025
181.15975	1924.725
185.46741	2719.225
189.77193	3739.225
194.07331	5010.825
198.37157	6459.725
202.6667	8016.725
206.9587	9534.225
211.24758	11018.625
215.53334	12500.825
219.81599	14053.725
224.09553	15713.625
228.37195	17582.725
232.64527	19634.525
236.91549	21784.325
241.18261	24006.125
245.44663	26082.125
249.70755	27987.525
253.96539	29657.425
258.22014	31007.125
262.4718	32127.925
266.72039	32921.625
270.96589	33336.625
275.20832	33469.925
279.44768	33318.425
283.68397	33153.125
287.91719	32995.425
292.14735	32838.725
296.37445	32858.725
300.59849	32877.425
304.81948	32946.725
309.03742	32886.325
313.25231	32648.525
317.46415	32078.025
321.67296	31297.125
325.87872	30584.325
330.08145	30253.225
334.28114	30220.625
338.47781	30344.025
342.67145	30582.725
346.86207	30950.725
351.04966	31319.925
355.23424	31681.625
359.4158	32000.925
363.59435	32298.125
367.76989	32450.025
371.94243	32604.025
376.11196	32647.225
380.27849	32744.325
384.44203	32755.825
388.60257	32894.425
392.76012	33343.925
396.91468	33858.625
401.06626	34460.925
405.21485	34862.325
409.36047	34720.025
413.50311	34332.325
417.64277	34114.025
421.77947	34154.425
425.9132	34308.225
430.04396	34506.325
434.17176	34662.625
438.2966	34805.925
442.41849	35157.325
446.53742	35771.125
450.6534	36442.225
454.76644	36948.225
458.87653	37145.725
462.98368	37214.325
467.08789	37092.525
471.18916	36865.625
475.2875	36594.925
479.38291	36524.425
483.4754	36457.025
487.56496	36177.025
491.6516	35796.325
495.73531	35149.825
499.81612	34765.125
503.89401	34764.025
507.96899	34932.725
512.04106	34989.825
516.11023	34874.925
520.1765	34509.725
524.23987	34097.525
528.30034	33670.425
532.35792	33345.625
536.41261	32967.025
540.46441	32778.425
544.51333	32867.225
548.55936	33288.225
552.60252	33905.525
556.64279	34609.725
560.6802	35195.325
564.71473	35682.225
568.7464	36492.925
572.7752	37791.225
576.80114	39358.625
580.82422	40814.925
584.84444	41810.625
588.86181	42675.525
592.87633	43400.125
596.888	43137.325
600.89682	41680.425
604.9028	40890.925
608.90594	41983.325
612.90624	43088.425
616.90371	40463.525
620.89834	35774.925
624.89015	33752.025
628.87913	33746.825
632.86528	34166.825
636.84862	34235.425
640.82913	33694.425
644.80683	32868.725
648.78172	32317.325
652.75379	32188.425
656.72306	32338.925
660.68952	32698.525
664.65319	32631.625
668.61405	32302.625
672.57211	32249.725
676.52738	32302.425
680.47986	32276.825
684.42955	32116.425
688.37646	32017.825
692.32058	32180.725
696.26192	32453.925
700.20048	32755.825
704.13626	33082.125
708.06928	33322.125
711.99952	33308.725
715.927	33205.025
719.85171	33014.325
723.77365	32722.425
727.69284	32247.925
731.60928	31825.625
735.52295	31575.425
739.43388	31466.425
743.34206	31530.325
747.24749	31720.525
751.15017	32074.425
755.05012	32641.925
758.94733	33540.525
762.8418	34943.425
766.73354	36974.125
770.62254	38673.025
774.50882	38744.225
778.39237	37104.825
782.27321	35059.725
786.15132	33420.825
790.02671	32321.325
793.89938	31666.925
797.76935	31364.425
801.6366	31151.225
805.50115	31067.325
809.36299	30915.625
813.22213	30748.825
817.07857	30703.125
820.93231	30732.025
824.78336	30610.325
828.63172	30427.825
832.47738	30286.425
836.32036	30184.925
840.16066	30158.525
843.99827	30110.025
847.8332	30151.325
851.66546	30171.625
855.49504	30209.025
859.32195	30190.325
863.1462	30136.725
866.96777	30106.425
870.78668	30004.725
874.60293	30012.925
878.41652	30003.925
882.22745	30062.925
886.03573	30112.525
889.84136	30112.925
893.64433	30069.725
897.44466	30040.425
901.24235	29965.325
905.0374	29980.525
908.8298	29939.325
912.61957	30110.125
916.40671	30453.325
920.19121	30925.825
923.97308	31194.025
927.75233	31050.325
931.52895	30611.625
935.30295	30063.625
939.07433	29548.225
942.84309	29081.325
946.60924	28816.425
950.37278	28715.825
954.13371	28726.425
957.89203	28746.125
961.64774	28705.525
965.40086	28731.425
969.15137	28654.425
972.89929	28470.925
976.64461	28323.825
980.38733	28183.325
984.12747	28191.625
987.86502	28265.425
991.59999	28371.325
995.33237	28478.125
999.06217	28769.625
1002.78939	29183.825
1006.51404	29536.625
1010.23611	29981.025
1013.95561	30256.225
1017.67255	30350.825
1021.38692	30162.125
1025.09872	29829.125
1028.80796	29493.825
1032.51465	29286.625
1036.21877	29318.125
1039.92035	29448.025
1043.61937	29646.525
1047.31584	29753.125
1051.00976	29869.125
1054.70114	30114.625
1058.38998	30408.725
1062.07627	30826.025
1065.76003	31364.325
1069.44126	31830.825
1073.11995	32310.325
1076.79611	32727.725
1080.46974	32808.525
1084.14085	32889.725
1087.80943	33134.325
1091.47549	33478.125
1095.13903	33691.625
1098.80005	33401.625
1102.45857	32611.425
1106.11456	31781.125
1109.76805	31287.925
1113.41903	31114.725
1117.06751	31199.025
1120.71348	31427.225
1124.35696	31727.925
1127.99793	32105.525
1131.63641	32320.825
1135.2724	32330.525
1138.90589	32345.225
1142.5369	32496.425
1146.16542	32777.725
1149.79145	33192.525
1153.415	33675.225
1157.03607	34199.225
1160.65467	35062.925
1164.27079	36374.925
1167.88443	37985.625
1171.49561	39766.625
1175.10432	41799.425
1178.71056	44226.725
1182.31434	46584.925
1185.91565	48059.725
1189.51451	48567.525
1193.11091	48277.325
1196.70485	47134.025
1200.29634	45538.225
1203.88538	44163.225
1207.47197	43672.825
1211.05612	43507.625
1214.63782	43093.525
1218.21708	41949.725
1221.79391	40397.125
1225.36829	39035.925
1228.94024	38266.025
1232.50976	37919.525
1236.07685	37631.025
1239.6415	37532.525
1243.20374	37598.225
1246.76355	37853.325
1250.32093	38384.525
1253.8759	39051.525
1257.42845	40074.525
1260.97859	41191.325
1264.52631	42291.625
1268.07163	43429.425
1271.61453	44568.825
1275.15503	45659.725
1278.69312	47002.625
1282.22882	48332.625
1285.76211	50059.525
1289.29301	51856.625
1292.82151	53977.025
1296.34761	56498.125
1299.87133	59206.025
1303.39266	61702.725
1306.9116	63665.625
1310.42815	64788.025
1313.94233	65144.625
1317.45412	64905.425
1320.96354	64631.025
1324.47058	64917.025
1327.97525	65304.325
1331.47754	65776.225
1334.97747	65938.525
1338.47502	66112.425
1341.97022	66196.025
1345.46305	65904.225
1348.95352	65205.525
1352.44163	64042.225
1355.92738	63124.725
1359.41078	63030.125
1362.89183	63166.425
1366.37053	62026.625
1369.84688	58732.925
1373.32088	54261.625
1376.79254	50846.225
1380.26186	49593.225
1383.72883	49648.525
1387.19347	49881.925
1390.65578	49625.525
1394.11575	49380.825
1397.57339	49473.125
1401.0287	49824.725
1404.48168	50074.925
1407.93234	49553.025
1411.38068	48265.725
1414.82669	46449.125
1418.27039	44447.325
1421.71177	42597.425
1425.15083	41260.925
1428.58758	40679.625
1432.02203	40968.925
1435.45416	41861.825
1438.88399	42999.525
1442.31151	44009.325
1445.73673	44687.025
1449.15965	45393.225
1452.58027	45905.725
1455.9986	46371.825
1459.41463	46747.725
1462.82837	47383.525
1466.23982	47991.125
1469.64898	48513.025
1473.05586	48718.625
1476.46045	48645.525
1479.86276	48423.225
1483.26279	48147.525
1486.66054	47995.225
1490.05602	48284.425
1493.44922	49046.325
1496.84016	49984.925
1500.22882	51241.125
1503.61521	52634.125
1506.99934	53978.025
1510.38121	54924.425
1513.76081	55098.825
1517.13816	54677.825
1520.51324	54031.325
1523.88607	53852.525
1527.25665	53963.625
1530.62498	53841.925
1533.99105	53209.425
1537.35488	52087.125
1540.71647	50540.825
1544.07581	48733.525
1547.4329	47168.825
1550.78776	45945.925
1554.14038	45173.825
1557.49077	44752.325
1560.83892	44585.725
1564.18484	44524.825
1567.52853	44600.425
1570.86999	44959.425
1574.20922	45870.025
1577.54624	46778.025
1580.88103	47350.625
1584.2136	47836.025
1587.54395	48819.825
1590.87208	50373.525
1594.19801	52247.025
1597.52172	53780.825
1600.84321	53587.325
1604.16251	51161.825
1607.47959	47832.825
1610.79447	44352.525
1614.10715	41180.625
1617.41763	38509.025
1620.7259	36461.425
1624.03199	35389.625
1627.33587	35279.225
1630.63757	36112.825
1633.93707	38218.525
1637.23439	41896.325
1640.52951	47193.225
1643.82246	53415.225
1647.11321	58342.125
1650.40179	59482.925
1653.68819	56138.325
1656.97241	49581.325
1660.25446	42711.325
1663.53433	37215.225
1666.81203	33419.025
1670.08756	30947.825
1673.36092	29395.825
1676.63211	28386.825
1679.90115	27684.425
1683.16801	27196.325
1686.43272	26779.125
1689.69527	26494.025
1692.95567	26255.025
1696.2139	26098.125
1699.46999	25989.925
1702.72392	25849.725
1705.97571	25770.625
1709.22535	25666.225
1712.47284	25572.125
1715.71819	25550.925
1718.96139	25436.425
1722.20246	25307.625
1725.44139	25167.625
1728.67818	25034.225
1731.91284	24878.225
1735.14537	24751.225
1738.37576	24585.825
1741.60403	24499.925
1744.83017	24438.025
1748.05418	24372.125
1751.27607	24301.725
1754.49584	24282.825
1757.71349	24252.625
1760.92903	24150.925
1764.14244	24151.425
1767.35375	24106.025
1770.56294	24033.325
1773.77002	23976.925
1776.97499	23930.925
1780.17785	23863.525
1783.37861	23809.425
1786.57727	23746.625
1789.77382	23696.725
1792.96828	23639.325
1796.16064	23647.525
1799.3509	23560.825
1802.53907	23492.725
1805.72514	23383.125
1808.90913	23315.425
1812.09102	23279.625
1815.27083	23247.025
1818.44856	23236.525
1821.6242	23167.825
1824.79776	23137.425
1827.96924	23135.225
1831.13864	23097.725
1834.30597	23107.325
1837.47122	23090.425
1840.6344	23088.125
1843.7955	23090.425
1846.95454	23056.625
1850.11151	23081.725
1853.26642	23031.525
1856.41926	23000.725
1859.57004	22996.425
1862.71876	22943.425
1865.86542	22891.525
1869.01003	22905.725
1872.15258	22815.325
1875.29308	22760.125
1878.43152	22717.425
1881.56792	22657.325
1884.70227	22653.225
1887.83457	22617.225
1890.96482	22571.025
1894.09304	22521.225
1897.21921	22489.525
1900.34335	22454.725
1903.46544	22407.025
1906.58551	22360.825
1909.70353	22298.425
1912.81953	22247.225
1915.93349	22240.125
1919.04543	22171.925
1922.15534	22105.325
1925.26322	22088.325
1928.36908	22033.025
1931.47292	21918.025
1934.57473	21840.125
1937.67453	21759.225
1940.77232	21751.725
1943.86808	21693.325
1946.96184	21640.025
1950.05358	21543.925
1953.14331	21502.325
1956.23103	21415.125
1959.31675	21341.725
1962.40046	21311.325
1965.48217	21243.925
1968.56188	21151.425
1971.63959	21067.425
1974.7153	21022.225
1977.78901	20918.525
1980.86073	20837.225
1983.93046	20752.725
1986.99819	20720.325
1990.06394	20701.325
1993.1277	20581.125
1996.18947	20503.925
1999.24925	20432.525
2002.30706	20357.825
2005.36288	20293.425
2008.41672	20212.825
2011.46859	20130.625
2014.51848	20059.025
2017.56639	20052.625
2020.61233	20021.225
2023.6563	19969.125
2026.6983	19910.425
2029.73833	19812.425
2032.7764	19793.825
2035.8125	19731.725
2038.84664	19647.025
2041.87881	19666.925
2044.90903	19602.125
2047.93729	19542.225
2050.96359	19524.825
2053.98794	19502.925
2057.01034	19494.225
2060.03078	19463.525
2063.04927	19411.825
2066.06582	19397.325
2069.08042	19389.125
2072.09307	19374.225
2075.10378	19342.925
2078.11255	19304.925
2081.11938	19309.325
2084.12426	19282.325
2087.12722	19264.125
2090.12824	19273.125
2093.12732	19263.425
2096.12447	19267.525
2099.11969	19289.425
2102.11299	19274.025
2105.10435	19292.425
2108.09379	19252.825
2111.08131	19250.525
2114.0669	19269.725
2117.05057	19263.925
2120.03233	19278.825
2123.01216	19293.825
2125.99008	19284.825
2128.96609	19311.025
2131.94018	19299.325
2134.91236	19318.625
2137.88263	19327.025
2140.851	19310.125
2143.81746	19307.725
2146.78201	19289.225
2149.74466	19271.525
2152.7054	19251.425
2155.66425	19223.625
2158.6212	19241.425
2161.57625	19223.225
2164.52941	19259.725
2167.48067	19222.125
2170.43004	19187.825
2173.37752	19137.525
2176.32311	19134.625
2179.26681	19168.625
2182.20863	19115.225
2185.14856	19114.825
2188.08661	19138.925
2191.02278	19143.725
2193.95707	19097.825
2196.88948	19068.825
2199.82001	19073.925
2202.74867	19011.025
2205.67545	18996.425
2208.60037	18953.425
2211.52341	18937.325
2214.44458	18900.825
2217.36388	18873.125
2220.28132	18819.325
2223.1969	18781.425
2226.11061	18766.625
2229.02246	18701.625
2231.93245	18702.625
2234.84058	18689.425
2237.74686	18629.325
2240.65128	18536.825
2243.55385	18511.225
2246.45456	18509.625
2249.35343	18481.325
2252.25044	18458.325
2255.14561	18438.825
2258.03893	18370.025
2260.93041	18293.725
2263.82004	18257.325
2266.70783	18225.325
2269.59378	18118.925
2272.4779	18035.525
2275.36017	18025.725
2278.24061	18023.325
2281.11922	17953.625
2283.996	17912.225
2286.87094	17889.425
2289.74405	17858.025
2292.61534	17784.025
2295.4848	17789.425
2298.35243	17762.925
2301.21824	17752.225
2304.08223	17757.225
2306.94439	17749.825
2309.80474	17686.825
2312.66327	17681.925
2315.51999	17659.125
2318.37489	17620.825
2321.22797	17589.525
2324.07925	17554.625
2326.92871	17516.725
2329.77637	17540.025
2332.62222	17495.025
2335.46626	17455.525
2338.3085	17435.425
2341.14893	17405.625
2343.98756	17439.325
2346.8244	17405.025
2349.65943	17381.725
2352.49267	17396.625
2355.32411	17372.225
2358.15376	17379.425
2360.98161	17402.325
2363.80768	17322.625
2366.63195	17331.725
2369.45444	17305.925
2372.27514	17272.225
2375.09405	17269.725
2377.91118	17253.425
2380.72652	17192.125
2383.54009	17160.825
2386.35187	17166.325
2389.16188	17087.725
2391.97011	17035.325
2394.77657	16950.625
2397.58125	16940.425
2400.38416	16927.525
2403.18529	16916.825
2405.98466	16898.825
2408.78226	16855.625
2411.57809	16849.725
2414.37216	16832.825
2417.16446	16816.425
2419.955	16808.225
2422.74378	16795.925
2425.5308	16765.025
2428.31606	16783.125
2431.09956	16732.025
2433.88131	16646.925
2436.6613	16687.825
2439.43954	16660.625
2442.21603	16648.425
2444.99077	16622.925
2447.76377	16614.625
2450.53501	16571.225
2453.30451	16551.025
2456.07226	16548.425
2458.83827	16597.625
2461.60254	16565.825
2464.36507	16533.725
2467.12586	16526.025
2469.88492	16520.725
2472.64224	16462.025
2475.39782	16461.325
2478.15167	16485.825
2480.90379	16485.125
2483.65417	16429.925
2486.40283	16464.525
2489.14976	16467.525
2491.89497	16445.825
2494.63845	16465.225
2497.3802	16405.425
2500.12024	16397.025
2502.85855	16382.225
2505.59514	16370.425
2508.33002	16379.225
2511.06318	16365.225
2513.79462	16347.325
2516.52435	16336.525
2519.25237	16319.825
2521.97867	16310.825
2524.70327	16323.525
2527.42616	16297.725
2530.14734	16270.325
2532.86681	16226.225
2535.58458	16194.925
2538.30065	16160.725
2541.01501	16158.625
2543.72768	16121.525
2546.43864	16093.425
2549.14791	16076.025
2551.85548	16050.025
2554.56136	16072.025
2557.26554	16060.325
2559.96803	16006.125
2562.66883	15972.925
2565.36794	15944.225
2568.06536	15948.525
2570.7611	15918.825
2573.45514	15883.825
2576.14751	15848.225
2578.83819	15858.125
2581.52719	15837.525
2584.21451	15793.025
2586.90015	15785.225
2589.58411	15777.925
2592.2664	15734.825
2594.94701	15718.725
2597.62594	15717.125
2600.30321	15679.225
2602.9788	15679.025
2605.65273	15633.825
2608.32498	15644.825
2610.99557	15614.125
2613.66449	15645.325
2616.33175	15648.225
2618.99734	15628.325
2621.66128	15585.025
2624.32355	15546.725
2626.98416	15553.825
2629.64311	15545.525
2632.30041	15533.125
2634.95605	15488.625
2637.61004	15499.425
2640.26238	15481.625
2642.91306	15461.725
2645.56209	15449.725
2648.20948	15439.325
2650.85521	15429.625
2653.4993	15477.525
2656.14175	15442.025
2658.78255	15471.925
2661.42171	15441.825
2664.05923	15447.125
2666.6951	15462.025
2669.32934	15487.325
2671.96194	15479.425
2674.59291	15439.725
2677.22224	15447.625
2679.84993	15492.325
2682.476	15458.325
2685.10043	15463.325
2687.72324	15434.725
2690.34441	15460.325
2692.96396	15425.125
2695.58188	15449.025
2698.19818	15414.225
2700.81285	15409.025
2703.4259	15436.125
2706.03733	15452.625
2708.64714	15437.525
2711.25533	15443.225
2713.86191	15427.425
2716.46687	15422.225
2719.07021	15399.825
2721.67194	15441.025
2724.27206	15388.625
2726.87057	15390.525
2729.46747	15411.825
2732.06276	15408.025
2734.65644	15395.725
2737.24852	15365.325
2739.83899	15337.925
2742.42786	15353.725
2745.01513	15324.725
2747.60079	15345.425
2750.18486	15332.025
2752.76733	15335.625
2755.3482	15314.025
2757.92747	15351.425
2760.50515	15325.825
2763.08123	15334.625
2765.65573	15302.425
2768.22863	15271.425
2770.79994	15218.925
2773.36967	15222.325
2775.9378	15214.025
2778.50435	15218.625
2781.06932	15223.725
2783.6327	15202.225
2786.1945	15165.625
2788.75471	15115.525
2791.31335	15109.825
2793.87041	15052.725
2796.42589	15019.125
2798.97979	15044.325
2801.53212	14986.225
2804.08288	15006.925
2806.63206	14951.025
2809.17967	14931.525
2811.72571	14891.925
2814.27018	14854.325
2816.81308	14866.125
2819.35442	14800.125
2821.89419	14780.825
2824.43239	14771.125
2826.96904	14765.325
2829.50412	14772.925
2832.03763	14734.925
2834.56959	14728.325
2837.1	14673.425
2839.62884	14678.625
2842.15613	14685.725
2844.68186	14706.925
2847.20604	14734.225
2849.72867	14733.625
2852.24974	14702.925
2854.76927	14671.825
2857.28724	14664.125
2859.80367	14648.325
2862.31855	14631.125
2864.83189	14594.425
2867.34368	14534.325
2869.85393	14516.725
2872.36264	14494.225
2874.8698	14512.225
2877.37543	14499.725
2879.87952	14455.525
2882.38207	14476.425
2884.88308	14455.125
2887.38256	14477.025
2889.88051	14484.125
2892.37692	14457.125
2894.8718	14451.325
2897.36515	14461.825
2899.85698	14488.525
2902.34727	14479.325
2904.83604	14476.725
2907.32328	14514.825
2909.809	14450.025
2912.29319	14436.625
2914.77587	14413.725
2917.25702	14394.925
2919.73665	14410.525
2922.21476	14421.525
2924.69136	14400.525
2927.16644	14437.325
2929.64	14415.925
2932.11205	14428.225
2934.58258	14341.925
2937.05161	14401.625
2939.51912	14355.025
2941.98513	14353.925
2944.44962	14321.525
2946.91261	14248.425
2949.37409	14262.325
2951.83407	14220.425
2954.29254	14215.425
2956.74951	14195.025
2959.20498	14168.625
2961.65895	14159.125
2964.11142	14145.025
2966.56239	14090.125
2969.01186	14137.025
2971.45984	14086.225
2973.90632	14072.125
2976.35131	14003.525
2978.7948	13981.425
2981.23681	13941.925
2983.67732	13923.325
2986.11635	13890.025
2988.55388	13837.825
2990.98993	13795.625
2993.4245	13760.325
2995.85758	13723.125
2998.28917	13679.225
3000.71928	13669.225
3003.14791	13616.125
3005.57506	13592.925
3008.00073	13573.925
3010.42493	13559.825
3012.84764	13503.025
3015.26888	13495.925
3017.68865	13434.125
3020.10694	13427.325
3022.52376	13405.925
3024.9391	13358.325
3027.35298	13338.825
3029.76539	13291.525
3032.17632	13283.325
3034.5858	13254.525
3036.9938	13278.825
3039.40034	13265.425
3041.80542	13232.725
3044.20903	13181.025
3046.61118	13179.225
3049.01187	13155.125
3051.4111	13129.225
3053.80888	13098.125
3056.20519	13074.025
3058.60005	13035.425
3060.99345	13012.825
3063.3854	12979.225
3065.7759	12916.425
3068.16494	12895.625
3070.55254	12797.025
3072.93868	12811.825
3075.32338	12749.425
3077.70662	12749.725
3080.08842	12719.725
3082.46878	12711.825
3084.84769	12672.525
3087.22515	12625.725
3089.60118	12640.725
3091.97576	12601.025
3094.3489	12613.725
3096.72061	12576.725
3099.09087	12585.825
3101.4597	12531.325
3103.82709	12563.225
3106.19305	12514.125
3108.55757	12520.825
3110.92066	12467.225
3113.28232	12422.325
3115.64255	12393.325
3118.00134	12389.425
3120.35871	12348.325
3122.71466	12334.825
3125.06917	12276.625
3127.42226	12227.625
3129.77393	12256.025
3132.12417	12229.025
3134.47299	12217.025
3136.82039	12193.125
3139.16636	12192.725
3141.51092	12193.425
3143.85406	12204.425
3146.19579	12158.425
3148.53609	12164.025
3150.87499	12137.625
3153.21246	12129.725
3155.54853	12148.425
3157.88318	12138.225
3160.21642	12155.725
3162.54826	12093.925
3164.87868	12108.625
3167.2077	12108.825
3169.5353	12082.825
3171.86151	12087.625
3174.18631	12041.825
3176.5097	12032.525
3178.83169	12040.625
3181.15228	12020.025
3183.47147	11998.825
3185.78926	11985.925
3188.10565	11977.125
3190.42065	11962.025
3192.73424	11932.325
3195.04645	11931.525
3197.35725	11913.625
3199.66667	11881.325
3201.97469	11898.325
3204.28132	11889.525
3206.58656	11890.525
3208.8904	11860.825
3211.19287	11874.525
3213.49394	11853.925
3215.79363	11862.825
3218.09193	11862.425
3220.38884	11815.425
3222.68438	11827.325
3224.97853	11794.425
3227.2713	11809.625
3229.56269	11767.325
3231.8527	11748.025
3234.14133	11736.625
3236.42858	11696.625
3238.71446	11672.825
3240.99896	11657.625
3243.28209	11674.025
3245.56384	11639.825
3247.84423	11640.125
3250.12324	11621.825
3252.40088	11603.025
3254.67715	11571.925
3256.95205	11538.625
3259.22558	11533.925
3261.49775	11504.625
3263.76855	11495.125
3266.03799	11431.825
3268.30606	11435.625
3270.57277	11409.525
3272.83812	11381.725
3275.10211	11363.825
3277.36474	11356.025
3279.62601	11355.625
3281.88593	11334.825
3284.14448	11344.725
3286.40168	11320.225
3288.65753	11307.325
3290.91202	11255.025
3293.16516	11234.325
3295.41695	11216.525
3297.66738	11141.525
3299.91647	11099.225
3302.16421	11031.225
3304.4106	10966.525
3306.65564	10895.425
3308.89933	10814.225
3311.14169	10753.425
3313.38269	10679.425
3315.62236	10598.125
3317.86068	10495.325
3320.09766	10391.025
3322.3333	10269.325
3324.5676	10272.525
3326.80056	10141.325
3329.03219	10070.025
3331.26248	3.125
3333.49143	-0.175
3335.71905	-1.075
