Data from AgNPs_FTO_APTES_UA_2uM_CRN_2uM_R6G_10uM_NaF_0.1M_Addition_RamanShift__2__12-01-05-046.txt Node

Date: Wed Feb 02 12:01:05 GMT 2022
User: TCL
Spectrometer: QEP01345
Trigger mode: 4
Integration Time (sec): 7.000000E0
Scans to average: 10
Electric dark correction enabled: true
Nonlinearity correction enabled: false
Boxcar width: 0
XAxis mode: Raman Shifts
Number of Pixels in Spectrum: 1044
>>>>>Begin Spectral Data<<<<<
46.04893	-0.025
50.45542	-0.625
54.85868	-1.725
59.25871	-1.125
63.6555	106.975
68.04907	112.975
72.43941	114.675
76.82654	122.475
81.21044	125.175
85.59113	130.575
89.96862	131.775
94.34289	139.875
98.71396	146.875
103.08183	149.775
107.4465	150.375
111.80798	157.375
116.16626	160.475
120.52136	163.575
124.87327	174.075
129.222	182.675
133.56755	195.475
137.90993	209.275
142.24913	231.675
146.58517	262.575
150.91804	308.275
155.24774	370.275
159.57429	452.875
163.89768	583.175
168.21792	777.875
172.53501	1060.475
176.84895	1485.375
181.15975	2076.875
185.46741	2922.175
189.77193	4038.175
194.07331	5368.375
198.37157	6931.775
202.6667	8536.375
206.9587	10171.375
211.24758	11745.575
215.53334	13324.575
219.81599	15085.675
224.09553	17052.775
228.37195	19168.375
232.64527	21428.975
236.91549	23852.975
241.18261	26201.875
245.44663	28306.775
249.70755	30193.475
253.96539	31845.475
258.22014	33239.175
262.4718	34396.975
266.72039	35144.975
270.96589	35517.275
275.20832	35479.375
279.44768	35175.875
283.68397	34695.575
287.91719	34337.175
292.14735	34133.375
296.37445	34089.575
300.59849	34217.675
304.81948	34518.475
309.03742	34691.275
313.25231	34671.975
317.46415	34246.075
321.67296	33661.575
325.87872	33091.275
330.08145	32824.575
334.28114	32770.075
338.47781	32954.475
342.67145	33323.175
346.86207	33859.175
351.04966	34430.775
355.23424	35149.675
359.4158	35752.475
363.59435	36283.875
367.76989	36588.975
371.94243	36806.175
376.11196	36998.375
380.27849	37113.975
384.44203	37340.775
388.60257	37676.075
392.76012	37940.975
396.91468	38430.275
401.06626	38968.875
405.21485	39361.775
409.36047	39403.875
413.50311	39080.275
417.64277	38980.175
421.77947	39149.775
425.9132	39320.975
430.04396	39571.175
434.17176	39760.675
438.2966	40095.675
442.41849	40896.775
446.53742	42390.475
450.6534	43983.975
454.76644	44961.675
458.87653	45055.775
462.98368	44427.975
467.08789	43520.675
471.18916	42418.375
475.2875	41396.375
479.38291	40688.075
483.4754	40362.675
487.56496	39950.775
491.6516	39561.975
495.73531	39230.975
499.81612	39094.375
503.89401	39300.175
507.96899	39314.675
512.04106	39081.475
516.11023	38737.175
520.1765	38500.675
524.23987	38403.475
528.30034	38307.275
532.35792	38092.175
536.41261	37523.075
540.46441	36900.875
544.51333	36613.575
548.55936	36914.975
552.60252	37652.375
556.64279	38721.375
560.6802	39562.275
564.71473	39885.875
568.7464	40407.475
572.7752	41256.975
576.80114	42278.375
580.82422	43574.075
584.84444	45664.575
588.86181	48218.975
592.87633	50690.975
596.888	51014.875
600.89682	48710.175
604.9028	47770.475
608.90594	50889.275
612.90624	54584.975
616.90371	51573.575
620.89834	43703.575
624.89015	40007.575
628.87913	39479.975
632.86528	39236.275
636.84862	38583.775
640.82913	37631.575
644.80683	36639.675
648.78172	36108.075
652.75379	36200.175
656.72306	36741.875
660.68952	37420.775
664.65319	37189.475
668.61405	36584.475
672.57211	36450.775
676.52738	36700.175
680.47986	36627.175
684.42955	36250.875
688.37646	36147.775
692.32058	36531.975
696.26192	37278.775
700.20048	38051.975
704.13626	38328.275
708.06928	37960.875
711.99952	37597.375
715.927	37731.375
719.85171	38051.675
723.77365	37996.175
727.69284	37236.475
731.60928	36645.775
735.52295	36494.175
739.43388	36559.775
743.34206	36762.675
747.24749	36966.575
751.15017	37343.475
755.05012	37969.775
758.94733	38994.375
762.8418	40688.075
766.73354	43271.875
770.62254	45660.775
774.50882	46177.475
778.39237	44403.675
782.27321	41743.875
786.15132	39389.875
790.02671	38002.875
793.89938	37415.675
797.76935	37206.075
801.6366	37181.375
805.50115	37120.375
809.36299	36874.575
813.22213	36560.475
817.07857	36327.575
820.93231	36161.975
824.78336	36099.175
828.63172	36035.575
832.47738	36149.175
836.32036	36436.775
840.16066	36754.975
843.99827	37060.975
847.8332	36854.275
851.66546	36511.975
855.49504	36380.075
859.32195	36320.875
863.1462	36135.075
866.96777	35905.675
870.78668	35745.575
874.60293	35776.875
878.41652	35788.875
882.22745	36060.575
886.03573	36295.375
889.84136	36328.075
893.64433	36063.975
897.44466	35811.175
901.24235	35625.475
905.0374	35590.975
908.8298	35549.175
912.61957	35606.275
916.40671	36023.675
920.19121	36620.975
923.97308	37342.575
927.75233	37777.775
931.52895	37707.975
935.30295	37220.275
939.07433	36469.175
942.84309	35917.575
946.60924	35745.875
950.37278	35643.075
954.13371	35494.975
957.89203	35290.775
961.64774	35122.175
965.40086	35110.075
969.15137	35074.475
972.89929	34971.175
976.64461	35040.075
980.38733	35225.475
984.12747	35488.375
987.86502	35906.275
991.59999	36524.875
995.33237	37460.575
999.06217	39008.075
1002.78939	40767.275
1006.51404	41845.475
1010.23611	42275.675
1013.95561	42524.175
1017.67255	42410.175
1021.38692	41738.275
1025.09872	41258.775
1028.80796	42042.575
1032.51465	44312.175
1036.21877	46580.875
1039.92035	47115.575
1043.61937	46223.875
1047.31584	44354.775
1051.00976	42197.675
1054.70114	40838.175
1058.38998	40234.075
1062.07627	39919.475
1065.76003	39832.875
1069.44126	39989.275
1073.11995	40539.175
1076.79611	41130.075
1080.46974	41693.375
1084.14085	42138.975
1087.80943	42502.275
1091.47549	42698.175
1095.13903	42402.975
1098.80005	41655.075
1102.45857	40772.675
1106.11456	40234.475
1109.76805	40045.875
1113.41903	39996.375
1117.06751	40063.875
1120.71348	40293.975
1124.35696	40623.975
1127.99793	41044.375
1131.63641	41348.875
1135.2724	41226.675
1138.90589	41046.975
1142.5369	41077.775
1146.16542	41304.775
1149.79145	41545.375
1153.415	41861.975
1157.03607	42434.875
1160.65467	43576.675
1164.27079	45701.775
1167.88443	48178.575
1171.49561	51042.175
1175.10432	54670.575
1178.71056	59541.375
1182.31434	64222.575
1185.91565	66533.675
1189.51451	65889.975
1193.11091	63497.275
1196.70485	60786.575
1200.29634	58371.575
1203.88538	56839.675
1207.47197	55801.775
1211.05612	54874.675
1214.63782	53861.375
1218.21708	53013.375
1221.79391	52446.375
1225.36829	51999.475
1228.94024	51201.975
1232.50976	49762.575
1236.07685	48469.675
1239.6415	47767.675
1243.20374	47664.175
1246.76355	48263.775
1250.32093	49354.275
1253.8759	50722.275
1257.42845	52396.175
1260.97859	54198.175
1264.52631	55958.875
1268.07163	57880.575
1271.61453	60078.375
1275.15503	62394.975
1278.69312	64563.475
1282.22882	66486.575
1285.76211	68447.875
1289.29301	70554.875
1292.82151	73270.275
1296.34761	76995.775
1299.87133	82137.875
1303.39266	88285.375
1306.9116	94253.675
1310.42815	98662.875
1313.94233	100144.375
1317.45412	98441.375
1320.96354	94706.875
1324.47058	90833.975
1327.97525	87689.375
1331.47754	85636.575
1334.97747	84197.675
1338.47502	82637.575
1341.97022	80387.375
1345.46305	77956.075
1348.95352	76634.475
1352.44163	77793.075
1355.92738	81971.275
1359.41078	88254.775
1362.89183	93050.875
1366.37053	92292.475
1369.84688	85139.475
1373.32088	74967.875
1376.79254	67670.675
1380.26186	64987.375
1383.72883	64814.875
1387.19347	64691.875
1390.65578	63695.775
1394.11575	63166.775
1397.57339	63747.575
1401.0287	64897.575
1404.48168	65947.475
1407.93234	66124.575
1411.38068	65271.875
1414.82669	63769.375
1418.27039	61574.375
1421.71177	59229.375
1425.15083	57205.575
1428.58758	56372.075
1432.02203	57106.475
1435.45416	58933.875
1438.88399	60938.575
1442.31151	62207.375
1445.73673	62751.275
1449.15965	62979.175
1452.58027	62558.675
1455.9986	61817.575
1459.41463	61501.075
1462.82837	62359.575
1466.23982	63829.375
1469.64898	65394.075
1473.05586	66575.475
1476.46045	67220.575
1479.86276	67091.875
1483.26279	66574.575
1486.66054	66142.375
1490.05602	66353.175
1493.44922	66728.575
1496.84016	66721.775
1500.22882	66726.775
1503.61521	67267.575
1506.99934	68158.475
1510.38121	69294.975
1513.76081	69655.275
1517.13816	68532.975
1520.51324	66466.775
1523.88607	64901.375
1527.25665	64468.275
1530.62498	64645.375
1533.99105	64644.275
1537.35488	64120.575
1540.71647	63117.275
1544.07581	61714.675
1547.4329	60380.075
1550.78776	58962.775
1554.14038	57902.375
1557.49077	57182.075
1560.83892	56475.975
1564.18484	56029.675
1567.52853	55981.975
1570.86999	56414.575
1574.20922	57242.575
1577.54624	58140.875
1580.88103	58820.075
1584.2136	59988.275
1587.54395	62927.675
1590.87208	67791.575
1594.19801	73549.975
1597.52172	78412.075
1600.84321	79793.475
1604.16251	75646.175
1607.47959	67977.975
1610.79447	60121.175
1614.10715	53798.275
1617.41763	49452.375
1620.7259	47024.975
1624.03199	46197.275
1627.33587	46714.575
1630.63757	48577.675
1633.93707	51820.075
1637.23439	56900.675
1640.52951	64370.075
1643.82246	73218.675
1647.11321	79904.575
1650.40179	80045.375
1653.68819	72767.875
1656.97241	61918.675
1660.25446	52421.975
1663.53433	45907.675
1666.81203	42025.275
1670.08756	39737.075
1673.36092	38271.775
1676.63211	37344.075
1679.90115	36669.675
1683.16801	36138.275
1686.43272	35776.775
1689.69527	35560.375
1692.95567	35330.775
1696.2139	35192.275
1699.46999	35110.075
1702.72392	35050.075
1705.97571	35003.775
1709.22535	34901.375
1712.47284	34893.575
1715.71819	34872.875
1718.96139	34790.475
1722.20246	34693.975
1725.44139	34630.375
1728.67818	34499.275
1731.91284	34322.275
1735.14537	34108.475
1738.37576	33998.875
1741.60403	33848.775
1744.83017	33766.675
1748.05418	33692.375
1751.27607	33644.875
1754.49584	33687.675
1757.71349	33612.875
1760.92903	33572.075
1764.14244	33642.675
1767.35375	33564.375
1770.56294	33534.975
1773.77002	33495.475
1776.97499	33447.175
1780.17785	33404.575
1783.37861	33388.375
1786.57727	33308.975
1789.77382	33344.075
1792.96828	33308.475
1796.16064	33243.875
1799.3509	33176.575
1802.53907	33120.475
1805.72514	33022.775
1808.90913	32966.975
1812.09102	32943.575
1815.27083	32913.575
1818.44856	32848.875
1821.6242	32885.875
1824.79776	32847.375
1827.96924	32818.875
1831.13864	32834.875
1834.30597	32847.675
1837.47122	32833.975
1840.6344	32764.375
1843.7955	32793.375
1846.95454	32759.775
1850.11151	32782.275
1853.26642	32774.975
1856.41926	32748.575
1859.57004	32734.875
1862.71876	32743.175
1865.86542	32710.075
1869.01003	32714.975
1872.15258	32751.575
1875.29308	32698.375
1878.43152	32689.775
1881.56792	32694.875
1884.70227	32692.375
1887.83457	32714.875
1890.96482	32724.275
1894.09304	32607.975
1897.21921	32594.675
1900.34335	32638.275
1903.46544	32604.475
1906.58551	32554.075
1909.70353	32561.475
1912.81953	32481.175
1915.93349	32462.475
1919.04543	32410.375
1922.15534	32323.475
1925.26322	32267.575
1928.36908	32172.175
1931.47292	32141.675
1934.57473	32016.175
1937.67453	31973.975
1940.77232	31915.475
1943.86808	31863.175
1946.96184	31797.675
1950.05358	31698.675
1953.14331	31631.175
1956.23103	31527.175
1959.31675	31481.975
1962.40046	31436.275
1965.48217	31333.775
1968.56188	31299.275
1971.63959	31203.575
1974.7153	31121.475
1977.78901	31092.375
1980.86073	30993.575
1983.93046	30835.775
1986.99819	30769.175
1990.06394	30688.575
1993.1277	30628.775
1996.18947	30548.575
1999.24925	30495.875
2002.30706	30354.775
2005.36288	30359.875
2008.41672	30267.775
2011.46859	30203.075
2014.51848	30152.375
2017.56639	30127.575
2020.61233	30048.075
2023.6563	30062.375
2026.6983	30012.575
2029.73833	29981.275
2032.7764	29907.775
2035.8125	29924.675
2038.84664	29894.275
2041.87881	29894.675
2044.90903	29833.975
2047.93729	29797.675
2050.96359	29771.975
2053.98794	29755.575
2057.01034	29703.075
2060.03078	29732.375
2063.04927	29672.075
2066.06582	29694.775
2069.08042	29654.875
2072.09307	29652.075
2075.10378	29628.275
2078.11255	29638.175
2081.11938	29631.975
2084.12426	29593.475
2087.12722	29588.575
2090.12824	29584.375
2093.12732	29550.375
2096.12447	29592.475
2099.11969	29586.675
2102.11299	29669.175
2105.10435	29687.175
2108.09379	29666.875
2111.08131	29734.475
2114.0669	29703.675
2117.05057	29744.875
2120.03233	29838.575
2123.01216	29837.475
2125.99008	29840.375
2128.96609	29878.975
2131.94018	29918.775
2134.91236	29955.875
2137.88263	29934.775
2140.851	29972.575
2143.81746	30014.575
2146.78201	30001.775
2149.74466	30010.775
2152.7054	30021.975
2155.66425	30080.175
2158.6212	30102.175
2161.57625	30120.175
2164.52941	30124.075
2167.48067	30080.175
2170.43004	30065.475
2173.37752	30078.875
2176.32311	30090.875
2179.26681	30157.175
2182.20863	30174.375
2185.14856	30230.275
2188.08661	30233.375
2191.02278	30260.975
2193.95707	30286.975
2196.88948	30250.275
2199.82001	30260.075
2202.74867	30299.875
2205.67545	30322.275
2208.60037	30285.675
2211.52341	30256.675
2214.44458	30269.175
2217.36388	30203.075
2220.28132	30200.075
2223.1969	30142.575
2226.11061	30143.675
2229.02246	30095.475
2231.93245	30074.075
2234.84058	30031.975
2237.74686	30031.075
2240.65128	29979.775
2243.55385	29900.175
2246.45456	29890.475
2249.35343	29817.175
2252.25044	29818.475
2255.14561	29725.575
2258.03893	29710.275
2260.93041	29634.675
2263.82004	29575.875
2266.70783	29521.275
2269.59378	29448.975
2272.4779	29416.575
2275.36017	29345.875
2278.24061	29338.775
2281.11922	29310.875
2283.996	29315.175
2286.87094	29297.975
2289.74405	29318.075
2292.61534	29281.375
2295.4848	29240.875
2298.35243	29285.075
2301.21824	29325.975
2304.08223	29342.175
2306.94439	29396.675
2309.80474	29460.175
2312.66327	29484.175
2315.51999	29478.275
2318.37489	29492.375
2321.22797	29462.675
2324.07925	29458.675
2326.92871	29443.975
2329.77637	29447.575
2332.62222	29414.275
2335.46626	29406.975
2338.3085	29426.375
2341.14893	29410.475
2343.98756	29450.875
2346.8244	29473.275
2349.65943	29480.775
2352.49267	29426.875
2355.32411	29464.275
2358.15376	29420.075
2360.98161	29424.075
2363.80768	29360.575
2366.63195	29271.975
2369.45444	29185.275
2372.27514	29153.675
2375.09405	29092.175
2377.91118	29015.575
2380.72652	28979.075
2383.54009	28972.675
2386.35187	28989.475
2389.16188	28925.175
2391.97011	28951.875
2394.77657	28892.575
2397.58125	28834.475
2400.38416	28829.475
2403.18529	28790.875
2405.98466	28763.375
2408.78226	28723.775
2411.57809	28709.375
2414.37216	28680.675
2417.16446	28643.975
2419.955	28624.675
2422.74378	28588.575
2425.5308	28552.375
2428.31606	28548.075
2431.09956	28553.475
2433.88131	28565.575
2436.6613	28554.875
2439.43954	28599.075
2442.21603	28582.575
2444.99077	28541.875
2447.76377	28524.075
2450.53501	28516.375
2453.30451	28567.075
2456.07226	28529.375
2458.83827	28543.075
2461.60254	28562.775
2464.36507	28573.575
2467.12586	28572.175
2469.88492	28545.975
2472.64224	28633.375
2475.39782	28641.975
2478.15167	28688.775
2480.90379	28661.575
2483.65417	28662.175
2486.40283	28701.275
2489.14976	28695.675
2491.89497	28698.475
2494.63845	28765.575
2497.3802	28679.275
2500.12024	28730.775
2502.85855	28756.475
2505.59514	28745.175
2508.33002	28739.175
2511.06318	28728.175
2513.79462	28699.975
2516.52435	28704.575
2519.25237	28657.475
2521.97867	28616.875
2524.70327	28622.275
2527.42616	28640.475
2530.14734	28634.375
2532.86681	28556.175
2535.58458	28615.975
2538.30065	28589.375
2541.01501	28558.475
2543.72768	28571.475
2546.43864	28594.375
2549.14791	28592.875
2551.85548	28571.875
2554.56136	28561.775
2557.26554	28551.675
2559.96803	28551.275
2562.66883	28565.475
2565.36794	28558.875
2568.06536	28555.875
2570.7611	28524.875
2573.45514	28541.275
2576.14751	28512.575
2578.83819	28501.775
2581.52719	28534.575
2584.21451	28499.875
2586.90015	28492.175
2589.58411	28533.075
2592.2664	28510.275
2594.94701	28437.775
2597.62594	28449.175
2600.30321	28391.075
2602.9788	28418.375
2605.65273	28416.475
2608.32498	28402.675
2610.99557	28390.275
2613.66449	28458.475
2616.33175	28423.775
2618.99734	28434.075
2621.66128	28458.475
2624.32355	28415.375
2626.98416	28432.575
2629.64311	28425.075
2632.30041	28407.275
2634.95605	28395.575
2637.61004	28346.475
2640.26238	28346.075
2642.91306	28348.075
2645.56209	28278.575
2648.20948	28261.475
2650.85521	28249.175
2653.4993	28257.375
2656.14175	28226.475
2658.78255	28212.175
2661.42171	28229.075
2664.05923	28338.375
2666.6951	28324.375
2669.32934	28355.675
2671.96194	28398.775
2674.59291	28399.275
2677.22224	28336.275
2679.84993	28391.275
2682.476	28380.475
2685.10043	28351.975
2687.72324	28311.175
2690.34441	28303.475
2692.96396	28336.475
2695.58188	28320.775
2698.19818	28304.175
2700.81285	28299.775
2703.4259	28307.775
2706.03733	28368.975
2708.64714	28365.375
2711.25533	28350.275
2713.86191	28424.075
2716.46687	28476.175
2719.07021	28468.975
2721.67194	28507.275
2724.27206	28515.875
2726.87057	28490.975
2729.46747	28559.975
2732.06276	28574.675
2734.65644	28598.775
2737.24852	28560.875
2739.83899	28555.675
2742.42786	28608.275
2745.01513	28574.375
2747.60079	28574.275
2750.18486	28534.375
2752.76733	28534.375
2755.3482	28502.275
2757.92747	28527.375
2760.50515	28491.175
2763.08123	28549.575
2765.65573	28509.675
2768.22863	28560.075
2770.79994	28481.275
2773.36967	28495.575
2775.9378	28534.375
2778.50435	28531.775
2781.06932	28460.975
2783.6327	28516.275
2786.1945	28475.275
2788.75471	28405.975
2791.31335	28408.375
2793.87041	28374.475
2796.42589	28353.975
2798.97979	28391.675
2801.53212	28313.275
2804.08288	28329.275
2806.63206	28218.675
2809.17967	28136.175
2811.72571	28088.475
2814.27018	28049.575
2816.81308	28032.575
2819.35442	28024.875
2821.89419	27976.275
2824.43239	28032.275
2826.96904	27989.675
2829.50412	27965.975
2832.03763	27931.275
2834.56959	27990.175
2837.1	27954.875
2839.62884	27975.175
2842.15613	27966.175
2844.68186	28000.575
2847.20604	28062.775
2849.72867	28092.675
2852.24974	28079.575
2854.76927	28015.575
2857.28724	28038.775
2859.80367	28011.475
2862.31855	28014.775
2864.83189	27966.375
2867.34368	27988.075
2869.85393	27963.475
2872.36264	27955.875
2874.8698	28018.475
2877.37543	28054.475
2879.87952	28078.575
2882.38207	28089.575
2884.88308	28084.975
2887.38256	28110.275
2889.88051	28165.275
2892.37692	28159.475
2894.8718	28237.575
2897.36515	28311.675
2899.85698	28228.675
2902.34727	28306.475
2904.83604	28318.075
2907.32328	28368.775
2909.809	28351.475
2912.29319	28366.875
2914.77587	28345.675
2917.25702	28344.875
2919.73665	28326.375
2922.21476	28310.975
2924.69136	28278.775
2927.16644	28340.975
2929.64	28262.475
2932.11205	28227.275
2934.58258	28115.975
2937.05161	28122.575
2939.51912	28137.675
2941.98513	28157.475
2944.44962	28085.775
2946.91261	27981.875
2949.37409	28038.975
2951.83407	28015.275
2954.29254	28004.575
2956.74951	27953.775
2959.20498	27911.575
2961.65895	27939.475
2964.11142	27964.875
2966.56239	27829.775
2969.01186	27833.975
2971.45984	27717.575
2973.90632	27724.475
2976.35131	27678.275
2978.7948	27631.275
2981.23681	27540.375
2983.67732	27472.275
2986.11635	27336.775
2988.55388	27338.575
2990.98993	27284.375
2993.4245	27241.675
2995.85758	27207.075
2998.28917	27186.275
3000.71928	27182.575
3003.14791	27125.375
3005.57506	27075.575
3008.00073	27028.975
3010.42493	27032.975
3012.84764	27018.175
3015.26888	27009.475
3017.68865	26919.375
3020.10694	26917.275
3022.52376	26895.175
3024.9391	26829.875
3027.35298	26867.075
3029.76539	26822.075
3032.17632	26791.075
3034.5858	26734.175
3036.9938	26718.775
3039.40034	26738.775
3041.80542	26708.975
3044.20903	26705.675
3046.61118	26658.775
3049.01187	26618.375
3051.4111	26644.475
3053.80888	26544.075
3056.20519	26492.075
3058.60005	26463.675
3060.99345	26395.275
3063.3854	26336.975
3065.7759	26301.075
3068.16494	26251.275
3070.55254	26220.975
3072.93868	26172.875
3075.32338	26161.075
3077.70662	26108.275
3080.08842	26036.575
3082.46878	26011.675
3084.84769	26000.475
3087.22515	25993.775
3089.60118	25965.975
3091.97576	25954.975
3094.3489	25950.475
3096.72061	25982.875
3099.09087	25952.575
3101.4597	25893.175
3103.82709	25912.475
3106.19305	25856.275
3108.55757	25817.575
3110.92066	25748.075
3113.28232	25758.075
3115.64255	25682.575
3118.00134	25662.975
3120.35871	25640.075
3122.71466	25591.975
3125.06917	25515.975
3127.42226	25437.475
3129.77393	25528.975
3132.12417	25505.375
3134.47299	25477.975
3136.82039	25502.275
3139.16636	25534.475
3141.51092	25528.975
3143.85406	25559.175
3146.19579	25555.175
3148.53609	25537.375
3150.87499	25517.175
3153.21246	25545.075
3155.54853	25591.875
3157.88318	25538.075
3160.21642	25509.975
3162.54826	25519.975
3164.87868	25554.775
3167.2077	25471.575
3169.5353	25493.275
3171.86151	25439.875
3174.18631	25455.275
3176.5097	25437.675
3178.83169	25395.375
3181.15228	25434.575
3183.47147	25346.975
3185.78926	25358.275
3188.10565	25312.475
3190.42065	25330.975
3192.73424	25362.275
3195.04645	25362.375
3197.35725	25388.075
3199.66667	25333.175
3201.97469	25352.375
3204.28132	25329.875
3206.58656	25347.275
3208.8904	25338.575
3211.19287	25408.275
3213.49394	25381.475
3215.79363	25380.875
3218.09193	25367.175
3220.38884	25356.475
3222.68438	25402.975
3224.97853	25345.675
3227.2713	25321.975
3229.56269	25308.975
3231.8527	25243.475
3234.14133	25237.075
3236.42858	25235.075
3238.71446	25222.075
3240.99896	25164.975
3243.28209	25176.775
3245.56384	25152.675
3247.84423	25181.175
3250.12324	25141.475
3252.40088	25072.075
3254.67715	25038.275
3256.95205	24992.275
3259.22558	24981.275
3261.49775	24937.175
3263.76855	24952.275
3266.03799	24895.475
3268.30606	24892.275
3270.57277	24837.475
3272.83812	24807.475
3275.10211	24815.175
3277.36474	24742.575
3279.62601	24797.175
3281.88593	24776.375
3284.14448	24824.575
3286.40168	24818.075
3288.65753	24808.875
3290.91202	24751.775
3293.16516	24664.075
3295.41695	24605.175
3297.66738	24468.875
3299.91647	24395.075
3302.16421	24288.075
3304.4106	24170.475
3306.65564	24002.675
3308.89933	23891.075
3311.14169	23736.775
3313.38269	23565.675
3315.62236	23502.075
3317.86068	23282.975
3320.09766	23066.775
3322.3333	22912.375
3324.5676	22934.275
3326.80056	22584.175
3329.03219	22491.075
3331.26248	4.875
3333.49143	-0.825
3335.71905	-1.125
