Data from AgNPs_FTO_APTES_UA_2uM_CRN_50uM_R6G_10uM_NaF_0.1M_Addition_RamanShift__8__14-45-35-238.txt Node

Date: Wed Feb 02 14:45:35 GMT 2022
User: TCL
Spectrometer: QEP01345
Trigger mode: 4
Integration Time (sec): 7.000000E0
Scans to average: 10
Electric dark correction enabled: true
Nonlinearity correction enabled: false
Boxcar width: 0
XAxis mode: Raman Shifts
Number of Pixels in Spectrum: 1044
>>>>>Begin Spectral Data<<<<<
46.04893	1.4875
50.45542	0.2875
54.85868	-0.9125
59.25871	0.6875
63.6555	90.3875
68.04907	94.1875
72.43941	98.5875
76.82654	104.6875
81.21044	108.3875
85.59113	113.5875
89.96862	115.8875
94.34289	121.8875
98.71396	122.8875
103.08183	129.7875
107.4465	135.5875
111.80798	138.4875
116.16626	141.0875
120.52136	147.4875
124.87327	150.1875
129.222	159.5875
133.56755	171.2875
137.90993	185.9875
142.24913	203.1875
146.58517	225.7875
150.91804	264.3875
155.24774	316.4875
159.57429	392.7875
163.89768	504.2875
168.21792	670.1875
172.53501	912.4875
176.84895	1271.7875
181.15975	1784.1875
185.46741	2489.0875
189.77193	3426.0875
194.07331	4583.5875
198.37157	5894.6875
202.6667	7276.4875
206.9587	8634.0875
211.24758	9959.0875
215.53334	11315.2875
219.81599	12748.6875
224.09553	14331.6875
228.37195	16025.5875
232.64527	17892.9875
236.91549	19804.4875
241.18261	21771.4875
245.44663	23574.0875
249.70755	25179.8875
253.96539	26635.8875
258.22014	27862.6875
262.4718	28848.9875
266.72039	29560.0875
270.96589	29944.6875
275.20832	30075.4875
279.44768	29967.8875
283.68397	29766.3875
287.91719	29633.2875
292.14735	29615.6875
296.37445	29696.2875
300.59849	29821.5875
304.81948	30034.6875
309.03742	29943.6875
313.25231	29690.9875
317.46415	29077.3875
321.67296	28288.1875
325.87872	27586.7875
330.08145	27153.4875
334.28114	26989.7875
338.47781	27090.9875
342.67145	27363.6875
346.86207	27679.1875
351.04966	28075.1875
355.23424	28439.9875
359.4158	28871.8875
363.59435	29187.7875
367.76989	29384.7875
371.94243	29479.8875
376.11196	29505.0875
380.27849	29470.4875
384.44203	29518.6875
388.60257	29748.5875
392.76012	30178.9875
396.91468	30715.4875
401.06626	31273.4875
405.21485	31606.6875
409.36047	31465.9875
413.50311	31101.1875
417.64277	31028.3875
421.77947	31173.8875
425.9132	31372.4875
430.04396	31574.1875
434.17176	31660.6875
438.2966	31751.8875
442.41849	32121.8875
446.53742	32903.6875
450.6534	33814.4875
454.76644	34460.4875
458.87653	34729.0875
462.98368	34665.1875
467.08789	34344.9875
471.18916	33959.8875
475.2875	33678.1875
479.38291	33664.8875
483.4754	33586.2875
487.56496	33207.0875
491.6516	32514.5875
495.73531	31614.4875
499.81612	31106.0875
503.89401	31102.7875
507.96899	31245.3875
512.04106	31180.3875
516.11023	30907.3875
520.1765	30413.2875
524.23987	29887.0875
528.30034	29427.3875
532.35792	29037.8875
536.41261	28676.3875
540.46441	28435.6875
544.51333	28538.4875
548.55936	29054.1875
552.60252	29771.2875
556.64279	30659.2875
560.6802	31376.0875
564.71473	31963.9875
568.7464	32865.5875
572.7752	34357.1875
576.80114	36045.9875
580.82422	37615.7875
584.84444	39072.2875
588.86181	40906.6875
592.87633	42306.3875
596.888	41433.0875
600.89682	38842.3875
604.9028	37541.5875
608.90594	38551.9875
612.90624	39690.1875
616.90371	36739.3875
620.89834	31337.9875
624.89015	29048.1875
628.87913	28995.9875
632.86528	29317.3875
636.84862	29270.5875
640.82913	28672.3875
644.80683	27916.4875
648.78172	27486.2875
652.75379	27390.5875
656.72306	27691.5875
660.68952	27907.7875
664.65319	27710.5875
668.61405	27243.9875
672.57211	27168.4875
676.52738	27232.2875
680.47986	27316.7875
684.42955	27109.9875
688.37646	26928.6875
692.32058	27087.9875
696.26192	27504.6875
700.20048	28029.4875
704.13626	28338.3875
708.06928	28530.3875
711.99952	28523.4875
715.927	28497.5875
719.85171	28469.8875
723.77365	28272.1875
727.69284	27636.9875
731.60928	27149.3875
735.52295	26894.0875
739.43388	26835.5875
743.34206	26875.8875
747.24749	27158.9875
751.15017	27604.6875
755.05012	28277.9875
758.94733	29292.1875
762.8418	30912.4875
766.73354	33023.1875
770.62254	34721.1875
774.50882	34413.6875
778.39237	32550.1875
782.27321	30222.2875
786.15132	28531.5875
790.02671	27473.9875
793.89938	26892.8875
797.76935	26630.3875
801.6366	26515.9875
805.50115	26549.3875
809.36299	26424.1875
813.22213	26228.0875
817.07857	26120.6875
820.93231	25970.9875
824.78336	25734.6875
828.63172	25485.9875
832.47738	25326.7875
836.32036	25320.5875
840.16066	25279.8875
843.99827	25242.8875
847.8332	25191.4875
851.66546	25174.2875
855.49504	25270.5875
859.32195	25224.2875
863.1462	25134.6875
866.96777	25028.7875
870.78668	24999.2875
874.60293	24915.8875
878.41652	24916.1875
882.22745	24974.1875
886.03573	25080.8875
889.84136	25053.8875
893.64433	24952.0875
897.44466	24881.1875
901.24235	24887.2875
905.0374	24791.2875
908.8298	24785.2875
912.61957	24937.4875
916.40671	25292.3875
920.19121	25834.6875
923.97308	26211.5875
927.75233	26117.9875
931.52895	25617.5875
935.30295	24906.0875
939.07433	24322.8875
942.84309	23911.6875
946.60924	23642.1875
950.37278	23611.5875
954.13371	23650.7875
957.89203	23676.7875
961.64774	23707.5875
965.40086	23777.6875
969.15137	23718.7875
972.89929	23469.7875
976.64461	23253.3875
980.38733	23109.3875
984.12747	23142.7875
987.86502	23213.0875
991.59999	23300.3875
995.33237	23511.1875
999.06217	23847.6875
1002.78939	24333.9875
1006.51404	24859.0875
1010.23611	25330.0875
1013.95561	25748.9875
1017.67255	25807.1875
1021.38692	25567.5875
1025.09872	25146.4875
1028.80796	24756.9875
1032.51465	24647.0875
1036.21877	24813.5875
1039.92035	24975.4875
1043.61937	25079.8875
1047.31584	25147.5875
1051.00976	25119.4875
1054.70114	25245.5875
1058.38998	25490.4875
1062.07627	25904.6875
1065.76003	26377.9875
1069.44126	26860.7875
1073.11995	27417.5875
1076.79611	27769.6875
1080.46974	27918.3875
1084.14085	28061.1875
1087.80943	28406.7875
1091.47549	28803.5875
1095.13903	28920.6875
1098.80005	28533.4875
1102.45857	27577.4875
1106.11456	26755.3875
1109.76805	26276.9875
1113.41903	26237.9875
1117.06751	26409.6875
1120.71348	26677.6875
1124.35696	27019.5875
1127.99793	27428.3875
1131.63641	27739.5875
1135.2724	27783.3875
1138.90589	27897.1875
1142.5369	28120.8875
1146.16542	28616.5875
1149.79145	29148.5875
1153.415	29732.7875
1157.03607	30527.3875
1160.65467	31838.7875
1164.27079	33891.9875
1167.88443	36142.6875
1171.49561	38288.1875
1175.10432	40738.5875
1178.71056	43690.1875
1182.31434	46414.7875
1185.91565	47689.0875
1189.51451	47522.0875
1193.11091	46576.6875
1196.70485	45165.1875
1200.29634	43515.3875
1203.88538	42543.5875
1207.47197	42372.6875
1211.05612	42484.6875
1214.63782	41787.7875
1218.21708	40133.0875
1221.79391	38193.4875
1225.36829	36632.2875
1228.94024	35705.8875
1232.50976	35054.1875
1236.07685	34611.0875
1239.6415	34373.6875
1243.20374	34445.9875
1246.76355	34800.5875
1250.32093	35396.4875
1253.8759	36275.1875
1257.42845	37434.9875
1260.97859	38703.3875
1264.52631	40033.4875
1268.07163	41260.6875
1271.61453	42521.8875
1275.15503	43965.9875
1278.69312	45737.9875
1282.22882	47664.6875
1285.76211	50146.1875
1289.29301	52986.0875
1292.82151	56307.3875
1296.34761	60256.8875
1299.87133	64435.2875
1303.39266	68211.7875
1306.9116	70786.1875
1310.42815	72218.6875
1313.94233	72525.5875
1317.45412	71892.0875
1320.96354	71238.1875
1324.47058	71118.1875
1327.97525	71455.8875
1331.47754	71650.7875
1334.97747	71524.3875
1338.47502	70687.1875
1341.97022	69316.0875
1345.46305	67719.8875
1348.95352	66108.0875
1352.44163	64977.8875
1355.92738	65026.0875
1359.41078	66254.9875
1362.89183	67485.1875
1366.37053	66493.5875
1369.84688	62158.0875
1373.32088	55843.9875
1376.79254	51267.7875
1380.26186	50079.2875
1383.72883	50858.9875
1387.19347	51546.3875
1390.65578	51470.3875
1394.11575	51460.9875
1397.57339	52137.1875
1401.0287	53352.3875
1404.48168	54056.4875
1407.93234	53570.5875
1411.38068	51753.6875
1414.82669	48928.7875
1418.27039	46055.9875
1421.71177	43349.0875
1425.15083	41350.3875
1428.58758	40495.6875
1432.02203	40990.0875
1435.45416	42551.5875
1438.88399	44413.8875
1442.31151	45802.0875
1445.73673	46663.0875
1449.15965	47421.0875
1452.58027	47699.3875
1455.9986	47750.4875
1459.41463	47943.6875
1462.82837	48495.0875
1466.23982	49268.5875
1469.64898	49878.0875
1473.05586	50261.8875
1476.46045	50130.5875
1479.86276	49552.4875
1483.26279	48823.8875
1486.66054	48385.5875
1490.05602	48493.1875
1493.44922	49055.0875
1496.84016	49593.0875
1500.22882	50375.3875
1503.61521	51312.9875
1506.99934	52410.5875
1510.38121	53317.6875
1513.76081	53566.2875
1517.13816	53286.2875
1520.51324	52909.7875
1523.88607	53089.2875
1527.25665	53726.6875
1530.62498	54189.3875
1533.99105	53931.8875
1537.35488	52872.2875
1540.71647	50994.4875
1544.07581	48858.4875
1547.4329	46715.6875
1550.78776	44987.7875
1554.14038	43848.3875
1557.49077	43110.0875
1560.83892	42712.6875
1564.18484	42596.3875
1567.52853	42649.1875
1570.86999	43207.6875
1574.20922	44510.8875
1577.54624	45931.1875
1580.88103	47159.5875
1584.2136	48503.9875
1587.54395	50662.3875
1590.87208	53590.2875
1594.19801	56687.3875
1597.52172	59062.3875
1600.84321	58656.1875
1604.16251	54896.5875
1607.47959	49424.5875
1610.79447	44193.5875
1614.10715	39782.0875
1617.41763	36266.6875
1620.7259	34002.7875
1624.03199	32874.4875
1627.33587	33006.7875
1630.63757	34509.2875
1633.93707	37522.2875
1637.23439	42538.7875
1640.52951	49733.4875
1643.82246	58172.8875
1647.11321	64572.2875
1650.40179	65317.0875
1653.68819	59550.6875
1656.97241	50214.7875
1660.25446	41284.3875
1663.53433	34611.6875
1666.81203	30182.5875
1670.08756	27454.4875
1673.36092	25731.6875
1676.63211	24620.2875
1679.90115	23855.7875
1683.16801	23322.8875
1686.43272	22910.0875
1689.69527	22576.5875
1692.95567	22327.1875
1696.2139	22167.5875
1699.46999	22040.3875
1702.72392	21909.8875
1705.97571	21799.8875
1709.22535	21683.6875
1712.47284	21563.5875
1715.71819	21495.7875
1718.96139	21408.7875
1722.20246	21262.3875
1725.44139	21156.1875
1728.67818	20993.3875
1731.91284	20863.3875
1735.14537	20715.0875
1738.37576	20574.2875
1741.60403	20448.3875
1744.83017	20389.3875
1748.05418	20337.1875
1751.27607	20276.5875
1754.49584	20250.1875
1757.71349	20214.6875
1760.92903	20179.5875
1764.14244	20163.6875
1767.35375	20109.9875
1770.56294	20057.4875
1773.77002	19956.6875
1776.97499	19907.4875
1780.17785	19878.7875
1783.37861	19833.5875
1786.57727	19782.3875
1789.77382	19687.3875
1792.96828	19641.7875
1796.16064	19581.3875
1799.3509	19540.7875
1802.53907	19509.7875
1805.72514	19435.4875
1808.90913	19391.7875
1812.09102	19298.3875
1815.27083	19308.3875
1818.44856	19287.1875
1821.6242	19215.5875
1824.79776	19218.6875
1827.96924	19220.6875
1831.13864	19180.2875
1834.30597	19222.2875
1837.47122	19224.0875
1840.6344	19248.1875
1843.7955	19284.2875
1846.95454	19232.7875
1850.11151	19194.1875
1853.26642	19234.4875
1856.41926	19146.2875
1859.57004	19104.8875
1862.71876	19058.4875
1865.86542	19046.0875
1869.01003	19012.9875
1872.15258	18975.1875
1875.29308	18960.8875
1878.43152	18942.8875
1881.56792	18914.8875
1884.70227	18847.4875
1887.83457	18841.7875
1890.96482	18781.3875
1894.09304	18764.0875
1897.21921	18768.6875
1900.34335	18722.3875
1903.46544	18681.3875
1906.58551	18623.5875
1909.70353	18589.6875
1912.81953	18519.9875
1915.93349	18452.8875
1919.04543	18428.3875
1922.15534	18404.1875
1925.26322	18323.6875
1928.36908	18305.1875
1931.47292	18227.6875
1934.57473	18165.8875
1937.67453	18087.5875
1940.77232	18032.1875
1943.86808	18045.7875
1946.96184	17991.8875
1950.05358	17934.2875
1953.14331	17867.4875
1956.23103	17822.1875
1959.31675	17774.0875
1962.40046	17716.5875
1965.48217	17625.7875
1968.56188	17547.3875
1971.63959	17530.6875
1974.7153	17436.3875
1977.78901	17386.3875
1980.86073	17298.8875
1983.93046	17272.7875
1986.99819	17224.2875
1990.06394	17161.2875
1993.1277	17115.6875
1996.18947	17040.6875
1999.24925	16998.0875
2002.30706	16944.2875
2005.36288	16875.8875
2008.41672	16867.4875
2011.46859	16784.1875
2014.51848	16731.6875
2017.56639	16646.5875
2020.61233	16626.2875
2023.6563	16610.3875
2026.6983	16543.4875
2029.73833	16542.1875
2032.7764	16524.1875
2035.8125	16475.3875
2038.84664	16386.3875
2041.87881	16391.4875
2044.90903	16357.7875
2047.93729	16326.9875
2050.96359	16305.5875
2053.98794	16288.7875
2057.01034	16272.6875
2060.03078	16247.5875
2063.04927	16246.2875
2066.06582	16214.0875
2069.08042	16221.4875
2072.09307	16191.1875
2075.10378	16155.6875
2078.11255	16151.0875
2081.11938	16111.9875
2084.12426	16086.0875
2087.12722	16106.4875
2090.12824	16123.4875
2093.12732	16093.8875
2096.12447	16123.1875
2099.11969	16127.0875
2102.11299	16135.0875
2105.10435	16113.5875
2108.09379	16126.4875
2111.08131	16135.7875
2114.0669	16123.6875
2117.05057	16123.9875
2120.03233	16146.4875
2123.01216	16132.5875
2125.99008	16157.7875
2128.96609	16114.6875
2131.94018	16127.8875
2134.91236	16110.2875
2137.88263	16089.8875
2140.851	16100.3875
2143.81746	16158.1875
2146.78201	16123.7875
2149.74466	16109.5875
2152.7054	16106.2875
2155.66425	16089.9875
2158.6212	16084.4875
2161.57625	16080.4875
2164.52941	16052.7875
2167.48067	16035.2875
2170.43004	16013.8875
2173.37752	16007.4875
2176.32311	15989.2875
2179.26681	16004.8875
2182.20863	16016.7875
2185.14856	16016.2875
2188.08661	15994.1875
2191.02278	15992.0875
2193.95707	16008.9875
2196.88948	15938.8875
2199.82001	15896.0875
2202.74867	15875.3875
2205.67545	15895.8875
2208.60037	15844.5875
2211.52341	15764.1875
2214.44458	15763.7875
2217.36388	15752.7875
2220.28132	15772.1875
2223.1969	15730.4875
2226.11061	15713.7875
2229.02246	15655.3875
2231.93245	15666.2875
2234.84058	15630.8875
2237.74686	15564.0875
2240.65128	15596.1875
2243.55385	15560.2875
2246.45456	15530.5875
2249.35343	15504.1875
2252.25044	15449.4875
2255.14561	15408.1875
2258.03893	15376.7875
2260.93041	15330.1875
2263.82004	15283.3875
2266.70783	15247.5875
2269.59378	15173.6875
2272.4779	15161.1875
2275.36017	15075.0875
2278.24061	15050.8875
2281.11922	15013.2875
2283.996	15013.2875
2286.87094	14969.6875
2289.74405	14950.4875
2292.61534	14916.1875
2295.4848	14930.3875
2298.35243	14897.6875
2301.21824	14904.4875
2304.08223	14882.8875
2306.94439	14863.7875
2309.80474	14860.8875
2312.66327	14828.7875
2315.51999	14850.9875
2318.37489	14826.2875
2321.22797	14812.7875
2324.07925	14778.0875
2326.92871	14747.3875
2329.77637	14740.8875
2332.62222	14719.4875
2335.46626	14716.8875
2338.3085	14709.7875
2341.14893	14725.1875
2343.98756	14674.6875
2346.8244	14676.1875
2349.65943	14667.5875
2352.49267	14667.9875
2355.32411	14659.0875
2358.15376	14666.9875
2360.98161	14668.8875
2363.80768	14651.8875
2366.63195	14614.6875
2369.45444	14652.0875
2372.27514	14615.1875
2375.09405	14592.2875
2377.91118	14526.8875
2380.72652	14546.1875
2383.54009	14511.1875
2386.35187	14465.1875
2389.16188	14454.1875
2391.97011	14406.5875
2394.77657	14387.4875
2397.58125	14344.2875
2400.38416	14315.7875
2403.18529	14303.7875
2405.98466	14306.0875
2408.78226	14271.2875
2411.57809	14290.4875
2414.37216	14253.7875
2417.16446	14253.9875
2419.955	14225.3875
2422.74378	14243.3875
2425.5308	14166.8875
2428.31606	14168.8875
2431.09956	14152.0875
2433.88131	14148.6875
2436.6613	14139.8875
2439.43954	14160.9875
2442.21603	14133.6875
2444.99077	14095.2875
2447.76377	14116.3875
2450.53501	14092.4875
2453.30451	14112.5875
2456.07226	14092.6875
2458.83827	14120.7875
2461.60254	14087.0875
2464.36507	14097.7875
2467.12586	14081.1875
2469.88492	14082.0875
2472.64224	14085.4875
2475.39782	14098.4875
2478.15167	14073.2875
2480.90379	14064.6875
2483.65417	14089.9875
2486.40283	14077.4875
2489.14976	14106.8875
2491.89497	14063.4875
2494.63845	14101.2875
2497.3802	14070.4875
2500.12024	14057.3875
2502.85855	14063.8875
2505.59514	14067.9875
2508.33002	14095.3875
2511.06318	14054.9875
2513.79462	14071.6875
2516.52435	14043.8875
2519.25237	14018.5875
2521.97867	13983.7875
2524.70327	13960.4875
2527.42616	13970.1875
2530.14734	13959.5875
2532.86681	13952.4875
2535.58458	13959.7875
2538.30065	13937.7875
2541.01501	13937.0875
2543.72768	13920.4875
2546.43864	13913.1875
2549.14791	13881.4875
2551.85548	13899.9875
2554.56136	13874.4875
2557.26554	13881.9875
2559.96803	13856.4875
2562.66883	13830.5875
2565.36794	13851.2875
2568.06536	13846.2875
2570.7611	13811.9875
2573.45514	13799.9875
2576.14751	13810.9875
2578.83819	13780.9875
2581.52719	13781.1875
2584.21451	13769.4875
2586.90015	13766.9875
2589.58411	13739.2875
2592.2664	13748.4875
2594.94701	13732.5875
2597.62594	13733.3875
2600.30321	13691.1875
2602.9788	13696.5875
2605.65273	13697.0875
2608.32498	13745.3875
2610.99557	13719.0875
2613.66449	13735.7875
2616.33175	13709.1875
2618.99734	13717.7875
2621.66128	13688.8875
2624.32355	13677.9875
2626.98416	13665.3875
2629.64311	13668.1875
2632.30041	13691.4875
2634.95605	13670.4875
2637.61004	13663.3875
2640.26238	13658.0875
2642.91306	13681.0875
2645.56209	13665.5875
2648.20948	13656.0875
2650.85521	13653.9875
2653.4993	13651.6875
2656.14175	13668.6875
2658.78255	13685.3875
2661.42171	13703.3875
2664.05923	13747.9875
2666.6951	13695.7875
2669.32934	13729.4875
2671.96194	13717.0875
2674.59291	13724.8875
2677.22224	13708.0875
2679.84993	13722.5875
2682.476	13722.4875
2685.10043	13697.9875
2687.72324	13686.0875
2690.34441	13719.1875
2692.96396	13692.1875
2695.58188	13695.9875
2698.19818	13682.0875
2700.81285	13686.4875
2703.4259	13713.1875
2706.03733	13726.5875
2708.64714	13756.6875
2711.25533	13752.6875
2713.86191	13729.0875
2716.46687	13749.6875
2719.07021	13761.8875
2721.67194	13779.4875
2724.27206	13778.6875
2726.87057	13819.9875
2729.46747	13825.7875
2732.06276	13837.1875
2734.65644	13791.8875
2737.24852	13797.5875
2739.83899	13746.7875
2742.42786	13787.8875
2745.01513	13734.8875
2747.60079	13768.6875
2750.18486	13740.7875
2752.76733	13765.8875
2755.3482	13749.2875
2757.92747	13750.7875
2760.50515	13781.0875
2763.08123	13789.7875
2765.65573	13749.0875
2768.22863	13742.9875
2770.79994	13736.0875
2773.36967	13720.5875
2775.9378	13757.3875
2778.50435	13734.3875
2781.06932	13720.0875
2783.6327	13728.4875
2786.1945	13720.1875
2788.75471	13708.1875
2791.31335	13677.5875
2793.87041	13703.9875
2796.42589	13645.9875
2798.97979	13636.6875
2801.53212	13614.4875
2804.08288	13626.4875
2806.63206	13594.5875
2809.17967	13550.5875
2811.72571	13554.6875
2814.27018	13511.7875
2816.81308	13493.5875
2819.35442	13464.9875
2821.89419	13444.6875
2824.43239	13420.8875
2826.96904	13423.0875
2829.50412	13406.4875
2832.03763	13394.6875
2834.56959	13406.0875
2837.1	13399.1875
2839.62884	13380.2875
2842.15613	13356.5875
2844.68186	13380.1875
2847.20604	13422.8875
2849.72867	13430.5875
2852.24974	13422.7875
2854.76927	13416.2875
2857.28724	13377.3875
2859.80367	13380.7875
2862.31855	13338.1875
2864.83189	13330.0875
2867.34368	13301.5875
2869.85393	13315.5875
2872.36264	13282.5875
2874.8698	13289.3875
2877.37543	13245.6875
2879.87952	13280.1875
2882.38207	13241.1875
2884.88308	13256.9875
2887.38256	13272.6875
2889.88051	13284.8875
2892.37692	13275.2875
2894.8718	13246.8875
2897.36515	13290.4875
2899.85698	13266.9875
2902.34727	13320.8875
2904.83604	13291.5875
2907.32328	13314.2875
2909.809	13321.8875
2912.29319	13309.4875
2914.77587	13299.9875
2917.25702	13291.2875
2919.73665	13271.7875
2922.21476	13289.2875
2924.69136	13293.6875
2927.16644	13305.1875
2929.64	13308.3875
2932.11205	13287.0875
2934.58258	13254.0875
2937.05161	13272.2875
2939.51912	13294.6875
2941.98513	13265.6875
2944.44962	13209.2875
2946.91261	13142.2875
2949.37409	13178.1875
2951.83407	13122.1875
2954.29254	13099.8875
2956.74951	13098.4875
2959.20498	13085.5875
2961.65895	13044.9875
2964.11142	13041.8875
2966.56239	13011.9875
2969.01186	13012.1875
2971.45984	12955.7875
2973.90632	12921.3875
2976.35131	12874.3875
2978.7948	12866.8875
2981.23681	12806.9875
2983.67732	12802.1875
2986.11635	12759.1875
2988.55388	12740.7875
2990.98993	12709.2875
2993.4245	12655.5875
2995.85758	12624.9875
2998.28917	12608.8875
3000.71928	12591.1875
3003.14791	12540.5875
3005.57506	12517.5875
3008.00073	12441.5875
3010.42493	12432.2875
3012.84764	12426.8875
3015.26888	12388.4875
3017.68865	12392.3875
3020.10694	12322.0875
3022.52376	12307.7875
3024.9391	12269.8875
3027.35298	12265.8875
3029.76539	12268.2875
3032.17632	12256.5875
3034.5858	12255.7875
3036.9938	12228.3875
3039.40034	12221.6875
3041.80542	12199.4875
3044.20903	12156.8875
3046.61118	12134.2875
3049.01187	12129.5875
3051.4111	12082.4875
3053.80888	12060.5875
3056.20519	12022.0875
3058.60005	12009.4875
3060.99345	11971.3875
3063.3854	11947.8875
3065.7759	11891.8875
3068.16494	11855.9875
3070.55254	11781.7875
3072.93868	11771.2875
3075.32338	11726.4875
3077.70662	11699.6875
3080.08842	11675.8875
3082.46878	11669.5875
3084.84769	11640.0875
3087.22515	11615.4875
3089.60118	11637.1875
3091.97576	11620.3875
3094.3489	11577.5875
3096.72061	11560.3875
3099.09087	11575.0875
3101.4597	11529.5875
3103.82709	11544.1875
3106.19305	11498.9875
3108.55757	11515.1875
3110.92066	11459.8875
3113.28232	11424.4875
3115.64255	11347.2875
3118.00134	11347.3875
3120.35871	11321.8875
3122.71466	11310.0875
3125.06917	11299.3875
3127.42226	11277.3875
3129.77393	11270.9875
3132.12417	11231.9875
3134.47299	11230.6875
3136.82039	11227.6875
3139.16636	11205.1875
3141.51092	11181.7875
3143.85406	11214.5875
3146.19579	11213.2875
3148.53609	11195.2875
3150.87499	11199.6875
3153.21246	11170.5875
3155.54853	11193.9875
3157.88318	11164.0875
3160.21642	11158.7875
3162.54826	11143.3875
3164.87868	11136.3875
3167.2077	11133.0875
3169.5353	11150.8875
3171.86151	11110.9875
3174.18631	11114.7875
3176.5097	11109.5875
3178.83169	11099.0875
3181.15228	11065.5875
3183.47147	11046.0875
3185.78926	11048.6875
3188.10565	11044.6875
3190.42065	11014.1875
3192.73424	10990.6875
3195.04645	10994.5875
3197.35725	10950.8875
3199.66667	10970.9875
3201.97469	10945.8875
3204.28132	10928.2875
3206.58656	10911.2875
3208.8904	10922.6875
3211.19287	10950.5875
3213.49394	10934.4875
3215.79363	10914.1875
3218.09193	10905.3875
3220.38884	10898.0875
3222.68438	10930.6875
3224.97853	10895.2875
3227.2713	10857.2875
3229.56269	10860.1875
3231.8527	10860.3875
3234.14133	10842.6875
3236.42858	10825.8875
3238.71446	10817.8875
3240.99896	10799.7875
3243.28209	10793.4875
3245.56384	10777.1875
3247.84423	10761.8875
3250.12324	10758.1875
3252.40088	10750.2875
3254.67715	10708.0875
3256.95205	10698.1875
3259.22558	10670.9875
3261.49775	10647.1875
3263.76855	10607.3875
3266.03799	10575.5875
3268.30606	10546.3875
3270.57277	10568.2875
3272.83812	10530.9875
3275.10211	10500.1875
3277.36474	10487.3875
3279.62601	10484.1875
3281.88593	10465.7875
3284.14448	10494.1875
3286.40168	10477.9875
3288.65753	10464.6875
3290.91202	10449.1875
3293.16516	10410.7875
3295.41695	10389.0875
3297.66738	10327.3875
3299.91647	10259.5875
3302.16421	10206.9875
3304.4106	10146.2875
3306.65564	10078.7875
3308.89933	10031.8875
3311.14169	9960.6875
3313.38269	9873.8875
3315.62236	9828.4875
3317.86068	9719.7875
3320.09766	9629.4875
3322.3333	9521.6875
3324.5676	9522.3875
3326.80056	9363.8875
3329.03219	9306.1875
3331.26248	1.3875
3333.49143	-1.5125
3335.71905	-2.0125
