Data from AgNPs_FTO_APTES_UA_2uM_CRN_0uM_R6G_10uM_NaF_0.1M_Addition_RamanShift__43__10-54-34-972.txt Node

Date: Wed Feb 02 10:54:34 GMT 2022
User: TCL
Spectrometer: QEP01345
Trigger mode: 4
Integration Time (sec): 7.000000E0
Scans to average: 10
Electric dark correction enabled: true
Nonlinearity correction enabled: false
Boxcar width: 0
XAxis mode: Raman Shifts
Number of Pixels in Spectrum: 1044
>>>>>Begin Spectral Data<<<<<
46.04893	0.1375
50.45542	0.3375
54.85868	-2.0625
59.25871	-1.1625
63.6555	63.2375
68.04907	70.4375
72.43941	68.4375
76.82654	75.7375
81.21044	75.1375
85.59113	79.3375
89.96862	81.3375
94.34289	82.5375
98.71396	88.4375
103.08183	91.5375
107.4465	94.4375
111.80798	96.6375
116.16626	99.3375
120.52136	102.9375
124.87327	108.5375
129.222	118.6375
133.56755	124.8375
137.90993	133.5375
142.24913	158.4375
146.58517	181.0375
150.91804	210.1375
155.24774	256.6375
159.57429	325.5375
163.89768	419.7375
168.21792	564.0375
172.53501	773.5375
176.84895	1085.8375
181.15975	1523.6375
185.46741	2153.5375
189.77193	2961.9375
194.07331	3978.1375
198.37157	5132.2375
202.6667	6352.2375
206.9587	7590.7375
211.24758	8768.6375
215.53334	9957.2375
219.81599	11193.5375
224.09553	12602.4375
228.37195	14119.1375
232.64527	15781.1375
236.91549	17527.2375
241.18261	19294.4375
245.44663	20974.5375
249.70755	22452.0375
253.96539	23851.2375
258.22014	24910.5375
262.4718	25751.2375
266.72039	26270.8375
270.96589	26484.5375
275.20832	26468.4375
279.44768	26172.7375
283.68397	25893.0375
287.91719	25674.2375
292.14735	25435.9375
296.37445	25299.8375
300.59849	25203.9375
304.81948	25235.5375
309.03742	25212.5375
313.25231	25140.6375
317.46415	24696.4375
321.67296	24148.8375
325.87872	23623.8375
330.08145	23278.9375
334.28114	23201.5375
338.47781	23261.1375
342.67145	23380.4375
346.86207	23693.2375
351.04966	24005.4375
355.23424	24296.0375
359.4158	24596.7375
363.59435	24826.0375
367.76989	24983.7375
371.94243	24982.8375
376.11196	24943.7375
380.27849	24851.8375
384.44203	24805.6375
388.60257	24948.5375
392.76012	25293.1375
396.91468	25700.4375
401.06626	26199.9375
405.21485	26454.7375
409.36047	26301.9375
413.50311	25968.8375
417.64277	25745.7375
421.77947	25872.9375
425.9132	26077.9375
430.04396	26252.7375
434.17176	26327.8375
438.2966	26359.9375
442.41849	26631.9375
446.53742	27112.7375
450.6534	27625.3375
454.76644	27948.6375
458.87653	28093.5375
462.98368	28201.7375
467.08789	28076.0375
471.18916	27846.0375
475.2875	27643.5375
479.38291	27621.4375
483.4754	27700.3375
487.56496	27631.9375
491.6516	27324.4375
495.73531	26896.6375
499.81612	26479.7375
503.89401	26400.3375
507.96899	26388.9375
512.04106	26415.0375
516.11023	26219.7375
520.1765	25872.3375
524.23987	25524.7375
528.30034	25219.4375
532.35792	24905.1375
536.41261	24648.5375
540.46441	24429.7375
544.51333	24470.3375
548.55936	24715.6375
552.60252	25287.3375
556.64279	25929.9375
560.6802	26415.1375
564.71473	26953.6375
568.7464	27677.2375
572.7752	28953.8375
576.80114	30454.8375
580.82422	31787.8375
584.84444	32918.6375
588.86181	34368.9375
592.87633	35784.0375
596.888	35786.7375
600.89682	33873.1375
604.9028	32290.3375
608.90594	32766.9375
612.90624	33690.8375
616.90371	31625.2375
620.89834	27639.8375
624.89015	25920.6375
628.87913	25846.5375
632.86528	26144.3375
636.84862	26066.0375
640.82913	25324.7375
644.80683	24525.5375
648.78172	24012.4375
652.75379	23883.2375
656.72306	24009.2375
660.68952	24257.8375
664.65319	24179.1375
668.61405	23853.8375
672.57211	23791.9375
676.52738	23855.0375
680.47986	23820.9375
684.42955	23684.5375
688.37646	23569.2375
692.32058	23669.7375
696.26192	23964.8375
700.20048	24348.3375
704.13626	24659.1375
708.06928	24926.7375
711.99952	24978.5375
715.927	24886.2375
719.85171	24699.2375
723.77365	24430.7375
727.69284	23928.5375
731.60928	23540.2375
735.52295	23372.8375
739.43388	23316.8375
743.34206	23377.8375
747.24749	23599.6375
751.15017	23938.7375
755.05012	24438.8375
758.94733	25256.0375
762.8418	26433.1375
766.73354	28171.5375
770.62254	29584.0375
774.50882	29493.5375
778.39237	28099.1375
782.27321	26385.2375
786.15132	25043.5375
790.02671	24201.3375
793.89938	23649.9375
797.76935	23379.9375
801.6366	23230.1375
805.50115	23155.5375
809.36299	23112.0375
813.22213	22981.0375
817.07857	23002.8375
820.93231	22978.2375
824.78336	22892.9375
828.63172	22732.4375
832.47738	22613.5375
836.32036	22580.7375
840.16066	22549.5375
843.99827	22493.1375
847.8332	22463.0375
851.66546	22542.6375
855.49504	22640.4375
859.32195	22651.7375
863.1462	22606.7375
866.96777	22531.5375
870.78668	22553.4375
874.60293	22556.5375
878.41652	22609.0375
882.22745	22683.2375
886.03573	22791.7375
889.84136	22828.2375
893.64433	22856.7375
897.44466	22944.7375
901.24235	23029.7375
905.0374	23057.0375
908.8298	23077.9375
912.61957	23227.9375
916.40671	23553.2375
920.19121	23965.2375
923.97308	24344.6375
927.75233	24379.2375
931.52895	23996.1375
935.30295	23350.6375
939.07433	22669.7375
942.84309	22233.8375
946.60924	21892.7375
950.37278	21721.6375
954.13371	21625.5375
957.89203	21616.6375
961.64774	21560.8375
965.40086	21559.0375
969.15137	21460.7375
972.89929	21253.6375
976.64461	21071.5375
980.38733	20941.2375
984.12747	20931.8375
987.86502	20936.2375
991.59999	20960.9375
995.33237	21048.1375
999.06217	21283.9375
1002.78939	21631.1375
1006.51404	21954.2375
1010.23611	22433.6375
1013.95561	22737.7375
1017.67255	22784.2375
1021.38692	22538.7375
1025.09872	22147.6375
1028.80796	21837.0375
1032.51465	21741.4375
1036.21877	21737.5375
1039.92035	21863.1375
1043.61937	22032.5375
1047.31584	22162.4375
1051.00976	22290.6375
1054.70114	22459.8375
1058.38998	22589.6375
1062.07627	22858.4375
1065.76003	23168.2375
1069.44126	23560.2375
1073.11995	24072.5375
1076.79611	24447.9375
1080.46974	24538.6375
1084.14085	24625.2375
1087.80943	24824.0375
1091.47549	25165.2375
1095.13903	25452.3375
1098.80005	25113.6375
1102.45857	24296.9375
1106.11456	23574.3375
1109.76805	23091.9375
1113.41903	22912.1375
1117.06751	22967.4375
1120.71348	23111.5375
1124.35696	23394.0375
1127.99793	23696.4375
1131.63641	23963.9375
1135.2724	24027.2375
1138.90589	24059.9375
1142.5369	24182.9375
1146.16542	24415.2375
1149.79145	24807.4375
1153.415	25275.2375
1157.03607	25769.1375
1160.65467	26531.1375
1164.27079	27746.7375
1167.88443	29180.4375
1171.49561	30681.2375
1175.10432	32513.3375
1178.71056	34777.2375
1182.31434	36870.9375
1185.91565	37937.2375
1189.51451	38052.9375
1193.11091	37507.5375
1196.70485	36312.6375
1200.29634	34879.7375
1203.88538	33810.5375
1207.47197	33429.7375
1211.05612	33449.5375
1214.63782	33076.5375
1218.21708	32107.6375
1221.79391	30852.9375
1225.36829	29806.5375
1228.94024	29185.1375
1232.50976	28803.7375
1236.07685	28535.6375
1239.6415	28267.9375
1243.20374	28154.8375
1246.76355	28251.5375
1250.32093	28557.8375
1253.8759	29124.7375
1257.42845	30008.5375
1260.97859	31074.5375
1264.52631	32172.9375
1268.07163	33243.4375
1271.61453	34296.9375
1275.15503	35399.5375
1278.69312	36861.0375
1282.22882	38451.4375
1285.76211	40288.5375
1289.29301	42186.2375
1292.82151	44277.7375
1296.34761	46741.0375
1299.87133	49331.2375
1303.39266	51620.4375
1306.9116	53271.8375
1310.42815	54244.2375
1313.94233	54392.4375
1317.45412	53920.5375
1320.96354	53639.9375
1324.47058	53643.5375
1327.97525	53852.4375
1331.47754	53777.2375
1334.97747	53330.8375
1338.47502	52510.7375
1341.97022	51689.9375
1345.46305	50871.2375
1348.95352	50079.9375
1352.44163	49311.7375
1355.92738	49175.9375
1359.41078	50050.4375
1362.89183	51232.0375
1366.37053	51149.3375
1369.84688	48497.6375
1373.32088	44058.3375
1376.79254	40707.2375
1380.26186	39351.6375
1383.72883	39298.5375
1387.19347	39337.2375
1390.65578	39035.4375
1394.11575	38791.1375
1397.57339	39023.3375
1401.0287	39518.3375
1404.48168	39774.1375
1407.93234	39206.3375
1411.38068	37842.1375
1414.82669	36080.6375
1418.27039	34218.4375
1421.71177	32667.0375
1425.15083	31419.5375
1428.58758	30957.3375
1432.02203	31228.3375
1435.45416	32089.1375
1438.88399	33077.2375
1442.31151	33781.3375
1445.73673	34428.1375
1449.15965	34990.4375
1452.58027	35430.8375
1455.9986	35743.2375
1459.41463	36042.5375
1462.82837	36436.6375
1466.23982	36922.4375
1469.64898	37186.8375
1473.05586	37250.0375
1476.46045	37127.3375
1479.86276	36964.8375
1483.26279	36894.7375
1486.66054	36985.7375
1490.05602	37472.5375
1493.44922	38301.6375
1496.84016	39384.3375
1500.22882	40424.0375
1503.61521	41384.5375
1506.99934	42187.1375
1510.38121	42825.8375
1513.76081	43043.1375
1517.13816	42830.4375
1520.51324	42610.2375
1523.88607	42455.2375
1527.25665	42598.2375
1530.62498	42538.0375
1533.99105	41874.0375
1537.35488	40632.3375
1540.71647	39061.3375
1544.07581	37305.7375
1547.4329	35757.5375
1550.78776	34549.7375
1554.14038	33873.0375
1557.49077	33673.3375
1560.83892	33612.9375
1564.18484	33722.1375
1567.52853	33762.6375
1570.86999	34160.8375
1574.20922	35051.3375
1577.54624	35942.5375
1580.88103	36613.4375
1584.2136	37310.2375
1587.54395	38628.3375
1590.87208	40340.2375
1594.19801	42107.9375
1597.52172	43304.4375
1600.84321	42655.3375
1604.16251	39775.3375
1607.47959	36171.9375
1610.79447	32903.6375
1614.10715	30035.1375
1617.41763	27854.9375
1620.7259	26481.1375
1624.03199	25823.8375
1627.33587	25933.7375
1630.63757	26987.2375
1633.93707	29086.4375
1637.23439	32577.2375
1640.52951	37804.6375
1643.82246	44040.3375
1647.11321	49090.6375
1650.40179	50307.9375
1653.68819	46607.2375
1656.97241	40076.8375
1660.25446	33376.1375
1663.53433	28252.3375
1666.81203	24904.6375
1670.08756	22868.4375
1673.36092	21566.5375
1676.63211	20766.4375
1679.90115	20252.2375
1683.16801	19791.2375
1686.43272	19494.5375
1689.69527	19269.4375
1692.95567	19093.7375
1696.2139	18933.5375
1699.46999	18866.9375
1702.72392	18770.2375
1705.97571	18676.9375
1709.22535	18575.0375
1712.47284	18517.8375
1715.71819	18478.8375
1718.96139	18401.5375
1722.20246	18300.4375
1725.44139	18202.3375
1728.67818	18081.6375
1731.91284	17956.7375
1735.14537	17824.3375
1738.37576	17738.4375
1741.60403	17697.7375
1744.83017	17607.8375
1748.05418	17560.8375
1751.27607	17483.2375
1754.49584	17399.7375
1757.71349	17405.8375
1760.92903	17389.2375
1764.14244	17357.3375
1767.35375	17336.9375
1770.56294	17265.0375
1773.77002	17237.6375
1776.97499	17191.6375
1780.17785	17121.5375
1783.37861	17105.7375
1786.57727	17070.7375
1789.77382	17023.3375
1792.96828	16984.1375
1796.16064	16939.3375
1799.3509	16893.8375
1802.53907	16869.6375
1805.72514	16835.9375
1808.90913	16778.2375
1812.09102	16742.2375
1815.27083	16705.5375
1818.44856	16680.5375
1821.6242	16653.8375
1824.79776	16669.4375
1827.96924	16601.1375
1831.13864	16621.3375
1834.30597	16635.8375
1837.47122	16629.4375
1840.6344	16655.0375
1843.7955	16688.0375
1846.95454	16661.3375
1850.11151	16664.2375
1853.26642	16651.6375
1856.41926	16644.0375
1859.57004	16646.3375
1862.71876	16589.9375
1865.86542	16567.5375
1869.01003	16571.2375
1872.15258	16517.7375
1875.29308	16480.1375
1878.43152	16449.5375
1881.56792	16413.6375
1884.70227	16371.6375
1887.83457	16325.9375
1890.96482	16294.3375
1894.09304	16254.5375
1897.21921	16227.6375
1900.34335	16202.8375
1903.46544	16176.4375
1906.58551	16114.3375
1909.70353	16089.7375
1912.81953	16061.2375
1915.93349	15994.2375
1919.04543	15937.9375
1922.15534	15944.7375
1925.26322	15846.7375
1928.36908	15776.1375
1931.47292	15727.6375
1934.57473	15650.7375
1937.67453	15637.3375
1940.77232	15600.3375
1943.86808	15553.0375
1946.96184	15507.1375
1950.05358	15428.3375
1953.14331	15359.4375
1956.23103	15317.5375
1959.31675	15270.2375
1962.40046	15227.2375
1965.48217	15174.5375
1968.56188	15098.2375
1971.63959	15026.0375
1974.7153	14982.0375
1977.78901	14905.0375
1980.86073	14842.2375
1983.93046	14831.1375
1986.99819	14776.6375
1990.06394	14733.2375
1993.1277	14736.6375
1996.18947	14623.2375
1999.24925	14579.5375
2002.30706	14504.0375
2005.36288	14448.3375
2008.41672	14386.3375
2011.46859	14374.9375
2014.51848	14319.8375
2017.56639	14252.6375
2020.61233	14203.3375
2023.6563	14169.0375
2026.6983	14132.3375
2029.73833	14097.5375
2032.7764	14089.0375
2035.8125	14054.2375
2038.84664	14027.9375
2041.87881	13996.4375
2044.90903	13980.7375
2047.93729	13952.3375
2050.96359	13946.9375
2053.98794	13919.6375
2057.01034	13911.3375
2060.03078	13920.0375
2063.04927	13882.4375
2066.06582	13881.7375
2069.08042	13878.9375
2072.09307	13877.0375
2075.10378	13884.8375
2078.11255	13905.9375
2081.11938	13882.7375
2084.12426	13923.5375
2087.12722	13863.8375
2090.12824	13874.7375
2093.12732	13876.3375
2096.12447	13880.9375
2099.11969	13893.1375
2102.11299	13868.7375
2105.10435	13848.5375
2108.09379	13819.0375
2111.08131	13831.1375
2114.0669	13807.3375
2117.05057	13820.8375
2120.03233	13788.8375
2123.01216	13751.8375
2125.99008	13750.7375
2128.96609	13743.5375
2131.94018	13731.8375
2134.91236	13694.7375
2137.88263	13690.5375
2140.851	13687.1375
2143.81746	13681.9375
2146.78201	13661.9375
2149.74466	13641.5375
2152.7054	13616.0375
2155.66425	13608.9375
2158.6212	13619.0375
2161.57625	13601.9375
2164.52941	13573.7375
2167.48067	13588.5375
2170.43004	13569.7375
2173.37752	13561.8375
2176.32311	13551.7375
2179.26681	13558.3375
2182.20863	13520.0375
2185.14856	13516.4375
2188.08661	13540.8375
2191.02278	13493.4375
2193.95707	13499.7375
2196.88948	13472.9375
2199.82001	13447.1375
2202.74867	13384.5375
2205.67545	13431.3375
2208.60037	13376.2375
2211.52341	13354.1375
2214.44458	13339.5375
2217.36388	13292.1375
2220.28132	13263.5375
2223.1969	13237.8375
2226.11061	13192.3375
2229.02246	13210.5375
2231.93245	13218.4375
2234.84058	13199.7375
2237.74686	13149.7375
2240.65128	13148.9375
2243.55385	13109.6375
2246.45456	13104.9375
2249.35343	13034.8375
2252.25044	12971.6375
2255.14561	12942.9375
2258.03893	12942.6375
2260.93041	12885.7375
2263.82004	12862.5375
2266.70783	12818.9375
2269.59378	12795.8375
2272.4779	12760.6375
2275.36017	12721.5375
2278.24061	12674.8375
2281.11922	12650.1375
2283.996	12644.5375
2286.87094	12608.8375
2289.74405	12571.1375
2292.61534	12523.8375
2295.4848	12524.8375
2298.35243	12498.9375
2301.21824	12471.4375
2304.08223	12445.6375
2306.94439	12439.0375
2309.80474	12441.0375
2312.66327	12466.2375
2315.51999	12404.3375
2318.37489	12376.6375
2321.22797	12371.4375
2324.07925	12338.3375
2326.92871	12339.2375
2329.77637	12322.9375
2332.62222	12290.5375
2335.46626	12264.3375
2338.3085	12250.6375
2341.14893	12244.6375
2343.98756	12245.6375
2346.8244	12246.3375
2349.65943	12223.4375
2352.49267	12212.0375
2355.32411	12204.6375
2358.15376	12185.9375
2360.98161	12208.4375
2363.80768	12166.6375
2366.63195	12174.5375
2369.45444	12177.2375
2372.27514	12156.2375
2375.09405	12114.8375
2377.91118	12089.4375
2380.72652	12066.4375
2383.54009	12029.1375
2386.35187	12020.3375
2389.16188	11969.2375
2391.97011	11945.9375
2394.77657	11933.0375
2397.58125	11906.6375
2400.38416	11867.3375
2403.18529	11846.1375
2405.98466	11841.8375
2408.78226	11822.0375
2411.57809	11789.1375
2414.37216	11763.1375
2417.16446	11768.7375
2419.955	11754.6375
2422.74378	11727.1375
2425.5308	11717.5375
2428.31606	11749.5375
2431.09956	11720.8375
2433.88131	11678.7375
2436.6613	11677.4375
2439.43954	11674.3375
2442.21603	11649.0375
2444.99077	11659.1375
2447.76377	11653.1375
2450.53501	11653.2375
2453.30451	11640.3375
2456.07226	11610.1375
2458.83827	11621.7375
2461.60254	11620.4375
2464.36507	11604.3375
2467.12586	11586.3375
2469.88492	11565.9375
2472.64224	11566.6375
2475.39782	11563.5375
2478.15167	11553.9375
2480.90379	11525.2375
2483.65417	11524.5375
2486.40283	11521.2375
2489.14976	11537.1375
2491.89497	11502.9375
2494.63845	11519.1375
2497.3802	11509.1375
2500.12024	11484.2375
2502.85855	11501.5375
2505.59514	11485.4375
2508.33002	11476.3375
2511.06318	11442.2375
2513.79462	11419.3375
2516.52435	11447.4375
2519.25237	11401.4375
2521.97867	11351.0375
2524.70327	11399.3375
2527.42616	11366.0375
2530.14734	11337.1375
2532.86681	11330.8375
2535.58458	11292.3375
2538.30065	11271.1375
2541.01501	11265.8375
2543.72768	11241.3375
2546.43864	11196.3375
2549.14791	11203.9375
2551.85548	11202.7375
2554.56136	11171.9375
2557.26554	11176.8375
2559.96803	11142.0375
2562.66883	11115.1375
2565.36794	11147.3375
2568.06536	11162.4375
2570.7611	11097.1375
2573.45514	11080.1375
2576.14751	11045.8375
2578.83819	11045.5375
2581.52719	11056.4375
2584.21451	11054.1375
2586.90015	11028.5375
2589.58411	10979.2375
2592.2664	10978.1375
2594.94701	10960.9375
2597.62594	10941.8375
2600.30321	10901.9375
2602.9788	10910.3375
2605.65273	10917.5375
2608.32498	10926.4375
2610.99557	10881.5375
2613.66449	10885.8375
2616.33175	10886.4375
2618.99734	10871.4375
2621.66128	10866.1375
2624.32355	10875.9375
2626.98416	10855.4375
2629.64311	10850.1375
2632.30041	10855.3375
2634.95605	10837.1375
2637.61004	10817.5375
2640.26238	10792.5375
2642.91306	10788.7375
2645.56209	10786.0375
2648.20948	10773.4375
2650.85521	10763.0375
2653.4993	10790.6375
2656.14175	10782.1375
2658.78255	10807.6375
2661.42171	10808.9375
2664.05923	10781.0375
2666.6951	10778.4375
2669.32934	10783.8375
2671.96194	10793.3375
2674.59291	10798.6375
2677.22224	10789.2375
2679.84993	10802.3375
2682.476	10782.4375
2685.10043	10797.0375
2687.72324	10773.8375
2690.34441	10772.4375
2692.96396	10748.4375
2695.58188	10768.8375
2698.19818	10757.9375
2700.81285	10759.7375
2703.4259	10744.3375
2706.03733	10752.1375
2708.64714	10739.1375
2711.25533	10743.4375
2713.86191	10760.9375
2716.46687	10750.1375
2719.07021	10755.0375
2721.67194	10742.4375
2724.27206	10720.5375
2726.87057	10731.2375
2729.46747	10715.0375
2732.06276	10745.4375
2734.65644	10743.9375
2737.24852	10743.9375
2739.83899	10717.9375
2742.42786	10719.2375
2745.01513	10677.9375
2747.60079	10686.8375
2750.18486	10691.5375
2752.76733	10698.9375
2755.3482	10679.3375
2757.92747	10683.8375
2760.50515	10676.3375
2763.08123	10653.6375
2765.65573	10626.7375
2768.22863	10643.2375
2770.79994	10599.0375
2773.36967	10639.9375
2775.9378	10632.1375
2778.50435	10601.4375
2781.06932	10607.7375
2783.6327	10618.3375
2786.1945	10575.8375
2788.75471	10569.8375
2791.31335	10526.7375
2793.87041	10528.5375
2796.42589	10493.0375
2798.97979	10482.9375
2801.53212	10489.2375
2804.08288	10460.6375
2806.63206	10442.5375
2809.17967	10432.9375
2811.72571	10423.5375
2814.27018	10394.2375
2816.81308	10377.2375
2819.35442	10386.9375
2821.89419	10332.7375
2824.43239	10329.8375
2826.96904	10327.0375
2829.50412	10310.7375
2832.03763	10274.5375
2834.56959	10273.9375
2837.1	10265.2375
2839.62884	10275.8375
2842.15613	10296.5375
2844.68186	10302.6375
2847.20604	10334.4375
2849.72867	10348.7375
2852.24974	10359.4375
2854.76927	10337.7375
2857.28724	10311.6375
2859.80367	10263.0375
2862.31855	10243.5375
2864.83189	10239.2375
2867.34368	10215.0375
2869.85393	10238.3375
2872.36264	10222.1375
2874.8698	10232.2375
2877.37543	10218.3375
2879.87952	10221.3375
2882.38207	10232.2375
2884.88308	10212.2375
2887.38256	10232.1375
2889.88051	10233.6375
2892.37692	10251.9375
2894.8718	10224.2375
2897.36515	10211.7375
2899.85698	10239.1375
2902.34727	10255.6375
2904.83604	10258.9375
2907.32328	10259.5375
2909.809	10242.3375
2912.29319	10212.9375
2914.77587	10250.1375
2917.25702	10240.3375
2919.73665	10238.7375
2922.21476	10220.1375
2924.69136	10217.5375
2927.16644	10207.1375
2929.64	10201.9375
2932.11205	10203.3375
2934.58258	10155.7375
2937.05161	10164.7375
2939.51912	10156.4375
2941.98513	10147.9375
2944.44962	10133.6375
2946.91261	10056.8375
2949.37409	10052.8375
2951.83407	10016.3375
2954.29254	10029.2375
2956.74951	9968.5375
2959.20498	9957.5375
2961.65895	9934.2375
2964.11142	9910.0375
2966.56239	9894.8375
2969.01186	9923.1375
2971.45984	9860.3375
2973.90632	9860.9375
2976.35131	9786.4375
2978.7948	9769.2375
2981.23681	9761.3375
2983.67732	9716.2375
2986.11635	9696.9375
2988.55388	9667.3375
2990.98993	9615.1375
2993.4245	9600.8375
2995.85758	9566.1375
2998.28917	9539.7375
3000.71928	9525.7375
3003.14791	9523.7375
3005.57506	9520.9375
3008.00073	9452.7375
3010.42493	9470.4375
3012.84764	9440.7375
3015.26888	9378.7375
3017.68865	9389.7375
3020.10694	9378.0375
3022.52376	9337.5375
3024.9391	9322.6375
3027.35298	9328.0375
3029.76539	9304.8375
3032.17632	9296.2375
3034.5858	9274.9375
3036.9938	9242.7375
3039.40034	9209.9375
3041.80542	9218.3375
3044.20903	9194.5375
3046.61118	9193.3375
3049.01187	9150.0375
3051.4111	9135.5375
3053.80888	9137.4375
3056.20519	9118.5375
3058.60005	9081.5375
3060.99345	9052.0375
3063.3854	9011.4375
3065.7759	8991.2375
3068.16494	8990.1375
3070.55254	8942.3375
3072.93868	8952.6375
3075.32338	8891.8375
3077.70662	8843.1375
3080.08842	8834.3375
3082.46878	8839.1375
3084.84769	8810.4375
3087.22515	8805.7375
3089.60118	8808.7375
3091.97576	8825.3375
3094.3489	8799.2375
3096.72061	8788.3375
3099.09087	8789.5375
3101.4597	8744.1375
3103.82709	8743.2375
3106.19305	8731.9375
3108.55757	8732.0375
3110.92066	8696.9375
3113.28232	8698.4375
3115.64255	8631.8375
3118.00134	8618.9375
3120.35871	8621.1375
3122.71466	8612.3375
3125.06917	8569.6375
3127.42226	8554.9375
3129.77393	8561.1375
3132.12417	8561.5375
3134.47299	8535.5375
3136.82039	8545.9375
3139.16636	8531.7375
3141.51092	8509.2375
3143.85406	8509.2375
3146.19579	8532.2375
3148.53609	8540.5375
3150.87499	8546.4375
3153.21246	8530.6375
3155.54853	8532.5375
3157.88318	8522.0375
3160.21642	8498.0375
3162.54826	8523.8375
3164.87868	8497.9375
3167.2077	8482.8375
3169.5353	8467.4375
3171.86151	8481.3375
3174.18631	8448.2375
3176.5097	8464.0375
3178.83169	8448.3375
3181.15228	8452.0375
3183.47147	8427.7375
3185.78926	8408.2375
3188.10565	8402.6375
3190.42065	8399.1375
3192.73424	8405.4375
3195.04645	8383.4375
3197.35725	8374.3375
3199.66667	8351.2375
3201.97469	8364.0375
3204.28132	8342.9375
3206.58656	8358.1375
3208.8904	8338.9375
3211.19287	8349.9375
3213.49394	8346.3375
3215.79363	8316.0375
3218.09193	8332.7375
3220.38884	8317.0375
3222.68438	8316.8375
3224.97853	8297.3375
3227.2713	8299.1375
3229.56269	8281.2375
3231.8527	8291.2375
3234.14133	8282.4375
3236.42858	8240.5375
3238.71446	8237.3375
3240.99896	8245.9375
3243.28209	8236.0375
3245.56384	8225.7375
3247.84423	8237.5375
3250.12324	8197.9375
3252.40088	8193.0375
3254.67715	8196.3375
3256.95205	8145.8375
3259.22558	8132.3375
3261.49775	8103.4375
3263.76855	8119.2375
3266.03799	8087.4375
3268.30606	8073.9375
3270.57277	8037.7375
3272.83812	8010.5375
3275.10211	8024.9375
3277.36474	8022.9375
3279.62601	8007.9375
3281.88593	7993.3375
3284.14448	8009.0375
3286.40168	8010.8375
3288.65753	8011.5375
3290.91202	7981.5375
3293.16516	7938.8375
3295.41695	7923.3375
3297.66738	7886.1375
3299.91647	7844.6375
3302.16421	7806.7375
3304.4106	7756.6375
3306.65564	7718.8375
3308.89933	7639.3375
3311.14169	7602.8375
3313.38269	7535.9375
3315.62236	7497.4375
3317.86068	7416.9375
3320.09766	7334.6375
3322.3333	7299.5375
3324.5676	7270.6375
3326.80056	7156.6375
3329.03219	7107.0375
3331.26248	2.7375
3333.49143	-0.6625
3335.71905	0.0375
