Data from AgNPs_FTO_APTES_UA_2uM_CRN_200uM_R6G_10uM_NaF_0.1M_Addition_RamanShift__32__16-56-15-391.txt Node

Date: Wed Feb 02 16:56:15 GMT 2022
User: TCL
Spectrometer: QEP01345
Trigger mode: 4
Integration Time (sec): 7.000000E0
Scans to average: 10
Electric dark correction enabled: true
Nonlinearity correction enabled: false
Boxcar width: 0
XAxis mode: Raman Shifts
Number of Pixels in Spectrum: 1044
>>>>>Begin Spectral Data<<<<<
46.04893	1.0875
50.45542	0.0875
54.85868	-0.9125
59.25871	-0.1125
63.6555	40.6875
68.04907	44.3875
72.43941	47.1875
76.82654	51.5875
81.21044	56.2875
85.59113	59.9875
89.96862	60.4875
94.34289	59.7875
98.71396	61.7875
103.08183	66.9875
107.4465	67.3875
111.80798	69.9875
116.16626	69.7875
120.52136	69.2875
124.87327	72.4875
129.222	71.1875
133.56755	76.7875
137.90993	82.4875
142.24913	84.2875
146.58517	93.1875
150.91804	103.0875
155.24774	118.6875
159.57429	141.3875
163.89768	178.6875
168.21792	228.2875
172.53501	300.8875
176.84895	413.5875
181.15975	573.7875
185.46741	794.8875
189.77193	1081.8875
194.07331	1450.0875
198.37157	1863.3875
202.6667	2296.2875
206.9587	2731.8875
211.24758	3158.1875
215.53334	3632.7875
219.81599	4124.3875
224.09553	4714.2875
228.37195	5364.2875
232.64527	6046.1875
236.91549	6708.8875
241.18261	7326.3875
245.44663	7795.7875
249.70755	8165.8875
253.96539	8469.8875
258.22014	8746.7875
262.4718	9025.2875
266.72039	9244.9875
270.96589	9383.0875
275.20832	9420.4875
279.44768	9377.8875
283.68397	9325.8875
287.91719	9306.3875
292.14735	9394.5875
296.37445	9642.0875
300.59849	10021.0875
304.81948	10462.0875
309.03742	10776.4875
313.25231	10718.6875
317.46415	10139.2875
321.67296	9200.3875
325.87872	8443.3875
330.08145	8033.0875
334.28114	7996.3875
338.47781	8084.7875
342.67145	8374.4875
346.86207	8776.3875
351.04966	9394.1875
355.23424	10075.3875
359.4158	10583.5875
363.59435	10762.8875
367.76989	10725.8875
371.94243	10615.1875
376.11196	10514.9875
380.27849	10368.8875
384.44203	10197.4875
388.60257	10030.1875
392.76012	9929.3875
396.91468	10050.3875
401.06626	10365.1875
405.21485	10600.5875
409.36047	10437.2875
413.50311	9823.8875
417.64277	9191.5875
421.77947	8844.3875
425.9132	8667.7875
430.04396	8651.3875
434.17176	8679.3875
438.2966	8739.9875
442.41849	8906.4875
446.53742	9158.4875
450.6534	9407.1875
454.76644	9581.0875
458.87653	9621.4875
462.98368	9551.9875
467.08789	9442.1875
471.18916	9274.5875
475.2875	9074.7875
479.38291	8889.5875
483.4754	8712.4875
487.56496	8557.4875
491.6516	8431.4875
495.73531	8422.6875
499.81612	8449.0875
503.89401	8566.5875
507.96899	8711.1875
512.04106	8820.8875
516.11023	8949.6875
520.1765	9041.9875
524.23987	8968.4875
528.30034	8742.4875
532.35792	8492.6875
536.41261	8234.6875
540.46441	8021.4875
544.51333	7953.3875
548.55936	8036.8875
552.60252	8303.7875
556.64279	8624.6875
560.6802	8802.7875
564.71473	9037.7875
568.7464	9518.9875
572.7752	9863.2875
576.80114	9554.7875
580.82422	9029.4875
584.84444	8805.3875
588.86181	8619.1875
592.87633	8577.5875
596.888	8678.7875
600.89682	9028.4875
604.9028	10254.7875
608.90594	13561.6875
612.90624	18077.9875
616.90371	17589.5875
620.89834	11659.3875
624.89015	8751.6875
628.87913	8170.4875
632.86528	8231.2875
636.84862	8429.8875
640.82913	8308.5875
644.80683	7920.2875
648.78172	7603.1875
652.75379	7635.3875
656.72306	8033.2875
660.68952	8534.8875
664.65319	8470.3875
668.61405	7958.4875
672.57211	7671.6875
676.52738	7683.4875
680.47986	7687.1875
684.42955	7612.9875
688.37646	7581.3875
692.32058	7596.2875
696.26192	7669.2875
700.20048	7800.5875
704.13626	7945.5875
708.06928	7932.9875
711.99952	7874.5875
715.927	7775.6875
719.85171	7786.0875
723.77365	7750.5875
727.69284	7646.4875
731.60928	7495.5875
735.52295	7449.6875
739.43388	7467.0875
743.34206	7479.4875
747.24749	7529.6875
751.15017	7621.5875
755.05012	7839.4875
758.94733	8336.2875
762.8418	9488.4875
766.73354	11491.2875
770.62254	13611.2875
774.50882	14627.2875
778.39237	13900.7875
782.27321	11779.9875
786.15132	9612.4875
790.02671	8376.1875
793.89938	7799.1875
797.76935	7569.9875
801.6366	7455.4875
805.50115	7391.6875
809.36299	7333.3875
813.22213	7300.9875
817.07857	7281.7875
820.93231	7296.0875
824.78336	7325.7875
828.63172	7356.0875
832.47738	7356.3875
836.32036	7365.1875
840.16066	7245.5875
843.99827	7222.9875
847.8332	7147.1875
851.66546	7139.9875
855.49504	7134.1875
859.32195	7082.9875
863.1462	7030.6875
866.96777	6985.4875
870.78668	6980.6875
874.60293	6990.0875
878.41652	7014.9875
882.22745	7051.6875
886.03573	7090.6875
889.84136	7100.4875
893.64433	7027.9875
897.44466	6973.9875
901.24235	6998.7875
905.0374	6971.7875
908.8298	6948.1875
912.61957	6931.9875
916.40671	7011.5875
920.19121	7100.4875
923.97308	7175.3875
927.75233	7261.3875
931.52895	7336.9875
935.30295	7202.3875
939.07433	6918.8875
942.84309	6660.0875
946.60924	6516.3875
950.37278	6427.6875
954.13371	6372.7875
957.89203	6352.5875
961.64774	6338.1875
965.40086	6305.8875
969.15137	6285.1875
972.89929	6242.8875
976.64461	6235.0875
980.38733	6228.2875
984.12747	6242.5875
987.86502	6243.9875
991.59999	6285.3875
995.33237	6331.1875
999.06217	6486.4875
1002.78939	6638.3875
1006.51404	6820.4875
1010.23611	7016.6875
1013.95561	7107.2875
1017.67255	7038.6875
1021.38692	6935.9875
1025.09872	6817.1875
1028.80796	6718.4875
1032.51465	6721.7875
1036.21877	6800.1875
1039.92035	6944.3875
1043.61937	7031.2875
1047.31584	7053.2875
1051.00976	7045.8875
1054.70114	7057.7875
1058.38998	7076.1875
1062.07627	7126.3875
1065.76003	7210.3875
1069.44126	7258.7875
1073.11995	7348.5875
1076.79611	7458.4875
1080.46974	7587.5875
1084.14085	7801.4875
1087.80943	8084.1875
1091.47549	8235.6875
1095.13903	8081.2875
1098.80005	7763.0875
1102.45857	7408.6875
1106.11456	7245.2875
1109.76805	7236.1875
1113.41903	7379.8875
1117.06751	7698.3875
1120.71348	8111.0875
1124.35696	8585.0875
1127.99793	9015.7875
1131.63641	9038.4875
1135.2724	8465.6875
1138.90589	7936.1875
1142.5369	7630.7875
1146.16542	7467.2875
1149.79145	7421.0875
1153.415	7411.8875
1157.03607	7532.5875
1160.65467	7757.5875
1164.27079	8078.5875
1167.88443	8611.3875
1171.49561	9495.0875
1175.10432	10997.3875
1178.71056	12951.8875
1182.31434	14179.2875
1185.91565	14212.2875
1189.51451	13674.3875
1193.11091	12766.9875
1196.70485	11741.6875
1200.29634	10987.5875
1203.88538	10360.2875
1207.47197	9620.2875
1211.05612	8956.7875
1214.63782	8573.7875
1218.21708	8458.3875
1221.79391	8457.6875
1225.36829	8495.3875
1228.94024	8518.1875
1232.50976	8540.5875
1236.07685	8556.8875
1239.6415	8550.0875
1243.20374	8597.0875
1246.76355	8682.8875
1250.32093	8768.7875
1253.8759	8989.5875
1257.42845	9326.5875
1260.97859	9650.3875
1264.52631	10005.4875
1268.07163	10352.4875
1271.61453	10660.0875
1275.15503	10892.2875
1278.69312	10945.7875
1282.22882	10962.6875
1285.76211	11167.0875
1289.29301	11592.7875
1292.82151	12048.7875
1296.34761	12552.6875
1299.87133	13240.7875
1303.39266	14415.0875
1306.9116	16254.1875
1310.42815	18479.5875
1313.94233	19926.6875
1317.45412	19755.9875
1320.96354	18423.1875
1324.47058	16798.3875
1327.97525	15483.1875
1331.47754	14612.8875
1334.97747	14217.6875
1338.47502	14185.5875
1341.97022	14412.6875
1345.46305	14880.4875
1348.95352	15707.2875
1352.44163	16885.8875
1355.92738	18669.0875
1359.41078	21552.1875
1362.89183	24617.5875
1366.37053	24187.3875
1369.84688	20237.3875
1373.32088	16279.1875
1376.79254	13791.0875
1380.26186	12579.3875
1383.72883	12015.2875
1387.19347	11598.8875
1390.65578	11183.2875
1394.11575	10823.9875
1397.57339	10645.1875
1401.0287	10667.4875
1404.48168	10783.4875
1407.93234	10821.1875
1411.38068	10809.5875
1414.82669	10639.5875
1418.27039	10361.3875
1421.71177	10046.5875
1425.15083	9720.5875
1428.58758	9498.8875
1432.02203	9447.6875
1435.45416	9549.0875
1438.88399	9626.7875
1442.31151	9667.8875
1445.73673	9721.5875
1449.15965	9841.2875
1452.58027	9887.3875
1455.9986	9859.4875
1459.41463	9901.6875
1462.82837	10067.7875
1466.23982	10280.5875
1469.64898	10516.8875
1473.05586	10689.0875
1476.46045	10828.8875
1479.86276	10988.3875
1483.26279	11202.1875
1486.66054	11508.9875
1490.05602	11883.2875
1493.44922	12502.8875
1496.84016	13454.1875
1500.22882	14993.0875
1503.61521	17122.7875
1506.99934	19476.6875
1510.38121	21922.8875
1513.76081	23400.3875
1517.13816	22597.0875
1520.51324	19779.2875
1523.88607	16658.9875
1527.25665	14500.7875
1530.62498	13256.0875
1533.99105	12502.5875
1537.35488	12016.7875
1540.71647	11692.7875
1544.07581	11455.8875
1547.4329	11297.0875
1550.78776	11203.8875
1554.14038	11180.6875
1557.49077	11312.5875
1560.83892	11627.1875
1564.18484	12088.9875
1567.52853	12575.0875
1570.86999	12934.1875
1574.20922	13155.8875
1577.54624	13058.7875
1580.88103	12362.6875
1584.2136	11379.4875
1587.54395	10810.2875
1590.87208	10888.4875
1594.19801	11426.9875
1597.52172	12257.7875
1600.84321	12565.2875
1604.16251	12054.9875
1607.47959	11122.2875
1610.79447	10236.2875
1614.10715	9334.1875
1617.41763	8634.5875
1620.7259	8142.9875
1624.03199	7930.2875
1627.33587	7863.3875
1630.63757	8033.1875
1633.93707	8425.6875
1637.23439	9066.5875
1640.52951	10093.8875
1643.82246	11555.2875
1647.11321	13425.3875
1650.40179	15032.4875
1653.68819	14979.8875
1656.97241	13022.8875
1660.25446	10534.7875
1663.53433	8676.7875
1666.81203	7543.2875
1670.08756	6888.3875
1673.36092	6496.7875
1676.63211	6246.7875
1679.90115	6062.8875
1683.16801	5935.7875
1686.43272	5839.8875
1689.69527	5770.2875
1692.95567	5717.1875
1696.2139	5691.2875
1699.46999	5678.5875
1702.72392	5669.4875
1705.97571	5590.5875
1709.22535	5577.5875
1712.47284	5544.8875
1715.71819	5559.7875
1718.96139	5547.0875
1722.20246	5557.1875
1725.44139	5526.8875
1728.67818	5476.9875
1731.91284	5404.6875
1735.14537	5350.9875
1738.37576	5323.2875
1741.60403	5277.7875
1744.83017	5275.5875
1748.05418	5248.5875
1751.27607	5222.2875
1754.49584	5228.4875
1757.71349	5224.3875
1760.92903	5213.9875
1764.14244	5182.2875
1767.35375	5163.2875
1770.56294	5140.9875
1773.77002	5107.4875
1776.97499	5084.7875
1780.17785	5040.5875
1783.37861	5016.9875
1786.57727	4992.5875
1789.77382	4974.3875
1792.96828	4961.6875
1796.16064	4954.1875
1799.3509	4932.7875
1802.53907	4930.2875
1805.72514	4902.2875
1808.90913	4892.1875
1812.09102	4857.7875
1815.27083	4848.3875
1818.44856	4849.3875
1821.6242	4821.6875
1824.79776	4818.8875
1827.96924	4801.6875
1831.13864	4792.6875
1834.30597	4794.0875
1837.47122	4782.8875
1840.6344	4773.9875
1843.7955	4772.8875
1846.95454	4782.9875
1850.11151	4775.7875
1853.26642	4770.9875
1856.41926	4759.1875
1859.57004	4750.7875
1862.71876	4764.3875
1865.86542	4746.9875
1869.01003	4744.3875
1872.15258	4739.2875
1875.29308	4736.6875
1878.43152	4746.2875
1881.56792	4745.2875
1884.70227	4749.3875
1887.83457	4746.5875
1890.96482	4731.3875
1894.09304	4732.4875
1897.21921	4742.2875
1900.34335	4749.3875
1903.46544	4731.0875
1906.58551	4732.5875
1909.70353	4751.9875
1912.81953	4743.9875
1915.93349	4730.8875
1919.04543	4734.9875
1922.15534	4711.2875
1925.26322	4699.0875
1928.36908	4682.0875
1931.47292	4670.2875
1934.57473	4622.5875
1937.67453	4616.1875
1940.77232	4590.6875
1943.86808	4565.7875
1946.96184	4541.8875
1950.05358	4515.6875
1953.14331	4484.0875
1956.23103	4491.4875
1959.31675	4448.9875
1962.40046	4438.1875
1965.48217	4441.7875
1968.56188	4419.7875
1971.63959	4404.8875
1974.7153	4413.8875
1977.78901	4386.1875
1980.86073	4355.2875
1983.93046	4338.9875
1986.99819	4326.6875
1990.06394	4314.3875
1993.1277	4298.3875
1996.18947	4269.5875
1999.24925	4262.9875
2002.30706	4240.2875
2005.36288	4229.5875
2008.41672	4211.7875
2011.46859	4196.7875
2014.51848	4190.5875
2017.56639	4172.6875
2020.61233	4140.5875
2023.6563	4147.6875
2026.6983	4139.0875
2029.73833	4121.2875
2032.7764	4103.0875
2035.8125	4103.2875
2038.84664	4086.8875
2041.87881	4096.0875
2044.90903	4074.1875
2047.93729	4071.9875
2050.96359	4054.4875
2053.98794	4059.7875
2057.01034	4040.6875
2060.03078	4038.3875
2063.04927	4035.9875
2066.06582	4021.9875
2069.08042	4009.4875
2072.09307	4016.4875
2075.10378	4004.1875
2078.11255	4003.6875
2081.11938	3990.8875
2084.12426	3977.2875
2087.12722	3976.9875
2090.12824	3984.1875
2093.12732	3977.8875
2096.12447	3976.1875
2099.11969	3996.4875
2102.11299	3988.6875
2105.10435	3979.3875
2108.09379	3987.6875
2111.08131	3995.5875
2114.0669	3991.3875
2117.05057	3999.8875
2120.03233	3997.7875
2123.01216	4003.0875
2125.99008	3989.9875
2128.96609	3983.8875
2131.94018	3995.8875
2134.91236	4001.1875
2137.88263	3991.3875
2140.851	4007.8875
2143.81746	4007.8875
2146.78201	3995.4875
2149.74466	4000.3875
2152.7054	3987.0875
2155.66425	3977.9875
2158.6212	3972.0875
2161.57625	3969.6875
2164.52941	3969.9875
2167.48067	3953.1875
2170.43004	3956.5875
2173.37752	3943.6875
2176.32311	3938.5875
2179.26681	3955.4875
2182.20863	3946.1875
2185.14856	3941.7875
2188.08661	3942.8875
2191.02278	3934.1875
2193.95707	3923.0875
2196.88948	3926.4875
2199.82001	3912.9875
2202.74867	3912.0875
2205.67545	3894.4875
2208.60037	3891.8875
2211.52341	3891.2875
2214.44458	3880.0875
2217.36388	3878.5875
2220.28132	3866.5875
2223.1969	3841.5875
2226.11061	3840.6875
2229.02246	3834.1875
2231.93245	3841.6875
2234.84058	3817.0875
2237.74686	3801.6875
2240.65128	3806.5875
2243.55385	3794.6875
2246.45456	3796.1875
2249.35343	3788.7875
2252.25044	3776.1875
2255.14561	3782.7875
2258.03893	3795.5875
2260.93041	3772.5875
2263.82004	3772.3875
2266.70783	3770.0875
2269.59378	3776.3875
2272.4779	3745.2875
2275.36017	3726.0875
2278.24061	3733.0875
2281.11922	3719.0875
2283.996	3711.9875
2286.87094	3694.6875
2289.74405	3675.9875
2292.61534	3665.5875
2295.4848	3660.7875
2298.35243	3658.0875
2301.21824	3634.7875
2304.08223	3639.6875
2306.94439	3649.5875
2309.80474	3638.7875
2312.66327	3630.6875
2315.51999	3631.2875
2318.37489	3618.1875
2321.22797	3621.8875
2324.07925	3622.2875
2326.92871	3606.9875
2329.77637	3627.4875
2332.62222	3615.0875
2335.46626	3598.2875
2338.3085	3598.9875
2341.14893	3593.2875
2343.98756	3591.0875
2346.8244	3603.1875
2349.65943	3600.6875
2352.49267	3614.6875
2355.32411	3604.7875
2358.15376	3629.8875
2360.98161	3618.8875
2363.80768	3640.0875
2366.63195	3643.5875
2369.45444	3647.2875
2372.27514	3643.1875
2375.09405	3640.6875
2377.91118	3618.7875
2380.72652	3619.1875
2383.54009	3589.7875
2386.35187	3580.5875
2389.16188	3545.4875
2391.97011	3535.5875
2394.77657	3516.3875
2397.58125	3510.9875
2400.38416	3501.4875
2403.18529	3487.0875
2405.98466	3486.2875
2408.78226	3472.3875
2411.57809	3452.7875
2414.37216	3459.3875
2417.16446	3459.9875
2419.955	3452.8875
2422.74378	3445.8875
2425.5308	3436.0875
2428.31606	3450.8875
2431.09956	3439.3875
2433.88131	3439.3875
2436.6613	3445.4875
2439.43954	3439.7875
2442.21603	3453.6875
2444.99077	3440.2875
2447.76377	3458.9875
2450.53501	3457.0875
2453.30451	3446.2875
2456.07226	3447.7875
2458.83827	3442.3875
2461.60254	3451.1875
2464.36507	3445.3875
2467.12586	3437.8875
2469.88492	3440.7875
2472.64224	3443.2875
2475.39782	3441.7875
2478.15167	3445.8875
2480.90379	3459.0875
2483.65417	3455.8875
2486.40283	3464.5875
2489.14976	3470.3875
2491.89497	3474.6875
2494.63845	3493.2875
2497.3802	3490.5875
2500.12024	3481.7875
2502.85855	3469.9875
2505.59514	3452.0875
2508.33002	3437.5875
2511.06318	3431.3875
2513.79462	3406.7875
2516.52435	3404.6875
2519.25237	3383.1875
2521.97867	3361.7875
2524.70327	3349.6875
2527.42616	3353.6875
2530.14734	3339.3875
2532.86681	3316.8875
2535.58458	3335.6875
2538.30065	3329.0875
2541.01501	3332.3875
2543.72768	3311.4875
2546.43864	3315.3875
2549.14791	3330.8875
2551.85548	3321.1875
2554.56136	3311.3875
2557.26554	3323.4875
2559.96803	3305.8875
2562.66883	3326.3875
2565.36794	3314.1875
2568.06536	3296.6875
2570.7611	3303.6875
2573.45514	3274.1875
2576.14751	3284.8875
2578.83819	3264.5875
2581.52719	3259.7875
2584.21451	3260.2875
2586.90015	3261.1875
2589.58411	3266.0875
2592.2664	3248.9875
2594.94701	3250.6875
2597.62594	3252.2875
2600.30321	3234.6875
2602.9788	3232.9875
2605.65273	3226.0875
2608.32498	3235.0875
2610.99557	3219.0875
2613.66449	3229.9875
2616.33175	3231.3875
2618.99734	3233.5875
2621.66128	3224.4875
2624.32355	3211.6875
2626.98416	3225.9875
2629.64311	3203.3875
2632.30041	3216.1875
2634.95605	3198.3875
2637.61004	3206.5875
2640.26238	3185.1875
2642.91306	3180.3875
2645.56209	3176.6875
2648.20948	3184.0875
2650.85521	3172.2875
2653.4993	3163.7875
2656.14175	3174.9875
2658.78255	3183.1875
2661.42171	3182.8875
2664.05923	3183.6875
2666.6951	3189.3875
2669.32934	3206.7875
2671.96194	3195.6875
2674.59291	3194.7875
2677.22224	3200.7875
2679.84993	3212.2875
2682.476	3195.4875
2685.10043	3198.7875
2687.72324	3204.2875
2690.34441	3203.7875
2692.96396	3192.5875
2695.58188	3189.9875
2698.19818	3191.1875
2700.81285	3203.9875
2703.4259	3229.5875
2706.03733	3265.2875
2708.64714	3243.5875
2711.25533	3228.6875
2713.86191	3217.4875
2716.46687	3237.1875
2719.07021	3238.0875
2721.67194	3230.2875
2724.27206	3233.4875
2726.87057	3235.7875
2729.46747	3224.4875
2732.06276	3234.4875
2734.65644	3225.2875
2737.24852	3217.4875
2739.83899	3210.1875
2742.42786	3191.7875
2745.01513	3188.6875
2747.60079	3169.6875
2750.18486	3171.3875
2752.76733	3180.9875
2755.3482	3161.5875
2757.92747	3162.0875
2760.50515	3168.7875
2763.08123	3159.9875
2765.65573	3143.2875
2768.22863	3157.7875
2770.79994	3135.6875
2773.36967	3153.1875
2775.9378	3141.0875
2778.50435	3137.9875
2781.06932	3134.3875
2783.6327	3139.1875
2786.1945	3132.4875
2788.75471	3141.1875
2791.31335	3137.4875
2793.87041	3137.8875
2796.42589	3134.6875
2798.97979	3139.9875
2801.53212	3137.9875
2804.08288	3155.7875
2806.63206	3141.7875
2809.17967	3155.4875
2811.72571	3146.1875
2814.27018	3135.1875
2816.81308	3161.3875
2819.35442	3149.7875
2821.89419	3165.7875
2824.43239	3166.4875
2826.96904	3170.9875
2829.50412	3194.1875
2832.03763	3196.1875
2834.56959	3203.8875
2837.1	3214.2875
2839.62884	3260.9875
2842.15613	3298.8875
2844.68186	3374.3875
2847.20604	3468.4875
2849.72867	3538.2875
2852.24974	3565.6875
2854.76927	3573.8875
2857.28724	3558.1875
2859.80367	3538.4875
2862.31855	3522.7875
2864.83189	3492.6875
2867.34368	3490.8875
2869.85393	3484.1875
2872.36264	3477.1875
2874.8698	3486.2875
2877.37543	3484.7875
2879.87952	3475.7875
2882.38207	3471.2875
2884.88308	3461.6875
2887.38256	3467.4875
2889.88051	3462.1875
2892.37692	3463.2875
2894.8718	3468.6875
2897.36515	3458.7875
2899.85698	3476.4875
2902.34727	3487.0875
2904.83604	3484.4875
2907.32328	3501.9875
2909.809	3469.8875
2912.29319	3471.3875
2914.77587	3469.5875
2917.25702	3462.4875
2919.73665	3455.8875
2922.21476	3451.0875
2924.69136	3446.8875
2927.16644	3447.0875
2929.64	3452.6875
2932.11205	3424.2875
2934.58258	3416.5875
2937.05161	3388.1875
2939.51912	3380.1875
2941.98513	3332.6875
2944.44962	3301.2875
2946.91261	3239.5875
2949.37409	3207.5875
2951.83407	3175.9875
2954.29254	3171.3875
2956.74951	3128.9875
2959.20498	3116.4875
2961.65895	3108.4875
2964.11142	3093.6875
2966.56239	3078.6875
2969.01186	3068.5875
2971.45984	3048.1875
2973.90632	3031.4875
2976.35131	3005.1875
2978.7948	3003.6875
2981.23681	2994.6875
2983.67732	2982.4875
2986.11635	2964.3875
2988.55388	2948.8875
2990.98993	2949.2875
2993.4245	2951.7875
2995.85758	2926.6875
2998.28917	2927.0875
3000.71928	2917.3875
3003.14791	2914.3875
3005.57506	2897.6875
3008.00073	2901.0875
3010.42493	2882.7875
3012.84764	2890.2875
3015.26888	2887.5875
3017.68865	2878.1875
3020.10694	2894.5875
3022.52376	2879.8875
3024.9391	2881.9875
3027.35298	2879.9875
3029.76539	2862.8875
3032.17632	2869.6875
3034.5858	2861.6875
3036.9938	2847.4875
3039.40034	2844.5875
3041.80542	2856.3875
3044.20903	2843.3875
3046.61118	2837.3875
3049.01187	2825.3875
3051.4111	2830.8875
3053.80888	2823.6875
3056.20519	2818.8875
3058.60005	2823.4875
3060.99345	2823.0875
3063.3854	2822.6875
3065.7759	2819.1875
3068.16494	2820.4875
3070.55254	2806.3875
3072.93868	2798.4875
3075.32338	2803.0875
3077.70662	2785.8875
3080.08842	2767.0875
3082.46878	2769.0875
3084.84769	2747.2875
3087.22515	2758.8875
3089.60118	2744.9875
3091.97576	2741.7875
3094.3489	2724.3875
3096.72061	2754.2875
3099.09087	2746.4875
3101.4597	2738.5875
3103.82709	2740.9875
3106.19305	2737.9875
3108.55757	2726.1875
3110.92066	2730.6875
3113.28232	2731.5875
3115.64255	2719.6875
3118.00134	2714.7875
3120.35871	2701.5875
3122.71466	2710.5875
3125.06917	2709.5875
3127.42226	2705.4875
3129.77393	2721.7875
3132.12417	2722.9875
3134.47299	2728.6875
3136.82039	2726.5875
3139.16636	2726.0875
3141.51092	2731.6875
3143.85406	2742.2875
3146.19579	2743.7875
3148.53609	2764.4875
3150.87499	2761.3875
3153.21246	2764.5875
3155.54853	2763.0875
3157.88318	2770.9875
3160.21642	2757.0875
3162.54826	2770.8875
3164.87868	2782.8875
3167.2077	2793.8875
3169.5353	2785.2875
3171.86151	2788.1875
3174.18631	2787.1875
3176.5097	2805.2875
3178.83169	2791.0875
3181.15228	2785.4875
3183.47147	2791.1875
3185.78926	2800.1875
3188.10565	2806.0875
3190.42065	2802.4875
3192.73424	2799.1875
3195.04645	2802.2875
3197.35725	2810.2875
3199.66667	2810.9875
3201.97469	2830.1875
3204.28132	2808.2875
3206.58656	2828.6875
3208.8904	2830.2875
3211.19287	2834.0875
3213.49394	2839.7875
3215.79363	2840.5875
3218.09193	2851.9875
3220.38884	2848.1875
3222.68438	2860.1875
3224.97853	2843.8875
3227.2713	2849.5875
3229.56269	2847.5875
3231.8527	2845.2875
3234.14133	2841.5875
3236.42858	2842.4875
3238.71446	2838.2875
3240.99896	2830.7875
3243.28209	2825.9875
3245.56384	2832.2875
3247.84423	2828.3875
3250.12324	2827.4875
3252.40088	2827.5875
3254.67715	2823.6875
3256.95205	2822.9875
3259.22558	2817.0875
3261.49775	2813.4875
3263.76855	2813.5875
3266.03799	2801.1875
3268.30606	2791.3875
3270.57277	2798.6875
3272.83812	2793.1875
3275.10211	2780.6875
3277.36474	2792.4875
3279.62601	2780.3875
3281.88593	2769.4875
3284.14448	2778.6875
3286.40168	2784.1875
3288.65753	2769.9875
3290.91202	2783.5875
3293.16516	2771.3875
3295.41695	2760.4875
3297.66738	2731.4875
3299.91647	2737.0875
3302.16421	2723.7875
3304.4106	2712.1875
3306.65564	2689.6875
3308.89933	2679.1875
3311.14169	2665.5875
3313.38269	2650.8875
3315.62236	2641.1875
3317.86068	2597.6875
3320.09766	2571.9875
3322.3333	2552.4875
3324.5676	2554.4875
3326.80056	2525.1875
3329.03219	2504.7875
3331.26248	-0.0125
3333.49143	-0.0125
3335.71905	-0.7125
