Data from AgNPs_FTO_APTES_UA_2uM_CRN_5uM_R6G_10uM_NaF_0.1M_Addition_RamanShift__8__12-47-45-101.txt Node

Date: Wed Feb 02 12:47:45 GMT 2022
User: TCL
Spectrometer: QEP01345
Trigger mode: 4
Integration Time (sec): 7.000000E0
Scans to average: 10
Electric dark correction enabled: true
Nonlinearity correction enabled: false
Boxcar width: 0
XAxis mode: Raman Shifts
Number of Pixels in Spectrum: 1044
>>>>>Begin Spectral Data<<<<<
46.04893	0.5375
50.45542	0.3375
54.85868	-2.5625
59.25871	-0.8625
63.6555	96.9375
68.04907	98.8375
72.43941	102.4375
76.82654	104.5375
81.21044	110.4375
85.59113	115.2375
89.96862	114.0375
94.34289	118.1375
98.71396	128.1375
103.08183	128.5375
107.4465	135.3375
111.80798	138.0375
116.16626	142.7375
120.52136	152.6375
124.87327	161.1375
129.222	163.6375
133.56755	182.7375
137.90993	197.2375
142.24913	225.6375
146.58517	258.8375
150.91804	309.8375
155.24774	376.4375
159.57429	476.2375
163.89768	617.6375
168.21792	826.3375
172.53501	1147.5375
176.84895	1609.7375
181.15975	2258.5375
185.46741	3178.4375
189.77193	4373.2375
194.07331	5857.9375
198.37157	7538.3375
202.6667	9306.5375
206.9587	11039.1375
211.24758	12767.5375
215.53334	14480.0375
219.81599	16313.9375
224.09553	18363.0375
228.37195	20599.5375
232.64527	23041.7375
236.91549	25568.0375
241.18261	28084.1375
245.44663	30559.9375
249.70755	32699.9375
253.96539	34559.9375
258.22014	36134.5375
262.4718	37445.7375
266.72039	38294.2375
270.96589	38801.2375
275.20832	38825.3375
279.44768	38597.9375
283.68397	38225.5375
287.91719	37962.4375
292.14735	37819.4375
296.37445	37757.0375
300.59849	37912.0375
304.81948	38059.8375
309.03742	38086.9375
313.25231	37859.1375
317.46415	37284.1375
321.67296	36465.5375
325.87872	35836.3375
330.08145	35381.1375
334.28114	35230.3375
338.47781	35398.9375
342.67145	35722.5375
346.86207	36191.5375
351.04966	36787.2375
355.23424	37483.7375
359.4158	38016.0375
363.59435	38441.8375
367.76989	38744.1375
371.94243	38955.6375
376.11196	39029.9375
380.27849	39080.1375
384.44203	39173.0375
388.60257	39545.7375
392.76012	40025.5375
396.91468	40654.9375
401.06626	41379.8375
405.21485	41764.5375
409.36047	41573.7375
413.50311	41217.4375
417.64277	41115.0375
421.77947	41425.1375
425.9132	41685.1375
430.04396	41927.3375
434.17176	42043.9375
438.2966	42126.2375
442.41849	42602.7375
446.53742	43412.9375
450.6534	44562.5375
454.76644	45316.7375
458.87653	45556.3375
462.98368	45373.2375
467.08789	44932.8375
471.18916	44280.3375
475.2875	43632.8375
479.38291	43434.7375
483.4754	43150.1375
487.56496	42776.1375
491.6516	42126.2375
495.73531	41499.1375
499.81612	41175.5375
503.89401	41385.7375
507.96899	41584.3375
512.04106	41677.4375
516.11023	41310.2375
520.1765	40723.9375
524.23987	40116.8375
528.30034	39590.7375
532.35792	39140.4375
536.41261	38751.7375
540.46441	38357.9375
544.51333	38361.1375
548.55936	38820.0375
552.60252	39703.8375
556.64279	40700.8375
560.6802	41472.0375
564.71473	42014.1375
568.7464	42871.6375
572.7752	44481.4375
576.80114	46322.5375
580.82422	48339.2375
584.84444	50639.2375
588.86181	53416.2375
592.87633	55544.4375
596.888	54685.3375
600.89682	51306.5375
604.9028	49680.2375
608.90594	51263.5375
612.90624	53283.1375
616.90371	49705.0375
620.89834	42861.5375
624.89015	39857.5375
628.87913	39693.6375
632.86528	40066.2375
636.84862	39892.3375
640.82913	39110.0375
644.80683	38160.9375
648.78172	37552.1375
652.75379	37640.8375
656.72306	38045.0375
660.68952	38442.9375
664.65319	38160.3375
668.61405	37444.8375
672.57211	37392.5375
676.52738	37578.9375
680.47986	37549.3375
684.42955	37308.1375
688.37646	37111.5375
692.32058	37359.3375
696.26192	37984.9375
700.20048	38624.5375
704.13626	38963.2375
708.06928	39070.1375
711.99952	39002.2375
715.927	38947.1375
719.85171	38985.1375
723.77365	38763.4375
727.69284	38077.6375
731.60928	37381.7375
735.52295	37112.4375
739.43388	37107.0375
743.34206	37199.0375
747.24749	37546.1375
751.15017	38018.7375
755.05012	38790.3375
758.94733	40041.6375
762.8418	41828.6375
766.73354	44404.3375
770.62254	46540.5375
774.50882	46451.0375
778.39237	44201.1375
782.27321	41568.0375
786.15132	39452.6375
790.02671	38063.3375
793.89938	37374.0375
797.76935	37086.5375
801.6366	37000.0375
805.50115	36960.5375
809.36299	36750.1375
813.22213	36451.8375
817.07857	36244.9375
820.93231	36093.0375
824.78336	35805.6375
828.63172	35549.3375
832.47738	35410.3375
836.32036	35351.8375
840.16066	35455.7375
843.99827	35450.1375
847.8332	35409.4375
851.66546	35343.6375
855.49504	35464.9375
859.32195	35406.0375
863.1462	35298.5375
866.96777	35236.8375
870.78668	35213.1375
874.60293	35211.7375
878.41652	35231.1375
882.22745	35388.4375
886.03573	35478.5375
889.84136	35507.2375
893.64433	35411.8375
897.44466	35222.5375
901.24235	35143.3375
905.0374	35058.0375
908.8298	35008.5375
912.61957	35173.3375
916.40671	35523.7375
920.19121	36138.2375
923.97308	36618.0375
927.75233	36564.0375
931.52895	36119.7375
935.30295	35392.5375
939.07433	34654.4375
942.84309	34108.3375
946.60924	33836.5375
950.37278	33744.8375
954.13371	33760.4375
957.89203	33800.3375
961.64774	33839.6375
965.40086	33884.7375
969.15137	33787.8375
972.89929	33602.9375
976.64461	33407.8375
980.38733	33321.0375
984.12747	33360.5375
987.86502	33443.9375
991.59999	33674.8375
995.33237	33936.0375
999.06217	34474.4375
1002.78939	35224.0375
1006.51404	36059.9375
1010.23611	36847.1375
1013.95561	37301.9375
1017.67255	37338.1375
1021.38692	36903.5375
1025.09872	36205.8375
1028.80796	35662.7375
1032.51465	35696.4375
1036.21877	35921.2375
1039.92035	36145.1375
1043.61937	36235.6375
1047.31584	36149.2375
1051.00976	36021.9375
1054.70114	36065.5375
1058.38998	36276.9375
1062.07627	36638.7375
1065.76003	37215.0375
1069.44126	37804.0375
1073.11995	38530.1375
1076.79611	39133.2375
1080.46974	39421.0375
1084.14085	39698.2375
1087.80943	40109.2375
1091.47549	40612.9375
1095.13903	40722.5375
1098.80005	40141.0375
1102.45857	39077.6375
1106.11456	38140.6375
1109.76805	37600.1375
1113.41903	37405.4375
1117.06751	37520.4375
1120.71348	37754.8375
1124.35696	38187.7375
1127.99793	38668.8375
1131.63641	38915.6375
1135.2724	39052.3375
1138.90589	39031.8375
1142.5369	39296.2375
1146.16542	39753.9375
1149.79145	40292.0375
1153.415	40766.8375
1157.03607	41592.5375
1160.65467	43066.2375
1164.27079	45494.1375
1167.88443	48193.4375
1171.49561	50727.3375
1175.10432	53684.6375
1178.71056	57347.9375
1182.31434	60823.6375
1185.91565	62623.7375
1189.51451	62469.5375
1193.11091	61133.2375
1196.70485	59346.7375
1200.29634	57212.8375
1203.88538	55779.9375
1207.47197	55405.2375
1211.05612	55282.4375
1214.63782	54589.0375
1218.21708	52934.0375
1221.79391	50860.0375
1225.36829	49116.1375
1228.94024	48212.3375
1232.50976	47527.8375
1236.07685	46903.2375
1239.6415	46491.6375
1243.20374	46445.6375
1246.76355	46843.8375
1250.32093	47543.5375
1253.8759	48594.4375
1257.42845	50104.5375
1260.97859	51737.7375
1264.52631	53459.1375
1268.07163	55156.4375
1271.61453	56813.1375
1275.15503	58541.2375
1278.69312	60436.6375
1282.22882	62685.0375
1285.76211	65405.8375
1289.29301	68428.4375
1292.82151	71990.4375
1296.34761	76118.2375
1299.87133	80800.0375
1303.39266	85376.0375
1306.9116	88979.9375
1310.42815	91249.3375
1313.94233	91900.0375
1317.45412	91173.8375
1320.96354	90079.5375
1324.47058	89596.5375
1327.97525	89564.4375
1331.47754	89700.3375
1334.97747	89272.4375
1338.47502	88286.8375
1341.97022	86753.0375
1345.46305	84857.1375
1348.95352	83113.4375
1352.44163	82038.9375
1355.92738	82646.6375
1359.41078	85072.3375
1362.89183	87121.8375
1366.37053	86220.6375
1369.84688	80635.4375
1373.32088	72477.7375
1376.79254	66310.3375
1380.26186	64340.5375
1383.72883	64826.6375
1387.19347	65393.3375
1390.65578	64815.2375
1394.11575	64588.2375
1397.57339	65358.8375
1401.0287	66785.6375
1404.48168	67993.0375
1407.93234	67803.5375
1411.38068	66042.4375
1414.82669	63441.4375
1418.27039	60381.5375
1421.71177	57500.0375
1425.15083	55299.2375
1428.58758	54445.3375
1432.02203	55101.1375
1435.45416	56990.3375
1438.88399	59115.6375
1442.31151	60638.6375
1445.73673	61413.7375
1449.15965	61813.4375
1452.58027	61772.8375
1455.9986	61588.4375
1459.41463	61765.7375
1462.82837	62630.2375
1466.23982	63683.3375
1469.64898	64743.9375
1473.05586	65352.8375
1476.46045	65388.4375
1479.86276	64834.1375
1483.26279	63975.7375
1486.66054	63585.0375
1490.05602	63804.4375
1493.44922	64471.5375
1496.84016	65143.4375
1500.22882	65950.6375
1503.61521	66921.7375
1506.99934	68113.8375
1510.38121	68919.3375
1513.76081	69072.2375
1517.13816	68536.5375
1520.51324	67784.8375
1523.88607	67586.8375
1527.25665	68062.9375
1530.62498	68500.9375
1533.99105	68093.5375
1537.35488	66956.0375
1540.71647	64988.8375
1544.07581	62683.9375
1547.4329	60392.3375
1550.78776	58602.3375
1554.14038	57289.3375
1557.49077	56645.2375
1560.83892	56121.9375
1564.18484	55799.6375
1567.52853	55688.7375
1570.86999	56077.5375
1574.20922	57399.3375
1577.54624	58793.3375
1580.88103	59929.2375
1584.2136	61437.1375
1587.54395	64154.2375
1590.87208	68114.8375
1594.19801	72390.6375
1597.52172	75852.3375
1600.84321	75841.1375
1604.16251	71391.3375
1607.47959	64700.0375
1610.79447	58246.4375
1614.10715	52777.1375
1617.41763	48390.5375
1620.7259	45496.5375
1624.03199	44197.8375
1627.33587	44310.1375
1630.63757	46034.9375
1633.93707	49653.5375
1637.23439	55826.1375
1640.52951	64655.2375
1643.82246	75066.1375
1647.11321	82768.2375
1650.40179	83223.4375
1653.68819	75678.7375
1656.97241	64131.4375
1660.25446	53449.1375
1663.53433	45686.4375
1666.81203	40725.0375
1670.08756	37648.1375
1673.36092	35802.3375
1676.63211	34518.4375
1679.90115	33676.5375
1683.16801	32973.4375
1686.43272	32501.4375
1689.69527	32161.5375
1692.95567	31851.6375
1696.2139	31688.0375
1699.46999	31555.9375
1702.72392	31384.1375
1705.97571	31202.6375
1709.22535	31094.8375
1712.47284	31014.0375
1715.71819	30989.0375
1718.96139	30856.2375
1722.20246	30742.3375
1725.44139	30618.5375
1728.67818	30386.8375
1731.91284	30125.2375
1735.14537	29986.5375
1738.37576	29871.9375
1741.60403	29748.5375
1744.83017	29640.2375
1748.05418	29561.9375
1751.27607	29462.1375
1754.49584	29438.3375
1757.71349	29409.8375
1760.92903	29372.2375
1764.14244	29287.9375
1767.35375	29280.9375
1770.56294	29155.6375
1773.77002	29117.8375
1776.97499	28998.2375
1780.17785	28983.1375
1783.37861	28938.0375
1786.57727	28881.2375
1789.77382	28827.0375
1792.96828	28738.6375
1796.16064	28625.0375
1799.3509	28616.4375
1802.53907	28495.9375
1805.72514	28400.3375
1808.90913	28374.8375
1812.09102	28351.4375
1815.27083	28311.6375
1818.44856	28260.6375
1821.6242	28238.5375
1824.79776	28256.9375
1827.96924	28249.1375
1831.13864	28261.7375
1834.30597	28291.3375
1837.47122	28215.8375
1840.6344	28198.4375
1843.7955	28219.8375
1846.95454	28213.7375
1850.11151	28173.2375
1853.26642	28182.3375
1856.41926	28141.4375
1859.57004	28123.8375
1862.71876	28079.7375
1865.86542	28032.0375
1869.01003	28024.8375
1872.15258	27982.9375
1875.29308	27899.6375
1878.43152	27853.1375
1881.56792	27797.2375
1884.70227	27756.8375
1887.83457	27733.3375
1890.96482	27700.7375
1894.09304	27655.7375
1897.21921	27613.1375
1900.34335	27592.8375
1903.46544	27511.3375
1906.58551	27514.6375
1909.70353	27414.6375
1912.81953	27315.9375
1915.93349	27250.3375
1919.04543	27195.7375
1922.15534	27107.0375
1925.26322	27068.8375
1928.36908	26986.0375
1931.47292	26935.1375
1934.57473	26814.6375
1937.67453	26705.0375
1940.77232	26630.4375
1943.86808	26582.2375
1946.96184	26549.6375
1950.05358	26461.1375
1953.14331	26398.9375
1956.23103	26326.9375
1959.31675	26246.2375
1962.40046	26170.3375
1965.48217	26068.3375
1968.56188	25953.1375
1971.63959	25900.1375
1974.7153	25837.4375
1977.78901	25730.7375
1980.86073	25687.9375
1983.93046	25583.9375
1986.99819	25436.6375
1990.06394	25364.7375
1993.1277	25299.0375
1996.18947	25211.0375
1999.24925	25156.6375
2002.30706	25131.0375
2005.36288	25035.7375
2008.41672	24917.2375
2011.46859	24859.7375
2014.51848	24795.6375
2017.56639	24740.5375
2020.61233	24698.6375
2023.6563	24648.8375
2026.6983	24604.4375
2029.73833	24529.5375
2032.7764	24493.3375
2035.8125	24479.4375
2038.84664	24364.5375
2041.87881	24371.0375
2044.90903	24293.9375
2047.93729	24264.1375
2050.96359	24205.4375
2053.98794	24149.1375
2057.01034	24164.8375
2060.03078	24160.9375
2063.04927	24112.5375
2066.06582	24081.2375
2069.08042	24097.0375
2072.09307	24031.1375
2075.10378	24034.0375
2078.11255	24053.5375
2081.11938	24068.0375
2084.12426	23993.8375
2087.12722	23990.5375
2090.12824	23932.3375
2093.12732	23956.6375
2096.12447	23998.9375
2099.11969	23991.4375
2102.11299	23990.9375
2105.10435	24023.4375
2108.09379	24006.8375
2111.08131	24005.4375
2114.0669	23985.1375
2117.05057	23994.0375
2120.03233	24009.9375
2123.01216	24052.8375
2125.99008	24000.8375
2128.96609	24038.2375
2131.94018	23991.7375
2134.91236	24001.1375
2137.88263	24015.8375
2140.851	23976.6375
2143.81746	24001.5375
2146.78201	23975.7375
2149.74466	24001.2375
2152.7054	24019.5375
2155.66425	24016.4375
2158.6212	24003.9375
2161.57625	24023.3375
2164.52941	23990.4375
2167.48067	23969.5375
2170.43004	23931.7375
2173.37752	23917.1375
2176.32311	23918.7375
2179.26681	23927.8375
2182.20863	23937.3375
2185.14856	23946.9375
2188.08661	23963.6375
2191.02278	23951.8375
2193.95707	23936.7375
2196.88948	23871.1375
2199.82001	23816.1375
2202.74867	23818.8375
2205.67545	23838.2375
2208.60037	23748.3375
2211.52341	23710.4375
2214.44458	23688.7375
2217.36388	23649.6375
2220.28132	23609.0375
2223.1969	23569.8375
2226.11061	23538.2375
2229.02246	23520.0375
2231.93245	23520.0375
2234.84058	23460.2375
2237.74686	23450.5375
2240.65128	23401.9375
2243.55385	23337.6375
2246.45456	23307.5375
2249.35343	23253.5375
2252.25044	23194.6375
2255.14561	23109.1375
2258.03893	23093.2375
2260.93041	23000.6375
2263.82004	22930.8375
2266.70783	22879.6375
2269.59378	22810.0375
2272.4779	22765.1375
2275.36017	22695.3375
2278.24061	22692.2375
2281.11922	22622.4375
2283.996	22608.6375
2286.87094	22565.4375
2289.74405	22546.4375
2292.61534	22499.1375
2295.4848	22459.1375
2298.35243	22455.0375
2301.21824	22409.4375
2304.08223	22432.9375
2306.94439	22462.5375
2309.80474	22410.0375
2312.66327	22374.0375
2315.51999	22387.1375
2318.37489	22382.4375
2321.22797	22340.8375
2324.07925	22294.1375
2326.92871	22293.2375
2329.77637	22302.5375
2332.62222	22229.9375
2335.46626	22184.7375
2338.3085	22187.0375
2341.14893	22168.1375
2343.98756	22185.0375
2346.8244	22125.0375
2349.65943	22148.3375
2352.49267	22138.9375
2355.32411	22161.8375
2358.15376	22157.2375
2360.98161	22147.6375
2363.80768	22159.9375
2366.63195	22076.7375
2369.45444	22075.9375
2372.27514	22035.4375
2375.09405	21984.7375
2377.91118	21933.4375
2380.72652	21896.4375
2383.54009	21845.9375
2386.35187	21795.5375
2389.16188	21746.7375
2391.97011	21729.0375
2394.77657	21728.6375
2397.58125	21674.3375
2400.38416	21603.0375
2403.18529	21556.7375
2405.98466	21578.9375
2408.78226	21556.0375
2411.57809	21552.6375
2414.37216	21511.4375
2417.16446	21500.7375
2419.955	21468.0375
2422.74378	21481.5375
2425.5308	21447.1375
2428.31606	21428.5375
2431.09956	21451.0375
2433.88131	21384.3375
2436.6613	21426.2375
2439.43954	21391.4375
2442.21603	21360.6375
2444.99077	21326.0375
2447.76377	21336.9375
2450.53501	21313.0375
2453.30451	21336.7375
2456.07226	21319.8375
2458.83827	21269.8375
2461.60254	21273.7375
2464.36507	21274.2375
2467.12586	21253.9375
2469.88492	21258.5375
2472.64224	21236.3375
2475.39782	21282.0375
2478.15167	21294.0375
2480.90379	21237.3375
2483.65417	21255.7375
2486.40283	21236.2375
2489.14976	21201.1375
2491.89497	21210.3375
2494.63845	21244.3375
2497.3802	21218.5375
2500.12024	21205.7375
2502.85855	21216.7375
2505.59514	21246.5375
2508.33002	21188.7375
2511.06318	21157.8375
2513.79462	21150.0375
2516.52435	21132.7375
2519.25237	21116.6375
2521.97867	21097.9375
2524.70327	21094.4375
2527.42616	21047.9375
2530.14734	21070.8375
2532.86681	21029.5375
2535.58458	21015.3375
2538.30065	20992.5375
2541.01501	20991.4375
2543.72768	20952.2375
2546.43864	20970.5375
2549.14791	20952.7375
2551.85548	20881.9375
2554.56136	20904.1375
2557.26554	20910.3375
2559.96803	20873.1375
2562.66883	20829.0375
2565.36794	20818.9375
2568.06536	20778.8375
2570.7611	20791.4375
2573.45514	20786.8375
2576.14751	20770.3375
2578.83819	20713.3375
2581.52719	20719.7375
2584.21451	20683.4375
2586.90015	20685.3375
2589.58411	20655.1375
2592.2664	20660.0375
2594.94701	20618.0375
2597.62594	20602.6375
2600.30321	20554.3375
2602.9788	20556.6375
2605.65273	20535.0375
2608.32498	20545.2375
2610.99557	20510.8375
2613.66449	20535.2375
2616.33175	20530.4375
2618.99734	20529.0375
2621.66128	20561.2375
2624.32355	20491.5375
2626.98416	20488.4375
2629.64311	20459.9375
2632.30041	20442.4375
2634.95605	20456.0375
2637.61004	20411.3375
2640.26238	20400.6375
2642.91306	20399.4375
2645.56209	20413.5375
2648.20948	20380.6375
2650.85521	20380.0375
2653.4993	20359.7375
2656.14175	20394.7375
2658.78255	20433.0375
2661.42171	20407.6375
2664.05923	20457.1375
2666.6951	20444.4375
2669.32934	20430.9375
2671.96194	20445.7375
2674.59291	20454.4375
2677.22224	20459.3375
2679.84993	20439.2375
2682.476	20412.4375
2685.10043	20410.3375
2687.72324	20379.6375
2690.34441	20430.2375
2692.96396	20471.1375
2695.58188	20464.3375
2698.19818	20448.3375
2700.81285	20445.9375
2703.4259	20417.6375
2706.03733	20488.4375
2708.64714	20433.8375
2711.25533	20440.3375
2713.86191	20453.1375
2716.46687	20492.6375
2719.07021	20495.4375
2721.67194	20506.0375
2724.27206	20507.8375
2726.87057	20489.4375
2729.46747	20508.7375
2732.06276	20522.6375
2734.65644	20534.1375
2737.24852	20551.3375
2739.83899	20534.9375
2742.42786	20522.4375
2745.01513	20499.3375
2747.60079	20470.6375
2750.18486	20462.3375
2752.76733	20470.3375
2755.3482	20426.8375
2757.92747	20443.3375
2760.50515	20450.2375
2763.08123	20409.3375
2765.65573	20403.5375
2768.22863	20370.2375
2770.79994	20363.5375
2773.36967	20352.6375
2775.9378	20361.9375
2778.50435	20364.9375
2781.06932	20346.2375
2783.6327	20301.5375
2786.1945	20309.6375
2788.75471	20271.1375
2791.31335	20211.0375
2793.87041	20208.2375
2796.42589	20185.3375
2798.97979	20235.0375
2801.53212	20194.3375
2804.08288	20179.2375
2806.63206	20104.5375
2809.17967	20051.3375
2811.72571	19986.0375
2814.27018	19952.6375
2816.81308	19939.5375
2819.35442	19893.3375
2821.89419	19868.0375
2824.43239	19864.7375
2826.96904	19796.5375
2829.50412	19794.2375
2832.03763	19763.8375
2834.56959	19775.7375
2837.1	19758.1375
2839.62884	19717.2375
2842.15613	19706.6375
2844.68186	19739.6375
2847.20604	19769.6375
2849.72867	19800.0375
2852.24974	19759.4375
2854.76927	19748.2375
2857.28724	19711.3375
2859.80367	19693.9375
2862.31855	19646.6375
2864.83189	19645.1375
2867.34368	19599.7375
2869.85393	19597.8375
2872.36264	19567.0375
2874.8698	19565.3375
2877.37543	19566.9375
2879.87952	19572.5375
2882.38207	19553.9375
2884.88308	19473.7375
2887.38256	19507.9375
2889.88051	19511.0375
2892.37692	19571.4375
2894.8718	19597.7375
2897.36515	19631.0375
2899.85698	19590.7375
2902.34727	19596.3375
2904.83604	19601.2375
2907.32328	19616.9375
2909.809	19589.0375
2912.29319	19573.1375
2914.77587	19554.2375
2917.25702	19604.5375
2919.73665	19568.6375
2922.21476	19620.7375
2924.69136	19561.2375
2927.16644	19608.5375
2929.64	19565.4375
2932.11205	19539.2375
2934.58258	19522.7375
2937.05161	19479.4375
2939.51912	19524.3375
2941.98513	19473.3375
2944.44962	19418.9375
2946.91261	19323.7375
2949.37409	19390.0375
2951.83407	19371.3375
2954.29254	19338.8375
2956.74951	19308.6375
2959.20498	19271.0375
2961.65895	19240.4375
2964.11142	19199.3375
2966.56239	19170.1375
2969.01186	19150.5375
2971.45984	19107.8375
2973.90632	19101.9375
2976.35131	19011.1375
2978.7948	19020.4375
2981.23681	18950.9375
2983.67732	18909.2375
2986.11635	18827.9375
2988.55388	18770.1375
2990.98993	18730.4375
2993.4245	18660.1375
2995.85758	18607.7375
2998.28917	18570.9375
3000.71928	18540.4375
3003.14791	18528.3375
3005.57506	18461.8375
3008.00073	18424.3375
3010.42493	18392.5375
3012.84764	18367.3375
3015.26888	18334.2375
3017.68865	18289.1375
3020.10694	18267.2375
3022.52376	18215.2375
3024.9391	18170.2375
3027.35298	18184.0375
3029.76539	18172.2375
3032.17632	18143.3375
3034.5858	18104.7375
3036.9938	18086.3375
3039.40034	18058.1375
3041.80542	18085.2375
3044.20903	18043.5375
3046.61118	17981.5375
3049.01187	17977.4375
3051.4111	17953.4375
3053.80888	17890.4375
3056.20519	17834.7375
3058.60005	17783.1375
3060.99345	17730.4375
3063.3854	17684.5375
3065.7759	17619.6375
3068.16494	17567.3375
3070.55254	17540.0375
3072.93868	17474.5375
3075.32338	17460.6375
3077.70662	17373.1375
3080.08842	17344.2375
3082.46878	17324.5375
3084.84769	17255.8375
3087.22515	17232.0375
3089.60118	17245.7375
3091.97576	17210.4375
3094.3489	17204.4375
3096.72061	17193.4375
3099.09087	17163.9375
3101.4597	17115.5375
3103.82709	17087.2375
3106.19305	17048.6375
3108.55757	17034.4375
3110.92066	16973.6375
3113.28232	16953.6375
3115.64255	16913.9375
3118.00134	16865.9375
3120.35871	16838.6375
3122.71466	16801.6375
3125.06917	16745.3375
3127.42226	16702.1375
3129.77393	16746.8375
3132.12417	16715.3375
3134.47299	16686.2375
3136.82039	16657.4375
3139.16636	16653.6375
3141.51092	16646.6375
3143.85406	16659.3375
3146.19579	16617.0375
3148.53609	16600.6375
3150.87499	16619.1375
3153.21246	16623.3375
3155.54853	16591.8375
3157.88318	16589.5375
3160.21642	16558.2375
3162.54826	16573.2375
3164.87868	16534.7375
3167.2077	16488.6375
3169.5353	16456.8375
3171.86151	16467.0375
3174.18631	16430.5375
3176.5097	16457.9375
3178.83169	16421.7375
3181.15228	16401.5375
3183.47147	16355.0375
3185.78926	16334.7375
3188.10565	16285.1375
3190.42065	16334.7375
3192.73424	16314.9375
3195.04645	16299.0375
3197.35725	16281.3375
3199.66667	16251.3375
3201.97469	16251.2375
3204.28132	16198.2375
3206.58656	16208.7375
3208.8904	16182.2375
3211.19287	16223.4375
3213.49394	16212.5375
3215.79363	16171.8375
3218.09193	16195.5375
3220.38884	16152.0375
3222.68438	16162.4375
3224.97853	16134.3375
3227.2713	16124.7375
3229.56269	16095.6375
3231.8527	16063.4375
3234.14133	16040.6375
3236.42858	16012.2375
3238.71446	16020.6375
3240.99896	15996.7375
3243.28209	15968.4375
3245.56384	15952.3375
3247.84423	15903.7375
3250.12324	15883.4375
3252.40088	15854.7375
3254.67715	15801.5375
3256.95205	15728.7375
3259.22558	15744.1375
3261.49775	15717.6375
3263.76855	15681.2375
3266.03799	15652.1375
3268.30606	15623.9375
3270.57277	15593.6375
3272.83812	15547.6375
3275.10211	15568.1375
3277.36474	15530.5375
3279.62601	15554.9375
3281.88593	15549.8375
3284.14448	15580.1375
3286.40168	15523.6375
3288.65753	15509.3375
3290.91202	15488.7375
3293.16516	15405.2375
3295.41695	15359.1375
3297.66738	15292.5375
3299.91647	15205.4375
3302.16421	15134.5375
3304.4106	15055.2375
3306.65564	14952.7375
3308.89933	14844.2375
3311.14169	14718.1375
3313.38269	14592.7375
3315.62236	14509.7375
3317.86068	14356.7375
3320.09766	14230.1375
3322.3333	14106.6375
3324.5676	14094.8375
3326.80056	13834.4375
3329.03219	13793.9375
3331.26248	3.3375
3333.49143	-0.9625
3335.71905	-0.5625
