Data from AgNPs_FTO_APTES_UA_2uM_CRN_50uM_R6G_10uM_NaF_0.1M_Addition_RamanShift__19__14-58-25-253.txt Node

Date: Wed Feb 02 14:58:25 GMT 2022
User: TCL
Spectrometer: QEP01345
Trigger mode: 4
Integration Time (sec): 7.000000E0
Scans to average: 10
Electric dark correction enabled: true
Nonlinearity correction enabled: false
Boxcar width: 0
XAxis mode: Raman Shifts
Number of Pixels in Spectrum: 1044
>>>>>Begin Spectral Data<<<<<
46.04893	0.7875
50.45542	-0.2125
54.85868	-0.5125
59.25871	-1.3125
63.6555	86.3875
68.04907	95.8875
72.43941	97.9875
76.82654	102.6875
81.21044	106.5875
85.59113	113.2875
89.96862	118.6875
94.34289	119.2875
98.71396	123.4875
103.08183	135.1875
107.4465	134.7875
111.80798	134.9875
116.16626	140.9875
120.52136	142.8875
124.87327	149.5875
129.222	153.9875
133.56755	167.2875
137.90993	176.0875
142.24913	197.4875
146.58517	219.6875
150.91804	247.4875
155.24774	301.8875
159.57429	375.5875
163.89768	474.9875
168.21792	631.6875
172.53501	846.6875
176.84895	1191.3875
181.15975	1659.1875
185.46741	2332.0875
189.77193	3189.7875
194.07331	4250.9875
198.37157	5492.8875
202.6667	6749.4875
206.9587	8025.4875
211.24758	9244.4875
215.53334	10512.9875
219.81599	11835.3875
224.09553	13288.8875
228.37195	14913.5875
232.64527	16641.5875
236.91549	18475.8875
241.18261	20319.4875
245.44663	22069.5875
249.70755	23675.9875
253.96539	25062.4875
258.22014	26294.8875
262.4718	27300.8875
266.72039	28068.6875
270.96589	28547.3875
275.20832	28734.8875
279.44768	28785.7875
283.68397	28768.2875
287.91719	28769.3875
292.14735	28881.2875
296.37445	28977.9875
300.59849	29072.5875
304.81948	29041.3875
309.03742	28725.1875
313.25231	28133.1875
317.46415	27283.4875
321.67296	26367.4875
325.87872	25604.4875
330.08145	25158.4875
334.28114	25020.8875
338.47781	25141.7875
342.67145	25363.2875
346.86207	25725.0875
351.04966	26122.6875
355.23424	26516.2875
359.4158	26877.7875
363.59435	27141.3875
367.76989	27266.5875
371.94243	27452.6875
376.11196	27560.7875
380.27849	27656.0875
384.44203	27810.8875
388.60257	28108.0875
392.76012	28492.1875
396.91468	28910.7875
401.06626	29392.9875
405.21485	29571.4875
409.36047	29456.2875
413.50311	29072.6875
417.64277	28813.2875
421.77947	28804.6875
425.9132	28932.5875
430.04396	29166.2875
434.17176	29415.7875
438.2966	29645.2875
442.41849	30141.1875
446.53742	30906.2875
450.6534	31975.4875
454.76644	32813.0875
458.87653	33226.7875
462.98368	33191.8875
467.08789	32974.8875
471.18916	32759.1875
475.2875	32693.4875
479.38291	32798.8875
483.4754	32787.5875
487.56496	32253.2875
491.6516	31361.3875
495.73531	30455.9875
499.81612	29955.1875
503.89401	29915.3875
507.96899	29911.5875
512.04106	29786.7875
516.11023	29418.7875
520.1765	28932.9875
524.23987	28482.9875
528.30034	28089.4875
532.35792	27781.2875
536.41261	27500.0875
540.46441	27326.7875
544.51333	27512.9875
548.55936	28089.0875
552.60252	28935.6875
556.64279	29862.6875
560.6802	30527.1875
564.71473	30971.8875
568.7464	31549.0875
572.7752	32466.6875
576.80114	33259.4875
580.82422	33796.5875
584.84444	34247.5875
588.86181	34445.2875
592.87633	34808.6875
596.888	34959.1875
600.89682	34907.8875
604.9028	35566.7875
608.90594	37488.4875
612.90624	39023.1875
616.90371	36057.3875
620.89834	30532.3875
624.89015	28280.3875
628.87913	28215.9875
632.86528	28481.6875
636.84862	28443.9875
640.82913	27973.0875
644.80683	27147.4875
648.78172	26438.5875
652.75379	26125.1875
656.72306	26273.2875
660.68952	26570.2875
664.65319	26462.1875
668.61405	26063.1875
672.57211	25923.8875
676.52738	25945.9875
680.47986	25949.2875
684.42955	25863.1875
688.37646	25809.0875
692.32058	25850.5875
696.26192	26113.9875
700.20048	26450.3875
704.13626	26694.7875
708.06928	26738.1875
711.99952	26587.2875
715.927	26518.5875
719.85171	26540.6875
723.77365	26425.7875
727.69284	26151.5875
731.60928	25853.3875
735.52295	25706.2875
739.43388	25650.8875
743.34206	25731.8875
747.24749	25914.0875
751.15017	26215.2875
755.05012	26819.1875
758.94733	27876.0875
762.8418	29511.2875
766.73354	31809.8875
770.62254	33697.7875
774.50882	33678.2875
778.39237	31658.5875
782.27321	29164.3875
786.15132	27283.8875
790.02671	26132.5875
793.89938	25601.3875
797.76935	25411.9875
801.6366	25411.0875
805.50115	25377.9875
809.36299	25237.3875
813.22213	25042.3875
817.07857	24966.5875
820.93231	24904.7875
824.78336	24719.2875
828.63172	24546.0875
832.47738	24418.3875
836.32036	24396.8875
840.16066	24428.4875
843.99827	24536.2875
847.8332	24426.5875
851.66546	24285.3875
855.49504	24221.9875
859.32195	24184.3875
863.1462	24097.7875
866.96777	24006.5875
870.78668	23944.5875
874.60293	23918.8875
878.41652	23887.8875
882.22745	23925.6875
886.03573	24000.9875
889.84136	24004.8875
893.64433	23926.4875
897.44466	23791.7875
901.24235	23760.9875
905.0374	23652.3875
908.8298	23620.3875
912.61957	23698.6875
916.40671	24038.4875
920.19121	24513.3875
923.97308	24807.1875
927.75233	24725.2875
931.52895	24385.6875
935.30295	23966.2875
939.07433	23475.7875
942.84309	23001.1875
946.60924	22805.8875
950.37278	22749.8875
954.13371	22751.2875
957.89203	22707.4875
961.64774	22741.4875
965.40086	22757.9875
969.15137	22631.5875
972.89929	22406.2875
976.64461	22255.9875
980.38733	22194.5875
984.12747	22243.8875
987.86502	22412.8875
991.59999	22683.3875
995.33237	23107.0875
999.06217	23830.9875
1002.78939	24575.4875
1006.51404	25012.3875
1010.23611	25312.7875
1013.95561	25549.7875
1017.67255	25575.2875
1021.38692	25353.0875
1025.09872	25033.2875
1028.80796	25059.0875
1032.51465	25590.3875
1036.21877	26221.5875
1039.92035	26318.0875
1043.61937	26070.0875
1047.31584	25618.5875
1051.00976	25084.6875
1054.70114	24884.4875
1058.38998	25052.9875
1062.07627	25330.9875
1065.76003	25649.4875
1069.44126	25937.1875
1073.11995	26291.9875
1076.79611	26480.1875
1080.46974	26630.2875
1084.14085	26758.0875
1087.80943	27092.5875
1091.47549	27405.4875
1095.13903	27489.5875
1098.80005	27211.3875
1102.45857	26567.3875
1106.11456	25935.3875
1109.76805	25636.6875
1113.41903	25644.8875
1117.06751	25863.4875
1120.71348	26141.4875
1124.35696	26436.1875
1127.99793	26783.3875
1131.63641	27043.8875
1135.2724	26978.5875
1138.90589	26934.6875
1142.5369	27007.5875
1146.16542	27330.5875
1149.79145	27717.7875
1153.415	28292.5875
1157.03607	29022.8875
1160.65467	30121.3875
1164.27079	31732.7875
1167.88443	33794.4875
1171.49561	36246.7875
1175.10432	39245.2875
1178.71056	42846.2875
1182.31434	46226.4875
1185.91565	48180.1875
1189.51451	48446.4875
1193.11091	47591.4875
1196.70485	45986.2875
1200.29634	43896.8875
1203.88538	42148.0875
1207.47197	41112.5875
1211.05612	40433.6875
1214.63782	39575.7875
1218.21708	38552.6875
1221.79391	37466.6875
1225.36829	36680.8875
1228.94024	35946.9875
1232.50976	35122.9875
1236.07685	34534.8875
1239.6415	34292.6875
1243.20374	34313.0875
1246.76355	34542.8875
1250.32093	35101.9875
1253.8759	35923.6875
1257.42845	37124.2875
1260.97859	38305.5875
1264.52631	39433.3875
1268.07163	40621.9875
1271.61453	41938.1875
1275.15503	43496.6875
1278.69312	45169.1875
1282.22882	46692.6875
1285.76211	48394.1875
1289.29301	50300.9875
1292.82151	52813.7875
1296.34761	56135.3875
1299.87133	59869.5875
1303.39266	63727.7875
1306.9116	67235.0875
1310.42815	70281.4875
1313.94233	72235.9875
1317.45412	72771.1875
1320.96354	72578.1875
1324.47058	72263.9875
1327.97525	72125.6875
1331.47754	71985.3875
1334.97747	71853.1875
1338.47502	71833.9875
1341.97022	71255.9875
1345.46305	69849.8875
1348.95352	67613.5875
1352.44163	65230.6875
1355.92738	63793.9875
1359.41078	63884.7875
1362.89183	64464.6875
1366.37053	62974.3875
1369.84688	58746.9875
1373.32088	53601.8875
1376.79254	49999.5875
1380.26186	48923.4875
1383.72883	49464.1875
1387.19347	50276.2875
1390.65578	50765.8875
1394.11575	51304.5875
1397.57339	52408.1875
1401.0287	53910.6875
1404.48168	55057.2875
1407.93234	55007.6875
1411.38068	53662.9875
1414.82669	51151.7875
1418.27039	48074.2875
1421.71177	45041.4875
1425.15083	42600.1875
1428.58758	41237.8875
1432.02203	41205.1875
1435.45416	42143.1875
1438.88399	43782.8875
1442.31151	45407.1875
1445.73673	46765.3875
1449.15965	48058.5875
1452.58027	49126.4875
1455.9986	49823.5875
1459.41463	50428.5875
1462.82837	51272.9875
1466.23982	51979.0875
1469.64898	52534.3875
1473.05586	52642.1875
1476.46045	52213.0875
1479.86276	51329.1875
1483.26279	50238.9875
1486.66054	49312.1875
1490.05602	48840.6875
1493.44922	48747.9875
1496.84016	48753.3875
1500.22882	49099.9875
1503.61521	49893.1875
1506.99934	51084.2875
1510.38121	52277.4875
1513.76081	52872.0875
1517.13816	52408.8875
1520.51324	51362.7875
1523.88607	50589.1875
1527.25665	50337.0875
1530.62498	50371.9875
1533.99105	50544.0875
1537.35488	50364.6875
1540.71647	49667.7875
1544.07581	48555.0875
1547.4329	47136.5875
1550.78776	45881.1875
1554.14038	45077.0875
1557.49077	44646.6875
1560.83892	44335.5875
1564.18484	44261.9875
1567.52853	44098.9875
1570.86999	44291.7875
1574.20922	45073.8875
1577.54624	46136.5875
1580.88103	47055.3875
1584.2136	48197.0875
1587.54395	50123.4875
1590.87208	52772.1875
1594.19801	55808.9875
1597.52172	58540.7875
1600.84321	58922.6875
1604.16251	56049.5875
1607.47959	51223.3875
1610.79447	46211.5875
1614.10715	41633.3875
1617.41763	37812.4875
1620.7259	35070.1875
1624.03199	33621.9875
1627.33587	33454.2875
1630.63757	34618.7875
1633.93707	37287.4875
1637.23439	41657.4875
1640.52951	47513.3875
1643.82246	54036.3875
1647.11321	58692.2875
1650.40179	59068.1875
1653.68819	54770.0875
1656.97241	47304.1875
1660.25446	39718.8875
1663.53433	33842.7875
1666.81203	29734.6875
1670.08756	27119.2875
1673.36092	25473.9875
1676.63211	24362.4875
1679.90115	23644.9875
1683.16801	23084.1875
1686.43272	22677.6875
1689.69527	22349.5875
1692.95567	22081.5875
1696.2139	21900.6875
1699.46999	21791.6875
1702.72392	21643.2875
1705.97571	21541.4875
1709.22535	21452.2875
1712.47284	21316.3875
1715.71819	21284.6875
1718.96139	21184.7875
1722.20246	21074.7875
1725.44139	20971.0875
1728.67818	20794.8875
1731.91284	20666.1875
1735.14537	20554.6875
1738.37576	20466.2875
1741.60403	20363.9875
1744.83017	20291.1875
1748.05418	20251.7875
1751.27607	20195.4875
1754.49584	20196.6875
1757.71349	20141.3875
1760.92903	20088.1875
1764.14244	20069.4875
1767.35375	20043.2875
1770.56294	19936.1875
1773.77002	19908.5875
1776.97499	19851.0875
1780.17785	19821.1875
1783.37861	19752.1875
1786.57727	19731.9875
1789.77382	19714.9875
1792.96828	19631.7875
1796.16064	19604.8875
1799.3509	19562.6875
1802.53907	19523.2875
1805.72514	19437.8875
1808.90913	19388.5875
1812.09102	19350.1875
1815.27083	19319.5875
1818.44856	19295.5875
1821.6242	19249.2875
1824.79776	19228.1875
1827.96924	19279.5875
1831.13864	19229.0875
1834.30597	19236.4875
1837.47122	19274.9875
1840.6344	19248.5875
1843.7955	19279.4875
1846.95454	19266.7875
1850.11151	19268.9875
1853.26642	19281.5875
1856.41926	19263.4875
1859.57004	19262.2875
1862.71876	19215.0875
1865.86542	19205.5875
1869.01003	19191.4875
1872.15258	19155.3875
1875.29308	19162.6875
1878.43152	19159.1875
1881.56792	19149.4875
1884.70227	19157.8875
1887.83457	19175.6875
1890.96482	19118.3875
1894.09304	19083.4875
1897.21921	19102.5875
1900.34335	19078.9875
1903.46544	19073.8875
1906.58551	19036.7875
1909.70353	18996.9875
1912.81953	18980.0875
1915.93349	18926.7875
1919.04543	18876.4875
1922.15534	18825.0875
1925.26322	18758.1875
1928.36908	18707.6875
1931.47292	18668.3875
1934.57473	18625.3875
1937.67453	18530.0875
1940.77232	18448.1875
1943.86808	18426.3875
1946.96184	18363.2875
1950.05358	18281.9875
1953.14331	18240.8875
1956.23103	18175.1875
1959.31675	18112.1875
1962.40046	18013.6875
1965.48217	17957.0875
1968.56188	17923.5875
1971.63959	17876.6875
1974.7153	17808.1875
1977.78901	17771.3875
1980.86073	17708.1875
1983.93046	17636.6875
1986.99819	17588.7875
1990.06394	17559.4875
1993.1277	17498.9875
1996.18947	17399.1875
1999.24925	17360.9875
2002.30706	17290.8875
2005.36288	17275.4875
2008.41672	17226.7875
2011.46859	17169.1875
2014.51848	17130.6875
2017.56639	17089.8875
2020.61233	17022.5875
2023.6563	17009.6875
2026.6983	16959.9875
2029.73833	16945.8875
2032.7764	16907.3875
2035.8125	16895.8875
2038.84664	16850.7875
2041.87881	16855.0875
2044.90903	16841.0875
2047.93729	16792.1875
2050.96359	16774.6875
2053.98794	16750.3875
2057.01034	16722.2875
2060.03078	16742.8875
2063.04927	16744.8875
2066.06582	16683.2875
2069.08042	16665.6875
2072.09307	16707.5875
2075.10378	16650.3875
2078.11255	16630.8875
2081.11938	16630.6875
2084.12426	16592.6875
2087.12722	16576.0875
2090.12824	16581.2875
2093.12732	16571.8875
2096.12447	16586.3875
2099.11969	16612.7875
2102.11299	16612.1875
2105.10435	16600.2875
2108.09379	16597.1875
2111.08131	16622.3875
2114.0669	16623.0875
2117.05057	16639.8875
2120.03233	16667.7875
2123.01216	16638.2875
2125.99008	16705.1875
2128.96609	16638.2875
2131.94018	16659.5875
2134.91236	16657.5875
2137.88263	16647.6875
2140.851	16679.5875
2143.81746	16704.0875
2146.78201	16690.7875
2149.74466	16708.7875
2152.7054	16701.4875
2155.66425	16681.0875
2158.6212	16706.3875
2161.57625	16664.7875
2164.52941	16685.1875
2167.48067	16666.4875
2170.43004	16623.5875
2173.37752	16612.6875
2176.32311	16612.6875
2179.26681	16645.4875
2182.20863	16633.9875
2185.14856	16662.5875
2188.08661	16644.2875
2191.02278	16614.9875
2193.95707	16624.2875
2196.88948	16623.8875
2199.82001	16637.5875
2202.74867	16586.7875
2205.67545	16597.2875
2208.60037	16562.8875
2211.52341	16544.3875
2214.44458	16513.5875
2217.36388	16499.7875
2220.28132	16533.2875
2223.1969	16494.8875
2226.11061	16441.9875
2229.02246	16392.3875
2231.93245	16349.7875
2234.84058	16323.5875
2237.74686	16306.3875
2240.65128	16283.7875
2243.55385	16259.8875
2246.45456	16252.2875
2249.35343	16205.3875
2252.25044	16158.4875
2255.14561	16142.4875
2258.03893	16150.6875
2260.93041	16084.0875
2263.82004	16056.4875
2266.70783	16006.1875
2269.59378	15989.1875
2272.4779	15919.9875
2275.36017	15876.3875
2278.24061	15850.0875
2281.11922	15813.9875
2283.996	15784.1875
2286.87094	15766.6875
2289.74405	15748.3875
2292.61534	15746.1875
2295.4848	15748.2875
2298.35243	15746.2875
2301.21824	15731.8875
2304.08223	15773.5875
2306.94439	15738.9875
2309.80474	15723.2875
2312.66327	15745.9875
2315.51999	15752.0875
2318.37489	15741.3875
2321.22797	15737.6875
2324.07925	15709.1875
2326.92871	15703.1875
2329.77637	15704.4875
2332.62222	15683.7875
2335.46626	15681.2875
2338.3085	15680.3875
2341.14893	15677.5875
2343.98756	15672.7875
2346.8244	15660.5875
2349.65943	15685.7875
2352.49267	15694.0875
2355.32411	15674.1875
2358.15376	15693.0875
2360.98161	15691.2875
2363.80768	15640.4875
2366.63195	15619.6875
2369.45444	15604.5875
2372.27514	15595.7875
2375.09405	15525.9875
2377.91118	15526.6875
2380.72652	15474.4875
2383.54009	15453.2875
2386.35187	15437.4875
2389.16188	15408.1875
2391.97011	15402.9875
2394.77657	15366.8875
2397.58125	15356.3875
2400.38416	15321.1875
2403.18529	15287.7875
2405.98466	15293.6875
2408.78226	15270.6875
2411.57809	15232.6875
2414.37216	15198.4875
2417.16446	15188.0875
2419.955	15185.8875
2422.74378	15175.6875
2425.5308	15157.7875
2428.31606	15178.9875
2431.09956	15136.3875
2433.88131	15093.6875
2436.6613	15128.3875
2439.43954	15129.3875
2442.21603	15128.5875
2444.99077	15077.8875
2447.76377	15108.2875
2450.53501	15087.4875
2453.30451	15131.2875
2456.07226	15087.4875
2458.83827	15085.1875
2461.60254	15104.9875
2464.36507	15126.3875
2467.12586	15102.7875
2469.88492	15127.0875
2472.64224	15120.0875
2475.39782	15130.3875
2478.15167	15150.0875
2480.90379	15153.3875
2483.65417	15148.2875
2486.40283	15136.7875
2489.14976	15192.3875
2491.89497	15207.5875
2494.63845	15203.6875
2497.3802	15209.6875
2500.12024	15183.5875
2502.85855	15201.4875
2505.59514	15211.7875
2508.33002	15240.1875
2511.06318	15210.0875
2513.79462	15187.6875
2516.52435	15150.0875
2519.25237	15181.7875
2521.97867	15162.4875
2524.70327	15143.4875
2527.42616	15133.9875
2530.14734	15140.5875
2532.86681	15123.2875
2535.58458	15149.3875
2538.30065	15125.9875
2541.01501	15114.6875
2543.72768	15070.3875
2546.43864	15089.0875
2549.14791	15038.7875
2551.85548	15059.6875
2554.56136	15048.1875
2557.26554	15051.8875
2559.96803	15041.9875
2562.66883	15044.8875
2565.36794	15048.8875
2568.06536	15025.1875
2570.7611	15028.4875
2573.45514	15036.1875
2576.14751	14995.6875
2578.83819	14992.6875
2581.52719	15011.0875
2584.21451	15010.7875
2586.90015	14998.8875
2589.58411	15008.8875
2592.2664	15023.9875
2594.94701	14982.0875
2597.62594	14974.0875
2600.30321	14970.3875
2602.9788	14981.9875
2605.65273	14987.4875
2608.32498	14971.7875
2610.99557	15004.6875
2613.66449	15021.4875
2616.33175	15019.5875
2618.99734	15047.7875
2621.66128	15035.7875
2624.32355	15031.8875
2626.98416	15052.4875
2629.64311	15061.5875
2632.30041	15080.8875
2634.95605	15084.1875
2637.61004	15064.1875
2640.26238	15020.6875
2642.91306	15057.9875
2645.56209	15040.2875
2648.20948	15031.5875
2650.85521	15019.0875
2653.4993	15006.6875
2656.14175	15014.3875
2658.78255	15035.3875
2661.42171	15078.7875
2664.05923	15066.1875
2666.6951	15059.0875
2669.32934	15108.1875
2671.96194	15068.5875
2674.59291	15095.1875
2677.22224	15088.9875
2679.84993	15111.3875
2682.476	15049.6875
2685.10043	15083.3875
2687.72324	15035.5875
2690.34441	15042.0875
2692.96396	15031.2875
2695.58188	15019.2875
2698.19818	15031.0875
2700.81285	15020.7875
2703.4259	15049.6875
2706.03733	15088.3875
2708.64714	15071.2875
2711.25533	15093.5875
2713.86191	15105.6875
2716.46687	15111.3875
2719.07021	15144.2875
2721.67194	15149.9875
2724.27206	15145.7875
2726.87057	15179.6875
2729.46747	15188.6875
2732.06276	15186.6875
2734.65644	15189.1875
2737.24852	15130.7875
2739.83899	15132.8875
2742.42786	15127.4875
2745.01513	15119.7875
2747.60079	15120.9875
2750.18486	15143.3875
2752.76733	15148.3875
2755.3482	15161.7875
2757.92747	15194.7875
2760.50515	15177.0875
2763.08123	15228.9875
2765.65573	15195.9875
2768.22863	15185.6875
2770.79994	15158.6875
2773.36967	15207.4875
2775.9378	15188.6875
2778.50435	15190.2875
2781.06932	15178.4875
2783.6327	15189.7875
2786.1945	15188.8875
2788.75471	15180.7875
2791.31335	15179.6875
2793.87041	15136.1875
2796.42589	15122.2875
2798.97979	15120.5875
2801.53212	15096.4875
2804.08288	15080.1875
2806.63206	15071.5875
2809.17967	15028.7875
2811.72571	14996.4875
2814.27018	15014.4875
2816.81308	14946.9875
2819.35442	14961.0875
2821.89419	14924.2875
2824.43239	14900.7875
2826.96904	14891.3875
2829.50412	14910.6875
2832.03763	14856.0875
2834.56959	14853.2875
2837.1	14854.0875
2839.62884	14838.0875
2842.15613	14819.9875
2844.68186	14871.8875
2847.20604	14875.0875
2849.72867	14869.1875
2852.24974	14880.4875
2854.76927	14864.2875
2857.28724	14859.9875
2859.80367	14839.8875
2862.31855	14803.3875
2864.83189	14808.8875
2867.34368	14796.2875
2869.85393	14823.8875
2872.36264	14767.6875
2874.8698	14780.3875
2877.37543	14829.2875
2879.87952	14807.8875
2882.38207	14827.5875
2884.88308	14746.8875
2887.38256	14808.8875
2889.88051	14792.2875
2892.37692	14831.6875
2894.8718	14831.9875
2897.36515	14844.2875
2899.85698	14866.3875
2902.34727	14869.7875
2904.83604	14872.2875
2907.32328	14935.5875
2909.809	14907.4875
2912.29319	14937.2875
2914.77587	14947.3875
2917.25702	14915.4875
2919.73665	14915.9875
2922.21476	14904.1875
2924.69136	14924.0875
2927.16644	14932.1875
2929.64	14910.4875
2932.11205	14905.6875
2934.58258	14902.0875
2937.05161	14903.6875
2939.51912	14909.7875
2941.98513	14880.4875
2944.44962	14803.5875
2946.91261	14731.8875
2949.37409	14773.5875
2951.83407	14726.4875
2954.29254	14727.3875
2956.74951	14722.5875
2959.20498	14695.4875
2961.65895	14657.4875
2964.11142	14659.9875
2966.56239	14616.8875
2969.01186	14618.7875
2971.45984	14586.7875
2973.90632	14546.0875
2976.35131	14489.5875
2978.7948	14468.7875
2981.23681	14441.7875
2983.67732	14420.3875
2986.11635	14380.6875
2988.55388	14335.5875
2990.98993	14359.8875
2993.4245	14273.4875
2995.85758	14215.9875
2998.28917	14223.8875
3000.71928	14206.0875
3003.14791	14170.3875
3005.57506	14168.6875
3008.00073	14078.8875
3010.42493	14071.1875
3012.84764	14027.7875
3015.26888	14015.0875
3017.68865	13986.0875
3020.10694	13964.9875
3022.52376	13967.5875
3024.9391	13920.9875
3027.35298	13896.1875
3029.76539	13909.0875
3032.17632	13897.1875
3034.5858	13887.5875
3036.9938	13886.1875
3039.40034	13846.0875
3041.80542	13867.1875
3044.20903	13844.4875
3046.61118	13838.6875
3049.01187	13791.1875
3051.4111	13775.1875
3053.80888	13732.0875
3056.20519	13690.6875
3058.60005	13689.6875
3060.99345	13655.1875
3063.3854	13628.7875
3065.7759	13595.2875
3068.16494	13519.8875
3070.55254	13489.9875
3072.93868	13479.1875
3075.32338	13446.4875
3077.70662	13407.1875
3080.08842	13365.3875
3082.46878	13338.4875
3084.84769	13310.1875
3087.22515	13331.8875
3089.60118	13293.4875
3091.97576	13302.2875
3094.3489	13296.4875
3096.72061	13282.4875
3099.09087	13275.5875
3101.4597	13232.0875
3103.82709	13230.4875
3106.19305	13211.9875
3108.55757	13219.9875
3110.92066	13148.8875
3113.28232	13126.2875
3115.64255	13083.9875
3118.00134	13049.0875
3120.35871	12990.3875
3122.71466	12984.1875
3125.06917	13009.4875
3127.42226	12971.0875
3129.77393	12978.0875
3132.12417	12952.2875
3134.47299	12939.2875
3136.82039	12936.7875
3139.16636	12900.4875
3141.51092	12881.0875
3143.85406	12927.3875
3146.19579	12948.1875
3148.53609	12943.7875
3150.87499	12947.9875
3153.21246	12946.4875
3155.54853	12928.2875
3157.88318	12907.6875
3160.21642	12921.1875
3162.54826	12907.1875
3164.87868	12908.6875
3167.2077	12914.1875
3169.5353	12917.6875
3171.86151	12891.1875
3174.18631	12857.3875
3176.5097	12876.5875
3178.83169	12862.3875
3181.15228	12824.2875
3183.47147	12827.8875
3185.78926	12830.8875
3188.10565	12829.0875
3190.42065	12800.8875
3192.73424	12799.6875
3195.04645	12790.8875
3197.35725	12826.0875
3199.66667	12795.0875
3201.97469	12774.2875
3204.28132	12775.3875
3206.58656	12781.0875
3208.8904	12799.4875
3211.19287	12789.0875
3213.49394	12802.8875
3215.79363	12786.3875
3218.09193	12797.6875
3220.38884	12800.2875
3222.68438	12791.8875
3224.97853	12775.6875
3227.2713	12759.0875
3229.56269	12746.2875
3231.8527	12738.6875
3234.14133	12727.0875
3236.42858	12706.4875
3238.71446	12709.9875
3240.99896	12674.4875
3243.28209	12706.0875
3245.56384	12682.7875
3247.84423	12682.4875
3250.12324	12641.9875
3252.40088	12639.4875
3254.67715	12616.9875
3256.95205	12595.3875
3259.22558	12577.2875
3261.49775	12547.3875
3263.76855	12553.1875
3266.03799	12496.7875
3268.30606	12466.3875
3270.57277	12475.9875
3272.83812	12458.6875
3275.10211	12412.2875
3277.36474	12390.5875
3279.62601	12418.0875
3281.88593	12404.5875
3284.14448	12414.1875
3286.40168	12403.0875
3288.65753	12394.4875
3290.91202	12376.1875
3293.16516	12335.8875
3295.41695	12326.8875
3297.66738	12215.8875
3299.91647	12175.3875
3302.16421	12094.2875
3304.4106	12058.3875
3306.65564	11993.5875
3308.89933	11913.4875
3311.14169	11850.9875
3313.38269	11774.6875
3315.62236	11698.5875
3317.86068	11608.8875
3320.09766	11477.4875
3322.3333	11385.1875
3324.5676	11384.1875
3326.80056	11195.0875
3329.03219	11135.1875
3331.26248	1.2875
3333.49143	-0.1125
3335.71905	-0.6125
