Data from AgNPs_FTO_APTES_UA_2uM_CRN_0uM_R6G_10uM_NaF_0.1M_Addition_RamanShift__44__10-55-44-971.txt Node

Date: Wed Feb 02 10:55:44 GMT 2022
User: TCL
Spectrometer: QEP01345
Trigger mode: 4
Integration Time (sec): 7.000000E0
Scans to average: 10
Electric dark correction enabled: true
Nonlinearity correction enabled: false
Boxcar width: 0
XAxis mode: Raman Shifts
Number of Pixels in Spectrum: 1044
>>>>>Begin Spectral Data<<<<<
46.04893	0.525
50.45542	1.025
54.85868	-0.775
59.25871	-0.175
63.6555	67.625
68.04907	71.925
72.43941	68.525
76.82654	77.025
81.21044	77.825
85.59113	83.625
89.96862	83.525
94.34289	88.725
98.71396	92.925
103.08183	97.125
107.4465	102.025
111.80798	100.525
116.16626	104.325
120.52136	108.725
124.87327	114.525
129.222	118.725
133.56755	133.225
137.90993	144.025
142.24913	164.325
146.58517	188.225
150.91804	215.325
155.24774	259.825
159.57429	333.925
163.89768	431.325
168.21792	573.925
172.53501	793.925
176.84895	1107.825
181.15975	1557.025
185.46741	2197.725
189.77193	3049.525
194.07331	4078.525
198.37157	5265.025
202.6667	6504.325
206.9587	7748.125
211.24758	8952.625
215.53334	10167.225
219.81599	11462.325
224.09553	12870.625
228.37195	14448.325
232.64527	16163.125
236.91549	17947.725
241.18261	19745.825
245.44663	21473.625
249.70755	22988.025
253.96539	24337.525
258.22014	25505.625
262.4718	26379.125
266.72039	26972.025
270.96589	27219.725
275.20832	27221.825
279.44768	27016.925
283.68397	26699.925
287.91719	26465.125
292.14735	26257.925
296.37445	26165.825
300.59849	26111.425
304.81948	26141.125
309.03742	26154.725
313.25231	25926.225
317.46415	25446.925
321.67296	24802.125
325.87872	24213.325
330.08145	23891.525
334.28114	23746.625
338.47781	23853.125
342.67145	24047.225
346.86207	24339.125
351.04966	24697.625
355.23424	25051.825
359.4158	25458.325
363.59435	25728.425
367.76989	25901.325
371.94243	25932.325
376.11196	25956.725
380.27849	25885.625
384.44203	25909.925
388.60257	26061.425
392.76012	26421.025
396.91468	26791.525
401.06626	27260.525
405.21485	27512.425
409.36047	27430.325
413.50311	27041.925
417.64277	26845.525
421.77947	26854.425
425.9132	27037.625
430.04396	27144.225
434.17176	27277.325
438.2966	27275.825
442.41849	27595.325
446.53742	28064.625
450.6534	28646.325
454.76644	29038.925
458.87653	29263.625
462.98368	29292.125
467.08789	29207.425
471.18916	29056.225
475.2875	28884.525
479.38291	28886.925
483.4754	29000.125
487.56496	28953.525
491.6516	28565.125
495.73531	28033.425
499.81612	27642.725
503.89401	27562.025
507.96899	27620.525
512.04106	27611.125
516.11023	27399.625
520.1765	27020.225
524.23987	26695.425
528.30034	26373.425
532.35792	26031.525
536.41261	25751.225
540.46441	25568.325
544.51333	25556.125
548.55936	25883.525
552.60252	26468.125
556.64279	27146.925
560.6802	27729.325
564.71473	28155.025
568.7464	28877.225
572.7752	30060.325
576.80114	31434.425
580.82422	32550.725
584.84444	33494.925
588.86181	34582.525
592.87633	35617.525
596.888	35398.225
600.89682	33847.125
604.9028	32916.725
608.90594	33995.525
612.90624	35408.425
616.90371	33343.925
620.89834	28933.025
624.89015	26876.725
628.87913	26692.825
632.86528	26992.225
636.84862	26923.825
640.82913	26392.225
644.80683	25705.125
648.78172	25145.925
652.75379	25014.825
656.72306	25190.925
660.68952	25461.625
664.65319	25371.525
668.61405	25055.625
672.57211	24971.925
676.52738	25037.625
680.47986	24998.325
684.42955	24855.125
688.37646	24712.025
692.32058	24857.225
696.26192	25137.725
700.20048	25516.825
704.13626	25815.625
708.06928	26043.325
711.99952	26095.325
715.927	26022.725
719.85171	25898.425
723.77365	25677.725
727.69284	25234.225
731.60928	24837.125
735.52295	24657.825
739.43388	24605.325
743.34206	24685.225
747.24749	24813.925
751.15017	25167.625
755.05012	25666.425
758.94733	26430.425
762.8418	27727.325
766.73354	29511.825
770.62254	31085.125
774.50882	31208.125
778.39237	29732.825
782.27321	27925.825
786.15132	26478.125
790.02671	25543.025
793.89938	24997.925
797.76935	24695.525
801.6366	24576.625
805.50115	24536.225
809.36299	24437.925
813.22213	24354.025
817.07857	24348.125
820.93231	24346.825
824.78336	24187.125
828.63172	24066.725
832.47738	23907.625
836.32036	23848.325
840.16066	23825.525
843.99827	23815.625
847.8332	23802.625
851.66546	23827.825
855.49504	23959.525
859.32195	23933.725
863.1462	23885.225
866.96777	23856.125
870.78668	23846.625
874.60293	23849.425
878.41652	23857.225
882.22745	23956.325
886.03573	24078.425
889.84136	24130.625
893.64433	24140.725
897.44466	24146.125
901.24235	24233.625
905.0374	24232.025
908.8298	24244.025
912.61957	24364.425
916.40671	24667.325
920.19121	25066.425
923.97308	25370.725
927.75233	25407.425
931.52895	25077.125
935.30295	24529.825
939.07433	23917.925
942.84309	23429.525
946.60924	23153.225
950.37278	22977.025
954.13371	22911.525
957.89203	22885.925
961.64774	22869.625
965.40086	22835.425
969.15137	22765.425
972.89929	22608.325
976.64461	22422.925
980.38733	22323.025
984.12747	22274.425
987.86502	22334.025
991.59999	22353.325
995.33237	22451.225
999.06217	22663.525
1002.78939	23034.525
1006.51404	23406.225
1010.23611	23809.325
1013.95561	24110.925
1017.67255	24168.925
1021.38692	23955.125
1025.09872	23622.825
1028.80796	23319.425
1032.51465	23249.425
1036.21877	23275.625
1039.92035	23421.325
1043.61937	23524.925
1047.31584	23602.025
1051.00976	23710.625
1054.70114	23830.125
1058.38998	23990.125
1062.07627	24224.625
1065.76003	24585.125
1069.44126	25010.925
1073.11995	25466.425
1076.79611	25880.725
1080.46974	25980.825
1084.14085	26053.425
1087.80943	26253.325
1091.47549	26625.625
1095.13903	26821.525
1098.80005	26567.125
1102.45857	25805.525
1106.11456	25045.925
1109.76805	24609.825
1113.41903	24404.325
1117.06751	24488.925
1120.71348	24682.525
1124.35696	24955.225
1127.99793	25272.125
1131.63641	25554.525
1135.2724	25531.225
1138.90589	25555.625
1142.5369	25635.025
1146.16542	25911.425
1149.79145	26212.325
1153.415	26616.725
1157.03607	27135.625
1160.65467	27945.125
1164.27079	29149.525
1167.88443	30636.925
1171.49561	32313.425
1175.10432	34251.325
1178.71056	36751.425
1182.31434	38968.925
1185.91565	40246.425
1189.51451	40341.625
1193.11091	39751.825
1196.70485	38468.025
1200.29634	36883.325
1203.88538	35757.325
1207.47197	35230.425
1211.05612	35077.225
1214.63782	34609.625
1218.21708	33620.325
1221.79391	32360.925
1225.36829	31372.525
1228.94024	30800.625
1232.50976	30421.925
1236.07685	30125.525
1239.6415	29872.225
1243.20374	29816.925
1246.76355	29885.225
1250.32093	30173.025
1253.8759	30837.425
1257.42845	31720.425
1260.97859	32806.225
1264.52631	33907.925
1268.07163	34917.825
1271.61453	36000.425
1275.15503	37044.925
1278.69312	38429.325
1282.22882	39865.625
1285.76211	41543.325
1289.29301	43436.225
1292.82151	45552.425
1296.34761	47900.625
1299.87133	50616.325
1303.39266	53109.625
1306.9116	54997.025
1310.42815	56126.425
1313.94233	56513.625
1317.45412	56198.325
1320.96354	55880.225
1324.47058	55859.325
1327.97525	56155.025
1331.47754	56139.425
1334.97747	55661.725
1338.47502	54943.025
1341.97022	54094.425
1345.46305	53201.525
1348.95352	52281.625
1352.44163	51414.225
1355.92738	51288.525
1359.41078	52117.725
1362.89183	53361.325
1366.37053	53246.125
1369.84688	50266.425
1373.32088	45722.725
1376.79254	42272.125
1380.26186	40899.625
1383.72883	40814.725
1387.19347	40881.725
1390.65578	40642.325
1394.11575	40489.625
1397.57339	40718.025
1401.0287	41194.225
1404.48168	41490.125
1407.93234	40996.625
1411.38068	39664.625
1414.82669	37885.925
1418.27039	36058.725
1421.71177	34387.725
1425.15083	33109.725
1428.58758	32506.725
1432.02203	32765.825
1435.45416	33660.425
1438.88399	34636.825
1442.31151	35422.825
1445.73673	36082.025
1449.15965	36735.325
1452.58027	37162.325
1455.9986	37423.525
1459.41463	37723.925
1462.82837	38096.525
1466.23982	38557.325
1469.64898	38774.325
1473.05586	38834.725
1476.46045	38715.425
1479.86276	38502.925
1483.26279	38339.625
1486.66054	38455.725
1490.05602	38829.325
1493.44922	39703.525
1496.84016	40750.025
1500.22882	41899.025
1503.61521	43129.925
1506.99934	44279.325
1510.38121	45131.425
1513.76081	45451.525
1517.13816	45124.125
1520.51324	44336.825
1523.88607	43787.225
1527.25665	43667.225
1530.62498	43501.425
1533.99105	42930.825
1537.35488	41913.025
1540.71647	40449.625
1544.07581	38883.425
1547.4329	37321.125
1550.78776	36196.425
1554.14038	35508.525
1557.49077	35221.525
1560.83892	35247.425
1564.18484	35365.625
1567.52853	35550.825
1570.86999	35953.325
1574.20922	36812.925
1577.54624	37758.125
1580.88103	38363.025
1584.2136	39036.625
1587.54395	40226.225
1590.87208	41934.925
1594.19801	43793.325
1597.52172	45013.525
1600.84321	44445.425
1604.16251	41669.425
1607.47959	38064.725
1610.79447	34687.625
1614.10715	31825.525
1617.41763	29529.125
1620.7259	28095.525
1624.03199	27368.625
1627.33587	27478.625
1630.63757	28414.025
1633.93707	30474.825
1637.23439	33824.925
1640.52951	38789.225
1643.82246	44678.625
1647.11321	49568.625
1650.40179	50826.225
1653.68819	47430.325
1656.97241	41148.725
1660.25446	34606.525
1663.53433	29586.225
1666.81203	26274.425
1670.08756	24215.125
1673.36092	22957.725
1676.63211	22146.925
1679.90115	21572.925
1683.16801	21156.425
1686.43272	20804.725
1689.69527	20626.125
1692.95567	20426.225
1696.2139	20314.525
1699.46999	20209.425
1702.72392	20124.525
1705.97571	20057.825
1709.22535	19962.425
1712.47284	19895.725
1715.71819	19866.725
1718.96139	19776.525
1722.20246	19694.825
1725.44139	19593.025
1728.67818	19474.925
1731.91284	19317.525
1735.14537	19181.325
1738.37576	19122.425
1741.60403	19086.125
1744.83017	18996.325
1748.05418	18931.825
1751.27607	18891.125
1754.49584	18824.325
1757.71349	18791.925
1760.92903	18832.025
1764.14244	18732.725
1767.35375	18729.825
1770.56294	18711.325
1773.77002	18630.225
1776.97499	18654.125
1780.17785	18544.925
1783.37861	18508.525
1786.57727	18472.925
1789.77382	18408.325
1792.96828	18402.725
1796.16064	18336.725
1799.3509	18305.525
1802.53907	18289.125
1805.72514	18257.725
1808.90913	18216.425
1812.09102	18160.925
1815.27083	18112.725
1818.44856	18109.825
1821.6242	18084.525
1824.79776	18029.025
1827.96924	18019.525
1831.13864	18011.525
1834.30597	18048.425
1837.47122	18047.625
1840.6344	18022.625
1843.7955	18123.025
1846.95454	18080.025
1850.11151	18067.725
1853.26642	18022.325
1856.41926	18041.525
1859.57004	18025.225
1862.71876	17946.225
1865.86542	17970.225
1869.01003	17942.925
1872.15258	17940.725
1875.29308	17887.625
1878.43152	17881.425
1881.56792	17808.325
1884.70227	17763.725
1887.83457	17726.525
1890.96482	17677.525
1894.09304	17623.025
1897.21921	17638.625
1900.34335	17556.725
1903.46544	17527.625
1906.58551	17498.825
1909.70353	17441.325
1912.81953	17488.925
1915.93349	17412.825
1919.04543	17310.125
1922.15534	17274.525
1925.26322	17232.725
1928.36908	17189.125
1931.47292	17143.325
1934.57473	17073.525
1937.67453	17024.725
1940.77232	16971.425
1943.86808	16909.825
1946.96184	16863.525
1950.05358	16808.825
1953.14331	16737.425
1956.23103	16679.925
1959.31675	16646.825
1962.40046	16592.025
1965.48217	16568.425
1968.56188	16459.125
1971.63959	16404.825
1974.7153	16357.025
1977.78901	16283.025
1980.86073	16228.925
1983.93046	16228.525
1986.99819	16136.325
1990.06394	16095.025
1993.1277	16030.825
1996.18947	15978.125
1999.24925	15902.125
2002.30706	15851.725
2005.36288	15783.025
2008.41672	15745.625
2011.46859	15694.325
2014.51848	15620.825
2017.56639	15575.525
2020.61233	15515.025
2023.6563	15492.125
2026.6983	15462.425
2029.73833	15443.125
2032.7764	15450.925
2035.8125	15357.625
2038.84664	15314.325
2041.87881	15297.525
2044.90903	15268.925
2047.93729	15246.425
2050.96359	15228.125
2053.98794	15189.125
2057.01034	15188.925
2060.03078	15165.925
2063.04927	15167.225
2066.06582	15159.525
2069.08042	15151.525
2072.09307	15171.225
2075.10378	15154.025
2078.11255	15156.125
2081.11938	15168.025
2084.12426	15145.325
2087.12722	15135.525
2090.12824	15111.225
2093.12732	15167.625
2096.12447	15173.225
2099.11969	15164.025
2102.11299	15167.925
2105.10435	15129.625
2108.09379	15120.325
2111.08131	15110.725
2114.0669	15092.925
2117.05057	15107.225
2120.03233	15079.825
2123.01216	15065.725
2125.99008	15076.325
2128.96609	15059.125
2131.94018	15047.925
2134.91236	15013.125
2137.88263	15021.225
2140.851	15025.425
2143.81746	15000.925
2146.78201	15032.325
2149.74466	15006.525
2152.7054	14987.325
2155.66425	14968.925
2158.6212	14987.025
2161.57625	14948.825
2164.52941	14968.225
2167.48067	14937.225
2170.43004	14923.025
2173.37752	14924.125
2176.32311	14943.125
2179.26681	14919.625
2182.20863	14904.025
2185.14856	14917.125
2188.08661	14884.125
2191.02278	14898.025
2193.95707	14865.825
2196.88948	14840.225
2199.82001	14821.725
2202.74867	14796.725
2205.67545	14797.625
2208.60037	14760.125
2211.52341	14753.025
2214.44458	14704.725
2217.36388	14655.125
2220.28132	14645.025
2223.1969	14619.525
2226.11061	14588.025
2229.02246	14542.725
2231.93245	14536.225
2234.84058	14544.225
2237.74686	14510.925
2240.65128	14472.025
2243.55385	14467.425
2246.45456	14431.825
2249.35343	14349.425
2252.25044	14320.125
2255.14561	14307.425
2258.03893	14296.125
2260.93041	14220.925
2263.82004	14191.525
2266.70783	14187.525
2269.59378	14121.325
2272.4779	14108.525
2275.36017	14059.025
2278.24061	14024.525
2281.11922	13984.925
2283.996	13993.925
2286.87094	13964.525
2289.74405	13906.625
2292.61534	13865.425
2295.4848	13834.325
2298.35243	13856.225
2301.21824	13811.025
2304.08223	13804.625
2306.94439	13798.925
2309.80474	13781.425
2312.66327	13763.025
2315.51999	13747.225
2318.37489	13720.225
2321.22797	13687.725
2324.07925	13666.225
2326.92871	13683.225
2329.77637	13677.325
2332.62222	13618.425
2335.46626	13626.425
2338.3085	13615.525
2341.14893	13582.825
2343.98756	13566.725
2346.8244	13570.825
2349.65943	13553.725
2352.49267	13521.225
2355.32411	13544.325
2358.15376	13543.325
2360.98161	13513.925
2363.80768	13487.325
2366.63195	13499.725
2369.45444	13531.625
2372.27514	13479.425
2375.09405	13443.925
2377.91118	13410.725
2380.72652	13410.925
2383.54009	13378.625
2386.35187	13360.425
2389.16188	13280.925
2391.97011	13247.925
2394.77657	13219.925
2397.58125	13213.125
2400.38416	13203.925
2403.18529	13142.425
2405.98466	13135.325
2408.78226	13108.125
2411.57809	13084.325
2414.37216	13055.625
2417.16446	13067.725
2419.955	13023.525
2422.74378	13050.525
2425.5308	13029.925
2428.31606	13037.725
2431.09956	13041.825
2433.88131	12987.025
2436.6613	12994.525
2439.43954	12972.825
2442.21603	12940.025
2444.99077	12932.825
2447.76377	12962.525
2450.53501	12945.225
2453.30451	12934.025
2456.07226	12916.325
2458.83827	12916.125
2461.60254	12880.725
2464.36507	12897.925
2467.12586	12891.925
2469.88492	12849.125
2472.64224	12838.925
2475.39782	12901.125
2478.15167	12841.625
2480.90379	12826.625
2483.65417	12824.425
2486.40283	12845.425
2489.14976	12819.025
2491.89497	12784.125
2494.63845	12813.625
2497.3802	12768.525
2500.12024	12777.425
2502.85855	12776.725
2505.59514	12774.125
2508.33002	12745.625
2511.06318	12730.825
2513.79462	12731.125
2516.52435	12687.625
2519.25237	12696.625
2521.97867	12651.025
2524.70327	12658.225
2527.42616	12641.625
2530.14734	12620.025
2532.86681	12593.125
2535.58458	12581.725
2538.30065	12547.525
2541.01501	12518.825
2543.72768	12501.925
2546.43864	12503.325
2549.14791	12472.225
2551.85548	12469.925
2554.56136	12415.425
2557.26554	12424.725
2559.96803	12405.425
2562.66883	12376.925
2565.36794	12404.725
2568.06536	12385.425
2570.7611	12376.725
2573.45514	12351.525
2576.14751	12312.125
2578.83819	12300.925
2581.52719	12281.125
2584.21451	12295.725
2586.90015	12279.125
2589.58411	12226.025
2592.2664	12209.125
2594.94701	12203.225
2597.62594	12154.225
2600.30321	12125.925
2602.9788	12134.525
2605.65273	12113.725
2608.32498	12124.725
2610.99557	12121.425
2613.66449	12109.025
2616.33175	12095.025
2618.99734	12087.225
2621.66128	12079.825
2624.32355	12088.225
2626.98416	12066.825
2629.64311	12065.325
2632.30041	12034.125
2634.95605	12052.825
2637.61004	12028.325
2640.26238	12001.125
2642.91306	11997.225
2645.56209	11984.025
2648.20948	11984.125
2650.85521	11991.025
2653.4993	11982.325
2656.14175	11996.225
2658.78255	12011.325
2661.42171	11984.325
2664.05923	11968.825
2666.6951	11978.125
2669.32934	11987.625
2671.96194	12030.525
2674.59291	12007.625
2677.22224	11974.425
2679.84993	11976.225
2682.476	11981.425
2685.10043	11999.025
2687.72324	11943.025
2690.34441	11945.025
2692.96396	11932.325
2695.58188	11970.825
2698.19818	11973.625
2700.81285	11945.425
2703.4259	11919.525
2706.03733	11941.625
2708.64714	11957.525
2711.25533	11965.925
2713.86191	11920.825
2716.46687	11948.625
2719.07021	11951.025
2721.67194	11947.325
2724.27206	11931.425
2726.87057	11950.125
2729.46747	11928.825
2732.06276	11931.925
2734.65644	11915.125
2737.24852	11930.925
2739.83899	11907.825
2742.42786	11931.425
2745.01513	11897.925
2747.60079	11869.825
2750.18486	11873.225
2752.76733	11897.425
2755.3482	11858.725
2757.92747	11887.125
2760.50515	11860.925
2763.08123	11849.725
2765.65573	11848.325
2768.22863	11818.225
2770.79994	11812.825
2773.36967	11788.925
2775.9378	11806.425
2778.50435	11781.025
2781.06932	11785.625
2783.6327	11777.825
2786.1945	11765.125
2788.75471	11740.325
2791.31335	11692.225
2793.87041	11677.125
2796.42589	11656.125
2798.97979	11644.825
2801.53212	11652.325
2804.08288	11612.625
2806.63206	11624.325
2809.17967	11594.125
2811.72571	11534.325
2814.27018	11544.525
2816.81308	11529.025
2819.35442	11501.425
2821.89419	11510.825
2824.43239	11494.325
2826.96904	11463.525
2829.50412	11457.225
2832.03763	11429.925
2834.56959	11421.825
2837.1	11394.425
2839.62884	11420.825
2842.15613	11411.525
2844.68186	11436.925
2847.20604	11475.425
2849.72867	11470.325
2852.24974	11479.225
2854.76927	11472.525
2857.28724	11439.025
2859.80367	11396.625
2862.31855	11355.825
2864.83189	11373.125
2867.34368	11346.825
2869.85393	11369.525
2872.36264	11337.425
2874.8698	11319.425
2877.37543	11340.425
2879.87952	11351.725
2882.38207	11357.025
2884.88308	11326.125
2887.38256	11356.125
2889.88051	11345.225
2892.37692	11338.325
2894.8718	11345.425
2897.36515	11353.325
2899.85698	11340.825
2902.34727	11387.825
2904.83604	11372.525
2907.32328	11396.325
2909.809	11377.225
2912.29319	11381.225
2914.77587	11365.725
2917.25702	11364.125
2919.73665	11358.225
2922.21476	11351.825
2924.69136	11328.325
2927.16644	11311.225
2929.64	11331.525
2932.11205	11315.925
2934.58258	11279.125
2937.05161	11296.825
2939.51912	11293.025
2941.98513	11293.425
2944.44962	11236.825
2946.91261	11179.525
2949.37409	11176.025
2951.83407	11145.325
2954.29254	11143.125
2956.74951	11095.725
2959.20498	11088.825
2961.65895	11033.125
2964.11142	11058.425
2966.56239	11022.925
2969.01186	11022.225
2971.45984	10989.125
2973.90632	10959.325
2976.35131	10945.125
2978.7948	10864.525
2981.23681	10853.025
2983.67732	10806.125
2986.11635	10770.325
2988.55388	10736.925
2990.98993	10722.525
2993.4245	10686.825
2995.85758	10662.225
2998.28917	10628.025
3000.71928	10632.225
3003.14791	10611.325
3005.57506	10603.625
3008.00073	10565.625
3010.42493	10545.525
3012.84764	10518.625
3015.26888	10528.425
3017.68865	10456.325
3020.10694	10453.225
3022.52376	10423.725
3024.9391	10432.125
3027.35298	10399.525
3029.76539	10390.825
3032.17632	10355.125
3034.5858	10355.225
3036.9938	10325.525
3039.40034	10291.125
3041.80542	10306.125
3044.20903	10292.225
3046.61118	10271.325
3049.01187	10257.525
3051.4111	10246.925
3053.80888	10224.925
3056.20519	10191.625
3058.60005	10127.925
3060.99345	10137.825
3063.3854	10107.525
3065.7759	10071.725
3068.16494	10059.525
3070.55254	10015.925
3072.93868	10008.325
3075.32338	9941.125
3077.70662	9920.825
3080.08842	9910.725
3082.46878	9893.625
3084.84769	9897.625
3087.22515	9888.725
3089.60118	9884.125
3091.97576	9842.325
3094.3489	9842.825
3096.72061	9834.425
3099.09087	9852.525
3101.4597	9833.425
3103.82709	9804.425
3106.19305	9781.325
3108.55757	9781.325
3110.92066	9783.425
3113.28232	9740.225
3115.64255	9694.725
3118.00134	9648.025
3120.35871	9659.125
3122.71466	9644.225
3125.06917	9626.725
3127.42226	9597.325
3129.77393	9630.225
3132.12417	9592.325
3134.47299	9588.125
3136.82039	9578.925
3139.16636	9549.925
3141.51092	9589.425
3143.85406	9570.525
3146.19579	9563.825
3148.53609	9573.425
3150.87499	9581.525
3153.21246	9570.425
3155.54853	9581.525
3157.88318	9551.425
3160.21642	9547.725
3162.54826	9544.925
3164.87868	9530.225
3167.2077	9525.825
3169.5353	9503.825
3171.86151	9513.025
3174.18631	9491.425
3176.5097	9482.725
3178.83169	9471.125
3181.15228	9490.325
3183.47147	9463.225
3185.78926	9432.325
3188.10565	9425.325
3190.42065	9424.825
3192.73424	9446.625
3195.04645	9417.525
3197.35725	9397.925
3199.66667	9407.625
3201.97469	9389.525
3204.28132	9392.625
3206.58656	9379.925
3208.8904	9371.925
3211.19287	9360.525
3213.49394	9340.325
3215.79363	9357.325
3218.09193	9351.925
3220.38884	9356.725
3222.68438	9363.725
3224.97853	9360.925
3227.2713	9359.925
3229.56269	9330.825
3231.8527	9301.325
3234.14133	9294.725
3236.42858	9274.225
3238.71446	9270.425
3240.99896	9277.325
3243.28209	9292.625
3245.56384	9249.725
3247.84423	9268.025
3250.12324	9247.725
3252.40088	9211.125
3254.67715	9209.425
3256.95205	9192.425
3259.22558	9184.825
3261.49775	9126.325
3263.76855	9109.025
3266.03799	9103.125
3268.30606	9073.025
3270.57277	9055.025
3272.83812	9041.925
3275.10211	9032.925
3277.36474	8993.725
3279.62601	9021.125
3281.88593	9011.925
3284.14448	9034.325
3286.40168	9036.225
3288.65753	9021.025
3290.91202	8980.925
3293.16516	8957.325
3295.41695	8926.725
3297.66738	8891.425
3299.91647	8814.625
3302.16421	8783.025
3304.4106	8728.725
3306.65564	8678.125
3308.89933	8635.025
3311.14169	8603.525
3313.38269	8511.925
3315.62236	8464.225
3317.86068	8379.925
3320.09766	8307.325
3322.3333	8202.825
3324.5676	8229.225
3326.80056	8072.825
3329.03219	8013.425
3331.26248	1.525
3333.49143	0.125
3335.71905	-2.075
