Data from AgNPs_FTO_APTES_UA_2uM_CRN_100uM_R6G_10uM_NaF_0.1M_Addition_RamanShift__2__15-40-25-303.txt Node

Date: Wed Feb 02 15:40:25 GMT 2022
User: TCL
Spectrometer: QEP01345
Trigger mode: 4
Integration Time (sec): 7.000000E0
Scans to average: 10
Electric dark correction enabled: true
Nonlinearity correction enabled: false
Boxcar width: 0
XAxis mode: Raman Shifts
Number of Pixels in Spectrum: 1044
>>>>>Begin Spectral Data<<<<<
46.04893	1.1875
50.45542	2.1875
54.85868	-1.0125
59.25871	-0.9125
63.6555	71.7875
68.04907	75.9875
72.43941	77.8875
76.82654	86.6875
81.21044	86.8875
85.59113	94.0875
89.96862	95.4875
94.34289	98.3875
98.71396	102.1875
103.08183	109.9875
107.4465	108.0875
111.80798	116.6875
116.16626	113.3875
120.52136	116.9875
124.87327	120.2875
129.222	128.3875
133.56755	136.8875
137.90993	145.8875
142.24913	158.0875
146.58517	178.3875
150.91804	205.2875
155.24774	238.2875
159.57429	297.5875
163.89768	380.4875
168.21792	498.5875
172.53501	677.9875
176.84895	949.8875
181.15975	1328.9875
185.46741	1866.8875
189.77193	2554.7875
194.07331	3449.1875
198.37157	4443.0875
202.6667	5508.8875
206.9587	6534.0875
211.24758	7548.0875
215.53334	8610.2875
219.81599	9690.8875
224.09553	10894.5875
228.37195	12256.7875
232.64527	13684.4875
236.91549	15152.7875
241.18261	16641.1875
245.44663	17999.5875
249.70755	19180.7875
253.96539	20241.8875
258.22014	21074.1875
262.4718	21814.1875
266.72039	22311.2875
270.96589	22599.8875
275.20832	22659.8875
279.44768	22620.6875
283.68397	22493.5875
287.91719	22432.2875
292.14735	22518.1875
296.37445	22601.9875
300.59849	22868.6875
304.81948	23082.6875
309.03742	23125.1875
313.25231	22887.0875
317.46415	22255.5875
321.67296	21389.2875
325.87872	20665.0875
330.08145	20215.2875
334.28114	20048.3875
338.47781	20159.8875
342.67145	20401.9875
346.86207	20688.5875
351.04966	21024.5875
355.23424	21350.1875
359.4158	21664.5875
363.59435	21821.3875
367.76989	21886.0875
371.94243	21881.1875
376.11196	21874.5875
380.27849	21861.1875
384.44203	21914.6875
388.60257	22046.0875
392.76012	22375.1875
396.91468	22717.5875
401.06626	23166.5875
405.21485	23431.9875
409.36047	23302.5875
413.50311	22862.5875
417.64277	22516.2875
421.77947	22385.5875
425.9132	22381.0875
430.04396	22442.4875
434.17176	22507.0875
438.2966	22585.6875
442.41849	22848.3875
446.53742	23385.5875
450.6534	23967.3875
454.76644	24477.1875
458.87653	24636.5875
462.98368	24656.3875
467.08789	24511.6875
471.18916	24331.7875
475.2875	24245.8875
479.38291	24306.8875
483.4754	24246.4875
487.56496	23941.0875
491.6516	23447.2875
495.73531	22892.7875
499.81612	22528.0875
503.89401	22504.3875
507.96899	22557.6875
512.04106	22495.1875
516.11023	22372.3875
520.1765	22125.7875
524.23987	21808.9875
528.30034	21489.7875
532.35792	21210.7875
536.41261	20964.1875
540.46441	20732.9875
544.51333	20804.6875
548.55936	21194.3875
552.60252	21785.2875
556.64279	22460.3875
560.6802	22910.4875
564.71473	23289.5875
568.7464	23916.9875
572.7752	24920.5875
576.80114	25830.4875
580.82422	26599.5875
584.84444	27221.5875
588.86181	27754.7875
592.87633	27813.2875
596.888	27264.4875
600.89682	26362.8875
604.9028	26443.9875
608.90594	28287.0875
612.90624	30396.6875
616.90371	28475.2875
620.89834	23445.6875
624.89015	21168.5875
628.87913	20913.8875
632.86528	21177.4875
636.84862	21335.4875
640.82913	20987.8875
644.80683	20412.3875
648.78172	19950.8875
652.75379	19869.6875
656.72306	20071.2875
660.68952	20384.6875
664.65319	20302.7875
668.61405	19938.9875
672.57211	19801.5875
676.52738	19843.6875
680.47986	19828.3875
684.42955	19729.1875
688.37646	19594.7875
692.32058	19658.2875
696.26192	19876.9875
700.20048	20164.8875
704.13626	20416.3875
708.06928	20519.4875
711.99952	20467.8875
715.927	20424.2875
719.85171	20386.3875
723.77365	20237.3875
727.69284	19930.0875
731.60928	19625.6875
735.52295	19506.5875
739.43388	19446.6875
743.34206	19456.9875
747.24749	19606.4875
751.15017	19854.4875
755.05012	20321.8875
758.94733	21082.9875
762.8418	22483.3875
766.73354	24522.3875
770.62254	26417.3875
774.50882	26547.9875
778.39237	25080.0875
782.27321	22979.8875
786.15132	21242.3875
790.02671	20152.7875
793.89938	19609.3875
797.76935	19349.4875
801.6366	19256.8875
805.50115	19193.5875
809.36299	19109.3875
813.22213	19023.2875
817.07857	18998.1875
820.93231	18904.4875
824.78336	18814.4875
828.63172	18671.5875
832.47738	18578.6875
836.32036	18553.9875
840.16066	18552.9875
843.99827	18537.8875
847.8332	18491.5875
851.66546	18425.7875
855.49504	18417.9875
859.32195	18386.9875
863.1462	18390.4875
866.96777	18302.0875
870.78668	18270.1875
874.60293	18249.9875
878.41652	18239.1875
882.22745	18276.8875
886.03573	18365.1875
889.84136	18366.0875
893.64433	18277.2875
897.44466	18242.0875
901.24235	18169.6875
905.0374	18129.0875
908.8298	18128.7875
912.61957	18204.1875
916.40671	18460.2875
920.19121	18791.7875
923.97308	19008.5875
927.75233	18955.9875
931.52895	18744.7875
935.30295	18390.3875
939.07433	17923.3875
942.84309	17560.2875
946.60924	17334.3875
950.37278	17230.4875
954.13371	17226.0875
957.89203	17233.5875
961.64774	17244.1875
965.40086	17268.5875
969.15137	17184.1875
972.89929	17069.9875
976.64461	16942.5875
980.38733	16875.4875
984.12747	16882.4875
987.86502	16974.1875
991.59999	17081.2875
995.33237	17245.7875
999.06217	17503.3875
1002.78939	17838.3875
1006.51404	18061.1875
1010.23611	18319.4875
1013.95561	18521.5875
1017.67255	18585.7875
1021.38692	18465.8875
1025.09872	18218.4875
1028.80796	18084.1875
1032.51465	18177.4875
1036.21877	18379.8875
1039.92035	18603.0875
1043.61937	18669.6875
1047.31584	18635.8875
1051.00976	18567.0875
1054.70114	18590.1875
1058.38998	18743.1875
1062.07627	19003.9875
1065.76003	19304.1875
1069.44126	19624.6875
1073.11995	19952.6875
1076.79611	20242.1875
1080.46974	20289.8875
1084.14085	20361.7875
1087.80943	20563.5875
1091.47549	20797.5875
1095.13903	20944.2875
1098.80005	20674.1875
1102.45857	20016.9875
1106.11456	19426.5875
1109.76805	19107.7875
1113.41903	19052.0875
1117.06751	19217.5875
1120.71348	19492.1875
1124.35696	19833.3875
1127.99793	20284.3875
1131.63641	20521.2875
1135.2724	20316.2875
1138.90589	20113.1875
1142.5369	20137.8875
1146.16542	20318.7875
1149.79145	20634.8875
1153.415	20947.4875
1157.03607	21385.0875
1160.65467	22059.2875
1164.27079	23176.7875
1167.88443	24578.9875
1171.49561	26201.7875
1175.10432	28210.5875
1178.71056	30697.7875
1182.31434	32869.4875
1185.91565	33902.4875
1189.51451	33879.3875
1193.11091	33078.7875
1196.70485	31845.7875
1200.29634	30432.0875
1203.88538	29370.5875
1207.47197	28844.0875
1211.05612	28450.2875
1214.63782	27854.1875
1218.21708	26883.2875
1221.79391	25849.9875
1225.36829	25053.6875
1228.94024	24532.4875
1232.50976	24161.1875
1236.07685	23917.4875
1239.6415	23805.8875
1243.20374	23850.0875
1246.76355	24082.8875
1250.32093	24425.2875
1253.8759	24924.3875
1257.42845	25694.9875
1260.97859	26541.7875
1264.52631	27322.2875
1268.07163	28118.6875
1271.61453	28911.4875
1275.15503	29857.2875
1278.69312	30871.4875
1282.22882	31941.9875
1285.76211	33231.7875
1289.29301	34818.7875
1292.82151	36809.4875
1296.34761	39087.6875
1299.87133	41700.5875
1303.39266	44135.4875
1306.9116	46291.9875
1310.42815	47820.1875
1313.94233	48497.1875
1317.45412	48141.3875
1320.96354	47452.6875
1324.47058	47045.6875
1327.97525	46796.8875
1331.47754	46689.1875
1334.97747	46413.3875
1338.47502	46057.2875
1341.97022	45564.8875
1345.46305	45081.4875
1348.95352	44576.2875
1352.44163	44153.5875
1355.92738	44326.6875
1359.41078	45489.2875
1362.89183	46794.8875
1366.37053	46056.3875
1369.84688	42500.7875
1373.32088	38068.3875
1376.79254	34961.8875
1380.26186	33798.5875
1383.72883	33793.9875
1387.19347	33911.0875
1390.65578	33829.0875
1394.11575	33810.9875
1397.57339	34025.6875
1401.0287	34416.3875
1404.48168	34542.1875
1407.93234	34108.9875
1411.38068	32927.1875
1414.82669	31402.1875
1418.27039	29776.5875
1421.71177	28242.1875
1425.15083	27116.6875
1428.58758	26534.5875
1432.02203	26684.0875
1435.45416	27394.1875
1438.88399	28286.8875
1442.31151	29054.5875
1445.73673	29582.0875
1449.15965	30187.2875
1452.58027	30631.8875
1455.9986	30872.6875
1459.41463	31183.6875
1462.82837	31563.3875
1466.23982	32034.6875
1469.64898	32406.6875
1473.05586	32572.1875
1476.46045	32536.0875
1479.86276	32211.0875
1483.26279	31935.2875
1486.66054	31946.7875
1490.05602	32306.0875
1493.44922	32949.2875
1496.84016	33913.2875
1500.22882	35395.8875
1503.61521	37344.6875
1506.99934	39427.3875
1510.38121	40975.0875
1513.76081	41303.8875
1517.13816	40177.5875
1520.51324	38399.5875
1523.88607	36933.3875
1527.25665	36231.5875
1530.62498	35939.8875
1533.99105	35566.5875
1537.35488	34891.0875
1540.71647	33869.1875
1544.07581	32615.2875
1547.4329	31366.9875
1550.78776	30373.9875
1554.14038	29796.9875
1557.49077	29519.2875
1560.83892	29517.7875
1564.18484	29661.3875
1567.52853	29943.6875
1570.86999	30429.7875
1574.20922	31202.4875
1577.54624	31867.8875
1580.88103	32113.2875
1584.2136	32277.3875
1587.54395	32918.4875
1590.87208	34117.2875
1594.19801	35569.1875
1597.52172	36973.9875
1600.84321	36975.6875
1604.16251	35147.6875
1607.47959	32312.6875
1610.79447	29519.2875
1614.10715	26931.1875
1617.41763	24826.9875
1620.7259	23322.2875
1624.03199	22500.5875
1627.33587	22475.8875
1630.63757	23110.8875
1633.93707	24703.5875
1637.23439	27344.2875
1640.52951	31198.1875
1643.82246	35885.3875
1647.11321	40029.6875
1650.40179	41518.2875
1653.68819	39341.2875
1656.97241	34242.0875
1660.25446	28772.1875
1663.53433	24348.6875
1666.81203	21327.2875
1670.08756	19427.2875
1673.36092	18211.5875
1676.63211	17441.2875
1679.90115	16929.2875
1683.16801	16532.0875
1686.43272	16267.6875
1689.69527	16036.7875
1692.95567	15905.3875
1696.2139	15763.9875
1699.46999	15701.7875
1702.72392	15603.9875
1705.97571	15497.0875
1709.22535	15426.1875
1712.47284	15388.6875
1715.71819	15307.3875
1718.96139	15267.0875
1722.20246	15209.9875
1725.44139	15110.2875
1728.67818	15037.5875
1731.91284	14928.7875
1735.14537	14818.0875
1738.37576	14753.7875
1741.60403	14699.8875
1744.83017	14650.8875
1748.05418	14566.3875
1751.27607	14593.6875
1754.49584	14569.8875
1757.71349	14555.8875
1760.92903	14523.4875
1764.14244	14532.9875
1767.35375	14473.2875
1770.56294	14416.5875
1773.77002	14369.1875
1776.97499	14308.7875
1780.17785	14273.0875
1783.37861	14231.5875
1786.57727	14189.0875
1789.77382	14123.7875
1792.96828	14097.1875
1796.16064	14076.6875
1799.3509	14020.7875
1802.53907	13997.2875
1805.72514	13939.9875
1808.90913	13884.2875
1812.09102	13850.3875
1815.27083	13842.2875
1818.44856	13823.9875
1821.6242	13757.1875
1824.79776	13772.5875
1827.96924	13762.0875
1831.13864	13719.5875
1834.30597	13750.0875
1837.47122	13720.7875
1840.6344	13740.6875
1843.7955	13751.5875
1846.95454	13714.0875
1850.11151	13676.1875
1853.26642	13692.4875
1856.41926	13666.7875
1859.57004	13669.6875
1862.71876	13613.9875
1865.86542	13620.2875
1869.01003	13598.6875
1872.15258	13558.4875
1875.29308	13576.6875
1878.43152	13523.4875
1881.56792	13525.1875
1884.70227	13460.1875
1887.83457	13466.5875
1890.96482	13461.7875
1894.09304	13420.4875
1897.21921	13377.0875
1900.34335	13373.1875
1903.46544	13331.9875
1906.58551	13327.0875
1909.70353	13296.7875
1912.81953	13255.4875
1915.93349	13220.3875
1919.04543	13195.4875
1922.15534	13198.6875
1925.26322	13138.1875
1928.36908	13104.2875
1931.47292	13067.6875
1934.57473	13056.2875
1937.67453	12992.5875
1940.77232	12954.7875
1943.86808	12941.7875
1946.96184	12896.2875
1950.05358	12848.4875
1953.14331	12811.8875
1956.23103	12789.8875
1959.31675	12747.2875
1962.40046	12729.0875
1965.48217	12685.8875
1968.56188	12625.2875
1971.63959	12595.1875
1974.7153	12541.8875
1977.78901	12517.5875
1980.86073	12459.6875
1983.93046	12393.3875
1986.99819	12370.2875
1990.06394	12330.1875
1993.1277	12289.5875
1996.18947	12236.3875
1999.24925	12203.8875
2002.30706	12150.4875
2005.36288	12112.2875
2008.41672	12101.2875
2011.46859	12063.1875
2014.51848	12020.8875
2017.56639	11986.7875
2020.61233	11942.8875
2023.6563	11933.7875
2026.6983	11884.4875
2029.73833	11879.5875
2032.7764	11831.2875
2035.8125	11829.5875
2038.84664	11798.1875
2041.87881	11794.3875
2044.90903	11748.8875
2047.93729	11730.5875
2050.96359	11716.2875
2053.98794	11685.0875
2057.01034	11696.2875
2060.03078	11670.5875
2063.04927	11663.7875
2066.06582	11644.6875
2069.08042	11611.5875
2072.09307	11628.4875
2075.10378	11591.6875
2078.11255	11592.4875
2081.11938	11588.6875
2084.12426	11567.8875
2087.12722	11580.4875
2090.12824	11578.4875
2093.12732	11600.2875
2096.12447	11564.2875
2099.11969	11572.0875
2102.11299	11553.5875
2105.10435	11571.8875
2108.09379	11555.2875
2111.08131	11578.5875
2114.0669	11586.4875
2117.05057	11567.9875
2120.03233	11601.1875
2123.01216	11634.2875
2125.99008	11616.9875
2128.96609	11597.7875
2131.94018	11583.8875
2134.91236	11586.6875
2137.88263	11614.8875
2140.851	11589.6875
2143.81746	11616.7875
2146.78201	11601.3875
2149.74466	11611.0875
2152.7054	11627.1875
2155.66425	11579.1875
2158.6212	11582.7875
2161.57625	11546.4875
2164.52941	11558.5875
2167.48067	11541.5875
2170.43004	11557.3875
2173.37752	11509.7875
2176.32311	11517.7875
2179.26681	11503.7875
2182.20863	11513.0875
2185.14856	11533.3875
2188.08661	11526.9875
2191.02278	11528.5875
2193.95707	11498.0875
2196.88948	11469.9875
2199.82001	11463.9875
2202.74867	11469.4875
2205.67545	11428.0875
2208.60037	11418.2875
2211.52341	11408.9875
2214.44458	11384.7875
2217.36388	11372.8875
2220.28132	11367.0875
2223.1969	11344.7875
2226.11061	11296.2875
2229.02246	11266.0875
2231.93245	11258.2875
2234.84058	11246.0875
2237.74686	11236.3875
2240.65128	11232.0875
2243.55385	11206.4875
2246.45456	11166.0875
2249.35343	11155.4875
2252.25044	11135.7875
2255.14561	11128.3875
2258.03893	11094.8875
2260.93041	11096.9875
2263.82004	11035.9875
2266.70783	11036.7875
2269.59378	10986.4875
2272.4779	10949.4875
2275.36017	10911.2875
2278.24061	10897.1875
2281.11922	10886.0875
2283.996	10886.2875
2286.87094	10840.5875
2289.74405	10809.4875
2292.61534	10798.4875
2295.4848	10783.5875
2298.35243	10784.7875
2301.21824	10776.0875
2304.08223	10782.9875
2306.94439	10777.5875
2309.80474	10774.1875
2312.66327	10759.1875
2315.51999	10766.6875
2318.37489	10723.8875
2321.22797	10715.5875
2324.07925	10719.3875
2326.92871	10708.5875
2329.77637	10690.8875
2332.62222	10672.2875
2335.46626	10646.7875
2338.3085	10645.6875
2341.14893	10643.9875
2343.98756	10638.7875
2346.8244	10662.1875
2349.65943	10649.9875
2352.49267	10624.6875
2355.32411	10648.9875
2358.15376	10625.9875
2360.98161	10642.4875
2363.80768	10631.1875
2366.63195	10636.2875
2369.45444	10601.6875
2372.27514	10580.4875
2375.09405	10572.9875
2377.91118	10555.8875
2380.72652	10532.8875
2383.54009	10524.6875
2386.35187	10491.3875
2389.16188	10445.6875
2391.97011	10450.7875
2394.77657	10406.4875
2397.58125	10414.6875
2400.38416	10393.2875
2403.18529	10339.2875
2405.98466	10316.5875
2408.78226	10319.1875
2411.57809	10271.2875
2414.37216	10309.8875
2417.16446	10308.0875
2419.955	10304.4875
2422.74378	10315.5875
2425.5308	10278.3875
2428.31606	10281.2875
2431.09956	10254.3875
2433.88131	10251.2875
2436.6613	10240.3875
2439.43954	10239.4875
2442.21603	10243.7875
2444.99077	10194.0875
2447.76377	10244.4875
2450.53501	10227.1875
2453.30451	10212.0875
2456.07226	10218.3875
2458.83827	10213.0875
2461.60254	10213.9875
2464.36507	10217.2875
2467.12586	10194.8875
2469.88492	10218.2875
2472.64224	10185.0875
2475.39782	10207.2875
2478.15167	10185.2875
2480.90379	10187.7875
2483.65417	10203.3875
2486.40283	10189.1875
2489.14976	10208.9875
2491.89497	10208.0875
2494.63845	10220.3875
2497.3802	10195.3875
2500.12024	10187.3875
2502.85855	10166.0875
2505.59514	10183.6875
2508.33002	10182.7875
2511.06318	10163.6875
2513.79462	10141.6875
2516.52435	10113.4875
2519.25237	10120.4875
2521.97867	10126.0875
2524.70327	10092.3875
2527.42616	10075.8875
2530.14734	10075.4875
2532.86681	10050.5875
2535.58458	10064.7875
2538.30065	10027.1875
2541.01501	10038.9875
2543.72768	10024.1875
2546.43864	9996.1875
2549.14791	9987.1875
2551.85548	9971.5875
2554.56136	9953.7875
2557.26554	9984.3875
2559.96803	9966.0875
2562.66883	9937.4875
2565.36794	9946.3875
2568.06536	9939.8875
2570.7611	9946.1875
2573.45514	9918.2875
2576.14751	9914.8875
2578.83819	9884.8875
2581.52719	9856.9875
2584.21451	9900.3875
2586.90015	9862.0875
2589.58411	9861.7875
2592.2664	9869.6875
2594.94701	9851.6875
2597.62594	9835.9875
2600.30321	9798.9875
2602.9788	9807.0875
2605.65273	9800.7875
2608.32498	9814.7875
2610.99557	9810.1875
2613.66449	9824.4875
2616.33175	9804.1875
2618.99734	9806.2875
2621.66128	9796.2875
2624.32355	9780.4875
2626.98416	9781.5875
2629.64311	9778.5875
2632.30041	9764.5875
2634.95605	9759.1875
2637.61004	9754.7875
2640.26238	9727.2875
2642.91306	9726.2875
2645.56209	9737.7875
2648.20948	9730.3875
2650.85521	9709.6875
2653.4993	9719.8875
2656.14175	9705.2875
2658.78255	9713.9875
2661.42171	9713.0875
2664.05923	9754.9875
2666.6951	9752.2875
2669.32934	9763.0875
2671.96194	9750.6875
2674.59291	9753.6875
2677.22224	9722.0875
2679.84993	9746.3875
2682.476	9722.8875
2685.10043	9715.4875
2687.72324	9730.2875
2690.34441	9741.5875
2692.96396	9733.7875
2695.58188	9714.8875
2698.19818	9713.2875
2700.81285	9710.2875
2703.4259	9735.8875
2706.03733	9773.3875
2708.64714	9770.6875
2711.25533	9756.1875
2713.86191	9751.4875
2716.46687	9772.7875
2719.07021	9769.7875
2721.67194	9771.9875
2724.27206	9771.1875
2726.87057	9773.7875
2729.46747	9794.6875
2732.06276	9772.7875
2734.65644	9736.6875
2737.24852	9774.2875
2739.83899	9741.8875
2742.42786	9746.2875
2745.01513	9711.0875
2747.60079	9722.6875
2750.18486	9714.3875
2752.76733	9716.9875
2755.3482	9710.5875
2757.92747	9742.6875
2760.50515	9720.6875
2763.08123	9730.1875
2765.65573	9682.8875
2768.22863	9716.2875
2770.79994	9672.3875
2773.36967	9698.8875
2775.9378	9684.4875
2778.50435	9678.7875
2781.06932	9678.4875
2783.6327	9676.6875
2786.1945	9664.7875
2788.75471	9644.8875
2791.31335	9642.9875
2793.87041	9652.3875
2796.42589	9618.7875
2798.97979	9640.5875
2801.53212	9606.3875
2804.08288	9591.2875
2806.63206	9559.2875
2809.17967	9535.1875
2811.72571	9537.6875
2814.27018	9536.8875
2816.81308	9525.6875
2819.35442	9510.9875
2821.89419	9492.3875
2824.43239	9477.9875
2826.96904	9456.0875
2829.50412	9475.7875
2832.03763	9470.6875
2834.56959	9470.4875
2837.1	9483.7875
2839.62884	9485.8875
2842.15613	9462.9875
2844.68186	9508.5875
2847.20604	9531.6875
2849.72867	9548.9875
2852.24974	9552.8875
2854.76927	9543.7875
2857.28724	9532.2875
2859.80367	9498.2875
2862.31855	9502.6875
2864.83189	9491.0875
2867.34368	9516.6875
2869.85393	9490.6875
2872.36264	9470.7875
2874.8698	9473.9875
2877.37543	9475.7875
2879.87952	9473.1875
2882.38207	9461.4875
2884.88308	9481.6875
2887.38256	9466.5875
2889.88051	9449.0875
2892.37692	9462.9875
2894.8718	9464.8875
2897.36515	9482.7875
2899.85698	9480.6875
2902.34727	9495.2875
2904.83604	9486.1875
2907.32328	9508.9875
2909.809	9504.1875
2912.29319	9518.9875
2914.77587	9510.0875
2917.25702	9510.8875
2919.73665	9486.3875
2922.21476	9511.1875
2924.69136	9484.4875
2927.16644	9498.9875
2929.64	9505.7875
2932.11205	9495.2875
2934.58258	9457.3875
2937.05161	9478.8875
2939.51912	9481.4875
2941.98513	9465.3875
2944.44962	9387.7875
2946.91261	9332.7875
2949.37409	9351.5875
2951.83407	9339.6875
2954.29254	9338.3875
2956.74951	9290.0875
2959.20498	9281.0875
2961.65895	9257.2875
2964.11142	9237.3875
2966.56239	9238.6875
2969.01186	9241.4875
2971.45984	9182.1875
2973.90632	9193.5875
2976.35131	9119.4875
2978.7948	9120.3875
2981.23681	9119.1875
2983.67732	9077.7875
2986.11635	9054.8875
2988.55388	9044.2875
2990.98993	9033.6875
2993.4245	8990.2875
2995.85758	8964.7875
2998.28917	8976.5875
3000.71928	8950.1875
3003.14791	8921.5875
3005.57506	8913.7875
3008.00073	8879.1875
3010.42493	8865.2875
3012.84764	8833.6875
3015.26888	8869.5875
3017.68865	8851.5875
3020.10694	8824.3875
3022.52376	8792.8875
3024.9391	8748.2875
3027.35298	8758.6875
3029.76539	8756.5875
3032.17632	8746.2875
3034.5858	8743.3875
3036.9938	8738.3875
3039.40034	8714.4875
3041.80542	8718.8875
3044.20903	8681.7875
3046.61118	8683.6875
3049.01187	8670.5875
3051.4111	8651.5875
3053.80888	8619.5875
3056.20519	8603.3875
3058.60005	8581.1875
3060.99345	8579.8875
3063.3854	8568.6875
3065.7759	8525.5875
3068.16494	8538.8875
3070.55254	8475.1875
3072.93868	8454.4875
3075.32338	8457.3875
3077.70662	8425.9875
3080.08842	8389.5875
3082.46878	8378.4875
3084.84769	8360.0875
3087.22515	8376.1875
3089.60118	8385.3875
3091.97576	8376.1875
3094.3489	8344.8875
3096.72061	8344.1875
3099.09087	8354.2875
3101.4597	8331.0875
3103.82709	8324.0875
3106.19305	8311.9875
3108.55757	8289.9875
3110.92066	8263.1875
3113.28232	8280.7875
3115.64255	8219.0875
3118.00134	8204.7875
3120.35871	8197.7875
3122.71466	8185.0875
3125.06917	8192.8875
3127.42226	8166.4875
3129.77393	8159.8875
3132.12417	8163.1875
3134.47299	8154.4875
3136.82039	8144.0875
3139.16636	8157.2875
3141.51092	8152.0875
3143.85406	8142.6875
3146.19579	8154.4875
3148.53609	8159.9875
3150.87499	8171.3875
3153.21246	8177.0875
3155.54853	8170.7875
3157.88318	8137.3875
3160.21642	8163.4875
3162.54826	8149.9875
3164.87868	8173.4875
3167.2077	8163.6875
3169.5353	8175.9875
3171.86151	8152.7875
3174.18631	8154.0875
3176.5097	8124.3875
3178.83169	8133.4875
3181.15228	8135.9875
3183.47147	8119.2875
3185.78926	8119.4875
3188.10565	8102.8875
3190.42065	8115.3875
3192.73424	8104.5875
3195.04645	8090.2875
3197.35725	8110.4875
3199.66667	8057.4875
3201.97469	8064.9875
3204.28132	8068.6875
3206.58656	8066.0875
3208.8904	8079.0875
3211.19287	8092.1875
3213.49394	8083.5875
3215.79363	8093.9875
3218.09193	8077.1875
3220.38884	8075.2875
3222.68438	8100.2875
3224.97853	8075.3875
3227.2713	8065.9875
3229.56269	8053.4875
3231.8527	8048.8875
3234.14133	8044.7875
3236.42858	8026.4875
3238.71446	8024.0875
3240.99896	7981.1875
3243.28209	7993.4875
3245.56384	7984.7875
3247.84423	7996.8875
3250.12324	7944.6875
3252.40088	7982.6875
3254.67715	7950.8875
3256.95205	7937.0875
3259.22558	7959.7875
3261.49775	7925.2875
3263.76855	7893.4875
3266.03799	7880.1875
3268.30606	7870.6875
3270.57277	7844.1875
3272.83812	7835.2875
3275.10211	7810.0875
3277.36474	7796.6875
3279.62601	7810.5875
3281.88593	7813.6875
3284.14448	7835.7875
3286.40168	7803.1875
3288.65753	7804.6875
3290.91202	7791.4875
3293.16516	7755.0875
3295.41695	7745.4875
3297.66738	7689.0875
3299.91647	7670.3875
3302.16421	7619.5875
3304.4106	7589.5875
3306.65564	7541.8875
3308.89933	7505.1875
3311.14169	7468.9875
3313.38269	7396.5875
3315.62236	7391.5875
3317.86068	7292.5875
3320.09766	7249.7875
3322.3333	7155.7875
3324.5676	7162.8875
3326.80056	7050.0875
3329.03219	7016.6875
3331.26248	1.0875
3333.49143	-1.3125
3335.71905	-2.0125
